,accelerometerAccelerationX(G),accelerometerAccelerationY(G),accelerometerAccelerationZ(G)
0,0.06640625,-0.9375,-0.2734375
1,0.0625,-0.93359375,-0.26953125
2,0.0546875,-0.94921875,-0.265625
3,0.0625,-0.9453125,-0.2578125
4,0.0546875,-0.93359375,-0.26171875
5,0.05859375,-0.9375,-0.26953125
6,0.0546875,-0.9453125,-0.27734375
7,0.05078125,-0.92578125,-0.28515625
8,0.0546875,-0.94140625,-0.2734375
9,0.05859375,-0.93359375,-0.26953125
10,0.0546875,-0.9453125,-0.27734375
11,0.0546875,-0.94140625,-0.2734375
12,0.046875,-0.92578125,-0.2734375
13,0.0546875,-0.9296875,-0.27734375
14,0.07421875,-0.9453125,-0.27734375
15,0.09375,-0.92578125,-0.25
16,0.0703125,-0.9296875,-0.25390625
17,0.06640625,-0.92578125,-0.2734375
18,0.0625,-0.921875,-0.23828125
19,0.0546875,-0.921875,-0.265625
20,0.06640625,-0.9296875,-0.25390625
21,0.06640625,-0.9140625,-0.24609375
22,0.05078125,-0.90625,-0.26953125
23,0.06640625,-0.92578125,-0.25
24,0.06640625,-0.91015625,-0.23828125
25,0.05859375,-0.90625,-0.265625
26,0.06640625,-0.91015625,-0.25
27,0.05859375,-0.890625,-0.25
28,0.0703125,-0.9140625,-0.24609375
29,0.0546875,-0.8984375,-0.2734375
30,0.06640625,-0.90625,-0.28515625
31,0.0625,-0.90234375,-0.26953125
32,0.078125,-0.90625,-0.27734375
33,0.08203125,-0.92578125,-0.296875
34,0.06640625,-0.9296875,-0.29296875
35,0.078125,-0.94140625,-0.296875
36,0.08203125,-0.94921875,-0.30859375
37,0.07421875,-0.9453125,-0.3203125
38,0.0859375,-0.94921875,-0.3203125
39,0.08203125,-0.95703125,-0.3203125
40,0.09765625,-0.96875,-0.32421875
41,0.10546875,-0.9765625,-0.29296875
42,0.10546875,-0.96484375,-0.28125
43,0.10546875,-0.96875,-0.2734375
44,0.10546875,-0.96484375,-0.26953125
45,0.12109375,-0.9453125,-0.2890625
46,0.1484375,-0.9453125,-0.2734375
47,0.15234375,-0.9140625,-0.2578125
48,0.15625,-0.91015625,-0.21875
49,0.1484375,-0.8984375,-0.20703125
50,0.16015625,-0.89453125,-0.1953125
51,0.16796875,-0.8984375,-0.17578125
52,0.16796875,-0.89453125,-0.14453125
53,0.1796875,-0.90625,-0.12890625
54,0.17578125,-0.90234375,-0.1015625
55,0.17578125,-0.91015625,-0.09765625
56,0.16796875,-0.91796875,-0.109375
57,0.16015625,-0.9296875,-0.1015625
58,0.1328125,-0.92578125,-0.09375
59,0.125,-0.9453125,-0.15234375
60,0.15234375,-0.96875,-0.13671875
61,0.15234375,-0.96875,-0.15234375
62,0.15625,-0.9765625,-0.15625
63,0.171875,-0.98046875,-0.16796875
64,0.18359375,-0.98828125,-0.1640625
65,0.171875,-0.97265625,-0.19140625
66,0.19921875,-0.97265625,-0.19921875
67,0.1953125,-0.984375,-0.21875
68,0.2109375,-0.96875,-0.22265625
69,0.2109375,-0.953125,-0.26171875
70,0.22265625,-0.96484375,-0.28125
71,0.19921875,-0.94921875,-0.2890625
72,0.19921875,-0.93359375,-0.3046875
73,0.1875,-0.921875,-0.31640625
74,0.18359375,-0.90625,-0.3203125
75,0.171875,-0.89453125,-0.328125
76,0.15625,-0.8828125,-0.3359375
77,0.140625,-0.87109375,-0.33984375
78,0.11328125,-0.8515625,-0.3515625
79,0.10546875,-0.84375,-0.3359375
80,0.04296875,-0.8203125,-0.359375
81,0.01953125,-0.80859375,-0.33203125
82,0.00390625,-0.80078125,-0.3203125
83,0.00390625,-0.8046875,-0.3125
84,-0.02734375,-0.796875,-0.28515625
85,-0.03515625,-0.80859375,-0.28515625
86,-0.05859375,-0.8125,-0.27734375
87,-0.05859375,-0.8203125,-0.27734375
88,-0.06640625,-0.83984375,-0.265625
89,-0.046875,-0.87109375,-0.28125
90,-0.03515625,-0.8828125,-0.26171875
91,-0.03125,-0.90625,-0.25
92,-0.0390625,-0.9609375,-0.28515625
93,-0.01953125,-0.984375,-0.2734375
94,-0.03125,-0.99609375,-0.26953125
95,-0.015625,-1.04296875,-0.27734375
96,-0.0234375,-1.06640625,-0.2421875
97,-0.015625,-1.08203125,-0.234375
98,-0.01171875,-1.09765625,-0.23046875
99,-0.015625,-1.09375,-0.203125
100,-0.04296875,-1.0859375,-0.1953125
101,-0.03515625,-1.1015625,-0.15625
102,-0.02734375,-1.08984375,-0.1171875
103,-0.0234375,-1.10546875,-0.12890625
104,-0.01171875,-1.08984375,-0.12890625
105,-0.0078125,-1.05078125,-0.15625
106,-0.0078125,-1.03515625,-0.17578125
107,-0.00390625,-1.01953125,-0.19140625
108,-0.0078125,-1.00390625,-0.17578125
109,0.00390625,-0.9921875,-0.19921875
110,0.01171875,-0.9921875,-0.19140625
111,0.015625,-0.98828125,-0.203125
112,0.0234375,-0.9765625,-0.19921875
113,0.015625,-0.97265625,-0.19921875
114,0.03125,-0.96875,-0.23046875
115,0.03515625,-0.96875,-0.2421875
116,0.02734375,-0.96875,-0.24609375
117,0.02734375,-0.95703125,-0.265625
118,0.01953125,-0.94140625,-0.26953125
119,0.01953125,-0.9375,-0.2578125
120,0.01953125,-0.93359375,-0.28125
121,0.015625,-0.89453125,-0.28515625
122,0.03125,-0.8984375,-0.296875
123,0.01953125,-0.8828125,-0.3125
124,0.04296875,-0.875,-0.3046875
125,0.0078125,-0.859375,-0.296875
126,0.0078125,-0.85546875,-0.296875
127,0.0,-0.83984375,-0.28515625
128,0.0,-0.83203125,-0.2734375
129,-0.015625,-0.8203125,-0.27734375
130,-0.01953125,-0.8359375,-0.2578125
131,-0.0234375,-0.82421875,-0.2265625
132,-0.0234375,-0.828125,-0.22265625
133,-0.0546875,-0.82421875,-0.22265625
134,-0.0625,-0.84375,-0.203125
135,-0.046875,-0.8671875,-0.19921875
136,-0.06640625,-0.86328125,-0.19921875
137,-0.04296875,-0.875,-0.18359375
138,-0.046875,-0.88671875,-0.19921875
139,-0.046875,-0.90234375,-0.1953125
140,-0.046875,-0.89453125,-0.18359375
141,-0.0234375,-0.90625,-0.171875
142,-0.015625,-0.9375,-0.17578125
143,-0.01953125,-0.92578125,-0.15625
144,0.00390625,-0.94140625,-0.15234375
145,-0.0078125,-0.91796875,-0.19140625
146,0.05859375,-0.9375,-0.15234375
147,0.046875,-0.92578125,-0.16796875
148,0.0546875,-0.92578125,-0.171875
149,0.05859375,-0.9140625,-0.15625
150,0.05859375,-0.90625,-0.15234375
151,0.0625,-0.90625,-0.140625
152,0.07421875,-0.91015625,-0.16015625
153,0.0703125,-0.8984375,-0.1484375
154,0.0546875,-0.8984375,-0.17578125
155,0.0546875,-0.90234375,-0.1640625
156,0.05859375,-0.8984375,-0.19140625
157,0.05078125,-0.88671875,-0.19140625
158,0.046875,-0.89453125,-0.1875
159,0.04296875,-0.91015625,-0.18359375
160,0.0625,-0.91796875,-0.171875
161,0.07421875,-0.9296875,-0.203125
162,0.07421875,-0.9296875,-0.2109375
163,0.0625,-0.94140625,-0.20703125
164,0.08203125,-0.96484375,-0.22265625
165,0.09375,-0.95703125,-0.234375
166,0.078125,-0.95703125,-0.22265625
167,0.0703125,-0.97265625,-0.25390625
168,0.07421875,-0.98828125,-0.23828125
169,0.046875,-1.0078125,-0.24609375
170,0.03125,-1.0625,-0.25390625
171,0.0234375,-1.05859375,-0.2421875
172,-0.00390625,-1.0546875,-0.25
173,-0.01171875,-1.0625,-0.2421875
174,-0.03125,-1.078125,-0.25
175,-0.0703125,-1.07421875,-0.2421875
176,-0.1015625,-1.0859375,-0.25390625
177,-0.12890625,-1.1015625,-0.23828125
178,-0.15234375,-1.12890625,-0.24609375
179,-0.15234375,-1.1171875,-0.234375
180,-0.19140625,-1.14453125,-0.20703125
181,-0.2109375,-1.15625,-0.1953125
182,-0.21484375,-1.1875,-0.20703125
183,-0.22265625,-1.19140625,-0.19921875
184,-0.23046875,-1.17578125,-0.19140625
185,-0.2265625,-1.18359375,-0.171875
186,-0.21875,-1.19140625,-0.15625
187,-0.2109375,-1.18359375,-0.140625
188,-0.203125,-1.16015625,-0.17578125
189,-0.18359375,-1.1328125,-0.203125
190,-0.171875,-1.08984375,-0.26171875
191,-0.1640625,-1.05078125,-0.30859375
192,-0.13671875,-1.04296875,-0.39453125
193,-0.109375,-1.04296875,-0.44140625
194,-0.109375,-1.046875,-0.484375
195,-0.109375,-1.09375,-0.49609375
196,-0.11328125,-1.16015625,-0.48046875
197,-0.15234375,-1.2109375,-0.484375
198,-0.1484375,-1.25390625,-0.44140625
199,-0.15234375,-1.29296875,-0.390625
200,-0.1484375,-1.296875,-0.38671875
201,-0.1484375,-1.296875,-0.4140625
202,-0.16015625,-1.26171875,-0.4375
203,-0.15234375,-1.26953125,-0.47265625
204,-0.15625,-1.24609375,-0.55078125
205,-0.17578125,-1.2265625,-0.6328125
206,-0.1640625,-1.18359375,-0.6953125
207,-0.1328125,-1.15625,-0.765625
208,-0.11328125,-1.12890625,-0.76953125
209,-0.1015625,-1.0703125,-0.80859375
210,-0.08203125,-1.015625,-0.83984375
211,-0.046875,-0.97265625,-0.8359375
212,-0.0390625,-0.90625,-0.81640625
213,-0.03515625,-0.859375,-0.8125
214,-0.0390625,-0.79296875,-0.7578125
215,-0.015625,-0.7734375,-0.70703125
216,0.00390625,-0.734375,-0.640625
217,0.0390625,-0.69140625,-0.58984375
218,0.046875,-0.671875,-0.58984375
219,0.07421875,-0.63671875,-0.5546875
220,0.08984375,-0.62109375,-0.515625
221,0.1015625,-0.625,-0.484375
222,0.1015625,-0.65234375,-0.5234375
223,0.12890625,-0.65625,-0.51953125
224,0.1328125,-0.671875,-0.53125
225,0.15625,-0.6875,-0.55078125
226,0.15234375,-0.7265625,-0.58203125
227,0.16796875,-0.74609375,-0.58984375
228,0.16796875,-0.75,-0.58984375
229,0.1640625,-0.765625,-0.59375
230,0.13671875,-0.7734375,-0.6171875
231,0.1171875,-0.80859375,-0.546875
232,0.10546875,-0.82421875,-0.5625
233,0.08203125,-0.859375,-0.5625
234,0.0703125,-0.890625,-0.53515625
235,0.05859375,-0.91796875,-0.52734375
236,0.0390625,-0.94140625,-0.53125
237,0.02734375,-0.94140625,-0.53515625
238,0.0390625,-0.953125,-0.51953125
239,0.0390625,-0.9453125,-0.53125
240,0.03515625,-0.9375,-0.5234375
241,0.04296875,-0.9140625,-0.47265625
242,0.03515625,-0.8984375,-0.4765625
243,0.0546875,-0.875,-0.4453125
244,0.05859375,-0.84765625,-0.4296875
245,0.0703125,-0.83203125,-0.41796875
246,0.078125,-0.81640625,-0.39453125
247,0.08984375,-0.7890625,-0.38671875
248,0.0859375,-0.7578125,-0.375
249,0.08984375,-0.73828125,-0.3671875
250,0.125,-0.74609375,-0.3515625
251,0.109375,-0.7265625,-0.33203125
252,0.12890625,-0.69140625,-0.30859375
253,0.12890625,-0.6953125,-0.33203125
254,0.125,-0.6875,-0.30078125
255,0.1328125,-0.68359375,-0.30078125
256,0.140625,-0.66796875,-0.296875
257,0.12109375,-0.6640625,-0.28515625
258,0.12890625,-0.66796875,-0.28125
259,0.10546875,-0.6484375,-0.26953125
260,0.09765625,-0.63671875,-0.265625
261,0.1015625,-0.6328125,-0.26953125
262,0.0625,-0.61328125,-0.26171875
263,0.05859375,-0.62109375,-0.27734375
264,0.0546875,-0.58984375,-0.265625
265,0.04296875,-0.578125,-0.2578125
266,0.0234375,-0.59375,-0.26171875
267,0.015625,-0.578125,-0.24609375
268,0.015625,-0.59765625,-0.25
269,0.01953125,-0.5859375,-0.21484375
270,0.01171875,-0.58984375,-0.21875
271,0.01171875,-0.60546875,-0.19921875
272,0.00390625,-0.61328125,-0.1953125
273,0.015625,-0.640625,-0.20703125
274,0.01953125,-0.6484375,-0.1953125
275,0.0234375,-0.68359375,-0.16015625
276,0.02734375,-0.65625,-0.20703125
277,0.03515625,-0.66796875,-0.21484375
278,0.046875,-0.67578125,-0.20703125
279,0.04296875,-0.6640625,-0.22265625
280,0.05078125,-0.68359375,-0.20703125
281,0.07421875,-0.6953125,-0.21875
282,0.08203125,-0.69921875,-0.234375
283,0.08984375,-0.73046875,-0.23046875
284,0.09765625,-0.73046875,-0.22265625
285,0.10546875,-0.75,-0.23046875
286,0.1015625,-0.76171875,-0.23828125
287,0.09375,-0.7734375,-0.23046875
288,0.08984375,-0.78515625,-0.23828125
289,0.0703125,-0.81640625,-0.2109375
290,0.05859375,-0.83984375,-0.21875
291,0.06640625,-0.890625,-0.22265625
292,0.05078125,-0.921875,-0.1953125
293,0.0546875,-0.9453125,-0.19921875
294,0.046875,-0.9921875,-0.20703125
295,0.0546875,-1.02734375,-0.21875
296,0.04296875,-1.05078125,-0.2265625
297,0.0625,-1.0859375,-0.23828125
298,0.09375,-1.1171875,-0.23046875
299,0.1171875,-1.140625,-0.25
300,0.1875,-1.15234375,-0.26171875
301,0.2421875,-1.16796875,-0.28125
302,0.3125,-1.1953125,-0.28515625
303,0.3671875,-1.21484375,-0.28125
304,0.44921875,-1.23828125,-0.28125
305,0.51171875,-1.26171875,-0.23046875
306,0.6015625,-1.28515625,-0.21484375
307,0.63671875,-1.30078125,-0.19921875
308,0.640625,-1.32421875,-0.125
309,0.66015625,-1.34765625,-0.1328125
310,0.65234375,-1.37890625,-0.1328125
311,0.640625,-1.38671875,-0.12890625
312,0.625,-1.390625,-0.13671875
313,0.59765625,-1.37109375,-0.19140625
314,0.578125,-1.3359375,-0.28125
315,0.5625,-1.2890625,-0.4140625
316,0.50390625,-1.21875,-0.640625
317,0.4296875,-1.17578125,-0.80859375
318,0.31640625,-1.19921875,-0.859375
319,0.09375,-1.296875,-0.796875
320,-0.01953125,-1.3984375,-0.6484375
321,-0.04296875,-1.45703125,-0.55078125
322,0.01953125,-1.4609375,-0.55078125
323,0.10546875,-1.44921875,-0.57421875
324,0.19140625,-1.3828125,-0.66796875
325,0.1796875,-1.2890625,-0.734375
326,0.14453125,-1.1953125,-0.8203125
327,0.19921875,-1.08203125,-0.9140625
328,0.20703125,-1.01953125,-0.9609375
329,0.125,-0.9921875,-0.98828125
330,0.0,-0.91796875,-0.9375
331,-0.07421875,-0.8359375,-0.90234375
332,-0.140625,-0.76953125,-0.8203125
333,-0.1796875,-0.71875,-0.79296875
334,-0.203125,-0.67578125,-0.75390625
335,-0.25,-0.671875,-0.6875
336,-0.26171875,-0.6796875,-0.6328125
337,-0.234375,-0.69921875,-0.62890625
338,-0.1953125,-0.6953125,-0.59765625
339,-0.1171875,-0.7109375,-0.5703125
340,-0.08203125,-0.75,-0.5625
341,-0.00390625,-0.7578125,-0.515625
342,0.0390625,-0.77734375,-0.4921875
343,0.0625,-0.8046875,-0.46875
344,0.1171875,-0.8359375,-0.46484375
345,0.14453125,-0.87890625,-0.44140625
346,0.16796875,-0.9140625,-0.46484375
347,0.19140625,-0.92578125,-0.5
348,0.20703125,-0.921875,-0.515625
349,0.2265625,-0.92578125,-0.5390625
350,0.24609375,-0.953125,-0.55859375
351,0.23828125,-0.953125,-0.5234375
352,0.203125,-0.9609375,-0.5234375
353,0.18359375,-0.95703125,-0.5
354,0.15234375,-0.96484375,-0.5
355,0.11328125,-0.96484375,-0.47265625
356,0.0703125,-0.95703125,-0.45703125
357,0.0078125,-0.94140625,-0.4296875
358,-0.01171875,-0.9375,-0.40625
359,-0.046875,-0.9140625,-0.3984375
360,-0.08203125,-0.87890625,-0.375
361,-0.09375,-0.83984375,-0.359375
362,-0.10546875,-0.796875,-0.35546875
363,-0.1328125,-0.7578125,-0.33984375
364,-0.125,-0.73046875,-0.3203125
365,-0.12890625,-0.671875,-0.30859375
366,-0.12109375,-0.625,-0.28125
367,-0.13671875,-0.58203125,-0.25390625
368,-0.13671875,-0.5546875,-0.21875
369,-0.11328125,-0.5234375,-0.19921875
370,-0.10546875,-0.51171875,-0.18359375
371,-0.09375,-0.50390625,-0.1875
372,-0.1015625,-0.484375,-0.17578125
373,-0.06640625,-0.4921875,-0.17578125
374,-0.03125,-0.51953125,-0.18359375
375,-0.01953125,-0.53515625,-0.203125
376,-0.01171875,-0.55078125,-0.203125
377,-0.015625,-0.5625,-0.24609375
378,0.0078125,-0.58203125,-0.2578125
379,0.01171875,-0.6171875,-0.26953125
380,0.0234375,-0.6484375,-0.2734375
381,0.0390625,-0.69140625,-0.26953125
382,0.07421875,-0.703125,-0.234375
383,0.03515625,-0.65625,-0.23828125
384,0.04296875,-0.6640625,-0.23046875
385,0.046875,-0.65234375,-0.2265625
386,0.05078125,-0.65234375,-0.21484375
387,0.03515625,-0.640625,-0.19140625
388,0.03125,-0.640625,-0.171875
389,0.03515625,-0.6328125,-0.15625
390,0.02734375,-0.64453125,-0.14453125
391,0.04296875,-0.6328125,-0.12109375
392,0.0546875,-0.625,-0.1015625
393,0.05859375,-0.63671875,-0.13671875
394,0.06640625,-0.6484375,-0.09765625
395,0.07421875,-0.64453125,-0.109375
396,0.125,-0.68359375,-0.12890625
397,0.12890625,-0.6875,-0.15625
398,0.140625,-0.7109375,-0.19921875
399,0.16796875,-0.73046875,-0.22265625
400,0.17578125,-0.74609375,-0.2578125
401,0.203125,-0.79296875,-0.28515625
402,0.234375,-0.84375,-0.2890625
403,0.265625,-0.87109375,-0.296875
404,0.28515625,-0.9375,-0.3125
405,0.26171875,-0.94140625,-0.30859375
406,0.27734375,-1.03515625,-0.3046875
407,0.25,-1.07421875,-0.28515625
408,0.234375,-1.1015625,-0.27734375
409,0.2265625,-1.15234375,-0.27734375
410,0.21484375,-1.19140625,-0.2578125
411,0.171875,-1.234375,-0.2421875
412,0.1015625,-1.25390625,-0.21484375
413,0.06640625,-1.2734375,-0.18359375
414,0.015625,-1.27734375,-0.19140625
415,-0.0546875,-1.3203125,-0.15625
416,-0.14453125,-1.30859375,-0.14453125
417,-0.21875,-1.328125,-0.09765625
418,-0.265625,-1.33984375,-0.0859375
419,-0.33984375,-1.3515625,-0.08203125
420,-0.375,-1.34765625,-0.02734375
421,-0.41796875,-1.32421875,0.00390625
422,-0.4296875,-1.32421875,0.0390625
423,-0.44921875,-1.296875,0.05859375
424,-0.4140625,-1.2890625,0.1015625
425,-0.38671875,-1.25,0.1171875
426,-0.34375,-1.203125,0.078125
427,-0.26171875,-1.18359375,0.0703125
428,-0.22265625,-1.16015625,0.015625
429,-0.1328125,-1.1328125,-0.0625
430,-0.08203125,-1.09765625,-0.13671875
431,0.0,-1.0703125,-0.25
432,0.08984375,-1.09375,-0.34765625
433,0.1796875,-1.1328125,-0.44140625
434,0.203125,-1.1953125,-0.515625
435,0.15625,-1.24609375,-0.5546875
436,0.09765625,-1.3203125,-0.56640625
437,0.0078125,-1.34375,-0.5625
438,-0.08984375,-1.33203125,-0.55859375
439,-0.15234375,-1.28125,-0.640625
440,-0.1484375,-1.2265625,-0.71875
441,-0.140625,-1.171875,-0.8125
442,-0.13671875,-1.13671875,-0.89453125
443,-0.109375,-1.11328125,-0.9453125
444,-0.02734375,-1.08203125,-0.96484375
445,0.0390625,-1.0234375,-0.99609375
446,0.08203125,-0.9609375,-0.9375
447,0.1328125,-0.890625,-0.85546875
448,0.17578125,-0.828125,-0.78515625
449,0.22265625,-0.74609375,-0.7265625
450,0.28125,-0.70703125,-0.67578125
451,0.328125,-0.6484375,-0.640625
452,0.33984375,-0.62109375,-0.61328125
453,0.33203125,-0.6328125,-0.6015625
454,0.3046875,-0.640625,-0.6015625
455,0.2890625,-0.67578125,-0.5859375
456,0.2421875,-0.703125,-0.55859375
457,0.21875,-0.74609375,-0.5625
458,0.203125,-0.78125,-0.5234375
459,0.1796875,-0.828125,-0.53515625
460,0.15625,-0.89453125,-0.4921875
461,0.1484375,-0.96875,-0.48046875
462,0.11328125,-0.9921875,-0.48046875
463,0.1015625,-1.015625,-0.5078125
464,0.078125,-1.0390625,-0.50390625
465,0.03125,-1.0703125,-0.51171875
466,0.0234375,-1.1015625,-0.515625
467,-0.01171875,-1.1015625,-0.52734375
468,-0.00390625,-1.08984375,-0.52734375
469,-0.0078125,-1.09375,-0.52734375
470,-0.01171875,-1.07421875,-0.5234375
471,-0.0078125,-1.04296875,-0.515625
472,0.0078125,-1.01953125,-0.48828125
473,0.01171875,-0.9921875,-0.45703125
474,0.0390625,-0.94140625,-0.42578125
475,0.05078125,-0.890625,-0.40234375
476,0.05078125,-0.8359375,-0.38671875
477,0.03515625,-0.78515625,-0.3515625
478,0.046875,-0.74609375,-0.3359375
479,0.0234375,-0.703125,-0.30078125
480,0.0,-0.671875,-0.328125
481,0.01953125,-0.609375,-0.26953125
482,0.01171875,-0.57421875,-0.2734375
483,0.01171875,-0.55078125,-0.24609375
484,0.0078125,-0.52734375,-0.25390625
485,0.03515625,-0.515625,-0.25
486,0.0390625,-0.5,-0.24609375
487,0.0625,-0.49609375,-0.23046875
488,0.09375,-0.51953125,-0.2265625
489,0.08203125,-0.515625,-0.21875
490,0.09765625,-0.53515625,-0.203125
491,0.13671875,-0.54296875,-0.21484375
492,0.12890625,-0.5625,-0.203125
493,0.1328125,-0.578125,-0.20703125
494,0.17578125,-0.58984375,-0.20703125
495,0.1796875,-0.61328125,-0.19140625
496,0.1796875,-0.625,-0.19140625
497,0.17578125,-0.625,-0.17578125
498,0.15234375,-0.63671875,-0.1640625
499,0.16015625,-0.64453125,-0.14453125
500,0.13671875,-0.6640625,-0.1328125
501,0.12890625,-0.6796875,-0.109375
502,0.12890625,-0.69921875,-0.10546875
503,0.12109375,-0.6796875,-0.078125
504,0.1171875,-0.6796875,-0.0703125
505,0.10546875,-0.6640625,-0.0703125
506,0.125,-0.671875,-0.0625
507,0.12890625,-0.67578125,-0.0703125
508,0.125,-0.65625,-0.0625
509,0.12890625,-0.6640625,-0.07421875
510,0.12890625,-0.65234375,-0.10546875
511,0.125,-0.65234375,-0.125
512,0.1171875,-0.64453125,-0.1328125
513,0.17578125,-0.64453125,-0.1640625
514,0.12109375,-0.66796875,-0.15234375
515,0.09375,-0.6953125,-0.16796875
516,0.0546875,-0.70703125,-0.19140625
517,0.0390625,-0.7421875,-0.19921875
518,0.0390625,-0.76953125,-0.19921875
519,0.0078125,-0.81640625,-0.20703125
520,0.01171875,-0.88671875,-0.203125
521,0.00390625,-0.94140625,-0.2109375
522,-0.0078125,-0.98046875,-0.2265625
523,0.00390625,-1.03125,-0.23828125
524,0.0234375,-1.0390625,-0.24609375
525,0.0625,-1.1015625,-0.2578125
526,0.1328125,-1.15234375,-0.27734375
527,0.18359375,-1.1875,-0.2578125
528,0.2421875,-1.2265625,-0.26171875
529,0.3359375,-1.28515625,-0.2421875
530,0.40625,-1.3125,-0.21875
531,0.4765625,-1.35546875,-0.171875
532,0.5,-1.375,-0.14453125
533,0.53125,-1.3984375,-0.1328125
534,0.5625,-1.43359375,-0.10546875
535,0.5859375,-1.453125,-0.078125
536,0.59765625,-1.48046875,-0.03515625
537,0.58984375,-1.4453125,-0.015625
538,0.59375,-1.45703125,-0.015625
539,0.58203125,-1.44921875,-0.03515625
540,0.5625,-1.4140625,-0.13671875
541,0.51953125,-1.33984375,-0.3046875
542,0.49609375,-1.2421875,-0.5078125
543,0.44921875,-1.1875,-0.66015625
544,0.375,-1.203125,-0.8203125
545,0.23828125,-1.28125,-0.8046875
546,0.0703125,-1.36328125,-0.71484375
547,-0.015625,-1.4296875,-0.57421875
548,0.015625,-1.46875,-0.57421875
549,0.15234375,-1.46484375,-0.65234375
550,0.25390625,-1.453125,-0.7890625
551,0.26171875,-1.3828125,-0.875
552,0.2421875,-1.3203125,-0.95703125
553,0.2421875,-1.28515625,-0.98046875
554,0.1640625,-1.18359375,-0.984375
555,0.0390625,-1.0859375,-0.93359375
556,-0.0546875,-1.01171875,-0.890625
557,-0.1171875,-0.89453125,-0.81640625
558,-0.19140625,-0.8125,-0.7734375
559,-0.26171875,-0.73046875,-0.73046875
560,-0.296875,-0.671875,-0.66015625
561,-0.2890625,-0.625,-0.62109375
562,-0.26953125,-0.60546875,-0.57421875
563,-0.234375,-0.60546875,-0.5390625
564,-0.19140625,-0.6015625,-0.51953125
565,-0.12109375,-0.60546875,-0.5078125
566,-0.08203125,-0.61328125,-0.4609375
567,-0.015625,-0.66015625,-0.44140625
568,0.01953125,-0.69921875,-0.42578125
569,0.05859375,-0.72265625,-0.40625
570,0.10546875,-0.76953125,-0.4140625
571,0.14453125,-0.8359375,-0.4375
572,0.1796875,-0.90625,-0.45703125
573,0.2109375,-0.95703125,-0.50390625
574,0.23828125,-1.01953125,-0.52734375
575,0.27734375,-1.08984375,-0.5546875
576,0.29296875,-1.109375,-0.58203125
577,0.2734375,-1.15625,-0.59765625
578,0.29296875,-1.16015625,-0.56640625
579,0.26953125,-1.16796875,-0.5390625
580,0.23828125,-1.12890625,-0.53515625
581,0.21875,-1.08984375,-0.5078125
582,0.18359375,-1.01953125,-0.48828125
583,0.14453125,-0.9765625,-0.453125
584,0.08984375,-0.92578125,-0.41796875
585,0.05859375,-0.8515625,-0.375
586,0.0,-0.7890625,-0.390625
587,-0.01953125,-0.71875,-0.36328125
588,-0.0546875,-0.7109375,-0.32421875
589,-0.05859375,-0.65625,-0.3046875
590,-0.09375,-0.59375,-0.27734375
591,-0.10546875,-0.55859375,-0.2265625
592,-0.10546875,-0.52734375,-0.21875
593,-0.1171875,-0.50390625,-0.20703125
594,-0.1171875,-0.5,-0.17578125
595,-0.1171875,-0.49609375,-0.17578125
596,-0.09765625,-0.4921875,-0.15625
597,-0.09375,-0.50390625,-0.16015625
598,-0.08984375,-0.51171875,-0.18359375
599,-0.0859375,-0.53125,-0.21484375
600,-0.0625,-0.5546875,-0.21484375
601,-0.0546875,-0.57421875,-0.21875
602,-0.04296875,-0.6015625,-0.234375
603,-0.01953125,-0.6171875,-0.23046875
604,-0.0078125,-0.66796875,-0.203125
605,0.00390625,-0.70703125,-0.19921875
606,0.01171875,-0.7421875,-0.17578125
607,0.03515625,-0.765625,-0.17578125
608,0.00390625,-0.78125,-0.16015625
609,0.00390625,-0.75390625,-0.16015625
610,-0.0078125,-0.765625,-0.13671875
611,0.00390625,-0.7421875,-0.1328125
612,-0.00390625,-0.7421875,-0.12109375
613,-0.015625,-0.73046875,-0.11328125
614,-0.01953125,-0.7265625,-0.08984375
615,-0.02734375,-0.7109375,-0.078125
616,-0.0625,-0.6875,-0.078125
617,-0.08203125,-0.64453125,-0.0625
618,-0.09765625,-0.64453125,-0.0546875
619,-0.08984375,-0.6328125,-0.05859375
620,-0.11328125,-0.59375,-0.08203125
621,-0.08203125,-0.5703125,-0.08984375
622,-0.05859375,-0.55078125,-0.09765625
623,-0.03125,-0.53515625,-0.12890625
624,-0.01171875,-0.546875,-0.15234375
625,0.0234375,-0.5546875,-0.1953125
626,0.078125,-0.59375,-0.1875
627,0.12109375,-0.63671875,-0.21484375
628,0.15625,-0.671875,-0.2421875
629,0.23046875,-0.74609375,-0.25
630,0.27734375,-0.84375,-0.24609375
631,0.2890625,-0.93359375,-0.25390625
632,0.28125,-1.01953125,-0.25
633,0.28125,-1.09765625,-0.2265625
634,0.2734375,-1.16015625,-0.21875
635,0.26171875,-1.22265625,-0.22265625
636,0.234375,-1.296875,-0.18359375
637,0.19140625,-1.33984375,-0.20703125
638,0.15234375,-1.36328125,-0.23828125
639,0.12109375,-1.4140625,-0.2109375
640,0.078125,-1.40234375,-0.22265625
641,0.01953125,-1.40234375,-0.1953125
642,-0.04296875,-1.3984375,-0.171875
643,-0.09765625,-1.3984375,-0.12109375
644,-0.1875,-1.375,-0.05859375
645,-0.23046875,-1.35546875,-0.03125
646,-0.2890625,-1.3046875,0.00390625
647,-0.30859375,-1.265625,0.0390625
648,-0.32421875,-1.2421875,0.0546875
649,-0.2890625,-1.16796875,0.13671875
650,-0.28515625,-1.15234375,0.1640625
651,-0.25,-1.1953125,0.11328125
652,-0.19921875,-1.15625,0.06640625
653,-0.15625,-1.11328125,0.00390625
654,-0.10546875,-1.1015625,-0.12109375
655,-0.02734375,-1.07421875,-0.2421875
656,0.01171875,-1.07421875,-0.39453125
657,0.078125,-1.15234375,-0.53125
658,0.09765625,-1.2421875,-0.5703125
659,0.0625,-1.34375,-0.58203125
660,-0.0390625,-1.4453125,-0.5625
661,-0.1328125,-1.484375,-0.5390625
662,-0.22265625,-1.50390625,-0.5546875
663,-0.2734375,-1.45703125,-0.6171875
664,-0.296875,-1.42578125,-0.71875
665,-0.265625,-1.3125,-0.83984375
666,-0.24609375,-1.26953125,-0.92578125
667,-0.1953125,-1.21875,-1.0078125
668,-0.11328125,-1.12890625,-1.01953125
669,-0.015625,-1.03515625,-1.0
670,0.05859375,-0.94921875,-0.91796875
671,0.16796875,-0.88671875,-0.8125
672,0.23046875,-0.8125,-0.71875
673,0.27734375,-0.76171875,-0.671875
674,0.3046875,-0.7109375,-0.6640625
675,0.33984375,-0.6796875,-0.62109375
676,0.33203125,-0.6796875,-0.62890625
677,0.2890625,-0.65625,-0.59765625
678,0.25390625,-0.66796875,-0.58984375
679,0.23828125,-0.71484375,-0.6015625
680,0.1953125,-0.75,-0.578125
681,0.15625,-0.80859375,-0.53515625
682,0.1484375,-0.8828125,-0.515625
683,0.10546875,-0.93359375,-0.5
684,0.08984375,-1.0078125,-0.5078125
685,0.0546875,-1.046875,-0.50390625
686,0.02734375,-1.1015625,-0.51171875
687,-0.0234375,-1.125,-0.5234375
688,-0.0703125,-1.1328125,-0.53515625
689,-0.08984375,-1.140625,-0.57421875
690,-0.10546875,-1.12890625,-0.640625
691,-0.109375,-1.125,-0.6171875
692,-0.09765625,-1.12109375,-0.60546875
693,-0.07421875,-1.109375,-0.5625
694,-0.046875,-1.05859375,-0.51171875
695,-0.00390625,-1.00390625,-0.46875
696,0.0234375,-0.94921875,-0.4296875
697,0.04296875,-0.875,-0.4140625
698,0.06640625,-0.85546875,-0.3984375
699,0.07421875,-0.828125,-0.375
700,0.08984375,-0.76171875,-0.34765625
701,0.1015625,-0.6796875,-0.3515625
702,0.09375,-0.640625,-0.33203125
703,0.10546875,-0.60546875,-0.30078125
704,0.109375,-0.5625,-0.28515625
705,0.11328125,-0.515625,-0.25390625
706,0.10546875,-0.48828125,-0.24609375
707,0.109375,-0.4609375,-0.20703125
708,0.1015625,-0.4296875,-0.21484375
709,0.12890625,-0.42578125,-0.19921875
710,0.13671875,-0.41796875,-0.18359375
711,0.15625,-0.42578125,-0.1796875
712,0.16015625,-0.4375,-0.1796875
713,0.171875,-0.44140625,-0.17578125
714,0.1953125,-0.4609375,-0.19921875
715,0.19921875,-0.48828125,-0.18359375
716,0.19921875,-0.50390625,-0.19140625
717,0.17578125,-0.53515625,-0.20703125
718,0.1875,-0.5390625,-0.1875
719,0.18359375,-0.5546875,-0.2109375
720,0.1640625,-0.5625,-0.1953125
721,0.14453125,-0.578125,-0.18359375
722,0.140625,-0.59375,-0.17578125
723,0.1171875,-0.60546875,-0.16796875
724,0.08984375,-0.6171875,-0.15234375
725,0.07421875,-0.6328125,-0.11328125
726,0.07421875,-0.64453125,-0.1171875
727,0.06640625,-0.671875,-0.13671875
728,0.04296875,-0.66796875,-0.1328125
729,0.06640625,-0.6875,-0.09765625
730,0.0546875,-0.6875,-0.10546875
731,0.0390625,-0.72265625,-0.0859375
732,0.015625,-0.71484375,-0.10546875
733,0.02734375,-0.72265625,-0.09765625
734,0.02734375,-0.75,-0.08203125
735,0.03515625,-0.76953125,-0.09375
736,0.01953125,-0.75390625,-0.12109375
737,0.01953125,-0.75,-0.15234375
738,0.03125,-0.77734375,-0.1484375
739,0.01171875,-0.8046875,-0.17578125
740,0.01953125,-0.8515625,-0.1875
741,0.03515625,-0.8984375,-0.19921875
742,0.046875,-0.9609375,-0.171875
743,0.04296875,-0.98828125,-0.18359375
744,0.0625,-1.046875,-0.18359375
745,0.0625,-1.09375,-0.17578125
746,0.06640625,-1.13671875,-0.19140625
747,0.07421875,-1.1875,-0.1796875
748,0.11328125,-1.19140625,-0.1953125
749,0.1953125,-1.21484375,-0.21484375
750,0.26953125,-1.21484375,-0.203125
751,0.37890625,-1.24609375,-0.23046875
752,0.48046875,-1.25,-0.19921875
753,0.53125,-1.25,-0.171875
754,0.60546875,-1.28125,-0.1171875
755,0.63671875,-1.29296875,-0.06640625
756,0.6328125,-1.28515625,-0.04296875
757,0.60546875,-1.296875,-0.015625
758,0.59765625,-1.296875,-0.015625
759,0.578125,-1.328125,0.03515625
760,0.54296875,-1.32421875,0.01171875
761,0.5234375,-1.32421875,0.01953125
762,0.515625,-1.31640625,-0.046875
763,0.4921875,-1.27734375,-0.15234375
764,0.46484375,-1.234375,-0.328125
765,0.40234375,-1.14453125,-0.546875
766,0.31640625,-1.109375,-0.78125
767,0.203125,-1.1640625,-0.875
768,0.1015625,-1.26953125,-0.84765625
769,-0.03515625,-1.3984375,-0.6640625
770,-0.140625,-1.5078125,-0.51953125
771,-0.08984375,-1.55859375,-0.46875
772,0.0546875,-1.55078125,-0.55859375
773,0.2109375,-1.53515625,-0.6875
774,0.20703125,-1.4296875,-0.8359375
775,0.15234375,-1.34375,-0.96484375
776,0.09765625,-1.25390625,-1.0
777,0.0234375,-1.17578125,-1.02734375
778,-0.01953125,-1.09375,-1.01171875
779,-0.12109375,-0.984375,-0.96484375
780,-0.140625,-0.8984375,-0.87890625
781,-0.1796875,-0.8203125,-0.8046875
782,-0.22265625,-0.765625,-0.75
783,-0.265625,-0.75390625,-0.703125
784,-0.26953125,-0.76171875,-0.65234375
785,-0.28515625,-0.75,-0.62109375
786,-0.26171875,-0.76171875,-0.56640625
787,-0.24609375,-0.7578125,-0.53125
788,-0.234375,-0.73828125,-0.5078125
789,-0.20703125,-0.74609375,-0.51171875
790,-0.140625,-0.74609375,-0.5
791,-0.078125,-0.76171875,-0.4375
792,-0.046875,-0.79296875,-0.4453125
793,-0.01171875,-0.8125,-0.41015625
794,0.01171875,-0.859375,-0.40625
795,0.0859375,-0.8984375,-0.41796875
796,0.13671875,-0.94140625,-0.44140625
797,0.171875,-0.95703125,-0.46484375
798,0.20703125,-1.0,-0.484375
799,0.23046875,-1.015625,-0.48828125
800,0.234375,-1.03515625,-0.46484375
801,0.21875,-1.03125,-0.46875
802,0.1953125,-1.02734375,-0.44921875
803,0.1796875,-1.00390625,-0.45703125
804,0.15625,-0.984375,-0.40625
805,0.1171875,-0.95703125,-0.43359375
806,0.08984375,-0.9375,-0.40234375
807,0.05859375,-0.91015625,-0.39453125
808,0.03125,-0.85546875,-0.37890625
809,0.0078125,-0.80078125,-0.3359375
810,-0.0078125,-0.75390625,-0.35546875
811,-0.00390625,-0.71875,-0.3359375
812,0.0078125,-0.6640625,-0.29296875
813,0.00390625,-0.5859375,-0.2734375
814,0.06640625,-0.5703125,-0.25390625
815,0.0,-0.51953125,-0.1796875
816,-0.01171875,-0.48828125,-0.15625
817,-0.015625,-0.45703125,-0.14453125
818,-0.0234375,-0.4375,-0.14453125
819,-0.01953125,-0.43359375,-0.140625
820,-0.015625,-0.42578125,-0.14453125
821,-0.015625,-0.4296875,-0.171875
822,-0.0390625,-0.4375,-0.16015625
823,-0.03515625,-0.453125,-0.1875
824,-0.04296875,-0.45703125,-0.171875
825,-0.06640625,-0.5,-0.1484375
826,-0.078125,-0.51953125,-0.1796875
827,-0.06640625,-0.546875,-0.1640625
828,-0.09375,-0.5546875,-0.140625
829,-0.1015625,-0.59375,-0.125
830,-0.10546875,-0.6171875,-0.125
831,-0.0859375,-0.62890625,-0.13671875
832,-0.078125,-0.625,-0.140625
833,-0.046875,-0.625,-0.140625
834,-0.0390625,-0.62890625,-0.140625
835,-0.01171875,-0.62890625,-0.1484375
836,0.0078125,-0.62890625,-0.15234375
837,0.02734375,-0.6484375,-0.15234375
838,0.05078125,-0.65234375,-0.12890625
839,0.078125,-0.67578125,-0.13671875
840,0.1015625,-0.6875,-0.12109375
841,0.109375,-0.69921875,-0.1015625
842,0.125,-0.7265625,-0.11328125
843,0.12890625,-0.75,-0.1171875
844,0.171875,-0.7578125,-0.140625
845,0.1796875,-0.77734375,-0.15625
846,0.2265625,-0.8046875,-0.17578125
847,0.25,-0.83984375,-0.17578125
848,0.2578125,-0.87109375,-0.1953125
849,0.28515625,-0.921875,-0.21484375
850,0.29296875,-0.9453125,-0.2421875
851,0.2890625,-0.98828125,-0.23046875
852,0.2890625,-1.01171875,-0.2578125
853,0.26953125,-1.06640625,-0.2578125
854,0.24609375,-1.1015625,-0.25
855,0.23046875,-1.125,-0.2421875
856,0.2109375,-1.15234375,-0.23046875
857,0.171875,-1.16015625,-0.22265625
858,0.109375,-1.2265625,-0.19140625
859,0.05078125,-1.2109375,-0.20703125
860,-0.015625,-1.2109375,-0.2109375
861,-0.08984375,-1.23046875,-0.2109375
862,-0.140625,-1.2421875,-0.171875
863,-0.20703125,-1.2578125,-0.140625
864,-0.2578125,-1.26171875,-0.0859375
865,-0.296875,-1.2734375,-0.03125
866,-0.30859375,-1.27734375,0.0
867,-0.3125,-1.3203125,0.03125
868,-0.32421875,-1.3046875,0.0390625
869,-0.296875,-1.30859375,0.0859375
870,-0.28515625,-1.3046875,0.1015625
871,-0.2421875,-1.296875,0.12109375
872,-0.21484375,-1.28515625,0.1328125
873,-0.14453125,-1.2734375,0.0703125
874,-0.078125,-1.2421875,-0.015625
875,-0.02734375,-1.1953125,-0.1328125
876,0.046875,-1.15234375,-0.2421875
877,0.1015625,-1.125,-0.36328125
878,0.19921875,-1.1171875,-0.5390625
879,0.234375,-1.1328125,-0.7421875
880,0.203125,-1.234375,-0.828125
881,0.1328125,-1.30078125,-0.828125
882,0.04296875,-1.359375,-0.78515625
883,-0.06640625,-1.375,-0.78125
884,-0.15234375,-1.33203125,-0.83984375
885,-0.19140625,-1.25390625,-0.97265625
886,-0.19921875,-1.18359375,-1.07421875
887,-0.19921875,-1.19140625,-1.13671875
888,-0.20703125,-1.13671875,-1.18359375
889,-0.14453125,-1.1015625,-1.16015625
890,-0.0625,-1.07421875,-1.1328125
891,0.00390625,-1.02734375,-0.96875
892,0.06640625,-0.96484375,-0.86328125
893,0.1640625,-0.890625,-0.7734375
894,0.234375,-0.80078125,-0.703125
895,0.2890625,-0.71484375,-0.7265625
896,0.3125,-0.62890625,-0.7265625
897,0.296875,-0.5859375,-0.73046875
898,0.30078125,-0.58984375,-0.7421875
899,0.30078125,-0.5625,-0.73828125
900,0.28125,-0.58984375,-0.7109375
901,0.24609375,-0.6328125,-0.671875
902,0.24609375,-0.66796875,-0.62890625
903,0.23046875,-0.74609375,-0.57421875
904,0.20703125,-0.8125,-0.53515625
905,0.1640625,-0.87890625,-0.51171875
906,0.125,-0.94140625,-0.515625
907,0.11328125,-0.99609375,-0.53125
908,0.03515625,-1.05859375,-0.5234375
909,0.0,-1.1328125,-0.546875
910,-0.01953125,-1.1953125,-0.546875
911,-0.08203125,-1.1953125,-0.6015625
912,-0.08203125,-1.1796875,-0.6484375
913,-0.0859375,-1.19140625,-0.65234375
914,-0.08203125,-1.18359375,-0.64453125
915,-0.0625,-1.1328125,-0.57421875
916,-0.03125,-1.07421875,-0.53515625
917,-0.01171875,-1.03515625,-0.5
918,0.0,-0.9609375,-0.48046875
919,0.046875,-0.8984375,-0.43359375
920,0.05859375,-0.8359375,-0.44140625
921,0.0546875,-0.74609375,-0.3984375
922,0.0390625,-0.73046875,-0.4140625
923,0.0625,-0.67578125,-0.390625
924,0.06640625,-0.625,-0.36328125
925,0.0546875,-0.57421875,-0.34765625
926,0.046875,-0.54296875,-0.3125
927,0.04296875,-0.515625,-0.30078125
928,0.03515625,-0.50390625,-0.28515625
929,0.03125,-0.4921875,-0.2734375
930,0.04296875,-0.49609375,-0.26171875
931,0.046875,-0.48828125,-0.23046875
932,0.0546875,-0.5078125,-0.24609375
933,0.0546875,-0.48046875,-0.265625
934,0.0859375,-0.50390625,-0.27734375
935,0.1015625,-0.50390625,-0.2734375
936,0.15234375,-0.546875,-0.28125
937,0.12890625,-0.5390625,-0.28125
938,0.17578125,-0.578125,-0.28515625
939,0.19140625,-0.58984375,-0.28125
940,0.171875,-0.61328125,-0.2734375
941,0.14453125,-0.6328125,-0.28125
942,0.14453125,-0.64453125,-0.2734375
943,0.1328125,-0.67578125,-0.2421875
944,0.1171875,-0.6875,-0.19140625
945,0.0859375,-0.69921875,-0.19140625
946,0.05078125,-0.73046875,-0.15625
947,0.03125,-0.74609375,-0.125
948,0.0234375,-0.75,-0.109375
949,0.015625,-0.7734375,-0.0859375
950,-0.01171875,-0.796875,-0.0703125
951,0.0,-0.79296875,-0.0625
952,0.0,-0.80078125,-0.078125
953,0.01171875,-0.79296875,-0.08984375
954,0.05859375,-0.75390625,-0.13671875
955,0.09765625,-0.72265625,-0.1953125
956,0.1484375,-0.72265625,-0.21484375
957,0.1796875,-0.6953125,-0.25
958,0.20703125,-0.6875,-0.265625
959,0.2421875,-0.6875,-0.28125
960,0.2734375,-0.6796875,-0.26953125
961,0.26171875,-0.69140625,-0.23828125
962,0.25,-0.7109375,-0.25
963,0.2265625,-0.73828125,-0.25390625
964,0.203125,-0.77734375,-0.2734375
965,0.1640625,-0.83203125,-0.28515625
966,0.10546875,-0.8984375,-0.26171875
967,0.09375,-0.94140625,-0.27734375
968,0.078125,-1.015625,-0.25
969,0.09765625,-1.109375,-0.234375
970,0.1171875,-1.203125,-0.23828125
971,0.13671875,-1.265625,-0.2421875
972,0.15625,-1.2890625,-0.28515625
973,0.21875,-1.34765625,-0.3359375
974,0.23828125,-1.37109375,-0.453125
975,0.3125,-1.40234375,-0.53515625
976,0.3671875,-1.4296875,-0.6484375
977,0.44921875,-1.4375,-0.6953125
978,0.48828125,-1.45703125,-0.7890625
979,0.5234375,-1.46484375,-0.84765625
980,0.5078125,-1.484375,-0.921875
981,0.453125,-1.4609375,-0.9921875
982,0.40625,-1.453125,-1.01171875
983,0.421875,-1.46484375,-1.02734375
984,0.4140625,-1.453125,-1.02734375
985,0.421875,-1.46875,-1.0234375
986,0.37890625,-1.46484375,-1.0234375
987,0.3359375,-1.41015625,-1.046875
988,0.26953125,-1.35546875,-1.03515625
989,0.1953125,-1.23828125,-1.03125
990,0.1875,-1.02734375,-1.0234375
991,0.17578125,-0.84765625,-1.015625
992,0.1640625,-0.73828125,-1.0
993,0.12109375,-0.62109375,-0.9375
994,0.0390625,-0.5078125,-0.875
995,-0.03515625,-0.453125,-0.796875
996,-0.1640625,-0.36328125,-0.75390625
997,-0.2265625,-0.3125,-0.69921875
998,-0.265625,-0.30859375,-0.64453125
999,-0.29296875,-0.328125,-0.609375
1000,-0.3125,-0.36328125,-0.5703125
1001,-0.296875,-0.4296875,-0.5625
1002,-0.2734375,-0.5,-0.54296875
1003,-0.24609375,-0.56640625,-0.54296875
1004,-0.171875,-0.62890625,-0.55078125
1005,-0.1015625,-0.6875,-0.51953125
1006,-0.0625,-0.765625,-0.51953125
1007,-0.01171875,-0.79296875,-0.51953125
1008,0.05078125,-0.84765625,-0.53515625
1009,0.11328125,-0.890625,-0.56640625
1010,0.19921875,-0.890625,-0.609375
1011,0.23046875,-0.88671875,-0.625
1012,0.265625,-0.90234375,-0.640625
1013,0.30078125,-0.90625,-0.6328125
1014,0.3125,-0.94140625,-0.6328125
1015,0.3125,-0.98828125,-0.59375
1016,0.296875,-1.0078125,-0.578125
1017,0.2890625,-1.0078125,-0.55078125
1018,0.25,-0.99609375,-0.55859375
1019,0.23828125,-0.96484375,-0.5234375
1020,0.203125,-0.9296875,-0.48046875
1021,0.15234375,-0.87890625,-0.453125
1022,0.1015625,-0.84375,-0.44140625
1023,0.08203125,-0.80078125,-0.42578125
1024,0.04296875,-0.75,-0.41015625
1025,0.01953125,-0.7109375,-0.39453125
1026,-0.00390625,-0.6796875,-0.37890625
1027,-0.015625,-0.65625,-0.34765625
1028,-0.02734375,-0.62890625,-0.3359375
1029,-0.06640625,-0.62109375,-0.29296875
1030,-0.09765625,-0.58984375,-0.26953125
1031,-0.1015625,-0.57421875,-0.2734375
1032,-0.10546875,-0.5703125,-0.25390625
1033,-0.109375,-0.59375,-0.2421875
1034,-0.09765625,-0.59765625,-0.2421875
1035,-0.0703125,-0.59765625,-0.2421875
1036,-0.078125,-0.61328125,-0.26953125
1037,-0.05078125,-0.625,-0.26953125
1038,-0.03515625,-0.66015625,-0.2890625
1039,-0.00390625,-0.6875,-0.2890625
1040,-0.0234375,-0.69921875,-0.296875
1041,-0.00390625,-0.734375,-0.30078125
1042,0.00390625,-0.7578125,-0.296875
1043,0.01171875,-0.765625,-0.29296875
1044,0.0390625,-0.7890625,-0.29296875
1045,0.046875,-0.78515625,-0.27734375
1046,0.0625,-0.81640625,-0.25390625
1047,0.06640625,-0.796875,-0.2265625
1048,0.0859375,-0.8046875,-0.22265625
1049,0.078125,-0.77734375,-0.21484375
1050,0.08203125,-0.7578125,-0.21484375
1051,0.09375,-0.71875,-0.20703125
1052,0.09375,-0.71875,-0.21875
1053,0.109375,-0.6640625,-0.23046875
1054,0.11328125,-0.609375,-0.23046875
1055,0.125,-0.55859375,-0.2265625
1056,0.109375,-0.5234375,-0.2578125
1057,0.109375,-0.50390625,-0.265625
1058,0.10546875,-0.49609375,-0.2734375
1059,0.12109375,-0.49609375,-0.26953125
1060,0.1328125,-0.50390625,-0.29296875
1061,0.16015625,-0.53125,-0.3046875
1062,0.16796875,-0.5703125,-0.328125
1063,0.2265625,-0.62109375,-0.39453125
1064,0.19921875,-0.671875,-0.375
1065,0.19921875,-0.72265625,-0.40234375
1066,0.2265625,-0.76171875,-0.421875
1067,0.21875,-0.80078125,-0.4453125
1068,0.2109375,-0.88671875,-0.42578125
1069,0.17578125,-0.95703125,-0.39453125
1070,0.16015625,-1.0234375,-0.3671875
1071,0.1328125,-1.11328125,-0.3125
1072,0.09765625,-1.15625,-0.3046875
1073,0.03125,-1.234375,-0.2734375
1074,-0.03515625,-1.26953125,-0.25390625
1075,-0.1015625,-1.3125,-0.171875
1076,-0.19140625,-1.3359375,-0.16015625
1077,-0.234375,-1.3359375,-0.12890625
1078,-0.265625,-1.31640625,-0.140625
1079,-0.30078125,-1.265625,-0.1640625
1080,-0.328125,-1.21484375,-0.2421875
1081,-0.34375,-1.15625,-0.3125
1082,-0.3203125,-1.11328125,-0.3359375
1083,-0.3046875,-1.0390625,-0.42578125
1084,-0.28125,-1.0,-0.4921875
1085,-0.25,-0.984375,-0.62109375
1086,-0.203125,-0.96484375,-0.703125
1087,-0.16796875,-0.9921875,-0.75
1088,-0.15234375,-1.0,-0.78515625
1089,-0.12109375,-1.03125,-0.8515625
1090,-0.09765625,-1.0546875,-0.8828125
1091,-0.0859375,-1.0546875,-0.93359375
1092,-0.08203125,-1.12109375,-0.94921875
1093,-0.10546875,-1.14453125,-0.96484375
1094,-0.12890625,-1.19921875,-1.00390625
1095,-0.1328125,-1.234375,-1.02734375
1096,-0.125,-1.22265625,-1.08203125
1097,-0.10546875,-1.234375,-1.1328125
1098,-0.09765625,-1.17578125,-1.171875
1099,-0.1171875,-1.12890625,-1.21875
1100,-0.13671875,-1.04296875,-1.2109375
1101,-0.1484375,-0.96875,-1.15625
1102,-0.1171875,-0.8828125,-1.12109375
1103,-0.04296875,-0.7734375,-1.0
1104,0.0,-0.69140625,-0.87109375
1105,0.07421875,-0.61328125,-0.78515625
1106,0.125,-0.546875,-0.73828125
1107,0.1796875,-0.484375,-0.72265625
1108,0.2109375,-0.44921875,-0.68359375
1109,0.2421875,-0.44921875,-0.66015625
1110,0.25390625,-0.46484375,-0.640625
1111,0.27734375,-0.49609375,-0.640625
1112,0.2734375,-0.51953125,-0.61328125
1113,0.30859375,-0.5546875,-0.61328125
1114,0.3046875,-0.61328125,-0.6015625
1115,0.2578125,-0.671875,-0.6171875
1116,0.234375,-0.72265625,-0.6640625
1117,0.19921875,-0.73828125,-0.68359375
1118,0.13671875,-0.7734375,-0.73046875
1119,0.07421875,-0.8359375,-0.76953125
1120,0.00390625,-0.8671875,-0.7734375
1121,-0.05859375,-0.91015625,-0.765625
1122,-0.08203125,-0.9296875,-0.74609375
1123,-0.10546875,-0.94921875,-0.74609375
1124,-0.1171875,-0.953125,-0.73046875
1125,-0.11328125,-0.984375,-0.6953125
1126,-0.08984375,-0.98828125,-0.69921875
1127,-0.05078125,-0.96875,-0.63671875
1128,-0.015625,-0.9765625,-0.65234375
1129,0.0,-0.97265625,-0.6171875
1130,0.01953125,-0.9296875,-0.625
1131,0.0234375,-0.90234375,-0.60546875
1132,0.03125,-0.8828125,-0.578125
1133,0.0390625,-0.83984375,-0.54296875
1134,0.05859375,-0.8125,-0.53125
1135,0.07421875,-0.7578125,-0.52734375
1136,0.05859375,-0.71484375,-0.4765625
1137,0.07421875,-0.68359375,-0.47265625
1138,0.07421875,-0.65625,-0.4609375
1139,0.05859375,-0.61328125,-0.44140625
1140,0.08203125,-0.609375,-0.43359375
1141,0.08984375,-0.56640625,-0.42578125
1142,0.10546875,-0.57421875,-0.41015625
1143,0.09375,-0.546875,-0.43359375
1144,0.0859375,-0.5390625,-0.42578125
1145,0.08203125,-0.53515625,-0.421875
1146,0.078125,-0.515625,-0.42578125
1147,0.0859375,-0.5078125,-0.4296875
1148,0.08984375,-0.50390625,-0.41796875
1149,0.0703125,-0.5078125,-0.453125
1150,0.078125,-0.4921875,-0.42578125
1151,0.078125,-0.5,-0.41015625
1152,0.0859375,-0.51953125,-0.41015625
1153,0.0703125,-0.52734375,-0.37890625
1154,0.07421875,-0.5546875,-0.34375
1155,0.078125,-0.58984375,-0.34765625
1156,0.0625,-0.6015625,-0.32421875
1157,0.03125,-0.62890625,-0.32421875
1158,0.01171875,-0.63671875,-0.3359375
1159,-0.01953125,-0.6484375,-0.33203125
1160,-0.01171875,-0.67578125,-0.33984375
1161,-0.01953125,-0.65234375,-0.3515625
1162,-0.02734375,-0.65234375,-0.3671875
1163,-0.04296875,-0.6484375,-0.38671875
1164,-0.05859375,-0.62109375,-0.40234375
1165,-0.05859375,-0.6015625,-0.41015625
1166,-0.03125,-0.56640625,-0.41796875
1167,-0.0546875,-0.55859375,-0.41796875
1168,-0.015625,-0.54296875,-0.453125
1169,-0.00390625,-0.53125,-0.42578125
1170,0.03125,-0.515625,-0.47265625
1171,0.078125,-0.50390625,-0.484375
1172,0.08203125,-0.48046875,-0.51953125
1173,0.1171875,-0.4609375,-0.53125
1174,0.109375,-0.44140625,-0.54296875
1175,0.12109375,-0.44140625,-0.5546875
1176,0.12890625,-0.4609375,-0.57421875
1177,0.13671875,-0.44140625,-0.55859375
1178,0.140625,-0.4609375,-0.56640625
1179,0.1484375,-0.47265625,-0.54296875
1180,0.140625,-0.50390625,-0.53125
1181,0.16796875,-0.5078125,-0.51171875
1182,0.15625,-0.48828125,-0.52734375
1183,0.171875,-0.50390625,-0.5625
1184,0.15234375,-0.47265625,-0.59375
1185,0.1640625,-0.44921875,-0.62890625
1186,0.15234375,-0.40625,-0.68359375
1187,0.15625,-0.37890625,-0.70703125
1188,0.171875,-0.3515625,-0.75390625
1189,0.1796875,-0.296875,-0.80859375
1190,0.19921875,-0.29296875,-0.80859375
1191,0.20703125,-0.3046875,-0.83203125
1192,0.21484375,-0.32421875,-0.8203125
1193,0.19140625,-0.3984375,-0.81640625
1194,0.17578125,-0.4453125,-0.8125
1195,0.15625,-0.51171875,-0.765625
1196,0.15234375,-0.609375,-0.7109375
1197,0.13671875,-0.66015625,-0.6640625
1198,0.12890625,-0.734375,-0.609375
1199,0.12109375,-0.80078125,-0.58984375
1200,0.10546875,-0.84765625,-0.54296875
1201,0.078125,-0.87109375,-0.55859375
1202,0.0546875,-0.87890625,-0.56640625
1203,0.00390625,-0.91015625,-0.578125
1204,-0.02734375,-0.875,-0.5546875
1205,-0.06640625,-0.8515625,-0.53125
1206,-0.1171875,-0.796875,-0.52734375
1207,-0.12890625,-0.7421875,-0.52734375
1208,-0.1484375,-0.65625,-0.51171875
1209,-0.140625,-0.55078125,-0.49609375
1210,-0.125,-0.48046875,-0.45703125
1211,-0.1171875,-0.4140625,-0.44140625
1212,-0.125,-0.38671875,-0.41015625
1213,-0.14453125,-0.3671875,-0.38671875
1214,-0.16796875,-0.390625,-0.33984375
1215,-0.14453125,-0.3828125,-0.28515625
1216,-0.1171875,-0.37109375,-0.24609375
1217,-0.0703125,-0.3984375,-0.20703125
1218,-0.0234375,-0.40234375,-0.140625
1219,0.0546875,-0.41015625,-0.10546875
1220,0.109375,-0.39453125,-0.05859375
1221,0.14453125,-0.3828125,-0.04296875
1222,0.1484375,-0.37890625,-0.0234375
1223,0.16015625,-0.3515625,-0.0390625
1224,0.12109375,-0.3203125,-0.0703125
1225,0.08984375,-0.31640625,-0.1171875
1226,0.07421875,-0.26953125,-0.12890625
1227,0.06640625,-0.2578125,-0.14453125
1228,0.05078125,-0.21875,-0.1640625
1229,0.01953125,-0.1640625,-0.1953125
1230,-0.015625,-0.1484375,-0.1875
1231,-0.078125,-0.09375,-0.24609375
1232,-0.1171875,-0.12890625,-0.2578125
1233,-0.16796875,-0.18359375,-0.2890625
1234,-0.2109375,-0.21875,-0.3046875
1235,-0.26953125,-0.25,-0.29296875
1236,-0.30859375,-0.24609375,-0.28125
1237,-0.34375,-0.29296875,-0.23828125
1238,-0.36328125,-0.328125,-0.18359375
1239,-0.35546875,-0.40625,-0.12890625
1240,-0.3359375,-0.4296875,-0.0625
1241,-0.328125,-0.4296875,-0.0546875
1242,-0.29296875,-0.4140625,-0.0703125
1243,-0.296875,-0.375,-0.11328125
1244,-0.3046875,-0.3359375,-0.1875
1245,-0.2890625,-0.27734375,-0.21875
1246,-0.3125,-0.22265625,-0.296875
1247,-0.30078125,-0.16796875,-0.2890625
1248,-0.23828125,-0.1875,-0.3046875
1249,-0.2109375,-0.140625,-0.328125
1250,-0.16796875,-0.10546875,-0.37109375
1251,-0.16015625,-0.05859375,-0.359375
1252,-0.140625,-0.0234375,-0.390625
1253,-0.10546875,0.0,-0.3671875
1254,-0.09375,0.00390625,-0.37890625
1255,-0.046875,0.0078125,-0.34765625
1256,-0.04296875,0.015625,-0.359375
1257,-0.01171875,-0.015625,-0.37109375
1258,-0.01171875,0.0234375,-0.43359375
1259,0.015625,0.05078125,-0.515625
1260,0.0546875,0.02734375,-0.5625
1261,0.08203125,0.078125,-0.6875
1262,0.11328125,0.1171875,-0.77734375
1263,0.10546875,0.15234375,-0.87109375
1264,0.09375,0.171875,-0.9765625
1265,0.02734375,0.16015625,-0.984375
1266,-0.00390625,0.15625,-0.98828125
1267,-0.0234375,0.125,-0.99609375
1268,-0.0859375,0.1015625,-0.95703125
1269,-0.140625,0.00390625,-0.8359375
1270,-0.23046875,-0.05859375,-0.671875
1271,-0.38671875,-0.16015625,-0.53515625
1272,-0.55078125,-0.125,-0.453125
1273,-0.80859375,-0.32421875,-0.26171875
1274,-1.21484375,-0.40625,-0.25
1275,-1.69921875,-0.73046875,-0.29296875
1276,-2.26953125,-0.92578125,-0.37109375
1277,-2.73046875,-0.92578125,-0.56640625
1278,-3.02734375,-0.890625,-0.734375
1279,-3.5625,-0.58984375,-1.1015625
1280,-3.8203125,-0.34375,-1.70703125
1281,-4.46484375,0.0234375,-2.30078125
1282,-4.15625,0.171875,-2.96875
1283,-4.23046875,0.28515625,-3.39453125
1284,-5.18359375,0.06640625,-3.68359375
1285,-5.8828125,-0.63671875,-3.49609375
1286,-5.44140625,-1.59375,-2.859375
1287,-4.6875,-2.265625,-2.296875
1288,-3.6640625,-3.02734375,-1.375
1289,-2.546875,-3.48828125,-0.7109375
1290,-1.88671875,-3.51953125,-0.296875
1291,-1.57421875,-3.0,-0.0390625
1292,-1.67578125,-2.6015625,0.25390625
1293,-1.796875,-1.68359375,0.19921875
1294,-1.33984375,-0.80078125,-0.0546875
1295,-0.60546875,-0.27734375,-0.44140625
1296,-0.00390625,0.1328125,-0.35546875
1297,0.171875,0.5390625,-0.20703125
1298,0.39453125,1.10546875,0.2734375
1299,0.58203125,1.46484375,0.6953125
1300,0.8359375,1.59375,0.98046875
1301,0.71875,1.62109375,1.08984375
1302,0.02734375,1.4609375,0.796875
1303,-0.91796875,1.1875,0.6640625
1304,-1.51171875,0.76953125,0.51171875
1305,-1.9609375,0.2578125,0.44140625
1306,-2.23046875,0.04296875,0.296875
1307,-2.32421875,0.01171875,0.01953125
1308,-2.30859375,-0.0078125,-0.49609375
1309,-2.09375,-0.12109375,-0.9296875
1310,-1.84375,-0.03515625,-0.73046875
1311,-1.5,0.11328125,-0.4453125
1312,-1.17578125,0.0859375,-0.2265625
1313,-1.0234375,0.078125,0.0625
1314,-0.89453125,0.12109375,0.1328125
1315,-0.7265625,0.21484375,0.15625
1316,-0.51953125,0.33203125,0.203125
1317,-0.3671875,0.42578125,0.19921875
1318,-0.1953125,0.51171875,0.21875
1319,-0.1484375,0.6796875,0.16015625
1320,-0.25,0.921875,0.15625
1321,-0.421875,1.08203125,0.0859375
1322,-0.60546875,1.171875,0.08984375
1323,-0.890625,1.2265625,0.125
1324,-0.9921875,1.26953125,0.125
1325,-1.0625,1.25,0.09765625
1326,-1.17578125,1.2890625,0.125
1327,-1.2265625,1.296875,0.1328125
1328,-1.30859375,1.265625,0.14453125
1329,-1.3828125,1.2265625,0.109375
1330,-1.41796875,1.16015625,0.01953125
1331,-1.421875,1.015625,-0.0625
1332,-1.38671875,0.87109375,-0.1640625
1333,-1.2890625,0.7265625,-0.24609375
1334,-1.1484375,0.57421875,-0.2890625
1335,-1.03515625,0.49609375,-0.28125
1336,-0.94140625,0.375,-0.24609375
1337,-0.86328125,0.40234375,-0.19921875
1338,-0.80078125,0.45703125,-0.17578125
1339,-0.75390625,0.53125,-0.15625
1340,-0.7109375,0.58203125,-0.15234375
1341,-0.68359375,0.625,-0.15234375
1342,-0.68359375,0.66796875,-0.16015625
1343,-0.671875,0.7109375,-0.140625
1344,-0.69140625,0.74609375,-0.15234375
1345,-0.7109375,0.75,-0.1484375
1346,-0.765625,0.75390625,-0.1484375
1347,-0.796875,0.7578125,-0.15625
1348,-0.80859375,0.75,-0.17578125
1349,-0.859375,0.74609375,-0.1875
1350,-0.859375,0.7109375,-0.2109375
1351,-0.86328125,0.671875,-0.25
1352,-0.890625,0.64453125,-0.26953125
1353,-0.8671875,0.58203125,-0.2734375
1354,-0.8515625,0.53515625,-0.28515625
1355,-0.8359375,0.5078125,-0.31640625
1356,-0.828125,0.4921875,-0.3125
1357,-0.80078125,0.484375,-0.3515625
1358,-0.78125,0.5078125,-0.3515625
1359,-0.75390625,0.515625,-0.37109375
1360,-0.7265625,0.53515625,-0.3671875
1361,-0.6875,0.5625,-0.375
1362,-0.6640625,0.5703125,-0.3828125
1363,-0.6953125,0.56640625,-0.37109375
1364,-0.7109375,0.58203125,-0.34765625
1365,-0.70703125,0.56640625,-0.33984375
1366,-0.72265625,0.5546875,-0.3125
1367,-0.73046875,0.55078125,-0.3046875
1368,-0.75,0.5625,-0.31640625
1369,-0.7578125,0.53515625,-0.34375
1370,-0.78125,0.54296875,-0.375
1371,-0.78125,0.51953125,-0.390625
1372,-0.78515625,0.53125,-0.41015625
1373,-0.8046875,0.56640625,-0.42578125
1374,-0.8203125,0.5390625,-0.421875
1375,-0.8125,0.5234375,-0.4375
1376,-0.828125,0.5390625,-0.4609375
1377,-0.83984375,0.55859375,-0.4609375
1378,-0.859375,0.55859375,-0.4609375
1379,-0.86328125,0.54296875,-0.46484375
1380,-0.8671875,0.55078125,-0.45703125
1381,-0.87890625,0.52734375,-0.44140625
1382,-0.890625,0.51171875,-0.44140625
1383,-0.8984375,0.53125,-0.42578125
1384,-0.9453125,0.55859375,-0.4609375
1385,-0.90625,0.49609375,-0.41796875
1386,-0.8828125,0.47265625,-0.44921875
1387,-0.89453125,0.48046875,-0.44921875
1388,-0.89453125,0.484375,-0.45703125
1389,-0.89453125,0.48828125,-0.45703125
1390,-0.875,0.4921875,-0.46484375
1391,-0.88671875,0.51171875,-0.48828125
1392,-0.86328125,0.5078125,-0.50390625
1393,-0.8671875,0.53125,-0.5078125
1394,-0.83984375,0.50390625,-0.49609375
1395,-0.84765625,0.5703125,-0.48828125
1396,-0.8203125,0.51171875,-0.53515625
1397,-0.84765625,0.55078125,-0.55859375
1398,-0.9140625,0.5703125,-0.57421875
1399,-0.9375,0.58203125,-0.58984375
1400,-0.96484375,0.640625,-0.6015625
1401,-0.98046875,0.67578125,-0.6015625
1402,-1.00390625,0.7265625,-0.625
1403,-1.00390625,0.7578125,-0.63671875
1404,-0.98828125,0.7890625,-0.66796875
1405,-1.0078125,0.79296875,-0.65234375
1406,-0.9609375,0.78125,-0.6640625
1407,-0.94140625,0.7734375,-0.6953125
1408,-0.92578125,0.78515625,-0.77734375
1409,-0.953125,0.7578125,-0.78125
1410,-0.94140625,0.71875,-0.78125
1411,-0.92578125,0.62109375,-0.75390625
1412,-0.7890625,0.546875,-0.796875
1413,-0.640625,0.546875,-0.90625
1414,-0.50390625,0.4921875,-0.859375
1415,-0.48828125,0.3828125,-0.7578125
1416,-0.453125,0.21875,-0.5703125
1417,-0.4140625,0.078125,-0.44921875
1418,-0.35546875,0.015625,-0.35546875
1419,-0.35546875,0.01953125,-0.30078125
1420,-0.35546875,0.015625,-0.265625
1421,-0.421875,0.02734375,-0.23046875
1422,-0.47265625,0.02734375,-0.20703125
1423,-0.5625,0.05859375,-0.171875
1424,-0.6796875,0.0859375,-0.2109375
1425,-0.81640625,0.15234375,-0.2109375
1426,-0.86328125,0.19140625,-0.234375
1427,-0.90234375,0.18359375,-0.28125
1428,-0.87890625,0.20703125,-0.26171875
1429,-0.87109375,0.2109375,-0.28125
1430,-0.87109375,0.22265625,-0.30859375
1431,-0.87890625,0.2265625,-0.33984375
1432,-0.8828125,0.23046875,-0.34375
1433,-0.87890625,0.2265625,-0.40234375
1434,-0.86328125,0.23046875,-0.5
1435,-0.8203125,0.19140625,-0.53515625
1436,-0.80078125,0.20703125,-0.625
1437,-0.7734375,0.2734375,-0.703125
1438,-0.76171875,0.30078125,-0.75390625
1439,-0.7109375,0.38671875,-0.84375
1440,-0.66015625,0.47265625,-0.88671875
1441,-0.609375,0.5078125,-0.8828125
1442,-0.60546875,0.55078125,-0.87890625
1443,-0.546875,0.56640625,-0.8359375
1444,-0.5234375,0.58984375,-0.7578125
1445,-0.5,0.5859375,-0.69140625
1446,-0.48046875,0.58984375,-0.6796875
1447,-0.46875,0.58984375,-0.65234375
1448,-0.48046875,0.6171875,-0.65234375
1449,-0.5,0.59375,-0.65625
1450,-0.51953125,0.59765625,-0.67578125
1451,-0.55859375,0.58203125,-0.69921875
1452,-0.55859375,0.56640625,-0.7109375
1453,-0.6015625,0.5703125,-0.7421875
1454,-0.62109375,0.5625,-0.75
1455,-0.6484375,0.55078125,-0.7421875
1456,-0.6953125,0.5390625,-0.70703125
1457,-0.68359375,0.50390625,-0.66015625
1458,-0.69921875,0.4921875,-0.6328125
1459,-0.69140625,0.484375,-0.62109375
1460,-0.7109375,0.4765625,-0.5859375
1461,-0.703125,0.48828125,-0.5703125
1462,-0.70703125,0.49609375,-0.5703125
1463,-0.6953125,0.5,-0.5703125
1464,-0.68359375,0.5,-0.57421875
1465,-0.6796875,0.5078125,-0.5703125
1466,-0.6796875,0.5078125,-0.5625
1467,-0.67578125,0.5,-0.5546875
1468,-0.65234375,0.49609375,-0.546875
1469,-0.6328125,0.48828125,-0.55078125
1470,-0.61328125,0.46484375,-0.5546875
1471,-0.6015625,0.44921875,-0.54296875
1472,-0.61328125,0.44921875,-0.5390625
1473,-0.6328125,0.44921875,-0.53515625
1474,-0.62890625,0.44921875,-0.53515625
1475,-0.62890625,0.4453125,-0.5234375
1476,-0.63671875,0.4296875,-0.53125
1477,-0.66015625,0.43359375,-0.52734375
1478,-0.671875,0.44140625,-0.54296875
1479,-0.703125,0.44921875,-0.52734375
1480,-0.734375,0.47265625,-0.54296875
1481,-0.76171875,0.46875,-0.54296875
1482,-0.76953125,0.48046875,-0.51953125
1483,-0.796875,0.4921875,-0.546875
1484,-0.80078125,0.50390625,-0.54296875
1485,-0.83203125,0.515625,-0.54296875
1486,-0.86328125,0.51953125,-0.5390625
1487,-0.8671875,0.51171875,-0.5390625
1488,-0.89453125,0.5234375,-0.54296875
1489,-0.921875,0.53515625,-0.5234375
1490,-0.9296875,0.52734375,-0.51953125
1491,-0.92578125,0.53125,-0.5546875
1492,-0.9296875,0.5234375,-0.5234375
1493,-0.890625,0.546875,-0.5625
1494,-0.84375,0.50390625,-0.5703125
1495,-0.8203125,0.4921875,-0.5625
1496,-0.80078125,0.48046875,-0.55859375
1497,-0.80078125,0.4765625,-0.58203125
1498,-0.8125,0.48828125,-0.578125
1499,-0.8203125,0.4921875,-0.56640625
1500,-0.80859375,0.5,-0.5703125
1501,-0.76953125,0.48046875,-0.55078125
1502,-0.76953125,0.4921875,-0.5703125
1503,-0.7890625,0.484375,-0.56640625
1504,-0.7421875,0.4921875,-0.5703125
1505,-0.75,0.4921875,-0.5546875
1506,-0.75390625,0.4765625,-0.546875
1507,-0.76953125,0.48046875,-0.5390625
1508,-0.7421875,0.5078125,-0.5546875
1509,-0.72265625,0.51171875,-0.5546875
1510,-0.71484375,0.50390625,-0.55078125
1511,-0.7109375,0.515625,-0.546875
1512,-0.73828125,0.5234375,-0.56640625
1513,-0.71875,0.51953125,-0.5703125
1514,-0.72265625,0.5078125,-0.5625
1515,-0.70703125,0.51171875,-0.56640625
1516,-0.66796875,0.5,-0.55859375
1517,-0.6875,0.48828125,-0.55078125
1518,-0.68359375,0.49609375,-0.54296875
1519,-0.69921875,0.49609375,-0.5390625
1520,-0.6640625,0.4765625,-0.53515625
1521,-0.67578125,0.4765625,-0.5390625
1522,-0.68359375,0.47265625,-0.53515625
1523,-0.6875,0.46875,-0.53515625
1524,-0.6875,0.46484375,-0.53515625
1525,-0.69140625,0.4765625,-0.5390625
1526,-0.68359375,0.46875,-0.53125
1527,-0.6796875,0.47265625,-0.5234375
1528,-0.6875,0.44921875,-0.53125
1529,-0.6953125,0.46484375,-0.51953125
1530,-0.71875,0.45703125,-0.5234375
1531,-0.71484375,0.4609375,-0.51953125
1532,-0.70703125,0.44140625,-0.515625
1533,-0.71484375,0.4609375,-0.5
1534,-0.72265625,0.453125,-0.52734375
1535,-0.703125,0.46484375,-0.51171875
1536,-0.73046875,0.453125,-0.49609375
1537,-0.7265625,0.4609375,-0.49609375
1538,-0.72265625,0.4453125,-0.50390625
1539,-0.7578125,0.453125,-0.5
1540,-0.73828125,0.43359375,-0.49609375
1541,-0.73046875,0.4296875,-0.50390625
1542,-0.74609375,0.44140625,-0.51171875
1543,-0.7421875,0.4453125,-0.53125
1544,-0.75390625,0.43359375,-0.53125
1545,-0.76171875,0.44921875,-0.53125
1546,-0.7421875,0.4453125,-0.50390625
1547,-0.75390625,0.4296875,-0.51171875
1548,-0.75390625,0.43359375,-0.5078125
1549,-0.76171875,0.44140625,-0.51953125
1550,-0.765625,0.44140625,-0.52734375
1551,-0.76953125,0.44140625,-0.53125
1552,-0.765625,0.453125,-0.5234375
1553,-0.765625,0.44921875,-0.53125
1554,-0.7578125,0.4609375,-0.52734375
1555,-0.76953125,0.46484375,-0.53125
1556,-0.76953125,0.45703125,-0.51953125
1557,-0.765625,0.46875,-0.52734375
1558,-0.76171875,0.4453125,-0.48828125
1559,-0.76953125,0.4453125,-0.5234375
1560,-0.7734375,0.4453125,-0.52734375
1561,-0.79296875,0.43359375,-0.51953125
1562,-0.7890625,0.44921875,-0.53125
1563,-0.7890625,0.44140625,-0.546875
1564,-0.8046875,0.45703125,-0.5234375
1565,-0.80078125,0.4453125,-0.54296875
1566,-0.80078125,0.45703125,-0.546875
1567,-0.80078125,0.4453125,-0.546875
1568,-0.8125,0.45703125,-0.52734375
1569,-0.78125,0.453125,-0.5234375
1570,-0.77734375,0.453125,-0.5390625
1571,-0.7734375,0.4609375,-0.5390625
1572,-0.77734375,0.453125,-0.5390625
1573,-0.765625,0.4453125,-0.5234375
1574,-0.76953125,0.4453125,-0.52734375
1575,-0.7734375,0.45703125,-0.52734375
1576,-0.76953125,0.453125,-0.51171875
1577,-0.765625,0.44140625,-0.515625
1578,-0.76171875,0.44921875,-0.52734375
1579,-0.765625,0.46484375,-0.5234375
1580,-0.76171875,0.4453125,-0.51171875
1581,-0.75,0.44140625,-0.515625
1582,-0.75390625,0.4453125,-0.51171875
1583,-0.74609375,0.44140625,-0.50390625
1584,-0.75,0.4375,-0.49609375
1585,-0.75390625,0.4453125,-0.49609375
1586,-0.75,0.4453125,-0.5
1587,-0.75,0.4375,-0.51171875
1588,-0.75390625,0.44921875,-0.50390625
1589,-0.7578125,0.4453125,-0.51171875
1590,-0.75390625,0.4296875,-0.50390625
1591,-0.75390625,0.44921875,-0.515625
1592,-0.74609375,0.453125,-0.5078125
1593,-0.7578125,0.4453125,-0.5234375
1594,-0.7421875,0.4453125,-0.5234375
1595,-0.74609375,0.4453125,-0.51953125
1596,-0.75390625,0.44921875,-0.515625
1597,-0.75390625,0.4609375,-0.53125
1598,-0.7578125,0.4609375,-0.52734375
1599,-0.75390625,0.44921875,-0.53125
1600,-0.7421875,0.44921875,-0.515625
1601,-0.76171875,0.45703125,-0.5234375
1602,-0.75390625,0.45703125,-0.52734375
1603,-0.75,0.4609375,-0.53515625
1604,-0.75390625,0.46875,-0.53515625
1605,-0.7578125,0.46875,-0.53125
1606,-0.75,0.46875,-0.54296875
1607,-0.76171875,0.47265625,-0.54296875
1608,-0.7578125,0.46484375,-0.54296875
1609,-0.7578125,0.47265625,-0.5546875
1610,-0.76171875,0.484375,-0.546875
1611,-0.74609375,0.484375,-0.55859375
1612,-0.7734375,0.48828125,-0.5625
1613,-0.75390625,0.49609375,-0.5546875
1614,-0.7578125,0.484375,-0.546875
1615,-0.75,0.4921875,-0.54296875
1616,-0.7421875,0.48828125,-0.55078125
1617,-0.734375,0.48046875,-0.53515625
1618,-0.7421875,0.4765625,-0.53125
1619,-0.74609375,0.4765625,-0.546875
1620,-0.75,0.4609375,-0.54296875
1621,-0.75,0.4765625,-0.53125
1622,-0.7421875,0.4609375,-0.53125
1623,-0.7421875,0.48046875,-0.5546875
1624,-0.73828125,0.47265625,-0.53515625
1625,-0.73828125,0.47265625,-0.53515625
1626,-0.73046875,0.4765625,-0.53125
1627,-0.7265625,0.46484375,-0.53125
1628,-0.7265625,0.46875,-0.5234375
1629,-0.7109375,0.46484375,-0.53515625
1630,-0.72265625,0.47265625,-0.53515625
1631,-0.734375,0.48046875,-0.53125
1632,-0.72265625,0.4765625,-0.5390625
1633,-0.71484375,0.49609375,-0.55859375
1634,-0.734375,0.484375,-0.5234375
1635,-0.71875,0.48828125,-0.53515625
1636,-0.71875,0.48828125,-0.54296875
1637,-0.7265625,0.49609375,-0.53125
1638,-0.71484375,0.49609375,-0.5390625
1639,-0.70703125,0.48828125,-0.5234375
1640,-0.71484375,0.484375,-0.53515625
1641,-0.71484375,0.49609375,-0.5390625
1642,-0.69921875,0.48828125,-0.5546875
1643,-0.71484375,0.48828125,-0.546875
1644,-0.71875,0.48828125,-0.5390625
1645,-0.7109375,0.47265625,-0.5390625
1646,-0.71875,0.484375,-0.546875
1647,-0.72265625,0.49609375,-0.5546875
1648,-0.72265625,0.49609375,-0.5703125
1649,-0.72265625,0.49609375,-0.55078125
1650,-0.71484375,0.5,-0.57421875
1651,-0.72265625,0.5,-0.5703125
1652,-0.7109375,0.49609375,-0.5625
1653,-0.703125,0.51171875,-0.56640625
1654,-0.6953125,0.51171875,-0.55078125
1655,-0.69921875,0.515625,-0.56640625
1656,-0.69921875,0.50390625,-0.55859375
1657,-0.6875,0.51171875,-0.5546875
1658,-0.69140625,0.5078125,-0.54296875
1659,-0.66796875,0.5,-0.546875
1660,-0.6640625,0.484375,-0.53515625
1661,-0.671875,0.47265625,-0.53125
1662,-0.6875,0.46875,-0.53125
1663,-0.7109375,0.46875,-0.53125
1664,-0.71875,0.47265625,-0.54296875
1665,-0.70703125,0.45703125,-0.55078125
1666,-0.71484375,0.48046875,-0.5546875
1667,-0.703125,0.49609375,-0.5859375
1668,-0.73828125,0.51171875,-0.58984375
1669,-0.71875,0.515625,-0.5859375
1670,-0.72265625,0.5078125,-0.59765625
1671,-0.69921875,0.515625,-0.5859375
1672,-0.71484375,0.51953125,-0.59375
1673,-0.6875,0.5234375,-0.5859375
1674,-0.68359375,0.515625,-0.5859375
1675,-0.67578125,0.515625,-0.5703125
1676,-0.69140625,0.50390625,-0.5703125
1677,-0.68359375,0.49609375,-0.56640625
1678,-0.6796875,0.50390625,-0.58203125
1679,-0.69140625,0.49609375,-0.5859375
1680,-0.703125,0.5,-0.58984375
1681,-0.7109375,0.5,-0.59375
1682,-0.71484375,0.50390625,-0.6015625
1683,-0.72265625,0.5078125,-0.609375
1684,-0.71875,0.51171875,-0.60546875
1685,-0.7109375,0.51171875,-0.60546875
1686,-0.703125,0.51171875,-0.61328125
1687,-0.6953125,0.515625,-0.6171875
1688,-0.69140625,0.5078125,-0.61328125
1689,-0.68359375,0.51953125,-0.609375
1690,-0.69140625,0.5234375,-0.61328125
1691,-0.6796875,0.515625,-0.59375
1692,-0.6796875,0.52734375,-0.609375
1693,-0.66796875,0.5234375,-0.60546875
1694,-0.6640625,0.5078125,-0.609375
1695,-0.671875,0.51171875,-0.59375
1696,-0.67578125,0.51953125,-0.60546875
1697,-0.67578125,0.51171875,-0.61328125
1698,-0.66796875,0.5234375,-0.60546875
1699,-0.671875,0.515625,-0.625
1700,-0.6640625,0.515625,-0.625
1701,-0.66796875,0.53125,-0.6015625
1702,-0.671875,0.51953125,-0.609375
1703,-0.65234375,0.51171875,-0.60546875
1704,-0.65234375,0.515625,-0.6015625
1705,-0.65625,0.5078125,-0.60546875
1706,-0.66015625,0.50390625,-0.6171875
1707,-0.65625,0.53125,-0.61328125
1708,-0.64453125,0.5234375,-0.59375
1709,-0.65234375,0.50390625,-0.5859375
1710,-0.68359375,0.50390625,-0.59375
1711,-0.66015625,0.5234375,-0.609375
1712,-0.66015625,0.5234375,-0.59765625
1713,-0.6484375,0.5078125,-0.59375
1714,-0.6484375,0.515625,-0.6015625
1715,-0.65234375,0.51171875,-0.58984375
1716,-0.6484375,0.5078125,-0.6015625
1717,-0.65234375,0.5078125,-0.59765625
1718,-0.65234375,0.50390625,-0.59375
1719,-0.65234375,0.5234375,-0.609375
1720,-0.6640625,0.5078125,-0.61328125
1721,-0.66015625,0.51171875,-0.6328125
1722,-0.66015625,0.515625,-0.625
1723,-0.66796875,0.53125,-0.60546875
1724,-0.6640625,0.51953125,-0.609375
1725,-0.66015625,0.515625,-0.609375
1726,-0.6640625,0.53125,-0.61328125
1727,-0.66015625,0.5234375,-0.61328125
1728,-0.65625,0.51953125,-0.625
1729,-0.66015625,0.515625,-0.625
1730,-0.65625,0.515625,-0.6171875
1731,-0.64453125,0.5234375,-0.6015625
1732,-0.66015625,0.515625,-0.609375
1733,-0.65234375,0.51171875,-0.609375
1734,-0.66015625,0.51953125,-0.6171875
1735,-0.65625,0.515625,-0.61328125
1736,-0.65234375,0.5078125,-0.61328125
1737,-0.66015625,0.51171875,-0.625
1738,-0.65625,0.515625,-0.60546875
1739,-0.65625,0.51171875,-0.609375
1740,-0.671875,0.51171875,-0.609375
1741,-0.66796875,0.5078125,-0.6171875
1742,-0.6640625,0.515625,-0.59765625
1743,-0.6875,0.51953125,-0.60546875
1744,-0.6640625,0.5078125,-0.609375
1745,-0.6640625,0.5078125,-0.6171875
1746,-0.66015625,0.515625,-0.60546875
1747,-0.66015625,0.51171875,-0.6015625
1748,-0.671875,0.51171875,-0.62109375
1749,-0.66796875,0.50390625,-0.6171875
1750,-0.66796875,0.51171875,-0.6015625
1751,-0.66015625,0.51171875,-0.59375
1752,-0.671875,0.51171875,-0.59765625
1753,-0.6640625,0.5078125,-0.5859375
1754,-0.66015625,0.51171875,-0.56640625
1755,-0.66796875,0.5,-0.59765625
1756,-0.66796875,0.50390625,-0.58984375
1757,-0.66796875,0.5078125,-0.59375
1758,-0.66015625,0.51171875,-0.59765625
1759,-0.67578125,0.51171875,-0.59375
1760,-0.6796875,0.50390625,-0.59375
1761,-0.6796875,0.51171875,-0.60546875
1762,-0.68359375,0.515625,-0.6015625
1763,-0.67578125,0.5,-0.58203125
1764,-0.67578125,0.51171875,-0.578125
1765,-0.6875,0.5,-0.58984375
1766,-0.67578125,0.51953125,-0.59375
1767,-0.6796875,0.51953125,-0.5859375
1768,-0.68359375,0.50390625,-0.5859375
1769,-0.66796875,0.5078125,-0.5859375
1770,-0.68359375,0.515625,-0.578125
1771,-0.67578125,0.5078125,-0.578125
1772,-0.69140625,0.5234375,-0.58984375
1773,-0.68359375,0.515625,-0.58984375
1774,-0.6796875,0.50390625,-0.58984375
1775,-0.68359375,0.5234375,-0.58203125
1776,-0.640625,0.50390625,-0.62890625
1777,-0.66796875,0.50390625,-0.58203125
1778,-0.6796875,0.515625,-0.578125
1779,-0.6796875,0.51171875,-0.5703125
1780,-0.67578125,0.515625,-0.5859375
1781,-0.671875,0.50390625,-0.5859375
1782,-0.6796875,0.5078125,-0.578125
1783,-0.6796875,0.5078125,-0.58984375
1784,-0.6796875,0.5078125,-0.58984375
1785,-0.6796875,0.5078125,-0.578125
1786,-0.6875,0.51171875,-0.58203125
1787,-0.6953125,0.54296875,-0.578125
1788,-0.69140625,0.5078125,-0.5703125
1789,-0.67578125,0.5078125,-0.578125
1790,-0.6875,0.50390625,-0.57421875
1791,-0.68359375,0.50390625,-0.5859375
1792,-0.6796875,0.50390625,-0.58203125
1793,-0.68359375,0.51171875,-0.57421875
1794,-0.68359375,0.5078125,-0.58203125
1795,-0.68359375,0.50390625,-0.58984375
1796,-0.6796875,0.50390625,-0.59375
1797,-0.67578125,0.51171875,-0.57421875
1798,-0.671875,0.50390625,-0.546875
1799,-0.68359375,0.5078125,-0.5859375
1800,-0.6796875,0.5078125,-0.59765625
1801,-0.671875,0.51171875,-0.58984375
1802,-0.67578125,0.5078125,-0.58984375
1803,-0.68359375,0.51171875,-0.59765625
1804,-0.67578125,0.50390625,-0.58984375
1805,-0.67578125,0.51953125,-0.609375
1806,-0.67578125,0.50390625,-0.59375
1807,-0.67578125,0.5078125,-0.59765625
1808,-0.66796875,0.5078125,-0.5625
1809,-0.67578125,0.5078125,-0.58984375
1810,-0.671875,0.50390625,-0.58984375
1811,-0.671875,0.50390625,-0.59765625
1812,-0.671875,0.50390625,-0.5859375
1813,-0.671875,0.5078125,-0.58984375
1814,-0.671875,0.5,-0.58203125
1815,-0.6796875,0.50390625,-0.58984375
1816,-0.67578125,0.50390625,-0.5703125
1817,-0.671875,0.50390625,-0.59765625
1818,-0.671875,0.50390625,-0.5859375
1819,-0.66796875,0.51171875,-0.59375
1820,-0.66015625,0.49609375,-0.578125
1821,-0.67578125,0.50390625,-0.59765625
1822,-0.6796875,0.5,-0.59765625
1823,-0.67578125,0.50390625,-0.59375
1824,-0.671875,0.51171875,-0.59375
1825,-0.66796875,0.50390625,-0.5859375
1826,-0.6796875,0.50390625,-0.58203125
1827,-0.671875,0.5078125,-0.58984375
1828,-0.6796875,0.51171875,-0.58203125
1829,-0.67578125,0.4921875,-0.59375
1830,-0.69140625,0.5078125,-0.5703125
1831,-0.67578125,0.515625,-0.5859375
1832,-0.671875,0.5078125,-0.58984375
1833,-0.68359375,0.515625,-0.59375
1834,-0.67578125,0.51171875,-0.6015625
1835,-0.68359375,0.5078125,-0.58984375
1836,-0.671875,0.51953125,-0.59765625
1837,-0.6796875,0.5234375,-0.60546875
1838,-0.67578125,0.5234375,-0.6015625
1839,-0.68359375,0.5234375,-0.60546875
1840,-0.6796875,0.50390625,-0.58203125
1841,-0.6875,0.51953125,-0.5859375
1842,-0.66796875,0.51953125,-0.5703125
1843,-0.6875,0.51953125,-0.58984375
1844,-0.6640625,0.50390625,-0.6015625
1845,-0.67578125,0.51953125,-0.59375
1846,-0.67578125,0.515625,-0.59375
1847,-0.6796875,0.51171875,-0.58203125
1848,-0.66796875,0.51171875,-0.58984375
1849,-0.6875,0.5234375,-0.5859375
1850,-0.67578125,0.5078125,-0.58203125
1851,-0.671875,0.5078125,-0.59375
1852,-0.65625,0.51171875,-0.6015625
1853,-0.671875,0.51953125,-0.6015625
1854,-0.671875,0.515625,-0.5859375
1855,-0.6640625,0.51953125,-0.578125
1856,-0.671875,0.515625,-0.5859375
1857,-0.671875,0.515625,-0.57421875
1858,-0.66796875,0.51171875,-0.56640625
1859,-0.671875,0.51953125,-0.5703125
1860,-0.67578125,0.515625,-0.5859375
1861,-0.66015625,0.5078125,-0.57421875
1862,-0.68359375,0.51953125,-0.5703125
1863,-0.6640625,0.5078125,-0.57421875
1864,-0.6796875,0.51953125,-0.5859375
1865,-0.68359375,0.50390625,-0.5859375
1866,-0.6796875,0.51953125,-0.57421875
1867,-0.66796875,0.51953125,-0.58203125
1868,-0.68359375,0.51953125,-0.58203125
1869,-0.66796875,0.5078125,-0.58203125
1870,-0.6640625,0.5078125,-0.56640625
1871,-0.6796875,0.5078125,-0.59765625
1872,-0.671875,0.5078125,-0.58203125
1873,-0.6796875,0.51171875,-0.58203125
1874,-0.66796875,0.51171875,-0.578125
1875,-0.66796875,0.5234375,-0.58984375
1876,-0.68359375,0.51953125,-0.578125
1877,-0.67578125,0.51171875,-0.58203125
1878,-0.67578125,0.515625,-0.59375
1879,-0.67578125,0.50390625,-0.58203125
1880,-0.67578125,0.51953125,-0.59765625
1881,-0.6875,0.51953125,-0.58203125
1882,-0.671875,0.515625,-0.6015625
1883,-0.6796875,0.53125,-0.58203125
1884,-0.671875,0.5234375,-0.5859375
1885,-0.68359375,0.5234375,-0.56640625
1886,-0.6796875,0.51953125,-0.5859375
1887,-0.67578125,0.5078125,-0.5859375
1888,-0.671875,0.51171875,-0.5703125
1889,-0.671875,0.50390625,-0.578125
1890,-0.67578125,0.5078125,-0.58984375
1891,-0.67578125,0.5078125,-0.56640625
1892,-0.69140625,0.51171875,-0.56640625
1893,-0.66796875,0.50390625,-0.58203125
1894,-0.69921875,0.52734375,-0.6015625
1895,-0.67578125,0.51171875,-0.57421875
1896,-0.703125,0.515625,-0.57421875
1897,-0.67578125,0.5078125,-0.58203125
1898,-0.68359375,0.51171875,-0.58203125
1899,-0.6796875,0.51953125,-0.58984375
1900,-0.69140625,0.51953125,-0.5703125
1901,-0.68359375,0.51171875,-0.59375
1902,-0.69140625,0.51171875,-0.56640625
1903,-0.6796875,0.51953125,-0.57421875
1904,-0.6875,0.53515625,-0.5703125
1905,-0.68359375,0.51171875,-0.58203125
1906,-0.6953125,0.515625,-0.58203125
1907,-0.65234375,0.50390625,-0.56640625
1908,-0.6796875,0.5234375,-0.58203125
1909,-0.6953125,0.5234375,-0.58203125
1910,-0.671875,0.51953125,-0.5859375
1911,-0.6796875,0.51953125,-0.58984375
1912,-0.6875,0.51953125,-0.578125
1913,-0.6796875,0.51171875,-0.57421875
1914,-0.69140625,0.515625,-0.57421875
1915,-0.6953125,0.515625,-0.578125
1916,-0.6796875,0.5234375,-0.578125
1917,-0.6953125,0.50390625,-0.6015625
1918,-0.68359375,0.51953125,-0.57421875
1919,-0.69140625,0.5234375,-0.5859375
1920,-0.6953125,0.51171875,-0.57421875
1921,-0.6875,0.5078125,-0.5703125
1922,-0.67578125,0.51171875,-0.58203125
1923,-0.6796875,0.5078125,-0.578125
1924,-0.69921875,0.50390625,-0.55859375
1925,-0.6640625,0.5078125,-0.5703125
1926,-0.68359375,0.51171875,-0.57421875
1927,-0.6796875,0.5078125,-0.57421875
1928,-0.69140625,0.50390625,-0.56640625
1929,-0.68359375,0.5078125,-0.56640625
1930,-0.6796875,0.51171875,-0.56640625
1931,-0.6875,0.51171875,-0.5859375
1932,-0.68359375,0.51171875,-0.5703125
1933,-0.68359375,0.5234375,-0.56640625
1934,-0.68359375,0.5078125,-0.56640625
1935,-0.6796875,0.5234375,-0.55078125
1936,-0.68359375,0.5234375,-0.55859375
1937,-0.69140625,0.515625,-0.5625
1938,-0.6875,0.51171875,-0.578125
1939,-0.69921875,0.48828125,-0.59765625
1940,-0.69140625,0.5078125,-0.57421875
1941,-0.68359375,0.515625,-0.5625
1942,-0.68359375,0.5078125,-0.5703125
1943,-0.69921875,0.515625,-0.56640625
1944,-0.67578125,0.5078125,-0.57421875
1945,-0.69921875,0.51171875,-0.56640625
1946,-0.67578125,0.5078125,-0.57421875
1947,-0.69921875,0.515625,-0.56640625
1948,-0.6875,0.515625,-0.5859375
1949,-0.69140625,0.53125,-0.578125
1950,-0.6953125,0.50390625,-0.58203125
1951,-0.68359375,0.515625,-0.5859375
1952,-0.6875,0.51953125,-0.578125
1953,-0.68359375,0.50390625,-0.5625
1954,-0.6796875,0.5,-0.56640625
1955,-0.6875,0.5078125,-0.57421875
1956,-0.67578125,0.51171875,-0.5703125
1957,-0.703125,0.51171875,-0.5703125
1958,-0.68359375,0.51171875,-0.56640625
1959,-0.68359375,0.50390625,-0.5703125
1960,-0.6875,0.51953125,-0.5703125
1961,-0.7109375,0.5,-0.53515625
1962,-0.69921875,0.515625,-0.56640625
1963,-0.703125,0.5078125,-0.57421875
1964,-0.69921875,0.5078125,-0.56640625
1965,-0.70703125,0.51171875,-0.57421875
1966,-0.703125,0.51171875,-0.58203125
1967,-0.6875,0.5078125,-0.578125
1968,-0.69921875,0.51171875,-0.58984375
1969,-0.69140625,0.51171875,-0.5625
1970,-0.69140625,0.51171875,-0.58203125
1971,-0.70703125,0.51953125,-0.55859375
1972,-0.68359375,0.515625,-0.56640625
1973,-0.69140625,0.51171875,-0.56640625
1974,-0.69140625,0.515625,-0.56640625
1975,-0.6875,0.51171875,-0.56640625
1976,-0.69140625,0.51171875,-0.5625
1977,-0.69140625,0.51171875,-0.56640625
1978,-0.6953125,0.50390625,-0.55859375
1979,-0.7109375,0.52734375,-0.5703125
1980,-0.69140625,0.5078125,-0.5703125
1981,-0.69921875,0.5078125,-0.56640625
1982,-0.6953125,0.5,-0.55859375
1983,-0.68359375,0.48828125,-0.55078125
1984,-0.69921875,0.5078125,-0.5703125
1985,-0.6875,0.49609375,-0.55078125
1986,-0.68359375,0.5,-0.56640625
1987,-0.69140625,0.5078125,-0.5625
1988,-0.69921875,0.50390625,-0.55859375
1989,-0.68359375,0.5078125,-0.546875
1990,-0.6953125,0.5,-0.58203125
1991,-0.69140625,0.51171875,-0.578125
1992,-0.6953125,0.5078125,-0.55859375
1993,-0.6953125,0.5,-0.56640625
1994,-0.703125,0.5078125,-0.55078125
1995,-0.6953125,0.50390625,-0.5859375
1996,-0.68359375,0.515625,-0.5625
1997,-0.69140625,0.50390625,-0.546875
1998,-0.7109375,0.50390625,-0.5625
1999,-0.6953125,0.515625,-0.5625
2000,-0.703125,0.5078125,-0.5625
2001,-0.703125,0.5078125,-0.55078125
2002,-0.69140625,0.5,-0.5625
2003,-0.6953125,0.515625,-0.55078125
2004,-0.69140625,0.50390625,-0.5703125
2005,-0.69921875,0.4921875,-0.55859375
2006,-0.6953125,0.5078125,-0.5546875
2007,-0.6953125,0.4921875,-0.5625
2008,-0.69921875,0.50390625,-0.56640625
2009,-0.6953125,0.50390625,-0.55078125
2010,-0.69921875,0.5,-0.55078125
2011,-0.6953125,0.5,-0.56640625
2012,-0.69921875,0.5078125,-0.578125
2013,-0.7109375,0.515625,-0.578125
2014,-0.69921875,0.50390625,-0.5625
2015,-0.70703125,0.515625,-0.56640625
2016,-0.7109375,0.515625,-0.54296875
2017,-0.6953125,0.5078125,-0.55859375
2018,-0.6953125,0.5078125,-0.56640625
2019,-0.70703125,0.515625,-0.5625
2020,-0.6953125,0.51171875,-0.5546875
2021,-0.7109375,0.51171875,-0.5625
2022,-0.69921875,0.50390625,-0.55859375
2023,-0.703125,0.50390625,-0.55859375
2024,-0.6953125,0.5,-0.55859375
2025,-0.69921875,0.5,-0.56640625
2026,-0.70703125,0.50390625,-0.546875
2027,-0.69921875,0.5078125,-0.55859375
2028,-0.69921875,0.50390625,-0.5546875
2029,-0.69140625,0.50390625,-0.5546875
2030,-0.703125,0.49609375,-0.546875
2031,-0.703125,0.50390625,-0.5625
2032,-0.703125,0.50390625,-0.5625
2033,-0.703125,0.5,-0.5703125
2034,-0.69921875,0.5,-0.5703125
2035,-0.6953125,0.5078125,-0.5703125
2036,-0.69140625,0.5,-0.5703125
2037,-0.71484375,0.50390625,-0.55078125
2038,-0.69921875,0.50390625,-0.5625
2039,-0.7109375,0.5,-0.5546875
2040,-0.69140625,0.50390625,-0.5703125
2041,-0.6953125,0.5078125,-0.5546875
2042,-0.69921875,0.515625,-0.55859375
2043,-0.69921875,0.5078125,-0.55859375
2044,-0.703125,0.5078125,-0.546875
2045,-0.703125,0.5,-0.5859375
2046,-0.71484375,0.50390625,-0.5625
2047,-0.7109375,0.5,-0.55859375
2048,-0.71875,0.4921875,-0.57421875
2049,-0.6953125,0.51171875,-0.5625
2050,-0.69921875,0.5,-0.56640625
2051,-0.6953125,0.51171875,-0.5625
2052,-0.6953125,0.51171875,-0.55859375
2053,-0.6953125,0.50390625,-0.56640625
2054,-0.69921875,0.51171875,-0.56640625
2055,-0.6953125,0.5078125,-0.546875
2056,-0.6953125,0.51171875,-0.57421875
2057,-0.703125,0.51953125,-0.5625
2058,-0.69140625,0.515625,-0.546875
2059,-0.69140625,0.49609375,-0.56640625
2060,-0.7109375,0.51171875,-0.55859375
2061,-0.69921875,0.50390625,-0.5546875
2062,-0.6953125,0.50390625,-0.55859375
2063,-0.70703125,0.51171875,-0.55859375
2064,-0.69921875,0.5,-0.5546875
2065,-0.69921875,0.51171875,-0.55859375
2066,-0.69921875,0.515625,-0.56640625
2067,-0.6953125,0.51171875,-0.578125
2068,-0.70703125,0.51953125,-0.57421875
2069,-0.69140625,0.50390625,-0.56640625
2070,-0.69921875,0.48828125,-0.546875
2071,-0.69921875,0.5078125,-0.56640625
2072,-0.69140625,0.5,-0.5546875
2073,-0.6875,0.5,-0.56640625
2074,-0.69921875,0.5078125,-0.55078125
2075,-0.6953125,0.50390625,-0.56640625
2076,-0.703125,0.50390625,-0.5625
2077,-0.69921875,0.5078125,-0.56640625
2078,-0.6953125,0.51171875,-0.56640625
2079,-0.69921875,0.51953125,-0.546875
2080,-0.6875,0.5078125,-0.55859375
2081,-0.69140625,0.5,-0.57421875
2082,-0.70703125,0.5078125,-0.5546875
2083,-0.69140625,0.515625,-0.5703125
2084,-0.69921875,0.515625,-0.55859375
2085,-0.69921875,0.5,-0.5625
2086,-0.69921875,0.5078125,-0.56640625
2087,-0.6953125,0.50390625,-0.56640625
2088,-0.6875,0.50390625,-0.56640625
2089,-0.69140625,0.5,-0.5546875
2090,-0.70703125,0.5078125,-0.56640625
2091,-0.70703125,0.50390625,-0.55078125
2092,-0.71484375,0.50390625,-0.5703125
2093,-0.703125,0.50390625,-0.5625
2094,-0.6953125,0.5,-0.58203125
2095,-0.69140625,0.5078125,-0.57421875
2096,-0.6875,0.5078125,-0.578125
2097,-0.7109375,0.50390625,-0.55078125
2098,-0.69921875,0.50390625,-0.56640625
2099,-0.69921875,0.50390625,-0.578125
2100,-0.6875,0.5,-0.56640625
2101,-0.6953125,0.5078125,-0.578125
2102,-0.69140625,0.5078125,-0.56640625
2103,-0.6953125,0.49609375,-0.609375
2104,-0.6953125,0.5234375,-0.55859375
2105,-0.69921875,0.515625,-0.57421875
2106,-0.69140625,0.51171875,-0.5625
2107,-0.69140625,0.50390625,-0.5625
2108,-0.703125,0.5,-0.5703125
2109,-0.703125,0.51953125,-0.5703125
2110,-0.69140625,0.51171875,-0.5625
2111,-0.703125,0.5078125,-0.5625
2112,-0.68359375,0.50390625,-0.5546875
2113,-0.6953125,0.51953125,-0.5625
2114,-0.69140625,0.5078125,-0.5703125
2115,-0.703125,0.51171875,-0.56640625
2116,-0.6875,0.50390625,-0.57421875
2117,-0.69140625,0.5078125,-0.5625
2118,-0.69921875,0.50390625,-0.5625
2119,-0.6953125,0.51171875,-0.5703125
2120,-0.7109375,0.5234375,-0.5625
2121,-0.6796875,0.515625,-0.55859375
2122,-0.69140625,0.5,-0.57421875
2123,-0.68359375,0.50390625,-0.5625
2124,-0.6875,0.515625,-0.55078125
2125,-0.6875,0.51171875,-0.5625
2126,-0.6953125,0.51171875,-0.55859375
2127,-0.69921875,0.51171875,-0.56640625
2128,-0.703125,0.51953125,-0.57421875
2129,-0.69921875,0.51171875,-0.5546875
2130,-0.703125,0.51953125,-0.55859375
2131,-0.68359375,0.51171875,-0.55859375
2132,-0.6875,0.5078125,-0.56640625
2133,-0.69921875,0.515625,-0.55078125
2134,-0.70703125,0.515625,-0.5625
2135,-0.6953125,0.49609375,-0.5546875
2136,-0.6953125,0.51171875,-0.55859375
2137,-0.69921875,0.515625,-0.55859375
2138,-0.67578125,0.51171875,-0.55859375
2139,-0.68359375,0.5078125,-0.5703125
2140,-0.6953125,0.515625,-0.55078125
2141,-0.6875,0.515625,-0.56640625
2142,-0.703125,0.5078125,-0.57421875
2143,-0.70703125,0.50390625,-0.58203125
2144,-0.69921875,0.515625,-0.5546875
2145,-0.67578125,0.515625,-0.5703125
2146,-0.6875,0.50390625,-0.56640625
2147,-0.6875,0.50390625,-0.5625
2148,-0.6875,0.51171875,-0.56640625
2149,-0.6953125,0.51953125,-0.56640625
2150,-0.6953125,0.51953125,-0.578125
2151,-0.6875,0.5078125,-0.57421875
2152,-0.6953125,0.5234375,-0.5703125
2153,-0.67578125,0.50390625,-0.5625
2154,-0.6953125,0.51953125,-0.56640625
2155,-0.69140625,0.5078125,-0.578125
2156,-0.69140625,0.5078125,-0.5625
2157,-0.69140625,0.50390625,-0.5546875
2158,-0.6953125,0.51171875,-0.5625
2159,-0.69921875,0.50390625,-0.5625
2160,-0.69921875,0.5078125,-0.57421875
2161,-0.69140625,0.515625,-0.56640625
2162,-0.6953125,0.515625,-0.58203125
2163,-0.6953125,0.51171875,-0.57421875
2164,-0.703125,0.50390625,-0.58203125
2165,-0.69140625,0.51171875,-0.56640625
2166,-0.68359375,0.51171875,-0.5859375
2167,-0.69140625,0.51171875,-0.5546875
2168,-0.69140625,0.5078125,-0.5546875
2169,-0.6875,0.5,-0.56640625
2170,-0.6796875,0.5,-0.5703125
2171,-0.68359375,0.5,-0.5625
2172,-0.6875,0.5,-0.5625
2173,-0.68359375,0.5078125,-0.58203125
2174,-0.69140625,0.515625,-0.5546875
2175,-0.703125,0.51171875,-0.5703125
2176,-0.703125,0.50390625,-0.578125
2177,-0.6796875,0.49609375,-0.5703125
2178,-0.6953125,0.49609375,-0.5859375
2179,-0.6953125,0.50390625,-0.578125
2180,-0.6875,0.50390625,-0.56640625
2181,-0.68359375,0.515625,-0.578125
2182,-0.6875,0.51171875,-0.5703125
2183,-0.6875,0.515625,-0.5703125
2184,-0.68359375,0.52734375,-0.56640625
2185,-0.6796875,0.5078125,-0.5703125
2186,-0.6953125,0.51953125,-0.57421875
2187,-0.6875,0.51171875,-0.5859375
2188,-0.69140625,0.51953125,-0.5703125
2189,-0.6796875,0.515625,-0.578125
2190,-0.67578125,0.54296875,-0.5703125
2191,-0.6875,0.51953125,-0.56640625
2192,-0.68359375,0.5078125,-0.5703125
2193,-0.6875,0.51171875,-0.5625
2194,-0.6953125,0.51171875,-0.5546875
2195,-0.6796875,0.515625,-0.57421875
2196,-0.69140625,0.51171875,-0.56640625
2197,-0.69140625,0.51171875,-0.57421875
2198,-0.6796875,0.51171875,-0.56640625
2199,-0.6796875,0.51953125,-0.5546875
2200,-0.68359375,0.50390625,-0.55859375
2201,-0.69140625,0.5234375,-0.53125
2202,-0.68359375,0.50390625,-0.57421875
2203,-0.67578125,0.5078125,-0.5703125
2204,-0.6953125,0.51171875,-0.57421875
2205,-0.671875,0.51171875,-0.57421875
2206,-0.6875,0.5078125,-0.57421875
2207,-0.68359375,0.51171875,-0.5625
2208,-0.6796875,0.51171875,-0.56640625
2209,-0.67578125,0.50390625,-0.55859375
2210,-0.69140625,0.50390625,-0.5859375
2211,-0.67578125,0.5078125,-0.58984375
2212,-0.66796875,0.51171875,-0.55859375
2213,-0.6796875,0.5078125,-0.5625
2214,-0.6875,0.51171875,-0.58203125
2215,-0.6796875,0.515625,-0.56640625
2216,-0.67578125,0.50390625,-0.58984375
2217,-0.69140625,0.515625,-0.578125
2218,-0.6796875,0.50390625,-0.58203125
2219,-0.67578125,0.5078125,-0.58203125
2220,-0.68359375,0.5,-0.58203125
2221,-0.6796875,0.515625,-0.57421875
2222,-0.671875,0.50390625,-0.5859375
2223,-0.67578125,0.515625,-0.578125
2224,-0.69140625,0.51953125,-0.5859375
2225,-0.67578125,0.515625,-0.5859375
2226,-0.6875,0.515625,-0.57421875
2227,-0.671875,0.5234375,-0.58203125
2228,-0.6796875,0.51171875,-0.5703125
2229,-0.6875,0.515625,-0.59765625
2230,-0.69140625,0.515625,-0.5859375
2231,-0.6796875,0.5078125,-0.58984375
2232,-0.69140625,0.51171875,-0.58984375
2233,-0.6953125,0.5,-0.61328125
2234,-0.69140625,0.51171875,-0.59375
2235,-0.6875,0.5234375,-0.5859375
2236,-0.6796875,0.515625,-0.58203125
2237,-0.6796875,0.51171875,-0.58984375
2238,-0.6796875,0.5078125,-0.58203125
2239,-0.68359375,0.515625,-0.578125
2240,-0.69140625,0.51953125,-0.59375
2241,-0.69140625,0.515625,-0.57421875
2242,-0.69921875,0.515625,-0.59765625
2243,-0.68359375,0.51171875,-0.59375
2244,-0.69921875,0.50390625,-0.61328125
2245,-0.66796875,0.50390625,-0.58984375
2246,-0.6796875,0.515625,-0.58203125
2247,-0.66796875,0.52734375,-0.578125
2248,-0.6875,0.51171875,-0.56640625
2249,-0.6796875,0.51171875,-0.56640625
2250,-0.69140625,0.5078125,-0.578125
2251,-0.67578125,0.50390625,-0.57421875
2252,-0.69140625,0.5078125,-0.57421875
2253,-0.67578125,0.51953125,-0.57421875
2254,-0.6875,0.51171875,-0.58203125
2255,-0.68359375,0.5234375,-0.5625
2256,-0.68359375,0.515625,-0.56640625
2257,-0.68359375,0.51171875,-0.57421875
2258,-0.6875,0.50390625,-0.5859375
2259,-0.6796875,0.50390625,-0.57421875
2260,-0.68359375,0.5078125,-0.5703125
2261,-0.6796875,0.51171875,-0.5703125
2262,-0.6875,0.5078125,-0.5859375
2263,-0.67578125,0.515625,-0.578125
2264,-0.67578125,0.5078125,-0.57421875
2265,-0.68359375,0.5234375,-0.5859375
2266,-0.69140625,0.50390625,-0.5859375
2267,-0.69140625,0.51171875,-0.5859375
2268,-0.6875,0.5078125,-0.5625
2269,-0.6875,0.5234375,-0.5859375
2270,-0.6875,0.51171875,-0.5703125
2271,-0.6953125,0.515625,-0.5625
2272,-0.6875,0.51171875,-0.5859375
2273,-0.6875,0.50390625,-0.5703125
2274,-0.6875,0.5234375,-0.5703125
2275,-0.671875,0.51171875,-0.57421875
2276,-0.67578125,0.515625,-0.5703125
2277,-0.68359375,0.48828125,-0.5703125
2278,-0.68359375,0.5078125,-0.5703125
2279,-0.6875,0.5078125,-0.5625
2280,-0.6953125,0.515625,-0.55078125
2281,-0.6875,0.5234375,-0.5625
2282,-0.6875,0.50390625,-0.5625
2283,-0.67578125,0.52734375,-0.5703125
2284,-0.70703125,0.51953125,-0.55859375
2285,-0.68359375,0.515625,-0.55078125
2286,-0.68359375,0.515625,-0.56640625
2287,-0.69140625,0.51953125,-0.5703125
2288,-0.68359375,0.51953125,-0.55859375
2289,-0.69140625,0.51171875,-0.5703125
2290,-0.6796875,0.5,-0.5703125
2291,-0.68359375,0.50390625,-0.5703125
2292,-0.69921875,0.515625,-0.55859375
2293,-0.69140625,0.51171875,-0.5703125
2294,-0.6796875,0.5078125,-0.55859375
2295,-0.703125,0.51171875,-0.5859375
2296,-0.69921875,0.5234375,-0.58203125
2297,-0.6875,0.5234375,-0.58203125
2298,-0.69140625,0.51171875,-0.56640625
2299,-0.671875,0.52734375,-0.578125
2300,-0.69140625,0.50390625,-0.58203125
2301,-0.69140625,0.5078125,-0.578125
2302,-0.6953125,0.51953125,-0.58203125
2303,-0.6875,0.515625,-0.578125
2304,-0.68359375,0.5078125,-0.578125
2305,-0.6875,0.5078125,-0.5625
2306,-0.6796875,0.5234375,-0.55859375
2307,-0.6953125,0.5078125,-0.58984375
2308,-0.66796875,0.5,-0.5703125
2309,-0.703125,0.5,-0.5859375
2310,-0.65625,0.53515625,-0.57421875
2311,-0.69140625,0.50390625,-0.5625
2312,-0.67578125,0.50390625,-0.5703125
2313,-0.68359375,0.515625,-0.57421875
2314,-0.69921875,0.5078125,-0.55859375
2315,-0.69140625,0.51171875,-0.5625
2316,-0.6875,0.515625,-0.57421875
2317,-0.6875,0.515625,-0.578125
2318,-0.69921875,0.515625,-0.59765625
2319,-0.69921875,0.50390625,-0.5703125
2320,-0.64453125,0.5078125,-0.56640625
2321,-0.68359375,0.515625,-0.56640625
2322,-0.6953125,0.51171875,-0.578125
2323,-0.6953125,0.51953125,-0.5625
2324,-0.6875,0.51171875,-0.57421875
2325,-0.6953125,0.5234375,-0.56640625
2326,-0.6875,0.52734375,-0.5703125
2327,-0.68359375,0.5234375,-0.55859375
2328,-0.6875,0.51953125,-0.58203125
2329,-0.68359375,0.5234375,-0.56640625
2330,-0.6875,0.51171875,-0.57421875
2331,-0.6953125,0.5546875,-0.57421875
2332,-0.6875,0.515625,-0.56640625
2333,-0.69140625,0.52734375,-0.578125
2334,-0.6875,0.515625,-0.5703125
2335,-0.69140625,0.51953125,-0.58203125
2336,-0.6875,0.515625,-0.56640625
2337,-0.69140625,0.515625,-0.55078125
2338,-0.6796875,0.5078125,-0.578125
2339,-0.66796875,0.5078125,-0.57421875
2340,-0.6875,0.515625,-0.55859375
2341,-0.66796875,0.51171875,-0.55078125
2342,-0.703125,0.5234375,-0.57421875
2343,-0.671875,0.5078125,-0.578125
2344,-0.68359375,0.515625,-0.56640625
2345,-0.6796875,0.51953125,-0.56640625
2346,-0.6796875,0.5078125,-0.578125
2347,-0.6953125,0.51171875,-0.58984375
2348,-0.69140625,0.51953125,-0.5703125
2349,-0.68359375,0.51953125,-0.5625
2350,-0.69921875,0.515625,-0.59765625
2351,-0.69921875,0.515625,-0.5625
2352,-0.68359375,0.51171875,-0.5625
2353,-0.68359375,0.5,-0.59375
2354,-0.69140625,0.51953125,-0.56640625
2355,-0.6875,0.51171875,-0.57421875
2356,-0.69140625,0.51171875,-0.56640625
2357,-0.6875,0.5234375,-0.56640625
2358,-0.6875,0.50390625,-0.57421875
2359,-0.6953125,0.515625,-0.58203125
2360,-0.69140625,0.515625,-0.578125
2361,-0.6875,0.5,-0.5859375
2362,-0.6953125,0.5234375,-0.5625
2363,-0.6875,0.51953125,-0.57421875
2364,-0.69140625,0.49609375,-0.578125
2365,-0.703125,0.51953125,-0.57421875
2366,-0.69921875,0.5078125,-0.5703125
2367,-0.703125,0.5078125,-0.55859375
2368,-0.6875,0.50390625,-0.5703125
2369,-0.6875,0.5,-0.55859375
2370,-0.69140625,0.5,-0.57421875
2371,-0.69140625,0.5078125,-0.55078125
2372,-0.69140625,0.5,-0.53515625
2373,-0.6875,0.49609375,-0.55859375
2374,-0.69140625,0.4921875,-0.54296875
2375,-0.67578125,0.49609375,-0.5390625
2376,-0.70703125,0.4921875,-0.53515625
2377,-0.7109375,0.484375,-0.55078125
2378,-0.72265625,0.453125,-0.5546875
2379,-0.7265625,0.4609375,-0.56640625
2380,-0.74609375,0.4140625,-0.54296875
2381,-0.76171875,0.4140625,-0.546875
2382,-0.76953125,0.4140625,-0.546875
2383,-0.75,0.4140625,-0.55859375
2384,-0.74609375,0.4609375,-0.578125
2385,-0.73046875,0.50390625,-0.62109375
2386,-0.703125,0.5390625,-0.62109375
2387,-0.70703125,0.57421875,-0.6171875
2388,-0.6796875,0.609375,-0.625
2389,-0.66796875,0.6171875,-0.609375
2390,-0.640625,0.6484375,-0.625
2391,-0.6328125,0.6328125,-0.609375
2392,-0.6328125,0.5859375,-0.58984375
2393,-0.6484375,0.5625,-0.5859375
2394,-0.66015625,0.53125,-0.56640625
2395,-0.6640625,0.51171875,-0.58203125
2396,-0.6953125,0.51171875,-0.578125
2397,-0.69140625,0.51953125,-0.58984375
2398,-0.6796875,0.53125,-0.57421875
2399,-0.6875,0.51953125,-0.58203125
2400,-0.67578125,0.5078125,-0.57421875
2401,-0.6640625,0.5078125,-0.546875
2402,-0.6640625,0.5078125,-0.51953125
2403,-0.6640625,0.484375,-0.515625
2404,-0.66015625,0.484375,-0.51171875
2405,-0.66796875,0.44921875,-0.50390625
2406,-0.6875,0.46875,-0.50390625
2407,-0.70703125,0.4765625,-0.53125
2408,-0.70703125,0.46484375,-0.5546875
2409,-0.70703125,0.48046875,-0.54296875
2410,-0.70703125,0.484375,-0.54296875
2411,-0.69921875,0.484375,-0.54296875
2412,-0.69140625,0.5,-0.54296875
2413,-0.6953125,0.5078125,-0.54296875
2414,-0.69140625,0.50390625,-0.5390625
2415,-0.703125,0.5,-0.5390625
2416,-0.703125,0.5078125,-0.55078125
2417,-0.73046875,0.515625,-0.57421875
2418,-0.7265625,0.52734375,-0.58203125
2419,-0.6953125,0.50390625,-0.55859375
2420,-0.73046875,0.5078125,-0.578125
2421,-0.73828125,0.51171875,-0.58984375
2422,-0.72265625,0.50390625,-0.5859375
2423,-0.73046875,0.49609375,-0.5859375
2424,-0.734375,0.515625,-0.609375
2425,-0.72265625,0.48828125,-0.59375
2426,-0.7265625,0.5,-0.578125
2427,-0.71875,0.48046875,-0.58984375
2428,-0.70703125,0.48828125,-0.5859375
2429,-0.73046875,0.4921875,-0.578125
2430,-0.7109375,0.49609375,-0.58984375
2431,-0.72265625,0.484375,-0.58984375
2432,-0.71484375,0.484375,-0.58203125
2433,-0.7109375,0.4921875,-0.57421875
2434,-0.72265625,0.5,-0.5625
2435,-0.71875,0.5,-0.5703125
2436,-0.72265625,0.49609375,-0.56640625
2437,-0.72265625,0.49609375,-0.5625
2438,-0.73046875,0.5078125,-0.5625
2439,-0.72265625,0.4921875,-0.56640625
2440,-0.71875,0.48046875,-0.5546875
2441,-0.734375,0.48828125,-0.546875
2442,-0.71875,0.49609375,-0.53125
2443,-0.71484375,0.49609375,-0.54296875
2444,-0.71875,0.49609375,-0.5390625
2445,-0.71875,0.49609375,-0.5390625
2446,-0.7109375,0.4921875,-0.55078125
2447,-0.7109375,0.484375,-0.52734375
2448,-0.70703125,0.4921875,-0.5390625
2449,-0.72265625,0.49609375,-0.53515625
2450,-0.7265625,0.48828125,-0.5546875
2451,-0.6953125,0.51171875,-0.5703125
2452,-0.71875,0.50390625,-0.54296875
2453,-0.703125,0.5,-0.546875
2454,-0.703125,0.5,-0.53515625
2455,-0.69140625,0.49609375,-0.5390625
2456,-0.70703125,0.4921875,-0.54296875
2457,-0.6953125,0.48828125,-0.52734375
2458,-0.6875,0.48046875,-0.53125
2459,-0.6953125,0.48828125,-0.5234375
2460,-0.68359375,0.49609375,-0.53125
2461,-0.6875,0.48828125,-0.51171875
2462,-0.70703125,0.4921875,-0.53125
2463,-0.69140625,0.5,-0.5390625
2464,-0.68359375,0.49609375,-0.54296875
2465,-0.69921875,0.515625,-0.54296875
2466,-0.69140625,0.51171875,-0.55078125
2467,-0.703125,0.5234375,-0.5546875
2468,-0.69921875,0.51953125,-0.578125
2469,-0.703125,0.52734375,-0.578125
2470,-0.70703125,0.515625,-0.55078125
2471,-0.69921875,0.5234375,-0.55859375
2472,-0.69921875,0.53515625,-0.5546875
2473,-0.6796875,0.5234375,-0.5625
2474,-0.69921875,0.53125,-0.546875
2475,-0.7109375,0.5390625,-0.5703125
2476,-0.71484375,0.515625,-0.546875
2477,-0.72265625,0.52734375,-0.546875
2478,-0.70703125,0.51953125,-0.54296875
2479,-0.7109375,0.51171875,-0.5390625
2480,-0.71875,0.50390625,-0.54296875
2481,-0.6953125,0.51171875,-0.546875
2482,-0.71875,0.5078125,-0.55078125
2483,-0.70703125,0.5234375,-0.55078125
2484,-0.7109375,0.51171875,-0.53515625
2485,-0.71484375,0.5234375,-0.53515625
2486,-0.70703125,0.5078125,-0.54296875
2487,-0.72265625,0.5234375,-0.546875
2488,-0.71875,0.51171875,-0.5390625
2489,-0.7109375,0.5078125,-0.55859375
2490,-0.72265625,0.51953125,-0.53515625
2491,-0.70703125,0.50390625,-0.53515625
2492,-0.72265625,0.50390625,-0.53515625
2493,-0.71875,0.50390625,-0.53515625
2494,-0.70703125,0.5078125,-0.53515625
2495,-0.71875,0.49609375,-0.53515625
2496,-0.71484375,0.49609375,-0.53125
2497,-0.7265625,0.4921875,-0.53125
2498,-0.71875,0.484375,-0.53515625
2499,-0.734375,0.4921875,-0.53125
2500,-0.71875,0.50390625,-0.53515625
2501,-0.7265625,0.5078125,-0.53125
2502,-0.71484375,0.48828125,-0.54296875
2503,-0.71875,0.50390625,-0.54296875
2504,-0.71484375,0.49609375,-0.54296875
2505,-0.72265625,0.5078125,-0.55078125
2506,-0.7265625,0.5234375,-0.5234375
2507,-0.70703125,0.50390625,-0.55078125
2508,-0.70703125,0.5,-0.5390625
2509,-0.7109375,0.5,-0.5625
2510,-0.71875,0.49609375,-0.546875
2511,-0.72265625,0.49609375,-0.56640625
2512,-0.72265625,0.50390625,-0.55078125
2513,-0.7265625,0.50390625,-0.56640625
2514,-0.7109375,0.5078125,-0.5546875
2515,-0.72265625,0.5,-0.56640625
2516,-0.71484375,0.49609375,-0.578125
2517,-0.734375,0.4921875,-0.58203125
2518,-0.70703125,0.50390625,-0.55859375
2519,-0.71484375,0.5078125,-0.55859375
2520,-0.70703125,0.5,-0.5546875
2521,-0.71484375,0.5078125,-0.5546875
2522,-0.7109375,0.49609375,-0.5625
2523,-0.71875,0.5,-0.56640625
2524,-0.703125,0.51171875,-0.56640625
2525,-0.71484375,0.5,-0.5625
2526,-0.7109375,0.5,-0.55859375
2527,-0.72265625,0.4921875,-0.5546875
2528,-0.72265625,0.5078125,-0.56640625
2529,-0.71875,0.5078125,-0.5546875
2530,-0.7109375,0.50390625,-0.55078125
2531,-0.71484375,0.5,-0.55078125
2532,-0.70703125,0.5,-0.5546875
2533,-0.7109375,0.51171875,-0.5390625
2534,-0.6953125,0.5078125,-0.54296875
2535,-0.69140625,0.51171875,-0.55078125
2536,-0.71484375,0.50390625,-0.5546875
2537,-0.71875,0.50390625,-0.56640625
2538,-0.71875,0.5234375,-0.55859375
2539,-0.7109375,0.5078125,-0.55859375
2540,-0.70703125,0.51171875,-0.55078125
2541,-0.71484375,0.5234375,-0.55859375
2542,-0.70703125,0.51953125,-0.546875
2543,-0.7109375,0.51171875,-0.55859375
2544,-0.6953125,0.5,-0.5546875
2545,-0.70703125,0.50390625,-0.54296875
2546,-0.70703125,0.5078125,-0.5390625
2547,-0.7109375,0.50390625,-0.53515625
2548,-0.703125,0.5078125,-0.5546875
2549,-0.71875,0.49609375,-0.54296875
2550,-0.7109375,0.50390625,-0.546875
2551,-0.69921875,0.5078125,-0.5390625
2552,-0.69921875,0.515625,-0.546875
2553,-0.71484375,0.5234375,-0.55859375
2554,-0.71484375,0.515625,-0.54296875
2555,-0.7109375,0.51171875,-0.5390625
2556,-0.71875,0.5078125,-0.54296875
2557,-0.70703125,0.5078125,-0.53515625
2558,-0.73046875,0.51953125,-0.54296875
2559,-0.7109375,0.5078125,-0.5390625
2560,-0.7109375,0.50390625,-0.55859375
2561,-0.70703125,0.51171875,-0.5390625
2562,-0.703125,0.50390625,-0.5390625
2563,-0.70703125,0.5,-0.546875
2564,-0.7109375,0.515625,-0.55078125
2565,-0.71484375,0.51953125,-0.54296875
2566,-0.7109375,0.5234375,-0.5390625
2567,-0.70703125,0.515625,-0.55078125
2568,-0.7109375,0.515625,-0.55078125
2569,-0.7109375,0.52734375,-0.56640625
2570,-0.70703125,0.5078125,-0.54296875
2571,-0.703125,0.4921875,-0.56640625
2572,-0.7109375,0.51171875,-0.55078125
2573,-0.703125,0.5078125,-0.55078125
2574,-0.71484375,0.51171875,-0.55859375
2575,-0.703125,0.5078125,-0.56640625
2576,-0.71875,0.515625,-0.5390625
2577,-0.71484375,0.50390625,-0.5546875
2578,-0.70703125,0.49609375,-0.54296875
2579,-0.71875,0.50390625,-0.546875
2580,-0.69921875,0.50390625,-0.55078125
2581,-0.703125,0.51171875,-0.54296875
2582,-0.7109375,0.51953125,-0.5703125
2583,-0.71875,0.52734375,-0.55859375
2584,-0.69921875,0.515625,-0.54296875
2585,-0.69921875,0.50390625,-0.546875
2586,-0.703125,0.5078125,-0.53515625
2587,-0.7109375,0.5,-0.5546875
2588,-0.703125,0.515625,-0.5546875
2589,-0.6953125,0.50390625,-0.55078125
2590,-0.70703125,0.51953125,-0.5390625
2591,-0.70703125,0.51171875,-0.5546875
2592,-0.70703125,0.51171875,-0.55078125
2593,-0.69140625,0.52734375,-0.57421875
2594,-0.70703125,0.51171875,-0.546875
2595,-0.703125,0.5,-0.5546875
2596,-0.70703125,0.51953125,-0.57421875
2597,-0.70703125,0.515625,-0.5625
2598,-0.7109375,0.51171875,-0.5625
2599,-0.71875,0.51171875,-0.5703125
2600,-0.703125,0.5078125,-0.54296875
2601,-0.7109375,0.515625,-0.546875
2602,-0.70703125,0.50390625,-0.546875
2603,-0.69921875,0.515625,-0.53125
2604,-0.70703125,0.50390625,-0.54296875
2605,-0.703125,0.5,-0.55859375
2606,-0.7109375,0.5,-0.55859375
2607,-0.703125,0.5,-0.54296875
2608,-0.69140625,0.49609375,-0.54296875
2609,-0.69921875,0.5078125,-0.5390625
2610,-0.69921875,0.5,-0.53515625
2611,-0.703125,0.51171875,-0.5390625
2612,-0.7109375,0.51171875,-0.54296875
2613,-0.7109375,0.51171875,-0.53125
2614,-0.7109375,0.51953125,-0.5546875
2615,-0.7265625,0.51171875,-0.53515625
2616,-0.7109375,0.52734375,-0.56640625
2617,-0.72265625,0.51953125,-0.5703125
2618,-0.703125,0.515625,-0.58203125
2619,-0.70703125,0.52734375,-0.57421875
2620,-0.69921875,0.5234375,-0.5703125
2621,-0.72265625,0.52734375,-0.58203125
2622,-0.6953125,0.51953125,-0.58203125
2623,-0.72265625,0.51953125,-0.57421875
2624,-0.6875,0.5078125,-0.55859375
2625,-0.7109375,0.5078125,-0.578125
2626,-0.70703125,0.515625,-0.5625
2627,-0.6953125,0.50390625,-0.55078125
2628,-0.6953125,0.5078125,-0.55859375
2629,-0.703125,0.51171875,-0.55078125
2630,-0.69140625,0.50390625,-0.546875
2631,-0.69921875,0.51171875,-0.5390625
2632,-0.69921875,0.50390625,-0.5625
2633,-0.7109375,0.52734375,-0.546875
2634,-0.6953125,0.50390625,-0.5546875
2635,-0.68359375,0.5078125,-0.55859375
2636,-0.71875,0.51171875,-0.5546875
2637,-0.6953125,0.5078125,-0.5546875
2638,-0.69140625,0.5078125,-0.5625
2639,-0.703125,0.50390625,-0.5625
2640,-0.70703125,0.5078125,-0.55078125
2641,-0.7109375,0.51953125,-0.55078125
2642,-0.70703125,0.5,-0.5390625
2643,-0.70703125,0.50390625,-0.546875
2644,-0.7109375,0.51171875,-0.5703125
2645,-0.6875,0.51171875,-0.55078125
2646,-0.6875,0.50390625,-0.54296875
2647,-0.69921875,0.5078125,-0.5390625
2648,-0.69921875,0.5,-0.55859375
2649,-0.69921875,0.50390625,-0.546875
2650,-0.6953125,0.5,-0.5546875
2651,-0.6953125,0.5,-0.55078125
2652,-0.70703125,0.51171875,-0.546875
2653,-0.70703125,0.51171875,-0.5546875
2654,-0.7109375,0.50390625,-0.55859375
2655,-0.7109375,0.51171875,-0.5546875
2656,-0.703125,0.50390625,-0.5703125
2657,-0.7109375,0.515625,-0.57421875
2658,-0.703125,0.49609375,-0.5625
2659,-0.70703125,0.515625,-0.55859375
2660,-0.70703125,0.515625,-0.56640625
2661,-0.7109375,0.50390625,-0.5546875
2662,-0.7109375,0.50390625,-0.55859375
2663,-0.70703125,0.50390625,-0.5625
2664,-0.70703125,0.515625,-0.55859375
2665,-0.703125,0.50390625,-0.5703125
2666,-0.69921875,0.5078125,-0.5546875
2667,-0.6953125,0.5,-0.55859375
2668,-0.70703125,0.515625,-0.55078125
2669,-0.72265625,0.51171875,-0.546875
2670,-0.6953125,0.50390625,-0.546875
2671,-0.69921875,0.51171875,-0.5625
2672,-0.70703125,0.50390625,-0.5625
2673,-0.703125,0.5,-0.5546875
2674,-0.70703125,0.50390625,-0.5625
2675,-0.703125,0.50390625,-0.55078125
2676,-0.71875,0.51953125,-0.56640625
2677,-0.73046875,0.5234375,-0.55859375
2678,-0.7109375,0.515625,-0.55078125
2679,-0.7109375,0.51171875,-0.5625
2680,-0.6953125,0.5,-0.578125
2681,-0.703125,0.50390625,-0.5546875
2682,-0.69140625,0.51171875,-0.546875
2683,-0.69921875,0.50390625,-0.5546875
2684,-0.69921875,0.5078125,-0.54296875
2685,-0.70703125,0.51171875,-0.55078125
2686,-0.703125,0.51171875,-0.546875
2687,-0.7109375,0.515625,-0.55078125
2688,-0.6953125,0.5,-0.5546875
2689,-0.71484375,0.5,-0.55078125
2690,-0.71484375,0.5078125,-0.56640625
2691,-0.70703125,0.49609375,-0.5625
2692,-0.703125,0.5078125,-0.55859375
2693,-0.71875,0.50390625,-0.5546875
2694,-0.72265625,0.5078125,-0.546875
2695,-0.703125,0.5,-0.5546875
2696,-0.71484375,0.51171875,-0.5546875
2697,-0.7109375,0.5078125,-0.56640625
2698,-0.69921875,0.50390625,-0.54296875
2699,-0.69140625,0.50390625,-0.546875
2700,-0.703125,0.51171875,-0.56640625
2701,-0.6875,0.5078125,-0.5546875
2702,-0.72265625,0.51171875,-0.56640625
2703,-0.703125,0.5234375,-0.55078125
2704,-0.70703125,0.51171875,-0.55078125
2705,-0.703125,0.51171875,-0.55859375
2706,-0.7109375,0.50390625,-0.55859375
2707,-0.703125,0.50390625,-0.546875
2708,-0.69921875,0.50390625,-0.55078125
2709,-0.71484375,0.5078125,-0.56640625
2710,-0.71875,0.50390625,-0.55859375
2711,-0.703125,0.5,-0.5625
2712,-0.70703125,0.50390625,-0.5546875
2713,-0.69921875,0.51171875,-0.5625
2714,-0.7109375,0.50390625,-0.55859375
2715,-0.703125,0.5,-0.5625
2716,-0.7109375,0.50390625,-0.56640625
2717,-0.7109375,0.51171875,-0.55078125
2718,-0.7109375,0.51171875,-0.5625
2719,-0.6953125,0.50390625,-0.55859375
2720,-0.7109375,0.50390625,-0.5625
2721,-0.7109375,0.50390625,-0.5390625
2722,-0.7109375,0.5078125,-0.55859375
2723,-0.70703125,0.50390625,-0.57421875
2724,-0.71875,0.5078125,-0.58203125
2725,-0.7109375,0.50390625,-0.55078125
2726,-0.71484375,0.5,-0.55859375
2727,-0.70703125,0.5078125,-0.55859375
2728,-0.71484375,0.5,-0.5546875
2729,-0.71484375,0.5078125,-0.55859375
2730,-0.72265625,0.5078125,-0.5625
2731,-0.70703125,0.5078125,-0.5625
2732,-0.703125,0.50390625,-0.53515625
2733,-0.703125,0.50390625,-0.55859375
2734,-0.7265625,0.49609375,-0.55859375
2735,-0.71875,0.50390625,-0.5546875
2736,-0.71484375,0.49609375,-0.55078125
2737,-0.7109375,0.5,-0.546875
2738,-0.71484375,0.51171875,-0.5625
2739,-0.7109375,0.5,-0.55078125
2740,-0.7109375,0.5,-0.54296875
2741,-0.7109375,0.5,-0.5546875
2742,-0.7109375,0.51171875,-0.55078125
2743,-0.69921875,0.4921875,-0.5390625
2744,-0.7265625,0.50390625,-0.5703125
2745,-0.7109375,0.4921875,-0.54296875
2746,-0.70703125,0.4765625,-0.55078125
2747,-0.71875,0.50390625,-0.55859375
2748,-0.7109375,0.50390625,-0.5625
2749,-0.70703125,0.49609375,-0.55078125
2750,-0.703125,0.5,-0.546875
2751,-0.70703125,0.4921875,-0.55078125
2752,-0.70703125,0.49609375,-0.54296875
2753,-0.703125,0.49609375,-0.546875
2754,-0.71875,0.49609375,-0.5625
2755,-0.71875,0.5,-0.5390625
2756,-0.703125,0.49609375,-0.55859375
2757,-0.71484375,0.50390625,-0.55078125
2758,-0.71484375,0.5078125,-0.55078125
2759,-0.71875,0.5234375,-0.55859375
2760,-0.71484375,0.5,-0.55078125
2761,-0.71875,0.5,-0.546875
2762,-0.70703125,0.50390625,-0.546875
2763,-0.71484375,0.5078125,-0.5546875
2764,-0.71484375,0.50390625,-0.55078125
2765,-0.71875,0.5078125,-0.55078125
2766,-0.71875,0.50390625,-0.55078125
2767,-0.73046875,0.52734375,-0.5546875
2768,-0.7109375,0.5078125,-0.5390625
2769,-0.72265625,0.50390625,-0.55078125
2770,-0.703125,0.5078125,-0.55859375
2771,-0.70703125,0.50390625,-0.55078125
2772,-0.70703125,0.50390625,-0.5546875
2773,-0.71484375,0.50390625,-0.55859375
2774,-0.7109375,0.51171875,-0.546875
2775,-0.6953125,0.4921875,-0.55078125
2776,-0.703125,0.49609375,-0.5546875
2777,-0.7109375,0.5078125,-0.54296875
2778,-0.71875,0.50390625,-0.56640625
2779,-0.703125,0.50390625,-0.5546875
2780,-0.703125,0.50390625,-0.546875
2781,-0.7109375,0.515625,-0.5546875
2782,-0.703125,0.51171875,-0.55859375
2783,-0.71875,0.51171875,-0.5546875
2784,-0.7109375,0.5078125,-0.5546875
2785,-0.703125,0.4921875,-0.54296875
2786,-0.70703125,0.5078125,-0.55859375
2787,-0.7109375,0.5078125,-0.54296875
2788,-0.703125,0.5,-0.5546875
2789,-0.7109375,0.5,-0.56640625
2790,-0.703125,0.5,-0.546875
2791,-0.703125,0.51171875,-0.5546875
2792,-0.69921875,0.5,-0.56640625
2793,-0.703125,0.5078125,-0.546875
2794,-0.703125,0.5078125,-0.5625
2795,-0.69921875,0.5,-0.55078125
2796,-0.6953125,0.50390625,-0.55078125
2797,-0.71484375,0.51953125,-0.55078125
2798,-0.6953125,0.5078125,-0.54296875
2799,-0.69140625,0.50390625,-0.55078125
2800,-0.7109375,0.484375,-0.58984375
2801,-0.69921875,0.515625,-0.5625
2802,-0.69921875,0.5078125,-0.5546875
2803,-0.6953125,0.5,-0.57421875
2804,-0.6953125,0.51953125,-0.5625
2805,-0.7109375,0.515625,-0.5625
2806,-0.7109375,0.51171875,-0.5546875
2807,-0.69140625,0.51171875,-0.5546875
2808,-0.69921875,0.50390625,-0.546875
2809,-0.6953125,0.5,-0.5703125
2810,-0.71484375,0.515625,-0.5625
2811,-0.70703125,0.4921875,-0.5546875
2812,-0.69140625,0.50390625,-0.5625
2813,-0.703125,0.5078125,-0.5546875
2814,-0.69921875,0.50390625,-0.5546875
2815,-0.71875,0.50390625,-0.5546875
2816,-0.703125,0.5,-0.57421875
2817,-0.7109375,0.5,-0.5546875
2818,-0.69140625,0.5,-0.5546875
2819,-0.70703125,0.50390625,-0.5625
2820,-0.7109375,0.515625,-0.56640625
2821,-0.703125,0.5078125,-0.5625
2822,-0.69140625,0.5,-0.5546875
2823,-0.70703125,0.5078125,-0.56640625
2824,-0.70703125,0.51171875,-0.5625
2825,-0.69921875,0.50390625,-0.5625
2826,-0.6953125,0.50390625,-0.5625
2827,-0.69140625,0.5,-0.55859375
2828,-0.7109375,0.50390625,-0.5625
2829,-0.71875,0.5234375,-0.578125
2830,-0.70703125,0.5078125,-0.55078125
2831,-0.71875,0.51171875,-0.55859375
2832,-0.69921875,0.50390625,-0.5546875
2833,-0.6953125,0.5078125,-0.56640625
2834,-0.6953125,0.5078125,-0.5703125
2835,-0.6953125,0.51171875,-0.56640625
2836,-0.69921875,0.5078125,-0.5546875
2837,-0.70703125,0.5078125,-0.57421875
2838,-0.703125,0.51171875,-0.5703125
2839,-0.69921875,0.50390625,-0.56640625
2840,-0.69921875,0.5078125,-0.5625
2841,-0.69140625,0.50390625,-0.5625
2842,-0.69921875,0.51171875,-0.5625
2843,-0.71875,0.50390625,-0.55078125
2844,-0.703125,0.50390625,-0.56640625
2845,-0.70703125,0.51171875,-0.578125
2846,-0.70703125,0.51953125,-0.5703125
2847,-0.69921875,0.52734375,-0.5703125
2848,-0.6953125,0.5078125,-0.56640625
2849,-0.6953125,0.5078125,-0.56640625
2850,-0.6875,0.50390625,-0.5546875
2851,-0.69921875,0.515625,-0.56640625
2852,-0.6875,0.50390625,-0.56640625
2853,-0.69921875,0.51953125,-0.5625
2854,-0.68359375,0.5078125,-0.55078125
2855,-0.69921875,0.5234375,-0.5546875
2856,-0.703125,0.5078125,-0.55859375
2857,-0.69140625,0.5078125,-0.55859375
2858,-0.69140625,0.50390625,-0.5546875
2859,-0.69140625,0.515625,-0.57421875
2860,-0.69921875,0.515625,-0.55859375
2861,-0.6953125,0.5,-0.5546875
2862,-0.69921875,0.5078125,-0.56640625
2863,-0.703125,0.5078125,-0.5546875
2864,-0.68359375,0.5,-0.57421875
2865,-0.703125,0.5,-0.546875
2866,-0.68359375,0.5078125,-0.5546875
2867,-0.68359375,0.50390625,-0.5625
2868,-0.69921875,0.515625,-0.55078125
2869,-0.6796875,0.50390625,-0.55859375
2870,-0.6796875,0.50390625,-0.5703125
2871,-0.6875,0.5078125,-0.55078125
2872,-0.70703125,0.515625,-0.56640625
2873,-0.69921875,0.5,-0.55859375
2874,-0.70703125,0.5078125,-0.5625
2875,-0.6875,0.50390625,-0.5859375
2876,-0.671875,0.515625,-0.59375
2877,-0.6953125,0.51171875,-0.5859375
2878,-0.69921875,0.51171875,-0.5859375
2879,-0.69921875,0.51171875,-0.59375
2880,-0.69921875,0.51953125,-0.59375
2881,-0.70703125,0.5,-0.5703125
2882,-0.6875,0.50390625,-0.6015625
2883,-0.69140625,0.515625,-0.59375
2884,-0.6953125,0.5234375,-0.59375
2885,-0.69140625,0.515625,-0.56640625
2886,-0.68359375,0.5078125,-0.55859375
2887,-0.6953125,0.51953125,-0.59375
2888,-0.69921875,0.51953125,-0.57421875
2889,-0.69140625,0.50390625,-0.55859375
2890,-0.6953125,0.5078125,-0.5859375
2891,-0.6953125,0.51171875,-0.57421875
2892,-0.69921875,0.51171875,-0.58203125
2893,-0.69921875,0.51171875,-0.59765625
2894,-0.70703125,0.51171875,-0.5859375
2895,-0.6875,0.51171875,-0.5859375
2896,-0.69140625,0.51171875,-0.5859375
2897,-0.703125,0.51171875,-0.578125
2898,-0.67578125,0.50390625,-0.5625
2899,-0.68359375,0.51171875,-0.55859375
2900,-0.6875,0.49609375,-0.56640625
2901,-0.6796875,0.51171875,-0.55859375
2902,-0.69140625,0.50390625,-0.55859375
2903,-0.68359375,0.5078125,-0.56640625
2904,-0.6875,0.50390625,-0.5625
2905,-0.6796875,0.5078125,-0.55078125
2906,-0.69921875,0.5078125,-0.5703125
2907,-0.671875,0.50390625,-0.55859375
2908,-0.69140625,0.51953125,-0.56640625
2909,-0.6796875,0.5078125,-0.56640625
2910,-0.67578125,0.5078125,-0.578125
2911,-0.68359375,0.515625,-0.58203125
2912,-0.68359375,0.5234375,-0.58203125
2913,-0.6875,0.52734375,-0.58203125
2914,-0.69140625,0.5390625,-0.59375
2915,-0.6875,0.53125,-0.58203125
2916,-0.68359375,0.52734375,-0.5859375
2917,-0.6796875,0.5234375,-0.58984375
2918,-0.68359375,0.515625,-0.58203125
2919,-0.67578125,0.51953125,-0.5859375
2920,-0.67578125,0.53125,-0.61328125
2921,-0.671875,0.5234375,-0.56640625
2922,-0.67578125,0.5234375,-0.58984375
2923,-0.66796875,0.51953125,-0.578125
2924,-0.6796875,0.5234375,-0.5859375
2925,-0.69140625,0.51953125,-0.578125
2926,-0.68359375,0.51953125,-0.5703125
2927,-0.6953125,0.515625,-0.578125
2928,-0.6640625,0.51953125,-0.5859375
2929,-0.67578125,0.52734375,-0.578125
2930,-0.69140625,0.54296875,-0.578125
2931,-0.6796875,0.55859375,-0.57421875
2932,-0.67578125,0.53125,-0.578125
2933,-0.6796875,0.515625,-0.578125
2934,-0.671875,0.51953125,-0.59375
2935,-0.68359375,0.5234375,-0.578125
2936,-0.6796875,0.51171875,-0.59375
2937,-0.66796875,0.52734375,-0.5859375
2938,-0.6953125,0.51953125,-0.58984375
2939,-0.67578125,0.515625,-0.58984375
2940,-0.66796875,0.5078125,-0.58984375
2941,-0.65625,0.52734375,-0.5859375
2942,-0.671875,0.51171875,-0.56640625
2943,-0.66796875,0.50390625,-0.56640625
2944,-0.67578125,0.515625,-0.5859375
2945,-0.67578125,0.5234375,-0.578125
2946,-0.67578125,0.50390625,-0.5625
2947,-0.66796875,0.51171875,-0.5625
2948,-0.69140625,0.51171875,-0.5703125
2949,-0.67578125,0.50390625,-0.59375
2950,-0.66796875,0.515625,-0.5859375
2951,-0.6796875,0.5,-0.56640625
2952,-0.640625,0.50390625,-0.6015625
2953,-0.6875,0.51171875,-0.5703125
2954,-0.67578125,0.50390625,-0.5859375
2955,-0.6875,0.51171875,-0.58984375
2956,-0.6953125,0.52734375,-0.57421875
2957,-0.69140625,0.5078125,-0.5859375
2958,-0.6796875,0.5078125,-0.58203125
2959,-0.6875,0.50390625,-0.57421875
2960,-0.68359375,0.51171875,-0.59375
2961,-0.67578125,0.5078125,-0.578125
2962,-0.68359375,0.5078125,-0.59375
2963,-0.6875,0.52734375,-0.6015625
2964,-0.67578125,0.51171875,-0.578125
2965,-0.6875,0.515625,-0.58984375
2966,-0.6796875,0.51171875,-0.59375
2967,-0.6875,0.5,-0.58203125
2968,-0.6875,0.5234375,-0.58203125
2969,-0.6796875,0.515625,-0.5859375
2970,-0.66015625,0.50390625,-0.58203125
2971,-0.68359375,0.5078125,-0.5703125
2972,-0.6953125,0.53125,-0.5859375
2973,-0.67578125,0.5078125,-0.56640625
2974,-0.6875,0.50390625,-0.5546875
2975,-0.6875,0.515625,-0.5859375
2976,-0.69140625,0.5078125,-0.57421875
2977,-0.6875,0.51953125,-0.56640625
2978,-0.6875,0.515625,-0.57421875
2979,-0.6875,0.515625,-0.57421875
2980,-0.69140625,0.5234375,-0.5703125
2981,-0.67578125,0.51953125,-0.58984375
2982,-0.6796875,0.515625,-0.5625
2983,-0.6796875,0.5078125,-0.55859375
2984,-0.703125,0.515625,-0.5546875
2985,-0.6796875,0.52734375,-0.56640625
2986,-0.6875,0.51171875,-0.5703125
2987,-0.6953125,0.5078125,-0.5703125
2988,-0.6875,0.5078125,-0.578125
2989,-0.68359375,0.51171875,-0.56640625
2990,-0.6875,0.515625,-0.55859375
2991,-0.69140625,0.51171875,-0.5625
2992,-0.69140625,0.5078125,-0.55859375
2993,-0.6796875,0.515625,-0.58203125
2994,-0.6875,0.51171875,-0.56640625
2995,-0.6953125,0.51171875,-0.55859375
2996,-0.703125,0.50390625,-0.5703125
2997,-0.69921875,0.515625,-0.55859375
2998,-0.68359375,0.50390625,-0.56640625
2999,-0.68359375,0.5078125,-0.5625
