,accelerometerAccelerationX(G),accelerometerAccelerationY(G),accelerometerAccelerationZ(G)
0,-0.0390625,-1.00390625,-0.33984375
1,-0.03515625,-1.015625,-0.31640625
2,-0.03515625,-1.0,-0.29296875
3,-0.046875,-1.01171875,-0.3125
4,-0.046875,-1.0078125,-0.3046875
5,-0.046875,-1.015625,-0.3125
6,-0.04296875,-1.0078125,-0.3203125
7,-0.0546875,-1.0078125,-0.32421875
8,-0.05078125,-1.0,-0.3203125
9,-0.0390625,-1.01171875,-0.30078125
10,-0.0390625,-1.0078125,-0.3125
11,-0.0546875,-0.99609375,-0.3046875
12,-0.05859375,-0.99609375,-0.30859375
13,-0.04296875,-1.01171875,-0.296875
14,-0.04296875,-1.0,-0.2890625
15,-0.04296875,-0.9921875,-0.296875
16,-0.046875,-0.99609375,-0.3125
17,-0.046875,-1.0,-0.30859375
18,-0.0390625,-1.0,-0.3046875
19,-0.03515625,-1.0,-0.30859375
20,-0.05078125,-1.0,-0.30078125
21,-0.046875,-1.0,-0.3125
22,-0.02734375,-1.01171875,-0.3203125
23,-0.03515625,-1.0078125,-0.3125
24,-0.03515625,-1.01171875,-0.30078125
25,-0.046875,-1.01171875,-0.29296875
26,-0.0546875,-1.0078125,-0.328125
27,-0.046875,-1.00390625,-0.3046875
28,-0.03515625,-1.0078125,-0.3046875
29,-0.0390625,-1.0,-0.3125
30,-0.04296875,-1.0078125,-0.3125
31,-0.04296875,-1.015625,-0.3203125
32,-0.04296875,-1.0078125,-0.3203125
33,-0.0390625,-1.01171875,-0.3125
34,-0.0390625,-0.99609375,-0.3125
35,-0.05078125,-1.0078125,-0.30859375
36,-0.0546875,-1.0078125,-0.3125
37,-0.05859375,-1.03125,-0.34375
38,-0.0390625,-1.0078125,-0.3125
39,-0.04296875,-1.00390625,-0.32421875
40,-0.04296875,-1.00390625,-0.3203125
41,-0.0546875,-1.00390625,-0.3046875
42,-0.05078125,-1.0078125,-0.3125
43,-0.0546875,-1.0,-0.30859375
44,-0.0546875,-0.9921875,-0.30859375
45,-0.0546875,-1.00390625,-0.328125
46,-0.03515625,-1.01171875,-0.31640625
47,-0.03125,-1.0,-0.3203125
48,-0.0390625,-1.01171875,-0.30859375
49,-0.04296875,-1.0,-0.3125
50,-0.0546875,-1.00390625,-0.32421875
51,-0.046875,-1.00390625,-0.31640625
52,-0.05078125,-1.0,-0.30859375
53,-0.0546875,-1.01171875,-0.3125
54,-0.04296875,-1.00390625,-0.3203125
55,-0.046875,-1.00390625,-0.3203125
56,-0.03125,-1.0078125,-0.30859375
57,-0.046875,-0.98828125,-0.3125
58,-0.0546875,-0.99609375,-0.3125
59,-0.0390625,-1.0,-0.328125
60,-0.03515625,-1.01171875,-0.32421875
61,-0.02734375,-1.01171875,-0.3125
62,-0.05078125,-1.0,-0.3203125
63,-0.046875,-1.0,-0.3046875
64,-0.046875,-0.99609375,-0.3203125
65,-0.0390625,-1.00390625,-0.3046875
66,-0.04296875,-1.0078125,-0.32421875
67,-0.04296875,-1.00390625,-0.33984375
68,-0.04296875,-1.00390625,-0.3125
69,-0.01953125,-1.00390625,-0.2890625
70,-0.0390625,-1.01171875,-0.31640625
71,-0.04296875,-1.0,-0.3125
72,-0.03125,-1.00390625,-0.31640625
73,-0.0390625,-1.0,-0.33203125
74,-0.05078125,-0.99609375,-0.30859375
75,-0.05078125,-1.00390625,-0.33203125
76,-0.0390625,-1.00390625,-0.32421875
77,-0.05078125,-0.99609375,-0.328125
78,-0.04296875,-1.0078125,-0.3125
79,-0.0546875,-1.00390625,-0.296875
80,-0.04296875,-1.01171875,-0.3125
81,-0.05078125,-1.015625,-0.32421875
82,-0.0390625,-1.00390625,-0.3203125
83,-0.02734375,-1.01171875,-0.31640625
84,-0.04296875,-1.00390625,-0.328125
85,-0.0390625,-1.0078125,-0.32421875
86,-0.03125,-1.0,-0.3125
87,-0.0390625,-0.99609375,-0.3359375
88,-0.04296875,-1.0078125,-0.33203125
89,-0.03125,-1.0,-0.32421875
90,-0.03125,-0.984375,-0.34765625
91,-0.046875,-1.0,-0.31640625
92,-0.0390625,-1.00390625,-0.328125
93,-0.046875,-1.0,-0.3203125
94,-0.03125,-0.99609375,-0.31640625
95,-0.046875,-1.0,-0.32421875
96,-0.02734375,-1.00390625,-0.31640625
97,-0.0390625,-1.00390625,-0.32421875
98,-0.04296875,-0.99609375,-0.31640625
99,-0.04296875,-1.0,-0.328125
100,-0.04296875,-1.0078125,-0.32421875
101,-0.05078125,-1.015625,-0.328125
102,-0.03515625,-1.0078125,-0.3046875
103,-0.04296875,-1.00390625,-0.32421875
104,-0.046875,-1.0,-0.33203125
105,-0.046875,-1.00390625,-0.3125
106,-0.03515625,-1.0,-0.3125
107,-0.0390625,-1.0,-0.33984375
108,-0.0546875,-1.00390625,-0.3203125
109,-0.05078125,-1.0,-0.33984375
110,-0.0390625,-1.0,-0.30078125
111,-0.04296875,-0.99609375,-0.34375
112,-0.0390625,-1.00390625,-0.3125
113,-0.04296875,-1.0078125,-0.33203125
114,-0.0390625,-1.01171875,-0.3359375
115,-0.04296875,-0.99609375,-0.32421875
116,-0.04296875,-1.0078125,-0.32421875
117,-0.0390625,-1.0,-0.31640625
118,-0.03515625,-1.00390625,-0.34375
119,-0.0390625,-1.0,-0.328125
120,-0.0390625,-1.00390625,-0.32421875
121,-0.04296875,-0.99609375,-0.3046875
122,-0.03125,-1.00390625,-0.2890625
123,-0.05078125,-1.0,-0.31640625
124,-0.04296875,-1.00390625,-0.33984375
125,-0.05078125,-1.0,-0.32421875
126,-0.04296875,-1.00390625,-0.32421875
127,-0.046875,-1.00390625,-0.3203125
128,-0.046875,-1.0,-0.32421875
129,-0.04296875,-1.00390625,-0.3125
130,-0.03515625,-0.98828125,-0.30078125
131,-0.0390625,-1.00390625,-0.31640625
132,-0.0546875,-0.99609375,-0.32421875
133,-0.05859375,-1.015625,-0.328125
134,-0.046875,-1.0,-0.3203125
135,-0.04296875,-1.0,-0.3203125
136,-0.0390625,-1.0,-0.32421875
137,-0.02734375,-1.015625,-0.30859375
138,-0.04296875,-1.00390625,-0.31640625
139,-0.04296875,-1.00390625,-0.33203125
140,-0.03125,-1.00390625,-0.3203125
141,-0.03515625,-1.0,-0.32421875
142,-0.05859375,-1.0,-0.32421875
143,-0.04296875,-1.01953125,-0.3203125
144,-0.03125,-1.01171875,-0.30859375
145,-0.0390625,-1.0,-0.32421875
146,-0.0546875,-1.0,-0.328125
147,-0.04296875,-1.01171875,-0.31640625
148,-0.0390625,-1.0078125,-0.3125
149,-0.03515625,-1.01171875,-0.328125
150,-0.04296875,-1.0,-0.31640625
151,-0.046875,-1.00390625,-0.328125
152,-0.04296875,-0.99609375,-0.328125
153,-0.03515625,-0.99609375,-0.2890625
154,-0.0390625,-1.00390625,-0.35546875
155,-0.0390625,-1.00390625,-0.33203125
156,-0.046875,-0.98828125,-0.33203125
157,-0.04296875,-0.99609375,-0.33203125
158,-0.03515625,-1.01171875,-0.328125
159,-0.03515625,-1.0078125,-0.33984375
160,-0.0390625,-1.0,-0.32421875
161,-0.03515625,-1.00390625,-0.3203125
162,-0.03125,-1.00390625,-0.328125
163,-0.04296875,-1.0,-0.33984375
164,-0.0390625,-0.99609375,-0.3359375
165,-0.03515625,-1.01171875,-0.3125
166,-0.04296875,-1.0,-0.3203125
167,-0.0390625,-1.0,-0.33203125
168,-0.05078125,-0.99609375,-0.31640625
169,-0.03515625,-1.0,-0.3125
170,-0.046875,-1.0,-0.33203125
171,-0.03515625,-0.99609375,-0.3046875
172,-0.046875,-1.0,-0.31640625
173,-0.04296875,-1.01171875,-0.328125
174,-0.0390625,-1.00390625,-0.328125
175,-0.046875,-1.0078125,-0.33203125
176,-0.0546875,-1.0,-0.32421875
177,-0.04296875,-1.0078125,-0.3125
178,-0.0390625,-1.0078125,-0.3125
179,-0.03515625,-1.00390625,-0.3046875
180,-0.0390625,-1.0078125,-0.32421875
181,-0.046875,-1.00390625,-0.31640625
182,-0.03515625,-1.0,-0.3125
183,-0.03125,-1.00390625,-0.29296875
184,-0.03515625,-1.00390625,-0.31640625
185,-0.046875,-0.99609375,-0.32421875
186,-0.05078125,-0.9921875,-0.31640625
187,-0.03125,-1.0,-0.3203125
188,-0.04296875,-1.00390625,-0.31640625
189,-0.046875,-1.00390625,-0.3203125
190,-0.0390625,-1.0078125,-0.3203125
191,-0.0390625,-1.0,-0.3203125
192,-0.04296875,-0.9921875,-0.32421875
193,-0.03125,-1.00390625,-0.30078125
194,-0.04296875,-0.9921875,-0.30078125
195,-0.03515625,-1.0,-0.30078125
196,-0.03125,-0.99609375,-0.30859375
197,-0.0234375,-1.0,-0.296875
198,-0.03125,-1.00390625,-0.31640625
199,-0.0546875,-0.99609375,-0.3203125
200,-0.05078125,-1.0,-0.32421875
201,-0.04296875,-1.00390625,-0.32421875
202,-0.04296875,-1.00390625,-0.3203125
203,-0.0546875,-1.0078125,-0.33203125
204,-0.0390625,-1.00390625,-0.32421875
205,-0.04296875,-0.99609375,-0.3203125
206,-0.046875,-0.99609375,-0.328125
207,-0.02734375,-1.015625,-0.3203125
208,-0.0390625,-1.00390625,-0.33203125
209,-0.04296875,-1.0,-0.33203125
210,-0.046875,-1.00390625,-0.32421875
211,-0.04296875,-1.0,-0.32421875
212,-0.046875,-1.0078125,-0.328125
213,-0.046875,-1.0,-0.33203125
214,-0.0390625,-1.0,-0.32421875
215,-0.05078125,-1.0,-0.32421875
216,-0.046875,-1.0078125,-0.3203125
217,-0.04296875,-1.0078125,-0.328125
218,-0.0390625,-0.98046875,-0.33984375
219,-0.04296875,-1.00390625,-0.328125
220,-0.046875,-1.00390625,-0.328125
221,-0.05078125,-0.99609375,-0.31640625
222,-0.046875,-0.99609375,-0.328125
223,-0.05078125,-1.0,-0.32421875
224,-0.04296875,-1.0078125,-0.3203125
225,-0.0390625,-0.99609375,-0.2890625
226,-0.04296875,-1.0,-0.3359375
227,-0.046875,-1.00390625,-0.3359375
228,-0.0390625,-1.0078125,-0.3125
229,-0.0546875,-1.015625,-0.31640625
230,-0.05078125,-1.0,-0.33203125
231,-0.046875,-1.0,-0.328125
232,-0.05078125,-0.99609375,-0.32421875
233,-0.05078125,-1.0,-0.328125
234,-0.046875,-0.99609375,-0.33203125
235,-0.05078125,-1.0,-0.33984375
236,-0.0390625,-1.0,-0.32421875
237,-0.0390625,-1.0,-0.32421875
238,-0.05859375,-1.00390625,-0.32421875
239,-0.04296875,-0.99609375,-0.32421875
240,-0.05078125,-1.0,-0.31640625
241,-0.046875,-1.0,-0.31640625
242,-0.04296875,-1.0,-0.328125
243,-0.0390625,-1.0078125,-0.328125
244,-0.0390625,-1.00390625,-0.33203125
245,-0.046875,-1.00390625,-0.3359375
246,-0.03515625,-1.0,-0.328125
247,-0.03125,-1.01171875,-0.34375
248,-0.03515625,-1.0,-0.3359375
249,-0.046875,-1.0078125,-0.34765625
250,-0.046875,-1.0,-0.34765625
251,-0.046875,-1.0078125,-0.3203125
252,-0.0546875,-0.98828125,-0.328125
253,-0.04296875,-1.0,-0.33203125
254,-0.04296875,-1.0,-0.31640625
255,-0.046875,-1.00390625,-0.31640625
256,-0.0546875,-1.0,-0.30859375
257,-0.05078125,-1.00390625,-0.34375
258,-0.0390625,-1.00390625,-0.3046875
259,-0.05078125,-0.98828125,-0.328125
260,-0.03515625,-1.00390625,-0.32421875
261,-0.04296875,-1.00390625,-0.33203125
262,-0.046875,-1.0078125,-0.3203125
263,-0.03125,-1.01171875,-0.328125
264,-0.03125,-1.0,-0.33203125
265,-0.046875,-1.0,-0.328125
266,-0.046875,-1.0,-0.328125
267,-0.04296875,-1.01171875,-0.33203125
268,-0.04296875,-1.01171875,-0.3359375
269,-0.0390625,-1.0,-0.34765625
270,-0.0390625,-1.0,-0.31640625
271,-0.0234375,-1.0078125,-0.32421875
272,-0.04296875,-1.01171875,-0.328125
273,-0.0390625,-1.0078125,-0.3359375
274,-0.04296875,-1.0,-0.33984375
275,-0.05078125,-1.00390625,-0.31640625
276,-0.04296875,-1.0,-0.3359375
277,-0.0390625,-1.0078125,-0.31640625
278,-0.046875,-0.99609375,-0.3125
279,-0.0390625,-1.0078125,-0.328125
280,-0.03515625,-1.00390625,-0.32421875
281,-0.03125,-1.0078125,-0.31640625
282,-0.0390625,-1.0,-0.3359375
283,-0.03125,-1.0,-0.33203125
284,-0.03515625,-1.00390625,-0.328125
285,-0.04296875,-1.00390625,-0.33203125
286,-0.03125,-1.00390625,-0.3125
287,-0.0390625,-1.0,-0.328125
288,-0.046875,-0.99609375,-0.3359375
289,-0.046875,-0.99609375,-0.30859375
290,-0.046875,-1.0,-0.33203125
291,-0.046875,-1.0,-0.3125
292,-0.0390625,-1.015625,-0.3125
293,-0.04296875,-1.015625,-0.33203125
294,-0.046875,-1.0,-0.328125
295,-0.046875,-1.00390625,-0.33984375
296,-0.03515625,-1.00390625,-0.328125
297,-0.05078125,-1.00390625,-0.328125
298,-0.046875,-1.0,-0.328125
299,-0.05078125,-0.99609375,-0.32421875
300,-0.04296875,-0.98828125,-0.3203125
301,-0.04296875,-0.99609375,-0.33984375
302,-0.04296875,-0.9921875,-0.3359375
303,-0.046875,-1.00390625,-0.33984375
304,-0.046875,-0.98828125,-0.34375
305,-0.04296875,-1.0,-0.3359375
306,-0.046875,-1.0078125,-0.3203125
307,-0.046875,-0.99609375,-0.32421875
308,-0.04296875,-1.0,-0.328125
309,-0.0546875,-0.99609375,-0.33984375
310,-0.0390625,-1.0,-0.328125
311,-0.03125,-1.00390625,-0.32421875
312,-0.04296875,-0.99609375,-0.32421875
313,-0.03515625,-1.0,-0.33203125
314,-0.03515625,-1.0,-0.33203125
315,-0.0390625,-1.00390625,-0.31640625
316,-0.03515625,-1.01171875,-0.33984375
317,-0.04296875,-0.9921875,-0.34375
318,-0.0390625,-1.015625,-0.33203125
319,-0.04296875,-0.99609375,-0.34375
320,-0.03515625,-1.00390625,-0.33984375
321,-0.046875,-1.0078125,-0.33203125
322,-0.0390625,-1.0,-0.33203125
323,-0.0390625,-1.0234375,-0.33203125
324,-0.05078125,-1.00390625,-0.3359375
325,-0.03125,-1.01171875,-0.3125
326,-0.0390625,-1.0078125,-0.32421875
327,-0.03125,-1.0078125,-0.33203125
328,-0.046875,-1.00390625,-0.32421875
329,-0.03515625,-1.0,-0.328125
330,-0.03515625,-1.01171875,-0.3125
331,-0.03515625,-1.01171875,-0.328125
332,-0.0390625,-1.0078125,-0.3359375
333,-0.01953125,-1.01171875,-0.33203125
334,-0.02734375,-1.01171875,-0.3203125
335,-0.04296875,-1.00390625,-0.34375
336,-0.03515625,-1.0,-0.30078125
337,-0.04296875,-1.0,-0.3203125
338,-0.02734375,-1.0078125,-0.32421875
339,-0.046875,-1.0,-0.33203125
340,-0.04296875,-1.0,-0.3359375
341,-0.0390625,-1.0,-0.32421875
342,-0.03125,-1.01171875,-0.35546875
343,-0.046875,-1.0,-0.3203125
344,-0.02734375,-1.0,-0.328125
345,-0.03515625,-1.0,-0.3125
346,-0.046875,-1.0,-0.32421875
347,-0.046875,-1.00390625,-0.3203125
348,-0.04296875,-1.00390625,-0.328125
349,-0.03125,-1.00390625,-0.3359375
350,-0.046875,-1.0078125,-0.32421875
351,-0.0390625,-1.0,-0.3359375
352,-0.0390625,-1.0078125,-0.33984375
353,-0.05078125,-1.0,-0.3359375
354,-0.03515625,-0.9921875,-0.328125
355,-0.03125,-1.01171875,-0.34765625
356,-0.04296875,-1.0,-0.33203125
357,-0.046875,-1.00390625,-0.33203125
358,-0.03515625,-0.99609375,-0.33203125
359,-0.03125,-1.00390625,-0.32421875
360,-0.04296875,-1.00390625,-0.33203125
361,-0.03125,-1.0,-0.33203125
362,-0.04296875,-1.0078125,-0.32421875
363,-0.0234375,-1.00390625,-0.3359375
364,-0.02734375,-0.99609375,-0.31640625
365,-0.03125,-1.0078125,-0.328125
366,-0.03515625,-0.9921875,-0.328125
367,-0.04296875,-1.0078125,-0.3359375
368,-0.03125,-1.00390625,-0.33203125
369,-0.046875,-1.0,-0.34375
370,-0.02734375,-0.99609375,-0.32421875
371,-0.0390625,-1.0078125,-0.33203125
372,-0.03125,-1.00390625,-0.34375
373,-0.03125,-1.0,-0.33203125
374,-0.03515625,-1.0,-0.30859375
375,-0.03515625,-1.0,-0.3125
376,-0.02734375,-0.98828125,-0.30859375
377,-0.03515625,-0.99609375,-0.296875
378,-0.02734375,-1.0078125,-0.34375
379,-0.03125,-1.00390625,-0.32421875
380,-0.0390625,-1.0,-0.33203125
381,-0.03515625,-1.01171875,-0.3203125
382,-0.0390625,-1.0,-0.32421875
383,-0.0390625,-1.0,-0.3359375
384,-0.03515625,-1.0,-0.32421875
385,-0.03125,-1.00390625,-0.3359375
386,-0.0390625,-1.015625,-0.3203125
387,-0.01953125,-1.01171875,-0.31640625
388,-0.04296875,-0.98828125,-0.3203125
389,-0.01953125,-0.99609375,-0.3359375
390,-0.0390625,-1.01171875,-0.33203125
391,-0.02734375,-1.00390625,-0.3359375
392,-0.0234375,-1.015625,-0.33203125
393,-0.03125,-0.99609375,-0.32421875
394,-0.02734375,-1.00390625,-0.32421875
395,-0.03125,-1.0,-0.328125
396,-0.03125,-1.015625,-0.3359375
397,-0.03125,-1.01171875,-0.32421875
398,-0.03125,-1.0,-0.30859375
399,-0.0390625,-1.00390625,-0.30078125
400,-0.03515625,-1.00390625,-0.3125
401,-0.03125,-1.0,-0.3203125
402,-0.0234375,-1.0,-0.3203125
403,-0.03515625,-1.0078125,-0.31640625
404,-0.03125,-1.0,-0.33203125
405,-0.02734375,-1.0,-0.328125
406,-0.01953125,-1.00390625,-0.3203125
407,-0.03125,-1.0078125,-0.32421875
408,-0.02734375,-1.0,-0.3203125
409,-0.04296875,-0.9921875,-0.3046875
410,-0.015625,-1.01953125,-0.30078125
411,-0.02734375,-1.0078125,-0.3359375
412,-0.0234375,-1.01171875,-0.33203125
413,-0.0234375,-1.00390625,-0.32421875
414,-0.02734375,-1.01171875,-0.3203125
415,-0.01953125,-1.00390625,-0.33203125
416,-0.01953125,-1.0,-0.3203125
417,-0.015625,-1.0078125,-0.328125
418,-0.015625,-1.0,-0.32421875
419,-0.015625,-1.0,-0.29296875
420,-0.01953125,-1.01953125,-0.32421875
421,-0.03125,-1.015625,-0.3203125
422,-0.03125,-1.00390625,-0.328125
423,-0.01953125,-1.0,-0.32421875
424,-0.02734375,-1.01171875,-0.31640625
425,-0.01953125,-1.015625,-0.3203125
426,-0.01953125,-1.00390625,-0.32421875
427,-0.01953125,-0.99609375,-0.296875
428,-0.03515625,-1.0,-0.328125
429,-0.01953125,-1.0078125,-0.3125
430,-0.00390625,-1.0078125,-0.3125
431,-0.0078125,-1.0234375,-0.3359375
432,-0.01171875,-1.0,-0.30859375
433,-0.015625,-1.0,-0.3046875
434,0.0,-1.01171875,-0.3046875
435,-0.0234375,-1.00390625,-0.30859375
436,-0.015625,-1.0078125,-0.30859375
437,-0.015625,-1.01171875,-0.30078125
438,-0.01171875,-1.01171875,-0.3125
439,-0.0078125,-1.00390625,-0.328125
440,-0.00390625,-1.0078125,-0.3203125
441,0.0,-1.01953125,-0.33203125
442,0.0,-1.0234375,-0.3359375
443,-0.01171875,-1.0078125,-0.328125
444,-0.00390625,-1.00390625,-0.3125
445,0.0,-1.01953125,-0.3125
446,-0.00390625,-1.0078125,-0.30859375
447,-0.01171875,-1.00390625,-0.3125
448,-0.015625,-1.01171875,-0.30078125
449,-0.01171875,-1.01953125,-0.3203125
450,-0.00390625,-1.01953125,-0.30078125
451,-0.015625,-1.0078125,-0.3125
452,-0.015625,-0.99609375,-0.30859375
453,-0.00390625,-1.01953125,-0.3125
454,0.00390625,-1.0078125,-0.30078125
455,0.00390625,-1.0078125,-0.31640625
456,-0.00390625,-1.0078125,-0.3125
457,-0.00390625,-1.00390625,-0.29296875
458,-0.00390625,-1.0,-0.3125
459,-0.0078125,-1.0078125,-0.30078125
460,0.00390625,-1.0078125,-0.3125
461,0.0,-1.0078125,-0.30078125
462,0.0078125,-1.015625,-0.3125
463,0.0,-1.00390625,-0.30078125
464,-0.0078125,-1.01171875,-0.30078125
465,0.01171875,-1.01171875,-0.3046875
466,0.0078125,-1.00390625,-0.3046875
467,0.0078125,-1.02734375,-0.30078125
468,0.0078125,-1.01171875,-0.30859375
469,0.00390625,-1.015625,-0.28515625
470,0.015625,-1.0078125,-0.3203125
471,0.015625,-1.01953125,-0.28515625
472,0.0078125,-1.0,-0.27734375
473,0.01953125,-1.015625,-0.296875
474,0.015625,-1.0,-0.29296875
475,0.01953125,-1.015625,-0.28515625
476,0.01953125,-1.00390625,-0.29296875
477,0.015625,-1.00390625,-0.29296875
478,0.01171875,-1.00390625,-0.3046875
479,0.015625,-1.0078125,-0.296875
480,0.03125,-1.01171875,-0.28515625
481,0.0234375,-1.01171875,-0.296875
482,0.02734375,-1.01953125,-0.29296875
483,0.02734375,-1.00390625,-0.2890625
484,0.03125,-1.01171875,-0.3125
485,0.02734375,-1.0078125,-0.27734375
486,0.02734375,-1.00390625,-0.28125
487,0.0234375,-1.015625,-0.3046875
488,0.0234375,-1.00390625,-0.27734375
489,0.0234375,-1.00390625,-0.2890625
490,0.015625,-1.015625,-0.28515625
491,0.02734375,-1.00390625,-0.2890625
492,0.03125,-1.0,-0.28125
493,0.0234375,-1.015625,-0.2734375
494,0.015625,-1.0,-0.2734375
495,0.0546875,-0.984375,-0.26171875
496,0.02734375,-1.0078125,-0.27734375
497,0.02734375,-1.0078125,-0.2890625
498,0.03125,-1.00390625,-0.28515625
499,0.03125,-1.01171875,-0.26953125
500,0.03125,-1.01171875,-0.27734375
501,0.02734375,-1.0078125,-0.28125
502,0.02734375,-1.00390625,-0.2734375
503,0.03125,-1.01953125,-0.28125
504,0.02734375,-1.01171875,-0.27734375
505,0.03125,-1.01171875,-0.2734375
506,0.0546875,-1.01953125,-0.28125
507,0.0390625,-1.03515625,-0.2578125
508,0.0390625,-1.0234375,-0.26953125
509,0.04296875,-1.01171875,-0.26953125
510,0.0390625,-1.0234375,-0.26171875
511,0.05078125,-1.02734375,-0.265625
512,0.046875,-1.01953125,-0.26953125
513,0.0546875,-1.0234375,-0.265625
514,0.05078125,-1.01953125,-0.2734375
515,0.05859375,-1.00390625,-0.265625
516,0.046875,-1.00390625,-0.24609375
517,0.04296875,-1.0,-0.2578125
518,0.0625,-1.0234375,-0.265625
519,0.0625,-1.01171875,-0.26171875
520,0.05859375,-1.01171875,-0.2578125
521,0.0625,-1.015625,-0.265625
522,0.06640625,-1.0078125,-0.24609375
523,0.05078125,-1.0,-0.25
524,0.0625,-1.01171875,-0.24609375
525,0.05859375,-1.0234375,-0.23046875
526,0.0703125,-1.015625,-0.24609375
527,0.07421875,-1.0078125,-0.2109375
528,0.06640625,-1.01171875,-0.25
529,0.08203125,-1.01953125,-0.23828125
530,0.08984375,-1.02734375,-0.234375
531,0.078125,-1.015625,-0.25
532,0.08203125,-1.015625,-0.2421875
533,0.08984375,-1.00390625,-0.2421875
534,0.1015625,-1.01171875,-0.23046875
535,0.09375,-1.01953125,-0.24609375
536,0.09375,-1.00390625,-0.23828125
537,0.1015625,-1.0078125,-0.24609375
538,0.10546875,-1.0078125,-0.234375
539,0.08984375,-1.00390625,-0.2421875
540,0.09765625,-1.015625,-0.22265625
541,0.1015625,-1.01953125,-0.234375
542,0.08984375,-1.01171875,-0.21875
543,0.1015625,-1.0234375,-0.2265625
544,0.10546875,-1.01171875,-0.21875
545,0.10546875,-1.01953125,-0.2265625
546,0.09765625,-1.015625,-0.21484375
547,0.109375,-1.01171875,-0.20703125
548,0.11328125,-1.01953125,-0.23046875
549,0.109375,-0.98828125,-0.19921875
550,0.109375,-1.0234375,-0.2109375
551,0.10546875,-1.0234375,-0.203125
552,0.11328125,-1.015625,-0.21875
553,0.1171875,-1.0234375,-0.21875
554,0.1171875,-1.00390625,-0.21484375
555,0.10546875,-1.01171875,-0.21875
556,0.12890625,-1.00390625,-0.2109375
557,0.12890625,-1.00390625,-0.1953125
558,0.13671875,-1.0,-0.19140625
559,0.14453125,-1.00390625,-0.20703125
560,0.1484375,-1.0,-0.1953125
561,0.1484375,-1.0,-0.19921875
562,0.1640625,-1.01171875,-0.1875
563,0.1640625,-0.99609375,-0.1875
564,0.171875,-1.00390625,-0.18359375
565,0.171875,-0.99609375,-0.17578125
566,0.17578125,-1.0078125,-0.1875
567,0.18359375,-1.0,-0.1875
568,0.1796875,-1.0,-0.18359375
569,0.1796875,-1.00390625,-0.17578125
570,0.1875,-0.99609375,-0.1953125
571,0.1796875,-0.9921875,-0.1875
572,0.1796875,-1.0,-0.1796875
573,0.1796875,-1.00390625,-0.1796875
574,0.18359375,-1.00390625,-0.17578125
575,0.1796875,-1.00390625,-0.171875
576,0.18359375,-1.0,-0.16796875
577,0.1796875,-1.0078125,-0.171875
578,0.18359375,-1.00390625,-0.1640625
579,0.18359375,-1.0,-0.14453125
580,0.18359375,-1.0078125,-0.15234375
581,0.171875,-1.0,-0.17578125
582,0.17578125,-1.00390625,-0.15234375
583,0.17578125,-0.99609375,-0.140625
584,0.171875,-0.9921875,-0.15234375
585,0.1796875,-1.0,-0.1484375
586,0.1796875,-1.0,-0.12890625
587,0.18359375,-0.99609375,-0.12890625
588,0.1875,-0.98828125,-0.12109375
589,0.1875,-1.0,-0.125
590,0.1953125,-0.99609375,-0.12890625
591,0.19921875,-1.00390625,-0.1328125
592,0.19921875,-0.99609375,-0.140625
593,0.2109375,-1.0,-0.11328125
594,0.21484375,-1.0,-0.12890625
595,0.19921875,-0.984375,-0.109375
596,0.2109375,-0.9921875,-0.10546875
597,0.22265625,-0.9921875,-0.13671875
598,0.23828125,-0.984375,-0.1015625
599,0.24609375,-0.96875,-0.12109375
600,0.24609375,-0.99609375,-0.09765625
601,0.24609375,-1.0,-0.1015625
602,0.2578125,-0.98828125,-0.0859375
603,0.25390625,-0.99609375,-0.0859375
604,0.2734375,-0.99609375,-0.0859375
605,0.26953125,-0.9921875,-0.078125
606,0.265625,-0.98828125,-0.06640625
607,0.26953125,-0.9765625,-0.07421875
608,0.26953125,-0.984375,-0.078125
609,0.26953125,-0.98046875,-0.078125
610,0.28125,-0.98046875,-0.0703125
611,0.27734375,-0.9765625,-0.05859375
612,0.28125,-0.96484375,-0.0546875
613,0.2890625,-0.9921875,-0.05859375
614,0.28125,-0.96875,-0.05078125
615,0.28125,-0.97265625,-0.05078125
616,0.28515625,-0.97265625,-0.04296875
617,0.28515625,-0.97265625,-0.0390625
618,0.2890625,-0.96875,-0.0390625
619,0.2890625,-0.9609375,-0.0390625
620,0.2734375,-0.95703125,-0.04296875
621,0.30078125,-0.953125,-0.05859375
622,0.296875,-0.953125,-0.03515625
623,0.30859375,-0.96875,-0.03515625
624,0.30859375,-0.9453125,-0.03515625
625,0.30859375,-0.9453125,-0.03125
626,0.31640625,-0.94140625,-0.03125
627,0.3203125,-0.9375,-0.0234375
628,0.3359375,-0.92578125,-0.0234375
629,0.3359375,-0.9296875,-0.015625
630,0.34375,-0.921875,-0.01171875
631,0.3671875,-0.92578125,-0.0078125
632,0.36328125,-0.91796875,-0.0234375
633,0.37109375,-0.921875,0.00390625
634,0.38671875,-0.90625,-0.0078125
635,0.3828125,-0.91796875,0.0078125
636,0.375,-0.90625,0.02734375
637,0.375,-0.90234375,0.0234375
638,0.390625,-0.890625,0.01171875
639,0.390625,-0.89453125,0.015625
640,0.39453125,-0.8828125,0.015625
641,0.38671875,-0.8671875,-0.0078125
642,0.40234375,-0.86328125,-0.00390625
643,0.40234375,-0.85546875,0.0
644,0.39453125,-0.84765625,0.00390625
645,0.3828125,-0.84765625,0.00390625
646,0.375,-0.85546875,-0.0078125
647,0.40234375,-0.83203125,0.00390625
648,0.40234375,-0.8359375,-0.01171875
649,0.41015625,-0.8359375,-0.02734375
650,0.40234375,-0.828125,-0.00390625
651,0.40234375,-0.828125,0.0
652,0.40234375,-0.8203125,0.0
653,0.41796875,-0.828125,-0.0078125
654,0.40234375,-0.8125,-0.01171875
655,0.41015625,-0.80078125,-0.0078125
656,0.3828125,-0.79296875,-0.01953125
657,0.3984375,-0.76953125,-0.01171875
658,0.40234375,-0.75390625,0.00390625
659,0.40625,-0.75,0.0
660,0.40625,-0.73828125,-0.00390625
661,0.38671875,-0.7109375,0.0078125
662,0.390625,-0.6953125,-0.015625
663,0.3828125,-0.671875,-0.0078125
664,0.37890625,-0.6484375,-0.0234375
665,0.37109375,-0.62890625,0.015625
666,0.3515625,-0.61328125,0.0
667,0.34765625,-0.5703125,0.00390625
668,0.33203125,-0.5703125,0.00390625
669,0.3046875,-0.55078125,-0.015625
670,0.3046875,-0.55859375,0.00390625
671,0.3046875,-0.5390625,-0.01171875
672,0.27734375,-0.51171875,-0.0078125
673,0.2734375,-0.5078125,-0.01171875
674,0.2734375,-0.49609375,-0.0078125
675,0.2734375,-0.5,-0.03515625
676,0.28515625,-0.4921875,-0.0234375
677,0.28515625,-0.484375,-0.02734375
678,0.3125,-0.48046875,-0.046875
679,0.3203125,-0.48046875,-0.02734375
680,0.32421875,-0.4921875,-0.0078125
681,0.34765625,-0.50390625,-0.0078125
682,0.37890625,-0.5078125,-0.00390625
683,0.41015625,-0.53515625,0.015625
684,0.42578125,-0.55859375,0.0390625
685,0.453125,-0.5859375,0.0390625
686,0.46875,-0.6015625,0.03125
687,0.48828125,-0.59765625,0.0546875
688,0.5234375,-0.609375,0.03515625
689,0.5546875,-0.6015625,0.03515625
690,0.5703125,-0.58984375,0.03125
691,0.6015625,-0.55078125,0.0234375
692,0.60546875,-0.5078125,-0.01953125
693,0.59765625,-0.47265625,-0.0546875
694,0.6015625,-0.37890625,-0.0703125
695,0.5859375,-0.28515625,-0.08203125
696,0.53125,-0.19140625,-0.1171875
697,0.5234375,-0.11328125,-0.10546875
698,0.515625,-0.03515625,-0.09375
699,0.5,0.0234375,-0.05859375
700,0.50390625,0.04296875,-0.03125
701,0.55078125,0.03125,-0.03515625
702,0.56640625,0.01953125,-0.01953125
703,0.58984375,-0.01953125,0.02734375
704,0.5859375,-0.08203125,0.0078125
705,0.453125,-0.1484375,0.0
706,0.51171875,-0.2421875,-0.05859375
707,0.48046875,-0.2578125,-0.0859375
708,0.44140625,-0.2734375,-0.11328125
709,0.3828125,-0.3203125,-0.0859375
710,0.37109375,-0.34765625,-0.08984375
711,0.32421875,-0.390625,-0.109375
712,0.32421875,-0.37890625,-0.09375
713,0.23046875,-0.38671875,-0.09765625
714,0.12890625,-0.41796875,-0.109375
715,0.015625,-0.40234375,-0.1015625
716,-0.00390625,-0.37109375,-0.046875
717,0.0078125,-0.3125,0.00390625
718,0.02734375,-0.26953125,0.0625
719,0.20703125,-0.18359375,0.04296875
720,0.37109375,-0.06640625,0.0625
721,0.5703125,0.046875,0.19921875
722,0.9375,0.04296875,0.53125
723,1.5859375,0.02734375,0.96484375
724,1.98046875,0.00390625,1.66015625
725,2.48046875,0.0390625,2.66015625
726,3.4375,0.19921875,3.84375
727,4.75390625,0.40625,5.1015625
728,6.515625,0.54296875,5.8046875
729,9.03515625,0.546875,4.875
730,9.77734375,0.609375,2.375
731,8.3125,0.79296875,0.4296875
732,5.42578125,0.62109375,0.36328125
733,2.89453125,0.546875,0.25390625
734,1.28515625,0.55078125,-0.06640625
735,0.44140625,0.640625,-0.1953125
736,0.07421875,0.4609375,0.03125
737,-0.30078125,0.3515625,0.44140625
738,-0.80078125,0.4296875,0.734375
739,-0.8515625,0.515625,1.03125
740,-0.87109375,0.66015625,1.52734375
741,-0.87109375,0.78515625,2.11328125
742,-0.98828125,0.6015625,2.4921875
743,-1.7578125,0.5625,2.66015625
744,-1.8671875,0.41796875,2.6796875
745,-1.80078125,0.2578125,2.484375
746,-1.828125,0.2578125,2.02734375
747,-1.890625,0.23828125,1.4765625
748,-1.8125,0.21484375,0.98828125
749,-1.7421875,0.2734375,0.56640625
750,-1.671875,0.375,0.2109375
751,-1.4453125,0.3125,0.01171875
752,-1.1171875,0.1015625,-0.06640625
753,-0.71875,-0.16015625,0.0390625
754,-0.39453125,-0.36328125,0.06640625
755,-0.19140625,-0.390625,0.125
756,-0.05078125,-0.36328125,0.19921875
757,0.109375,-0.328125,0.27734375
758,0.28125,-0.2421875,0.37109375
759,0.5234375,-0.171875,0.4375
760,0.68359375,-0.03515625,0.50390625
761,0.76171875,0.046875,0.515625
762,0.8125,0.10546875,0.4921875
763,0.8203125,0.17578125,0.3828125
764,0.890625,0.25,0.25390625
765,0.96875,0.38671875,0.11328125
766,1.0625,0.5234375,0.0390625
767,1.20703125,0.62890625,-0.0234375
768,1.26953125,0.75,-0.0234375
769,1.2109375,0.84765625,0.0
770,1.1640625,0.86328125,0.08203125
771,1.06640625,0.83984375,0.17578125
772,0.99609375,0.77734375,0.28515625
773,0.89453125,0.69140625,0.3671875
774,0.78515625,0.62109375,0.47265625
775,0.71875,0.5546875,0.53515625
776,0.68359375,0.484375,0.58203125
777,0.6796875,0.46875,0.4140625
778,0.6328125,0.46875,0.20703125
779,0.62890625,0.58984375,0.04296875
780,0.66796875,0.51171875,-0.04296875
781,0.58984375,0.59765625,0.1875
782,0.55078125,0.63671875,0.4453125
783,0.50390625,0.61328125,0.65625
784,0.37890625,0.58984375,0.8515625
785,0.3359375,0.5,1.0234375
786,0.3671875,0.390625,1.18359375
787,0.41015625,0.26953125,1.27734375
788,0.42578125,0.18359375,1.34375
789,0.41015625,0.11328125,1.3671875
790,0.40625,0.03125,1.3515625
791,0.34765625,0.0,1.296875
792,0.36328125,-0.05859375,1.24609375
793,0.31640625,-0.06640625,1.12890625
794,0.34375,-0.09375,1.046875
795,0.29296875,-0.09765625,0.94921875
796,0.3125,-0.13671875,0.84765625
797,0.2734375,-0.23046875,0.7890625
798,0.28515625,-0.203125,0.69921875
799,0.2578125,-0.15625,0.62890625
800,0.31640625,-0.171875,0.60546875
801,0.44921875,-0.125,0.578125
802,0.5546875,-0.15625,0.59375
803,0.64453125,-0.13671875,0.65234375
804,0.70703125,-0.13671875,0.7421875
805,0.7421875,-0.14453125,0.8359375
806,0.7421875,-0.15234375,0.875
807,0.71875,-0.1484375,0.90625
808,0.70703125,-0.15625,0.94921875
809,0.66796875,-0.16015625,0.96875
810,0.62890625,-0.203125,0.984375
811,0.6171875,-0.234375,0.96875
812,0.62890625,-0.2734375,0.98046875
813,0.6015625,-0.2890625,0.953125
814,0.46875,-0.2890625,0.89453125
815,0.47265625,-0.3203125,0.94921875
816,0.51171875,-0.2734375,0.87890625
817,0.50390625,-0.203125,0.890625
818,0.33203125,-0.171875,0.828125
819,0.25,-0.1328125,0.828125
820,0.59375,-0.15625,0.8125
821,0.30859375,-0.05859375,0.796875
822,0.34765625,-0.12109375,0.82421875
823,0.49609375,-0.08984375,0.85546875
824,0.3203125,-0.0234375,0.7578125
825,0.2890625,-0.0703125,0.8046875
826,0.24609375,-0.015625,0.8046875
827,0.1484375,-0.11328125,0.7890625
828,0.26171875,-0.1015625,0.8359375
829,0.25390625,-0.109375,0.828125
830,0.44140625,-0.11328125,0.875
831,0.375,-0.12109375,0.828125
832,0.33203125,-0.1796875,0.82421875
833,0.33984375,-0.08984375,0.7890625
834,0.3515625,-0.078125,0.76171875
835,0.4765625,-0.1015625,0.74609375
836,0.48828125,-0.09375,0.7734375
837,0.43359375,-0.0390625,0.72265625
838,0.43359375,-0.015625,0.73046875
839,0.50390625,0.02734375,0.703125
840,0.51953125,0.04296875,0.609375
841,0.57421875,0.05859375,0.53125
842,0.578125,-0.015625,0.51953125
843,0.55078125,-0.00390625,0.51953125
844,0.5546875,0.01171875,0.5234375
845,0.5625,0.03515625,0.55859375
846,0.578125,0.03125,0.58203125
847,0.6015625,0.02734375,0.5859375
848,0.59375,0.03125,0.59375
849,0.59765625,0.01171875,0.625
850,0.55859375,0.03125,0.671875
851,0.4921875,0.17578125,0.69140625
852,0.578125,0.125,0.7109375
853,0.6953125,0.01953125,0.6875
854,0.6640625,0.01171875,0.70703125
855,0.53515625,0.15234375,0.73828125
856,0.53125,0.1015625,0.7578125
857,0.55859375,0.04296875,0.73828125
858,0.54296875,0.015625,0.75
859,0.55859375,-0.03125,0.72265625
860,0.578125,-0.078125,0.7109375
861,0.58984375,-0.05859375,0.70703125
862,0.6328125,-0.0078125,0.72265625
863,0.6484375,0.0,0.6953125
864,0.68359375,-0.015625,0.640625
865,0.6796875,-0.01953125,0.6171875
866,0.66015625,-0.03125,0.58984375
867,0.65234375,-0.046875,0.59765625
868,0.6015625,-0.03515625,0.5859375
869,0.59375,0.015625,0.625
870,0.58984375,0.0625,0.65234375
871,0.56640625,0.12890625,0.66796875
872,0.59765625,0.1484375,0.68359375
873,0.56640625,0.17578125,0.6796875
874,0.5546875,0.21484375,0.65625
875,0.5859375,0.23046875,0.671875
876,0.5625,0.265625,0.6796875
877,0.609375,0.27734375,0.68359375
878,0.6328125,0.31640625,0.68359375
879,0.6171875,0.359375,0.69140625
880,0.66796875,0.36328125,0.6875
881,0.67578125,0.34765625,0.671875
882,0.73046875,0.32421875,0.69140625
883,0.6953125,0.35546875,0.6171875
884,0.6875,0.45703125,0.60546875
885,0.77734375,0.37109375,0.5859375
886,0.8359375,0.29296875,0.59375
887,0.859375,0.22265625,0.546875
888,0.8359375,0.18359375,0.50390625
889,0.87890625,0.1328125,0.4375
890,0.890625,0.140625,0.39453125
891,0.98046875,-0.07421875,0.40625
892,0.82421875,0.00390625,0.35546875
893,0.86328125,-0.03125,0.3671875
894,0.95703125,-0.15234375,0.3828125
895,0.9375,-0.23828125,0.42578125
896,0.87109375,-0.22265625,0.41796875
897,0.8671875,-0.26953125,0.44921875
898,0.859375,-0.2890625,0.4609375
899,0.828125,-0.25,0.4765625
900,0.828125,-0.25390625,0.50390625
901,0.859375,-0.24609375,0.48828125
902,0.84765625,-0.21875,0.4921875
903,0.84765625,-0.2109375,0.5
904,0.8359375,-0.22265625,0.51953125
905,0.85546875,-0.2109375,0.5078125
906,0.859375,-0.20703125,0.53125
907,0.85546875,-0.2109375,0.53515625
908,0.859375,-0.1953125,0.54296875
909,0.90234375,-0.1875,0.5234375
910,0.86328125,-0.14453125,0.50390625
911,0.87109375,-0.125,0.48046875
912,0.8984375,-0.08203125,0.45703125
913,0.921875,-0.05078125,0.4375
914,0.93359375,-0.06640625,0.421875
915,0.92578125,-0.08203125,0.41015625
916,0.87890625,-0.10546875,0.43359375
917,0.84375,-0.14453125,0.47265625
918,0.83203125,-0.1953125,0.4765625
919,0.80078125,-0.18359375,0.44140625
920,0.7890625,-0.23046875,0.44921875
921,0.765625,-0.2265625,0.44921875
922,0.73046875,-0.19921875,0.421875
923,0.75,-0.21484375,0.4453125
924,0.7734375,-0.2421875,0.4453125
925,0.80078125,-0.2421875,0.48046875
926,0.79296875,-0.19921875,0.47265625
927,0.8046875,-0.23046875,0.4765625
928,0.80078125,-0.22265625,0.48046875
929,0.828125,-0.234375,0.4921875
930,0.81640625,-0.23828125,0.49609375
931,0.83203125,-0.234375,0.49609375
932,0.82421875,-0.24609375,0.48828125
933,0.80859375,-0.26171875,0.48046875
934,0.8046875,-0.26171875,0.4765625
935,0.79296875,-0.25390625,0.4765625
936,0.7734375,-0.28515625,0.47265625
937,0.76953125,-0.3203125,0.51953125
938,0.734375,-0.33984375,0.52734375
939,0.7109375,-0.35546875,0.55078125
940,0.70703125,-0.36328125,0.56640625
941,0.6875,-0.359375,0.5859375
942,0.66796875,-0.34375,0.6171875
943,0.6796875,-0.31640625,0.6171875
944,0.6875,-0.3046875,0.65234375
945,0.6796875,-0.2734375,0.65625
946,0.65234375,-0.24609375,0.6640625
947,0.640625,-0.23046875,0.671875
948,0.6484375,-0.23046875,0.671875
949,0.62109375,-0.1640625,0.6953125
950,0.62109375,-0.15234375,0.69140625
951,0.6015625,-0.1328125,0.70703125
952,0.5703125,-0.18359375,0.71875
953,0.55078125,-0.19140625,0.73828125
954,0.58203125,-0.3203125,0.7734375
955,0.46875,-0.26953125,0.76953125
956,0.4375,-0.2421875,0.765625
957,0.46875,-0.28125,0.8046875
958,0.4296875,-0.3046875,0.80859375
959,0.3984375,-0.33203125,0.80859375
960,0.359375,-0.3125,0.80859375
961,0.33203125,-0.3046875,0.8125
962,0.328125,-0.31640625,0.81640625
963,0.30859375,-0.328125,0.80859375
964,0.28125,-0.3125,0.8125
965,0.23828125,-0.296875,0.8125
966,0.21875,-0.2890625,0.8203125
967,0.21484375,-0.27734375,0.8125
968,0.20703125,-0.25390625,0.80859375
969,0.1875,-0.23828125,0.83203125
970,0.20703125,-0.23046875,0.8125
971,0.19921875,-0.21875,0.80859375
972,0.1953125,-0.19140625,0.82421875
973,0.21484375,-0.19140625,0.828125
974,0.2265625,-0.14453125,0.83203125
975,0.25,-0.11328125,0.8203125
976,0.28515625,-0.078125,0.81640625
977,0.3046875,-0.0546875,0.8203125
978,0.32421875,-0.03515625,0.80078125
979,0.33984375,-0.01171875,0.78125
980,0.34375,-0.01171875,0.7734375
981,0.37890625,0.0234375,0.79296875
982,0.38671875,0.015625,0.78515625
983,0.375,0.07421875,0.765625
984,0.41796875,0.078125,0.75390625
985,0.4296875,0.0625,0.765625
986,0.4375,0.03515625,0.74609375
987,0.4453125,0.04296875,0.71484375
988,0.46484375,0.0390625,0.7109375
989,0.46484375,0.0390625,0.6875
990,0.46875,0.04296875,0.67578125
991,0.46484375,0.046875,0.6796875
992,0.46875,0.07421875,0.6875
993,0.49609375,0.0859375,0.703125
994,0.53125,0.08984375,0.703125
995,0.53125,0.0625,0.71484375
996,0.55078125,0.05078125,0.73828125
997,0.5390625,0.03515625,0.76171875
998,0.53515625,0.0234375,0.7734375
999,0.51171875,0.0234375,0.78515625
1000,0.52734375,0.0,0.8046875
1001,0.578125,-0.0078125,0.80859375
1002,0.5703125,-0.0546875,0.7890625
1003,0.53125,-0.06640625,0.8203125
1004,0.50390625,-0.08203125,0.83203125
1005,0.48828125,-0.1015625,0.82421875
1006,0.48046875,-0.109375,0.828125
1007,0.47265625,-0.12890625,0.796875
1008,0.46875,-0.12109375,0.76171875
1009,0.48046875,-0.1328125,0.765625
1010,0.46484375,-0.14453125,0.74609375
1011,0.47265625,-0.140625,0.76171875
1012,0.46875,-0.15625,0.734375
1013,0.44921875,-0.1953125,0.70703125
1014,0.46484375,-0.171875,0.734375
1015,0.453125,-0.1875,0.73828125
1016,0.51171875,-0.16796875,0.6875
1017,0.46875,-0.1640625,0.703125
1018,0.515625,-0.16796875,0.69140625
1019,0.55078125,-0.171875,0.6640625
1020,0.55078125,-0.1796875,0.69140625
1021,0.5,-0.16796875,0.6875
1022,0.51171875,-0.15625,0.67578125
1023,0.54296875,-0.1484375,0.671875
1024,0.5078125,-0.17578125,0.69140625
1025,0.53515625,-0.14453125,0.6875
1026,0.54296875,-0.14453125,0.69921875
1027,0.59765625,-0.12109375,0.6484375
1028,0.625,-0.125,0.64453125
1029,0.609375,-0.12890625,0.6328125
1030,0.6171875,-0.12109375,0.65625
1031,0.6015625,-0.11328125,0.65234375
1032,0.62890625,-0.10546875,0.65234375
1033,0.65234375,-0.12890625,0.63671875
1034,0.6484375,-0.12109375,0.6640625
1035,0.6484375,-0.1328125,0.671875
1036,0.640625,-0.13671875,0.6796875
1037,0.66796875,-0.140625,0.6640625
1038,0.6875,-0.15234375,0.6484375
1039,0.6640625,-0.15234375,0.671875
1040,0.6640625,-0.16015625,0.67578125
1041,0.671875,-0.14453125,0.67578125
1042,0.67578125,-0.1640625,0.67578125
1043,0.6484375,-0.1640625,0.6796875
1044,0.62890625,-0.171875,0.6875
1045,0.6171875,-0.17578125,0.6953125
1046,0.60546875,-0.16796875,0.6796875
1047,0.60546875,-0.1953125,0.70703125
1048,0.6015625,-0.17578125,0.68359375
1049,0.60546875,-0.18359375,0.68359375
1050,0.59375,-0.1875,0.6875
1051,0.578125,-0.17578125,0.69140625
1052,0.578125,-0.1875,0.68359375
1053,0.6015625,-0.19140625,0.67578125
1054,0.57421875,-0.171875,0.66796875
1055,0.56640625,-0.15234375,0.6796875
1056,0.578125,-0.14453125,0.671875
1057,0.5859375,-0.16015625,0.68359375
1058,0.5625,-0.13671875,0.6953125
1059,0.56640625,-0.12109375,0.6953125
1060,0.5546875,-0.1171875,0.69140625
1061,0.546875,-0.11328125,0.6796875
1062,0.5546875,-0.09765625,0.68359375
1063,0.55078125,-0.1015625,0.68359375
1064,0.56640625,-0.0859375,0.6953125
1065,0.55078125,-0.09375,0.69921875
1066,0.55859375,-0.0859375,0.6953125
1067,0.546875,-0.09765625,0.6796875
1068,0.546875,-0.078125,0.6796875
1069,0.54296875,-0.0703125,0.71484375
1070,0.546875,-0.078125,0.7109375
1071,0.546875,-0.08203125,0.69921875
1072,0.546875,-0.06640625,0.71484375
1073,0.53515625,-0.0703125,0.73046875
1074,0.5390625,-0.08203125,0.7109375
1075,0.53125,-0.078125,0.7265625
1076,0.53515625,-0.0859375,0.71484375
1077,0.5390625,-0.09765625,0.71875
1078,0.52734375,-0.0859375,0.72265625
1079,0.5078125,-0.13671875,0.71484375
1080,0.51171875,-0.11328125,0.73046875
1081,0.51171875,-0.10546875,0.73046875
1082,0.5,-0.10546875,0.73828125
1083,0.51171875,-0.109375,0.73046875
1084,0.51171875,-0.1171875,0.73828125
1085,0.5,-0.1171875,0.73828125
1086,0.49609375,-0.109375,0.734375
1087,0.5,-0.1171875,0.734375
1088,0.49609375,-0.1171875,0.7265625
1089,0.5,-0.13671875,0.734375
1090,0.484375,-0.125,0.73046875
1091,0.50390625,-0.140625,0.7265625
1092,0.49609375,-0.1328125,0.7421875
1093,0.49609375,-0.13671875,0.73828125
1094,0.48828125,-0.13671875,0.7265625
1095,0.50390625,-0.12890625,0.734375
1096,0.48828125,-0.1328125,0.7265625
1097,0.5,-0.13671875,0.71484375
1098,0.51171875,-0.140625,0.73046875
1099,0.515625,-0.125,0.73046875
1100,0.51171875,-0.12890625,0.70703125
1101,0.51171875,-0.125,0.71484375
1102,0.4921875,-0.1328125,0.72265625
1103,0.5078125,-0.1328125,0.73046875
1104,0.50390625,-0.1328125,0.7265625
1105,0.51953125,-0.1484375,0.73046875
1106,0.5078125,-0.1484375,0.7265625
1107,0.5078125,-0.15234375,0.7265625
1108,0.50390625,-0.12890625,0.70703125
1109,0.5078125,-0.15625,0.7109375
1110,0.515625,-0.15625,0.71484375
1111,0.51171875,-0.16015625,0.69140625
1112,0.51953125,-0.15625,0.72265625
1113,0.51953125,-0.15234375,0.71484375
1114,0.5078125,-0.14453125,0.72265625
1115,0.515625,-0.13671875,0.71875
1116,0.52734375,-0.14453125,0.71484375
1117,0.515625,-0.1328125,0.7109375
1118,0.53125,-0.13671875,0.7109375
1119,0.5234375,-0.13671875,0.70703125
1120,0.53125,-0.12890625,0.7265625
1121,0.5234375,-0.1328125,0.72265625
1122,0.53515625,-0.125,0.73046875
1123,0.53125,-0.1328125,0.69921875
1124,0.5390625,-0.12890625,0.69921875
1125,0.5390625,-0.12109375,0.70703125
1126,0.546875,-0.13671875,0.71484375
1127,0.54296875,-0.14453125,0.71484375
1128,0.5390625,-0.1328125,0.703125
1129,0.53125,-0.125,0.70703125
1130,0.53125,-0.12109375,0.703125
1131,0.546875,-0.12890625,0.70703125
1132,0.5546875,-0.11328125,0.7109375
1133,0.5625,-0.12109375,0.71875
1134,0.55859375,-0.1171875,0.6953125
1135,0.546875,-0.1171875,0.703125
1136,0.55078125,-0.1171875,0.7109375
1137,0.55078125,-0.1171875,0.703125
1138,0.54296875,-0.1171875,0.70703125
1139,0.5546875,-0.09765625,0.6875
1140,0.546875,-0.1171875,0.6875
1141,0.546875,-0.10546875,0.6875
1142,0.56640625,-0.1171875,0.69140625
1143,0.5625,-0.11328125,0.68359375
1144,0.55859375,-0.1171875,0.7109375
1145,0.546875,-0.125,0.6875
1146,0.55078125,-0.1171875,0.69140625
1147,0.55859375,-0.12109375,0.6953125
1148,0.5546875,-0.11328125,0.73046875
1149,0.5703125,-0.12890625,0.71484375
1150,0.5546875,-0.12109375,0.69921875
1151,0.55859375,-0.12890625,0.71484375
1152,0.5546875,-0.125,0.69140625
1153,0.55078125,-0.1171875,0.7109375
1154,0.5390625,-0.1171875,0.6953125
1155,0.55078125,-0.109375,0.71484375
1156,0.55078125,-0.125,0.71875
1157,0.55078125,-0.125,0.7109375
1158,0.55078125,-0.125,0.72265625
1159,0.54296875,-0.125,0.7109375
1160,0.53515625,-0.1328125,0.71484375
1161,0.5390625,-0.11328125,0.71484375
1162,0.5546875,-0.12890625,0.7109375
1163,0.5390625,-0.109375,0.71484375
1164,0.546875,-0.11328125,0.73046875
1165,0.53515625,-0.12109375,0.73828125
1166,0.51171875,-0.13671875,0.6875
1167,0.53515625,-0.1171875,0.703125
1168,0.54296875,-0.12109375,0.72265625
1169,0.54296875,-0.12109375,0.70703125
1170,0.53515625,-0.12109375,0.72265625
1171,0.5390625,-0.125,0.71875
1172,0.53515625,-0.1171875,0.703125
1173,0.52734375,-0.12109375,0.734375
1174,0.5078125,-0.13671875,0.73046875
1175,0.51953125,-0.1328125,0.7109375
1176,0.51953125,-0.12109375,0.6953125
1177,0.5234375,-0.15234375,0.72265625
1178,0.5234375,-0.140625,0.72265625
1179,0.5234375,-0.13671875,0.71875
1180,0.52734375,-0.1484375,0.71484375
1181,0.5234375,-0.14453125,0.71875
1182,0.515625,-0.140625,0.7109375
1183,0.51953125,-0.14453125,0.7265625
1184,0.51171875,-0.1484375,0.7109375
1185,0.52734375,-0.1328125,0.72265625
1186,0.53515625,-0.14453125,0.7109375
1187,0.52734375,-0.13671875,0.72265625
1188,0.5078125,-0.12890625,0.74609375
1189,0.51953125,-0.125,0.7109375
1190,0.5078125,-0.125,0.73046875
1191,0.51953125,-0.12890625,0.734375
1192,0.51171875,-0.1171875,0.70703125
1193,0.5234375,-0.1328125,0.7109375
1194,0.53125,-0.1328125,0.7265625
1195,0.51953125,-0.1328125,0.71484375
1196,0.5234375,-0.12890625,0.71484375
1197,0.52734375,-0.12109375,0.71875
1198,0.51171875,-0.1171875,0.7421875
1199,0.515625,-0.125,0.72265625
1200,0.51953125,-0.12109375,0.703125
1201,0.53125,-0.1328125,0.70703125
1202,0.515625,-0.1328125,0.73046875
1203,0.5078125,-0.11328125,0.70703125
1204,0.5078125,-0.1328125,0.72265625
1205,0.51171875,-0.125,0.71484375
1206,0.515625,-0.1328125,0.703125
1207,0.5234375,-0.12109375,0.7265625
1208,0.5234375,-0.125,0.72265625
1209,0.53515625,-0.14453125,0.671875
1210,0.52734375,-0.12109375,0.7265625
1211,0.5234375,-0.125,0.70703125
1212,0.52734375,-0.12890625,0.73046875
1213,0.53125,-0.1328125,0.7109375
1214,0.53125,-0.12109375,0.71484375
1215,0.53125,-0.12109375,0.71875
1216,0.5390625,-0.12890625,0.69140625
1217,0.53515625,-0.12890625,0.703125
1218,0.52734375,-0.125,0.72265625
1219,0.5390625,-0.1171875,0.7109375
1220,0.54296875,-0.140625,0.6875
1221,0.54296875,-0.1328125,0.71875
1222,0.53515625,-0.125,0.703125
1223,0.5390625,-0.1171875,0.71484375
1224,0.53125,-0.12109375,0.73046875
1225,0.53515625,-0.1171875,0.71484375
1226,0.5390625,-0.12109375,0.6953125
1227,0.53125,-0.125,0.71484375
1228,0.5390625,-0.1171875,0.70703125
1229,0.52734375,-0.12109375,0.71484375
1230,0.53515625,-0.125,0.7109375
1231,0.5234375,-0.140625,0.703125
1232,0.53125,-0.125,0.72265625
1233,0.546875,-0.1171875,0.71875
1234,0.53515625,-0.1171875,0.71875
1235,0.546875,-0.125,0.71484375
1236,0.53515625,-0.12109375,0.71484375
1237,0.5390625,-0.1328125,0.71875
1238,0.5234375,-0.125,0.703125
1239,0.54296875,-0.12890625,0.72265625
1240,0.52734375,-0.13671875,0.69921875
1241,0.52734375,-0.125,0.71484375
1242,0.52734375,-0.12109375,0.74609375
1243,0.5390625,-0.140625,0.72265625
1244,0.53125,-0.125,0.72265625
1245,0.53125,-0.1328125,0.7109375
1246,0.53125,-0.125,0.703125
1247,0.53125,-0.125,0.7109375
1248,0.53515625,-0.12890625,0.72265625
1249,0.5234375,-0.125,0.71484375
1250,0.52734375,-0.12890625,0.71875
1251,0.52734375,-0.1328125,0.69921875
1252,0.53515625,-0.125,0.71875
1253,0.546875,-0.11328125,0.72265625
1254,0.53125,-0.12109375,0.69921875
1255,0.52734375,-0.12890625,0.7109375
1256,0.52734375,-0.1171875,0.70703125
1257,0.53515625,-0.125,0.7109375
1258,0.53125,-0.125,0.71484375
1259,0.5234375,-0.1171875,0.7265625
1260,0.52734375,-0.12890625,0.6953125
1261,0.53515625,-0.12890625,0.734375
1262,0.5390625,-0.12109375,0.72265625
1263,0.53125,-0.11328125,0.72265625
1264,0.52734375,-0.12890625,0.7109375
1265,0.53515625,-0.125,0.70703125
1266,0.5234375,-0.125,0.70703125
1267,0.52734375,-0.125,0.7265625
1268,0.5234375,-0.12109375,0.70703125
1269,0.515625,-0.125,0.703125
1270,0.53125,-0.1328125,0.7109375
1271,0.5390625,-0.12890625,0.69921875
1272,0.51953125,-0.1328125,0.72265625
1273,0.52734375,-0.125,0.73828125
1274,0.53515625,-0.13671875,0.72265625
1275,0.54296875,-0.125,0.734375
1276,0.52734375,-0.13671875,0.71875
1277,0.52734375,-0.12890625,0.72265625
1278,0.5234375,-0.1171875,0.71875
1279,0.515625,-0.12890625,0.72265625
1280,0.5390625,-0.12890625,0.73046875
1281,0.52734375,-0.12890625,0.71484375
1282,0.515625,-0.12109375,0.70703125
1283,0.53515625,-0.125,0.71875
1284,0.53515625,-0.125,0.71875
1285,0.515625,-0.12109375,0.70703125
1286,0.51953125,-0.1328125,0.72265625
1287,0.5234375,-0.1328125,0.7109375
1288,0.5234375,-0.13671875,0.72265625
1289,0.52734375,-0.1328125,0.7109375
1290,0.52734375,-0.1328125,0.7265625
1291,0.53515625,-0.13671875,0.72265625
1292,0.52734375,-0.125,0.71875
1293,0.5234375,-0.1171875,0.72265625
1294,0.53125,-0.12890625,0.7265625
1295,0.5234375,-0.1328125,0.71875
1296,0.5234375,-0.11328125,0.69140625
1297,0.52734375,-0.125,0.71484375
1298,0.53125,-0.1328125,0.73046875
1299,0.5234375,-0.12109375,0.7109375
1300,0.53125,-0.125,0.7265625
1301,0.53515625,-0.13671875,0.703125
1302,0.515625,-0.109375,0.7265625
1303,0.53515625,-0.140625,0.71484375
1304,0.5390625,-0.1328125,0.70703125
1305,0.5390625,-0.12890625,0.70703125
1306,0.53515625,-0.12890625,0.703125
1307,0.55859375,-0.12890625,0.7265625
1308,0.52734375,-0.12109375,0.71484375
1309,0.51953125,-0.11328125,0.71875
1310,0.53125,-0.11328125,0.73046875
1311,0.52734375,-0.1171875,0.71875
1312,0.53125,-0.12109375,0.71875
1313,0.51953125,-0.1171875,0.70703125
1314,0.52734375,-0.1171875,0.73046875
1315,0.54296875,-0.12890625,0.72265625
1316,0.53125,-0.12109375,0.73046875
1317,0.5390625,-0.1328125,0.7109375
1318,0.5234375,-0.16015625,0.69921875
1319,0.52734375,-0.1328125,0.7265625
1320,0.53125,-0.1328125,0.7265625
1321,0.53515625,-0.1328125,0.71484375
1322,0.51953125,-0.12890625,0.71875
1323,0.51953125,-0.125,0.70703125
1324,0.5234375,-0.12890625,0.71875
1325,0.53515625,-0.1328125,0.71484375
1326,0.53515625,-0.13671875,0.7265625
1327,0.53125,-0.13671875,0.69921875
1328,0.5234375,-0.1328125,0.7109375
1329,0.54296875,-0.11328125,0.7109375
1330,0.51953125,-0.11328125,0.72265625
1331,0.51953125,-0.125,0.7265625
1332,0.53125,-0.1171875,0.7109375
1333,0.53125,-0.125,0.703125
1334,0.53515625,-0.11328125,0.70703125
1335,0.52734375,-0.1171875,0.71484375
1336,0.53125,-0.109375,0.71484375
1337,0.53125,-0.125,0.70703125
1338,0.51953125,-0.1328125,0.70703125
1339,0.53515625,-0.1171875,0.734375
1340,0.51953125,-0.125,0.70703125
1341,0.53125,-0.125,0.71875
1342,0.51953125,-0.1171875,0.70703125
1343,0.53125,-0.12109375,0.71484375
1344,0.53515625,-0.125,0.71875
1345,0.5234375,-0.12890625,0.7109375
1346,0.5234375,-0.12109375,0.7109375
1347,0.51953125,-0.1328125,0.71875
1348,0.51953125,-0.13671875,0.71875
1349,0.53125,-0.125,0.7265625
1350,0.51953125,-0.13671875,0.71484375
1351,0.52734375,-0.12890625,0.703125
1352,0.5234375,-0.125,0.70703125
1353,0.5234375,-0.12890625,0.70703125
1354,0.52734375,-0.1328125,0.71875
1355,0.5234375,-0.125,0.70703125
1356,0.53125,-0.1328125,0.7265625
1357,0.53515625,-0.12109375,0.72265625
1358,0.54296875,-0.1171875,0.70703125
1359,0.52734375,-0.125,0.73046875
1360,0.53515625,-0.125,0.7265625
1361,0.53515625,-0.125,0.70703125
1362,0.52734375,-0.1328125,0.72265625
1363,0.53125,-0.12890625,0.73046875
1364,0.515625,-0.12890625,0.72265625
1365,0.5234375,-0.12109375,0.72265625
1366,0.53125,-0.13671875,0.71875
1367,0.51953125,-0.1328125,0.71484375
1368,0.51953125,-0.12890625,0.71875
1369,0.5390625,-0.125,0.73828125
1370,0.52734375,-0.12109375,0.703125
1371,0.52734375,-0.1328125,0.71484375
1372,0.52734375,-0.1171875,0.72265625
1373,0.5234375,-0.125,0.703125
1374,0.51953125,-0.1171875,0.7109375
1375,0.5234375,-0.11328125,0.70703125
1376,0.51953125,-0.12890625,0.71484375
1377,0.515625,-0.11328125,0.71875
1378,0.5234375,-0.1171875,0.7265625
1379,0.515625,-0.1171875,0.7109375
1380,0.52734375,-0.12109375,0.72265625
1381,0.5234375,-0.13671875,0.7109375
1382,0.53515625,-0.12109375,0.71484375
1383,0.515625,-0.1328125,0.7109375
1384,0.5234375,-0.1328125,0.73046875
1385,0.52734375,-0.12890625,0.73046875
1386,0.53515625,-0.1328125,0.734375
1387,0.515625,-0.1328125,0.73046875
1388,0.53515625,-0.12890625,0.72265625
1389,0.52734375,-0.1328125,0.70703125
1390,0.5234375,-0.125,0.72265625
1391,0.51953125,-0.12109375,0.73046875
1392,0.53125,-0.1328125,0.72265625
1393,0.5234375,-0.1328125,0.71484375
1394,0.53125,-0.12890625,0.71484375
1395,0.51171875,-0.125,0.71875
1396,0.51953125,-0.11328125,0.7265625
1397,0.5390625,-0.1328125,0.72265625
1398,0.53515625,-0.125,0.71875
1399,0.53125,-0.13671875,0.7265625
1400,0.51953125,-0.1328125,0.72265625
1401,0.53125,-0.1328125,0.71484375
1402,0.5234375,-0.109375,0.7109375
1403,0.53125,-0.1171875,0.72265625
1404,0.52734375,-0.1171875,0.7265625
1405,0.53515625,-0.11328125,0.71875
1406,0.52734375,-0.125,0.7265625
1407,0.52734375,-0.12109375,0.734375
1408,0.51171875,-0.12109375,0.72265625
1409,0.515625,-0.125,0.7265625
1410,0.53125,-0.125,0.69921875
1411,0.53125,-0.1328125,0.72265625
1412,0.52734375,-0.109375,0.71875
1413,0.52734375,-0.12109375,0.71875
1414,0.5390625,-0.12890625,0.71484375
1415,0.53515625,-0.12109375,0.7265625
1416,0.54296875,-0.12890625,0.71875
1417,0.52734375,-0.13671875,0.71484375
1418,0.52734375,-0.12109375,0.71875
1419,0.5234375,-0.12890625,0.70703125
1420,0.53125,-0.1171875,0.7109375
1421,0.5234375,-0.11328125,0.7265625
1422,0.51171875,-0.11328125,0.71484375
1423,0.5390625,-0.12890625,0.71484375
1424,0.5234375,-0.14453125,0.703125
1425,0.52734375,-0.12109375,0.734375
1426,0.515625,-0.11328125,0.71875
1427,0.515625,-0.13671875,0.73828125
1428,0.5234375,-0.125,0.7109375
1429,0.5234375,-0.12109375,0.71484375
1430,0.52734375,-0.125,0.71484375
1431,0.51953125,-0.125,0.72265625
1432,0.52734375,-0.12109375,0.72265625
1433,0.5234375,-0.12890625,0.71484375
1434,0.52734375,-0.12109375,0.72265625
1435,0.51953125,-0.1171875,0.72265625
1436,0.515625,-0.12109375,0.7109375
1437,0.53515625,-0.12109375,0.71484375
1438,0.51171875,-0.15234375,0.71875
1439,0.51953125,-0.12109375,0.7265625
1440,0.51953125,-0.12109375,0.7109375
1441,0.5234375,-0.109375,0.71484375
1442,0.5234375,-0.125,0.71484375
1443,0.5234375,-0.125,0.70703125
1444,0.52734375,-0.125,0.71875
1445,0.53125,-0.1328125,0.703125
1446,0.5078125,-0.12890625,0.7265625
1447,0.5234375,-0.125,0.6953125
1448,0.52734375,-0.1328125,0.7109375
1449,0.52734375,-0.13671875,0.71875
1450,0.5234375,-0.12109375,0.70703125
1451,0.5234375,-0.12890625,0.71484375
1452,0.51953125,-0.1328125,0.71875
1453,0.51953125,-0.12109375,0.72265625
1454,0.515625,-0.12109375,0.71484375
1455,0.52734375,-0.12890625,0.71484375
1456,0.52734375,-0.12109375,0.734375
1457,0.5234375,-0.12890625,0.703125
1458,0.52734375,-0.109375,0.70703125
1459,0.53125,-0.1171875,0.71484375
1460,0.49609375,-0.12890625,0.71875
1461,0.53125,-0.125,0.71875
1462,0.52734375,-0.125,0.72265625
1463,0.51953125,-0.125,0.73828125
1464,0.52734375,-0.1171875,0.72265625
1465,0.53125,-0.1328125,0.7109375
1466,0.51953125,-0.1171875,0.71484375
1467,0.5234375,-0.12890625,0.73828125
1468,0.53125,-0.109375,0.71875
1469,0.52734375,-0.12109375,0.72265625
1470,0.515625,-0.13671875,0.7265625
1471,0.5390625,-0.12109375,0.71875
1472,0.52734375,-0.1171875,0.7109375
1473,0.51953125,-0.1328125,0.7265625
1474,0.52734375,-0.125,0.71484375
1475,0.52734375,-0.12109375,0.71875
1476,0.51953125,-0.125,0.7265625
1477,0.5234375,-0.12890625,0.7109375
1478,0.51171875,-0.12890625,0.71484375
1479,0.53125,-0.12109375,0.71875
1480,0.5234375,-0.1328125,0.70703125
1481,0.53125,-0.1015625,0.703125
1482,0.51953125,-0.109375,0.71875
1483,0.53125,-0.12890625,0.72265625
1484,0.52734375,-0.11328125,0.7265625
1485,0.52734375,-0.125,0.7265625
1486,0.51953125,-0.1171875,0.6953125
1487,0.5234375,-0.1328125,0.7109375
1488,0.52734375,-0.12109375,0.72265625
1489,0.52734375,-0.125,0.70703125
1490,0.5234375,-0.12109375,0.72265625
1491,0.53515625,-0.125,0.703125
1492,0.54296875,-0.1328125,0.7265625
1493,0.51953125,-0.12109375,0.74609375
1494,0.53515625,-0.12109375,0.70703125
1495,0.52734375,-0.1171875,0.71484375
1496,0.5234375,-0.125,0.71484375
1497,0.515625,-0.1171875,0.71875
1498,0.5234375,-0.12109375,0.73046875
1499,0.51171875,-0.12890625,0.71484375
1500,0.5234375,-0.125,0.71875
1501,0.53125,-0.12109375,0.71484375
1502,0.52734375,-0.12890625,0.73828125
1503,0.5234375,-0.109375,0.73828125
1504,0.53515625,-0.12890625,0.7109375
1505,0.51953125,-0.13671875,0.7265625
1506,0.51953125,-0.1328125,0.71875
1507,0.51953125,-0.140625,0.71484375
1508,0.52734375,-0.13671875,0.72265625
1509,0.515625,-0.125,0.70703125
1510,0.5078125,-0.12109375,0.71484375
1511,0.51953125,-0.12109375,0.71875
1512,0.53125,-0.11328125,0.734375
1513,0.5078125,-0.1171875,0.69921875
1514,0.51171875,-0.12109375,0.69140625
1515,0.53125,-0.12890625,0.703125
1516,0.53125,-0.12109375,0.71875
1517,0.515625,-0.12109375,0.7109375
1518,0.51953125,-0.1171875,0.7109375
1519,0.5234375,-0.11328125,0.71484375
1520,0.51953125,-0.109375,0.73046875
1521,0.51953125,-0.125,0.69921875
1522,0.51953125,-0.12109375,0.72265625
1523,0.52734375,-0.1171875,0.70703125
1524,0.5390625,-0.109375,0.72265625
1525,0.54296875,-0.12109375,0.6953125
1526,0.515625,-0.11328125,0.73046875
1527,0.53515625,-0.12890625,0.71484375
1528,0.5234375,-0.10546875,0.70703125
1529,0.51953125,-0.12109375,0.72265625
1530,0.51171875,-0.125,0.7265625
1531,0.53125,-0.125,0.734375
1532,0.51953125,-0.1171875,0.71484375
1533,0.52734375,-0.1171875,0.73828125
1534,0.5234375,-0.1328125,0.71875
1535,0.52734375,-0.125,0.7265625
1536,0.5234375,-0.109375,0.7265625
1537,0.51953125,-0.1171875,0.71484375
1538,0.5234375,-0.125,0.71875
1539,0.515625,-0.1171875,0.7265625
1540,0.53125,-0.12109375,0.70703125
1541,0.52734375,-0.12890625,0.71484375
1542,0.52734375,-0.125,0.72265625
1543,0.5078125,-0.11328125,0.71875
1544,0.52734375,-0.12890625,0.71875
1545,0.5234375,-0.125,0.72265625
1546,0.53515625,-0.14453125,0.7265625
1547,0.515625,-0.1328125,0.7109375
1548,0.52734375,-0.125,0.73828125
1549,0.52734375,-0.125,0.73046875
1550,0.52734375,-0.109375,0.71875
1551,0.51953125,-0.12109375,0.7265625
1552,0.5234375,-0.12109375,0.71484375
1553,0.53125,-0.12109375,0.73828125
1554,0.51953125,-0.1171875,0.72265625
1555,0.53515625,-0.12890625,0.734375
1556,0.515625,-0.1171875,0.73046875
1557,0.5390625,-0.11328125,0.71875
1558,0.5078125,-0.12890625,0.703125
1559,0.51953125,-0.12109375,0.73046875
1560,0.51953125,-0.11328125,0.71484375
1561,0.51953125,-0.109375,0.71484375
1562,0.515625,-0.11328125,0.71875
1563,0.515625,-0.11328125,0.70703125
1564,0.51953125,-0.11328125,0.71875
1565,0.52734375,-0.125,0.72265625
1566,0.52734375,-0.12890625,0.71484375
1567,0.515625,-0.125,0.71484375
1568,0.515625,-0.12109375,0.7265625
1569,0.53125,-0.09375,0.70703125
1570,0.51953125,-0.12890625,0.72265625
1571,0.51953125,-0.1171875,0.71484375
1572,0.51171875,-0.12109375,0.71484375
1573,0.51953125,-0.1171875,0.7109375
1574,0.515625,-0.1171875,0.71484375
1575,0.51953125,-0.125,0.73828125
1576,0.49609375,-0.109375,0.71875
1577,0.53125,-0.12109375,0.71875
1578,0.51953125,-0.125,0.7265625
1579,0.53125,-0.12109375,0.73046875
1580,0.52734375,-0.11328125,0.7265625
1581,0.51953125,-0.11328125,0.73046875
1582,0.5234375,-0.12109375,0.7265625
1583,0.52734375,-0.1171875,0.7265625
1584,0.51953125,-0.12109375,0.72265625
1585,0.5234375,-0.12890625,0.70703125
1586,0.53125,-0.125,0.73046875
1587,0.515625,-0.11328125,0.73046875
1588,0.5078125,-0.125,0.73046875
1589,0.51953125,-0.1171875,0.734375
1590,0.51171875,-0.125,0.7265625
1591,0.53515625,-0.1328125,0.71875
1592,0.5234375,-0.12890625,0.71875
1593,0.515625,-0.12109375,0.70703125
1594,0.515625,-0.12109375,0.71484375
1595,0.515625,-0.1171875,0.73046875
1596,0.53125,-0.12890625,0.71875
1597,0.515625,-0.10546875,0.7265625
1598,0.515625,-0.12890625,0.73828125
1599,0.515625,-0.12109375,0.7109375
1600,0.5078125,-0.12890625,0.70703125
1601,0.51953125,-0.12890625,0.73828125
1602,0.53515625,-0.12890625,0.7265625
1603,0.52734375,-0.125,0.7109375
1604,0.5234375,-0.12109375,0.7265625
1605,0.5234375,-0.12109375,0.71484375
1606,0.515625,-0.1171875,0.72265625
1607,0.51953125,-0.11328125,0.7265625
1608,0.52734375,-0.1171875,0.72265625
1609,0.515625,-0.12890625,0.71484375
1610,0.51953125,-0.125,0.71875
1611,0.51171875,-0.109375,0.72265625
1612,0.51953125,-0.12890625,0.71484375
1613,0.52734375,-0.125,0.7109375
1614,0.53125,-0.11328125,0.72265625
1615,0.52734375,-0.12109375,0.703125
1616,0.51171875,-0.1171875,0.72265625
1617,0.52734375,-0.125,0.71484375
1618,0.51953125,-0.1171875,0.71875
1619,0.51171875,-0.12109375,0.7265625
1620,0.52734375,-0.1171875,0.71875
1621,0.5078125,-0.109375,0.7265625
1622,0.5234375,-0.1171875,0.71875
1623,0.5234375,-0.109375,0.70703125
1624,0.515625,-0.11328125,0.7109375
1625,0.515625,-0.12109375,0.73046875
1626,0.515625,-0.12109375,0.734375
1627,0.5234375,-0.125,0.71484375
1628,0.5234375,-0.12109375,0.734375
1629,0.5234375,-0.125,0.71875
1630,0.51953125,-0.12890625,0.70703125
1631,0.5234375,-0.125,0.7265625
1632,0.51953125,-0.125,0.71875
1633,0.52734375,-0.12109375,0.72265625
1634,0.52734375,-0.140625,0.71875
1635,0.52734375,-0.10546875,0.69921875
1636,0.515625,-0.12890625,0.7109375
1637,0.515625,-0.1171875,0.73046875
1638,0.515625,-0.12109375,0.72265625
1639,0.5234375,-0.10546875,0.72265625
1640,0.5234375,-0.125,0.73046875
1641,0.52734375,-0.12109375,0.703125
1642,0.53125,-0.1328125,0.73046875
1643,0.5234375,-0.13671875,0.69921875
1644,0.5078125,-0.125,0.71875
1645,0.53125,-0.1171875,0.734375
1646,0.5234375,-0.12109375,0.72265625
1647,0.5234375,-0.12109375,0.72265625
1648,0.51953125,-0.13671875,0.73046875
1649,0.5234375,-0.12109375,0.73046875
1650,0.5234375,-0.12109375,0.71875
1651,0.5234375,-0.12890625,0.703125
1652,0.51953125,-0.12109375,0.734375
1653,0.515625,-0.12109375,0.72265625
1654,0.53125,-0.12109375,0.70703125
1655,0.51953125,-0.11328125,0.7265625
1656,0.5390625,-0.140625,0.7265625
1657,0.51953125,-0.12109375,0.71875
1658,0.51953125,-0.125,0.71875
1659,0.515625,-0.1171875,0.7421875
1660,0.51171875,-0.1171875,0.73046875
1661,0.5234375,-0.1171875,0.7109375
1662,0.53125,-0.109375,0.73828125
1663,0.515625,-0.12109375,0.71875
1664,0.53515625,-0.125,0.72265625
1665,0.52734375,-0.125,0.7265625
1666,0.515625,-0.12109375,0.7265625
1667,0.50390625,-0.1171875,0.7265625
1668,0.53125,-0.125,0.71875
1669,0.515625,-0.11328125,0.72265625
1670,0.5234375,-0.1171875,0.73046875
1671,0.51953125,-0.11328125,0.71484375
1672,0.51953125,-0.1328125,0.734375
1673,0.5234375,-0.125,0.71484375
1674,0.5234375,-0.12890625,0.7109375
1675,0.515625,-0.11328125,0.7265625
1676,0.53125,-0.14453125,0.69921875
1677,0.5078125,-0.125,0.7109375
1678,0.4921875,-0.1171875,0.71875
1679,0.515625,-0.13671875,0.72265625
1680,0.51171875,-0.109375,0.72265625
1681,0.51953125,-0.109375,0.71875
1682,0.5390625,-0.11328125,0.71484375
1683,0.5078125,-0.12109375,0.71484375
1684,0.5234375,-0.12109375,0.71484375
1685,0.51953125,-0.11328125,0.7109375
1686,0.52734375,-0.12109375,0.7265625
1687,0.53515625,-0.13671875,0.71875
1688,0.53125,-0.12109375,0.73046875
1689,0.52734375,-0.12109375,0.7109375
1690,0.51171875,-0.125,0.72265625
1691,0.51171875,-0.1171875,0.71875
1692,0.53125,-0.1328125,0.7265625
1693,0.515625,-0.12109375,0.7265625
1694,0.515625,-0.12890625,0.71484375
1695,0.51953125,-0.13671875,0.72265625
1696,0.515625,-0.140625,0.72265625
1697,0.5234375,-0.13671875,0.73046875
1698,0.52734375,-0.12890625,0.73046875
1699,0.51171875,-0.140625,0.71875
1700,0.515625,-0.140625,0.69921875
1701,0.515625,-0.12890625,0.71484375
1702,0.515625,-0.12890625,0.734375
1703,0.5234375,-0.12890625,0.72265625
1704,0.53125,-0.12890625,0.72265625
1705,0.53125,-0.12890625,0.71875
1706,0.5234375,-0.12890625,0.7265625
1707,0.5078125,-0.11328125,0.72265625
1708,0.51171875,-0.12109375,0.71875
1709,0.515625,-0.1171875,0.71484375
1710,0.50390625,-0.125,0.7265625
1711,0.5234375,-0.12109375,0.71875
1712,0.5234375,-0.1171875,0.71875
1713,0.53125,-0.1171875,0.69921875
1714,0.5234375,-0.11328125,0.71484375
1715,0.5234375,-0.1171875,0.7265625
1716,0.515625,-0.1171875,0.71875
1717,0.50390625,-0.10546875,0.70703125
1718,0.51953125,-0.13671875,0.72265625
1719,0.515625,-0.109375,0.7109375
1720,0.515625,-0.10546875,0.71875
1721,0.51953125,-0.125,0.6953125
1722,0.51953125,-0.11328125,0.72265625
1723,0.5234375,-0.12890625,0.71875
1724,0.52734375,-0.12109375,0.7265625
1725,0.5234375,-0.125,0.72265625
1726,0.515625,-0.125,0.71484375
1727,0.515625,-0.12109375,0.73046875
1728,0.53125,-0.1328125,0.71484375
1729,0.50390625,-0.11328125,0.7109375
1730,0.53125,-0.1328125,0.734375
1731,0.53125,-0.12890625,0.72265625
1732,0.51953125,-0.1328125,0.70703125
1733,0.53125,-0.1171875,0.7109375
1734,0.5234375,-0.1171875,0.71875
1735,0.51953125,-0.11328125,0.7109375
1736,0.51953125,-0.125,0.71875
1737,0.52734375,-0.12890625,0.71484375
1738,0.52734375,-0.11328125,0.71875
1739,0.5234375,-0.12890625,0.72265625
1740,0.52734375,-0.13671875,0.72265625
1741,0.52734375,-0.13671875,0.71875
1742,0.51953125,-0.12890625,0.71875
1743,0.51953125,-0.11328125,0.75390625
1744,0.53125,-0.12890625,0.7109375
1745,0.5234375,-0.125,0.7109375
1746,0.52734375,-0.12890625,0.70703125
1747,0.5234375,-0.12890625,0.70703125
1748,0.51953125,-0.125,0.69921875
1749,0.515625,-0.1328125,0.71484375
1750,0.53515625,-0.12109375,0.70703125
1751,0.5234375,-0.12890625,0.7109375
1752,0.52734375,-0.1328125,0.703125
1753,0.52734375,-0.13671875,0.72265625
1754,0.51953125,-0.12109375,0.69921875
1755,0.5234375,-0.125,0.72265625
1756,0.515625,-0.125,0.7265625
1757,0.51953125,-0.1328125,0.73828125
1758,0.52734375,-0.13671875,0.71484375
1759,0.52734375,-0.125,0.7265625
1760,0.5234375,-0.140625,0.7109375
1761,0.515625,-0.12109375,0.71484375
1762,0.5234375,-0.125,0.71875
1763,0.53125,-0.12890625,0.71484375
1764,0.52734375,-0.12890625,0.703125
1765,0.53125,-0.1171875,0.72265625
1766,0.52734375,-0.1328125,0.703125
1767,0.515625,-0.12890625,0.71875
1768,0.53125,-0.13671875,0.72265625
1769,0.51953125,-0.125,0.72265625
1770,0.5234375,-0.125,0.7265625
1771,0.5234375,-0.1171875,0.71875
1772,0.5234375,-0.1328125,0.69921875
1773,0.51953125,-0.12109375,0.71484375
1774,0.53125,-0.1171875,0.73828125
1775,0.51953125,-0.12109375,0.73046875
1776,0.5234375,-0.1328125,0.7421875
1777,0.5078125,-0.12890625,0.71875
1778,0.5234375,-0.12109375,0.71875
1779,0.53515625,-0.12109375,0.7265625
1780,0.53515625,-0.12109375,0.7265625
1781,0.52734375,-0.140625,0.71484375
1782,0.53515625,-0.13671875,0.71875
1783,0.50390625,-0.12890625,0.7265625
1784,0.5234375,-0.1328125,0.72265625
1785,0.52734375,-0.125,0.7265625
1786,0.5078125,-0.1328125,0.72265625
1787,0.515625,-0.1328125,0.72265625
1788,0.53515625,-0.13671875,0.72265625
1789,0.5234375,-0.12890625,0.72265625
1790,0.52734375,-0.125,0.70703125
1791,0.52734375,-0.12109375,0.703125
1792,0.52734375,-0.12109375,0.7109375
1793,0.51953125,-0.125,0.7265625
1794,0.52734375,-0.125,0.71484375
1795,0.52734375,-0.12109375,0.71484375
1796,0.5234375,-0.12109375,0.71484375
1797,0.53125,-0.12890625,0.703125
1798,0.5234375,-0.13671875,0.7109375
1799,0.52734375,-0.11328125,0.70703125
1800,0.51953125,-0.1328125,0.7265625
1801,0.53125,-0.1328125,0.71875
1802,0.52734375,-0.1328125,0.71875
1803,0.515625,-0.12109375,0.71875
1804,0.53125,-0.125,0.71484375
1805,0.52734375,-0.125,0.71484375
1806,0.51953125,-0.12890625,0.72265625
1807,0.5234375,-0.125,0.72265625
1808,0.51953125,-0.15234375,0.6953125
1809,0.52734375,-0.13671875,0.70703125
1810,0.52734375,-0.125,0.7109375
1811,0.53125,-0.1328125,0.71484375
1812,0.5234375,-0.125,0.70703125
1813,0.5234375,-0.125,0.71484375
1814,0.52734375,-0.125,0.71484375
1815,0.52734375,-0.1328125,0.703125
1816,0.5234375,-0.12890625,0.71484375
1817,0.52734375,-0.1328125,0.71875
1818,0.5234375,-0.12890625,0.7109375
1819,0.5234375,-0.109375,0.6953125
1820,0.53515625,-0.1328125,0.71484375
1821,0.53125,-0.12890625,0.7109375
1822,0.5234375,-0.125,0.71484375
1823,0.53515625,-0.12890625,0.71484375
1824,0.53125,-0.12890625,0.73046875
1825,0.5234375,-0.13671875,0.72265625
1826,0.52734375,-0.13671875,0.71484375
1827,0.53125,-0.1171875,0.72265625
1828,0.51171875,-0.12109375,0.73046875
1829,0.515625,-0.12109375,0.69921875
1830,0.52734375,-0.13671875,0.71484375
1831,0.5234375,-0.1171875,0.703125
1832,0.5390625,-0.13671875,0.7109375
1833,0.53125,-0.125,0.72265625
1834,0.53515625,-0.1328125,0.71875
1835,0.515625,-0.12890625,0.71484375
1836,0.51953125,-0.11328125,0.72265625
1837,0.51171875,-0.12109375,0.7109375
1838,0.52734375,-0.14453125,0.71484375
1839,0.52734375,-0.125,0.7109375
1840,0.52734375,-0.1328125,0.70703125
1841,0.5234375,-0.1328125,0.72265625
1842,0.52734375,-0.125,0.70703125
1843,0.515625,-0.1171875,0.7109375
1844,0.515625,-0.1171875,0.73046875
1845,0.5234375,-0.1328125,0.71484375
1846,0.53515625,-0.12890625,0.71875
1847,0.53125,-0.1328125,0.7109375
1848,0.52734375,-0.140625,0.70703125
1849,0.51953125,-0.13671875,0.71484375
1850,0.51953125,-0.1328125,0.6953125
1851,0.51953125,-0.125,0.73046875
1852,0.51171875,-0.140625,0.71875
1853,0.53125,-0.13671875,0.7109375
1854,0.5234375,-0.12890625,0.70703125
1855,0.52734375,-0.1328125,0.70703125
1856,0.53125,-0.12890625,0.72265625
1857,0.51953125,-0.125,0.72265625
1858,0.51953125,-0.125,0.7265625
1859,0.5234375,-0.125,0.71875
1860,0.52734375,-0.12890625,0.71484375
1861,0.53515625,-0.12890625,0.7109375
1862,0.53125,-0.1328125,0.703125
1863,0.53515625,-0.15625,0.69140625
1864,0.52734375,-0.12890625,0.69921875
1865,0.51953125,-0.125,0.7109375
1866,0.5390625,-0.12890625,0.71875
1867,0.52734375,-0.12890625,0.703125
1868,0.51953125,-0.125,0.72265625
1869,0.53125,-0.12109375,0.73046875
1870,0.52734375,-0.140625,0.71875
1871,0.51171875,-0.1171875,0.71484375
1872,0.53515625,-0.125,0.70703125
1873,0.5234375,-0.1328125,0.71875
1874,0.546875,-0.14453125,0.71875
1875,0.51953125,-0.12109375,0.69921875
1876,0.52734375,-0.125,0.7109375
1877,0.5234375,-0.1328125,0.71484375
1878,0.52734375,-0.13671875,0.703125
1879,0.515625,-0.125,0.7109375
1880,0.515625,-0.12890625,0.734375
1881,0.52734375,-0.13671875,0.734375
1882,0.5234375,-0.140625,0.734375
1883,0.515625,-0.12109375,0.7265625
1884,0.52734375,-0.1328125,0.7421875
1885,0.50390625,-0.125,0.71484375
1886,0.52734375,-0.1328125,0.70703125
1887,0.52734375,-0.12890625,0.72265625
1888,0.52734375,-0.12109375,0.71484375
1889,0.53125,-0.12109375,0.72265625
1890,0.53125,-0.125,0.7109375
1891,0.52734375,-0.1171875,0.70703125
1892,0.5234375,-0.12109375,0.72265625
1893,0.52734375,-0.1328125,0.7109375
1894,0.53125,-0.11328125,0.703125
1895,0.515625,-0.12890625,0.7109375
1896,0.52734375,-0.12109375,0.70703125
1897,0.51953125,-0.12109375,0.7109375
1898,0.51953125,-0.125,0.70703125
1899,0.546875,-0.125,0.7109375
1900,0.53515625,-0.1328125,0.71875
1901,0.52734375,-0.12109375,0.72265625
1902,0.5234375,-0.125,0.70703125
1903,0.52734375,-0.140625,0.7109375
1904,0.52734375,-0.1171875,0.73828125
1905,0.53515625,-0.12109375,0.71484375
1906,0.53125,-0.125,0.73046875
1907,0.51953125,-0.140625,0.734375
1908,0.53125,-0.1328125,0.71484375
1909,0.53125,-0.12890625,0.71875
1910,0.52734375,-0.12890625,0.71875
1911,0.52734375,-0.12890625,0.70703125
1912,0.53515625,-0.1328125,0.71484375
1913,0.53125,-0.12890625,0.7109375
1914,0.53515625,-0.12109375,0.7265625
1915,0.5234375,-0.1171875,0.70703125
1916,0.51171875,-0.125,0.72265625
1917,0.51171875,-0.12109375,0.71484375
1918,0.52734375,-0.1171875,0.71875
1919,0.53125,-0.12890625,0.73046875
1920,0.53515625,-0.12890625,0.7109375
1921,0.5234375,-0.13671875,0.71484375
1922,0.53125,-0.140625,0.7265625
1923,0.53125,-0.1484375,0.71875
1924,0.5234375,-0.12890625,0.7109375
1925,0.52734375,-0.14453125,0.72265625
1926,0.52734375,-0.12109375,0.71875
1927,0.515625,-0.13671875,0.6953125
1928,0.5078125,-0.11328125,0.70703125
1929,0.5234375,-0.125,0.73046875
1930,0.51953125,-0.12890625,0.71875
1931,0.53125,-0.12890625,0.72265625
1932,0.5234375,-0.12890625,0.72265625
1933,0.51953125,-0.125,0.72265625
1934,0.5234375,-0.12109375,0.7265625
1935,0.53125,-0.125,0.71875
1936,0.52734375,-0.13671875,0.73046875
1937,0.52734375,-0.140625,0.71484375
1938,0.5234375,-0.1328125,0.72265625
1939,0.5234375,-0.109375,0.74609375
1940,0.52734375,-0.12890625,0.71875
1941,0.51953125,-0.12890625,0.7109375
1942,0.51953125,-0.125,0.7109375
1943,0.515625,-0.12109375,0.72265625
1944,0.51953125,-0.125,0.7109375
1945,0.53125,-0.140625,0.703125
1946,0.52734375,-0.125,0.72265625
1947,0.52734375,-0.12890625,0.72265625
1948,0.5234375,-0.1171875,0.70703125
1949,0.51171875,-0.125,0.703125
1950,0.54296875,-0.12109375,0.7265625
1951,0.53125,-0.125,0.7265625
1952,0.53125,-0.140625,0.73046875
1953,0.51171875,-0.12890625,0.71875
1954,0.53515625,-0.1328125,0.7109375
1955,0.53125,-0.125,0.71875
1956,0.51953125,-0.12109375,0.71484375
1957,0.52734375,-0.125,0.7109375
1958,0.5234375,-0.1171875,0.71484375
1959,0.52734375,-0.12890625,0.734375
1960,0.5234375,-0.1328125,0.71875
1961,0.515625,-0.13671875,0.69140625
1962,0.52734375,-0.12109375,0.71875
1963,0.52734375,-0.12890625,0.7109375
1964,0.51953125,-0.125,0.73046875
1965,0.52734375,-0.13671875,0.70703125
1966,0.515625,-0.140625,0.71484375
1967,0.53515625,-0.12109375,0.70703125
1968,0.5234375,-0.12890625,0.7265625
1969,0.5234375,-0.12109375,0.71484375
1970,0.51953125,-0.13671875,0.7109375
1971,0.52734375,-0.1328125,0.7109375
1972,0.51953125,-0.125,0.7421875
1973,0.52734375,-0.1328125,0.703125
1974,0.53125,-0.12109375,0.7109375
1975,0.52734375,-0.12109375,0.72265625
1976,0.5234375,-0.125,0.71484375
1977,0.52734375,-0.1328125,0.72265625
1978,0.5234375,-0.12109375,0.703125
1979,0.52734375,-0.1171875,0.72265625
1980,0.5234375,-0.140625,0.73046875
1981,0.51953125,-0.12109375,0.7265625
1982,0.53515625,-0.125,0.71484375
1983,0.5234375,-0.109375,0.72265625
1984,0.53125,-0.12109375,0.71875
1985,0.5234375,-0.1171875,0.7109375
1986,0.52734375,-0.1328125,0.72265625
1987,0.52734375,-0.12109375,0.73046875
1988,0.5234375,-0.1328125,0.72265625
1989,0.51171875,-0.1328125,0.72265625
1990,0.53125,-0.12890625,0.7265625
1991,0.51953125,-0.13671875,0.7109375
1992,0.52734375,-0.1328125,0.71875
1993,0.5234375,-0.140625,0.7265625
1994,0.515625,-0.125,0.71875
1995,0.52734375,-0.125,0.71484375
1996,0.5234375,-0.1328125,0.71484375
1997,0.5234375,-0.12109375,0.71484375
1998,0.51953125,-0.125,0.71875
1999,0.5234375,-0.1328125,0.71484375
2000,0.51171875,-0.12890625,0.7265625
2001,0.52734375,-0.12890625,0.7109375
2002,0.53125,-0.1328125,0.72265625
2003,0.51953125,-0.12109375,0.7109375
2004,0.515625,-0.125,0.71875
2005,0.51953125,-0.07421875,0.703125
2006,0.5078125,-0.1171875,0.72265625
2007,0.51953125,-0.12109375,0.73046875
2008,0.51953125,-0.1328125,0.70703125
2009,0.515625,-0.125,0.71875
2010,0.51953125,-0.125,0.72265625
2011,0.51953125,-0.125,0.72265625
2012,0.52734375,-0.12109375,0.73046875
2013,0.515625,-0.125,0.71875
2014,0.51171875,-0.125,0.7109375
2015,0.5,-0.12890625,0.73046875
2016,0.53125,-0.1328125,0.72265625
2017,0.52734375,-0.125,0.7265625
2018,0.52734375,-0.125,0.71875
2019,0.51171875,-0.12890625,0.72265625
2020,0.5234375,-0.125,0.71484375
2021,0.52734375,-0.125,0.7265625
2022,0.52734375,-0.125,0.71484375
2023,0.53125,-0.12890625,0.7265625
2024,0.5234375,-0.14453125,0.7109375
2025,0.52734375,-0.12109375,0.71875
2026,0.53125,-0.12890625,0.6875
2027,0.53515625,-0.12890625,0.71875
2028,0.53125,-0.1328125,0.7109375
2029,0.52734375,-0.125,0.72265625
2030,0.5234375,-0.12890625,0.72265625
2031,0.52734375,-0.125,0.73046875
2032,0.515625,-0.12890625,0.7265625
2033,0.52734375,-0.12890625,0.72265625
2034,0.515625,-0.12109375,0.73046875
2035,0.515625,-0.12890625,0.7109375
2036,0.5234375,-0.125,0.7265625
2037,0.54296875,-0.125,0.7578125
2038,0.52734375,-0.12890625,0.72265625
2039,0.515625,-0.125,0.71484375
2040,0.5234375,-0.13671875,0.70703125
2041,0.53125,-0.12890625,0.72265625
2042,0.53125,-0.13671875,0.71484375
2043,0.5234375,-0.12109375,0.72265625
2044,0.52734375,-0.1328125,0.703125
2045,0.5234375,-0.125,0.71875
2046,0.53515625,-0.13671875,0.70703125
2047,0.515625,-0.12109375,0.72265625
2048,0.51953125,-0.09765625,0.6875
2049,0.51953125,-0.12890625,0.71875
2050,0.51953125,-0.125,0.7109375
2051,0.53515625,-0.140625,0.71875
2052,0.51171875,-0.125,0.7265625
2053,0.51171875,-0.12890625,0.71875
2054,0.5234375,-0.12109375,0.71875
2055,0.51171875,-0.12109375,0.703125
2056,0.53125,-0.11328125,0.72265625
2057,0.5234375,-0.12109375,0.71875
2058,0.52734375,-0.1328125,0.7109375
2059,0.53125,-0.12890625,0.7109375
2060,0.52734375,-0.10546875,0.71875
2061,0.5234375,-0.1328125,0.7109375
2062,0.52734375,-0.125,0.71875
2063,0.5234375,-0.10546875,0.73046875
2064,0.51953125,-0.12890625,0.72265625
2065,0.5234375,-0.1328125,0.71875
2066,0.52734375,-0.125,0.71484375
2067,0.51953125,-0.12109375,0.72265625
2068,0.53515625,-0.125,0.71484375
2069,0.515625,-0.125,0.71484375
2070,0.53125,-0.11328125,0.72265625
2071,0.515625,-0.12109375,0.72265625
2072,0.51171875,-0.125,0.7265625
2073,0.515625,-0.1171875,0.7265625
2074,0.51953125,-0.140625,0.7265625
2075,0.51953125,-0.12890625,0.7265625
2076,0.52734375,-0.13671875,0.73828125
2077,0.515625,-0.12890625,0.72265625
2078,0.5234375,-0.12890625,0.7265625
2079,0.515625,-0.125,0.734375
2080,0.52734375,-0.12890625,0.73046875
2081,0.51953125,-0.12109375,0.72265625
2082,0.52734375,-0.125,0.71875
2083,0.5234375,-0.125,0.7265625
2084,0.51171875,-0.1171875,0.72265625
2085,0.5078125,-0.1171875,0.71484375
2086,0.5234375,-0.12109375,0.71484375
2087,0.515625,-0.1171875,0.71484375
2088,0.52734375,-0.12109375,0.71875
2089,0.5234375,-0.10546875,0.71875
2090,0.52734375,-0.125,0.7265625
2091,0.515625,-0.11328125,0.72265625
2092,0.5390625,-0.1015625,0.70703125
2093,0.515625,-0.12890625,0.7109375
2094,0.51953125,-0.12109375,0.7265625
2095,0.5234375,-0.125,0.7265625
2096,0.51953125,-0.12109375,0.71484375
2097,0.52734375,-0.125,0.72265625
2098,0.51171875,-0.12890625,0.71484375
2099,0.51171875,-0.1328125,0.7265625
2100,0.5234375,-0.125,0.71875
2101,0.53125,-0.125,0.71484375
2102,0.53515625,-0.125,0.71484375
2103,0.51171875,-0.125,0.73046875
2104,0.5234375,-0.12890625,0.7265625
2105,0.51171875,-0.12109375,0.71484375
2106,0.5234375,-0.125,0.71484375
2107,0.51953125,-0.12890625,0.72265625
2108,0.51953125,-0.12109375,0.7265625
2109,0.515625,-0.12109375,0.7109375
2110,0.53125,-0.125,0.70703125
2111,0.5390625,-0.12109375,0.71484375
2112,0.51171875,-0.1328125,0.7265625
2113,0.515625,-0.12109375,0.71875
2114,0.5234375,-0.1171875,0.72265625
2115,0.51953125,-0.109375,0.72265625
2116,0.5234375,-0.12109375,0.7265625
2117,0.5234375,-0.125,0.71484375
2118,0.515625,-0.12109375,0.71484375
2119,0.51953125,-0.12890625,0.71875
2120,0.51171875,-0.1328125,0.7265625
2121,0.5234375,-0.1328125,0.71484375
2122,0.52734375,-0.140625,0.70703125
2123,0.51953125,-0.12109375,0.703125
2124,0.54296875,-0.10546875,0.734375
2125,0.51953125,-0.125,0.73828125
2126,0.51171875,-0.12109375,0.71484375
2127,0.515625,-0.11328125,0.71484375
2128,0.51171875,-0.125,0.70703125
2129,0.515625,-0.1171875,0.72265625
2130,0.51171875,-0.125,0.73046875
2131,0.53125,-0.12109375,0.73828125
2132,0.53125,-0.125,0.734375
2133,0.53515625,-0.12890625,0.7109375
2134,0.515625,-0.125,0.72265625
2135,0.53125,-0.1171875,0.74609375
2136,0.5234375,-0.125,0.71875
2137,0.52734375,-0.11328125,0.73046875
2138,0.51953125,-0.1171875,0.71484375
2139,0.51171875,-0.12109375,0.72265625
2140,0.5234375,-0.12890625,0.7109375
2141,0.5234375,-0.125,0.71875
2142,0.5390625,-0.13671875,0.73046875
2143,0.515625,-0.125,0.7265625
2144,0.515625,-0.125,0.71875
2145,0.515625,-0.12890625,0.7109375
2146,0.4921875,-0.09375,0.703125
2147,0.515625,-0.125,0.71875
2148,0.5234375,-0.12109375,0.7109375
2149,0.5234375,-0.125,0.734375
2150,0.5234375,-0.1171875,0.7109375
2151,0.5234375,-0.1328125,0.73046875
2152,0.515625,-0.12890625,0.734375
2153,0.53125,-0.125,0.73828125
2154,0.52734375,-0.12890625,0.72265625
2155,0.515625,-0.12890625,0.703125
2156,0.51953125,-0.1171875,0.71484375
2157,0.53515625,-0.1484375,0.703125
2158,0.515625,-0.1171875,0.72265625
2159,0.515625,-0.12890625,0.72265625
2160,0.5234375,-0.125,0.7109375
2161,0.515625,-0.1171875,0.71484375
2162,0.515625,-0.12109375,0.70703125
2163,0.5234375,-0.12109375,0.71875
2164,0.515625,-0.12890625,0.7109375
2165,0.52734375,-0.12109375,0.7265625
2166,0.50390625,-0.12890625,0.71484375
2167,0.5078125,-0.12890625,0.73046875
2168,0.54296875,-0.109375,0.71484375
2169,0.515625,-0.12109375,0.71875
2170,0.51953125,-0.12109375,0.71484375
2171,0.515625,-0.1171875,0.7109375
2172,0.53125,-0.125,0.7109375
2173,0.51953125,-0.12109375,0.72265625
2174,0.5234375,-0.12109375,0.71875
2175,0.5390625,-0.1328125,0.71484375
2176,0.53515625,-0.125,0.71875
2177,0.53515625,-0.13671875,0.71875
2178,0.515625,-0.11328125,0.70703125
2179,0.52734375,-0.1171875,0.7578125
2180,0.51953125,-0.12109375,0.734375
2181,0.515625,-0.12109375,0.72265625
2182,0.5234375,-0.1328125,0.71875
2183,0.51953125,-0.125,0.73046875
2184,0.515625,-0.1328125,0.734375
2185,0.515625,-0.1171875,0.72265625
2186,0.5234375,-0.125,0.70703125
2187,0.5234375,-0.1328125,0.71875
2188,0.5078125,-0.12890625,0.71875
2189,0.53515625,-0.125,0.734375
2190,0.52734375,-0.140625,0.7109375
2191,0.52734375,-0.12109375,0.7265625
2192,0.515625,-0.125,0.7109375
2193,0.51953125,-0.12890625,0.71484375
2194,0.5234375,-0.12109375,0.70703125
2195,0.51953125,-0.125,0.71484375
2196,0.51171875,-0.12109375,0.71875
2197,0.50390625,-0.12890625,0.71484375
2198,0.52734375,-0.13671875,0.71484375
2199,0.52734375,-0.12109375,0.71484375
2200,0.5234375,-0.125,0.71875
2201,0.5546875,-0.125,0.7265625
2202,0.515625,-0.11328125,0.71484375
2203,0.51171875,-0.125,0.72265625
2204,0.52734375,-0.125,0.70703125
2205,0.51171875,-0.1171875,0.7265625
2206,0.515625,-0.12109375,0.7109375
2207,0.5234375,-0.1171875,0.71484375
2208,0.515625,-0.12109375,0.73828125
2209,0.51171875,-0.12890625,0.72265625
2210,0.5078125,-0.1328125,0.7109375
2211,0.52734375,-0.11328125,0.734375
2212,0.48828125,-0.1171875,0.71484375
2213,0.515625,-0.12109375,0.7265625
2214,0.51953125,-0.12890625,0.7265625
2215,0.51953125,-0.125,0.71484375
2216,0.51171875,-0.125,0.734375
2217,0.51171875,-0.125,0.72265625
2218,0.5234375,-0.13671875,0.71875
2219,0.5078125,-0.11328125,0.734375
2220,0.52734375,-0.1328125,0.71484375
2221,0.51953125,-0.11328125,0.7265625
2222,0.515625,-0.1015625,0.7109375
2223,0.51953125,-0.12109375,0.71484375
2224,0.5234375,-0.1171875,0.72265625
2225,0.51953125,-0.125,0.71875
2226,0.51953125,-0.1171875,0.7109375
2227,0.515625,-0.12890625,0.7265625
2228,0.5078125,-0.125,0.69921875
2229,0.5234375,-0.12109375,0.71484375
2230,0.51171875,-0.12109375,0.71484375
2231,0.5234375,-0.12109375,0.72265625
2232,0.5234375,-0.109375,0.734375
2233,0.53515625,-0.109375,0.7265625
2234,0.51171875,-0.1171875,0.72265625
2235,0.515625,-0.1171875,0.7265625
2236,0.51953125,-0.12109375,0.72265625
2237,0.5234375,-0.125,0.73046875
2238,0.5234375,-0.125,0.71875
2239,0.50390625,-0.125,0.71484375
2240,0.515625,-0.1171875,0.71875
2241,0.5234375,-0.125,0.72265625
2242,0.5234375,-0.1171875,0.72265625
2243,0.515625,-0.125,0.73046875
2244,0.55078125,-0.11328125,0.71875
2245,0.52734375,-0.1171875,0.71484375
2246,0.51953125,-0.12890625,0.7109375
2247,0.5234375,-0.12890625,0.71484375
2248,0.52734375,-0.12109375,0.72265625
2249,0.51953125,-0.109375,0.7265625
2250,0.5078125,-0.1171875,0.72265625
2251,0.5234375,-0.1328125,0.7109375
2252,0.50390625,-0.109375,0.73046875
2253,0.5234375,-0.12109375,0.7265625
2254,0.5234375,-0.11328125,0.71875
2255,0.50390625,-0.1171875,0.71875
2256,0.5234375,-0.125,0.72265625
2257,0.515625,-0.1171875,0.71484375
2258,0.515625,-0.125,0.72265625
2259,0.52734375,-0.1171875,0.73046875
2260,0.5234375,-0.125,0.73046875
2261,0.52734375,-0.125,0.71484375
2262,0.51171875,-0.1171875,0.7109375
2263,0.5234375,-0.125,0.71875
2264,0.5234375,-0.125,0.71875
2265,0.51171875,-0.125,0.71875
2266,0.5234375,-0.1171875,0.734375
2267,0.51953125,-0.12109375,0.734375
2268,0.51171875,-0.125,0.71875
2269,0.515625,-0.11328125,0.7265625
2270,0.5234375,-0.11328125,0.734375
2271,0.5234375,-0.109375,0.73046875
2272,0.5234375,-0.12109375,0.7109375
2273,0.53515625,-0.125,0.7265625
2274,0.52734375,-0.1171875,0.7265625
2275,0.515625,-0.12109375,0.7265625
2276,0.53125,-0.125,0.7265625
2277,0.52734375,-0.11328125,0.71875
2278,0.51953125,-0.1171875,0.71875
2279,0.51953125,-0.125,0.73046875
2280,0.51953125,-0.12890625,0.7265625
2281,0.515625,-0.12109375,0.72265625
2282,0.51171875,-0.125,0.7109375
2283,0.5078125,-0.1171875,0.7109375
2284,0.5078125,-0.125,0.71875
2285,0.5234375,-0.1171875,0.71484375
2286,0.515625,-0.12890625,0.71875
2287,0.5078125,-0.12109375,0.71484375
2288,0.50390625,-0.14453125,0.71484375
2289,0.51953125,-0.1171875,0.70703125
2290,0.51953125,-0.1171875,0.72265625
2291,0.5234375,-0.1171875,0.7265625
2292,0.51953125,-0.109375,0.73046875
2293,0.51953125,-0.11328125,0.7265625
2294,0.51953125,-0.125,0.72265625
2295,0.50390625,-0.11328125,0.73046875
2296,0.53515625,-0.125,0.7265625
2297,0.5234375,-0.11328125,0.73046875
2298,0.515625,-0.11328125,0.7265625
2299,0.515625,-0.1328125,0.7265625
2300,0.5234375,-0.11328125,0.72265625
2301,0.5234375,-0.109375,0.70703125
2302,0.53125,-0.12109375,0.71875
2303,0.5234375,-0.11328125,0.71875
2304,0.51953125,-0.12109375,0.73828125
2305,0.53125,-0.125,0.734375
2306,0.5234375,-0.12109375,0.72265625
2307,0.52734375,-0.125,0.7109375
2308,0.5234375,-0.125,0.6953125
2309,0.5078125,-0.11328125,0.73046875
2310,0.515625,-0.12109375,0.703125
2311,0.5078125,-0.1171875,0.71484375
2312,0.53125,-0.125,0.7265625
2313,0.5234375,-0.11328125,0.73046875
2314,0.51171875,-0.125,0.70703125
2315,0.51953125,-0.125,0.7265625
2316,0.5078125,-0.12109375,0.71875
2317,0.515625,-0.1171875,0.71484375
2318,0.51953125,-0.12109375,0.71875
2319,0.53125,-0.125,0.7109375
2320,0.53125,-0.12890625,0.72265625
2321,0.53125,-0.11328125,0.74609375
2322,0.5234375,-0.12890625,0.73046875
2323,0.51953125,-0.12109375,0.7109375
2324,0.51171875,-0.1171875,0.734375
2325,0.5078125,-0.1171875,0.72265625
2326,0.51953125,-0.12109375,0.71875
2327,0.515625,-0.12890625,0.73828125
2328,0.515625,-0.125,0.71875
2329,0.51171875,-0.12109375,0.7421875
2330,0.515625,-0.12109375,0.734375
2331,0.51171875,-0.12109375,0.73046875
2332,0.515625,-0.10546875,0.7265625
2333,0.53125,-0.12890625,0.7265625
2334,0.51953125,-0.12109375,0.72265625
2335,0.5390625,-0.12109375,0.703125
2336,0.51953125,-0.11328125,0.71875
2337,0.515625,-0.1171875,0.7109375
2338,0.5234375,-0.12109375,0.71484375
2339,0.5234375,-0.12109375,0.72265625
2340,0.52734375,-0.12109375,0.72265625
2341,0.5234375,-0.09375,0.7265625
2342,0.5234375,-0.11328125,0.734375
2343,0.52734375,-0.11328125,0.72265625
2344,0.515625,-0.11328125,0.7109375
2345,0.515625,-0.125,0.71875
2346,0.5234375,-0.125,0.7265625
2347,0.51953125,-0.1171875,0.73046875
2348,0.51953125,-0.12109375,0.71875
2349,0.51953125,-0.140625,0.7265625
2350,0.52734375,-0.12890625,0.71875
2351,0.51953125,-0.125,0.7109375
2352,0.5234375,-0.1171875,0.72265625
2353,0.51953125,-0.10546875,0.70703125
2354,0.5078125,-0.12890625,0.71875
2355,0.51953125,-0.109375,0.7265625
2356,0.53515625,-0.1328125,0.73046875
2357,0.5234375,-0.109375,0.73046875
2358,0.51953125,-0.12109375,0.73046875
2359,0.5234375,-0.12890625,0.72265625
2360,0.52734375,-0.125,0.73046875
2361,0.51953125,-0.12109375,0.72265625
2362,0.51171875,-0.109375,0.73828125
2363,0.5078125,-0.109375,0.734375
2364,0.515625,-0.11328125,0.7109375
2365,0.5078125,-0.12109375,0.71875
2366,0.51171875,-0.11328125,0.7109375
2367,0.515625,-0.125,0.7265625
2368,0.515625,-0.12109375,0.71484375
2369,0.5234375,-0.12109375,0.734375
2370,0.51953125,-0.1171875,0.71875
2371,0.51953125,-0.1171875,0.7265625
2372,0.51171875,-0.125,0.73046875
2373,0.52734375,-0.125,0.734375
2374,0.51953125,-0.13671875,0.70703125
2375,0.515625,-0.11328125,0.73046875
2376,0.51953125,-0.12109375,0.73828125
2377,0.515625,-0.1171875,0.73046875
2378,0.52734375,-0.11328125,0.734375
2379,0.52734375,-0.125,0.7265625
2380,0.5078125,-0.11328125,0.7109375
2381,0.515625,-0.11328125,0.71484375
2382,0.515625,-0.12109375,0.7109375
2383,0.52734375,-0.125,0.71484375
2384,0.5234375,-0.12890625,0.71875
2385,0.53125,-0.13671875,0.7109375
2386,0.5234375,-0.12890625,0.70703125
2387,0.52734375,-0.12890625,0.71875
2388,0.5234375,-0.1328125,0.70703125
2389,0.52734375,-0.1328125,0.73828125
2390,0.52734375,-0.125,0.70703125
2391,0.5234375,-0.125,0.71875
2392,0.51171875,-0.12109375,0.71875
2393,0.49609375,-0.11328125,0.7109375
2394,0.5234375,-0.1328125,0.734375
2395,0.51953125,-0.125,0.71484375
2396,0.51953125,-0.12890625,0.71875
2397,0.53515625,-0.1328125,0.7109375
2398,0.5234375,-0.13671875,0.734375
2399,0.5234375,-0.125,0.7265625
2400,0.5234375,-0.12890625,0.71875
2401,0.51171875,-0.12109375,0.71484375
2402,0.5078125,-0.11328125,0.71484375
2403,0.5234375,-0.109375,0.734375
2404,0.51171875,-0.12109375,0.7265625
2405,0.51953125,-0.12109375,0.71484375
2406,0.51953125,-0.12890625,0.7109375
2407,0.5234375,-0.13671875,0.73046875
2408,0.5234375,-0.12109375,0.71875
2409,0.51953125,-0.1171875,0.7265625
2410,0.53125,-0.12109375,0.7265625
2411,0.49609375,-0.12109375,0.71484375
2412,0.515625,-0.1171875,0.7265625
2413,0.51953125,-0.10546875,0.7109375
2414,0.5234375,-0.12890625,0.7265625
2415,0.515625,-0.109375,0.71484375
2416,0.51171875,-0.12109375,0.703125
2417,0.515625,-0.1328125,0.7265625
2418,0.51171875,-0.12109375,0.7265625
2419,0.5234375,-0.12890625,0.71875
2420,0.5234375,-0.10546875,0.72265625
2421,0.51953125,-0.11328125,0.71484375
2422,0.5234375,-0.1171875,0.7265625
2423,0.51953125,-0.12890625,0.7265625
2424,0.51953125,-0.12109375,0.7109375
2425,0.52734375,-0.12890625,0.7109375
2426,0.53125,-0.11328125,0.73828125
2427,0.53515625,-0.125,0.7109375
2428,0.52734375,-0.11328125,0.73828125
2429,0.51171875,-0.11328125,0.71484375
2430,0.515625,-0.1328125,0.7265625
2431,0.515625,-0.109375,0.72265625
2432,0.5234375,-0.11328125,0.72265625
2433,0.52734375,-0.12109375,0.71875
2434,0.52734375,-0.125,0.7265625
2435,0.51953125,-0.11328125,0.703125
2436,0.52734375,-0.11328125,0.72265625
2437,0.53515625,-0.12890625,0.73046875
2438,0.53125,-0.1171875,0.73828125
2439,0.51953125,-0.125,0.734375
2440,0.5234375,-0.109375,0.71875
2441,0.53515625,-0.1171875,0.6953125
2442,0.52734375,-0.1171875,0.71875
2443,0.515625,-0.1171875,0.71484375
2444,0.52734375,-0.125,0.71484375
2445,0.51953125,-0.12109375,0.71875
2446,0.51953125,-0.1171875,0.71484375
2447,0.5234375,-0.12890625,0.7265625
2448,0.51953125,-0.13671875,0.7109375
2449,0.5234375,-0.12109375,0.71875
2450,0.51171875,-0.11328125,0.71875
2451,0.515625,-0.1796875,0.73046875
2452,0.51953125,-0.12109375,0.71484375
2453,0.51953125,-0.125,0.70703125
2454,0.51953125,-0.125,0.7265625
2455,0.52734375,-0.11328125,0.7109375
2456,0.51171875,-0.12109375,0.71484375
2457,0.51953125,-0.1171875,0.72265625
2458,0.52734375,-0.12890625,0.73046875
2459,0.51953125,-0.125,0.7109375
2460,0.52734375,-0.109375,0.71484375
2461,0.515625,-0.12109375,0.71875
2462,0.484375,-0.15234375,0.7109375
2463,0.51953125,-0.125,0.7109375
2464,0.52734375,-0.11328125,0.71484375
2465,0.515625,-0.1171875,0.72265625
2466,0.515625,-0.11328125,0.71484375
2467,0.5234375,-0.125,0.71484375
2468,0.5234375,-0.1171875,0.72265625
2469,0.515625,-0.1171875,0.7109375
2470,0.51171875,-0.12890625,0.71484375
2471,0.5234375,-0.11328125,0.734375
2472,0.5234375,-0.1328125,0.72265625
2473,0.515625,-0.11328125,0.71875
2474,0.515625,-0.12109375,0.71875
2475,0.53125,-0.125,0.6953125
2476,0.53125,-0.12109375,0.70703125
2477,0.51953125,-0.125,0.71484375
2478,0.52734375,-0.12890625,0.7265625
2479,0.51953125,-0.125,0.71875
2480,0.50390625,-0.1328125,0.72265625
2481,0.52734375,-0.12109375,0.71875
2482,0.51953125,-0.12890625,0.72265625
2483,0.51953125,-0.12890625,0.7421875
2484,0.515625,-0.171875,0.73828125
2485,0.5234375,-0.1328125,0.73828125
2486,0.52734375,-0.12890625,0.72265625
2487,0.52734375,-0.1171875,0.71875
2488,0.52734375,-0.12890625,0.72265625
2489,0.5234375,-0.125,0.72265625
2490,0.53125,-0.1328125,0.71875
2491,0.515625,-0.125,0.73046875
2492,0.52734375,-0.1328125,0.7109375
2493,0.52734375,-0.1171875,0.71484375
2494,0.51953125,-0.11328125,0.7265625
2495,0.52734375,-0.11328125,0.71875
2496,0.51953125,-0.125,0.70703125
2497,0.5234375,-0.12109375,0.703125
2498,0.5078125,-0.1171875,0.71875
2499,0.515625,-0.12109375,0.70703125
2500,0.5390625,-0.12890625,0.73046875
2501,0.52734375,-0.12109375,0.73046875
2502,0.52734375,-0.11328125,0.70703125
2503,0.52734375,-0.12890625,0.72265625
2504,0.51171875,-0.125,0.7265625
2505,0.51953125,-0.125,0.72265625
2506,0.52734375,-0.11328125,0.72265625
2507,0.51953125,-0.125,0.72265625
2508,0.52734375,-0.1328125,0.734375
2509,0.51171875,-0.11328125,0.7109375
2510,0.53515625,-0.125,0.72265625
2511,0.51953125,-0.125,0.7265625
2512,0.52734375,-0.1328125,0.703125
2513,0.51953125,-0.125,0.72265625
2514,0.51953125,-0.1171875,0.7109375
2515,0.53125,-0.13671875,0.7109375
2516,0.53125,-0.1328125,0.71484375
2517,0.52734375,-0.09765625,0.7421875
2518,0.53125,-0.125,0.69921875
2519,0.5234375,-0.1171875,0.72265625
2520,0.53515625,-0.125,0.70703125
2521,0.52734375,-0.12109375,0.72265625
2522,0.52734375,-0.13671875,0.7109375
2523,0.515625,-0.125,0.69921875
2524,0.52734375,-0.12890625,0.72265625
2525,0.5234375,-0.1328125,0.73046875
2526,0.5234375,-0.12890625,0.71484375
2527,0.5234375,-0.14453125,0.71484375
2528,0.5234375,-0.12109375,0.7109375
2529,0.5234375,-0.1328125,0.703125
2530,0.5390625,-0.13671875,0.703125
2531,0.5234375,-0.12109375,0.71484375
2532,0.5234375,-0.12890625,0.71484375
2533,0.53125,-0.1171875,0.71484375
2534,0.52734375,-0.11328125,0.7265625
2535,0.51171875,-0.1171875,0.734375
2536,0.53125,-0.1171875,0.703125
2537,0.515625,-0.12890625,0.70703125
2538,0.5546875,-0.125,0.703125
2539,0.5234375,-0.1328125,0.7265625
2540,0.52734375,-0.13671875,0.71875
2541,0.51953125,-0.11328125,0.71875
2542,0.53125,-0.12890625,0.70703125
2543,0.5234375,-0.125,0.7265625
2544,0.53515625,-0.12109375,0.7265625
2545,0.515625,-0.12890625,0.71484375
2546,0.5234375,-0.11328125,0.71875
2547,0.51953125,-0.12890625,0.73046875
2548,0.51953125,-0.125,0.7109375
2549,0.515625,-0.1171875,0.71484375
2550,0.51953125,-0.12109375,0.7109375
2551,0.5234375,-0.12890625,0.7265625
2552,0.52734375,-0.12890625,0.72265625
2553,0.5234375,-0.12109375,0.71875
2554,0.53125,-0.12890625,0.71484375
2555,0.5234375,-0.125,0.72265625
2556,0.52734375,-0.125,0.703125
2557,0.53125,-0.1328125,0.7265625
2558,0.52734375,-0.1328125,0.703125
2559,0.53125,-0.125,0.72265625
2560,0.50390625,-0.1015625,0.71875
2561,0.5234375,-0.12890625,0.71875
2562,0.53515625,-0.125,0.73046875
2563,0.51953125,-0.1171875,0.71484375
2564,0.52734375,-0.125,0.71875
2565,0.51953125,-0.125,0.71484375
2566,0.51953125,-0.12109375,0.7265625
2567,0.52734375,-0.12109375,0.71875
2568,0.52734375,-0.12890625,0.71875
2569,0.51953125,-0.12109375,0.71875
2570,0.50390625,-0.12890625,0.70703125
2571,0.53125,-0.12109375,0.703125
2572,0.51171875,-0.1328125,0.71484375
2573,0.51953125,-0.125,0.71484375
2574,0.52734375,-0.1171875,0.73046875
2575,0.515625,-0.12890625,0.72265625
2576,0.51953125,-0.125,0.71484375
2577,0.5390625,-0.140625,0.70703125
2578,0.54296875,-0.1328125,0.70703125
2579,0.51953125,-0.1328125,0.71484375
2580,0.53125,-0.12890625,0.72265625
2581,0.5234375,-0.12890625,0.71875
2582,0.51171875,-0.125,0.703125
2583,0.52734375,-0.125,0.7109375
2584,0.52734375,-0.12109375,0.7265625
2585,0.52734375,-0.12890625,0.7109375
2586,0.52734375,-0.14453125,0.71875
2587,0.53125,-0.12109375,0.72265625
2588,0.52734375,-0.1171875,0.70703125
2589,0.53125,-0.125,0.7109375
2590,0.51953125,-0.1171875,0.7265625
2591,0.5390625,-0.125,0.70703125
2592,0.515625,-0.12890625,0.71875
2593,0.54296875,-0.140625,0.72265625
2594,0.5234375,-0.125,0.72265625
2595,0.53125,-0.12109375,0.72265625
2596,0.53125,-0.1328125,0.7265625
2597,0.5234375,-0.1328125,0.73046875
2598,0.5234375,-0.125,0.71875
2599,0.53515625,-0.12890625,0.72265625
2600,0.5078125,-0.12109375,0.7265625
2601,0.5234375,-0.125,0.734375
2602,0.51953125,-0.1171875,0.7265625
2603,0.515625,-0.109375,0.71875
2604,0.5234375,-0.12890625,0.72265625
2605,0.51953125,-0.125,0.72265625
2606,0.51953125,-0.125,0.71484375
2607,0.53125,-0.12890625,0.73046875
2608,0.52734375,-0.12109375,0.71484375
2609,0.515625,-0.12109375,0.71484375
2610,0.51953125,-0.12109375,0.71484375
2611,0.51953125,-0.11328125,0.73828125
2612,0.51171875,-0.12109375,0.71875
2613,0.5234375,-0.125,0.71875
2614,0.51171875,-0.1171875,0.6953125
2615,0.51953125,-0.12109375,0.75390625
2616,0.53125,-0.12890625,0.703125
2617,0.5234375,-0.12109375,0.7109375
2618,0.5234375,-0.125,0.71875
2619,0.51953125,-0.12890625,0.72265625
2620,0.53125,-0.125,0.703125
2621,0.53125,-0.12890625,0.703125
2622,0.51953125,-0.1171875,0.7109375
2623,0.53515625,-0.12890625,0.71875
2624,0.546875,-0.1328125,0.70703125
2625,0.5234375,-0.14453125,0.7109375
2626,0.515625,-0.12109375,0.7265625
2627,0.52734375,-0.12890625,0.71484375
2628,0.52734375,-0.12890625,0.71875
2629,0.52734375,-0.1328125,0.72265625
2630,0.52734375,-0.125,0.7109375
2631,0.53515625,-0.12890625,0.7109375
2632,0.52734375,-0.12109375,0.71875
2633,0.52734375,-0.12890625,0.734375
2634,0.53125,-0.13671875,0.7109375
2635,0.52734375,-0.125,0.71484375
2636,0.5234375,-0.1328125,0.73046875
2637,0.52734375,-0.12890625,0.703125
2638,0.53125,-0.13671875,0.71875
2639,0.5234375,-0.12109375,0.7109375
2640,0.5234375,-0.12109375,0.6953125
2641,0.52734375,-0.12109375,0.73046875
2642,0.515625,-0.12109375,0.70703125
2643,0.52734375,-0.12890625,0.7265625
2644,0.51953125,-0.125,0.71875
2645,0.5078125,-0.109375,0.7265625
2646,0.5234375,-0.12890625,0.7109375
2647,0.53125,-0.125,0.734375
2648,0.53125,-0.12890625,0.7109375
2649,0.51953125,-0.12890625,0.71484375
2650,0.5078125,-0.11328125,0.71484375
2651,0.52734375,-0.12109375,0.7265625
2652,0.5234375,-0.125,0.734375
2653,0.53125,-0.1171875,0.73046875
2654,0.5234375,-0.12109375,0.71875
2655,0.54296875,-0.13671875,0.73046875
2656,0.52734375,-0.125,0.7421875
2657,0.546875,-0.125,0.7265625
2658,0.5390625,-0.125,0.69921875
2659,0.515625,-0.125,0.7265625
2660,0.53125,-0.12890625,0.71484375
2661,0.5234375,-0.12890625,0.72265625
2662,0.51953125,-0.12890625,0.71875
2663,0.52734375,-0.125,0.7265625
2664,0.51953125,-0.13671875,0.7109375
2665,0.52734375,-0.15234375,0.7109375
2666,0.5390625,-0.1328125,0.7265625
2667,0.5234375,-0.12890625,0.734375
2668,0.5234375,-0.1328125,0.71484375
2669,0.546875,-0.1328125,0.6953125
2670,0.53125,-0.12890625,0.72265625
2671,0.51953125,-0.125,0.7109375
2672,0.52734375,-0.12890625,0.71875
2673,0.52734375,-0.125,0.71484375
2674,0.53515625,-0.13671875,0.72265625
2675,0.53125,-0.13671875,0.7265625
2676,0.52734375,-0.125,0.73046875
2677,0.546875,-0.125,0.71484375
2678,0.52734375,-0.12109375,0.7109375
2679,0.51171875,-0.12890625,0.72265625
2680,0.51171875,-0.1328125,0.70703125
2681,0.515625,-0.12890625,0.71875
2682,0.5390625,-0.12109375,0.703125
2683,0.53125,-0.12890625,0.6953125
2684,0.51953125,-0.1171875,0.71484375
2685,0.53125,-0.12890625,0.70703125
2686,0.53125,-0.12890625,0.72265625
2687,0.52734375,-0.12109375,0.7421875
2688,0.53125,-0.12109375,0.72265625
2689,0.53515625,-0.12890625,0.73046875
2690,0.5234375,-0.12109375,0.7109375
2691,0.51953125,-0.15234375,0.71484375
2692,0.51953125,-0.12109375,0.70703125
2693,0.52734375,-0.13671875,0.71875
2694,0.52734375,-0.12109375,0.71875
2695,0.5234375,-0.12109375,0.71875
2696,0.52734375,-0.125,0.6953125
2697,0.515625,-0.1171875,0.71484375
2698,0.515625,-0.12890625,0.71875
2699,0.52734375,-0.13671875,0.71875
2700,0.52734375,-0.1171875,0.72265625
2701,0.54296875,-0.140625,0.72265625
2702,0.5,-0.109375,0.73828125
2703,0.5234375,-0.12890625,0.7109375
2704,0.53125,-0.12890625,0.71484375
2705,0.52734375,-0.125,0.70703125
2706,0.5234375,-0.12890625,0.7265625
2707,0.53515625,-0.1328125,0.72265625
2708,0.53515625,-0.125,0.71484375
2709,0.5234375,-0.125,0.73046875
2710,0.52734375,-0.1328125,0.71484375
2711,0.5234375,-0.12890625,0.734375
2712,0.53125,-0.12890625,0.70703125
2713,0.5390625,-0.11328125,0.72265625
2714,0.515625,-0.13671875,0.7109375
2715,0.52734375,-0.140625,0.72265625
2716,0.53125,-0.1328125,0.70703125
2717,0.53125,-0.140625,0.71484375
2718,0.52734375,-0.12109375,0.73828125
2719,0.5234375,-0.125,0.72265625
2720,0.53125,-0.12109375,0.7265625
2721,0.52734375,-0.12890625,0.7265625
2722,0.5234375,-0.12890625,0.70703125
2723,0.52734375,-0.12890625,0.72265625
2724,0.546875,-0.15234375,0.73828125
2725,0.5234375,-0.125,0.7109375
2726,0.5234375,-0.125,0.70703125
2727,0.51953125,-0.12890625,0.72265625
2728,0.515625,-0.1171875,0.71484375
2729,0.515625,-0.12109375,0.73046875
2730,0.51953125,-0.11328125,0.7265625
2731,0.51953125,-0.1328125,0.71484375
2732,0.5234375,-0.1171875,0.7109375
2733,0.52734375,-0.1328125,0.7109375
2734,0.51171875,-0.140625,0.73046875
2735,0.51953125,-0.1171875,0.71484375
2736,0.52734375,-0.12890625,0.73828125
2737,0.5234375,-0.125,0.72265625
2738,0.53125,-0.125,0.7265625
2739,0.53125,-0.12890625,0.734375
2740,0.5234375,-0.125,0.72265625
2741,0.53515625,-0.13671875,0.70703125
2742,0.5234375,-0.125,0.71875
2743,0.515625,-0.12109375,0.71484375
2744,0.51171875,-0.10546875,0.72265625
2745,0.515625,-0.125,0.6875
2746,0.53515625,-0.1171875,0.7109375
2747,0.52734375,-0.125,0.71484375
2748,0.53515625,-0.1171875,0.70703125
2749,0.5234375,-0.12890625,0.73046875
2750,0.52734375,-0.13671875,0.73828125
2751,0.53125,-0.125,0.71875
2752,0.52734375,-0.1328125,0.72265625
2753,0.5234375,-0.125,0.7109375
2754,0.51953125,-0.12890625,0.71484375
2755,0.53125,-0.13671875,0.73046875
2756,0.578125,-0.12890625,0.7265625
2757,0.53515625,-0.125,0.70703125
2758,0.51953125,-0.1171875,0.7109375
2759,0.52734375,-0.125,0.72265625
2760,0.52734375,-0.1328125,0.71875
2761,0.5234375,-0.13671875,0.71875
2762,0.53125,-0.1328125,0.70703125
2763,0.5234375,-0.13671875,0.7265625
2764,0.5234375,-0.12890625,0.72265625
2765,0.5234375,-0.125,0.69921875
2766,0.51953125,-0.13671875,0.71484375
2767,0.51953125,-0.12109375,0.76171875
2768,0.53125,-0.12890625,0.73046875
2769,0.52734375,-0.1328125,0.73046875
2770,0.5234375,-0.125,0.71484375
2771,0.51171875,-0.125,0.72265625
2772,0.515625,-0.125,0.71875
2773,0.52734375,-0.125,0.703125
2774,0.515625,-0.12890625,0.70703125
2775,0.53515625,-0.12890625,0.73046875
2776,0.515625,-0.12890625,0.70703125
2777,0.52734375,-0.12109375,0.7265625
2778,0.53125,-0.1328125,0.71484375
2779,0.51953125,-0.1171875,0.70703125
2780,0.52734375,-0.125,0.70703125
2781,0.51953125,-0.12109375,0.73046875
2782,0.5234375,-0.1328125,0.71875
2783,0.5234375,-0.1171875,0.7109375
2784,0.51171875,-0.13671875,0.734375
2785,0.52734375,-0.12109375,0.72265625
2786,0.51953125,-0.13671875,0.73828125
2787,0.52734375,-0.1171875,0.6953125
2788,0.52734375,-0.125,0.73046875
2789,0.5390625,-0.125,0.73828125
2790,0.52734375,-0.125,0.7265625
2791,0.5234375,-0.12109375,0.71484375
2792,0.53515625,-0.12109375,0.73046875
2793,0.5234375,-0.125,0.71875
2794,0.53125,-0.12109375,0.71484375
2795,0.51953125,-0.12890625,0.71484375
2796,0.5234375,-0.125,0.71875
2797,0.5234375,-0.11328125,0.7265625
2798,0.53515625,-0.12890625,0.71484375
2799,0.515625,-0.125,0.734375
2800,0.515625,-0.1328125,0.71875
2801,0.51953125,-0.140625,0.73046875
2802,0.5234375,-0.13671875,0.71484375
2803,0.51953125,-0.12109375,0.71875
2804,0.5234375,-0.140625,0.70703125
2805,0.515625,-0.125,0.72265625
2806,0.5234375,-0.12890625,0.7109375
2807,0.51953125,-0.13671875,0.72265625
2808,0.51953125,-0.12109375,0.71484375
2809,0.52734375,-0.1328125,0.72265625
2810,0.51953125,-0.125,0.703125
2811,0.52734375,-0.14453125,0.7421875
2812,0.5234375,-0.125,0.71875
2813,0.51953125,-0.1328125,0.71484375
2814,0.52734375,-0.12109375,0.7265625
2815,0.53515625,-0.125,0.71875
2816,0.5234375,-0.11328125,0.7109375
2817,0.52734375,-0.12109375,0.7109375
2818,0.5234375,-0.12890625,0.72265625
2819,0.5234375,-0.125,0.73046875
2820,0.515625,-0.125,0.73828125
2821,0.51171875,-0.125,0.71875
2822,0.49609375,-0.12109375,0.71875
2823,0.515625,-0.125,0.71484375
2824,0.5234375,-0.12890625,0.7265625
2825,0.53125,-0.1328125,0.734375
2826,0.515625,-0.13671875,0.71484375
2827,0.515625,-0.12109375,0.7265625
2828,0.52734375,-0.13671875,0.7109375
2829,0.51171875,-0.13671875,0.71875
2830,0.5234375,-0.125,0.7109375
2831,0.5078125,-0.12890625,0.71875
2832,0.515625,-0.140625,0.73046875
2833,0.52734375,-0.12890625,0.7265625
2834,0.52734375,-0.1328125,0.7109375
2835,0.51953125,-0.125,0.71484375
2836,0.51953125,-0.125,0.7265625
2837,0.51953125,-0.12890625,0.7265625
2838,0.51953125,-0.12109375,0.72265625
2839,0.51953125,-0.125,0.7421875
2840,0.5234375,-0.13671875,0.703125
2841,0.5234375,-0.12109375,0.7265625
2842,0.5234375,-0.125,0.73046875
2843,0.515625,-0.12109375,0.75390625
2844,0.52734375,-0.1171875,0.71875
2845,0.53125,-0.125,0.71484375
2846,0.52734375,-0.1171875,0.7265625
2847,0.52734375,-0.1328125,0.71875
2848,0.52734375,-0.1171875,0.7265625
2849,0.51171875,-0.125,0.72265625
2850,0.53125,-0.125,0.72265625
2851,0.5390625,-0.1171875,0.7265625
2852,0.53125,-0.125,0.71484375
2853,0.52734375,-0.12109375,0.73046875
2854,0.5,-0.1015625,0.73046875
2855,0.51953125,-0.12890625,0.72265625
2856,0.53125,-0.125,0.7265625
2857,0.52734375,-0.125,0.72265625
2858,0.53125,-0.125,0.73046875
2859,0.52734375,-0.13671875,0.71875
2860,0.51171875,-0.125,0.70703125
2861,0.5234375,-0.109375,0.7265625
2862,0.52734375,-0.1328125,0.734375
2863,0.5234375,-0.13671875,0.71875
2864,0.53125,-0.1328125,0.734375
2865,0.515625,-0.12890625,0.71484375
2866,0.5234375,-0.12109375,0.72265625
2867,0.5234375,-0.125,0.71875
2868,0.51953125,-0.12890625,0.734375
2869,0.51171875,-0.125,0.71875
2870,0.5234375,-0.12890625,0.7109375
2871,0.515625,-0.125,0.7265625
2872,0.51953125,-0.1171875,0.72265625
2873,0.515625,-0.1171875,0.703125
2874,0.53125,-0.1328125,0.71875
2875,0.5234375,-0.11328125,0.71875
2876,0.50390625,-0.1015625,0.7109375
2877,0.51171875,-0.12109375,0.7265625
2878,0.51953125,-0.1171875,0.703125
2879,0.53125,-0.125,0.7109375
2880,0.5234375,-0.12890625,0.7109375
2881,0.515625,-0.12109375,0.71484375
2882,0.51953125,-0.12109375,0.71875
2883,0.52734375,-0.125,0.71484375
2884,0.51171875,-0.1328125,0.69921875
2885,0.51953125,-0.12109375,0.734375
2886,0.51953125,-0.12890625,0.72265625
2887,0.51171875,-0.11328125,0.7265625
2888,0.52734375,-0.125,0.71484375
2889,0.51953125,-0.125,0.73046875
2890,0.5234375,-0.12890625,0.72265625
2891,0.51953125,-0.12890625,0.72265625
2892,0.51171875,-0.125,0.71484375
2893,0.52734375,-0.12890625,0.71875
2894,0.5234375,-0.12890625,0.71875
2895,0.5234375,-0.12890625,0.73046875
2896,0.5234375,-0.12109375,0.72265625
2897,0.52734375,-0.140625,0.70703125
2898,0.51953125,-0.125,0.75390625
2899,0.53125,-0.12109375,0.703125
2900,0.52734375,-0.1171875,0.72265625
2901,0.53125,-0.12109375,0.71484375
2902,0.51953125,-0.12109375,0.72265625
2903,0.52734375,-0.140625,0.73828125
2904,0.52734375,-0.1328125,0.73828125
2905,0.53125,-0.11328125,0.73046875
2906,0.52734375,-0.125,0.7265625
2907,0.51953125,-0.1328125,0.7265625
2908,0.515625,-0.13671875,0.7109375
2909,0.54296875,-0.12890625,0.7578125
2910,0.515625,-0.12109375,0.71484375
2911,0.53125,-0.12890625,0.7265625
2912,0.515625,-0.12109375,0.71875
2913,0.52734375,-0.125,0.73046875
2914,0.5078125,-0.125,0.70703125
2915,0.51953125,-0.12109375,0.71875
2916,0.53515625,-0.12890625,0.72265625
2917,0.52734375,-0.13671875,0.71484375
2918,0.5234375,-0.125,0.71875
2919,0.51953125,-0.11328125,0.73046875
2920,0.546875,-0.1015625,0.7265625
2921,0.515625,-0.1171875,0.71875
2922,0.52734375,-0.12890625,0.734375
2923,0.53125,-0.12890625,0.7109375
2924,0.53125,-0.1328125,0.72265625
2925,0.5234375,-0.12109375,0.73046875
2926,0.5234375,-0.12890625,0.71484375
2927,0.5234375,-0.12890625,0.7265625
2928,0.52734375,-0.11328125,0.7265625
2929,0.52734375,-0.1171875,0.71484375
2930,0.5078125,-0.12890625,0.734375
2931,0.52734375,-0.12109375,0.71875
2932,0.51953125,-0.125,0.7109375
2933,0.5234375,-0.12890625,0.7109375
2934,0.515625,-0.12890625,0.734375
2935,0.51953125,-0.1328125,0.7265625
2936,0.5234375,-0.12109375,0.7109375
2937,0.53125,-0.12890625,0.6953125
2938,0.515625,-0.12890625,0.72265625
2939,0.515625,-0.11328125,0.7265625
2940,0.5078125,-0.12890625,0.734375
2941,0.53515625,-0.1328125,0.6875
2942,0.52734375,-0.11328125,0.7109375
2943,0.52734375,-0.11328125,0.72265625
2944,0.5234375,-0.125,0.70703125
2945,0.5234375,-0.12109375,0.71484375
2946,0.5234375,-0.125,0.71484375
2947,0.51171875,-0.12109375,0.72265625
2948,0.51953125,-0.12890625,0.7265625
2949,0.50390625,-0.1171875,0.7109375
2950,0.51171875,-0.1171875,0.7109375
2951,0.51953125,-0.1171875,0.71484375
2952,0.52734375,-0.1328125,0.71484375
2953,0.51953125,-0.125,0.6953125
2954,0.52734375,-0.125,0.71875
2955,0.5234375,-0.1171875,0.703125
2956,0.5234375,-0.11328125,0.7109375
2957,0.53125,-0.125,0.72265625
2958,0.53125,-0.1328125,0.73046875
2959,0.515625,-0.1171875,0.70703125
2960,0.53125,-0.12109375,0.73046875
2961,0.53515625,-0.1171875,0.7109375
2962,0.51171875,-0.12890625,0.72265625
2963,0.53515625,-0.15234375,0.71875
2964,0.52734375,-0.125,0.72265625
2965,0.515625,-0.1171875,0.7109375
2966,0.52734375,-0.12890625,0.703125
2967,0.5234375,-0.1171875,0.71875
2968,0.5234375,-0.12890625,0.71875
2969,0.5234375,-0.1328125,0.71875
2970,0.52734375,-0.12890625,0.7265625
2971,0.51171875,-0.125,0.71875
2972,0.5234375,-0.12890625,0.7265625
2973,0.5234375,-0.12890625,0.71484375
2974,0.53515625,-0.12890625,0.70703125
2975,0.53125,-0.13671875,0.7421875
2976,0.52734375,-0.1171875,0.71875
2977,0.51953125,-0.125,0.71875
2978,0.5234375,-0.125,0.71875
2979,0.5234375,-0.12109375,0.71484375
2980,0.51171875,-0.125,0.72265625
2981,0.54296875,-0.13671875,0.73828125
2982,0.5234375,-0.12890625,0.7265625
2983,0.51171875,-0.11328125,0.71484375
2984,0.515625,-0.109375,0.72265625
2985,0.48828125,-0.14453125,0.7265625
2986,0.52734375,-0.125,0.72265625
2987,0.51953125,-0.12109375,0.71484375
2988,0.5234375,-0.1171875,0.71484375
2989,0.5234375,-0.12890625,0.7265625
2990,0.5234375,-0.1328125,0.734375
2991,0.51953125,-0.12109375,0.7265625
2992,0.53125,-0.11328125,0.71875
2993,0.52734375,-0.125,0.7109375
2994,0.52734375,-0.12109375,0.71875
2995,0.515625,-0.12109375,0.72265625
2996,0.515625,-0.140625,0.73046875
2997,0.515625,-0.12109375,0.72265625
2998,0.515625,-0.1171875,0.71484375
2999,0.515625,-0.12109375,0.72265625
