,accelerometerAccelerationX(G),accelerometerAccelerationY(G),accelerometerAccelerationZ(G)
0,0.02734375,-1.0,-0.10546875
1,0.01953125,-0.98828125,-0.09375
2,0.01953125,-1.0,-0.08984375
3,0.01953125,-1.015625,-0.10546875
4,0.02734375,-1.00390625,-0.0859375
5,0.01953125,-0.9921875,-0.1015625
6,0.0234375,-1.0,-0.0859375
7,0.01953125,-1.0,-0.08984375
8,0.0234375,-1.0078125,-0.09375
9,0.015625,-1.0,-0.07421875
10,0.02734375,-1.00390625,-0.09765625
11,0.01953125,-0.99609375,-0.09765625
12,0.015625,-0.9921875,-0.08984375
13,0.015625,-1.01171875,-0.09375
14,0.015625,-0.99609375,-0.07421875
15,0.01953125,-0.99609375,-0.09765625
16,0.015625,-1.0,-0.0859375
17,0.0234375,-0.98828125,-0.0859375
18,0.015625,-1.0,-0.08984375
19,0.015625,-1.00390625,-0.08203125
20,0.0234375,-0.99609375,-0.0703125
21,0.01171875,-1.00390625,-0.08203125
22,0.01953125,-1.00390625,-0.078125
23,0.01953125,-0.99609375,-0.09765625
24,0.01953125,-1.0,-0.08203125
25,0.0234375,-1.0,-0.08984375
26,0.00390625,-0.9765625,-0.09375
27,0.03125,-0.953125,-0.078125
28,0.0546875,-0.99609375,-0.08984375
29,0.0078125,-1.00390625,-0.09765625
30,0.01171875,-0.98046875,-0.07421875
31,0.01953125,-0.94921875,-0.16015625
32,0.015625,-0.9296875,-0.09765625
33,0.015625,-1.00390625,-0.08984375
34,0.02734375,-1.0,-0.08203125
35,0.01953125,-0.99609375,-0.08984375
36,0.03125,-0.99609375,-0.0703125
37,0.01953125,-0.9921875,-0.078125
38,0.0234375,-1.0078125,-0.09375
39,0.01953125,-0.99609375,-0.1015625
40,0.03125,-1.0,-0.08984375
41,0.01171875,-0.9921875,-0.09375
42,0.0234375,-0.99609375,-0.1015625
43,0.01953125,-0.9921875,-0.078125
44,0.0078125,-0.98828125,-0.0859375
45,0.02734375,-1.00390625,-0.0859375
46,0.015625,-0.9921875,-0.1015625
47,0.015625,-0.9921875,-0.08203125
48,0.03125,-1.00390625,-0.09375
49,0.02734375,-1.00390625,-0.10546875
50,0.01953125,-0.9921875,-0.08984375
51,0.01953125,-0.98828125,-0.08984375
52,0.01953125,-0.9921875,-0.08984375
53,0.02734375,-0.99609375,-0.08203125
54,0.015625,-1.0,-0.109375
55,0.01953125,-1.00390625,-0.09375
56,0.0078125,-0.9921875,-0.0859375
57,0.01953125,-1.00390625,-0.09375
58,0.015625,-0.99609375,-0.09765625
59,0.01953125,-1.0,-0.09765625
60,0.015625,-1.00390625,-0.09375
61,0.02734375,-1.0,-0.08984375
62,0.01953125,-0.9921875,-0.09765625
63,0.01953125,-0.9921875,-0.09375
64,0.01953125,-1.00390625,-0.09375
65,0.02734375,-0.98828125,-0.09765625
66,0.01953125,-0.9921875,-0.09765625
67,0.0234375,-0.99609375,-0.078125
68,0.0234375,-0.9765625,-0.0859375
69,0.01953125,-0.98828125,-0.078125
70,0.02734375,-0.98828125,-0.09375
71,0.015625,-0.99609375,-0.08984375
72,0.02734375,-0.99609375,-0.08203125
73,0.01171875,-1.00390625,-0.09765625
74,0.01953125,-1.00390625,-0.0859375
75,0.015625,-0.98828125,-0.08984375
76,0.015625,-0.99609375,-0.08984375
77,0.01953125,-0.98828125,-0.10546875
78,0.01953125,-0.99609375,-0.09765625
79,0.02734375,-1.00390625,-0.09765625
80,0.01171875,-0.99609375,-0.08984375
81,0.015625,-1.0,-0.10546875
82,0.00390625,-0.99609375,-0.09375
83,0.02734375,-0.9921875,-0.1015625
84,0.01953125,-1.00390625,-0.078125
85,0.01953125,-0.99609375,-0.08984375
86,0.01953125,-0.98828125,-0.09375
87,0.015625,-1.0,-0.09765625
88,0.0078125,-0.98828125,-0.08984375
89,0.01953125,-0.99609375,-0.1171875
90,0.01171875,-0.9921875,-0.09375
91,0.01171875,-1.00390625,-0.08203125
92,0.01953125,-1.00390625,-0.09375
93,0.01953125,-0.98828125,-0.09375
94,0.0390625,-1.0,-0.08984375
95,0.0234375,-0.98828125,-0.09375
96,0.03125,-0.9921875,-0.10546875
97,0.02734375,-0.9921875,-0.08984375
98,0.02734375,-0.9921875,-0.08203125
99,0.01953125,-0.9765625,-0.109375
100,0.01953125,-0.99609375,-0.09765625
101,0.0234375,-0.99609375,-0.09375
102,0.0234375,-1.0,-0.08203125
103,0.015625,-0.99609375,-0.0859375
104,0.0234375,-1.01171875,-0.09765625
105,0.01953125,-1.01171875,-0.08984375
106,0.0234375,-1.015625,-0.09375
107,0.01953125,-1.0234375,-0.08984375
108,0.01953125,-1.01171875,-0.0859375
109,0.0234375,-1.00390625,-0.09765625
110,0.0234375,-1.015625,-0.109375
111,0.01953125,-0.99609375,-0.1015625
112,0.02734375,-0.984375,-0.09765625
113,0.02734375,-0.98828125,-0.10546875
114,0.02734375,-0.9765625,-0.1015625
115,0.01953125,-0.98046875,-0.08984375
116,0.0234375,-0.9765625,-0.08984375
117,0.01953125,-0.96875,-0.0859375
118,0.015625,-0.98046875,-0.08984375
119,0.01171875,-0.98828125,-0.078125
120,0.01953125,-0.99609375,-0.06640625
121,0.01171875,-0.9921875,-0.0703125
122,0.015625,-0.984375,-0.0859375
123,0.015625,-0.99609375,-0.1015625
124,0.015625,-0.9921875,-0.0859375
125,0.015625,-0.99609375,-0.07421875
126,0.01953125,-0.99609375,-0.0859375
127,0.0234375,-1.0,-0.09375
128,0.01953125,-0.99609375,-0.0859375
129,0.01953125,-0.99609375,-0.08984375
130,0.015625,-1.0,-0.09765625
131,0.01953125,-1.0,-0.08984375
132,0.03515625,-1.0078125,-0.09375
133,0.0234375,-1.0,-0.09765625
134,0.02734375,-0.99609375,-0.1015625
135,0.01171875,-1.0,-0.0859375
136,0.01171875,-1.00390625,-0.08984375
137,0.0234375,-1.00390625,-0.09375
138,0.0234375,-0.99609375,-0.0859375
139,0.03125,-0.99609375,-0.09765625
140,0.03125,-1.0078125,-0.08984375
141,0.01171875,-1.00390625,-0.1015625
142,0.0234375,-1.0,-0.09765625
143,0.0234375,-0.98828125,-0.1015625
144,0.01953125,-0.98828125,-0.09375
145,0.02734375,-0.99609375,-0.09375
146,0.02734375,-0.99609375,-0.09375
147,0.01953125,-0.98828125,-0.09375
148,0.03125,-0.99609375,-0.109375
149,0.02734375,-0.9921875,-0.09765625
150,0.01953125,-0.9921875,-0.1015625
151,0.0234375,-0.9921875,-0.10546875
152,0.02734375,-0.9921875,-0.08984375
153,0.0234375,-1.00390625,-0.09375
154,0.0234375,-1.00390625,-0.08984375
155,0.02734375,-0.98828125,-0.09765625
156,0.03515625,-1.0,-0.08984375
157,0.02734375,-0.99609375,-0.09765625
158,0.03515625,-1.0078125,-0.1015625
159,0.0234375,-0.9921875,-0.08984375
160,0.01953125,-1.0078125,-0.09375
161,0.03515625,-1.0078125,-0.109375
162,0.0234375,-1.0078125,-0.09765625
163,0.015625,-1.0,-0.109375
164,0.01953125,-1.0,-0.1015625
165,0.0234375,-0.99609375,-0.09765625
166,0.0234375,-0.99609375,-0.10546875
167,0.0078125,-0.99609375,-0.09375
168,0.01953125,-0.99609375,-0.08203125
169,0.02734375,-1.00390625,-0.0859375
170,0.01171875,-0.9921875,-0.09765625
171,0.01171875,-1.0078125,-0.11328125
172,0.02734375,-0.98828125,-0.09765625
173,0.0234375,-1.00390625,-0.109375
174,0.015625,-1.0,-0.1015625
175,0.0234375,-0.99609375,-0.1171875
176,0.02734375,-1.0,-0.09765625
177,0.015625,-0.9921875,-0.09375
178,0.015625,-0.99609375,-0.10546875
179,0.02734375,-1.0,-0.1015625
180,0.0234375,-0.984375,-0.09765625
181,0.02734375,-0.98828125,-0.10546875
182,0.015625,-0.98828125,-0.09765625
183,0.02734375,-0.984375,-0.1015625
184,0.01953125,-0.98828125,-0.10546875
185,0.02734375,-0.98828125,-0.1015625
186,0.0234375,-0.98828125,-0.1015625
187,0.0390625,-0.99609375,-0.09765625
188,0.0390625,-0.9921875,-0.1015625
189,0.02734375,-0.9921875,-0.109375
190,0.03515625,-0.9921875,-0.10546875
191,0.03515625,-0.97265625,-0.13671875
192,0.0234375,-0.9921875,-0.109375
193,0.0234375,-0.9921875,-0.10546875
194,0.02734375,-0.99609375,-0.09375
195,0.01953125,-1.0,-0.10546875
196,0.015625,-1.0,-0.109375
197,0.02734375,-0.9921875,-0.1015625
198,0.01171875,-0.98828125,-0.10546875
199,0.0234375,-1.0078125,-0.10546875
200,0.02734375,-1.00390625,-0.12109375
201,0.02734375,-0.9921875,-0.1171875
202,0.01953125,-0.9921875,-0.109375
203,0.0234375,-0.98828125,-0.1015625
204,0.03515625,-1.00390625,-0.10546875
205,0.03125,-1.00390625,-0.1015625
206,0.02734375,-1.0,-0.109375
207,0.01953125,-0.99609375,-0.109375
208,0.03125,-1.00390625,-0.11328125
209,0.02734375,-1.0,-0.10546875
210,0.02734375,-0.9921875,-0.11328125
211,0.02734375,-1.0,-0.11328125
212,0.01953125,-1.0078125,-0.12109375
213,0.03125,-1.00390625,-0.11328125
214,0.01953125,-0.9921875,-0.10546875
215,0.0234375,-0.99609375,-0.12109375
216,0.01953125,-0.9921875,-0.10546875
217,0.03125,-0.99609375,-0.109375
218,0.0234375,-0.984375,-0.10546875
219,0.02734375,-0.99609375,-0.125
220,0.03515625,-0.98828125,-0.11328125
221,0.0234375,-0.9921875,-0.11328125
222,0.02734375,-0.984375,-0.10546875
223,0.03125,-1.0,-0.09765625
224,0.03125,-0.9921875,-0.12109375
225,0.03515625,-0.99609375,-0.09765625
226,0.03515625,-0.99609375,-0.1015625
227,0.0234375,-0.99609375,-0.109375
228,0.01953125,-0.9921875,-0.12890625
229,0.0234375,-0.9921875,-0.109375
230,0.02734375,-1.00390625,-0.10546875
231,0.0234375,-0.98828125,-0.12109375
232,0.03125,-0.984375,-0.125
233,0.01953125,-1.0,-0.11328125
234,0.02734375,-0.9921875,-0.109375
235,0.02734375,-0.99609375,-0.11328125
236,0.0234375,-1.0,-0.1171875
237,0.0234375,-1.00390625,-0.1328125
238,0.0234375,-0.9921875,-0.12109375
239,0.0234375,-1.00390625,-0.12109375
240,0.02734375,-1.0,-0.109375
241,0.03125,-0.9921875,-0.1015625
242,0.02734375,-0.99609375,-0.12890625
243,0.02734375,-0.99609375,-0.11328125
244,0.0234375,-0.98828125,-0.12109375
245,0.01953125,-0.9921875,-0.12109375
246,0.0234375,-0.99609375,-0.11328125
247,0.0234375,-0.984375,-0.125
248,0.02734375,-0.98828125,-0.12109375
249,0.0234375,-0.9921875,-0.11328125
250,0.03125,-0.9921875,-0.12109375
251,0.0234375,-0.99609375,-0.1171875
252,0.02734375,-0.98828125,-0.125
253,0.03515625,-1.0,-0.09765625
254,0.02734375,-0.984375,-0.12890625
255,0.0234375,-0.9921875,-0.12890625
256,0.03125,-0.9921875,-0.1328125
257,0.0234375,-1.0,-0.125
258,0.03515625,-1.0,-0.125
259,0.03125,-1.0,-0.140625
260,0.0234375,-1.00390625,-0.12890625
261,0.0234375,-1.0,-0.1328125
262,0.03125,-1.00390625,-0.1171875
263,0.02734375,-1.00390625,-0.12890625
264,0.03125,-1.01953125,-0.125
265,0.0234375,-1.0078125,-0.13671875
266,0.02734375,-1.015625,-0.1171875
267,0.0234375,-1.0078125,-0.12890625
268,0.01953125,-1.0078125,-0.125
269,0.0234375,-0.99609375,-0.1171875
270,0.02734375,-1.01171875,-0.12109375
271,0.02734375,-0.99609375,-0.12109375
272,0.0234375,-0.98828125,-0.14453125
273,0.02734375,-0.98828125,-0.1484375
274,0.01953125,-0.97265625,-0.12109375
275,0.0234375,-0.96875,-0.125
276,0.03515625,-0.96875,-0.1328125
277,0.03515625,-0.9765625,-0.1171875
278,0.03125,-0.98046875,-0.125
279,0.03125,-0.98828125,-0.12109375
280,0.03125,-1.0,-0.12890625
281,0.0234375,-0.99609375,-0.12890625
282,0.0234375,-1.0078125,-0.125
283,0.02734375,-1.0078125,-0.12109375
284,0.03515625,-1.01171875,-0.125
285,0.015625,-1.00390625,-0.13671875
286,0.03125,-0.99609375,-0.1328125
287,0.02734375,-1.00390625,-0.1328125
288,0.0390625,-1.0,-0.1328125
289,0.03515625,-1.0,-0.125
290,0.03125,-1.0,-0.125
291,0.0390625,-0.99609375,-0.12890625
292,0.0390625,-0.99609375,-0.140625
293,0.04296875,-0.98828125,-0.1328125
294,0.0390625,-0.99609375,-0.12890625
295,0.03515625,-0.99609375,-0.1328125
296,0.03515625,-0.9921875,-0.12890625
297,0.03125,-0.98828125,-0.1328125
298,0.03125,-0.9921875,-0.125
299,0.03515625,-1.00390625,-0.1328125
300,0.02734375,-0.9921875,-0.12890625
301,0.0234375,-0.98046875,-0.1328125
302,0.03515625,-1.0,-0.1328125
303,0.0234375,-0.9921875,-0.1328125
304,0.03125,-1.0,-0.1328125
305,0.02734375,-0.99609375,-0.140625
306,0.03515625,-0.99609375,-0.12890625
307,0.0234375,-0.98828125,-0.14453125
308,0.03125,-0.98828125,-0.12890625
309,0.01953125,-0.98046875,-0.1328125
310,0.01953125,-0.9921875,-0.140625
311,0.02734375,-0.984375,-0.1328125
312,0.01953125,-0.984375,-0.1328125
313,0.02734375,-0.984375,-0.12890625
314,0.02734375,-0.98828125,-0.12890625
315,0.0234375,-0.9921875,-0.1328125
316,0.02734375,-0.99609375,-0.125
317,0.03125,-0.984375,-0.12109375
318,0.02734375,-1.0,-0.11328125
319,0.0234375,-1.0,-0.14453125
320,0.0234375,-1.0,-0.14453125
321,0.03515625,-1.01171875,-0.125
322,0.02734375,-0.99609375,-0.140625
323,0.0234375,-0.9921875,-0.1484375
324,0.03125,-0.99609375,-0.12109375
325,0.0234375,-0.98828125,-0.13671875
326,0.03515625,-0.99609375,-0.140625
327,0.03125,-0.99609375,-0.1328125
328,0.015625,-0.98828125,-0.125
329,0.02734375,-1.0,-0.12890625
330,0.015625,-0.984375,-0.12109375
331,0.03515625,-1.0,-0.13671875
332,0.0234375,-1.0,-0.13671875
333,0.03125,-0.99609375,-0.1171875
334,0.03125,-1.0,-0.1171875
335,0.0234375,-1.00390625,-0.1328125
336,0.0234375,-1.0,-0.1328125
337,0.03515625,-1.00390625,-0.140625
338,0.02734375,-1.0078125,-0.125
339,0.0234375,-0.98828125,-0.1171875
340,0.03515625,-1.0,-0.12890625
341,0.02734375,-1.0,-0.14453125
342,0.03515625,-0.9921875,-0.140625
343,0.0390625,-1.00390625,-0.1328125
344,0.02734375,-0.9921875,-0.125
345,0.02734375,-0.98828125,-0.11328125
346,0.02734375,-0.98828125,-0.13671875
347,0.02734375,-0.98828125,-0.12890625
348,0.02734375,-1.0,-0.125
349,0.02734375,-0.9765625,-0.13671875
350,0.01953125,-0.984375,-0.1328125
351,0.03125,-0.99609375,-0.125
352,0.03125,-0.98046875,-0.125
353,0.015625,-1.00390625,-0.14453125
354,0.02734375,-0.99609375,-0.12890625
355,0.03125,-0.9921875,-0.14453125
356,0.03515625,-1.0,-0.13671875
357,0.01953125,-0.99609375,-0.1328125
358,0.0390625,-1.0078125,-0.13671875
359,0.02734375,-1.00390625,-0.1328125
360,0.03125,-0.9921875,-0.13671875
361,0.015625,-0.99609375,-0.12890625
362,0.01953125,-0.98828125,-0.1328125
363,0.01171875,-0.98828125,-0.1171875
364,0.03515625,-1.0,-0.13671875
365,0.02734375,-0.9921875,-0.1328125
366,0.0234375,-0.99609375,-0.125
367,0.0234375,-1.00390625,-0.140625
368,0.02734375,-0.9921875,-0.1171875
369,0.03125,-0.9921875,-0.12890625
370,0.02734375,-0.98046875,-0.1171875
371,0.03515625,-1.0,-0.140625
372,0.0234375,-0.9921875,-0.12890625
373,0.01953125,-0.9921875,-0.12890625
374,0.03125,-0.9921875,-0.125
375,0.03125,-0.98828125,-0.12109375
376,0.03515625,-0.99609375,-0.12109375
377,0.01953125,-0.98828125,-0.13671875
378,0.0234375,-0.98828125,-0.12890625
379,0.015625,-0.9921875,-0.13671875
380,0.0234375,-0.9921875,-0.1328125
381,0.0234375,-1.0078125,-0.1328125
382,0.02734375,-0.99609375,-0.1328125
383,0.03125,-1.0,-0.13671875
384,0.02734375,-1.0,-0.1328125
385,0.0234375,-0.99609375,-0.12890625
386,0.0234375,-0.9921875,-0.13671875
387,0.0234375,-0.9921875,-0.1328125
388,0.03125,-0.99609375,-0.125
389,0.03125,-1.0078125,-0.12890625
390,0.0234375,-1.0,-0.1484375
391,0.03125,-1.00390625,-0.1328125
392,0.01953125,-1.0,-0.13671875
393,0.015625,-1.0078125,-0.140625
394,0.0234375,-0.9921875,-0.13671875
395,0.0234375,-0.98828125,-0.12890625
396,0.0234375,-1.0,-0.13671875
397,0.02734375,-0.99609375,-0.125
398,0.0234375,-1.0,-0.13671875
399,0.02734375,-0.99609375,-0.140625
400,0.015625,-0.984375,-0.12890625
401,0.0234375,-0.984375,-0.13671875
402,0.02734375,-0.9921875,-0.12109375
403,0.01171875,-0.984375,-0.1171875
404,0.0234375,-0.99609375,-0.15625
405,0.0234375,-0.98046875,-0.13671875
406,0.01953125,-0.98046875,-0.13671875
407,0.0234375,-0.99609375,-0.12890625
408,0.02734375,-1.0,-0.140625
409,0.03125,-0.99609375,-0.1328125
410,0.01953125,-0.98828125,-0.13671875
411,0.03125,-0.98828125,-0.125
412,0.02734375,-1.0,-0.125
413,0.02734375,-0.984375,-0.12890625
414,0.03125,-0.9921875,-0.1484375
415,0.0234375,-0.9921875,-0.1328125
416,0.03125,-0.9921875,-0.140625
417,0.03515625,-1.0,-0.125
418,0.02734375,-1.0,-0.125
419,0.0234375,-0.98828125,-0.14453125
420,0.0234375,-1.00390625,-0.12109375
421,0.0234375,-1.0078125,-0.140625
422,0.03125,-1.00390625,-0.125
423,0.02734375,-1.01171875,-0.140625
424,0.0390625,-1.015625,-0.12890625
425,0.03125,-1.0078125,-0.13671875
426,0.0234375,-1.0078125,-0.140625
427,0.03515625,-0.99609375,-0.1328125
428,0.03125,-0.9921875,-0.140625
429,0.03515625,-0.99609375,-0.140625
430,0.03125,-0.99609375,-0.14453125
431,0.0234375,-0.984375,-0.125
432,0.01953125,-0.9765625,-0.14453125
433,0.0234375,-0.984375,-0.13671875
434,0.0234375,-0.96484375,-0.1328125
435,0.01953125,-0.98046875,-0.11328125
436,0.0234375,-0.9765625,-0.11328125
437,0.0234375,-0.9765625,-0.11328125
438,0.015625,-0.99609375,-0.125
439,0.01953125,-0.9765625,-0.1015625
440,0.03515625,-0.984375,-0.12109375
441,0.02734375,-0.984375,-0.125
442,0.015625,-0.98828125,-0.11328125
443,0.0234375,-0.984375,-0.1171875
444,0.02734375,-0.98828125,-0.13671875
445,0.03515625,-0.98828125,-0.125
446,0.02734375,-0.99609375,-0.13671875
447,0.02734375,-0.9921875,-0.13671875
448,0.03125,-0.9921875,-0.140625
449,0.03515625,-1.0,-0.140625
450,0.01953125,-0.9921875,-0.1171875
451,0.03515625,-0.99609375,-0.1328125
452,0.0234375,-0.9921875,-0.13671875
453,0.03515625,-1.00390625,-0.125
454,0.03125,-0.98828125,-0.13671875
455,0.03515625,-0.9921875,-0.1328125
456,0.03125,-1.0,-0.13671875
457,0.03515625,-0.98828125,-0.13671875
458,0.01953125,-0.98828125,-0.140625
459,0.0234375,-0.984375,-0.14453125
460,0.02734375,-0.9921875,-0.1328125
461,0.02734375,-0.9921875,-0.13671875
462,0.01953125,-1.00390625,-0.125
463,0.01953125,-0.9921875,-0.125
464,0.02734375,-0.9921875,-0.140625
465,0.01953125,-0.98828125,-0.13671875
466,0.0234375,-0.9765625,-0.12890625
467,0.01171875,-0.9765625,-0.1484375
468,0.015625,-0.9765625,-0.12890625
469,0.0234375,-0.984375,-0.1328125
470,0.01953125,-0.99609375,-0.1328125
471,0.0234375,-0.984375,-0.14453125
472,0.03125,-0.9921875,-0.14453125
473,0.0234375,-0.98828125,-0.1484375
474,0.03125,-0.9921875,-0.15234375
475,0.01953125,-0.9921875,-0.14453125
476,0.01953125,-0.99609375,-0.14453125
477,0.03515625,-0.99609375,-0.14453125
478,0.03515625,-1.00390625,-0.15234375
479,0.03125,-0.9921875,-0.15234375
480,0.02734375,-1.0078125,-0.14453125
481,0.02734375,-0.9921875,-0.1484375
482,0.03515625,-1.00390625,-0.1484375
483,0.03125,-1.0,-0.14453125
484,0.02734375,-1.00390625,-0.1484375
485,0.03125,-1.0,-0.15234375
486,0.01171875,-0.984375,-0.1328125
487,0.01953125,-0.98828125,-0.13671875
488,0.0234375,-0.98828125,-0.1171875
489,0.01953125,-0.98046875,-0.14453125
490,0.02734375,-0.98046875,-0.15234375
491,0.015625,-0.97265625,-0.140625
492,0.0234375,-0.984375,-0.140625
493,0.0234375,-0.9921875,-0.12890625
494,0.01953125,-0.97265625,-0.12109375
495,0.0234375,-0.98046875,-0.13671875
496,0.01953125,-0.98046875,-0.140625
497,0.02734375,-0.98828125,-0.13671875
498,0.01171875,-0.98828125,-0.1484375
499,0.01953125,-0.9921875,-0.14453125
500,0.0234375,-1.0,-0.140625
501,0.0234375,-0.9921875,-0.15234375
502,0.03125,-0.98828125,-0.1484375
503,0.01953125,-0.98828125,-0.125
504,0.0078125,-0.984375,-0.15234375
505,0.0234375,-0.96875,-0.15625
506,0.01953125,-0.98046875,-0.14453125
507,0.01953125,-0.98046875,-0.140625
508,0.0234375,-1.0,-0.1640625
509,0.015625,-0.984375,-0.15625
510,0.015625,-0.9765625,-0.16015625
511,0.0234375,-0.984375,-0.15625
512,0.03125,-1.0,-0.15625
513,0.0234375,-0.984375,-0.15625
514,0.0234375,-0.98828125,-0.16015625
515,0.015625,-0.984375,-0.16015625
516,0.0234375,-0.97265625,-0.1640625
517,0.0234375,-0.984375,-0.171875
518,0.03125,-0.9765625,-0.1640625
519,0.0234375,-0.97265625,-0.16796875
520,0.01953125,-0.98046875,-0.16796875
521,0.02734375,-0.97265625,-0.17578125
522,0.03515625,-0.984375,-0.1640625
523,0.01953125,-0.97265625,-0.1640625
524,0.03125,-0.96875,-0.18359375
525,0.0234375,-0.96484375,-0.171875
526,0.01953125,-0.98046875,-0.18359375
527,0.02734375,-0.9765625,-0.1875
528,0.0234375,-0.97265625,-0.1953125
529,0.02734375,-0.9765625,-0.18359375
530,0.0234375,-0.98828125,-0.20703125
531,0.01953125,-0.97265625,-0.1796875
532,0.0234375,-0.9765625,-0.19140625
533,0.02734375,-0.96875,-0.203125
534,0.0078125,-0.97265625,-0.1796875
535,0.01953125,-0.97265625,-0.203125
536,0.0234375,-0.9765625,-0.20703125
537,0.0234375,-0.96875,-0.19921875
538,0.03125,-0.9609375,-0.19140625
539,0.03125,-0.96875,-0.21484375
540,0.02734375,-0.97265625,-0.203125
541,0.03515625,-0.9765625,-0.20703125
542,0.02734375,-0.96484375,-0.19921875
543,0.02734375,-0.9765625,-0.21484375
544,0.02734375,-0.97265625,-0.2109375
545,0.02734375,-0.96875,-0.20703125
546,0.03125,-0.96875,-0.21484375
547,0.03515625,-0.9765625,-0.20703125
548,0.03125,-0.984375,-0.21875
549,0.0234375,-0.97265625,-0.21875
550,0.0234375,-0.96875,-0.203125
551,0.046875,-0.9765625,-0.21484375
552,0.0390625,-0.97265625,-0.2265625
553,0.02734375,-0.9765625,-0.21875
554,0.03515625,-0.96875,-0.24609375
555,0.02734375,-0.98046875,-0.24609375
556,0.0390625,-0.97265625,-0.2421875
557,0.02734375,-0.96875,-0.23828125
558,0.03125,-0.96484375,-0.23046875
559,0.01953125,-0.96875,-0.234375
560,0.02734375,-0.97265625,-0.234375
561,0.01953125,-0.96484375,-0.23828125
562,0.0234375,-0.98046875,-0.25
563,0.02734375,-0.9609375,-0.24609375
564,0.01953125,-0.96875,-0.23828125
565,0.03125,-0.94921875,-0.2421875
566,0.02734375,-0.96875,-0.2578125
567,0.02734375,-0.95703125,-0.2421875
568,0.02734375,-0.96484375,-0.2734375
569,0.02734375,-0.95703125,-0.26171875
570,0.0234375,-0.9609375,-0.2734375
571,0.01953125,-0.953125,-0.26953125
572,0.01953125,-0.953125,-0.29296875
573,0.01171875,-0.94140625,-0.28515625
574,0.015625,-0.94921875,-0.28515625
575,0.02734375,-0.94921875,-0.2890625
576,0.0234375,-0.953125,-0.29296875
577,0.0234375,-0.9609375,-0.30078125
578,0.02734375,-0.953125,-0.30859375
579,0.02734375,-0.9375,-0.3125
580,0.03125,-0.94140625,-0.29296875
581,0.0234375,-0.95703125,-0.30078125
582,0.0234375,-0.94140625,-0.29296875
583,0.0390625,-0.94140625,-0.3203125
584,0.0390625,-0.94921875,-0.30859375
585,0.03125,-0.953125,-0.3359375
586,0.03515625,-0.9453125,-0.3359375
587,0.03515625,-0.94921875,-0.33984375
588,0.03125,-0.96484375,-0.32421875
589,0.03125,-0.95703125,-0.35546875
590,0.03515625,-0.9609375,-0.3515625
591,0.01171875,-0.9609375,-0.33203125
592,0.0234375,-0.96875,-0.3515625
593,0.03125,-0.95703125,-0.359375
594,0.03125,-0.9765625,-0.375
595,0.0234375,-0.953125,-0.38671875
596,0.04296875,-0.93359375,-0.375
597,0.0390625,-0.94921875,-0.38671875
598,0.01953125,-0.921875,-0.39453125
599,0.02734375,-0.9296875,-0.3984375
600,0.02734375,-0.9296875,-0.41015625
601,0.0234375,-0.9140625,-0.3984375
602,0.02734375,-0.90625,-0.40625
603,0.03515625,-0.91015625,-0.390625
604,0.03515625,-0.8984375,-0.40625
605,0.01953125,-0.8984375,-0.41015625
606,0.0234375,-0.8984375,-0.41015625
607,0.03125,-0.90234375,-0.41796875
608,0.03515625,-0.89453125,-0.41796875
609,0.03125,-0.890625,-0.421875
610,0.0390625,-0.91015625,-0.4140625
611,0.0234375,-0.89453125,-0.41796875
612,0.0234375,-0.89453125,-0.44140625
613,0.0234375,-0.88671875,-0.43359375
614,0.015625,-0.8828125,-0.4375
615,0.0234375,-0.88671875,-0.4609375
616,0.0234375,-0.8828125,-0.46484375
617,0.0390625,-0.875,-0.453125
618,0.04296875,-0.875,-0.47265625
619,0.0390625,-0.875,-0.45703125
620,0.05078125,-0.8671875,-0.484375
621,0.0390625,-0.86328125,-0.4921875
622,0.0390625,-0.85546875,-0.5
623,0.04296875,-0.84765625,-0.49609375
624,0.0390625,-0.84765625,-0.51171875
625,0.015625,-0.859375,-0.51953125
626,0.05078125,-0.83984375,-0.52734375
627,0.0390625,-0.84765625,-0.54296875
628,0.0390625,-0.82421875,-0.53125
629,0.01953125,-0.828125,-0.53515625
630,0.03515625,-0.8359375,-0.55078125
631,0.0234375,-0.828125,-0.5703125
632,0.03515625,-0.90234375,-0.5859375
633,0.0390625,-0.8125,-0.5546875
634,0.04296875,-0.8125,-0.5859375
635,0.0234375,-0.80078125,-0.59375
636,0.015625,-0.86328125,-0.5390625
637,0.0,-0.8671875,-0.58203125
638,0.05078125,-0.8203125,-0.57421875
639,0.0390625,-0.78515625,-0.53125
640,0.046875,-0.81640625,-0.62890625
641,0.046875,-0.828125,-0.62890625
642,0.0234375,-0.8046875,-0.62109375
643,0.03515625,-0.81640625,-0.62890625
644,0.08203125,-0.93359375,-0.66015625
645,0.00390625,-0.8046875,-0.6484375
646,0.0234375,-0.8125,-0.6484375
647,0.0234375,-0.8046875,-0.6640625
648,0.03515625,-0.80078125,-0.64453125
649,0.0234375,-0.7734375,-0.6796875
650,0.0390625,-0.734375,-0.66796875
651,0.05078125,-0.75,-0.68359375
652,0.03515625,-0.7421875,-0.66015625
653,0.05078125,-0.73828125,-0.69140625
654,0.0546875,-0.73046875,-0.71484375
655,0.02734375,-0.6953125,-0.6875
656,0.0546875,-0.73828125,-0.72265625
657,0.05859375,-0.73046875,-0.73046875
658,0.0546875,-0.7109375,-0.74609375
659,0.07421875,-0.71875,-0.7421875
660,0.04296875,-0.640625,-0.734375
661,0.08203125,-0.6953125,-0.75390625
662,0.078125,-0.6875,-0.7734375
663,0.08984375,-0.6953125,-0.76171875
664,0.078125,-0.7265625,-0.796875
665,0.06640625,-0.6640625,-0.7890625
666,0.0859375,-0.6796875,-0.8125
667,0.08203125,-0.6640625,-0.8203125
668,0.0703125,-0.66015625,-0.8359375
669,0.0703125,-0.64453125,-0.85546875
670,0.05078125,-0.65234375,-0.8515625
671,0.11328125,-0.7265625,-0.890625
672,0.078125,-0.5703125,-0.83203125
673,0.0546875,-0.609375,-0.90625
674,0.046875,-0.6015625,-0.90625
675,0.046875,-0.59765625,-0.94921875
676,0.04296875,-0.58203125,-0.94140625
677,0.0390625,-0.55859375,-0.9296875
678,0.078125,-0.55859375,-0.9453125
679,0.0703125,-0.55078125,-0.9609375
680,0.078125,-0.55859375,-0.953125
681,0.08203125,-0.5390625,-0.97265625
682,0.078125,-0.546875,-0.984375
683,0.07421875,-0.53515625,-0.98828125
684,0.0703125,-0.52734375,-1.0078125
685,0.08203125,-0.53515625,-1.046875
686,0.0859375,-0.53125,-1.03515625
687,0.08203125,-0.53125,-1.05859375
688,0.08984375,-0.52734375,-1.08203125
689,0.0859375,-0.52734375,-1.08984375
690,0.08203125,-0.5234375,-1.0859375
691,0.09375,-0.515625,-1.1015625
692,0.08203125,-0.49609375,-1.0859375
693,0.09765625,-0.5078125,-1.09375
694,0.06640625,-0.4921875,-1.1015625
695,0.078125,-0.46875,-1.09765625
696,0.05859375,-0.4609375,-1.09765625
697,0.05859375,-0.4453125,-1.0859375
698,0.05859375,-0.41796875,-1.1015625
699,0.05859375,-0.4140625,-1.11328125
700,0.046875,-0.41015625,-1.10546875
701,0.0546875,-0.38671875,-1.1015625
702,0.0546875,-0.3828125,-1.09765625
703,0.046875,-0.37890625,-1.1015625
704,0.05859375,-0.3515625,-1.109375
705,0.0625,-0.3359375,-1.12109375
706,0.05859375,-0.328125,-1.109375
707,0.06640625,-0.296875,-1.109375
708,0.0703125,-0.296875,-1.09765625
709,0.07421875,-0.28125,-1.10546875
710,0.0703125,-0.28515625,-1.10546875
711,0.07421875,-0.2734375,-1.10546875
712,0.0703125,-0.265625,-1.0859375
713,0.0703125,-0.265625,-1.09375
714,0.07421875,-0.2734375,-1.0859375
715,0.0625,-0.2734375,-1.07421875
716,0.06640625,-0.28125,-1.0703125
717,0.05859375,-0.26953125,-1.0625
718,0.05078125,-0.26171875,-1.0703125
719,0.0546875,-0.265625,-1.05078125
720,0.05859375,-0.265625,-1.03125
721,0.046875,-0.2578125,-1.0390625
722,0.05078125,-0.26171875,-1.03515625
723,0.046875,-0.2578125,-1.02734375
724,0.046875,-0.2578125,-1.0234375
725,0.02734375,-0.25390625,-1.0234375
726,0.03125,-0.2734375,-1.0078125
727,0.0234375,-0.26953125,-1.01953125
728,0.02734375,-0.2734375,-1.01171875
729,0.0234375,-0.2734375,-1.01171875
730,0.01171875,-0.27734375,-1.015625
731,0.02734375,-0.27734375,-1.01171875
732,0.03125,-0.265625,-1.0078125
733,0.0234375,-0.265625,-0.9921875
734,0.0234375,-0.2578125,-0.99609375
735,0.02734375,-0.26171875,-1.00390625
736,0.02734375,-0.25390625,-0.99609375
737,0.01953125,-0.234375,-1.0078125
738,0.02734375,-0.23828125,-0.98828125
739,0.015625,-0.2265625,-1.0078125
740,0.02734375,-0.2265625,-1.0078125
741,0.03125,-0.234375,-1.01953125
742,0.0390625,-0.21484375,-1.0078125
743,0.04296875,-0.21875,-0.99609375
744,0.0234375,-0.21484375,-0.9765625
745,0.0234375,-0.21484375,-0.9921875
746,0.02734375,-0.21484375,-1.0
747,0.015625,-0.203125,-1.00390625
748,0.01953125,-0.1953125,-0.99609375
749,0.0234375,-0.19921875,-0.98046875
750,0.01953125,-0.18359375,-0.98828125
751,0.01953125,-0.17578125,-1.00390625
752,0.01953125,-0.171875,-0.99609375
753,0.015625,-0.1796875,-0.98828125
754,0.0234375,-0.17578125,-0.984375
755,0.01171875,-0.1796875,-0.98828125
756,0.02734375,-0.1875,-0.99609375
757,0.02734375,-0.19140625,-0.97265625
758,0.03515625,-0.18359375,-1.0078125
759,0.03125,-0.17578125,-1.00390625
760,0.03515625,-0.1796875,-1.00390625
761,0.0390625,-0.1875,-0.99609375
762,0.0390625,-0.17578125,-1.00390625
763,0.03515625,-0.1953125,-1.0078125
764,0.0390625,-0.2109375,-1.015625
765,0.03125,-0.19140625,-1.015625
766,0.0234375,-0.19921875,-1.01171875
767,0.0234375,-0.1953125,-0.99609375
768,0.0234375,-0.1953125,-1.0078125
769,0.02734375,-0.1796875,-1.0078125
770,0.015625,-0.1875,-1.01171875
771,0.0078125,-0.16015625,-1.015625
772,0.015625,-0.18359375,-1.00390625
773,0.00390625,-0.171875,-1.00390625
774,0.01953125,-0.17578125,-1.00390625
775,0.015625,-0.1875,-1.015625
776,0.01953125,-0.1875,-1.00390625
777,0.015625,-0.203125,-1.015625
778,0.0078125,-0.2109375,-1.0078125
779,0.01953125,-0.19921875,-1.0234375
780,0.0078125,-0.2109375,-1.00390625
781,0.01953125,-0.1953125,-1.0078125
782,0.01171875,-0.203125,-1.00390625
783,0.0078125,-0.19140625,-1.015625
784,0.02734375,-0.1875,-1.015625
785,0.01171875,-0.19921875,-1.01171875
786,0.03515625,-0.20703125,-0.98828125
787,0.01953125,-0.203125,-1.015625
788,0.02734375,-0.203125,-1.01171875
789,0.0234375,-0.1953125,-0.99609375
790,0.015625,-0.20703125,-1.01171875
791,0.0234375,-0.20703125,-1.02734375
792,0.01953125,-0.21875,-1.0078125
793,0.03125,-0.21484375,-1.01953125
794,0.015625,-0.21484375,-1.01953125
795,0.01171875,-0.22265625,-1.01171875
796,0.01171875,-0.23046875,-1.015625
797,0.0234375,-0.21875,-1.01171875
798,0.015625,-0.22265625,-1.0
799,0.02734375,-0.21875,-1.00390625
800,0.03125,-0.2421875,-1.0
801,0.02734375,-0.21875,-0.9921875
802,0.04296875,-0.22265625,-0.9921875
803,0.04296875,-0.21484375,-0.98046875
804,0.04296875,-0.21875,-0.98046875
805,0.04296875,-0.21875,-0.97265625
806,0.03125,-0.20703125,-0.97265625
807,0.02734375,-0.21484375,-0.984375
808,0.046875,-0.22265625,-0.96875
809,0.03125,-0.19921875,-0.98828125
810,0.02734375,-0.203125,-0.9765625
811,0.0,-0.21484375,-0.984375
812,0.0078125,-0.21875,-1.00390625
813,0.0078125,-0.2265625,-0.9921875
814,0.01171875,-0.2265625,-0.98046875
815,0.0234375,-0.23046875,-0.99609375
816,0.02734375,-0.234375,-0.9921875
817,0.0234375,-0.23828125,-0.98828125
818,0.0234375,-0.23828125,-0.9921875
819,0.02734375,-0.23828125,-0.9765625
820,0.04296875,-0.2421875,-1.0
821,0.0390625,-0.25,-0.98046875
822,0.03125,-0.2421875,-0.984375
823,0.03515625,-0.24609375,-0.99609375
824,0.02734375,-0.24609375,-0.96875
825,0.0390625,-0.25,-0.99609375
826,0.03515625,-0.2578125,-0.98046875
827,0.03515625,-0.2578125,-0.96875
828,0.04296875,-0.23828125,-0.9921875
829,0.0390625,-0.25390625,-0.9765625
830,0.01953125,-0.25390625,-0.984375
831,0.01953125,-0.26171875,-0.98046875
832,0.01953125,-0.2578125,-0.9765625
833,0.02734375,-0.24609375,-0.984375
834,0.0234375,-0.26171875,-0.98828125
835,0.02734375,-0.25390625,-0.984375
836,0.02734375,-0.2578125,-0.97265625
837,0.03125,-0.2578125,-0.98828125
838,0.03125,-0.25,-0.9765625
839,0.03515625,-0.2578125,-0.984375
840,0.03515625,-0.24609375,-0.98828125
841,0.0390625,-0.25,-0.97265625
842,0.03515625,-0.25,-0.96484375
843,0.04296875,-0.26171875,-0.98046875
844,0.0625,-0.26171875,-0.9765625
845,0.05078125,-0.265625,-0.97265625
846,0.046875,-0.26953125,-0.97265625
847,0.05078125,-0.2734375,-0.96875
848,0.03515625,-0.2734375,-0.96484375
849,0.046875,-0.2734375,-0.96484375
850,0.0390625,-0.26953125,-0.96875
851,0.05078125,-0.26953125,-0.9765625
852,0.05078125,-0.26953125,-0.97265625
853,0.05078125,-0.265625,-0.984375
854,0.046875,-0.26953125,-0.9765625
855,0.05078125,-0.265625,-0.96875
856,0.03125,-0.2578125,-0.9765625
857,0.04296875,-0.26953125,-0.97265625
858,0.03125,-0.265625,-0.9765625
859,0.0390625,-0.2734375,-0.96875
860,0.04296875,-0.26953125,-0.98046875
861,0.03515625,-0.26953125,-0.97265625
862,0.03125,-0.28125,-0.96484375
863,0.04296875,-0.27734375,-0.96875
864,0.05078125,-0.27734375,-0.96484375
865,0.0390625,-0.26953125,-0.953125
866,0.0546875,-0.26953125,-0.94921875
867,0.0546875,-0.28125,-0.95703125
868,0.03515625,-0.265625,-0.95703125
869,0.04296875,-0.2734375,-0.9453125
870,0.046875,-0.265625,-0.96484375
871,0.03515625,-0.2734375,-0.95703125
872,0.02734375,-0.26953125,-0.9609375
873,0.01953125,-0.265625,-0.94140625
874,0.02734375,-0.26953125,-0.953125
875,0.015625,-0.26953125,-0.92578125
876,0.01953125,-0.265625,-0.94140625
877,0.03125,-0.265625,-0.953125
878,0.01171875,-0.2578125,-0.92578125
879,0.015625,-0.265625,-0.94921875
880,0.01953125,-0.265625,-0.95703125
881,0.01171875,-0.265625,-0.9453125
882,0.0078125,-0.2578125,-0.9296875
883,0.01171875,-0.265625,-0.9375
884,0.02734375,-0.2578125,-0.9296875
885,0.02734375,-0.265625,-0.92578125
886,0.03125,-0.26171875,-0.9453125
887,0.05078125,-0.265625,-0.9296875
888,0.0546875,-0.27734375,-0.9296875
889,0.05078125,-0.26953125,-0.9453125
890,0.05078125,-0.2734375,-0.93359375
891,0.046875,-0.2734375,-0.93359375
892,0.05078125,-0.26953125,-0.94140625
893,0.0625,-0.27734375,-0.9375
894,0.05078125,-0.27734375,-0.9375
895,0.07421875,-0.29296875,-0.9609375
896,0.046875,-0.28125,-0.9453125
897,0.06640625,-0.28515625,-0.9453125
898,0.0625,-0.296875,-0.9453125
899,0.05859375,-0.28125,-0.9453125
900,0.06640625,-0.2734375,-0.94921875
901,0.0546875,-0.27734375,-0.9296875
902,0.0546875,-0.26953125,-0.94140625
903,0.04296875,-0.28125,-0.9375
904,0.03515625,-0.265625,-0.9375
905,0.03515625,-0.2734375,-0.9375
906,0.03515625,-0.26953125,-0.9375
907,0.03125,-0.265625,-0.9296875
908,0.03515625,-0.265625,-0.93359375
909,0.03125,-0.26171875,-0.95703125
910,0.0390625,-0.26953125,-0.9453125
911,0.02734375,-0.26953125,-0.9375
912,0.03515625,-0.2734375,-0.94921875
913,0.05078125,-0.2734375,-0.953125
914,0.0546875,-0.2734375,-0.9609375
915,0.046875,-0.2734375,-0.953125
916,0.05859375,-0.28125,-0.9375
917,0.0546875,-0.2734375,-0.9453125
918,0.0625,-0.26953125,-0.93359375
919,0.06640625,-0.27734375,-0.9296875
920,0.0546875,-0.265625,-0.9453125
921,0.07421875,-0.28125,-0.94140625
922,0.06640625,-0.26953125,-0.9375
923,0.0546875,-0.265625,-0.95703125
924,0.046875,-0.265625,-0.94140625
925,0.0546875,-0.265625,-0.96484375
926,0.05078125,-0.26953125,-0.95703125
927,0.0546875,-0.27734375,-0.96484375
928,0.0546875,-0.26953125,-0.953125
929,0.05859375,-0.26953125,-0.9609375
930,0.05078125,-0.265625,-0.96484375
931,0.046875,-0.265625,-0.95703125
932,0.05859375,-0.265625,-0.95703125
933,0.05078125,-0.265625,-0.9609375
934,0.05078125,-0.26953125,-0.96484375
935,0.0390625,-0.2734375,-0.95703125
936,0.0546875,-0.26953125,-0.9609375
937,0.0546875,-0.2734375,-0.94140625
938,0.05078125,-0.26171875,-0.96875
939,0.0625,-0.26171875,-0.95703125
940,0.0546875,-0.26171875,-0.953125
941,0.05859375,-0.2578125,-0.9765625
942,0.05859375,-0.26171875,-0.96875
943,0.0703125,-0.2734375,-0.96484375
944,0.06640625,-0.26171875,-0.96484375
945,0.06640625,-0.265625,-0.9609375
946,0.0703125,-0.26171875,-0.96484375
947,0.0625,-0.26171875,-0.9453125
948,0.08203125,-0.26953125,-0.94921875
949,0.0703125,-0.25390625,-0.97265625
950,0.08203125,-0.2578125,-0.9609375
951,0.0546875,-0.2578125,-0.9765625
952,0.07421875,-0.265625,-0.95703125
953,0.0546875,-0.26171875,-0.97265625
954,0.046875,-0.265625,-0.97265625
955,0.05078125,-0.25390625,-0.96484375
956,0.04296875,-0.26171875,-0.9609375
957,0.0390625,-0.26171875,-0.98046875
958,0.04296875,-0.26171875,-0.98046875
959,0.046875,-0.265625,-0.9765625
960,0.0390625,-0.265625,-0.97265625
961,0.04296875,-0.26953125,-0.9765625
962,0.03515625,-0.265625,-0.9921875
963,0.05078125,-0.26953125,-0.98828125
964,0.0546875,-0.26953125,-0.97265625
965,0.06640625,-0.2734375,-0.984375
966,0.05859375,-0.27734375,-0.98828125
967,0.06640625,-0.26171875,-0.98828125
968,0.06640625,-0.26171875,-0.98046875
969,0.07421875,-0.26171875,-1.0
970,0.08203125,-0.26171875,-0.98828125
971,0.07421875,-0.2578125,-1.00390625
972,0.08984375,-0.265625,-0.99609375
973,0.09375,-0.2734375,-0.984375
974,0.0859375,-0.26953125,-1.0
975,0.08984375,-0.28125,-0.98828125
976,0.0859375,-0.27734375,-1.00390625
977,0.078125,-0.26953125,-0.984375
978,0.08203125,-0.28125,-1.0
979,0.09375,-0.296875,-0.98046875
980,0.08203125,-0.2890625,-0.98828125
981,0.08203125,-0.28515625,-0.98828125
982,0.078125,-0.29296875,-0.9921875
983,0.08203125,-0.30078125,-0.9765625
984,0.0703125,-0.30078125,-0.98828125
985,0.06640625,-0.28515625,-0.98828125
986,0.07421875,-0.2734375,-0.98046875
987,0.0625,-0.265625,-0.984375
988,0.07421875,-0.26953125,-0.9921875
989,0.07421875,-0.265625,-0.984375
990,0.0703125,-0.26953125,-0.98828125
991,0.06640625,-0.26171875,-0.9765625
992,0.0703125,-0.25,-0.96875
993,0.0625,-0.265625,-0.9765625
994,0.07421875,-0.2578125,-0.96875
995,0.0703125,-0.26171875,-0.98046875
996,0.0625,-0.2578125,-0.953125
997,0.0625,-0.2578125,-0.96484375
998,0.0859375,-0.265625,-0.9609375
999,0.1015625,-0.265625,-0.94921875
1000,0.09765625,-0.265625,-0.9296875
1001,0.08203125,-0.265625,-0.9375
1002,0.078125,-0.2734375,-0.92578125
1003,0.09375,-0.27734375,-0.9375
1004,0.08203125,-0.28515625,-0.92578125
1005,0.09375,-0.29296875,-0.92578125
1006,0.07421875,-0.28515625,-0.93359375
1007,0.078125,-0.28515625,-0.93359375
1008,0.08984375,-0.27734375,-0.94140625
1009,0.07421875,-0.26953125,-0.9296875
1010,0.078125,-0.265625,-0.94140625
1011,0.0703125,-0.2578125,-0.91796875
1012,0.0703125,-0.2578125,-0.92578125
1013,0.06640625,-0.25,-0.90234375
1014,0.0703125,-0.25390625,-0.88671875
1015,0.078125,-0.25,-0.890625
1016,0.078125,-0.24609375,-0.875
1017,0.09765625,-0.24609375,-0.87109375
1018,0.09765625,-0.25390625,-0.875
1019,0.109375,-0.25390625,-0.8828125
1020,0.10546875,-0.25,-0.88671875
1021,0.109375,-0.25390625,-0.88671875
1022,0.11328125,-0.2578125,-0.875
1023,0.08984375,-0.25390625,-0.87890625
1024,0.08203125,-0.26171875,-0.87109375
1025,0.09375,-0.2578125,-0.8671875
1026,0.10546875,-0.25390625,-0.87890625
1027,0.10546875,-0.28515625,-0.859375
1028,0.11328125,-0.2578125,-0.88671875
1029,0.12109375,-0.2578125,-0.8671875
1030,0.12890625,-0.25,-0.8828125
1031,0.13671875,-0.265625,-0.87890625
1032,0.1328125,-0.26953125,-0.890625
1033,0.12109375,-0.26953125,-0.87890625
1034,0.1328125,-0.265625,-0.87890625
1035,0.12109375,-0.2734375,-0.890625
1036,0.13671875,-0.2734375,-0.87890625
1037,0.12109375,-0.265625,-0.88671875
1038,0.12109375,-0.26953125,-0.890625
1039,0.12890625,-0.265625,-0.875
1040,0.12890625,-0.265625,-0.90234375
1041,0.1328125,-0.26953125,-0.890625
1042,0.12109375,-0.265625,-0.88671875
1043,0.12890625,-0.26171875,-0.86328125
1044,0.1171875,-0.265625,-0.87890625
1045,0.12109375,-0.2734375,-0.86328125
1046,0.109375,-0.2578125,-0.87109375
1047,0.109375,-0.24609375,-0.859375
1048,0.10546875,-0.24609375,-0.8515625
1049,0.10546875,-0.2421875,-0.8515625
1050,0.11328125,-0.25390625,-0.81640625
1051,0.109375,-0.2578125,-0.8046875
1052,0.11328125,-0.26171875,-0.7890625
1053,0.11328125,-0.265625,-0.796875
1054,0.125,-0.28125,-0.8046875
1055,0.109375,-0.27734375,-0.7890625
1056,0.10546875,-0.28515625,-0.78515625
1057,0.10546875,-0.3046875,-0.78515625
1058,0.10546875,-0.30859375,-0.7890625
1059,0.12109375,-0.3125,-0.80078125
1060,0.12109375,-0.29296875,-0.79296875
1061,0.125,-0.2890625,-0.78515625
1062,0.140625,-0.28125,-0.76171875
1063,0.13671875,-0.28125,-0.78125
1064,0.15234375,-0.28515625,-0.7578125
1065,0.15625,-0.27734375,-0.734375
1066,0.1640625,-0.29296875,-0.73828125
1067,0.16015625,-0.29296875,-0.72265625
1068,0.16015625,-0.30859375,-0.7109375
1069,0.16015625,-0.3203125,-0.68359375
1070,0.14453125,-0.32421875,-0.69140625
1071,0.140625,-0.3125,-0.67578125
1072,0.13671875,-0.3203125,-0.6640625
1073,0.1171875,-0.3203125,-0.66796875
1074,0.09765625,-0.32421875,-0.6484375
1075,0.09375,-0.3125,-0.62890625
1076,0.09375,-0.3046875,-0.609375
1077,0.08984375,-0.296875,-0.58984375
1078,0.0859375,-0.29296875,-0.5703125
1079,0.08203125,-0.3046875,-0.5390625
1080,0.09375,-0.30859375,-0.51953125
1081,0.109375,-0.30078125,-0.49609375
1082,0.12109375,-0.3125,-0.46875
1083,0.12890625,-0.33203125,-0.48828125
1084,0.1484375,-0.35546875,-0.4609375
1085,0.15625,-0.3671875,-0.45703125
1086,0.1640625,-0.38671875,-0.47265625
1087,0.140625,-0.4140625,-0.4609375
1088,0.1171875,-0.45703125,-0.46875
1089,0.109375,-0.46875,-0.45703125
1090,0.1015625,-0.44921875,-0.46484375
1091,0.07421875,-0.40234375,-0.48828125
1092,0.0390625,-0.33984375,-0.48046875
1093,0.046875,-0.3046875,-0.484375
1094,0.0390625,-0.3046875,-0.46484375
1095,0.0234375,-0.28125,-0.43359375
1096,-0.00390625,-0.2890625,-0.39453125
1097,0.03125,-0.29296875,-0.359375
1098,0.04296875,-0.31640625,-0.31640625
1099,0.06640625,-0.296875,-0.3125
1100,0.08203125,-0.2578125,-0.328125
1101,0.0859375,-0.19140625,-0.3515625
1102,0.10546875,-0.140625,-0.375
1103,0.125,-0.14453125,-0.37109375
1104,0.13671875,-0.1875,-0.30859375
1105,0.12890625,-0.2109375,-0.26953125
1106,0.15234375,-0.29296875,-0.25
1107,0.15625,-0.359375,-0.22265625
1108,0.16015625,-0.3984375,-0.21875
1109,0.15625,-0.42578125,-0.2265625
1110,0.1484375,-0.45703125,-0.25390625
1111,0.171875,-0.50390625,-0.27734375
1112,0.171875,-0.49609375,-0.2734375
1113,0.20703125,-0.51953125,-0.328125
1114,0.2265625,-0.4765625,-0.3203125
1115,0.23828125,-0.41015625,-0.38671875
1116,0.24609375,-0.38671875,-0.40625
1117,0.23828125,-0.36328125,-0.38671875
1118,0.21484375,-0.421875,-0.41796875
1119,0.18359375,-0.51171875,-0.453125
1120,0.1015625,-0.6015625,-0.46875
1121,0.08984375,-0.6640625,-0.5390625
1122,0.08984375,-0.66015625,-0.54296875
1123,0.08984375,-0.6328125,-0.55078125
1124,0.078125,-0.59765625,-0.5390625
1125,0.12109375,-0.5546875,-0.46875
1126,0.1640625,-0.5,-0.38671875
1127,0.203125,-0.421875,-0.33203125
1128,0.28515625,-0.3828125,-0.31640625
1129,0.37890625,-0.3203125,-0.328125
1130,0.46484375,-0.32421875,-0.3203125
1131,0.52734375,-0.3125,-0.32421875
1132,0.546875,-0.30078125,-0.29296875
1133,0.6015625,-0.30859375,-0.2890625
1134,0.68359375,-0.27734375,-0.3046875
1135,0.80859375,-0.30859375,-0.2578125
1136,0.96875,-0.31640625,-0.19921875
1137,1.1796875,-0.3203125,-0.17578125
1138,1.44140625,-0.3203125,-0.140625
1139,1.671875,-0.33203125,-0.09375
1140,2.0234375,-0.3203125,-0.0625
1141,2.48828125,-0.42578125,-0.11328125
1142,3.015625,-0.7421875,-0.12109375
1143,4.2421875,-1.65625,0.03515625
1144,6.7890625,-3.76953125,0.96484375
1145,9.00390625,-5.98046875,1.28515625
1146,11.2421875,-6.02734375,0.43359375
1147,11.61328125,-3.77734375,-0.25390625
1148,6.9296875,-1.22265625,-0.10546875
1149,2.36328125,-0.484375,0.0625
1150,0.35546875,0.09765625,0.52734375
1151,-0.62109375,0.078125,1.30859375
1152,-1.453125,-0.19140625,1.5390625
1153,-1.91796875,-0.3671875,1.26171875
1154,-1.6328125,-0.4453125,0.3046875
1155,-1.4296875,-0.5234375,0.0234375
1156,-0.859375,-0.59765625,-0.0703125
1157,0.32421875,-0.59375,-0.2265625
1158,1.08984375,-0.5,0.0546875
1159,1.62109375,-0.22265625,0.25390625
1160,2.09375,0.03515625,0.17578125
1161,2.33984375,0.3671875,0.06640625
1162,1.7734375,0.43359375,0.28125
1163,1.33203125,0.55859375,0.65625
1164,0.93359375,0.75,0.91796875
1165,0.6171875,1.046875,1.34765625
1166,0.34375,1.43359375,1.66015625
1167,0.1328125,1.67578125,1.8125
1168,-0.078125,1.87890625,1.71875
1169,-0.08203125,1.98828125,1.66015625
1170,-0.16015625,2.0078125,1.56640625
1171,0.03515625,1.92578125,1.5625
1172,0.30078125,1.70703125,1.53125
1173,0.296875,1.48828125,1.42578125
1174,0.41796875,0.9140625,1.2734375
1175,0.65234375,0.54296875,0.89453125
1176,0.7109375,0.1484375,0.5390625
1177,0.60546875,-0.24609375,0.3203125
1178,0.65234375,-0.75,0.0390625
1179,0.94921875,-1.1796875,-0.0234375
1180,1.296875,-1.2890625,0.1328125
1181,1.328125,-1.19140625,0.25
1182,1.296875,-1.0390625,0.28515625
1183,1.26953125,-0.76953125,0.25390625
1184,1.1171875,-0.4375,0.265625
1185,1.0078125,-0.19140625,0.3359375
1186,0.8984375,0.06640625,0.51171875
1187,0.83203125,0.26953125,0.64453125
1188,0.74609375,0.48046875,0.7421875
1189,0.64453125,0.65234375,0.77734375
1190,0.51171875,0.78515625,0.83203125
1191,0.421875,0.85546875,0.89453125
1192,0.390625,0.87109375,0.84375
1193,0.3125,0.875,0.8046875
1194,0.36328125,0.7890625,0.6875
1195,0.4375,0.67578125,0.5546875
1196,0.578125,0.50390625,0.48828125
1197,0.57421875,0.29296875,0.44140625
1198,0.6328125,0.078125,0.4453125
1199,0.62890625,-0.09765625,0.40625
1200,0.6015625,-0.19921875,0.37109375
1201,0.578125,-0.265625,0.3359375
1202,0.47265625,-0.2890625,0.2890625
1203,0.41015625,-0.26171875,0.25390625
1204,0.37890625,-0.17578125,0.2890625
1205,0.28125,-0.0234375,0.29296875
1206,0.28125,0.11328125,0.37109375
1207,0.3125,0.25390625,0.484375
1208,0.3515625,0.3359375,0.5625
1209,0.3671875,0.47265625,0.64453125
1210,0.4609375,0.54296875,0.7265625
1211,0.59375,0.578125,0.81640625
1212,0.69140625,0.58203125,0.83984375
1213,0.8359375,0.51953125,0.90234375
1214,0.89453125,0.4765625,0.9140625
1215,0.92578125,0.39453125,0.89453125
1216,0.94140625,0.296875,0.84765625
1217,0.96484375,0.21484375,0.84765625
1218,0.9375,0.14453125,0.83203125
1219,0.87109375,0.1015625,0.8359375
1220,0.796875,0.05859375,0.88671875
1221,0.75,0.0390625,0.9140625
1222,0.7265625,0.01171875,0.93359375
1223,0.67578125,0.02734375,0.90625
1224,0.66015625,0.0234375,0.89453125
1225,0.671875,0.06640625,0.828125
1226,0.65625,0.0625,0.828125
1227,0.6640625,0.06640625,0.84765625
1228,0.6640625,0.0546875,0.83984375
1229,0.6796875,0.015625,0.8515625
1230,0.69921875,0.00390625,0.84765625
1231,0.703125,-0.01171875,0.84375
1232,0.70703125,0.0,0.76953125
1233,0.734375,-0.0625,0.83203125
1234,0.78125,-0.078125,0.78515625
1235,0.6796875,-0.078125,0.75
1236,0.6953125,-0.1171875,0.7421875
1237,0.671875,-0.09765625,0.69921875
1238,0.6875,-0.0859375,0.64453125
1239,0.66015625,-0.08984375,0.640625
1240,0.62890625,-0.09375,0.62890625
1241,0.6171875,-0.08203125,0.62890625
1242,0.6015625,-0.09765625,0.640625
1243,0.5625,-0.05078125,0.64453125
1244,0.5703125,-0.02734375,0.63671875
1245,0.546875,-0.015625,0.62109375
1246,0.546875,0.0078125,0.6015625
1247,0.59765625,0.00390625,0.578125
1248,0.6015625,0.00390625,0.5703125
1249,0.5703125,-0.01171875,0.546875
1250,0.62109375,-0.03515625,0.546875
1251,0.66015625,-0.04296875,0.53125
1252,0.7109375,-0.078125,0.52734375
1253,0.75,-0.09375,0.5625
1254,0.8125,-0.1015625,0.55859375
1255,0.8125,-0.078125,0.55859375
1256,0.80859375,-0.0703125,0.54296875
1257,0.83984375,-0.046875,0.54296875
1258,0.83203125,-0.0546875,0.546875
1259,0.84375,-0.0546875,0.5703125
1260,0.859375,-0.08984375,0.58984375
1261,0.8515625,-0.109375,0.6015625
1262,0.81640625,-0.109375,0.59375
1263,0.78125,-0.109375,0.5703125
1264,0.75,-0.125,0.5703125
1265,0.71484375,-0.140625,0.59765625
1266,0.6953125,-0.15625,0.578125
1267,0.69140625,-0.16796875,0.55078125
1268,0.70703125,-0.1875,0.51171875
1269,0.72265625,-0.1875,0.5
1270,0.75390625,-0.20703125,0.4609375
1271,0.8046875,-0.2109375,0.4296875
1272,0.8203125,-0.203125,0.39453125
1273,0.80859375,-0.2109375,0.375
1274,0.82421875,-0.18359375,0.3828125
1275,0.84375,-0.16015625,0.38671875
1276,0.8671875,-0.13671875,0.37109375
1277,0.8515625,-0.09765625,0.3828125
1278,0.86328125,-0.08203125,0.390625
1279,0.87890625,-0.05859375,0.421875
1280,0.875,-0.02734375,0.4375
1281,0.91796875,-0.0078125,0.44140625
1282,0.93359375,0.0078125,0.44921875
1283,0.98046875,0.015625,0.4296875
1284,1.0078125,0.015625,0.4140625
1285,1.01953125,0.0078125,0.33984375
1286,1.07421875,-0.015625,0.30078125
1287,1.05859375,-0.02734375,0.28125
1288,1.0546875,-0.0625,0.2734375
1289,1.0390625,-0.0859375,0.27734375
1290,1.0234375,-0.1015625,0.28125
1291,1.0078125,-0.109375,0.30078125
1292,1.0,-0.109375,0.29296875
1293,0.9453125,-0.0859375,0.28515625
1294,0.9453125,-0.10546875,0.29296875
1295,0.9453125,-0.09375,0.3125
1296,0.953125,-0.078125,0.30078125
1297,0.94140625,-0.0703125,0.3125
1298,0.96875,-0.03515625,0.32421875
1299,0.98828125,-0.02734375,0.31640625
1300,1.0,-0.03125,0.3125
1301,1.03515625,-0.05078125,0.3046875
1302,1.02734375,-0.0703125,0.29296875
1303,1.02734375,-0.0625,0.28125
1304,1.0546875,-0.06640625,0.26171875
1305,1.0546875,-0.078125,0.26171875
1306,1.01171875,-0.06640625,0.22265625
1307,1.01171875,-0.078125,0.234375
1308,1.01953125,-0.0703125,0.23046875
1309,1.01171875,-0.05859375,0.21875
1310,1.00390625,-0.0390625,0.234375
1311,0.98828125,-0.01171875,0.24609375
1312,0.984375,-0.00390625,0.25
1313,0.9609375,0.015625,0.27734375
1314,0.9453125,0.0,0.2734375
1315,0.94921875,-0.00390625,0.28125
1316,0.9453125,-0.0078125,0.265625
1317,0.953125,-0.015625,0.28125
1318,0.97265625,-0.03515625,0.25390625
1319,0.97265625,-0.06640625,0.2578125
1320,0.984375,-0.08203125,0.2421875
1321,0.9921875,-0.1015625,0.20703125
1322,1.00390625,-0.12109375,0.19140625
1323,0.99609375,-0.12890625,0.2109375
1324,1.01953125,-0.1484375,0.1953125
1325,0.96875,-0.14453125,0.1953125
1326,1.015625,-0.11328125,0.23046875
1327,1.03515625,-0.06640625,0.23046875
1328,1.00390625,-0.06640625,0.2421875
1329,0.9921875,-0.05078125,0.25
1330,1.0234375,-0.015625,0.25390625
1331,0.98046875,-0.01171875,0.2578125
1332,0.984375,-0.00390625,0.2421875
1333,0.9765625,0.0,0.2265625
1334,1.05078125,-0.00390625,0.24609375
1335,1.0546875,-0.046875,0.19921875
1336,1.03515625,-0.07421875,0.1953125
1337,1.0390625,-0.1171875,0.203125
1338,1.08203125,-0.1640625,0.20703125
1339,1.0703125,-0.19921875,0.19140625
1340,1.04296875,-0.234375,0.171875
1341,1.01171875,-0.265625,0.19140625
1342,1.0078125,-0.27734375,0.1875
1343,0.96875,-0.26953125,0.1875
1344,0.94921875,-0.26171875,0.203125
1345,0.94140625,-0.22265625,0.2265625
1346,0.93359375,-0.171875,0.2421875
1347,0.91796875,-0.1171875,0.25
1348,0.8984375,-0.05078125,0.28125
1349,0.875,-0.01171875,0.31640625
1350,0.8671875,0.0234375,0.3125
1351,0.8671875,0.046875,0.3515625
1352,0.87109375,0.0703125,0.34375
1353,0.87890625,0.05078125,0.37109375
1354,0.89453125,0.05078125,0.36328125
1355,0.93359375,-0.00390625,0.35546875
1356,0.96484375,-0.01171875,0.33984375
1357,1.0,-0.04296875,0.3125
1358,1.01953125,-0.08203125,0.30859375
1359,1.0390625,-0.1015625,0.27734375
1360,1.04296875,-0.109375,0.28125
1361,1.03515625,-0.10546875,0.27734375
1362,1.03515625,-0.12109375,0.2578125
1363,1.01953125,-0.11328125,0.26171875
1364,1.0,-0.078125,0.2421875
1365,0.9765625,-0.05078125,0.2421875
1366,0.96484375,-0.0234375,0.25
1367,0.95703125,-0.015625,0.25
1368,0.953125,0.01171875,0.23828125
1369,0.94140625,0.05078125,0.23046875
1370,0.953125,0.05078125,0.25390625
1371,0.9453125,0.0625,0.25
1372,0.953125,0.046875,0.2578125
1373,0.95703125,0.0234375,0.24609375
1374,0.95703125,0.01953125,0.24609375
1375,0.98046875,-0.00390625,0.2578125
1376,0.98828125,-0.01953125,0.26171875
1377,0.98046875,-0.04296875,0.265625
1378,0.99609375,-0.0546875,0.25
1379,0.984375,-0.06640625,0.24609375
1380,1.0,-0.0703125,0.2734375
1381,0.98828125,-0.07421875,0.26953125
1382,0.9765625,-0.0546875,0.265625
1383,0.98046875,-0.05078125,0.28515625
1384,0.97265625,-0.04296875,0.2890625
1385,0.9765625,-0.0390625,0.2890625
1386,0.96484375,-0.0234375,0.30078125
1387,0.96484375,-0.0234375,0.3046875
1388,0.953125,-0.0234375,0.29296875
1389,0.94921875,-0.015625,0.29296875
1390,0.9453125,-0.015625,0.30859375
1391,0.9296875,-0.03125,0.3046875
1392,0.9453125,-0.0234375,0.3046875
1393,0.94140625,-0.02734375,0.31640625
1394,0.93359375,-0.03125,0.296875
1395,0.93359375,-0.03125,0.29296875
1396,0.9453125,-0.05859375,0.30078125
1397,0.953125,-0.05078125,0.29296875
1398,0.94921875,-0.046875,0.29296875
1399,0.94140625,-0.05078125,0.30078125
1400,0.94921875,-0.046875,0.296875
1401,0.953125,-0.0546875,0.3046875
1402,0.94921875,-0.03125,0.30859375
1403,0.93359375,-0.05078125,0.3203125
1404,0.93359375,-0.02734375,0.30859375
1405,0.9296875,-0.0234375,0.3125
1406,0.9296875,-0.015625,0.30078125
1407,0.93359375,-0.015625,0.3046875
1408,0.9296875,-0.01171875,0.3125
1409,0.9375,-0.01171875,0.3125
1410,0.9375,-0.015625,0.296875
1411,0.94921875,-0.03125,0.29296875
1412,0.94921875,-0.03515625,0.296875
1413,0.94921875,-0.0390625,0.29296875
1414,0.953125,-0.04296875,0.28125
1415,0.95703125,-0.046875,0.2890625
1416,0.95703125,-0.046875,0.28515625
1417,0.9609375,-0.03125,0.29296875
1418,0.96484375,-0.0390625,0.26953125
1419,0.98046875,-0.03515625,0.28125
1420,0.9609375,-0.04296875,0.28125
1421,0.96484375,-0.0390625,0.27734375
1422,0.96484375,-0.03515625,0.27734375
1423,0.9609375,-0.04296875,0.2734375
1424,0.96484375,-0.03515625,0.26953125
1425,0.96875,-0.046875,0.2734375
1426,0.96484375,-0.0234375,0.26953125
1427,0.9609375,-0.02734375,0.27734375
1428,0.953125,-0.02734375,0.27734375
1429,0.95703125,-0.01953125,0.27734375
1430,0.95703125,-0.03515625,0.28125
1431,0.95703125,-0.02734375,0.26171875
1432,0.96484375,-0.01953125,0.28125
1433,0.9609375,-0.03125,0.2890625
1434,0.96484375,-0.0390625,0.27734375
1435,0.97265625,-0.05078125,0.265625
1436,0.953125,-0.03515625,0.2734375
1437,0.9609375,-0.046875,0.2734375
1438,0.9609375,-0.05078125,0.28125
1439,0.95703125,-0.05078125,0.2734375
1440,0.95703125,-0.04296875,0.2890625
1441,0.9609375,-0.04296875,0.2734375
1442,0.95703125,-0.03515625,0.27734375
1443,0.9609375,-0.03125,0.28125
1444,0.95703125,-0.04296875,0.27734375
1445,0.953125,-0.04296875,0.2890625
1446,0.953125,-0.05078125,0.28125
1447,0.95703125,-0.05078125,0.2890625
1448,0.9453125,-0.05078125,0.29296875
1449,0.953125,-0.05078125,0.2734375
1450,0.9453125,-0.04296875,0.28125
1451,0.9609375,-0.046875,0.27734375
1452,0.94921875,-0.03515625,0.28515625
1453,0.953125,-0.046875,0.28515625
1454,0.953125,-0.05078125,0.29296875
1455,0.9453125,-0.04296875,0.28515625
1456,0.953125,-0.05078125,0.28125
1457,0.9453125,-0.046875,0.27734375
1458,0.953125,-0.04296875,0.29296875
1459,0.9453125,-0.0390625,0.2890625
1460,0.94921875,-0.0546875,0.2890625
1461,0.94921875,-0.0625,0.3046875
1462,0.95703125,-0.05078125,0.29296875
1463,0.9453125,-0.03125,0.28515625
1464,0.953125,-0.03515625,0.28515625
1465,0.95703125,-0.04296875,0.28515625
1466,0.9609375,-0.0390625,0.28515625
1467,0.953125,-0.0390625,0.28515625
1468,0.96484375,-0.03515625,0.28125
1469,0.953125,-0.03125,0.27734375
1470,0.95703125,-0.0390625,0.28125
1471,0.94921875,-0.0390625,0.28125
1472,0.95703125,-0.0390625,0.28515625
1473,0.95703125,-0.03515625,0.2890625
1474,0.95703125,-0.03515625,0.28125
1475,0.95703125,-0.04296875,0.2734375
1476,0.95703125,-0.03125,0.296875
1477,0.9609375,-0.03125,0.2734375
1478,0.953125,-0.01953125,0.2890625
1479,0.96484375,-0.046875,0.28125
1480,0.95703125,-0.03515625,0.28125
1481,0.96484375,-0.04296875,0.27734375
1482,0.9609375,-0.0390625,0.28125
1483,0.95703125,-0.03515625,0.28515625
1484,0.953125,-0.02734375,0.27734375
1485,0.96484375,-0.046875,0.27734375
1486,0.95703125,-0.02734375,0.28125
1487,0.953125,-0.03515625,0.27734375
1488,0.96484375,-0.04296875,0.2734375
1489,0.9609375,-0.03125,0.2734375
1490,0.95703125,-0.0234375,0.28515625
1491,0.9609375,-0.0234375,0.26953125
1492,0.95703125,-0.01953125,0.27734375
1493,0.9609375,-0.04296875,0.26171875
1494,0.9609375,-0.04296875,0.27734375
1495,0.96484375,-0.0234375,0.26953125
1496,0.96484375,-0.0390625,0.2890625
1497,0.95703125,-0.04296875,0.28125
1498,0.9609375,-0.05078125,0.2578125
1499,0.953125,-0.02734375,0.28125
1500,0.95703125,-0.01953125,0.26953125
1501,0.953125,-0.03125,0.27734375
1502,0.953125,-0.0390625,0.2734375
1503,0.9765625,-0.04296875,0.28125
1504,0.9609375,-0.02734375,0.2734375
1505,0.94921875,-0.0390625,0.28125
1506,0.9609375,-0.046875,0.27734375
1507,0.95703125,-0.046875,0.2734375
1508,0.9609375,-0.03515625,0.28125
1509,0.953125,-0.05078125,0.2734375
1510,0.9609375,-0.03515625,0.2734375
1511,0.953125,-0.03125,0.27734375
1512,0.953125,-0.0390625,0.28515625
1513,0.9609375,-0.05078125,0.28125
1514,0.96484375,-0.0546875,0.28515625
1515,0.96484375,-0.03125,0.27734375
1516,0.9609375,-0.03125,0.2734375
1517,0.95703125,-0.0234375,0.29296875
1518,0.95703125,-0.015625,0.28515625
1519,0.95703125,-0.015625,0.28515625
1520,0.9453125,-0.015625,0.29296875
1521,0.94140625,-0.015625,0.2890625
1522,0.9609375,-0.03125,0.29296875
1523,0.953125,-0.03125,0.28515625
1524,0.94921875,-0.046875,0.2890625
1525,0.9609375,-0.05859375,0.2734375
1526,0.96484375,-0.05859375,0.28125
1527,0.96484375,-0.0625,0.2734375
1528,0.95703125,-0.06640625,0.26953125
1529,0.9609375,-0.0546875,0.27734375
1530,0.95703125,-0.05078125,0.28515625
1531,0.9609375,-0.0546875,0.28515625
1532,0.953125,-0.03515625,0.28125
1533,0.94921875,-0.046875,0.28515625
1534,0.95703125,-0.03515625,0.28125
1535,0.953125,-0.015625,0.28125
1536,0.953125,-0.015625,0.2890625
1537,0.94921875,-0.015625,0.28125
1538,0.9453125,-0.015625,0.28515625
1539,0.94921875,-0.015625,0.28515625
1540,0.95703125,-0.03515625,0.28125
1541,0.94921875,-0.03515625,0.2734375
1542,0.95703125,-0.0546875,0.27734375
1543,0.953125,-0.05078125,0.2734375
1544,0.953125,-0.05078125,0.29296875
1545,0.95703125,-0.05078125,0.28515625
1546,0.95703125,-0.0390625,0.28125
1547,0.95703125,-0.04296875,0.29296875
1548,0.9609375,-0.02734375,0.28125
1549,0.9609375,-0.01953125,0.27734375
1550,0.953125,-0.03515625,0.28515625
1551,0.95703125,-0.01953125,0.2890625
1552,0.96484375,-0.03515625,0.2890625
1553,0.953125,-0.02734375,0.296875
1554,0.94921875,-0.0234375,0.27734375
1555,0.9609375,-0.03125,0.2890625
1556,0.94921875,-0.04296875,0.28515625
1557,0.953125,-0.01953125,0.30859375
1558,0.953125,-0.04296875,0.28515625
1559,0.953125,-0.05078125,0.26953125
1560,0.95703125,-0.04296875,0.28515625
1561,0.953125,-0.046875,0.2734375
1562,0.95703125,-0.0390625,0.28125
1563,0.953125,-0.03125,0.29296875
1564,0.953125,-0.0390625,0.28125
1565,0.953125,-0.03125,0.27734375
1566,0.95703125,-0.0390625,0.29296875
1567,0.9609375,-0.03125,0.28125
1568,0.9609375,-0.0390625,0.28515625
1569,0.9609375,-0.046875,0.28125
1570,0.96484375,-0.0390625,0.28515625
1571,0.95703125,-0.04296875,0.26953125
1572,0.953125,-0.03515625,0.265625
1573,0.9609375,-0.046875,0.27734375
1574,0.9609375,-0.0390625,0.27734375
1575,0.953125,-0.046875,0.28515625
1576,0.9609375,-0.046875,0.28515625
1577,0.953125,-0.03125,0.28515625
1578,0.9609375,-0.03125,0.28515625
1579,0.953125,-0.03125,0.26171875
1580,0.95703125,-0.0390625,0.27734375
1581,0.97265625,-0.04296875,0.2734375
1582,0.95703125,-0.04296875,0.2734375
1583,0.95703125,-0.0390625,0.2734375
1584,0.9609375,-0.046875,0.27734375
1585,0.953125,-0.02734375,0.28125
1586,0.953125,-0.02734375,0.29296875
1587,0.9609375,-0.0390625,0.28515625
1588,0.95703125,-0.03125,0.28125
1589,0.96484375,-0.03125,0.27734375
1590,0.95703125,-0.02734375,0.27734375
1591,0.953125,-0.0234375,0.28515625
1592,0.953125,-0.0234375,0.28515625
1593,0.9609375,-0.03515625,0.28515625
1594,0.95703125,-0.03125,0.296875
1595,0.9609375,-0.0390625,0.2890625
1596,0.953125,-0.03515625,0.28125
1597,0.95703125,-0.05078125,0.28515625
1598,0.94921875,-0.02734375,0.296875
1599,0.953125,-0.03125,0.28125
1600,0.95703125,-0.0390625,0.28125
1601,0.953125,-0.05078125,0.28515625
1602,0.9609375,-0.0390625,0.27734375
1603,0.94921875,-0.02734375,0.296875
1604,0.95703125,-0.04296875,0.28515625
1605,0.953125,-0.03125,0.27734375
1606,0.94921875,-0.02734375,0.28125
1607,0.94921875,-0.0234375,0.29296875
1608,0.953125,-0.0234375,0.28515625
1609,0.94921875,-0.03125,0.30078125
1610,0.953125,-0.03515625,0.28125
1611,0.953125,-0.0234375,0.2890625
1612,0.95703125,-0.03125,0.296875
1613,0.953125,-0.01171875,0.28515625
1614,0.95703125,-0.0234375,0.28125
1615,0.9609375,-0.0234375,0.29296875
1616,0.9609375,-0.03515625,0.28515625
1617,0.95703125,-0.046875,0.28125
1618,0.953125,-0.0390625,0.28125
1619,0.95703125,-0.0546875,0.2734375
1620,0.95703125,-0.05859375,0.2890625
1621,0.9609375,-0.046875,0.2890625
1622,0.95703125,-0.0390625,0.265625
1623,0.9453125,-0.04296875,0.28515625
1624,0.953125,-0.04296875,0.28515625
1625,0.953125,-0.03515625,0.27734375
1626,0.953125,-0.0234375,0.28125
1627,0.95703125,-0.03125,0.30078125
1628,0.953125,-0.01953125,0.296875
1629,0.953125,-0.0234375,0.27734375
1630,0.95703125,-0.03125,0.28515625
1631,0.95703125,-0.01953125,0.28125
1632,0.953125,-0.03125,0.296875
1633,0.94140625,-0.015625,0.28125
1634,0.953125,-0.0390625,0.27734375
1635,0.95703125,-0.05078125,0.2890625
1636,0.95703125,-0.046875,0.28125
1637,0.9609375,-0.03515625,0.2890625
1638,0.9609375,-0.04296875,0.265625
1639,0.95703125,-0.0390625,0.27734375
1640,0.9609375,-0.0390625,0.2734375
1641,0.96484375,-0.03515625,0.28515625
1642,0.953125,-0.015625,0.2734375
1643,0.96484375,-0.03125,0.29296875
1644,0.953125,-0.0390625,0.28125
1645,0.96484375,-0.0234375,0.28515625
1646,0.95703125,-0.04296875,0.29296875
1647,0.9609375,-0.04296875,0.28125
1648,0.95703125,-0.04296875,0.27734375
1649,0.96484375,-0.05078125,0.28125
1650,0.953125,-0.04296875,0.28515625
1651,0.953125,-0.046875,0.28125
1652,0.95703125,-0.04296875,0.28125
1653,0.94921875,-0.03515625,0.28125
1654,0.953125,-0.05078125,0.28515625
1655,0.9453125,-0.0234375,0.29296875
1656,0.94921875,-0.02734375,0.2734375
1657,0.95703125,-0.03125,0.28515625
1658,0.9609375,-0.02734375,0.28125
1659,0.953125,-0.03515625,0.28125
1660,0.95703125,-0.0390625,0.27734375
1661,0.95703125,-0.0546875,0.27734375
1662,0.95703125,-0.04296875,0.2890625
1663,0.953125,-0.03125,0.27734375
1664,0.953125,-0.05078125,0.2890625
1665,0.9609375,-0.0390625,0.29296875
1666,0.95703125,-0.04296875,0.28515625
1667,0.9609375,-0.046875,0.28515625
1668,0.95703125,-0.03515625,0.28125
1669,0.953125,-0.03125,0.2890625
1670,0.953125,-0.03125,0.28125
1671,0.9453125,-0.0390625,0.28515625
1672,0.953125,-0.046875,0.28125
1673,0.95703125,-0.05078125,0.2734375
1674,0.95703125,-0.046875,0.27734375
1675,0.94921875,-0.03515625,0.2734375
1676,0.953125,-0.04296875,0.27734375
1677,0.953125,-0.03515625,0.2734375
1678,0.953125,-0.03125,0.29296875
1679,0.953125,-0.0390625,0.2734375
1680,0.94921875,-0.0390625,0.28515625
1681,0.953125,-0.0390625,0.28125
1682,0.953125,-0.04296875,0.296875
1683,0.94921875,-0.04296875,0.2890625
1684,0.953125,-0.03125,0.28125
1685,0.953125,-0.046875,0.28125
1686,0.95703125,-0.05078125,0.29296875
1687,0.94921875,-0.04296875,0.2890625
1688,0.95703125,-0.03515625,0.28515625
1689,0.9609375,-0.03515625,0.29296875
1690,0.95703125,-0.05078125,0.28515625
1691,0.96484375,-0.04296875,0.2890625
1692,0.9609375,-0.03515625,0.28515625
1693,0.9765625,-0.046875,0.2890625
1694,0.9609375,-0.02734375,0.27734375
1695,0.95703125,-0.03125,0.2890625
1696,0.95703125,-0.03125,0.28515625
1697,0.95703125,-0.01171875,0.28125
1698,0.96484375,-0.015625,0.296875
1699,0.953125,-0.01171875,0.29296875
1700,0.9453125,-0.01171875,0.2890625
1701,0.953125,-0.01953125,0.296875
1702,0.95703125,-0.03515625,0.29296875
1703,0.96484375,-0.05078125,0.2734375
1704,0.96875,-0.05078125,0.2734375
1705,0.96875,-0.05859375,0.28125
1706,0.96484375,-0.0546875,0.265625
1707,0.96875,-0.05859375,0.27734375
1708,0.9609375,-0.05078125,0.2734375
1709,0.953125,-0.046875,0.2890625
1710,0.953125,-0.04296875,0.28515625
1711,0.9609375,-0.046875,0.2890625
1712,0.94921875,-0.0234375,0.27734375
1713,0.95703125,-0.02734375,0.28515625
1714,0.94921875,-0.015625,0.26953125
1715,0.953125,-0.01953125,0.27734375
1716,0.953125,-0.015625,0.26953125
1717,0.953125,-0.0234375,0.28515625
1718,0.953125,-0.03125,0.28125
1719,0.953125,-0.02734375,0.2890625
1720,0.953125,-0.05078125,0.28515625
1721,0.953125,-0.046875,0.28125
1722,0.953125,-0.046875,0.2890625
1723,0.94921875,-0.0546875,0.27734375
1724,0.94921875,-0.03515625,0.29296875
1725,0.95703125,-0.04296875,0.30078125
1726,0.953125,-0.02734375,0.28125
1727,0.95703125,-0.04296875,0.27734375
1728,0.9609375,-0.02734375,0.2890625
1729,0.953125,-0.0234375,0.28515625
1730,0.95703125,-0.0390625,0.2890625
1731,0.953125,-0.02734375,0.296875
1732,0.953125,-0.03125,0.30078125
1733,0.953125,-0.015625,0.296875
1734,0.95703125,-0.0390625,0.28125
1735,0.953125,-0.03515625,0.296875
1736,0.953125,-0.03515625,0.2890625
1737,0.953125,-0.04296875,0.28515625
1738,0.94921875,-0.0234375,0.27734375
1739,0.94921875,-0.03515625,0.2890625
1740,0.953125,-0.04296875,0.28515625
1741,0.953125,-0.03515625,0.2890625
1742,0.953125,-0.04296875,0.28515625
1743,0.94140625,-0.03125,0.28515625
1744,0.95703125,-0.03515625,0.2890625
1745,0.953125,-0.05078125,0.29296875
1746,0.953125,-0.0390625,0.2890625
1747,0.953125,-0.046875,0.28515625
1748,0.9453125,-0.0390625,0.28515625
1749,0.953125,-0.0390625,0.28125
1750,0.95703125,-0.03515625,0.28515625
1751,0.953125,-0.03125,0.28125
1752,0.95703125,-0.04296875,0.28515625
1753,0.94921875,-0.01953125,0.28515625
1754,0.953125,-0.02734375,0.27734375
1755,0.96484375,-0.02734375,0.28125
1756,0.95703125,-0.0234375,0.27734375
1757,0.95703125,-0.04296875,0.28125
1758,0.9609375,-0.04296875,0.28515625
1759,0.96484375,-0.02734375,0.27734375
1760,0.9609375,-0.03515625,0.28515625
1761,0.95703125,-0.05078125,0.2890625
1762,0.9609375,-0.03125,0.28125
1763,0.95703125,-0.01953125,0.28125
1764,0.953125,-0.03125,0.27734375
1765,0.9609375,-0.03515625,0.28515625
1766,0.953125,-0.0390625,0.27734375
1767,0.953125,-0.01953125,0.29296875
1768,0.9609375,-0.03125,0.2734375
1769,0.9609375,-0.02734375,0.296875
1770,0.9609375,-0.03125,0.30078125
1771,0.95703125,-0.02734375,0.2734375
1772,0.953125,-0.03515625,0.2890625
1773,0.95703125,-0.0234375,0.28125
1774,0.95703125,-0.0390625,0.28515625
1775,0.96484375,-0.046875,0.2734375
1776,0.9609375,-0.046875,0.29296875
1777,0.953125,-0.046875,0.29296875
1778,0.95703125,-0.0390625,0.3046875
1779,0.9453125,-0.0234375,0.2890625
1780,0.95703125,-0.0390625,0.28515625
1781,0.94140625,-0.04296875,0.28515625
1782,0.953125,-0.0390625,0.2734375
1783,0.94921875,-0.02734375,0.296875
1784,0.94140625,-0.02734375,0.28125
1785,0.94921875,-0.03515625,0.28125
1786,0.9453125,-0.02734375,0.2890625
1787,0.953125,-0.015625,0.2890625
1788,0.95703125,-0.03515625,0.29296875
1789,0.953125,-0.046875,0.2890625
1790,0.95703125,-0.01953125,0.28515625
1791,0.94921875,-0.0390625,0.2890625
1792,0.9453125,-0.02734375,0.296875
1793,0.953125,-0.02734375,0.296875
1794,0.94921875,-0.03125,0.3125
1795,0.94921875,-0.02734375,0.29296875
1796,0.94921875,-0.0390625,0.29296875
1797,0.953125,-0.0390625,0.2890625
1798,0.953125,-0.04296875,0.2890625
1799,0.95703125,-0.04296875,0.296875
1800,0.9609375,-0.03515625,0.29296875
1801,0.94921875,-0.04296875,0.28125
1802,0.95703125,-0.03515625,0.28125
1803,0.953125,-0.03515625,0.2890625
1804,0.9609375,-0.04296875,0.28125
1805,0.95703125,-0.04296875,0.29296875
1806,0.953125,-0.0390625,0.28515625
1807,0.94921875,-0.0234375,0.296875
1808,0.9609375,-0.0390625,0.2890625
1809,0.94921875,-0.05859375,0.296875
1810,0.97265625,-0.0234375,0.30859375
1811,0.95703125,-0.02734375,0.3359375
1812,0.95703125,-0.125,0.2890625
1813,0.94921875,-0.03125,0.29296875
1814,0.9609375,-0.015625,0.33984375
1815,0.97265625,-0.03125,0.2109375
1816,0.953125,-0.0546875,0.2578125
1817,0.953125,-0.03515625,0.27734375
1818,0.96484375,-0.046875,0.2890625
1819,0.9609375,-0.03515625,0.27734375
1820,0.94921875,-0.046875,0.2890625
1821,0.953125,-0.03125,0.28515625
1822,0.953125,-0.02734375,0.2890625
1823,0.9609375,-0.046875,0.28515625
1824,0.95703125,-0.046875,0.28125
1825,0.95703125,-0.03515625,0.28125
1826,0.953125,-0.04296875,0.28125
1827,0.953125,-0.03515625,0.27734375
1828,0.95703125,-0.02734375,0.28515625
1829,0.95703125,-0.03125,0.28515625
1830,0.9609375,-0.0390625,0.28515625
1831,0.95703125,-0.0390625,0.28515625
1832,0.9609375,-0.05078125,0.28125
1833,0.94921875,-0.046875,0.296875
1834,0.953125,-0.04296875,0.2890625
1835,0.95703125,-0.04296875,0.2890625
1836,0.95703125,-0.0390625,0.28515625
1837,0.95703125,-0.046875,0.2890625
1838,0.953125,-0.046875,0.2890625
1839,0.94921875,-0.0390625,0.2890625
1840,0.94921875,-0.04296875,0.296875
1841,0.953125,-0.05078125,0.28125
1842,0.94921875,-0.04296875,0.28125
1843,0.94921875,-0.03125,0.2890625
1844,0.95703125,-0.046875,0.2890625
1845,0.953125,-0.0390625,0.27734375
1846,0.95703125,-0.03125,0.28515625
1847,0.953125,-0.04296875,0.29296875
1848,0.953125,-0.0390625,0.28515625
1849,0.96484375,-0.0390625,0.28515625
1850,0.95703125,-0.04296875,0.30078125
1851,0.953125,-0.0234375,0.29296875
1852,0.953125,-0.00390625,0.26953125
1853,0.9375,-0.04296875,0.28125
1854,0.94921875,-0.03125,0.30078125
1855,0.953125,-0.0234375,0.2890625
1856,0.9609375,-0.03515625,0.28125
1857,0.953125,-0.03515625,0.296875
1858,0.953125,-0.0390625,0.27734375
1859,0.953125,-0.04296875,0.2734375
1860,0.95703125,-0.04296875,0.28125
1861,0.953125,-0.03515625,0.28125
1862,0.953125,-0.0390625,0.28515625
1863,0.94921875,-0.0390625,0.28125
1864,0.95703125,-0.03515625,0.2890625
1865,0.953125,-0.02734375,0.28125
1866,0.953125,-0.03125,0.2734375
1867,0.94921875,-0.04296875,0.2890625
1868,0.953125,-0.02734375,0.2890625
1869,0.95703125,-0.0390625,0.2890625
1870,0.953125,-0.046875,0.29296875
1871,0.953125,-0.02734375,0.27734375
1872,0.95703125,-0.0390625,0.28125
1873,0.953125,-0.04296875,0.26953125
1874,0.953125,-0.0390625,0.26953125
1875,0.94921875,-0.03125,0.28125
1876,0.9453125,-0.02734375,0.27734375
1877,0.9609375,-0.0390625,0.2890625
1878,0.9609375,-0.0546875,0.2890625
1879,0.96875,-0.046875,0.265625
1880,0.96484375,-0.03515625,0.2890625
1881,0.96875,-0.01953125,0.2890625
1882,0.9609375,-0.0234375,0.28515625
1883,0.95703125,-0.02734375,0.28125
1884,0.94921875,-0.03125,0.28515625
1885,0.94921875,-0.015625,0.2890625
1886,0.94921875,-0.0234375,0.296875
1887,0.94921875,-0.015625,0.28515625
1888,0.953125,-0.0390625,0.29296875
1889,0.953125,-0.046875,0.27734375
1890,0.94921875,-0.05078125,0.28515625
1891,0.94921875,-0.05078125,0.28125
1892,0.95703125,-0.05078125,0.28125
1893,0.9609375,-0.06640625,0.28515625
1894,0.9609375,-0.05078125,0.27734375
1895,0.95703125,-0.05078125,0.28515625
1896,0.953125,-0.05859375,0.28515625
1897,0.953125,-0.03515625,0.29296875
1898,0.9609375,-0.0390625,0.28515625
1899,0.953125,-0.04296875,0.296875
1900,0.953125,-0.03515625,0.29296875
1901,0.95703125,-0.04296875,0.30078125
1902,0.953125,-0.015625,0.27734375
1903,0.94921875,-0.0234375,0.28515625
1904,0.94921875,-0.02734375,0.28125
1905,0.9453125,-0.02734375,0.27734375
1906,0.94921875,-0.03125,0.29296875
1907,0.94921875,-0.04296875,0.28125
1908,0.953125,-0.05859375,0.28125
1909,0.953125,-0.03515625,0.28515625
1910,0.94921875,-0.046875,0.28515625
1911,0.95703125,-0.046875,0.28515625
1912,0.94921875,-0.03125,0.296875
1913,0.96484375,-0.03515625,0.296875
1914,0.9609375,-0.04296875,0.2890625
1915,0.96875,-0.046875,0.28125
1916,0.9609375,-0.03515625,0.29296875
1917,0.953125,-0.02734375,0.296875
1918,0.9453125,-0.03125,0.296875
1919,0.9609375,-0.03515625,0.29296875
1920,0.953125,-0.03125,0.28515625
1921,0.94921875,-0.0234375,0.2890625
1922,0.953125,-0.03515625,0.2890625
1923,0.94921875,-0.03125,0.28125
1924,0.953125,-0.02734375,0.2890625
1925,0.953125,-0.03125,0.28125
1926,0.9609375,-0.04296875,0.28125
1927,0.94921875,-0.03515625,0.28515625
1928,0.953125,-0.04296875,0.2734375
1929,0.953125,-0.02734375,0.28125
1930,0.94921875,-0.046875,0.2890625
1931,0.953125,-0.05078125,0.28515625
1932,0.95703125,-0.0546875,0.28125
1933,0.953125,-0.05078125,0.28125
1934,0.95703125,-0.0390625,0.2890625
1935,0.95703125,-0.05078125,0.2890625
1936,0.953125,-0.0390625,0.28125
1937,0.9609375,-0.046875,0.28125
1938,0.95703125,-0.03515625,0.28515625
1939,0.953125,-0.02734375,0.296875
1940,0.9609375,-0.02734375,0.30078125
1941,0.96484375,-0.0390625,0.2890625
1942,0.953125,-0.01953125,0.29296875
1943,0.94921875,-0.02734375,0.296875
1944,0.9609375,-0.03125,0.29296875
1945,0.953125,-0.05078125,0.30078125
1946,0.95703125,-0.0546875,0.28515625
1947,0.96484375,-0.05078125,0.28125
1948,0.953125,-0.0546875,0.27734375
1949,0.953125,-0.0546875,0.27734375
1950,0.95703125,-0.046875,0.27734375
1951,0.953125,-0.03125,0.28515625
1952,0.95703125,-0.0390625,0.28125
1953,0.94921875,-0.05078125,0.27734375
1954,0.9609375,-0.0390625,0.2890625
1955,0.953125,-0.0390625,0.28125
1956,0.94921875,-0.03515625,0.2890625
1957,0.953125,-0.03125,0.2734375
1958,0.953125,-0.03515625,0.296875
1959,0.953125,-0.0390625,0.28125
1960,0.953125,-0.02734375,0.30078125
1961,0.9609375,-0.03125,0.2890625
1962,0.95703125,-0.04296875,0.29296875
1963,0.9609375,-0.03125,0.27734375
1964,0.96484375,-0.04296875,0.28515625
1965,0.953125,-0.03515625,0.2734375
1966,0.95703125,-0.03125,0.29296875
1967,0.953125,-0.0390625,0.30078125
1968,0.94921875,-0.03125,0.28125
1969,0.953125,-0.03515625,0.28125
1970,0.953125,-0.03125,0.28125
1971,0.953125,-0.03515625,0.2890625
1972,0.94921875,-0.03515625,0.29296875
1973,0.94921875,-0.03125,0.29296875
1974,0.953125,-0.0234375,0.2890625
1975,0.9453125,-0.03125,0.29296875
1976,0.9609375,-0.04296875,0.28515625
1977,0.95703125,-0.03125,0.296875
1978,0.95703125,-0.03125,0.29296875
1979,0.953125,-0.03125,0.29296875
1980,0.953125,-0.04296875,0.27734375
1981,0.953125,-0.03125,0.28125
1982,0.95703125,-0.03515625,0.2890625
1983,0.95703125,-0.03125,0.29296875
1984,0.953125,-0.04296875,0.30078125
1985,0.953125,-0.0390625,0.28515625
1986,0.953125,-0.03125,0.28515625
1987,0.95703125,-0.04296875,0.28125
1988,0.95703125,-0.04296875,0.28125
1989,0.95703125,-0.05078125,0.28125
1990,0.95703125,-0.046875,0.28125
1991,0.9453125,-0.01953125,0.2890625
1992,0.953125,-0.03515625,0.28125
1993,0.953125,-0.0390625,0.29296875
1994,0.953125,-0.01953125,0.28125
1995,0.953125,-0.0390625,0.27734375
1996,0.953125,-0.03515625,0.28515625
1997,0.9609375,-0.0390625,0.29296875
1998,0.95703125,-0.02734375,0.29296875
1999,0.953125,-0.03125,0.296875
2000,0.95703125,-0.02734375,0.29296875
2001,0.95703125,-0.02734375,0.28515625
2002,0.953125,-0.0390625,0.28515625
2003,0.953125,-0.03125,0.28125
2004,0.94140625,-0.01953125,0.28515625
2005,0.953125,-0.0390625,0.27734375
2006,0.96484375,-0.05078125,0.28125
2007,0.953125,-0.0390625,0.28125
2008,0.95703125,-0.03515625,0.27734375
2009,0.953125,-0.03515625,0.296875
2010,0.953125,-0.04296875,0.28515625
2011,0.94921875,-0.02734375,0.27734375
2012,0.953125,-0.05078125,0.296875
2013,0.95703125,-0.03125,0.296875
2014,0.953125,-0.01953125,0.28515625
2015,0.953125,-0.0234375,0.28515625
2016,0.94921875,-0.05078125,0.2734375
2017,0.953125,-0.04296875,0.28515625
2018,0.95703125,-0.046875,0.27734375
2019,0.953125,-0.04296875,0.28515625
2020,0.95703125,-0.03125,0.28125
2021,0.94921875,-0.04296875,0.28125
2022,0.95703125,-0.02734375,0.27734375
2023,0.95703125,-0.04296875,0.27734375
2024,0.953125,-0.0390625,0.29296875
2025,0.95703125,-0.02734375,0.28515625
2026,0.95703125,-0.046875,0.27734375
2027,0.95703125,-0.0390625,0.30078125
2028,0.953125,-0.0390625,0.28515625
2029,0.953125,-0.046875,0.28515625
2030,0.94921875,-0.03515625,0.27734375
2031,0.95703125,-0.03125,0.28125
2032,0.9609375,-0.0390625,0.27734375
2033,0.953125,-0.046875,0.27734375
2034,0.96484375,-0.046875,0.28125
2035,0.9609375,-0.05078125,0.27734375
2036,0.96484375,-0.04296875,0.28515625
2037,0.953125,-0.046875,0.2890625
2038,0.9609375,-0.0390625,0.28125
2039,0.95703125,-0.0390625,0.28515625
2040,0.94921875,-0.015625,0.2890625
2041,0.9609375,-0.04296875,0.28515625
2042,0.9609375,-0.0390625,0.28125
2043,0.953125,-0.02734375,0.29296875
2044,0.953125,-0.03515625,0.28515625
2045,0.95703125,-0.05078125,0.27734375
2046,0.95703125,-0.03515625,0.28515625
2047,0.9609375,-0.05078125,0.28125
2048,0.95703125,-0.04296875,0.29296875
2049,0.9609375,-0.03125,0.28125
2050,0.953125,-0.03125,0.2734375
2051,0.953125,-0.04296875,0.28515625
2052,0.95703125,-0.03125,0.28515625
2053,0.95703125,-0.03125,0.28515625
2054,0.96875,-0.0390625,0.296875
2055,0.9609375,-0.03515625,0.29296875
2056,0.95703125,-0.02734375,0.28515625
2057,0.97265625,-0.05078125,0.27734375
2058,0.953125,-0.03125,0.30859375
2059,0.95703125,-0.02734375,0.27734375
2060,0.953125,-0.03125,0.2890625
2061,0.95703125,-0.03125,0.27734375
2062,0.953125,-0.05078125,0.29296875
2063,0.953125,-0.03125,0.2890625
2064,0.94921875,-0.0234375,0.29296875
2065,0.953125,-0.04296875,0.28515625
2066,0.953125,-0.03125,0.30078125
2067,0.953125,-0.03515625,0.28125
2068,0.953125,-0.0390625,0.28125
2069,0.9453125,-0.02734375,0.29296875
2070,0.953125,-0.04296875,0.29296875
2071,0.9453125,-0.0390625,0.30078125
2072,0.953125,-0.046875,0.28515625
2073,0.953125,-0.04296875,0.28515625
2074,0.95703125,-0.04296875,0.28515625
2075,0.97265625,-0.04296875,0.30078125
2076,0.9609375,-0.046875,0.2890625
2077,0.97265625,-0.03125,0.28515625
2078,0.96484375,-0.03515625,0.29296875
2079,0.9609375,-0.03515625,0.28125
2080,0.94921875,-0.015625,0.28515625
2081,0.94921875,-0.01953125,0.28515625
2082,0.953125,-0.015625,0.2890625
2083,0.94140625,-0.015625,0.30078125
2084,0.9453125,-0.02734375,0.2890625
2085,0.95703125,-0.0390625,0.296875
2086,0.94921875,-0.046875,0.28125
2087,0.9609375,-0.0625,0.28125
2088,0.9609375,-0.0546875,0.28125
2089,0.9609375,-0.0546875,0.28125
2090,0.96484375,-0.0546875,0.27734375
2091,0.96875,-0.0546875,0.28125
2092,0.95703125,-0.05078125,0.28125
2093,0.95703125,-0.04296875,0.2890625
2094,0.953125,-0.03515625,0.30078125
2095,0.953125,-0.03515625,0.30078125
2096,0.953125,-0.01953125,0.28125
2097,0.9609375,-0.0234375,0.28515625
2098,0.953125,-0.01171875,0.28125
2099,0.953125,-0.015625,0.27734375
2100,0.9609375,-0.015625,0.2734375
2101,0.9609375,-0.03125,0.27734375
2102,0.953125,-0.0234375,0.28125
2103,0.94140625,-0.02734375,0.2734375
2104,0.9453125,-0.05078125,0.28125
2105,0.953125,-0.05078125,0.26953125
2106,0.9609375,-0.05078125,0.28515625
2107,0.95703125,-0.05078125,0.28515625
2108,0.95703125,-0.046875,0.28125
2109,0.953125,-0.0390625,0.2890625
2110,0.953125,-0.046875,0.28515625
2111,0.95703125,-0.04296875,0.30078125
2112,0.95703125,-0.03515625,0.2890625
2113,0.953125,-0.02734375,0.296875
2114,0.9609375,-0.02734375,0.296875
2115,0.953125,-0.04296875,0.30078125
2116,0.953125,-0.02734375,0.29296875
2117,0.94921875,-0.03515625,0.296875
2118,0.953125,-0.02734375,0.2890625
2119,0.9453125,-0.0390625,0.28515625
2120,0.953125,-0.04296875,0.27734375
2121,0.94921875,-0.03515625,0.28515625
2122,0.953125,-0.0234375,0.2890625
2123,0.94921875,-0.03125,0.28125
2124,0.94921875,-0.02734375,0.2890625
2125,0.95703125,-0.0390625,0.296875
2126,0.9609375,-0.03515625,0.2890625
2127,0.953125,-0.0390625,0.27734375
2128,0.9609375,-0.03515625,0.296875
2129,0.9609375,-0.02734375,0.2890625
2130,0.953125,-0.0390625,0.28515625
2131,0.953125,-0.02734375,0.28515625
2132,0.953125,-0.04296875,0.28515625
2133,0.9609375,-0.04296875,0.28515625
2134,0.9453125,-0.03515625,0.2890625
2135,0.953125,-0.0390625,0.28125
2136,0.94921875,-0.03515625,0.28125
2137,0.953125,-0.02734375,0.28125
2138,0.94921875,-0.03125,0.28515625
2139,0.953125,-0.0234375,0.2890625
2140,0.9609375,-0.01953125,0.2890625
2141,0.95703125,-0.02734375,0.28515625
2142,0.953125,-0.0390625,0.27734375
2143,0.95703125,-0.03515625,0.27734375
2144,0.95703125,-0.04296875,0.27734375
2145,0.953125,-0.05078125,0.28515625
2146,0.953125,-0.04296875,0.28515625
2147,0.95703125,-0.04296875,0.2890625
2148,0.95703125,-0.03515625,0.2890625
2149,0.94921875,-0.02734375,0.2890625
2150,0.95703125,-0.046875,0.28125
2151,0.9453125,-0.04296875,0.29296875
2152,0.94921875,-0.0390625,0.28125
2153,0.953125,-0.0234375,0.29296875
2154,0.95703125,-0.03125,0.28125
2155,0.94921875,-0.02734375,0.27734375
2156,0.953125,-0.03125,0.28515625
2157,0.94921875,-0.03515625,0.28125
2158,0.9453125,-0.03125,0.30078125
2159,0.95703125,-0.04296875,0.29296875
2160,0.953125,-0.046875,0.28125
2161,0.95703125,-0.04296875,0.28515625
2162,0.94921875,-0.0390625,0.28125
2163,0.953125,-0.0390625,0.2890625
2164,0.95703125,-0.046875,0.29296875
2165,0.953125,-0.04296875,0.28125
2166,0.9609375,-0.02734375,0.2890625
2167,0.94921875,-0.02734375,0.2890625
2168,0.95703125,-0.046875,0.28515625
2169,0.953125,-0.03515625,0.28515625
2170,0.953125,-0.03125,0.2890625
2171,0.953125,-0.03515625,0.29296875
2172,0.95703125,-0.03515625,0.2890625
2173,0.953125,-0.0390625,0.2890625
2174,0.953125,-0.04296875,0.29296875
2175,0.953125,-0.03125,0.28125
2176,0.95703125,-0.03515625,0.2890625
2177,0.953125,-0.0390625,0.28515625
2178,0.94921875,-0.03125,0.30078125
2179,0.95703125,-0.04296875,0.28125
2180,0.95703125,-0.05078125,0.27734375
2181,0.95703125,-0.0390625,0.2890625
2182,0.95703125,-0.046875,0.28515625
2183,0.96484375,-0.046875,0.28125
2184,0.94921875,-0.0234375,0.2890625
2185,0.9609375,-0.03515625,0.27734375
2186,0.9609375,-0.04296875,0.29296875
2187,0.94921875,-0.04296875,0.2890625
2188,0.95703125,-0.03515625,0.27734375
2189,0.953125,-0.04296875,0.28125
2190,0.95703125,-0.015625,0.27734375
2191,0.94921875,-0.02734375,0.28515625
2192,0.95703125,-0.0234375,0.2890625
2193,0.95703125,-0.0390625,0.2890625
2194,0.95703125,-0.046875,0.26953125
2195,0.953125,-0.03125,0.29296875
2196,0.95703125,-0.04296875,0.2890625
2197,0.95703125,-0.0546875,0.28125
2198,0.95703125,-0.03515625,0.2890625
2199,0.953125,-0.0234375,0.27734375
2200,0.9609375,-0.03515625,0.27734375
2201,0.95703125,-0.04296875,0.27734375
2202,0.953125,-0.04296875,0.28125
2203,0.9609375,-0.04296875,0.27734375
2204,0.95703125,-0.03515625,0.28515625
2205,0.95703125,-0.04296875,0.28125
2206,0.95703125,-0.046875,0.28515625
2207,0.953125,-0.04296875,0.2890625
2208,0.95703125,-0.046875,0.28125
2209,0.95703125,-0.04296875,0.2890625
2210,0.94921875,-0.0390625,0.28515625
2211,0.953125,-0.04296875,0.28125
2212,0.95703125,-0.04296875,0.29296875
2213,0.96484375,-0.04296875,0.2890625
2214,0.953125,-0.03515625,0.27734375
2215,0.953125,-0.03125,0.28125
2216,0.94921875,-0.03515625,0.28515625
2217,0.953125,-0.03515625,0.28125
2218,0.953125,-0.046875,0.2890625
2219,0.953125,-0.046875,0.2890625
2220,0.953125,-0.0390625,0.28515625
2221,0.95703125,-0.046875,0.27734375
2222,0.953125,-0.03515625,0.28515625
2223,0.95703125,-0.0390625,0.29296875
2224,0.95703125,-0.03125,0.2890625
2225,0.953125,-0.03125,0.2890625
2226,0.95703125,-0.0390625,0.27734375
2227,0.95703125,-0.0390625,0.28125
2228,0.953125,-0.03125,0.28125
2229,0.953125,-0.046875,0.28125
2230,0.953125,-0.03515625,0.296875
2231,0.95703125,-0.04296875,0.296875
2232,0.95703125,-0.03515625,0.28515625
2233,0.95703125,-0.0234375,0.2890625
2234,0.9609375,-0.04296875,0.29296875
2235,0.95703125,-0.0390625,0.29296875
2236,0.953125,-0.046875,0.2890625
2237,0.95703125,-0.0234375,0.2890625
2238,0.9609375,-0.03515625,0.28515625
2239,0.953125,-0.03515625,0.28125
2240,0.95703125,-0.02734375,0.28125
2241,0.953125,-0.02734375,0.28125
2242,0.9609375,-0.04296875,0.28125
2243,0.95703125,-0.0390625,0.29296875
2244,0.95703125,-0.04296875,0.26953125
2245,0.953125,-0.02734375,0.28125
2246,0.95703125,-0.05078125,0.28125
2247,0.953125,-0.03125,0.28515625
2248,0.9609375,-0.03515625,0.27734375
2249,0.9609375,-0.03515625,0.28515625
2250,0.953125,-0.02734375,0.2890625
2251,0.9609375,-0.046875,0.296875
2252,0.9609375,-0.03515625,0.27734375
2253,0.95703125,-0.04296875,0.28515625
2254,0.953125,-0.03125,0.29296875
2255,0.953125,-0.04296875,0.29296875
2256,0.953125,-0.01953125,0.27734375
2257,0.96875,-0.05078125,0.28515625
2258,0.95703125,-0.03515625,0.2890625
2259,0.95703125,-0.05078125,0.28125
2260,0.953125,-0.046875,0.29296875
2261,0.9453125,-0.03125,0.28515625
2262,0.953125,-0.02734375,0.29296875
2263,0.953125,-0.01953125,0.29296875
2264,0.9609375,-0.03515625,0.29296875
2265,0.953125,-0.0234375,0.2890625
2266,0.953125,-0.03125,0.28125
2267,0.953125,-0.03515625,0.28515625
2268,0.953125,-0.03515625,0.28125
2269,0.95703125,-0.046875,0.2890625
2270,0.9609375,-0.046875,0.27734375
2271,0.9609375,-0.046875,0.28515625
2272,0.95703125,-0.046875,0.29296875
2273,0.94921875,-0.046875,0.28125
2274,0.95703125,-0.046875,0.27734375
2275,0.95703125,-0.046875,0.296875
2276,0.95703125,-0.0390625,0.2890625
2277,0.9609375,-0.0234375,0.28125
2278,0.96875,-0.03125,0.28125
2279,0.96875,-0.02734375,0.2734375
2280,0.94921875,-0.015625,0.29296875
2281,0.94921875,-0.015625,0.2890625
2282,0.953125,-0.015625,0.28125
2283,0.9453125,-0.015625,0.28515625
2284,0.94921875,-0.03515625,0.29296875
2285,0.95703125,-0.0390625,0.29296875
2286,0.953125,-0.05078125,0.2890625
2287,0.95703125,-0.046875,0.28125
2288,0.95703125,-0.0546875,0.28515625
2289,0.95703125,-0.05859375,0.28125
2290,0.95703125,-0.0703125,0.27734375
2291,0.953125,-0.0546875,0.26953125
2292,0.953125,-0.05078125,0.27734375
2293,0.95703125,-0.046875,0.27734375
2294,0.95703125,-0.02734375,0.29296875
2295,0.94921875,-0.03125,0.29296875
2296,0.9453125,-0.0234375,0.29296875
2297,0.953125,-0.015625,0.29296875
2298,0.953125,-0.015625,0.27734375
2299,0.953125,-0.015625,0.28515625
2300,0.953125,-0.015625,0.26953125
2301,0.953125,-0.015625,0.28125
2302,0.95703125,-0.03515625,0.27734375
2303,0.953125,-0.0234375,0.28125
2304,0.953125,-0.0390625,0.28515625
2305,0.953125,-0.046875,0.29296875
2306,0.953125,-0.0546875,0.28515625
2307,0.95703125,-0.0546875,0.2890625
2308,0.95703125,-0.046875,0.28125
2309,0.96484375,-0.0390625,0.2890625
2310,0.9609375,-0.046875,0.296875
2311,0.9453125,-0.02734375,0.30078125
2312,0.95703125,-0.03515625,0.28515625
2313,0.953125,-0.0234375,0.2890625
2314,0.9609375,-0.01953125,0.2890625
2315,0.953125,-0.0234375,0.296875
2316,0.953125,-0.03125,0.2890625
2317,0.95703125,-0.03515625,0.2890625
2318,0.94921875,-0.0234375,0.29296875
2319,0.95703125,-0.0234375,0.28125
2320,0.94921875,-0.03125,0.2890625
2321,0.94921875,-0.0234375,0.29296875
2322,0.9609375,-0.05859375,0.28515625
2323,0.953125,-0.03125,0.28515625
2324,0.953125,-0.03515625,0.28515625
2325,0.94921875,-0.0390625,0.28125
2326,0.953125,-0.02734375,0.27734375
2327,0.953125,-0.05078125,0.2734375
2328,0.95703125,-0.046875,0.28515625
2329,0.96484375,-0.03515625,0.28125
2330,0.95703125,-0.03515625,0.2734375
2331,0.95703125,-0.0546875,0.28125
2332,0.9609375,-0.04296875,0.28125
2333,0.95703125,-0.046875,0.29296875
2334,0.94921875,-0.02734375,0.2890625
2335,0.953125,-0.0390625,0.2734375
2336,0.953125,-0.0390625,0.29296875
2337,0.953125,-0.0390625,0.2890625
2338,0.96484375,-0.03125,0.27734375
2339,0.95703125,-0.03515625,0.27734375
2340,0.953125,-0.0234375,0.28125
2341,0.95703125,-0.03125,0.2890625
2342,0.9609375,-0.04296875,0.2890625
2343,0.9609375,-0.03515625,0.28515625
2344,0.95703125,-0.0390625,0.2734375
2345,0.96875,-0.0546875,0.28125
2346,0.953125,-0.06640625,0.2734375
2347,0.95703125,-0.05078125,0.28125
2348,0.95703125,-0.04296875,0.28515625
2349,0.95703125,-0.04296875,0.2890625
2350,0.953125,-0.03515625,0.28125
2351,0.953125,-0.0390625,0.28125
2352,0.9609375,-0.0390625,0.29296875
2353,0.94921875,-0.03515625,0.28125
2354,0.95703125,-0.03125,0.2734375
2355,0.95703125,-0.0390625,0.28515625
2356,0.9609375,-0.03515625,0.28125
2357,0.9453125,-0.03125,0.28515625
2358,0.9609375,-0.04296875,0.2890625
2359,0.95703125,-0.03515625,0.2890625
2360,0.94921875,-0.03125,0.2890625
2361,0.94921875,-0.03125,0.29296875
2362,0.953125,-0.05078125,0.27734375
2363,0.9609375,-0.05078125,0.28125
2364,0.96484375,-0.03125,0.28125
2365,0.9453125,-0.02734375,0.27734375
2366,0.90625,-0.046875,0.28125
2367,0.953125,-0.0234375,0.24609375
2368,0.94140625,-0.03515625,0.2890625
2369,0.96484375,-0.10546875,0.3046875
2370,0.94921875,-0.0234375,0.265625
2371,0.95703125,-0.0390625,0.22265625
2372,0.9453125,-0.03125,0.2890625
2373,0.95703125,-0.0390625,0.29296875
2374,0.9453125,-0.0234375,0.28125
2375,0.95703125,-0.0390625,0.3203125
2376,0.953125,-0.0390625,0.29296875
2377,0.94921875,-0.015625,0.28515625
2378,0.953125,-0.04296875,0.28515625
2379,0.953125,-0.03515625,0.27734375
2380,0.95703125,-0.046875,0.2890625
2381,0.95703125,-0.03515625,0.27734375
2382,0.953125,-0.03515625,0.2890625
2383,0.94921875,-0.03125,0.28515625
2384,0.953125,-0.04296875,0.27734375
2385,0.94921875,-0.01953125,0.2890625
2386,0.953125,-0.04296875,0.27734375
2387,0.95703125,-0.03515625,0.27734375
2388,0.953125,-0.03515625,0.28125
2389,0.95703125,-0.046875,0.2890625
2390,0.953125,-0.0390625,0.2734375
2391,0.953125,-0.0390625,0.29296875
2392,0.953125,-0.03125,0.28515625
2393,0.95703125,-0.02734375,0.28125
2394,0.953125,-0.03515625,0.27734375
2395,0.96484375,-0.05078125,0.28125
2396,0.953125,-0.0234375,0.28125
2397,0.95703125,-0.04296875,0.29296875
2398,0.94921875,-0.03515625,0.28125
2399,0.96484375,-0.046875,0.28515625
2400,0.953125,-0.03125,0.2890625
2401,0.95703125,-0.0390625,0.27734375
2402,0.9609375,-0.0390625,0.28125
2403,0.96484375,-0.04296875,0.2890625
2404,0.9609375,-0.046875,0.28125
2405,0.95703125,-0.04296875,0.28125
2406,0.94921875,-0.03515625,0.28125
2407,0.95703125,-0.0390625,0.2890625
2408,0.953125,-0.0390625,0.28515625
2409,0.95703125,-0.0390625,0.28125
2410,0.95703125,-0.01953125,0.2890625
2411,0.953125,-0.046875,0.28125
2412,0.96484375,-0.0390625,0.28125
2413,0.95703125,-0.046875,0.28515625
2414,0.94921875,-0.0390625,0.28515625
2415,0.95703125,-0.03515625,0.28125
2416,0.953125,-0.04296875,0.28515625
2417,0.95703125,-0.03515625,0.28515625
2418,0.94921875,-0.0234375,0.2890625
2419,0.9609375,-0.046875,0.2890625
2420,0.94921875,-0.03515625,0.28515625
2421,0.953125,-0.02734375,0.29296875
2422,0.9609375,-0.04296875,0.28515625
2423,0.953125,-0.03515625,0.2890625
2424,0.953125,-0.0390625,0.2890625
2425,0.95703125,-0.04296875,0.28515625
2426,0.95703125,-0.03515625,0.29296875
2427,0.95703125,-0.02734375,0.28515625
2428,0.95703125,-0.046875,0.27734375
2429,0.953125,-0.04296875,0.2890625
2430,0.953125,-0.046875,0.28515625
2431,0.94921875,-0.04296875,0.27734375
2432,0.95703125,-0.046875,0.2890625
2433,0.953125,-0.04296875,0.28125
2434,0.94921875,-0.02734375,0.296875
2435,0.953125,-0.03125,0.28515625
2436,0.953125,-0.0390625,0.27734375
2437,0.953125,-0.046875,0.30078125
2438,0.95703125,-0.04296875,0.28515625
2439,0.95703125,-0.0390625,0.28515625
2440,0.95703125,-0.03515625,0.28125
2441,0.94921875,-0.03515625,0.28125
2442,0.95703125,-0.02734375,0.28515625
2443,0.95703125,-0.01953125,0.28515625
2444,0.95703125,-0.03125,0.28515625
2445,0.95703125,-0.046875,0.28515625
2446,0.95703125,-0.03125,0.296875
2447,0.953125,-0.02734375,0.2890625
2448,0.9453125,-0.03515625,0.28515625
2449,0.953125,-0.04296875,0.28125
2450,0.953125,-0.03515625,0.2890625
2451,0.9609375,-0.01953125,0.28515625
2452,0.953125,-0.0234375,0.2890625
2453,0.953125,-0.04296875,0.2890625
2454,0.953125,-0.03125,0.28125
2455,0.9609375,-0.0390625,0.28125
2456,0.95703125,-0.04296875,0.28125
2457,0.953125,-0.0390625,0.28125
2458,0.953125,-0.04296875,0.28515625
2459,0.953125,-0.0390625,0.28125
2460,0.953125,-0.04296875,0.27734375
2461,0.95703125,-0.03125,0.2734375
2462,0.95703125,-0.04296875,0.27734375
2463,0.953125,-0.01953125,0.296875
2464,0.953125,-0.02734375,0.28515625
2465,0.94921875,-0.03515625,0.28515625
2466,0.9609375,-0.04296875,0.2890625
2467,0.953125,-0.03515625,0.3046875
2468,0.953125,-0.0234375,0.29296875
2469,0.953125,-0.02734375,0.28125
2470,0.953125,-0.02734375,0.28125
2471,0.9609375,-0.046875,0.28125
2472,0.953125,-0.05078125,0.28125
2473,0.95703125,-0.04296875,0.2890625
2474,0.95703125,-0.03515625,0.29296875
2475,0.95703125,-0.04296875,0.2734375
2476,0.95703125,-0.05078125,0.29296875
2477,0.9609375,-0.04296875,0.28515625
2478,0.9609375,-0.05078125,0.28125
2479,0.9609375,-0.03125,0.28515625
2480,0.9609375,-0.02734375,0.2890625
2481,0.96484375,-0.03515625,0.28125
2482,0.96484375,-0.01953125,0.29296875
2483,0.94921875,-0.0234375,0.28125
2484,0.95703125,-0.0234375,0.2890625
2485,0.953125,-0.015625,0.28125
2486,0.953125,-0.01953125,0.29296875
2487,0.94921875,-0.02734375,0.28125
2488,0.953125,-0.03515625,0.28515625
2489,0.953125,-0.05078125,0.28515625
2490,0.953125,-0.0390625,0.28515625
2491,0.9609375,-0.0625,0.27734375
2492,0.9609375,-0.05078125,0.28515625
2493,0.95703125,-0.046875,0.2890625
2494,0.94921875,-0.0546875,0.29296875
2495,0.95703125,-0.0390625,0.29296875
2496,0.953125,-0.03515625,0.2890625
2497,0.953125,-0.0234375,0.2890625
2498,0.953125,-0.01953125,0.296875
2499,0.953125,-0.02734375,0.2890625
2500,0.953125,-0.0234375,0.29296875
2501,0.94921875,-0.015625,0.29296875
2502,0.9453125,-0.015625,0.2890625
2503,0.953125,-0.0234375,0.2734375
2504,0.953125,-0.03515625,0.2734375
2505,0.94921875,-0.046875,0.29296875
2506,0.953125,-0.03125,0.28125
2507,0.953125,-0.05078125,0.28515625
2508,0.953125,-0.03125,0.2890625
2509,0.94921875,-0.0390625,0.28515625
2510,0.95703125,-0.0390625,0.30078125
2511,0.96484375,-0.04296875,0.2890625
2512,0.953125,-0.0390625,0.30078125
2513,0.96484375,-0.0390625,0.2890625
2514,0.953125,-0.0234375,0.296875
2515,0.953125,-0.0234375,0.296875
2516,0.95703125,-0.03125,0.2890625
2517,0.95703125,-0.03125,0.28515625
2518,0.953125,-0.04296875,0.28515625
2519,0.9609375,-0.03125,0.28515625
2520,0.9609375,-0.02734375,0.2890625
2521,0.9453125,-0.03515625,0.28125
2522,0.95703125,-0.04296875,0.2890625
2523,0.95703125,-0.0390625,0.28125
2524,0.95703125,-0.04296875,0.28515625
2525,0.9453125,-0.03125,0.2890625
2526,0.953125,-0.01953125,0.28515625
2527,0.953125,-0.0546875,0.29296875
2528,0.95703125,-0.03515625,0.28515625
2529,0.95703125,-0.03515625,0.29296875
2530,0.953125,-0.0390625,0.27734375
2531,0.9609375,-0.01953125,0.2890625
2532,0.95703125,-0.03515625,0.28515625
2533,0.953125,-0.03515625,0.27734375
2534,0.953125,-0.0234375,0.28125
2535,0.96484375,-0.03515625,0.28125
2536,0.953125,-0.03125,0.27734375
2537,0.94921875,-0.03515625,0.28515625
2538,0.953125,-0.0234375,0.2890625
2539,0.953125,-0.02734375,0.2890625
2540,0.953125,-0.0234375,0.28515625
2541,0.95703125,-0.02734375,0.28515625
2542,0.953125,-0.02734375,0.28125
2543,0.95703125,-0.03125,0.2890625
2544,0.94921875,-0.02734375,0.30078125
2545,0.9609375,-0.0390625,0.28515625
2546,0.94921875,-0.04296875,0.2890625
2547,0.95703125,-0.05078125,0.27734375
2548,0.9609375,-0.04296875,0.28515625
2549,0.96875,-0.0546875,0.28515625
2550,0.9609375,-0.04296875,0.28515625
2551,0.953125,-0.0390625,0.28125
2552,0.95703125,-0.0390625,0.28515625
2553,0.96484375,-0.03515625,0.28515625
2554,0.953125,-0.01953125,0.29296875
2555,0.95703125,-0.02734375,0.27734375
2556,0.9453125,-0.03515625,0.28515625
2557,0.953125,-0.0390625,0.2890625
2558,0.95703125,-0.03515625,0.28515625
2559,0.953125,-0.03515625,0.27734375
2560,0.953125,-0.04296875,0.27734375
2561,0.95703125,-0.046875,0.29296875
2562,0.953125,-0.03515625,0.29296875
2563,0.95703125,-0.04296875,0.26953125
2564,0.9609375,-0.0390625,0.28515625
2565,0.953125,-0.03125,0.28125
2566,0.953125,-0.046875,0.28125
2567,0.95703125,-0.0390625,0.2890625
2568,0.95703125,-0.0390625,0.296875
2569,0.95703125,-0.0390625,0.28515625
2570,0.95703125,-0.0390625,0.2734375
2571,0.953125,-0.02734375,0.28515625
2572,0.95703125,-0.0390625,0.2890625
2573,0.95703125,-0.02734375,0.28515625
2574,0.9609375,-0.0390625,0.29296875
2575,0.953125,-0.03125,0.2890625
2576,0.953125,-0.02734375,0.28125
2577,0.9453125,-0.0390625,0.27734375
2578,0.9453125,-0.03515625,0.2890625
2579,0.95703125,-0.02734375,0.29296875
2580,0.94921875,-0.02734375,0.28515625
2581,0.94921875,-0.03515625,0.29296875
2582,0.953125,-0.03125,0.28515625
2583,0.953125,-0.03515625,0.27734375
2584,0.96484375,-0.0390625,0.2890625
2585,0.953125,-0.04296875,0.28515625
2586,0.953125,-0.02734375,0.28515625
2587,0.953125,-0.03515625,0.2890625
2588,0.953125,-0.0390625,0.2734375
2589,0.953125,-0.04296875,0.2734375
2590,0.953125,-0.02734375,0.28125
2591,0.9609375,-0.0390625,0.2734375
2592,0.96484375,-0.03125,0.2734375
2593,0.95703125,-0.01953125,0.29296875
2594,0.96484375,-0.04296875,0.27734375
2595,0.96484375,-0.02734375,0.28515625
2596,0.94921875,-0.0390625,0.28125
2597,0.95703125,-0.0390625,0.28125
2598,0.95703125,-0.02734375,0.27734375
2599,0.95703125,-0.0390625,0.28125
2600,0.953125,-0.0390625,0.2890625
2601,0.95703125,-0.046875,0.28125
2602,0.95703125,-0.01953125,0.2890625
2603,0.953125,-0.01953125,0.2734375
2604,0.9609375,-0.04296875,0.28125
2605,0.953125,-0.03125,0.28125
2606,0.9609375,-0.046875,0.27734375
2607,0.9609375,-0.03515625,0.27734375
2608,0.953125,-0.04296875,0.28515625
2609,0.94921875,-0.03515625,0.27734375
2610,0.9609375,-0.04296875,0.28515625
2611,0.953125,-0.04296875,0.29296875
2612,0.94921875,-0.03515625,0.27734375
2613,0.953125,-0.0234375,0.28125
2614,0.95703125,-0.0390625,0.28125
2615,0.953125,-0.03125,0.28125
2616,0.94921875,-0.046875,0.28515625
2617,0.953125,-0.0390625,0.2890625
2618,0.95703125,-0.02734375,0.2890625
2619,0.9609375,-0.046875,0.28125
2620,0.953125,-0.02734375,0.28515625
2621,0.953125,-0.03515625,0.28125
2622,0.95703125,-0.046875,0.28125
2623,0.953125,-0.03515625,0.2890625
2624,0.9609375,-0.04296875,0.2890625
2625,0.953125,-0.03125,0.2890625
2626,0.95703125,-0.03125,0.2890625
2627,0.953125,-0.0390625,0.27734375
2628,0.953125,-0.03515625,0.29296875
2629,0.94140625,-0.02734375,0.2890625
2630,0.953125,-0.0390625,0.2890625
2631,0.95703125,-0.046875,0.29296875
2632,0.953125,-0.0390625,0.28125
2633,0.94921875,-0.03125,0.27734375
2634,0.95703125,-0.03515625,0.28125
2635,0.95703125,-0.03125,0.28125
2636,0.95703125,-0.046875,0.27734375
2637,0.95703125,-0.046875,0.2890625
2638,0.953125,-0.0390625,0.2890625
2639,0.95703125,-0.0546875,0.28515625
2640,0.953125,-0.03515625,0.28515625
2641,0.953125,-0.04296875,0.29296875
2642,0.94921875,-0.03125,0.29296875
2643,0.95703125,-0.04296875,0.29296875
2644,0.953125,-0.01953125,0.28125
2645,0.953125,-0.0390625,0.28515625
2646,0.953125,-0.04296875,0.30078125
2647,0.95703125,-0.046875,0.28515625
2648,0.953125,-0.03515625,0.2890625
2649,0.95703125,-0.04296875,0.28515625
2650,0.95703125,-0.0390625,0.28515625
2651,0.9609375,-0.0390625,0.29296875
2652,0.9609375,-0.04296875,0.28125
2653,0.953125,-0.03125,0.2890625
2654,0.95703125,-0.04296875,0.28125
2655,0.95703125,-0.03125,0.28125
2656,0.95703125,-0.03125,0.28515625
2657,0.953125,-0.0390625,0.28515625
2658,0.95703125,-0.046875,0.29296875
2659,0.953125,-0.0390625,0.2890625
2660,0.95703125,-0.01953125,0.27734375
2661,0.96875,-0.0234375,0.2734375
2662,0.96875,-0.05078125,0.28125
2663,0.95703125,-0.046875,0.28125
2664,0.9453125,-0.0390625,0.28515625
2665,0.953125,-0.046875,0.28125
2666,0.953125,-0.03515625,0.28515625
2667,0.94921875,-0.0234375,0.2890625
2668,0.9609375,-0.0390625,0.28515625
2669,0.94921875,-0.0390625,0.28515625
2670,0.953125,-0.02734375,0.28125
2671,0.9609375,-0.03125,0.29296875
2672,0.953125,-0.0390625,0.28515625
2673,0.9609375,-0.03515625,0.28515625
2674,0.953125,-0.0390625,0.29296875
2675,0.953125,-0.03515625,0.28125
2676,0.953125,-0.0390625,0.28515625
2677,0.95703125,-0.046875,0.27734375
2678,0.953125,-0.046875,0.28125
2679,0.94140625,-0.0390625,0.30078125
2680,0.953125,-0.05078125,0.28515625
2681,0.95703125,-0.05078125,0.29296875
2682,0.95703125,-0.03515625,0.28515625
2683,0.953125,-0.03515625,0.2890625
2684,0.96484375,-0.0390625,0.28125
2685,0.95703125,-0.02734375,0.2890625
2686,0.953125,-0.015625,0.28515625
2687,0.953125,-0.01953125,0.28125
2688,0.9453125,-0.015625,0.30078125
2689,0.94921875,-0.015625,0.28515625
2690,0.94921875,-0.015625,0.28515625
2691,0.94921875,-0.03515625,0.28515625
2692,0.94921875,-0.0703125,0.33984375
2693,0.9609375,-0.0546875,0.28515625
2694,0.96484375,-0.0625,0.28125
2695,0.96875,-0.0703125,0.27734375
2696,0.9609375,-0.0703125,0.27734375
2697,0.9609375,-0.0625,0.27734375
2698,0.9609375,-0.0546875,0.2890625
2699,0.9453125,-0.05078125,0.28125
2700,0.9609375,-0.05078125,0.28125
2701,0.953125,-0.03515625,0.296875
2702,0.95703125,-0.01953125,0.30078125
2703,0.95703125,-0.02734375,0.30078125
2704,0.94921875,-0.01953125,0.296875
2705,0.96484375,-0.03125,0.29296875
2706,0.953125,-0.02734375,0.27734375
2707,0.94921875,-0.01953125,0.28125
2708,0.953125,-0.03515625,0.28125
2709,0.953125,-0.0390625,0.29296875
2710,0.953125,-0.04296875,0.2734375
2711,0.95703125,-0.05078125,0.2890625
2712,0.9609375,-0.05078125,0.29296875
2713,0.95703125,-0.046875,0.28515625
2714,0.95703125,-0.05078125,0.28515625
2715,0.953125,-0.03125,0.28515625
2716,0.953125,-0.03515625,0.2890625
2717,0.953125,-0.046875,0.30078125
2718,0.9609375,-0.0234375,0.2890625
2719,0.96875,-0.0390625,0.2890625
2720,0.95703125,-0.01953125,0.2890625
2721,0.95703125,-0.02734375,0.30078125
2722,0.95703125,-0.03515625,0.29296875
2723,0.953125,-0.02734375,0.29296875
2724,0.95703125,-0.03125,0.29296875
2725,0.94921875,-0.0234375,0.28515625
2726,0.94921875,-0.03515625,0.28515625
2727,0.94921875,-0.03515625,0.2890625
2728,0.953125,-0.0234375,0.28515625
2729,0.953125,-0.0390625,0.27734375
2730,0.96484375,-0.04296875,0.28515625
2731,0.94921875,-0.02734375,0.27734375
2732,0.95703125,-0.03125,0.28515625
2733,0.95703125,-0.046875,0.28125
2734,0.96484375,-0.046875,0.28125
2735,0.953125,-0.03515625,0.28125
2736,0.95703125,-0.046875,0.2890625
2737,0.953125,-0.04296875,0.28515625
2738,0.95703125,-0.0390625,0.28515625
2739,0.9609375,-0.0546875,0.28515625
2740,0.953125,-0.03125,0.28125
2741,0.953125,-0.0390625,0.28125
2742,0.9453125,-0.0234375,0.28515625
2743,0.95703125,-0.015625,0.29296875
2744,0.95703125,-0.015625,0.2890625
2745,0.95703125,-0.02734375,0.2890625
2746,0.953125,-0.015625,0.28515625
2747,0.953125,-0.02734375,0.28515625
2748,0.953125,-0.0390625,0.28125
2749,0.9609375,-0.03515625,0.29296875
2750,0.953125,-0.03515625,0.296875
2751,0.95703125,-0.0546875,0.27734375
2752,0.9609375,-0.0625,0.27734375
2753,0.953125,-0.0546875,0.28515625
2754,0.9609375,-0.04296875,0.28515625
2755,0.9609375,-0.04296875,0.2890625
2756,0.95703125,-0.0390625,0.28515625
2757,0.953125,-0.0390625,0.2890625
2758,0.9609375,-0.03515625,0.27734375
2759,0.95703125,-0.02734375,0.26953125
2760,0.953125,-0.0390625,0.29296875
2761,0.94921875,-0.02734375,0.28515625
2762,0.953125,-0.03515625,0.28125
2763,0.94921875,-0.02734375,0.29296875
2764,0.94921875,-0.03515625,0.2734375
2765,0.953125,-0.0390625,0.28125
2766,0.953125,-0.03515625,0.26953125
2767,0.953125,-0.05078125,0.28515625
2768,0.953125,-0.04296875,0.3046875
2769,0.95703125,-0.0390625,0.28125
2770,0.9609375,-0.04296875,0.2734375
2771,0.94921875,-0.04296875,0.28515625
2772,0.95703125,-0.03515625,0.28125
2773,0.95703125,-0.03125,0.28515625
2774,0.953125,-0.03515625,0.29296875
2775,0.953125,-0.03515625,0.28125
2776,0.95703125,-0.0390625,0.28515625
2777,0.953125,-0.0390625,0.2890625
2778,0.95703125,-0.05078125,0.29296875
2779,0.9609375,-0.0390625,0.28515625
2780,0.94921875,-0.0390625,0.2890625
2781,0.953125,-0.03125,0.30078125
2782,0.9609375,-0.03125,0.28515625
2783,0.953125,-0.0390625,0.30078125
2784,0.94921875,-0.02734375,0.28515625
2785,0.953125,-0.02734375,0.28515625
2786,0.94921875,-0.03125,0.296875
2787,0.953125,-0.03125,0.28125
2788,0.95703125,-0.03125,0.28125
2789,0.95703125,-0.02734375,0.28125
2790,0.9609375,-0.0390625,0.2890625
2791,0.95703125,-0.0390625,0.28515625
2792,0.94921875,-0.02734375,0.2890625
2793,0.95703125,-0.04296875,0.2890625
2794,0.9609375,-0.046875,0.28125
2795,0.96484375,-0.04296875,0.296875
2796,0.95703125,-0.046875,0.2734375
2797,0.94921875,-0.0390625,0.28125
2798,0.95703125,-0.03125,0.29296875
2799,0.95703125,-0.0234375,0.2890625
2800,0.953125,-0.03125,0.28125
2801,0.953125,-0.01953125,0.29296875
2802,0.953125,-0.01953125,0.2890625
2803,0.96484375,-0.03515625,0.27734375
2804,0.953125,-0.03515625,0.27734375
2805,0.953125,-0.04296875,0.2890625
2806,0.953125,-0.04296875,0.28515625
2807,0.95703125,-0.04296875,0.2734375
2808,0.953125,-0.04296875,0.27734375
2809,0.953125,-0.0390625,0.30078125
2810,0.953125,-0.0390625,0.28515625
2811,0.9609375,-0.0390625,0.2734375
2812,0.95703125,-0.04296875,0.28515625
2813,0.953125,-0.03515625,0.2890625
2814,0.94921875,-0.03125,0.28125
2815,0.95703125,-0.0390625,0.28125
2816,0.95703125,-0.03515625,0.28515625
2817,0.953125,-0.01953125,0.30078125
2818,0.9609375,-0.02734375,0.30078125
2819,0.9609375,-0.0390625,0.2890625
2820,0.953125,-0.03125,0.296875
2821,0.95703125,-0.0234375,0.296875
2822,0.96484375,-0.04296875,0.2890625
2823,0.95703125,-0.02734375,0.296875
2824,0.953125,-0.046875,0.28515625
2825,0.95703125,-0.03515625,0.28515625
2826,0.95703125,-0.04296875,0.2890625
2827,0.95703125,-0.03125,0.26953125
2828,0.95703125,-0.04296875,0.27734375
2829,0.9609375,-0.046875,0.28515625
2830,0.94921875,-0.03515625,0.27734375
2831,0.953125,-0.0390625,0.29296875
2832,0.94921875,-0.04296875,0.29296875
2833,0.95703125,-0.03125,0.28125
2834,0.95703125,-0.0390625,0.28515625
2835,0.95703125,-0.02734375,0.28515625
2836,0.94921875,-0.03515625,0.28125
2837,0.953125,-0.02734375,0.296875
2838,0.9609375,-0.03515625,0.29296875
2839,0.953125,-0.03515625,0.3046875
2840,0.953125,-0.0390625,0.27734375
2841,0.953125,-0.03515625,0.29296875
2842,0.953125,-0.0390625,0.28125
2843,0.95703125,-0.03125,0.29296875
2844,0.95703125,-0.046875,0.2890625
2845,0.96484375,-0.05078125,0.296875
2846,0.94921875,-0.03515625,0.29296875
2847,0.95703125,-0.046875,0.29296875
2848,0.95703125,-0.03515625,0.296875
2849,0.9609375,-0.0390625,0.2890625
2850,0.953125,-0.046875,0.2890625
2851,0.953125,-0.03515625,0.28125
2852,0.95703125,-0.03125,0.296875
2853,0.953125,-0.0390625,0.28125
2854,0.953125,-0.03515625,0.2890625
2855,0.953125,-0.0390625,0.2890625
2856,0.953125,-0.03125,0.27734375
2857,0.95703125,-0.03515625,0.27734375
2858,0.94921875,-0.03125,0.2890625
2859,0.96875,-0.04296875,0.28515625
2860,0.953125,-0.03125,0.29296875
2861,0.95703125,-0.03125,0.29296875
2862,0.94921875,-0.03515625,0.27734375
2863,0.953125,-0.03515625,0.29296875
2864,0.9609375,-0.046875,0.28515625
2865,0.953125,-0.03515625,0.28515625
2866,0.953125,-0.0234375,0.29296875
2867,0.953125,-0.0390625,0.28515625
2868,0.953125,-0.046875,0.28125
2869,0.95703125,-0.04296875,0.29296875
2870,0.9609375,-0.03125,0.27734375
2871,0.94921875,-0.03515625,0.2734375
2872,0.9609375,-0.046875,0.27734375
2873,0.953125,-0.03125,0.2890625
2874,0.95703125,-0.046875,0.28125
2875,0.95703125,-0.0390625,0.29296875
2876,0.95703125,-0.02734375,0.28125
2877,0.953125,-0.0234375,0.30078125
2878,0.95703125,-0.0390625,0.28125
2879,0.95703125,-0.02734375,0.28515625
2880,0.953125,-0.03515625,0.29296875
2881,0.953125,-0.0390625,0.28125
2882,0.953125,-0.0390625,0.29296875
2883,0.94921875,-0.04296875,0.27734375
2884,0.953125,-0.03515625,0.27734375
2885,0.9453125,-0.03515625,0.28515625
2886,0.953125,-0.046875,0.28125
2887,0.953125,-0.046875,0.27734375
2888,0.953125,-0.05078125,0.28515625
2889,0.95703125,-0.0390625,0.27734375
2890,0.9609375,-0.02734375,0.28125
2891,0.953125,-0.04296875,0.28515625
2892,0.953125,-0.03515625,0.27734375
2893,0.96484375,-0.0390625,0.28515625
2894,0.96484375,-0.0234375,0.2890625
2895,0.953125,-0.015625,0.28125
2896,0.9453125,-0.015625,0.29296875
2897,0.94921875,-0.0234375,0.28515625
2898,0.94921875,-0.02734375,0.27734375
2899,0.94921875,-0.0234375,0.296875
2900,0.953125,-0.03515625,0.2890625
2901,0.95703125,-0.046875,0.28125
2902,0.97265625,-0.0546875,0.28515625
2903,0.9609375,-0.0625,0.26953125
2904,0.96875,-0.05078125,0.2734375
2905,0.95703125,-0.046875,0.27734375
2906,0.95703125,-0.05078125,0.2734375
2907,0.95703125,-0.046875,0.27734375
2908,0.953125,-0.05078125,0.30078125
2909,0.94140625,-0.03125,0.28515625
2910,0.94921875,-0.03125,0.25390625
2911,0.96875,-0.01953125,0.29296875
2912,0.9453125,-0.0234375,0.2890625
2913,0.953125,0.01953125,0.28515625
2914,1.0078125,-0.00390625,0.3125
2915,0.875,-0.00390625,0.26171875
2916,0.94140625,-0.0078125,0.2421875
2917,0.9453125,-0.0234375,0.28125
2918,0.94921875,-0.046875,0.28125
2919,0.95703125,-0.046875,0.28125
2920,0.953125,-0.0546875,0.27734375
2921,0.953125,-0.046875,0.28515625
2922,0.953125,-0.046875,0.28515625
2923,0.953125,-0.0390625,0.296875
2924,0.96484375,-0.02734375,0.28515625
2925,0.96484375,-0.03515625,0.28515625
2926,0.953125,-0.015625,0.2890625
2927,0.95703125,-0.0234375,0.2890625
2928,0.953125,-0.01953125,0.29296875
2929,0.953125,-0.015625,0.2890625
2930,0.9453125,-0.02734375,0.296875
2931,0.95703125,-0.03515625,0.28515625
2932,0.95703125,-0.03515625,0.29296875
2933,0.94921875,-0.0234375,0.296875
2934,0.94921875,-0.03515625,0.29296875
2935,0.95703125,-0.02734375,0.28515625
2936,0.95703125,-0.0390625,0.29296875
2937,0.953125,-0.03515625,0.28515625
2938,0.9609375,-0.0390625,0.28515625
2939,0.95703125,-0.04296875,0.28515625
2940,0.95703125,-0.03125,0.28515625
2941,0.953125,-0.0390625,0.28125
2942,0.95703125,-0.0390625,0.2890625
2943,0.9453125,-0.03515625,0.28515625
2944,0.953125,-0.05078125,0.26953125
2945,0.9609375,-0.03515625,0.2890625
2946,0.95703125,-0.02734375,0.2890625
2947,0.95703125,-0.04296875,0.2734375
2948,0.953125,-0.03125,0.28515625
2949,0.953125,-0.03515625,0.28125
2950,0.9609375,-0.03515625,0.28515625
2951,0.953125,-0.0234375,0.28125
2952,0.94921875,-0.02734375,0.28515625
2953,0.94921875,-0.0234375,0.2890625
2954,0.953125,-0.0234375,0.28515625
2955,0.9609375,-0.01953125,0.2890625
2956,0.94921875,-0.01953125,0.296875
2957,0.953125,-0.02734375,0.2890625
2958,0.94921875,-0.02734375,0.2890625
2959,0.95703125,-0.04296875,0.2890625
2960,0.953125,-0.0390625,0.28515625
2961,0.95703125,-0.04296875,0.26953125
2962,0.953125,-0.05078125,0.28125
2963,0.95703125,-0.05859375,0.28125
2964,0.95703125,-0.0390625,0.2890625
2965,0.96875,-0.04296875,0.27734375
2966,0.953125,-0.02734375,0.2890625
2967,0.95703125,-0.0390625,0.2890625
2968,0.953125,-0.015625,0.2890625
2969,0.953125,-0.015625,0.28515625
2970,0.953125,-0.03515625,0.2890625
2971,0.94921875,-0.02734375,0.296875
2972,0.94921875,-0.03125,0.28515625
2973,0.95703125,-0.03125,0.29296875
2974,0.95703125,-0.03515625,0.28125
2975,0.953125,-0.04296875,0.27734375
2976,0.953125,-0.0390625,0.28125
2977,0.953125,-0.03515625,0.296875
2978,0.95703125,-0.04296875,0.2890625
2979,0.953125,-0.04296875,0.28515625
2980,0.953125,-0.03515625,0.296875
2981,0.953125,-0.0390625,0.28515625
2982,0.953125,-0.0234375,0.296875
2983,0.94921875,-0.02734375,0.29296875
2984,0.953125,-0.02734375,0.3046875
2985,0.94921875,-0.0390625,0.2890625
2986,0.953125,-0.03125,0.28125
2987,0.953125,-0.04296875,0.28515625
2988,0.94921875,-0.02734375,0.30078125
2989,0.953125,-0.0390625,0.28515625
2990,0.953125,-0.03125,0.28515625
2991,0.94921875,-0.0390625,0.296875
2992,0.95703125,-0.03125,0.28515625
2993,0.953125,-0.015625,0.29296875
2994,0.95703125,-0.04296875,0.30078125
2995,0.953125,-0.03125,0.296875
2996,0.94921875,-0.03125,0.29296875
2997,0.95703125,-0.02734375,0.28515625
2998,0.953125,-0.02734375,0.28515625
2999,0.94921875,-0.03125,0.2890625
