,accelerometerAccelerationX(G),accelerometerAccelerationY(G),accelerometerAccelerationZ(G)
0,0.109375,-1.0078125,-0.25
1,0.10546875,-1.00390625,-0.2421875
2,0.10546875,-1.0078125,-0.25390625
3,0.109375,-1.0078125,-0.2421875
4,0.125,-1.02734375,-0.234375
5,0.1328125,-1.02734375,-0.22265625
6,0.125,-1.0234375,-0.23828125
7,0.12890625,-1.03515625,-0.2265625
8,0.1328125,-1.02734375,-0.23828125
9,0.1484375,-1.046875,-0.234375
10,0.14453125,-1.03515625,-0.25
11,0.1484375,-1.02734375,-0.24609375
12,0.140625,-1.0234375,-0.25390625
13,0.15625,-1.0234375,-0.265625
14,0.14453125,-1.01953125,-0.25
15,0.16015625,-1.02734375,-0.2421875
16,0.15625,-1.015625,-0.23828125
17,0.1640625,-1.015625,-0.23828125
18,0.1484375,-1.015625,-0.234375
19,0.1484375,-1.0078125,-0.23046875
20,0.15234375,-1.0,-0.25390625
21,0.17578125,-1.0078125,-0.2578125
22,0.171875,-1.00390625,-0.24609375
23,0.171875,-0.99609375,-0.25390625
24,0.1796875,-0.99609375,-0.265625
25,0.16796875,-0.9921875,-0.2578125
26,0.1640625,-0.99609375,-0.2578125
27,0.1875,-1.0,-0.265625
28,0.17578125,-1.0,-0.26953125
29,0.1796875,-1.0,-0.2578125
30,0.1640625,-1.00390625,-0.265625
31,0.18359375,-1.0,-0.2734375
32,0.16796875,-1.00390625,-0.265625
33,0.1875,-1.015625,-0.26953125
34,0.17578125,-1.01953125,-0.26171875
35,0.17578125,-1.0234375,-0.25390625
36,0.17578125,-1.015625,-0.25390625
37,0.17578125,-1.03515625,-0.26953125
38,0.17578125,-1.0234375,-0.265625
39,0.171875,-1.0234375,-0.26171875
40,0.16015625,-1.01171875,-0.26171875
41,0.14453125,-1.00390625,-0.26953125
42,0.1484375,-1.00390625,-0.26171875
43,0.140625,-1.01171875,-0.28515625
44,0.14453125,-1.0078125,-0.2734375
45,0.13671875,-1.0078125,-0.2734375
46,0.14453125,-1.01171875,-0.28515625
47,0.1328125,-1.01953125,-0.27734375
48,0.12890625,-1.015625,-0.28125
49,0.125,-1.0078125,-0.27734375
50,0.10546875,-1.00390625,-0.2734375
51,0.1171875,-1.00390625,-0.28515625
52,0.125,-1.01171875,-0.28125
53,0.12109375,-1.01171875,-0.2734375
54,0.109375,-1.01171875,-0.26953125
55,0.125,-1.015625,-0.2734375
56,0.11328125,-1.00390625,-0.2578125
57,0.12109375,-1.015625,-0.2578125
58,0.09765625,-1.00390625,-0.2734375
59,0.11328125,-1.01953125,-0.2734375
60,0.1171875,-1.02734375,-0.2734375
61,0.12109375,-1.015625,-0.27734375
62,0.1171875,-1.0234375,-0.2734375
63,0.11328125,-1.01953125,-0.265625
64,0.10546875,-1.01171875,-0.2734375
65,0.1171875,-1.015625,-0.27734375
66,0.1015625,-1.01953125,-0.296875
67,0.12109375,-1.01953125,-0.26171875
68,0.1328125,-1.0078125,-0.26953125
69,0.1015625,-1.02734375,-0.296875
70,0.10546875,-1.0078125,-0.28515625
71,0.11328125,-1.01171875,-0.27734375
72,0.09375,-1.0,-0.28515625
73,0.10546875,-1.015625,-0.28125
74,0.12890625,-1.00390625,-0.265625
75,0.12109375,-1.00390625,-0.265625
76,0.1171875,-1.0078125,-0.25
77,0.1171875,-1.01953125,-0.27734375
78,0.12109375,-1.0234375,-0.26171875
79,0.125,-1.02734375,-0.28125
80,0.1015625,-1.015625,-0.29296875
81,0.1015625,-1.02734375,-0.29296875
82,0.12109375,-1.02734375,-0.26953125
83,0.0859375,-1.01171875,-0.26171875
84,0.09765625,-1.03125,-0.2890625
85,0.09765625,-1.01953125,-0.2890625
86,0.10546875,-1.00390625,-0.265625
87,0.08984375,-1.0078125,-0.29296875
88,0.11328125,-1.00390625,-0.28125
89,0.1015625,-0.9921875,-0.27734375
90,0.09765625,-0.9921875,-0.29296875
91,0.08984375,-1.0,-0.31640625
92,0.1015625,-1.0,-0.30859375
93,0.109375,-0.99609375,-0.30859375
94,0.109375,-1.01171875,-0.29296875
95,0.10546875,-1.0234375,-0.2890625
96,0.09765625,-1.01171875,-0.2734375
97,0.09375,-1.01953125,-0.296875
98,0.09375,-1.0078125,-0.28515625
99,0.10546875,-1.01171875,-0.28515625
100,0.10546875,-1.0,-0.28515625
101,0.10546875,-1.0,-0.30078125
102,0.11328125,-1.0,-0.3046875
103,0.12109375,-1.0078125,-0.3125
104,0.109375,-1.0078125,-0.3046875
105,0.125,-1.01171875,-0.30859375
106,0.12109375,-1.01953125,-0.29296875
107,0.125,-1.02734375,-0.30078125
108,0.1015625,-1.03125,-0.2890625
109,0.109375,-1.046875,-0.30078125
110,0.1171875,-1.046875,-0.296875
111,0.125,-1.0390625,-0.28515625
112,0.10546875,-1.0234375,-0.296875
113,0.1015625,-1.015625,-0.296875
114,0.11328125,-1.0234375,-0.3125
115,0.109375,-1.015625,-0.31640625
116,0.11328125,-1.01953125,-0.30078125
117,0.12109375,-1.0234375,-0.31640625
118,0.12109375,-1.0078125,-0.31640625
119,0.1171875,-0.99609375,-0.30078125
120,0.125,-1.01171875,-0.328125
121,0.10546875,-1.0078125,-0.3203125
122,0.08984375,-1.0078125,-0.3203125
123,0.09375,-1.015625,-0.3359375
124,0.08984375,-1.03125,-0.33203125
125,0.1015625,-1.03125,-0.32421875
126,0.0859375,-1.03515625,-0.31640625
127,0.09375,-1.046875,-0.30859375
128,0.0859375,-1.0234375,-0.32421875
129,0.09375,-1.0390625,-0.33984375
130,0.08203125,-1.03515625,-0.33203125
131,0.10546875,-1.0234375,-0.33984375
132,0.09765625,-1.03125,-0.328125
133,0.0859375,-1.04296875,-0.32421875
134,0.1328125,-1.02734375,-0.31640625
135,0.1328125,-1.0078125,-0.29296875
136,0.125,-1.02734375,-0.28515625
137,0.09765625,-1.03125,-0.3359375
138,0.08203125,-1.0390625,-0.3359375
139,0.0859375,-1.01953125,-0.3359375
140,0.12890625,-0.9921875,-0.296875
141,0.0546875,-0.96484375,-0.3203125
142,0.05859375,-0.98046875,-0.32421875
143,0.09765625,-1.0,-0.359375
144,0.1015625,-1.02734375,-0.328125
145,0.10546875,-1.05078125,-0.33984375
146,0.11328125,-1.0390625,-0.30859375
147,0.09375,-1.01171875,-0.29296875
148,0.12109375,-0.99609375,-0.2890625
149,0.09375,-0.99609375,-0.3203125
150,0.08203125,-1.00390625,-0.34375
151,0.10546875,-1.04296875,-0.33984375
152,0.08984375,-1.015625,-0.31640625
153,0.09375,-1.0,-0.3125
154,0.10546875,-1.0,-0.3046875
155,0.10546875,-1.00390625,-0.30078125
156,0.08984375,-1.0078125,-0.328125
157,0.09765625,-1.0234375,-0.3125
158,0.1171875,-1.02734375,-0.3203125
159,0.09765625,-1.0078125,-0.3125
160,0.09765625,-1.0234375,-0.3046875
161,0.1171875,-1.015625,-0.30859375
162,0.125,-1.0,-0.30078125
163,0.10546875,-0.9765625,-0.3125
164,0.10546875,-0.984375,-0.30078125
165,0.109375,-0.98828125,-0.29296875
166,0.11328125,-0.984375,-0.2890625
167,0.1328125,-0.98828125,-0.31640625
168,0.125,-0.99609375,-0.3125
169,0.12109375,-1.00390625,-0.3203125
170,0.125,-1.0078125,-0.3046875
171,0.12109375,-1.015625,-0.296875
172,0.125,-1.02734375,-0.32421875
173,0.10546875,-1.015625,-0.296875
174,0.11328125,-1.0234375,-0.3046875
175,0.1171875,-1.0234375,-0.3046875
176,0.12890625,-1.015625,-0.29296875
177,0.125,-1.0078125,-0.296875
178,0.11328125,-1.01171875,-0.296875
179,0.12109375,-1.0078125,-0.30078125
180,0.1171875,-1.01953125,-0.28515625
181,0.125,-1.0078125,-0.30078125
182,0.1328125,-1.02734375,-0.3046875
183,0.125,-0.99609375,-0.28515625
184,0.12109375,-1.00390625,-0.2890625
185,0.12109375,-1.015625,-0.30859375
186,0.12109375,-1.00390625,-0.30078125
187,0.109375,-1.01171875,-0.3203125
188,0.10546875,-1.015625,-0.3125
189,0.1171875,-1.01171875,-0.296875
190,0.09765625,-1.01171875,-0.30859375
191,0.09765625,-1.01171875,-0.29296875
192,0.10546875,-1.0078125,-0.3046875
193,0.10546875,-1.0078125,-0.30078125
194,0.1015625,-1.00390625,-0.29296875
195,0.10546875,-1.0078125,-0.3125
196,0.1015625,-1.01171875,-0.3203125
197,0.08203125,-1.0,-0.3203125
198,0.09375,-1.015625,-0.31640625
199,0.0859375,-1.0078125,-0.29296875
200,0.09765625,-1.0078125,-0.30859375
201,0.0859375,-1.015625,-0.3046875
202,0.0859375,-1.0078125,-0.30078125
203,0.1015625,-1.015625,-0.3125
204,0.1015625,-1.015625,-0.30078125
205,0.08984375,-1.01171875,-0.3125
206,0.09765625,-1.00390625,-0.30859375
207,0.0859375,-1.00390625,-0.30078125
208,0.08203125,-0.9921875,-0.30078125
209,0.0859375,-1.0,-0.30859375
210,0.078125,-0.99609375,-0.30859375
211,0.0703125,-1.0,-0.3203125
212,0.0703125,-1.0078125,-0.296875
213,0.08203125,-1.02734375,-0.3125
214,0.07421875,-1.03125,-0.3046875
215,0.08984375,-1.0234375,-0.30859375
216,0.08203125,-1.02734375,-0.3203125
217,0.0859375,-1.0078125,-0.3203125
218,0.07421875,-1.01171875,-0.3203125
219,0.0703125,-1.00390625,-0.3125
220,0.0625,-1.00390625,-0.30859375
221,0.078125,-1.0,-0.30859375
222,0.078125,-1.00390625,-0.3125
223,0.06640625,-1.0078125,-0.3203125
224,0.07421875,-1.01171875,-0.3046875
225,0.0625,-1.015625,-0.3125
226,0.078125,-1.01171875,-0.3203125
227,0.0859375,-1.03125,-0.3125
228,0.078125,-1.00390625,-0.3203125
229,0.08984375,-1.01953125,-0.31640625
230,0.078125,-1.01953125,-0.328125
231,0.08203125,-1.0078125,-0.31640625
232,0.09375,-1.01953125,-0.3125
233,0.078125,-1.01953125,-0.328125
234,0.08203125,-1.015625,-0.3125
235,0.08203125,-1.015625,-0.3125
236,0.08984375,-1.0234375,-0.3203125
237,0.0859375,-1.01953125,-0.3203125
238,0.09765625,-1.0234375,-0.31640625
239,0.08984375,-1.01953125,-0.328125
240,0.08203125,-1.01171875,-0.3203125
241,0.07421875,-1.015625,-0.30859375
242,0.078125,-1.015625,-0.30078125
243,0.07421875,-1.0078125,-0.31640625
244,0.08984375,-1.0234375,-0.328125
245,0.08984375,-0.984375,-0.31640625
246,0.08984375,-1.0078125,-0.30859375
247,0.078125,-1.0078125,-0.3203125
248,0.08984375,-1.01171875,-0.3203125
249,0.0859375,-1.01171875,-0.31640625
250,0.078125,-1.00390625,-0.30859375
251,0.08984375,-1.0078125,-0.3203125
252,0.0859375,-1.015625,-0.32421875
253,0.078125,-1.00390625,-0.3046875
254,0.0859375,-1.0078125,-0.3203125
255,0.07421875,-1.00390625,-0.31640625
256,0.08203125,-1.0078125,-0.296875
257,0.08203125,-1.00390625,-0.328125
258,0.08203125,-1.0078125,-0.31640625
259,0.09375,-1.01171875,-0.3203125
260,0.07421875,-1.00390625,-0.3046875
261,0.09375,-1.01953125,-0.33984375
262,0.07421875,-1.0234375,-0.3203125
263,0.078125,-1.01171875,-0.31640625
264,0.0859375,-1.00390625,-0.328125
265,0.09375,-1.0,-0.328125
266,0.0859375,-0.99609375,-0.33203125
267,0.0859375,-1.0,-0.3046875
268,0.08203125,-1.0,-0.296875
269,0.08984375,-1.0,-0.31640625
270,0.08203125,-1.0078125,-0.3125
271,0.09375,-1.01171875,-0.30078125
272,0.078125,-1.01171875,-0.31640625
273,0.078125,-1.01953125,-0.32421875
274,0.08203125,-1.0234375,-0.3046875
275,0.078125,-1.015625,-0.3125
276,0.09375,-1.01953125,-0.32421875
277,0.0859375,-1.01171875,-0.328125
278,0.08984375,-1.01953125,-0.30859375
279,0.0859375,-1.00390625,-0.30859375
280,0.08203125,-1.00390625,-0.3203125
281,0.09765625,-1.01953125,-0.33984375
282,0.078125,-1.00390625,-0.33203125
283,0.08203125,-1.0078125,-0.32421875
284,0.1015625,-1.00390625,-0.3046875
285,0.10546875,-1.0078125,-0.3203125
286,0.09765625,-1.015625,-0.32421875
287,0.08984375,-1.01171875,-0.30859375
288,0.09375,-1.0234375,-0.3125
289,0.0859375,-1.01171875,-0.30859375
290,0.0859375,-1.015625,-0.3125
291,0.09765625,-1.015625,-0.32421875
292,0.08984375,-1.00390625,-0.3125
293,0.08984375,-1.0,-0.30859375
294,0.078125,-1.01171875,-0.328125
295,0.078125,-1.015625,-0.33203125
296,0.08984375,-1.01953125,-0.328125
297,0.08203125,-1.01171875,-0.33984375
298,0.0859375,-1.01171875,-0.31640625
299,0.08984375,-1.0078125,-0.3203125
300,0.0859375,-1.015625,-0.32421875
301,0.09375,-1.015625,-0.3203125
302,0.08984375,-1.00390625,-0.33203125
303,0.09765625,-1.01171875,-0.3046875
304,0.0859375,-1.0,-0.3203125
305,0.09375,-1.0078125,-0.30859375
306,0.09375,-1.015625,-0.31640625
307,0.0859375,-0.99609375,-0.30078125
308,0.09765625,-1.015625,-0.3125
309,0.08984375,-1.0234375,-0.3046875
310,0.09765625,-1.015625,-0.3046875
311,0.078125,-1.0234375,-0.30078125
312,0.1015625,-1.0234375,-0.3125
313,0.1015625,-1.0234375,-0.3203125
314,0.1015625,-1.015625,-0.328125
315,0.0859375,-1.01171875,-0.30859375
316,0.09765625,-1.0078125,-0.31640625
317,0.0859375,-1.0078125,-0.3125
318,0.09375,-1.0078125,-0.30859375
319,0.078125,-1.0,-0.30859375
320,0.0859375,-1.00390625,-0.328125
321,0.0859375,-1.0078125,-0.33203125
322,0.08203125,-1.0078125,-0.32421875
323,0.08203125,-1.00390625,-0.31640625
324,0.08984375,-1.00390625,-0.328125
325,0.09375,-1.01953125,-0.328125
326,0.1015625,-1.0078125,-0.31640625
327,0.09765625,-1.0078125,-0.31640625
328,0.09375,-1.015625,-0.31640625
329,0.09375,-1.0078125,-0.30078125
330,0.09765625,-1.01953125,-0.3203125
331,0.0859375,-1.015625,-0.3203125
332,0.0859375,-1.00390625,-0.30078125
333,0.09375,-1.01953125,-0.30859375
334,0.08984375,-1.00390625,-0.31640625
335,0.08203125,-1.0234375,-0.3203125
336,0.08984375,-1.015625,-0.3125
337,0.08984375,-1.01953125,-0.32421875
338,0.0859375,-1.01953125,-0.3203125
339,0.078125,-1.01171875,-0.3359375
340,0.09375,-1.015625,-0.3203125
341,0.08203125,-1.01171875,-0.3125
342,0.078125,-1.01953125,-0.328125
343,0.0703125,-1.015625,-0.32421875
344,0.06640625,-1.015625,-0.3125
345,0.0859375,-1.015625,-0.3359375
346,0.07421875,-1.0078125,-0.3125
347,0.0703125,-1.00390625,-0.31640625
348,0.08984375,-1.01953125,-0.3203125
349,0.08203125,-1.01171875,-0.3046875
350,0.08203125,-1.015625,-0.31640625
351,0.08203125,-1.015625,-0.32421875
352,0.078125,-1.01171875,-0.3203125
353,0.09375,-1.0234375,-0.3125
354,0.08203125,-1.015625,-0.32421875
355,0.0859375,-1.03125,-0.3125
356,0.09375,-1.01953125,-0.33984375
357,0.08203125,-1.02734375,-0.3125
358,0.0859375,-1.02734375,-0.30859375
359,0.08984375,-1.02734375,-0.3125
360,0.0859375,-1.01953125,-0.30859375
361,0.09375,-1.0234375,-0.30859375
362,0.09765625,-1.0234375,-0.296875
363,0.09375,-1.015625,-0.30078125
364,0.1015625,-1.01953125,-0.30859375
365,0.10546875,-1.01953125,-0.30078125
366,0.09765625,-1.01171875,-0.296875
367,0.1015625,-1.0078125,-0.30859375
368,0.08984375,-1.015625,-0.29296875
369,0.09375,-1.01171875,-0.3046875
370,0.09375,-1.015625,-0.296875
371,0.10546875,-1.0078125,-0.29296875
372,0.0859375,-1.00390625,-0.30078125
373,0.0859375,-1.0078125,-0.30078125
374,0.0859375,-1.0,-0.3046875
375,0.08984375,-1.0,-0.31640625
376,0.07421875,-1.0,-0.30078125
377,0.07421875,-1.0,-0.3125
378,0.08203125,-1.00390625,-0.30078125
379,0.0859375,-1.0,-0.30859375
380,0.0859375,-1.0,-0.30859375
381,0.08984375,-1.0,-0.3046875
382,0.078125,-1.0,-0.30078125
383,0.07421875,-0.9921875,-0.296875
384,0.0703125,-1.00390625,-0.30859375
385,0.0703125,-0.99609375,-0.31640625
386,0.09375,-1.01171875,-0.3046875
387,0.08984375,-1.01171875,-0.3046875
388,0.09765625,-1.00390625,-0.29296875
389,0.09765625,-1.0078125,-0.296875
390,0.08984375,-1.0078125,-0.29296875
391,0.1015625,-1.01171875,-0.30078125
392,0.10546875,-1.01953125,-0.296875
393,0.09375,-1.015625,-0.3203125
394,0.10546875,-1.0078125,-0.31640625
395,0.10546875,-1.0,-0.3046875
396,0.109375,-1.01171875,-0.328125
397,0.10546875,-1.01953125,-0.3203125
398,0.09765625,-1.01171875,-0.3359375
399,0.1015625,-0.99609375,-0.3203125
400,0.0859375,-1.0,-0.3203125
401,0.09375,-1.00390625,-0.328125
402,0.109375,-1.0,-0.328125
403,0.1015625,-1.01171875,-0.32421875
404,0.09375,-1.00390625,-0.34765625
405,0.08984375,-1.0078125,-0.33984375
406,0.11328125,-1.0234375,-0.34765625
407,0.1015625,-1.02734375,-0.34765625
408,0.1171875,-1.02734375,-0.3515625
409,0.10546875,-1.0234375,-0.33984375
410,0.12109375,-1.015625,-0.33984375
411,0.1328125,-1.015625,-0.3359375
412,0.12890625,-1.015625,-0.34375
413,0.12890625,-1.01171875,-0.34765625
414,0.1328125,-1.00390625,-0.34375
415,0.140625,-0.99609375,-0.34375
416,0.140625,-0.9921875,-0.3515625
417,0.13671875,-0.9921875,-0.359375
418,0.13671875,-0.98828125,-0.35546875
419,0.13671875,-0.984375,-0.34765625
420,0.12109375,-0.9921875,-0.3515625
421,0.109375,-0.96875,-0.33984375
422,0.08984375,-0.9765625,-0.3359375
423,0.0859375,-0.98828125,-0.3359375
424,0.078125,-0.9921875,-0.359375
425,0.078125,-0.9921875,-0.3515625
426,0.09375,-0.9921875,-0.3515625
427,0.08984375,-0.99609375,-0.34765625
428,0.078125,-0.9921875,-0.34375
429,0.08984375,-0.98828125,-0.35546875
430,0.078125,-0.9765625,-0.35546875
431,0.0859375,-0.9765625,-0.33984375
432,0.0859375,-0.97265625,-0.35546875
433,0.08203125,-0.95703125,-0.3515625
434,0.09375,-0.96484375,-0.33203125
435,0.08984375,-0.9453125,-0.32421875
436,0.1015625,-0.95703125,-0.32421875
437,0.1171875,-0.9609375,-0.3203125
438,0.109375,-0.9609375,-0.3203125
439,0.12109375,-0.94921875,-0.31640625
440,0.14453125,-0.9453125,-0.33203125
441,0.1328125,-0.95703125,-0.32421875
442,0.15625,-0.953125,-0.32421875
443,0.1484375,-0.93359375,-0.328125
444,0.15234375,-0.9375,-0.3359375
445,0.15625,-0.9375,-0.34765625
446,0.15234375,-0.94921875,-0.35546875
447,0.16015625,-0.9453125,-0.35546875
448,0.15625,-0.97265625,-0.36328125
449,0.15625,-0.9765625,-0.34375
450,0.15234375,-0.98828125,-0.35546875
451,0.16796875,-1.0078125,-0.36328125
452,0.17578125,-1.015625,-0.3515625
453,0.1796875,-1.01953125,-0.34375
454,0.19140625,-1.0078125,-0.36328125
455,0.18359375,-1.01171875,-0.35546875
456,0.19140625,-1.01171875,-0.359375
457,0.1875,-0.99609375,-0.37109375
458,0.1953125,-0.98046875,-0.375
459,0.1796875,-0.96484375,-0.37890625
460,0.1796875,-0.93359375,-0.37890625
461,0.1796875,-0.92578125,-0.375
462,0.1875,-0.90625,-0.375
463,0.19921875,-0.88671875,-0.375
464,0.19921875,-0.87890625,-0.35546875
465,0.19921875,-0.87109375,-0.37109375
466,0.19921875,-0.85546875,-0.36328125
467,0.19921875,-0.859375,-0.3515625
468,0.1875,-0.83984375,-0.35546875
469,0.1875,-0.84375,-0.3515625
470,0.1875,-0.85546875,-0.3359375
471,0.16796875,-0.87109375,-0.32421875
472,0.15234375,-0.8828125,-0.3203125
473,0.1484375,-0.89453125,-0.3359375
474,0.13671875,-0.91015625,-0.3515625
475,0.1328125,-0.93359375,-0.34375
476,0.109375,-0.91796875,-0.35546875
477,0.12890625,-0.94140625,-0.35546875
478,0.12109375,-0.93359375,-0.3671875
479,0.1328125,-0.9296875,-0.375
480,0.13671875,-0.92578125,-0.35546875
481,0.13671875,-0.91796875,-0.390625
482,0.14453125,-0.9140625,-0.37890625
483,0.1640625,-0.90625,-0.375
484,0.171875,-0.8984375,-0.40625
485,0.1640625,-0.90234375,-0.42578125
486,0.15625,-0.890625,-0.41015625
487,0.15234375,-0.8671875,-0.390625
488,0.140625,-0.8828125,-0.40234375
489,0.15625,-0.8828125,-0.40625
490,0.13671875,-0.875,-0.41015625
491,0.1171875,-0.8828125,-0.41796875
492,0.12109375,-0.89453125,-0.40625
493,0.12109375,-0.890625,-0.3984375
494,0.109375,-0.8984375,-0.40625
495,0.1171875,-0.90234375,-0.390625
496,0.10546875,-0.90625,-0.37890625
497,0.08203125,-0.9140625,-0.35546875
498,0.078125,-0.9140625,-0.33984375
499,0.05859375,-0.9140625,-0.33984375
500,0.0546875,-0.93359375,-0.34375
501,0.03515625,-0.9140625,-0.328125
502,0.046875,-0.9140625,-0.33203125
503,0.0390625,-0.89453125,-0.33203125
504,0.0390625,-0.90625,-0.33984375
505,0.03515625,-0.8984375,-0.36328125
506,0.02734375,-0.91015625,-0.36328125
507,0.03125,-0.9140625,-0.3515625
508,0.0390625,-0.93359375,-0.39453125
509,0.046875,-0.9375,-0.390625
510,0.0625,-0.9375,-0.40625
511,0.09375,-0.9609375,-0.4296875
512,0.1015625,-0.9609375,-0.41015625
513,0.09765625,-0.9765625,-0.42578125
514,0.09765625,-0.98828125,-0.42578125
515,0.10546875,-0.9921875,-0.41015625
516,0.09765625,-0.9921875,-0.421875
517,0.109375,-1.0,-0.3984375
518,0.1171875,-1.00390625,-0.39453125
519,0.09375,-1.0,-0.38671875
520,0.0859375,-1.0,-0.375
521,0.08203125,-1.00390625,-0.3671875
522,0.08984375,-0.99609375,-0.34375
523,0.1015625,-0.98828125,-0.35546875
524,0.08984375,-0.9765625,-0.33984375
525,0.109375,-0.96484375,-0.34765625
526,0.11328125,-0.953125,-0.3671875
527,0.1328125,-0.94921875,-0.390625
528,0.1484375,-0.9296875,-0.40234375
529,0.13671875,-0.9296875,-0.41796875
530,0.14453125,-0.9296875,-0.41015625
531,0.1484375,-0.9296875,-0.40625
532,0.14453125,-0.9296875,-0.4296875
533,0.1484375,-0.92578125,-0.421875
534,0.15625,-0.94921875,-0.41796875
535,0.1484375,-0.94140625,-0.40625
536,0.1484375,-0.953125,-0.3984375
537,0.14453125,-0.96875,-0.40625
538,0.16015625,-0.9609375,-0.4375
539,0.1328125,-0.96875,-0.4375
540,0.13671875,-0.96484375,-0.41796875
541,0.13671875,-0.96875,-0.41796875
542,0.12890625,-0.953125,-0.42578125
543,0.15234375,-0.96484375,-0.40625
544,0.15625,-0.96484375,-0.4140625
545,0.15234375,-0.96484375,-0.421875
546,0.140625,-0.97265625,-0.4375
547,0.15234375,-0.96484375,-0.4375
548,0.16015625,-0.96875,-0.421875
549,0.1640625,-0.984375,-0.4375
550,0.171875,-0.9921875,-0.4375
551,0.14453125,-0.984375,-0.43359375
552,0.13671875,-0.9765625,-0.4375
553,0.13671875,-0.98828125,-0.4140625
554,0.14453125,-0.984375,-0.421875
555,0.15625,-0.9765625,-0.40625
556,0.15234375,-0.9765625,-0.40234375
557,0.1484375,-0.9609375,-0.42578125
558,0.1328125,-0.96484375,-0.43359375
559,0.125,-0.9609375,-0.4453125
560,0.12109375,-0.96484375,-0.46875
561,0.12109375,-0.96484375,-0.46484375
562,0.12109375,-0.9765625,-0.48046875
563,0.1171875,-0.9765625,-0.47265625
564,0.09765625,-0.9765625,-0.484375
565,0.10546875,-0.97265625,-0.5
566,0.07421875,-0.9921875,-0.484375
567,0.08203125,-0.98828125,-0.46484375
568,0.06640625,-0.98828125,-0.484375
569,0.04296875,-0.984375,-0.48046875
570,0.02734375,-0.99609375,-0.4921875
571,0.03125,-1.0,-0.47265625
572,0.02734375,-0.9921875,-0.47265625
573,0.03125,-0.96875,-0.4609375
574,0.03515625,-0.9609375,-0.46484375
575,0.04296875,-0.95703125,-0.44921875
576,0.08203125,-0.9453125,-0.453125
577,0.1015625,-0.9453125,-0.4609375
578,0.11328125,-0.93359375,-0.47265625
579,0.16015625,-0.91796875,-0.49609375
580,0.17578125,-0.91015625,-0.5
581,0.1875,-0.91796875,-0.54296875
582,0.19140625,-0.88671875,-0.56640625
583,0.21484375,-0.8984375,-0.57421875
584,0.2109375,-0.890625,-0.578125
585,0.20703125,-0.890625,-0.57421875
586,0.22265625,-0.890625,-0.57421875
587,0.22265625,-0.8828125,-0.5703125
588,0.1953125,-0.89453125,-0.578125
589,0.1875,-0.90234375,-0.5625
590,0.2109375,-0.92578125,-0.58203125
591,0.2109375,-0.9453125,-0.5703125
592,0.21875,-0.953125,-0.5703125
593,0.1953125,-0.953125,-0.5546875
594,0.203125,-0.96484375,-0.54296875
595,0.1796875,-0.94140625,-0.5234375
596,0.171875,-0.94140625,-0.5234375
597,0.16796875,-0.92578125,-0.5234375
598,0.18359375,-0.94140625,-0.51953125
599,0.1796875,-0.93359375,-0.515625
600,0.16796875,-0.92578125,-0.51953125
601,0.1796875,-0.94140625,-0.50390625
602,0.16796875,-0.92578125,-0.51171875
603,0.1796875,-0.93359375,-0.52734375
604,0.19140625,-0.9140625,-0.54296875
605,0.1796875,-0.9296875,-0.5234375
606,0.1796875,-0.90625,-0.546875
607,0.203125,-0.90625,-0.53125
608,0.1875,-0.89453125,-0.5390625
609,0.18359375,-0.87890625,-0.5390625
610,0.17578125,-0.8671875,-0.5390625
611,0.1796875,-0.88671875,-0.55859375
612,0.19140625,-0.87890625,-0.5546875
613,0.21484375,-0.8828125,-0.5625
614,0.203125,-0.890625,-0.58984375
615,0.21484375,-0.88671875,-0.57421875
616,0.2109375,-0.88671875,-0.5859375
617,0.21875,-0.8828125,-0.56640625
618,0.22265625,-0.890625,-0.5546875
619,0.1875,-0.86328125,-0.546875
620,0.21484375,-0.875,-0.515625
621,0.2109375,-0.875,-0.52734375
622,0.2265625,-0.90234375,-0.52734375
623,0.19140625,-0.91015625,-0.5234375
624,0.16015625,-0.9140625,-0.50390625
625,0.13671875,-0.90234375,-0.51171875
626,0.125,-0.921875,-0.50390625
627,0.11328125,-0.9140625,-0.5234375
628,0.09375,-0.91015625,-0.546875
629,0.08203125,-0.8984375,-0.5546875
630,0.08984375,-0.88671875,-0.56640625
631,0.08984375,-0.90234375,-0.55859375
632,0.09765625,-0.8984375,-0.5625
633,0.08203125,-0.90234375,-0.5546875
634,0.09375,-0.90625,-0.5546875
635,0.08984375,-0.91796875,-0.55859375
636,0.1015625,-0.9296875,-0.55859375
637,0.1015625,-0.9453125,-0.55078125
638,0.1171875,-0.9609375,-0.5703125
639,0.1171875,-0.9609375,-0.578125
640,0.14453125,-0.94921875,-0.5625
641,0.16796875,-0.96484375,-0.5625
642,0.171875,-0.953125,-0.5625
643,0.15234375,-0.9453125,-0.5625
644,0.1796875,-0.91796875,-0.5546875
645,0.1953125,-0.92578125,-0.546875
646,0.2109375,-0.921875,-0.5703125
647,0.19921875,-0.91796875,-0.5546875
648,0.1796875,-0.91796875,-0.56640625
649,0.18359375,-0.8984375,-0.5703125
650,0.18359375,-0.87890625,-0.5625
651,0.1640625,-0.8515625,-0.5859375
652,0.19140625,-0.83984375,-0.59765625
653,0.19921875,-0.828125,-0.60546875
654,0.18359375,-0.8203125,-0.640625
655,0.171875,-0.8125,-0.59765625
656,0.16796875,-0.80859375,-0.62109375
657,0.15625,-0.80859375,-0.6171875
658,0.16015625,-0.8203125,-0.61328125
659,0.14453125,-0.83203125,-0.6328125
660,0.1015625,-0.84375,-0.6171875
661,0.08203125,-0.859375,-0.6015625
662,0.09375,-0.890625,-0.58203125
663,0.05078125,-0.91796875,-0.57421875
664,0.01953125,-0.94921875,-0.5625
665,0.01171875,-0.984375,-0.5625
666,0.02734375,-0.9921875,-0.546875
667,0.04296875,-0.98828125,-0.54296875
668,0.0703125,-0.98828125,-0.53125
669,0.046875,-0.9609375,-0.5234375
670,0.06640625,-0.94140625,-0.52734375
671,0.0703125,-0.9453125,-0.52734375
672,0.0859375,-0.93359375,-0.5390625
673,0.12109375,-0.9375,-0.55078125
674,0.140625,-0.9453125,-0.56640625
675,0.15625,-0.96484375,-0.546875
676,0.16015625,-0.92578125,-0.578125
677,0.234375,-0.96875,-0.609375
678,0.2265625,-0.97265625,-0.6171875
679,0.2421875,-0.96484375,-0.6015625
680,0.25,-0.9609375,-0.6015625
681,0.25,-0.93359375,-0.59765625
682,0.24609375,-0.92578125,-0.5703125
683,0.1953125,-0.9140625,-0.56640625
684,0.171875,-0.9140625,-0.5625
685,0.125,-0.92578125,-0.5546875
686,0.09375,-0.94140625,-0.54296875
687,0.05078125,-0.9453125,-0.53515625
688,0.015625,-0.9453125,-0.53515625
689,0.0078125,-0.95703125,-0.546875
690,0.0,-0.953125,-0.54296875
691,0.0,-0.96875,-0.54296875
692,0.0,-0.9765625,-0.52734375
693,0.015625,-0.9921875,-0.54296875
694,0.01171875,-1.0,-0.53515625
695,0.0546875,-1.02734375,-0.5390625
696,0.0703125,-1.04296875,-0.51953125
697,0.08984375,-1.06640625,-0.51171875
698,0.0703125,-1.0625,-0.51171875
699,0.1171875,-1.06640625,-0.53125
700,0.1015625,-1.05078125,-0.53125
701,0.10546875,-1.03125,-0.53515625
702,0.12109375,-1.04296875,-0.5546875
703,0.13671875,-1.046875,-0.55859375
704,0.15625,-1.03515625,-0.53125
705,0.17578125,-1.03515625,-0.52734375
706,0.16015625,-1.03125,-0.51171875
707,0.15625,-1.03125,-0.51171875
708,0.12109375,-1.01953125,-0.515625
709,0.140625,-1.03515625,-0.53515625
710,0.1328125,-1.01953125,-0.53515625
711,0.13671875,-1.03515625,-0.546875
712,0.1328125,-1.03125,-0.55078125
713,0.109375,-1.02734375,-0.546875
714,0.109375,-1.01953125,-0.51171875
715,0.09375,-1.01171875,-0.51953125
716,0.1015625,-1.03125,-0.5234375
717,0.109375,-1.03515625,-0.51953125
718,0.09375,-1.0390625,-0.51171875
719,0.0859375,-1.03125,-0.51171875
720,0.08984375,-1.01171875,-0.50390625
721,0.10546875,-1.0078125,-0.51171875
722,0.11328125,-1.00390625,-0.5078125
723,0.12890625,-1.00390625,-0.51953125
724,0.1171875,-1.0,-0.5
725,0.14453125,-1.0,-0.5234375
726,0.14453125,-1.01171875,-0.51953125
727,0.140625,-1.0078125,-0.5234375
728,0.125,-1.01953125,-0.51171875
729,0.1484375,-1.0390625,-0.51953125
730,0.14453125,-1.0625,-0.5
731,0.13671875,-1.07421875,-0.50390625
732,0.1484375,-1.08984375,-0.5
733,0.12890625,-1.08984375,-0.4921875
734,0.125,-1.0859375,-0.4921875
735,0.13671875,-1.08203125,-0.4921875
736,0.125,-1.078125,-0.48046875
737,0.15625,-1.06640625,-0.484375
738,0.13671875,-1.05078125,-0.4765625
739,0.14453125,-1.046875,-0.46875
740,0.13671875,-1.04296875,-0.44921875
741,0.12890625,-1.0234375,-0.44921875
742,0.12109375,-1.0234375,-0.4375
743,0.109375,-1.015625,-0.4453125
744,0.11328125,-1.01171875,-0.43359375
745,0.125,-1.01171875,-0.44140625
746,0.09765625,-1.0,-0.42578125
747,0.1171875,-1.01171875,-0.41796875
748,0.1171875,-1.01171875,-0.4140625
749,0.078125,-1.015625,-0.40234375
750,0.0703125,-1.00390625,-0.390625
751,0.08203125,-1.015625,-0.40234375
752,0.0859375,-1.0234375,-0.37890625
753,0.078125,-1.015625,-0.3828125
754,0.09765625,-1.03125,-0.39453125
755,0.1015625,-1.02734375,-0.38671875
756,0.11328125,-1.0234375,-0.39453125
757,0.11328125,-1.03125,-0.375
758,0.109375,-1.02734375,-0.390625
759,0.10546875,-1.03515625,-0.38671875
760,0.12109375,-1.0234375,-0.3984375
761,0.12890625,-1.04296875,-0.38671875
762,0.125,-1.03515625,-0.38671875
763,0.1484375,-1.03515625,-0.41796875
764,0.1328125,-1.04296875,-0.40234375
765,0.140625,-1.0546875,-0.39453125
766,0.140625,-1.0546875,-0.4140625
767,0.08984375,-1.0390625,-0.40625
768,0.0859375,-1.05078125,-0.40234375
769,0.05859375,-1.05078125,-0.3828125
770,0.046875,-1.0546875,-0.3984375
771,0.03515625,-1.0625,-0.3828125
772,0.02734375,-1.07421875,-0.39453125
773,0.0234375,-1.078125,-0.390625
774,0.0390625,-1.0703125,-0.40625
775,0.046875,-1.0703125,-0.41015625
776,0.04296875,-1.07421875,-0.39453125
777,0.046875,-1.0703125,-0.36328125
778,0.06640625,-1.09375,-0.390625
779,0.05859375,-1.078125,-0.3828125
780,0.0625,-1.08984375,-0.3828125
781,0.05859375,-1.0859375,-0.3828125
782,0.0625,-1.08984375,-0.38671875
783,0.06640625,-1.09765625,-0.37890625
784,0.06640625,-1.10546875,-0.3671875
785,0.0859375,-1.09765625,-0.359375
786,0.08203125,-1.1015625,-0.3359375
787,0.08984375,-1.109375,-0.34375
788,0.09765625,-1.109375,-0.34765625
789,0.11328125,-1.109375,-0.34765625
790,0.12890625,-1.11328125,-0.34765625
791,0.140625,-1.10546875,-0.34375
792,0.140625,-1.11328125,-0.33984375
793,0.12890625,-1.1171875,-0.359375
794,0.10546875,-1.11328125,-0.3359375
795,0.09765625,-1.1171875,-0.33984375
796,0.0859375,-1.11328125,-0.33203125
797,0.0859375,-1.1171875,-0.33984375
798,0.08984375,-1.11328125,-0.33203125
799,0.08984375,-1.12890625,-0.328125
800,0.10546875,-1.14453125,-0.34375
801,0.1171875,-1.1328125,-0.34375
802,0.1171875,-1.1328125,-0.33984375
803,0.11328125,-1.1328125,-0.33984375
804,0.1171875,-1.12109375,-0.3359375
805,0.11328125,-1.1171875,-0.33203125
806,0.109375,-1.11328125,-0.3203125
807,0.1328125,-1.11328125,-0.3359375
808,0.11328125,-1.12109375,-0.33984375
809,0.125,-1.1171875,-0.34375
810,0.140625,-1.11328125,-0.3203125
811,0.14453125,-1.109375,-0.34375
812,0.15234375,-1.12109375,-0.34765625
813,0.16015625,-1.1328125,-0.33984375
814,0.13671875,-1.12890625,-0.32421875
815,0.12890625,-1.1328125,-0.328125
816,0.12109375,-1.125,-0.3203125
817,0.12109375,-1.11328125,-0.296875
818,0.10546875,-1.109375,-0.3203125
819,0.1171875,-1.12109375,-0.30078125
820,0.078125,-1.109375,-0.296875
821,0.08984375,-1.1015625,-0.296875
822,0.0703125,-1.1015625,-0.29296875
823,0.0703125,-1.09375,-0.26953125
824,0.0703125,-1.09375,-0.27734375
825,0.07421875,-1.0859375,-0.26953125
826,0.07421875,-1.08984375,-0.2734375
827,0.08203125,-1.078125,-0.2734375
828,0.08203125,-1.0546875,-0.26953125
829,0.08984375,-1.0703125,-0.265625
830,0.09765625,-1.0703125,-0.28125
831,0.1015625,-1.05078125,-0.265625
832,0.09765625,-1.0546875,-0.26953125
833,0.10546875,-1.0546875,-0.265625
834,0.09375,-1.05859375,-0.27734375
835,0.09765625,-1.05078125,-0.2734375
836,0.109375,-1.05078125,-0.26953125
837,0.10546875,-1.0390625,-0.265625
838,0.10546875,-1.04296875,-0.2578125
839,0.09375,-1.02734375,-0.25
840,0.0859375,-1.02734375,-0.25
841,0.08203125,-1.015625,-0.25
842,0.07421875,-1.01953125,-0.25
843,0.0625,-1.015625,-0.2421875
844,0.0546875,-1.0078125,-0.2421875
845,0.0703125,-1.0078125,-0.234375
846,0.08203125,-0.98046875,-0.2421875
847,0.08203125,-0.99609375,-0.2421875
848,0.09375,-0.984375,-0.23828125
849,0.09375,-0.9921875,-0.2421875
850,0.08984375,-0.98046875,-0.23828125
851,0.09375,-0.97265625,-0.23046875
852,0.09765625,-0.984375,-0.21875
853,0.0859375,-0.9921875,-0.22265625
854,0.09375,-0.98046875,-0.22265625
855,0.10546875,-0.984375,-0.22265625
856,0.109375,-0.98046875,-0.2421875
857,0.10546875,-0.97265625,-0.2265625
858,0.1015625,-0.96875,-0.22265625
859,0.08984375,-0.96484375,-0.23046875
860,0.09765625,-0.98046875,-0.22265625
861,0.08984375,-0.97265625,-0.2265625
862,0.08203125,-0.96875,-0.23046875
863,0.078125,-0.984375,-0.23828125
864,0.08203125,-0.9765625,-0.2421875
865,0.07421875,-0.98046875,-0.2421875
866,0.078125,-0.98828125,-0.23828125
867,0.07421875,-0.984375,-0.25390625
868,0.078125,-0.99609375,-0.23828125
869,0.0859375,-0.98046875,-0.23828125
870,0.07421875,-0.984375,-0.234375
871,0.07421875,-0.98046875,-0.23828125
872,0.07421875,-0.984375,-0.23828125
873,0.0859375,-0.98046875,-0.2421875
874,0.09375,-0.98046875,-0.21875
875,0.09765625,-0.99609375,-0.23828125
876,0.1015625,-0.9921875,-0.24609375
877,0.08984375,-0.99609375,-0.23828125
878,0.08984375,-0.99609375,-0.25
879,0.09375,-1.0,-0.24609375
880,0.09375,-1.00390625,-0.23828125
881,0.0859375,-1.0078125,-0.22265625
882,0.08203125,-1.00390625,-0.2265625
883,0.08984375,-1.01953125,-0.22265625
884,0.08203125,-1.0078125,-0.19921875
885,0.08203125,-1.00390625,-0.21875
886,0.0859375,-1.0078125,-0.2109375
887,0.08203125,-1.0078125,-0.21875
888,0.1015625,-1.01171875,-0.2109375
889,0.1015625,-1.015625,-0.21875
890,0.09765625,-1.01953125,-0.234375
891,0.09375,-1.01171875,-0.234375
892,0.09375,-1.0234375,-0.2265625
893,0.09375,-1.015625,-0.2265625
894,0.1015625,-1.01953125,-0.2265625
895,0.10546875,-1.03515625,-0.2109375
896,0.09765625,-1.0390625,-0.23046875
897,0.09765625,-1.0390625,-0.21484375
898,0.1015625,-1.03125,-0.21875
899,0.08984375,-1.03515625,-0.23046875
900,0.10546875,-1.02734375,-0.21875
901,0.09765625,-1.02734375,-0.2109375
902,0.09765625,-1.03125,-0.21875
903,0.08984375,-1.04296875,-0.19921875
904,0.1015625,-1.0390625,-0.20703125
905,0.109375,-1.05859375,-0.1953125
906,0.1015625,-1.0703125,-0.1875
907,0.1015625,-1.05078125,-0.1953125
908,0.109375,-1.0625,-0.18359375
909,0.11328125,-1.05859375,-0.203125
910,0.11328125,-1.0625,-0.1953125
911,0.12109375,-1.0546875,-0.19921875
912,0.1171875,-1.0546875,-0.21484375
913,0.1015625,-1.046875,-0.19140625
914,0.1015625,-1.046875,-0.1953125
915,0.1015625,-1.03515625,-0.1875
916,0.1015625,-1.04296875,-0.203125
917,0.1015625,-1.03515625,-0.20703125
918,0.09765625,-1.04296875,-0.1875
919,0.1015625,-1.03125,-0.1953125
920,0.1015625,-1.03125,-0.17578125
921,0.1015625,-1.0390625,-0.171875
922,0.10546875,-1.046875,-0.1875
923,0.1015625,-1.0546875,-0.171875
924,0.10546875,-1.04296875,-0.19140625
925,0.109375,-1.05078125,-0.1875
926,0.10546875,-1.02734375,-0.1796875
927,0.109375,-1.03125,-0.19921875
928,0.109375,-1.03515625,-0.1953125
929,0.11328125,-1.02734375,-0.1953125
930,0.1015625,-1.0234375,-0.19140625
931,0.11328125,-1.03125,-0.1953125
932,0.109375,-1.0234375,-0.1796875
933,0.10546875,-1.03515625,-0.1796875
934,0.109375,-1.03125,-0.1796875
935,0.12109375,-1.02734375,-0.171875
936,0.109375,-1.0234375,-0.16796875
937,0.12109375,-1.0390625,-0.18359375
938,0.1171875,-1.03125,-0.16796875
939,0.109375,-1.03515625,-0.17578125
940,0.11328125,-1.02734375,-0.171875
941,0.12109375,-1.046875,-0.16015625
942,0.10546875,-1.0390625,-0.15625
943,0.125,-1.03125,-0.17578125
944,0.125,-1.01953125,-0.171875
945,0.125,-1.01171875,-0.1875
946,0.12890625,-1.01171875,-0.17578125
947,0.1328125,-1.0078125,-0.17578125
948,0.1171875,-1.015625,-0.17578125
949,0.125,-1.00390625,-0.16015625
950,0.12890625,-1.01953125,-0.16796875
951,0.125,-1.015625,-0.16796875
952,0.12890625,-1.01953125,-0.16015625
953,0.12109375,-1.015625,-0.171875
954,0.12890625,-1.015625,-0.16015625
955,0.12109375,-1.01953125,-0.16015625
956,0.11328125,-1.015625,-0.16796875
957,0.10546875,-1.015625,-0.1640625
958,0.12109375,-1.0078125,-0.15625
959,0.125,-1.01171875,-0.1796875
960,0.125,-1.015625,-0.1640625
961,0.125,-1.0,-0.19140625
962,0.140625,-1.0078125,-0.17578125
963,0.15625,-1.00390625,-0.16015625
964,0.13671875,-1.0078125,-0.15625
965,0.1484375,-1.00390625,-0.171875
966,0.14453125,-1.01953125,-0.171875
967,0.125,-1.0234375,-0.16015625
968,0.140625,-1.015625,-0.15625
969,0.13671875,-1.01171875,-0.1640625
970,0.1328125,-1.0078125,-0.171875
971,0.12890625,-1.0078125,-0.171875
972,0.125,-1.0078125,-0.1640625
973,0.12109375,-1.00390625,-0.1640625
974,0.125,-1.00390625,-0.1328125
975,0.1328125,-0.99609375,-0.140625
976,0.12890625,-1.00390625,-0.15234375
977,0.12890625,-1.015625,-0.15625
978,0.12890625,-1.0078125,-0.16015625
979,0.125,-1.0,-0.1484375
980,0.1171875,-1.00390625,-0.15234375
981,0.12890625,-1.00390625,-0.16015625
982,0.12890625,-1.015625,-0.1484375
983,0.11328125,-1.0234375,-0.16015625
984,0.11328125,-1.01953125,-0.15234375
985,0.1171875,-1.0234375,-0.15625
986,0.1171875,-1.0234375,-0.1484375
987,0.11328125,-1.03515625,-0.1484375
988,0.12109375,-1.03125,-0.171875
989,0.12890625,-1.01953125,-0.14453125
990,0.125,-1.015625,-0.171875
991,0.12890625,-1.0234375,-0.16015625
992,0.13671875,-1.01953125,-0.16015625
993,0.1328125,-1.015625,-0.1640625
994,0.13671875,-1.015625,-0.15234375
995,0.12890625,-1.00390625,-0.1640625
996,0.1484375,-1.0234375,-0.16015625
997,0.125,-1.0078125,-0.16796875
998,0.125,-1.0234375,-0.203125
999,0.1171875,-1.015625,-0.16015625
1000,0.12890625,-1.01171875,-0.171875
1001,0.12890625,-1.01953125,-0.1640625
1002,0.140625,-1.01171875,-0.16796875
1003,0.125,-1.01171875,-0.15234375
1004,0.13671875,-1.0078125,-0.16015625
1005,0.140625,-1.01953125,-0.15234375
1006,0.125,-1.01953125,-0.15234375
1007,0.1328125,-1.0234375,-0.14453125
1008,0.125,-1.03515625,-0.1484375
1009,0.13671875,-1.03125,-0.1484375
1010,0.125,-1.0390625,-0.140625
1011,0.1328125,-1.05078125,-0.1328125
1012,0.125,-1.0390625,-0.13671875
1013,0.12890625,-1.03515625,-0.140625
1014,0.12109375,-1.04296875,-0.12890625
1015,0.140625,-1.05078125,-0.1328125
1016,0.12890625,-1.04296875,-0.1484375
1017,0.13671875,-1.03515625,-0.1328125
1018,0.140625,-1.0390625,-0.12109375
1019,0.13671875,-1.0390625,-0.1484375
1020,0.12890625,-1.04296875,-0.1328125
1021,0.1328125,-1.046875,-0.12109375
1022,0.1328125,-1.0390625,-0.15625
1023,0.12890625,-1.02734375,-0.13671875
1024,0.12109375,-1.0234375,-0.1484375
1025,0.1328125,-1.02734375,-0.1484375
1026,0.1328125,-1.0390625,-0.140625
1027,0.11328125,-1.0234375,-0.1640625
1028,0.13671875,-1.0390625,-0.1484375
1029,0.1328125,-1.0390625,-0.1640625
1030,0.13671875,-1.02734375,-0.16015625
1031,0.15234375,-1.0390625,-0.15234375
1032,0.13671875,-1.01953125,-0.140625
1033,0.140625,-1.01953125,-0.140625
1034,0.13671875,-1.01953125,-0.15234375
1035,0.1328125,-1.015625,-0.1484375
1036,0.125,-1.02734375,-0.140625
1037,0.12109375,-1.0234375,-0.1484375
1038,0.140625,-1.0390625,-0.15625
1039,0.13671875,-1.0390625,-0.1484375
1040,0.140625,-1.03125,-0.13671875
1041,0.12890625,-1.0234375,-0.15234375
1042,0.140625,-1.015625,-0.1640625
1043,0.125,-1.015625,-0.15625
1044,0.13671875,-1.01953125,-0.15234375
1045,0.1328125,-1.00390625,-0.16015625
1046,0.1328125,-1.0078125,-0.125
1047,0.140625,-1.01953125,-0.14453125
1048,0.13671875,-1.0078125,-0.1328125
1049,0.13671875,-1.01953125,-0.15625
1050,0.12890625,-1.01171875,-0.140625
1051,0.13671875,-1.01171875,-0.15234375
1052,0.12890625,-1.015625,-0.1484375
1053,0.1328125,-1.0078125,-0.15234375
1054,0.125,-1.015625,-0.15234375
1055,0.109375,-1.00390625,-0.13671875
1056,0.140625,-1.015625,-0.15234375
1057,0.125,-1.0234375,-0.15234375
1058,0.11328125,-1.01171875,-0.15234375
1059,0.12109375,-1.015625,-0.15625
1060,0.12109375,-1.0078125,-0.1640625
1061,0.125,-1.015625,-0.15234375
1062,0.125,-1.015625,-0.16796875
1063,0.12890625,-1.0078125,-0.1484375
1064,0.1328125,-1.00390625,-0.16015625
1065,0.12890625,-1.01171875,-0.140625
1066,0.1171875,-1.0078125,-0.140625
1067,0.12109375,-1.01171875,-0.140625
1068,0.13671875,-1.01953125,-0.125
1069,0.12890625,-1.015625,-0.13671875
1070,0.12890625,-1.01953125,-0.12890625
1071,0.12109375,-1.03125,-0.125
1072,0.11328125,-1.01953125,-0.1328125
1073,0.11328125,-1.01953125,-0.14453125
1074,0.12890625,-1.0234375,-0.1328125
1075,0.12890625,-1.015625,-0.14453125
1076,0.13671875,-1.015625,-0.14453125
1077,0.12109375,-1.0234375,-0.13671875
1078,0.1328125,-1.0078125,-0.14453125
1079,0.125,-1.0078125,-0.1484375
1080,0.12890625,-1.0234375,-0.16796875
1081,0.1328125,-1.0234375,-0.16015625
1082,0.1328125,-1.01171875,-0.140625
1083,0.125,-1.01171875,-0.1484375
1084,0.1328125,-1.015625,-0.140625
1085,0.12109375,-1.0078125,-0.16015625
1086,0.12890625,-1.01953125,-0.14453125
1087,0.1328125,-1.03125,-0.14453125
1088,0.1328125,-1.01953125,-0.14453125
1089,0.12890625,-1.015625,-0.15234375
1090,0.125,-1.0234375,-0.1328125
1091,0.11328125,-1.01953125,-0.14453125
1092,0.1328125,-1.01171875,-0.15625
1093,0.12890625,-1.03125,-0.140625
1094,0.14453125,-1.02734375,-0.140625
1095,0.12890625,-1.01953125,-0.14453125
1096,0.1328125,-1.01953125,-0.14453125
1097,0.1171875,-1.0078125,-0.14453125
1098,0.13671875,-1.01953125,-0.14453125
1099,0.1328125,-1.02734375,-0.1484375
1100,0.1171875,-1.02734375,-0.1484375
1101,0.12890625,-1.01953125,-0.140625
1102,0.12109375,-1.01953125,-0.1328125
1103,0.13671875,-1.02734375,-0.14453125
1104,0.12890625,-1.01953125,-0.14453125
1105,0.12109375,-1.015625,-0.1328125
1106,0.1171875,-1.0234375,-0.14453125
1107,0.12109375,-1.02734375,-0.15234375
1108,0.12890625,-1.03125,-0.14453125
1109,0.12109375,-1.01953125,-0.15234375
1110,0.12109375,-1.02734375,-0.140625
1111,0.125,-1.0234375,-0.12890625
1112,0.12890625,-1.0234375,-0.1328125
1113,0.12890625,-1.02734375,-0.14453125
1114,0.1171875,-1.01953125,-0.15625
1115,0.12109375,-1.03125,-0.1328125
1116,0.12109375,-1.02734375,-0.140625
1117,0.12890625,-1.02734375,-0.12890625
1118,0.12890625,-1.03125,-0.12890625
1119,0.125,-1.01953125,-0.13671875
1120,0.13671875,-1.0234375,-0.16796875
1121,0.125,-1.03125,-0.14453125
1122,0.13671875,-1.02734375,-0.13671875
1123,0.13671875,-1.0234375,-0.15234375
1124,0.12890625,-1.0078125,-0.13671875
1125,0.13671875,-1.01953125,-0.1484375
1126,0.12890625,-1.0234375,-0.1484375
1127,0.12890625,-1.01171875,-0.1484375
1128,0.1171875,-1.01953125,-0.12890625
1129,0.12890625,-1.02734375,-0.13671875
1130,0.12109375,-1.03125,-0.14453125
1131,0.1171875,-1.02734375,-0.13671875
1132,0.12890625,-1.0234375,-0.140625
1133,0.125,-1.015625,-0.14453125
1134,0.12890625,-1.0234375,-0.125
1135,0.13671875,-1.03125,-0.1484375
1136,0.125,-1.02734375,-0.15234375
1137,0.12109375,-1.02734375,-0.1484375
1138,0.13671875,-1.01953125,-0.15234375
1139,0.140625,-1.02734375,-0.1484375
1140,0.140625,-1.01953125,-0.1484375
1141,0.12890625,-1.015625,-0.13671875
1142,0.125,-1.01171875,-0.15234375
1143,0.12109375,-1.015625,-0.15234375
1144,0.125,-1.01953125,-0.140625
1145,0.12109375,-1.02734375,-0.15234375
1146,0.12109375,-1.01953125,-0.1484375
1147,0.12109375,-1.01171875,-0.15234375
1148,0.125,-1.0234375,-0.15625
1149,0.125,-1.01953125,-0.13671875
1150,0.1328125,-1.01953125,-0.13671875
1151,0.12109375,-1.01171875,-0.140625
1152,0.12890625,-1.01953125,-0.16015625
1153,0.12890625,-1.01171875,-0.1484375
1154,0.12890625,-1.02734375,-0.15234375
1155,0.12109375,-1.02734375,-0.1640625
1156,0.12890625,-1.02734375,-0.14453125
1157,0.1328125,-1.0234375,-0.1484375
1158,0.12109375,-1.0234375,-0.15234375
1159,0.11328125,-1.01171875,-0.14453125
1160,0.12109375,-1.01953125,-0.13671875
1161,0.1171875,-1.01953125,-0.1328125
1162,0.1328125,-1.02734375,-0.14453125
1163,0.1171875,-1.01953125,-0.1484375
1164,0.13671875,-1.04296875,-0.15625
1165,0.1171875,-1.015625,-0.13671875
1166,0.13671875,-1.015625,-0.140625
1167,0.1171875,-1.015625,-0.13671875
1168,0.12109375,-1.015625,-0.1328125
1169,0.13671875,-1.01171875,-0.14453125
1170,0.12890625,-1.0078125,-0.14453125
1171,0.1171875,-1.03125,-0.15234375
1172,0.12109375,-1.03125,-0.1328125
1173,0.1171875,-1.02734375,-0.14453125
1174,0.12109375,-1.015625,-0.15625
1175,0.13671875,-1.0234375,-0.14453125
1176,0.1328125,-1.00390625,-0.15234375
1177,0.125,-1.015625,-0.15234375
1178,0.12890625,-1.015625,-0.140625
1179,0.12109375,-1.0078125,-0.16796875
1180,0.125,-1.01953125,-0.1484375
1181,0.12890625,-1.03125,-0.14453125
1182,0.125,-1.015625,-0.1484375
1183,0.1328125,-1.015625,-0.13671875
1184,0.125,-1.0234375,-0.140625
1185,0.1328125,-1.0234375,-0.15625
1186,0.1328125,-1.03125,-0.1484375
1187,0.12109375,-1.015625,-0.13671875
1188,0.11328125,-1.02734375,-0.140625
1189,0.13671875,-1.02734375,-0.13671875
1190,0.1171875,-1.03125,-0.13671875
1191,0.125,-1.0234375,-0.140625
1192,0.11328125,-1.015625,-0.140625
1193,0.12109375,-1.03125,-0.15234375
1194,0.12890625,-1.0234375,-0.14453125
1195,0.12890625,-1.015625,-0.1328125
1196,0.12890625,-1.01953125,-0.13671875
1197,0.13671875,-1.03125,-0.14453125
1198,0.1171875,-1.0078125,-0.1328125
1199,0.13671875,-1.0234375,-0.14453125
1200,0.125,-1.015625,-0.12890625
1201,0.11328125,-1.015625,-0.15234375
1202,0.109375,-1.01953125,-0.1328125
1203,0.125,-1.02734375,-0.12890625
1204,0.11328125,-1.0234375,-0.1328125
1205,0.1171875,-1.0234375,-0.1328125
1206,0.125,-1.0234375,-0.14453125
1207,0.12890625,-1.02734375,-0.13671875
1208,0.1171875,-1.01953125,-0.15234375
1209,0.125,-1.03125,-0.14453125
1210,0.12109375,-1.01953125,-0.1328125
1211,0.1171875,-1.0234375,-0.14453125
1212,0.1171875,-1.015625,-0.1484375
1213,0.12109375,-1.02734375,-0.13671875
1214,0.11328125,-1.02734375,-0.13671875
1215,0.12109375,-1.015625,-0.13671875
1216,0.125,-1.03125,-0.15234375
1217,0.12890625,-1.01171875,-0.140625
1218,0.12109375,-1.0234375,-0.140625
1219,0.1171875,-1.01953125,-0.13671875
1220,0.11328125,-1.01171875,-0.1328125
1221,0.12109375,-1.00390625,-0.13671875
1222,0.12109375,-1.015625,-0.13671875
1223,0.11328125,-1.015625,-0.1484375
1224,0.125,-1.01953125,-0.12890625
1225,0.1171875,-1.02734375,-0.13671875
1226,0.12890625,-1.01953125,-0.140625
1227,0.1171875,-1.015625,-0.1328125
1228,0.125,-1.03125,-0.12109375
1229,0.1171875,-1.03515625,-0.12890625
1230,0.1171875,-1.01953125,-0.140625
1231,0.12109375,-1.01953125,-0.13671875
1232,0.12109375,-1.01171875,-0.14453125
1233,0.11328125,-1.01953125,-0.125
1234,0.12109375,-1.0234375,-0.140625
1235,0.125,-1.0234375,-0.1328125
1236,0.1328125,-1.02734375,-0.125
1237,0.125,-1.02734375,-0.12890625
1238,0.1171875,-1.02734375,-0.12109375
1239,0.13671875,-1.02734375,-0.1328125
1240,0.140625,-1.03125,-0.14453125
1241,0.12109375,-1.0234375,-0.12109375
1242,0.1328125,-1.02734375,-0.1328125
1243,0.125,-1.01171875,-0.1328125
1244,0.12890625,-1.01171875,-0.140625
1245,0.1328125,-1.0234375,-0.125
1246,0.125,-1.0234375,-0.12890625
1247,0.125,-1.01171875,-0.12890625
1248,0.12109375,-1.01171875,-0.12890625
1249,0.11328125,-1.00390625,-0.125
1250,0.125,-1.015625,-0.140625
1251,0.1171875,-1.01171875,-0.09765625
1252,0.12890625,-1.02734375,-0.140625
1253,0.1328125,-1.015625,-0.1171875
1254,0.12890625,-1.01953125,-0.140625
1255,0.125,-1.02734375,-0.13671875
1256,0.125,-1.0234375,-0.12109375
1257,0.1328125,-1.0234375,-0.12890625
1258,0.1328125,-1.0234375,-0.1171875
1259,0.1171875,-1.01953125,-0.125
1260,0.11328125,-1.02734375,-0.1171875
1261,0.140625,-1.01953125,-0.1328125
1262,0.12890625,-1.015625,-0.125
1263,0.125,-1.00390625,-0.140625
1264,0.12890625,-1.015625,-0.1328125
1265,0.12890625,-1.01171875,-0.13671875
1266,0.11328125,-1.01953125,-0.11328125
1267,0.125,-1.00390625,-0.14453125
1268,0.12890625,-1.01953125,-0.125
1269,0.12109375,-1.0234375,-0.13671875
1270,0.12890625,-1.0078125,-0.140625
1271,0.12890625,-1.015625,-0.1171875
1272,0.125,-1.01953125,-0.11328125
1273,0.1171875,-1.01171875,-0.13671875
1274,0.1171875,-1.015625,-0.13671875
1275,0.12109375,-1.01171875,-0.12109375
1276,0.125,-1.015625,-0.12890625
1277,0.1171875,-1.015625,-0.1484375
1278,0.109375,-1.01953125,-0.15234375
1279,0.1171875,-1.0234375,-0.14453125
1280,0.12109375,-1.0234375,-0.12890625
1281,0.125,-1.02734375,-0.12890625
1282,0.1171875,-1.0078125,-0.125
1283,0.12890625,-1.0234375,-0.12890625
1284,0.11328125,-1.0234375,-0.1328125
1285,0.12890625,-1.0234375,-0.13671875
1286,0.12890625,-1.015625,-0.12890625
1287,0.12109375,-1.02734375,-0.125
1288,0.1171875,-1.015625,-0.1328125
1289,0.12890625,-1.0234375,-0.11328125
1290,0.12109375,-1.0078125,-0.13671875
1291,0.11328125,-1.01171875,-0.12890625
1292,0.1171875,-1.01171875,-0.109375
1293,0.1171875,-1.02734375,-0.125
1294,0.125,-1.01953125,-0.10546875
1295,0.12890625,-1.015625,-0.12109375
1296,0.1328125,-1.0234375,-0.12109375
1297,0.1328125,-1.0078125,-0.13671875
1298,0.12890625,-1.01953125,-0.109375
1299,0.12890625,-1.01171875,-0.12109375
1300,0.125,-1.01953125,-0.12109375
1301,0.13671875,-1.0234375,-0.1171875
1302,0.140625,-1.03125,-0.1171875
1303,0.1328125,-1.01953125,-0.12109375
1304,0.13671875,-1.03125,-0.11328125
1305,0.140625,-1.01953125,-0.09375
1306,0.14453125,-1.0234375,-0.1171875
1307,0.1328125,-1.02734375,-0.12890625
1308,0.140625,-1.03125,-0.12890625
1309,0.1328125,-1.01953125,-0.1171875
1310,0.12890625,-1.01953125,-0.1328125
1311,0.140625,-1.03515625,-0.1171875
1312,0.12890625,-1.01953125,-0.125
1313,0.12890625,-1.01953125,-0.1171875
1314,0.125,-1.03125,-0.125
1315,0.1328125,-1.0234375,-0.13671875
1316,0.1328125,-1.02734375,-0.125
1317,0.12890625,-1.01953125,-0.1171875
1318,0.125,-1.015625,-0.1328125
1319,0.12890625,-1.0234375,-0.12109375
1320,0.1328125,-1.015625,-0.1171875
1321,0.1328125,-1.0234375,-0.1015625
1322,0.1328125,-1.015625,-0.12109375
1323,0.140625,-1.02734375,-0.12890625
1324,0.12890625,-1.01953125,-0.12109375
1325,0.1328125,-1.01953125,-0.125
1326,0.13671875,-1.02734375,-0.1328125
1327,0.140625,-1.03125,-0.12890625
1328,0.12890625,-1.0234375,-0.1328125
1329,0.12890625,-1.0078125,-0.140625
1330,0.12109375,-1.0234375,-0.11328125
1331,0.12109375,-1.00390625,-0.12890625
1332,0.1328125,-1.01171875,-0.109375
1333,0.12890625,-1.015625,-0.11328125
1334,0.12890625,-1.02734375,-0.11328125
1335,0.12890625,-1.015625,-0.1328125
1336,0.13671875,-1.0078125,-0.12109375
1337,0.1328125,-1.01953125,-0.12109375
1338,0.1328125,-1.015625,-0.12109375
1339,0.140625,-1.01953125,-0.12109375
1340,0.13671875,-1.02734375,-0.12109375
1341,0.13671875,-1.02734375,-0.1171875
1342,0.12890625,-1.0234375,-0.12109375
1343,0.12890625,-1.015625,-0.125
1344,0.125,-1.0234375,-0.12109375
1345,0.12890625,-1.0234375,-0.12890625
1346,0.12109375,-1.02734375,-0.109375
1347,0.125,-1.01953125,-0.1328125
1348,0.1328125,-1.015625,-0.12109375
1349,0.12890625,-1.01953125,-0.12890625
1350,0.13671875,-1.01953125,-0.12109375
1351,0.12890625,-1.015625,-0.1171875
1352,0.1328125,-1.0234375,-0.12109375
1353,0.12890625,-1.015625,-0.12109375
1354,0.13671875,-1.02734375,-0.1015625
1355,0.1328125,-1.01953125,-0.125
1356,0.1328125,-1.01953125,-0.12109375
1357,0.125,-1.01953125,-0.109375
1358,0.1171875,-1.0234375,-0.12109375
1359,0.12109375,-1.0078125,-0.12109375
1360,0.125,-1.0078125,-0.11328125
1361,0.12109375,-1.0078125,-0.1171875
1362,0.125,-1.0234375,-0.1171875
1363,0.1328125,-1.02734375,-0.12890625
1364,0.1328125,-1.01953125,-0.125
1365,0.12890625,-1.015625,-0.109375
1366,0.140625,-1.01953125,-0.1171875
1367,0.125,-1.03515625,-0.1171875
1368,0.12109375,-1.0078125,-0.125
1369,0.1328125,-1.015625,-0.12109375
1370,0.12890625,-1.0078125,-0.12109375
1371,0.12109375,-1.015625,-0.13671875
1372,0.11328125,-1.01171875,-0.11328125
1373,0.125,-1.01953125,-0.10546875
1374,0.11328125,-1.01953125,-0.10546875
1375,0.12890625,-1.0234375,-0.109375
1376,0.13671875,-1.03125,-0.10546875
1377,0.1328125,-1.0234375,-0.1171875
1378,0.140625,-1.02734375,-0.11328125
1379,0.12109375,-1.0234375,-0.1171875
1380,0.12890625,-1.01953125,-0.11328125
1381,0.125,-1.0234375,-0.11328125
1382,0.1328125,-1.0234375,-0.12109375
1383,0.1328125,-1.02734375,-0.10546875
1384,0.11328125,-1.01171875,-0.11328125
1385,0.1171875,-1.015625,-0.109375
1386,0.1171875,-1.015625,-0.12109375
1387,0.1171875,-1.0078125,-0.125
1388,0.12890625,-1.0234375,-0.1328125
1389,0.13671875,-1.015625,-0.125
1390,0.1171875,-1.01953125,-0.11328125
1391,0.1328125,-1.015625,-0.11328125
1392,0.13671875,-1.015625,-0.109375
1393,0.13671875,-1.02734375,-0.12109375
1394,0.12890625,-1.01953125,-0.1171875
1395,0.13671875,-1.03125,-0.109375
1396,0.12890625,-1.0234375,-0.10546875
1397,0.1328125,-1.01171875,-0.1015625
1398,0.125,-1.02734375,-0.109375
1399,0.12890625,-1.01953125,-0.125
1400,0.13671875,-1.015625,-0.11328125
1401,0.11328125,-1.0078125,-0.1171875
1402,0.12890625,-1.01953125,-0.109375
1403,0.1328125,-1.01171875,-0.1328125
1404,0.13671875,-1.015625,-0.12890625
1405,0.1328125,-1.015625,-0.12890625
1406,0.1328125,-1.015625,-0.1328125
1407,0.12109375,-1.01953125,-0.12109375
1408,0.140625,-1.02734375,-0.12890625
1409,0.125,-1.0234375,-0.1328125
1410,0.12109375,-1.02734375,-0.1328125
1411,0.11328125,-1.02734375,-0.125
1412,0.11328125,-1.0234375,-0.15625
1413,0.11328125,-1.0078125,-0.125
1414,0.12109375,-1.01953125,-0.125
1415,0.125,-1.0078125,-0.12109375
1416,0.12890625,-1.01953125,-0.13671875
1417,0.1328125,-1.01953125,-0.14453125
1418,0.1328125,-1.0234375,-0.1171875
1419,0.13671875,-1.0234375,-0.12890625
1420,0.12890625,-1.015625,-0.13671875
1421,0.1328125,-1.015625,-0.11328125
1422,0.1328125,-1.0234375,-0.1015625
1423,0.13671875,-1.015625,-0.125
1424,0.13671875,-1.01171875,-0.1328125
1425,0.13671875,-1.02734375,-0.11328125
1426,0.1171875,-1.01171875,-0.11328125
1427,0.13671875,-1.01171875,-0.109375
1428,0.12109375,-1.0234375,-0.1171875
1429,0.125,-1.01953125,-0.12109375
1430,0.1171875,-1.0234375,-0.12890625
1431,0.125,-1.02734375,-0.13671875
1432,0.12109375,-1.0234375,-0.12890625
1433,0.12109375,-1.01953125,-0.12890625
1434,0.12109375,-1.01953125,-0.125
1435,0.12109375,-1.01171875,-0.14453125
1436,0.12890625,-1.015625,-0.1328125
1437,0.1328125,-1.015625,-0.12109375
1438,0.12890625,-1.01953125,-0.109375
1439,0.125,-1.01953125,-0.12890625
1440,0.12890625,-1.0234375,-0.12109375
1441,0.12109375,-1.0234375,-0.125
1442,0.11328125,-1.015625,-0.12890625
1443,0.12890625,-1.01953125,-0.12109375
1444,0.1328125,-1.015625,-0.109375
1445,0.13671875,-1.02734375,-0.11328125
1446,0.125,-1.02734375,-0.125
1447,0.1328125,-1.01953125,-0.11328125
1448,0.11328125,-1.01171875,-0.10546875
1449,0.1171875,-1.00390625,-0.10546875
1450,0.11328125,-1.01171875,-0.1171875
1451,0.125,-1.01171875,-0.10546875
1452,0.109375,-1.015625,-0.11328125
1453,0.109375,-1.0234375,-0.11328125
1454,0.109375,-1.015625,-0.11328125
1455,0.1171875,-1.01171875,-0.1171875
1456,0.12109375,-1.0078125,-0.10546875
1457,0.125,-1.0078125,-0.11328125
1458,0.12890625,-1.0078125,-0.12109375
1459,0.1171875,-0.99609375,-0.1171875
1460,0.125,-0.9921875,-0.12109375
1461,0.125,-1.00390625,-0.1328125
1462,0.1328125,-1.01953125,-0.125
1463,0.12890625,-1.0,-0.12109375
1464,0.13671875,-1.00390625,-0.1171875
1465,0.12109375,-1.0078125,-0.14453125
1466,0.12109375,-1.0078125,-0.125
1467,0.12109375,-1.015625,-0.1171875
1468,0.125,-1.01953125,-0.11328125
1469,0.1171875,-1.02734375,-0.125
1470,0.12109375,-1.01953125,-0.1171875
1471,0.12890625,-1.01953125,-0.13671875
1472,0.125,-1.01953125,-0.125
1473,0.1328125,-1.015625,-0.140625
1474,0.12890625,-1.01953125,-0.12890625
1475,0.1484375,-1.0390625,-0.13671875
1476,0.13671875,-1.01171875,-0.12890625
1477,0.13671875,-1.02734375,-0.1328125
1478,0.125,-1.02734375,-0.12890625
1479,0.1328125,-1.02734375,-0.12890625
1480,0.12890625,-1.03125,-0.11328125
1481,0.125,-1.03515625,-0.12109375
1482,0.125,-1.02734375,-0.11328125
1483,0.12890625,-1.03515625,-0.125
1484,0.12109375,-1.0390625,-0.1328125
1485,0.125,-1.02734375,-0.1328125
1486,0.125,-1.02734375,-0.12109375
1487,0.140625,-1.03515625,-0.12890625
1488,0.1171875,-1.046875,-0.125
1489,0.140625,-1.03125,-0.13671875
1490,0.140625,-1.0390625,-0.1328125
1491,0.13671875,-1.04296875,-0.125
1492,0.13671875,-1.03125,-0.125
1493,0.12109375,-1.03515625,-0.13671875
1494,0.12109375,-1.03515625,-0.125
1495,0.12109375,-1.03125,-0.125
1496,0.125,-1.04296875,-0.12890625
1497,0.140625,-1.046875,-0.15234375
1498,0.1328125,-1.046875,-0.125
1499,0.15234375,-1.05078125,-0.1328125
1500,0.1484375,-1.046875,-0.12890625
1501,0.1484375,-1.05078125,-0.125
1502,0.14453125,-1.05859375,-0.1171875
1503,0.13671875,-1.05859375,-0.12890625
1504,0.13671875,-1.0625,-0.125
1505,0.14453125,-1.0625,-0.12109375
1506,0.12890625,-1.0703125,-0.1171875
1507,0.1171875,-1.0859375,-0.125
1508,0.09765625,-1.07421875,-0.08984375
1509,0.1015625,-1.0703125,-0.125
1510,0.1171875,-1.078125,-0.125
1511,0.12109375,-1.08203125,-0.10546875
1512,0.13671875,-1.1015625,-0.12890625
1513,0.14453125,-1.1015625,-0.12890625
1514,0.14453125,-1.1015625,-0.12109375
1515,0.16015625,-1.11328125,-0.125
1516,0.16015625,-1.12109375,-0.140625
1517,0.1484375,-1.11328125,-0.13671875
1518,0.14453125,-1.1171875,-0.14453125
1519,0.140625,-1.11328125,-0.1484375
1520,0.13671875,-1.1171875,-0.171875
1521,0.1328125,-1.1171875,-0.1640625
1522,0.125,-1.12109375,-0.1484375
1523,0.12890625,-1.1328125,-0.1484375
1524,0.13671875,-1.1640625,-0.14453125
1525,0.13671875,-1.1484375,-0.1484375
1526,0.13671875,-1.16015625,-0.13671875
1527,0.1328125,-1.140625,-0.15234375
1528,0.1484375,-1.14453125,-0.171875
1529,0.13671875,-1.15625,-0.16015625
1530,0.15234375,-1.140625,-0.19140625
1531,0.13671875,-1.13671875,-0.18359375
1532,0.15625,-1.14453125,-0.1875
1533,0.15234375,-1.13671875,-0.1796875
1534,0.16015625,-1.14453125,-0.1875
1535,0.1640625,-1.13671875,-0.1875
1536,0.15625,-1.1328125,-0.1796875
1537,0.16015625,-1.125,-0.17578125
1538,0.15625,-1.12890625,-0.19140625
1539,0.15625,-1.12109375,-0.17578125
1540,0.14453125,-1.1171875,-0.203125
1541,0.14453125,-1.12890625,-0.19140625
1542,0.15234375,-1.12890625,-0.203125
1543,0.15234375,-1.1328125,-0.23046875
1544,0.1484375,-1.13671875,-0.2109375
1545,0.140625,-1.14453125,-0.2109375
1546,0.12109375,-1.1484375,-0.2109375
1547,0.1015625,-1.1484375,-0.21484375
1548,0.11328125,-1.140625,-0.23046875
1549,0.109375,-1.15625,-0.21484375
1550,0.09765625,-1.15625,-0.2265625
1551,0.109375,-1.15234375,-0.23828125
1552,0.109375,-1.16015625,-0.2265625
1553,0.109375,-1.15234375,-0.2265625
1554,0.109375,-1.16015625,-0.2265625
1555,0.125,-1.17578125,-0.22265625
1556,0.1015625,-1.1640625,-0.2421875
1557,0.11328125,-1.17578125,-0.25
1558,0.1171875,-1.17578125,-0.24609375
1559,0.10546875,-1.15625,-0.23828125
1560,0.125,-1.171875,-0.25
1561,0.12109375,-1.16796875,-0.26171875
1562,0.1171875,-1.1640625,-0.26171875
1563,0.125,-1.1484375,-0.265625
1564,0.14453125,-1.12109375,-0.2734375
1565,0.140625,-1.11328125,-0.28125
1566,0.12109375,-1.09765625,-0.2890625
1567,0.1484375,-1.08203125,-0.3046875
1568,0.14453125,-1.0703125,-0.3046875
1569,0.1484375,-1.0625,-0.30859375
1570,0.140625,-1.05078125,-0.3046875
1571,0.140625,-1.05859375,-0.28515625
1572,0.1640625,-1.09375,-0.296875
1573,0.15234375,-1.06640625,-0.28125
1574,0.16015625,-1.0625,-0.27734375
1575,0.16015625,-1.06640625,-0.28125
1576,0.15625,-1.0703125,-0.26171875
1577,0.13671875,-1.06640625,-0.26171875
1578,0.12890625,-1.0390625,-0.265625
1579,0.140625,-1.0390625,-0.25
1580,0.1328125,-1.04296875,-0.25
1581,0.1484375,-1.01953125,-0.26171875
1582,0.13671875,-1.0078125,-0.265625
1583,0.15625,-1.015625,-0.26171875
1584,0.1484375,-1.00390625,-0.2734375
1585,0.13671875,-0.99609375,-0.26953125
1586,0.16015625,-1.01171875,-0.27734375
1587,0.14453125,-1.00390625,-0.28125
1588,0.16015625,-1.01171875,-0.26171875
1589,0.1484375,-0.98828125,-0.26171875
1590,0.1640625,-1.0,-0.26953125
1591,0.15625,-1.0078125,-0.2890625
1592,0.14453125,-0.9921875,-0.2890625
1593,0.15625,-0.98046875,-0.28125
1594,0.1640625,-1.00390625,-0.2890625
1595,0.15625,-0.9921875,-0.30078125
1596,0.1796875,-0.99609375,-0.30078125
1597,0.17578125,-1.0,-0.3203125
1598,0.18359375,-0.984375,-0.3203125
1599,0.16796875,-0.99609375,-0.33203125
1600,0.18359375,-1.00390625,-0.32421875
1601,0.1875,-1.00390625,-0.32421875
1602,0.16796875,-1.0,-0.328125
1603,0.1796875,-1.0078125,-0.33203125
1604,0.16796875,-1.01953125,-0.33203125
1605,0.15625,-1.01171875,-0.328125
1606,0.16796875,-1.015625,-0.34375
1607,0.16796875,-1.015625,-0.3515625
1608,0.18359375,-1.015625,-0.359375
1609,0.18359375,-1.015625,-0.36328125
1610,0.171875,-1.01953125,-0.3828125
1611,0.1640625,-1.015625,-0.3828125
1612,0.17578125,-1.01171875,-0.3828125
1613,0.19140625,-1.02734375,-0.3828125
1614,0.19921875,-1.03125,-0.375
1615,0.1796875,-1.0234375,-0.375
1616,0.1875,-1.0234375,-0.37109375
1617,0.203125,-1.03515625,-0.390625
1618,0.1875,-1.046875,-0.3671875
1619,0.1875,-1.05078125,-0.38671875
1620,0.1796875,-1.046875,-0.37890625
1621,0.19921875,-1.05078125,-0.390625
1622,0.19921875,-1.05078125,-0.40234375
1623,0.19921875,-1.04296875,-0.390625
1624,0.18359375,-1.046875,-0.41796875
1625,0.20703125,-1.06640625,-0.421875
1626,0.19140625,-1.05859375,-0.4140625
1627,0.1875,-1.0625,-0.4375
1628,0.21484375,-1.05859375,-0.4375
1629,0.18359375,-1.05078125,-0.43359375
1630,0.17578125,-1.02734375,-0.42578125
1631,0.1875,-1.0390625,-0.44140625
1632,0.1640625,-1.03125,-0.4453125
1633,0.1640625,-1.0234375,-0.4375
1634,0.1640625,-1.03515625,-0.43359375
1635,0.17578125,-1.03515625,-0.421875
1636,0.16796875,-1.03515625,-0.421875
1637,0.17578125,-1.03125,-0.421875
1638,0.18359375,-1.04296875,-0.4453125
1639,0.18359375,-1.03515625,-0.44921875
1640,0.203125,-1.04296875,-0.453125
1641,0.1953125,-1.01953125,-0.453125
1642,0.19140625,-1.02734375,-0.47265625
1643,0.1953125,-1.03125,-0.44921875
1644,0.18359375,-1.0390625,-0.4765625
1645,0.1875,-1.05078125,-0.46484375
1646,0.17578125,-1.05078125,-0.47265625
1647,0.18359375,-1.0546875,-0.48046875
1648,0.1796875,-1.05078125,-0.47265625
1649,0.19140625,-1.03515625,-0.4765625
1650,0.171875,-1.03515625,-0.48046875
1651,0.1875,-1.02734375,-0.45703125
1652,0.1875,-1.01953125,-0.4765625
1653,0.1953125,-1.03125,-0.47265625
1654,0.19140625,-1.0234375,-0.48828125
1655,0.1953125,-1.0078125,-0.4921875
1656,0.19140625,-1.00390625,-0.48046875
1657,0.19140625,-1.0078125,-0.48828125
1658,0.1875,-0.9921875,-0.4765625
1659,0.19921875,-0.9921875,-0.4765625
1660,0.203125,-0.99609375,-0.4921875
1661,0.1953125,-0.98046875,-0.48828125
1662,0.1875,-0.9921875,-0.4921875
1663,0.19140625,-0.98828125,-0.48046875
1664,0.1796875,-1.0078125,-0.48828125
1665,0.17578125,-1.015625,-0.484375
1666,0.1796875,-1.02734375,-0.48046875
1667,0.16796875,-1.02734375,-0.46484375
1668,0.1640625,-1.0390625,-0.46875
1669,0.1640625,-1.02734375,-0.46875
1670,0.16015625,-1.015625,-0.45703125
1671,0.16796875,-1.02734375,-0.4609375
1672,0.16796875,-1.0234375,-0.453125
1673,0.171875,-1.01171875,-0.44140625
1674,0.1796875,-1.0,-0.453125
1675,0.18359375,-0.9921875,-0.45703125
1676,0.1875,-0.99609375,-0.44921875
1677,0.1796875,-0.98046875,-0.4609375
1678,0.1796875,-0.984375,-0.46484375
1679,0.1875,-0.97265625,-0.46484375
1680,0.171875,-0.9609375,-0.44140625
1681,0.1875,-0.9609375,-0.44140625
1682,0.21875,-0.9609375,-0.4609375
1683,0.203125,-0.953125,-0.43359375
1684,0.20703125,-0.94921875,-0.453125
1685,0.20703125,-0.94921875,-0.453125
1686,0.1953125,-0.95703125,-0.453125
1687,0.19140625,-0.96484375,-0.4609375
1688,0.1875,-0.96484375,-0.45703125
1689,0.171875,-0.9609375,-0.44140625
1690,0.18359375,-0.96484375,-0.44140625
1691,0.1640625,-0.9609375,-0.4296875
1692,0.171875,-0.9609375,-0.4375
1693,0.16796875,-0.9453125,-0.43359375
1694,0.16015625,-0.953125,-0.4609375
1695,0.171875,-0.96484375,-0.45703125
1696,0.16796875,-0.9609375,-0.46484375
1697,0.14453125,-0.9609375,-0.4453125
1698,0.16015625,-0.96484375,-0.45703125
1699,0.15234375,-0.9609375,-0.45703125
1700,0.15625,-0.9765625,-0.4453125
1701,0.1640625,-0.9765625,-0.4609375
1702,0.15625,-0.99609375,-0.47265625
1703,0.1640625,-0.9921875,-0.4453125
1704,0.18359375,-0.98828125,-0.453125
1705,0.171875,-0.99609375,-0.4765625
1706,0.1640625,-0.98828125,-0.46484375
1707,0.1796875,-0.98046875,-0.45703125
1708,0.18359375,-0.9921875,-0.44921875
1709,0.18359375,-0.9921875,-0.43359375
1710,0.1640625,-0.98828125,-0.46875
1711,0.1796875,-0.98828125,-0.46484375
1712,0.17578125,-0.96875,-0.44921875
1713,0.1875,-0.95703125,-0.47265625
1714,0.17578125,-0.953125,-0.47265625
1715,0.19140625,-0.9453125,-0.46484375
1716,0.1875,-0.94140625,-0.48046875
1717,0.1875,-0.9375,-0.46875
1718,0.1953125,-0.9375,-0.47265625
1719,0.18359375,-0.9375,-0.47265625
1720,0.18359375,-0.94921875,-0.48046875
1721,0.17578125,-0.9453125,-0.47265625
1722,0.171875,-0.94921875,-0.46484375
1723,0.171875,-0.953125,-0.484375
1724,0.1640625,-0.94140625,-0.484375
1725,0.171875,-0.94921875,-0.46484375
1726,0.1640625,-0.94921875,-0.4609375
1727,0.1796875,-0.94140625,-0.46484375
1728,0.171875,-0.94140625,-0.48046875
1729,0.16796875,-0.9453125,-0.4609375
1730,0.16796875,-0.93359375,-0.45703125
1731,0.16796875,-0.94140625,-0.4765625
1732,0.16796875,-0.9375,-0.4609375
1733,0.1640625,-0.9296875,-0.47265625
1734,0.16015625,-0.92578125,-0.46484375
1735,0.16796875,-0.9296875,-0.45703125
1736,0.15234375,-0.94140625,-0.45703125
1737,0.14453125,-0.91796875,-0.44921875
1738,0.140625,-0.921875,-0.4375
1739,0.1484375,-0.91015625,-0.4375
1740,0.15625,-0.90625,-0.43359375
1741,0.13671875,-0.91015625,-0.42578125
1742,0.15234375,-0.921875,-0.4296875
1743,0.14453125,-0.94140625,-0.4296875
1744,0.15234375,-0.94140625,-0.44140625
1745,0.125,-0.921875,-0.4609375
1746,0.14453125,-0.92578125,-0.484375
1747,0.140625,-0.93359375,-0.46484375
1748,0.14453125,-0.93359375,-0.48046875
1749,0.13671875,-0.921875,-0.46484375
1750,0.12109375,-0.92578125,-0.47265625
1751,0.12890625,-0.91796875,-0.48046875
1752,0.12890625,-0.9140625,-0.48046875
1753,0.12890625,-0.91796875,-0.48828125
1754,0.12890625,-0.91796875,-0.48046875
1755,0.125,-0.91015625,-0.46484375
1756,0.140625,-0.91796875,-0.4765625
1757,0.13671875,-0.92578125,-0.4609375
1758,0.140625,-0.9296875,-0.46484375
1759,0.140625,-0.94140625,-0.45703125
1760,0.12890625,-0.9453125,-0.46484375
1761,0.13671875,-0.95703125,-0.45703125
1762,0.140625,-0.94921875,-0.47265625
1763,0.1328125,-0.9375,-0.44921875
1764,0.1328125,-0.9375,-0.4609375
1765,0.12890625,-0.92578125,-0.44921875
1766,0.125,-0.9296875,-0.4453125
1767,0.12890625,-0.9375,-0.4453125
1768,0.12109375,-0.92578125,-0.4453125
1769,0.1328125,-0.94140625,-0.44921875
1770,0.12109375,-0.93359375,-0.4375
1771,0.12890625,-0.94140625,-0.45703125
1772,0.12109375,-0.92578125,-0.44140625
1773,0.1171875,-0.94921875,-0.45703125
1774,0.11328125,-0.94140625,-0.43359375
1775,0.11328125,-0.94140625,-0.421875
1776,0.12890625,-0.92578125,-0.4453125
1777,0.12109375,-0.921875,-0.4375
1778,0.12109375,-0.90625,-0.42578125
1779,0.14453125,-0.921875,-0.42578125
1780,0.1171875,-0.93359375,-0.4375
1781,0.125,-0.93359375,-0.44921875
1782,0.1171875,-0.91796875,-0.4296875
1783,0.1171875,-0.9375,-0.4296875
1784,0.1015625,-0.93359375,-0.4453125
1785,0.109375,-0.9453125,-0.4375
1786,0.10546875,-0.9375,-0.42578125
1787,0.08984375,-0.9296875,-0.4375
1788,0.0703125,-0.93359375,-0.4296875
1789,0.078125,-0.94140625,-0.4375
1790,0.06640625,-0.91796875,-0.4140625
1791,0.07421875,-0.9140625,-0.4375
1792,0.07421875,-0.8984375,-0.421875
1793,0.0703125,-0.890625,-0.42578125
1794,0.06640625,-0.8828125,-0.4140625
1795,0.08203125,-0.88671875,-0.40625
1796,0.09765625,-0.88671875,-0.41015625
1797,0.08984375,-0.88671875,-0.43359375
1798,0.08984375,-0.89453125,-0.421875
1799,0.08203125,-0.88671875,-0.4296875
1800,0.09375,-0.89453125,-0.42578125
1801,0.10546875,-0.88671875,-0.42578125
1802,0.1171875,-0.8828125,-0.42578125
1803,0.11328125,-0.87890625,-0.44140625
1804,0.12109375,-0.88671875,-0.43359375
1805,0.1015625,-0.87890625,-0.42578125
1806,0.09375,-0.87109375,-0.41796875
1807,0.10546875,-0.87109375,-0.4140625
1808,0.0859375,-0.84765625,-0.41015625
1809,0.09765625,-0.8671875,-0.41015625
1810,0.0703125,-0.86328125,-0.40234375
1811,0.078125,-0.8828125,-0.40625
1812,0.0703125,-0.875,-0.40234375
1813,0.08984375,-0.890625,-0.40625
1814,0.08203125,-0.890625,-0.3984375
1815,0.0859375,-0.88671875,-0.40234375
1816,0.06640625,-0.89453125,-0.41015625
1817,0.0703125,-0.890625,-0.39453125
1818,0.0703125,-0.90625,-0.3984375
1819,0.0703125,-0.90625,-0.390625
1820,0.06640625,-0.91015625,-0.390625
1821,0.05859375,-0.90234375,-0.390625
1822,0.0625,-0.90625,-0.37890625
1823,0.0625,-0.90234375,-0.39453125
1824,0.05859375,-0.8984375,-0.41015625
1825,0.0625,-0.91015625,-0.39453125
1826,0.0703125,-0.921875,-0.40625
1827,0.07421875,-0.93359375,-0.421875
1828,0.078125,-0.91796875,-0.42578125
1829,0.0703125,-0.92578125,-0.43359375
1830,0.06640625,-0.9296875,-0.41796875
1831,0.0625,-0.92578125,-0.421875
1832,0.06640625,-0.9453125,-0.3984375
1833,0.09375,-0.9453125,-0.41015625
1834,0.109375,-0.94140625,-0.39453125
1835,0.1015625,-0.9453125,-0.390625
1836,0.1171875,-0.94921875,-0.39453125
1837,0.11328125,-0.94140625,-0.38671875
1838,0.109375,-0.94921875,-0.41015625
1839,0.10546875,-0.953125,-0.41015625
1840,0.109375,-0.94921875,-0.41015625
1841,0.1015625,-0.953125,-0.40625
1842,0.10546875,-0.953125,-0.41796875
1843,0.1015625,-0.9375,-0.390625
1844,0.08984375,-0.9375,-0.421875
1845,0.08203125,-0.9296875,-0.40625
1846,0.08203125,-0.9296875,-0.421875
1847,0.08203125,-0.9296875,-0.41015625
1848,0.07421875,-0.93359375,-0.40234375
1849,0.06640625,-0.9375,-0.421875
1850,0.06640625,-0.92578125,-0.39453125
1851,0.08203125,-0.94140625,-0.375
1852,0.06640625,-0.93359375,-0.40234375
1853,0.07421875,-0.93359375,-0.39453125
1854,0.07421875,-0.9453125,-0.38671875
1855,0.0703125,-0.9453125,-0.40234375
1856,0.0703125,-0.95703125,-0.38671875
1857,0.078125,-0.94140625,-0.390625
1858,0.08984375,-0.94921875,-0.40625
1859,0.08984375,-0.9375,-0.41796875
1860,0.0859375,-0.93359375,-0.41796875
1861,0.08984375,-0.93359375,-0.42578125
1862,0.08984375,-0.9375,-0.4375
1863,0.07421875,-0.9296875,-0.421875
1864,0.08203125,-0.92578125,-0.4140625
1865,0.078125,-0.9375,-0.421875
1866,0.08203125,-0.94921875,-0.40625
1867,0.08203125,-0.94140625,-0.390625
1868,0.08203125,-0.94140625,-0.375
1869,0.08984375,-0.9375,-0.3828125
1870,0.0859375,-0.94140625,-0.36328125
1871,0.09765625,-0.953125,-0.37109375
1872,0.09375,-0.953125,-0.3828125
1873,0.08984375,-0.94140625,-0.38671875
1874,0.0859375,-0.96484375,-0.37890625
1875,0.078125,-0.9453125,-0.3984375
1876,0.0859375,-0.9609375,-0.40234375
1877,0.0703125,-0.95703125,-0.40234375
1878,0.078125,-0.9609375,-0.40625
1879,0.07421875,-0.94921875,-0.3984375
1880,0.078125,-0.96484375,-0.3984375
1881,0.08203125,-0.96484375,-0.4140625
1882,0.08203125,-0.97265625,-0.4140625
1883,0.08984375,-0.9921875,-0.40625
1884,0.08203125,-0.98828125,-0.4140625
1885,0.078125,-0.984375,-0.43359375
1886,0.07421875,-0.98046875,-0.41796875
1887,0.07421875,-0.9921875,-0.41015625
1888,0.07421875,-0.99609375,-0.4140625
1889,0.07421875,-0.984375,-0.40234375
1890,0.078125,-0.98046875,-0.41015625
1891,0.08984375,-0.9921875,-0.38671875
1892,0.0703125,-0.99609375,-0.375
1893,0.06640625,-0.9921875,-0.39453125
1894,0.078125,-0.98828125,-0.37890625
1895,0.08203125,-0.99609375,-0.3984375
1896,0.078125,-0.984375,-0.39453125
1897,0.07421875,-0.98828125,-0.41015625
1898,0.078125,-0.984375,-0.40625
1899,0.078125,-0.99609375,-0.41796875
1900,0.10546875,-0.98828125,-0.3984375
1901,0.078125,-0.9921875,-0.40234375
1902,0.078125,-0.9765625,-0.3984375
1903,0.07421875,-0.98046875,-0.3984375
1904,0.0625,-0.98828125,-0.390625
1905,0.06640625,-0.98046875,-0.4140625
1906,0.0703125,-0.99609375,-0.40234375
1907,0.06640625,-0.99609375,-0.390625
1908,0.0625,-0.9921875,-0.40234375
1909,0.06640625,-0.9921875,-0.38671875
1910,0.06640625,-0.9921875,-0.39453125
1911,0.0703125,-0.9921875,-0.390625
1912,0.0546875,-0.98046875,-0.3984375
1913,0.05859375,-0.9921875,-0.390625
1914,0.04296875,-0.9921875,-0.39453125
1915,0.05078125,-0.984375,-0.3984375
1916,0.05859375,-0.984375,-0.39453125
1917,0.078125,-0.9765625,-0.37109375
1918,0.08203125,-0.9765625,-0.37109375
1919,0.078125,-0.97265625,-0.37109375
1920,0.07421875,-0.96875,-0.38671875
1921,0.07421875,-0.9765625,-0.375
1922,0.078125,-0.9765625,-0.3671875
1923,0.09375,-0.98046875,-0.359375
1924,0.08984375,-0.984375,-0.359375
1925,0.09375,-0.984375,-0.3671875
1926,0.10546875,-1.0,-0.36328125
1927,0.08984375,-0.99609375,-0.359375
1928,0.08203125,-1.0,-0.37109375
1929,0.1015625,-1.00390625,-0.37890625
1930,0.09375,-1.0078125,-0.359375
1931,0.09765625,-1.015625,-0.36328125
1932,0.08984375,-1.0234375,-0.36328125
1933,0.09375,-1.01953125,-0.3515625
1934,0.0859375,-1.0078125,-0.3515625
1935,0.08984375,-1.01953125,-0.36328125
1936,0.08984375,-1.01953125,-0.3359375
1937,0.0859375,-1.0078125,-0.3515625
1938,0.078125,-1.0,-0.3359375
1939,0.08203125,-1.0,-0.359375
1940,0.06640625,-1.0,-0.35546875
1941,0.0703125,-0.99609375,-0.36328125
1942,0.05859375,-0.98828125,-0.34765625
1943,0.0703125,-1.0,-0.34765625
1944,0.06640625,-0.9921875,-0.359375
1945,0.0546875,-0.99609375,-0.34765625
1946,0.07421875,-1.00390625,-0.3515625
1947,0.07421875,-1.00390625,-0.35546875
1948,0.08203125,-1.015625,-0.34375
1949,0.0703125,-1.015625,-0.3359375
1950,0.08984375,-1.0234375,-0.3359375
1951,0.0859375,-1.03125,-0.33203125
1952,0.08203125,-1.02734375,-0.328125
1953,0.0859375,-1.01953125,-0.32421875
1954,0.07421875,-1.01171875,-0.34765625
1955,0.078125,-1.01171875,-0.35546875
1956,0.078125,-1.0,-0.3515625
1957,0.07421875,-1.00390625,-0.3515625
1958,0.08984375,-1.0,-0.34765625
1959,0.06640625,-0.99609375,-0.3515625
1960,0.08203125,-1.015625,-0.34375
1961,0.08203125,-1.0078125,-0.359375
1962,0.09375,-1.0,-0.3515625
1963,0.1015625,-1.01171875,-0.33984375
1964,0.08984375,-1.01171875,-0.3515625
1965,0.08203125,-1.0078125,-0.34765625
1966,0.10546875,-1.0078125,-0.3515625
1967,0.09765625,-1.0078125,-0.328125
1968,0.09765625,-1.0078125,-0.34375
1969,0.0859375,-1.0078125,-0.3515625
1970,0.08203125,-1.0,-0.3359375
1971,0.08984375,-1.00390625,-0.32421875
1972,0.09375,-1.015625,-0.3359375
1973,0.0859375,-1.01171875,-0.328125
1974,0.08984375,-1.01171875,-0.3359375
1975,0.0859375,-1.015625,-0.33984375
1976,0.08203125,-1.0078125,-0.328125
1977,0.0859375,-1.01171875,-0.3359375
1978,0.0859375,-1.01171875,-0.33203125
1979,0.09375,-1.0078125,-0.33203125
1980,0.08203125,-1.0078125,-0.33203125
1981,0.09765625,-1.00390625,-0.32421875
1982,0.09765625,-1.00390625,-0.328125
1983,0.1015625,-1.015625,-0.328125
1984,0.09765625,-0.99609375,-0.328125
1985,0.1015625,-1.0,-0.34765625
1986,0.09375,-0.9921875,-0.33984375
1987,0.10546875,-1.00390625,-0.33984375
1988,0.09765625,-1.0,-0.33203125
1989,0.09375,-1.00390625,-0.32421875
1990,0.09375,-1.015625,-0.33203125
1991,0.08984375,-1.01171875,-0.32421875
1992,0.07421875,-1.01171875,-0.32421875
1993,0.08984375,-1.01953125,-0.3203125
1994,0.08984375,-1.0234375,-0.31640625
1995,0.0625,-1.01171875,-0.328125
1996,0.06640625,-1.0078125,-0.3203125
1997,0.07421875,-1.01171875,-0.328125
1998,0.05078125,-1.0,-0.34375
1999,0.07421875,-0.99609375,-0.3359375
2000,0.07421875,-1.00390625,-0.34375
2001,0.0859375,-1.00390625,-0.3125
2002,0.08203125,-1.00390625,-0.3359375
2003,0.08203125,-0.99609375,-0.31640625
2004,0.08984375,-1.0,-0.32421875
2005,0.078125,-1.0,-0.328125
2006,0.0859375,-1.00390625,-0.3203125
2007,0.08203125,-1.015625,-0.328125
2008,0.07421875,-1.0,-0.29296875
2009,0.0859375,-1.0078125,-0.3203125
2010,0.078125,-1.015625,-0.31640625
2011,0.08984375,-1.01953125,-0.328125
2012,0.07421875,-1.01171875,-0.328125
2013,0.07421875,-1.0078125,-0.32421875
2014,0.07421875,-1.01171875,-0.328125
2015,0.07421875,-1.01953125,-0.33203125
2016,0.078125,-1.0234375,-0.3203125
2017,0.0703125,-1.015625,-0.328125
2018,0.07421875,-1.0078125,-0.3125
2019,0.06640625,-1.02734375,-0.328125
2020,0.0859375,-1.015625,-0.328125
2021,0.05859375,-1.0,-0.34375
2022,0.07421875,-1.0,-0.328125
2023,0.078125,-1.00390625,-0.328125
2024,0.078125,-0.99609375,-0.3125
2025,0.08203125,-1.0078125,-0.3203125
2026,0.0859375,-0.99609375,-0.3203125
2027,0.0703125,-0.9921875,-0.3125
2028,0.09375,-1.015625,-0.32421875
2029,0.08984375,-1.01171875,-0.30859375
2030,0.07421875,-1.0,-0.33203125
2031,0.07421875,-1.01171875,-0.32421875
2032,0.0859375,-1.00390625,-0.31640625
2033,0.08203125,-1.0078125,-0.31640625
2034,0.08203125,-1.01953125,-0.3203125
2035,0.08984375,-1.0234375,-0.32421875
2036,0.08203125,-1.01171875,-0.3203125
2037,0.08984375,-1.01171875,-0.3046875
2038,0.08984375,-1.01171875,-0.2890625
2039,0.0859375,-1.0234375,-0.3125
2040,0.07421875,-1.015625,-0.3125
2041,0.07421875,-1.01171875,-0.3046875
2042,0.08984375,-1.02734375,-0.31640625
2043,0.0859375,-1.0234375,-0.31640625
2044,0.08203125,-1.01171875,-0.31640625
2045,0.08203125,-1.01171875,-0.3203125
2046,0.07421875,-1.0,-0.3359375
2047,0.078125,-1.0078125,-0.3203125
2048,0.078125,-1.01171875,-0.3125
2049,0.0703125,-1.0078125,-0.3125
2050,0.078125,-1.0078125,-0.3046875
2051,0.0859375,-1.01171875,-0.30859375
2052,0.08203125,-1.00390625,-0.30859375
2053,0.0859375,-1.01171875,-0.3125
2054,0.08203125,-1.015625,-0.30078125
2055,0.07421875,-1.0,-0.30078125
2056,0.0859375,-1.01171875,-0.30859375
2057,0.078125,-1.02734375,-0.296875
2058,0.08984375,-1.0078125,-0.3125
2059,0.078125,-1.015625,-0.3046875
2060,0.06640625,-1.0078125,-0.32421875
2061,0.08984375,-1.01953125,-0.3203125
2062,0.08203125,-1.0078125,-0.3046875
2063,0.07421875,-1.00390625,-0.31640625
2064,0.0703125,-1.0078125,-0.3125
2065,0.07421875,-1.0078125,-0.3046875
2066,0.08203125,-1.0078125,-0.30859375
2067,0.07421875,-1.00390625,-0.32421875
2068,0.07421875,-1.0078125,-0.3125
2069,0.08203125,-1.00390625,-0.3046875
2070,0.0859375,-1.01171875,-0.328125
2071,0.0859375,-1.0078125,-0.30859375
2072,0.0625,-1.0078125,-0.3046875
2073,0.08203125,-1.015625,-0.3203125
2074,0.07421875,-1.0,-0.30859375
2075,0.07421875,-1.0,-0.3125
2076,0.078125,-1.01171875,-0.30859375
2077,0.0859375,-1.00390625,-0.30078125
2078,0.07421875,-0.99609375,-0.32421875
2079,0.06640625,-1.0078125,-0.3046875
2080,0.0703125,-1.0078125,-0.29296875
2081,0.078125,-1.015625,-0.3046875
2082,0.07421875,-1.01171875,-0.30078125
2083,0.0625,-1.0234375,-0.3203125
2084,0.06640625,-1.0,-0.3046875
2085,0.06640625,-1.015625,-0.30859375
2086,0.0703125,-1.00390625,-0.30859375
2087,0.06640625,-1.015625,-0.3046875
2088,0.06640625,-1.0078125,-0.30859375
2089,0.0625,-1.0078125,-0.3046875
2090,0.06640625,-1.0,-0.28515625
2091,0.0625,-1.0,-0.3125
2092,0.07421875,-1.015625,-0.30078125
2093,0.06640625,-1.01171875,-0.30078125
2094,0.0703125,-1.01171875,-0.3125
2095,0.0703125,-1.0078125,-0.31640625
2096,0.07421875,-1.00390625,-0.29296875
2097,0.09765625,-1.0078125,-0.30078125
2098,0.078125,-1.0078125,-0.30859375
2099,0.0625,-1.015625,-0.30859375
2100,0.07421875,-1.0078125,-0.30078125
2101,0.078125,-1.015625,-0.30078125
2102,0.078125,-1.0234375,-0.3046875
2103,0.08203125,-1.01953125,-0.28515625
2104,0.07421875,-1.01953125,-0.28515625
2105,0.07421875,-1.01953125,-0.28515625
2106,0.0546875,-1.01171875,-0.296875
2107,0.08203125,-1.01953125,-0.2890625
2108,0.0703125,-1.015625,-0.2890625
2109,0.0703125,-1.0234375,-0.2890625
2110,0.078125,-1.0234375,-0.2890625
2111,0.08203125,-1.02734375,-0.2890625
2112,0.0859375,-1.0234375,-0.296875
2113,0.09375,-1.03515625,-0.29296875
2114,0.078125,-1.02734375,-0.2890625
2115,0.078125,-1.02734375,-0.29296875
2116,0.08203125,-1.015625,-0.29296875
2117,0.09375,-1.0234375,-0.30078125
2118,0.09765625,-1.03125,-0.29296875
2119,0.08203125,-1.0234375,-0.296875
2120,0.09375,-1.0234375,-0.29296875
2121,0.1015625,-1.02734375,-0.28515625
2122,0.1015625,-1.03515625,-0.26953125
2123,0.09375,-1.0234375,-0.2890625
2124,0.09375,-1.03125,-0.28515625
2125,0.1015625,-1.03125,-0.28125
2126,0.1015625,-1.0390625,-0.30078125
2127,0.08984375,-1.0390625,-0.3046875
2128,0.1015625,-1.03125,-0.296875
2129,0.1171875,-1.0390625,-0.2890625
2130,0.10546875,-1.02734375,-0.2890625
2131,0.11328125,-1.03515625,-0.29296875
2132,0.1015625,-1.0390625,-0.29296875
2133,0.10546875,-1.03515625,-0.27734375
2134,0.1015625,-1.0390625,-0.28515625
2135,0.09375,-1.0390625,-0.2890625
2136,0.09375,-1.01953125,-0.27734375
2137,0.09765625,-1.03125,-0.28125
2138,0.09765625,-1.02734375,-0.28125
2139,0.09765625,-1.02734375,-0.29296875
2140,0.09765625,-1.01953125,-0.2734375
2141,0.0859375,-1.0234375,-0.27734375
2142,0.09765625,-1.02734375,-0.26171875
2143,0.0859375,-1.01953125,-0.26171875
2144,0.08984375,-1.015625,-0.27734375
2145,0.109375,-1.015625,-0.265625
2146,0.08984375,-1.01171875,-0.2890625
2147,0.109375,-1.01953125,-0.2734375
2148,0.109375,-1.04296875,-0.26953125
2149,0.1015625,-1.03515625,-0.2734375
2150,0.09765625,-1.0390625,-0.27734375
2151,0.09765625,-1.046875,-0.27734375
2152,0.08984375,-1.05078125,-0.27734375
2153,0.09765625,-1.046875,-0.3046875
2154,0.08984375,-1.046875,-0.29296875
2155,0.08984375,-1.0390625,-0.29296875
2156,0.09765625,-1.03515625,-0.30078125
2157,0.1015625,-1.03125,-0.30078125
2158,0.08984375,-1.0234375,-0.29296875
2159,0.0859375,-1.0078125,-0.30078125
2160,0.08984375,-1.0234375,-0.29296875
2161,0.08203125,-1.0078125,-0.28125
2162,0.08203125,-1.01171875,-0.29296875
2163,0.08984375,-1.015625,-0.2734375
2164,0.08203125,-1.0078125,-0.2578125
2165,0.0859375,-1.0078125,-0.25390625
2166,0.08984375,-1.01171875,-0.24609375
2167,0.1015625,-0.99609375,-0.25390625
2168,0.08984375,-0.99609375,-0.2578125
2169,0.09375,-0.9921875,-0.25
2170,0.08984375,-0.99609375,-0.25
2171,0.0859375,-0.99609375,-0.25390625
2172,0.09375,-0.98828125,-0.2421875
2173,0.09375,-0.99609375,-0.234375
2174,0.09765625,-0.984375,-0.23046875
2175,0.0859375,-0.9921875,-0.25
2176,0.08984375,-0.984375,-0.23046875
2177,0.0859375,-0.98828125,-0.24609375
2178,0.08203125,-0.99609375,-0.2265625
2179,0.08203125,-0.9921875,-0.22265625
2180,0.08203125,-0.99609375,-0.22265625
2181,0.0859375,-0.9921875,-0.22265625
2182,0.0859375,-1.00390625,-0.234375
2183,0.1015625,-0.9921875,-0.2265625
2184,0.078125,-1.0,-0.22265625
2185,0.07421875,-1.0,-0.20703125
2186,0.0703125,-1.0,-0.22265625
2187,0.078125,-1.00390625,-0.21875
2188,0.08203125,-1.0,-0.21875
2189,0.09765625,-1.01953125,-0.203125
2190,0.07421875,-1.0,-0.20703125
2191,0.07421875,-1.01953125,-0.21875
2192,0.0703125,-1.01171875,-0.20703125
2193,0.08203125,-1.01171875,-0.19140625
2194,0.07421875,-1.01171875,-0.203125
2195,0.05078125,-1.0,-0.19921875
2196,0.0703125,-1.0078125,-0.19921875
2197,0.08984375,-1.00390625,-0.203125
2198,0.0859375,-1.0078125,-0.19140625
2199,0.078125,-1.01171875,-0.19140625
2200,0.0859375,-1.01171875,-0.21484375
2201,0.09765625,-1.015625,-0.19140625
2202,0.15234375,-1.00390625,-0.16796875
2203,0.12109375,-0.98828125,-0.1640625
2204,0.02734375,-0.98046875,-0.20703125
2205,-0.05859375,-0.96484375,-0.2578125
2206,-0.03515625,-0.9765625,-0.265625
2207,0.04296875,-0.984375,-0.23046875
2208,0.08203125,-1.03125,-0.18359375
2209,0.0625,-1.05078125,-0.140625
2210,0.046875,-1.04296875,-0.13671875
2211,0.06640625,-1.0625,-0.1484375
2212,0.0703125,-1.0703125,-0.171875
2213,0.06640625,-1.05078125,-0.1875
2214,0.03515625,-1.046875,-0.19921875
2215,0.0234375,-1.0546875,-0.1796875
2216,0.04296875,-1.03515625,-0.19921875
2217,0.05859375,-1.02734375,-0.1875
2218,0.06640625,-1.015625,-0.171875
2219,0.078125,-1.0234375,-0.1640625
2220,0.07421875,-1.01953125,-0.171875
2221,0.05859375,-1.0234375,-0.1640625
2222,0.0703125,-1.01171875,-0.16015625
2223,0.07421875,-1.015625,-0.1640625
2224,0.08203125,-1.0,-0.16796875
2225,0.0859375,-0.9765625,-0.17578125
2226,0.0859375,-0.97265625,-0.171875
2227,0.0703125,-0.98828125,-0.18359375
2228,0.07421875,-0.9921875,-0.1640625
2229,0.0703125,-0.99609375,-0.1640625
2230,0.08203125,-0.9921875,-0.1484375
2231,0.078125,-0.98828125,-0.17578125
2232,0.06640625,-1.0,-0.1640625
2233,0.06640625,-0.99609375,-0.16015625
2234,0.06640625,-1.0,-0.17578125
2235,0.0703125,-1.01171875,-0.18359375
2236,0.0703125,-1.01953125,-0.16015625
2237,0.0703125,-1.03515625,-0.171875
2238,0.0703125,-1.05078125,-0.1640625
2239,0.07421875,-1.0625,-0.1796875
2240,0.0859375,-1.06640625,-0.16796875
2241,0.109375,-1.05859375,-0.16796875
2242,0.0859375,-1.04296875,-0.171875
2243,0.0703125,-1.03515625,-0.1796875
2244,0.0625,-1.0234375,-0.1953125
2245,0.0703125,-1.01953125,-0.1953125
2246,0.05859375,-1.01953125,-0.19140625
2247,0.078125,-1.015625,-0.19140625
2248,0.078125,-1.01171875,-0.19140625
2249,0.0703125,-1.01171875,-0.1796875
2250,0.08984375,-1.01953125,-0.1640625
2251,0.08203125,-1.02734375,-0.17578125
2252,0.08984375,-1.0234375,-0.171875
2253,0.09765625,-1.01953125,-0.17578125
2254,0.08984375,-1.015625,-0.16796875
2255,0.09375,-1.01953125,-0.17578125
2256,0.09765625,-1.01953125,-0.16796875
2257,0.10546875,-1.00390625,-0.1796875
2258,0.1015625,-1.01171875,-0.1953125
2259,0.09375,-1.0,-0.18359375
2260,0.1015625,-1.01171875,-0.1953125
2261,0.09765625,-1.01953125,-0.18359375
2262,0.09765625,-1.03515625,-0.19921875
2263,0.11328125,-1.0390625,-0.20703125
2264,0.10546875,-1.03515625,-0.1875
2265,0.08984375,-1.03125,-0.171875
2266,0.09375,-1.03515625,-0.17578125
2267,0.0859375,-1.0390625,-0.17578125
2268,0.08203125,-1.0390625,-0.16796875
2269,0.078125,-1.03515625,-0.17578125
2270,0.08203125,-1.01953125,-0.1875
2271,0.06640625,-1.03125,-0.19921875
2272,0.0859375,-1.02734375,-0.19140625
2273,0.08203125,-1.01953125,-0.19921875
2274,0.07421875,-1.0078125,-0.1953125
2275,0.078125,-1.01171875,-0.1953125
2276,0.07421875,-1.0234375,-0.203125
2277,0.09375,-1.015625,-0.18359375
2278,0.10546875,-1.046875,-0.1875
2279,0.09765625,-1.03125,-0.1796875
2280,0.1015625,-1.0390625,-0.19921875
2281,0.10546875,-1.03125,-0.1953125
2282,0.09765625,-1.02734375,-0.1953125
2283,0.1015625,-1.01953125,-0.1875
2284,0.09765625,-1.00390625,-0.17578125
2285,0.09765625,-1.01171875,-0.18359375
2286,0.1015625,-1.01953125,-0.19921875
2287,0.1015625,-1.01953125,-0.20703125
2288,0.10546875,-1.015625,-0.19921875
2289,0.10546875,-1.01953125,-0.19921875
2290,0.10546875,-1.015625,-0.20703125
2291,0.09375,-1.01953125,-0.2109375
2292,0.08984375,-1.01953125,-0.19921875
2293,0.1015625,-1.0234375,-0.203125
2294,0.09375,-1.01171875,-0.19921875
2295,0.09765625,-1.015625,-0.21875
2296,0.09765625,-1.01953125,-0.2109375
2297,0.09375,-1.015625,-0.203125
2298,0.08203125,-1.0234375,-0.21484375
2299,0.078125,-1.03125,-0.1953125
2300,0.08984375,-1.02734375,-0.203125
2301,0.08203125,-1.01953125,-0.1953125
2302,0.08984375,-1.0234375,-0.2109375
2303,0.09375,-1.01953125,-0.21875
2304,0.09765625,-1.02734375,-0.2109375
2305,0.109375,-1.015625,-0.19921875
2306,0.0859375,-1.015625,-0.19140625
2307,0.09375,-1.01953125,-0.2109375
2308,0.09765625,-1.01171875,-0.20703125
2309,0.09765625,-1.0078125,-0.21875
2310,0.1015625,-1.015625,-0.21875
2311,0.09375,-1.015625,-0.20703125
2312,0.109375,-1.01953125,-0.23046875
2313,0.10546875,-1.03515625,-0.19921875
2314,0.09765625,-1.01953125,-0.20703125
2315,0.09765625,-1.03125,-0.20703125
2316,0.08984375,-1.02734375,-0.203125
2317,0.0859375,-1.01171875,-0.21484375
2318,0.08984375,-1.0078125,-0.20703125
2319,0.08984375,-1.015625,-0.22265625
2320,0.09765625,-1.01171875,-0.21484375
2321,0.09765625,-1.01953125,-0.20703125
2322,0.10546875,-1.015625,-0.2109375
2323,0.08203125,-1.00390625,-0.21484375
2324,0.1015625,-1.01171875,-0.20703125
2325,0.0859375,-1.015625,-0.20703125
2326,0.1015625,-1.01953125,-0.2109375
2327,0.1171875,-1.0234375,-0.22265625
2328,0.109375,-1.02734375,-0.20703125
2329,0.09765625,-1.01953125,-0.2109375
2330,0.10546875,-1.0234375,-0.20703125
2331,0.09765625,-1.01953125,-0.21875
2332,0.09375,-1.02734375,-0.22265625
2333,0.1015625,-1.04296875,-0.21875
2334,0.10546875,-1.02734375,-0.234375
2335,0.1015625,-1.0234375,-0.2109375
2336,0.11328125,-1.01953125,-0.234375
2337,0.09765625,-1.015625,-0.21875
2338,0.1015625,-1.01953125,-0.21875
2339,0.08984375,-1.01953125,-0.21875
2340,0.10546875,-1.0234375,-0.234375
2341,0.10546875,-1.0234375,-0.22265625
2342,0.0859375,-1.01171875,-0.22265625
2343,0.09375,-1.01953125,-0.2109375
2344,0.10546875,-1.03125,-0.21875
2345,0.09765625,-1.0234375,-0.2109375
2346,0.0859375,-1.03125,-0.2109375
2347,0.10546875,-1.0234375,-0.22265625
2348,0.08984375,-1.0234375,-0.22265625
2349,0.08984375,-1.01953125,-0.21875
2350,0.1015625,-1.0234375,-0.20703125
2351,0.1015625,-1.0234375,-0.21875
2352,0.09765625,-1.01953125,-0.22265625
2353,0.09375,-1.0234375,-0.22265625
2354,0.09375,-1.01953125,-0.2265625
2355,0.10546875,-1.02734375,-0.21875
2356,0.1015625,-1.015625,-0.203125
2357,0.09375,-1.01171875,-0.21484375
2358,0.0859375,-1.015625,-0.2265625
2359,0.09375,-1.01171875,-0.1953125
2360,0.08203125,-1.0234375,-0.23046875
2361,0.09765625,-1.0078125,-0.2109375
2362,0.09375,-1.01953125,-0.203125
2363,0.1015625,-1.03515625,-0.21875
2364,0.08984375,-1.0234375,-0.19921875
2365,0.08984375,-1.0390625,-0.20703125
2366,0.08984375,-1.02734375,-0.2109375
2367,0.08984375,-1.03125,-0.22265625
2368,0.0859375,-1.0234375,-0.2109375
2369,0.09765625,-1.02734375,-0.22265625
2370,0.0859375,-1.015625,-0.21484375
2371,0.0859375,-1.01953125,-0.2265625
2372,0.0859375,-1.0078125,-0.23046875
2373,0.08203125,-1.00390625,-0.2265625
2374,0.08984375,-1.0078125,-0.21484375
2375,0.08984375,-1.01953125,-0.22265625
2376,0.09375,-1.02734375,-0.2109375
2377,0.0859375,-1.0234375,-0.22265625
2378,0.08984375,-1.015625,-0.20703125
2379,0.08984375,-1.0234375,-0.21875
2380,0.09375,-1.02734375,-0.20703125
2381,0.0859375,-1.01953125,-0.2109375
2382,0.08984375,-1.01953125,-0.22265625
2383,0.08203125,-1.01171875,-0.2265625
2384,0.08984375,-1.01953125,-0.21875
2385,0.0859375,-1.0078125,-0.234375
2386,0.09375,-1.0234375,-0.21875
2387,0.09375,-1.015625,-0.22265625
2388,0.08984375,-1.02734375,-0.234375
2389,0.078125,-1.03125,-0.23046875
2390,0.0859375,-1.03125,-0.22265625
2391,0.0859375,-1.04296875,-0.2265625
2392,0.08984375,-1.01953125,-0.234375
2393,0.09765625,-1.01953125,-0.21875
2394,0.109375,-1.01953125,-0.20703125
2395,0.1015625,-1.01953125,-0.21484375
2396,0.09375,-1.01171875,-0.22265625
2397,0.09375,-1.0078125,-0.22265625
2398,0.09375,-1.01171875,-0.21484375
2399,0.08984375,-1.01953125,-0.20703125
