,accelerometerAccelerationX(G),accelerometerAccelerationY(G),accelerometerAccelerationZ(G)
0,0.15234375,-1.0078125,-0.09765625
1,0.14453125,-1.00390625,-0.11328125
2,0.1640625,-1.02734375,-0.109375
3,0.1640625,-1.01953125,-0.11328125
4,0.15625,-1.01953125,-0.12109375
5,0.16796875,-1.0078125,-0.10546875
6,0.1796875,-1.01953125,-0.08984375
7,0.17578125,-1.01171875,-0.08984375
8,0.1796875,-1.01953125,-0.1015625
9,0.1875,-1.00390625,-0.09375
10,0.19140625,-1.015625,-0.08203125
11,0.18359375,-1.015625,-0.08984375
12,0.19921875,-1.015625,-0.08203125
13,0.18359375,-1.00390625,-0.08203125
14,0.19921875,-1.015625,-0.0859375
15,0.203125,-1.01953125,-0.1015625
16,0.203125,-1.0234375,-0.078125
17,0.1875,-1.01171875,-0.08984375
18,0.18359375,-1.01953125,-0.09765625
19,0.1875,-1.015625,-0.0859375
20,0.18359375,-1.01953125,-0.09765625
21,0.16796875,-1.015625,-0.09765625
22,0.1796875,-1.0234375,-0.09765625
23,0.19140625,-1.0078125,-0.09765625
24,0.18359375,-1.00390625,-0.08984375
25,0.17578125,-1.015625,-0.1015625
26,0.18359375,-1.0,-0.09765625
27,0.16796875,-1.0,-0.10546875
28,0.16796875,-1.01171875,-0.09765625
29,0.16796875,-1.0078125,-0.08203125
30,0.1640625,-1.00390625,-0.07421875
31,0.1640625,-1.0078125,-0.0859375
32,0.16796875,-1.015625,-0.0859375
33,0.1640625,-1.01171875,-0.09375
34,0.1640625,-1.01953125,-0.09375
35,0.16796875,-1.015625,-0.08984375
36,0.18359375,-1.015625,-0.08984375
37,0.17578125,-1.00390625,-0.10546875
38,0.16015625,-1.015625,-0.09765625
39,0.1796875,-1.01953125,-0.08984375
40,0.17578125,-1.015625,-0.08984375
41,0.1796875,-1.015625,-0.0859375
42,0.171875,-1.01171875,-0.09765625
43,0.1796875,-1.01953125,-0.08203125
44,0.1796875,-1.015625,-0.08203125
45,0.17578125,-1.01171875,-0.08203125
46,0.16796875,-1.0078125,-0.078125
47,0.17578125,-1.02734375,-0.07421875
48,0.16796875,-1.0078125,-0.0859375
49,0.16796875,-1.0234375,-0.08203125
50,0.16796875,-1.00390625,-0.0859375
51,0.1640625,-1.015625,-0.07421875
52,0.1875,-1.03125,-0.0859375
53,0.1796875,-1.03515625,-0.08984375
54,0.171875,-1.03515625,-0.07421875
55,0.17578125,-1.02734375,-0.0859375
56,0.16796875,-1.03125,-0.09375
57,0.1640625,-1.01953125,-0.09765625
58,0.16015625,-1.01171875,-0.078125
59,0.1640625,-1.01171875,-0.10546875
60,0.16015625,-1.01171875,-0.109375
61,0.17578125,-1.01953125,-0.08984375
62,0.171875,-1.015625,-0.0859375
63,0.19140625,-1.0078125,-0.1015625
64,0.1796875,-1.015625,-0.10546875
65,0.19921875,-1.01171875,-0.09375
66,0.1875,-1.0234375,-0.1015625
67,0.19140625,-1.0078125,-0.09765625
68,0.1796875,-1.0078125,-0.09765625
69,0.19140625,-1.0078125,-0.078125
70,0.203125,-1.015625,-0.0625
71,0.1953125,-1.015625,-0.0703125
72,0.18359375,-1.00390625,-0.0703125
73,0.18359375,-1.01171875,-0.0625
74,0.19921875,-1.0,-0.07421875
75,0.1875,-1.0,-0.08203125
76,0.18359375,-1.0078125,-0.08984375
77,0.1796875,-1.01171875,-0.0859375
78,0.1875,-1.0234375,-0.0859375
79,0.1640625,-1.0234375,-0.08984375
80,0.18359375,-1.02734375,-0.09375
81,0.1796875,-1.02734375,-0.125
82,0.1796875,-1.03125,-0.1171875
83,0.171875,-1.01171875,-0.11328125
84,0.17578125,-1.0078125,-0.125
85,0.17578125,-1.00390625,-0.1328125
86,0.1796875,-1.0,-0.125
87,0.1875,-1.0,-0.11328125
88,0.18359375,-0.9921875,-0.12890625
89,0.1875,-1.00390625,-0.09375
90,0.19921875,-1.0078125,-0.09765625
91,0.19140625,-1.00390625,-0.1015625
92,0.19140625,-1.015625,-0.08984375
93,0.1953125,-1.03125,-0.078125
94,0.19140625,-1.03515625,-0.1015625
95,0.1953125,-1.03515625,-0.109375
96,0.1796875,-1.03515625,-0.09375
97,0.1796875,-1.03515625,-0.10546875
98,0.1875,-1.0234375,-0.1015625
99,0.18359375,-1.01953125,-0.109375
100,0.171875,-1.0234375,-0.1171875
101,0.17578125,-1.015625,-0.125
102,0.171875,-1.0078125,-0.12109375
103,0.19140625,-1.00390625,-0.12890625
104,0.17578125,-1.01171875,-0.125
105,0.17578125,-1.00390625,-0.12109375
106,0.171875,-1.00390625,-0.11328125
107,0.171875,-1.00390625,-0.109375
108,0.16796875,-1.00390625,-0.1171875
109,0.1796875,-1.01171875,-0.1015625
110,0.16796875,-1.0078125,-0.10546875
111,0.16796875,-1.0234375,-0.109375
112,0.1875,-1.0234375,-0.1171875
113,0.1875,-1.0234375,-0.10546875
114,0.171875,-1.015625,-0.12890625
115,0.1796875,-1.015625,-0.125
116,0.16015625,-1.0078125,-0.11328125
117,0.1796875,-1.03125,-0.10546875
118,0.17578125,-1.0234375,-0.12890625
119,0.17578125,-1.01953125,-0.12109375
120,0.17578125,-1.00390625,-0.109375
121,0.1640625,-1.015625,-0.11328125
122,0.1640625,-1.00390625,-0.10546875
123,0.19140625,-1.00390625,-0.11328125
124,0.17578125,-1.0,-0.11328125
125,0.18359375,-1.0,-0.12109375
126,0.19140625,-1.015625,-0.109375
127,0.1953125,-1.01171875,-0.1171875
128,0.1953125,-1.01171875,-0.11328125
129,0.19140625,-1.01953125,-0.12109375
130,0.19140625,-1.015625,-0.1171875
131,0.1875,-1.01953125,-0.1015625
132,0.1953125,-1.015625,-0.109375
133,0.19921875,-1.0234375,-0.12109375
134,0.1875,-1.01171875,-0.12890625
135,0.1875,-1.01953125,-0.1171875
136,0.1953125,-1.0078125,-0.1328125
137,0.1875,-1.0078125,-0.109375
138,0.203125,-1.0,-0.1171875
139,0.19140625,-1.0,-0.12109375
140,0.1875,-1.0078125,-0.12890625
141,0.19921875,-1.00390625,-0.12109375
142,0.19921875,-0.99609375,-0.1171875
143,0.203125,-1.00390625,-0.12890625
144,0.2109375,-1.00390625,-0.1015625
145,0.1640625,-1.015625,-0.0859375
146,0.22265625,-1.01953125,-0.1171875
147,0.21484375,-1.01953125,-0.109375
148,0.22265625,-1.01953125,-0.08984375
149,0.2109375,-1.01171875,-0.09765625
150,0.2109375,-1.0234375,-0.12109375
151,0.21484375,-1.015625,-0.1015625
152,0.19921875,-1.01171875,-0.10546875
153,0.203125,-1.01953125,-0.10546875
154,0.20703125,-1.01171875,-0.1171875
155,0.1796875,-1.01171875,-0.1171875
156,0.20703125,-1.01171875,-0.1015625
157,0.19921875,-1.0,-0.10546875
158,0.21484375,-1.015625,-0.109375
159,0.2109375,-1.0078125,-0.10546875
160,0.21484375,-1.0078125,-0.109375
161,0.21484375,-1.01171875,-0.10546875
162,0.2109375,-1.01171875,-0.09375
163,0.22265625,-1.01953125,-0.12890625
164,0.22265625,-1.015625,-0.11328125
165,0.20703125,-1.01171875,-0.12109375
166,0.19921875,-1.01953125,-0.08203125
167,0.21875,-1.015625,-0.1015625
168,0.21875,-1.0234375,-0.12890625
169,0.21875,-1.01953125,-0.12109375
170,0.203125,-1.00390625,-0.12109375
171,0.21875,-1.01953125,-0.1171875
172,0.21484375,-1.02734375,-0.13671875
173,0.21875,-1.01171875,-0.12109375
174,0.21875,-1.0078125,-0.1171875
175,0.2109375,-1.00390625,-0.1015625
176,0.22265625,-1.0078125,-0.09765625
177,0.20703125,-0.94921875,-0.15234375
178,0.2109375,-0.99609375,-0.10546875
179,0.20703125,-1.01171875,-0.125
180,0.2109375,-1.00390625,-0.1171875
181,0.203125,-1.015625,-0.1015625
182,0.21484375,-1.02734375,-0.10546875
183,0.203125,-1.02734375,-0.1015625
184,0.1953125,-1.02734375,-0.11328125
185,0.19140625,-1.02734375,-0.125
186,0.19140625,-1.0234375,-0.12109375
187,0.19140625,-1.0234375,-0.1171875
188,0.21875,-0.98828125,-0.16015625
189,0.1796875,-1.015625,-0.12890625
190,0.18359375,-1.01171875,-0.109375
191,0.1953125,-1.00390625,-0.109375
192,0.1796875,-1.0078125,-0.125
193,0.1953125,-1.00390625,-0.12109375
194,0.17578125,-1.0078125,-0.125
195,0.171875,-1.00390625,-0.10546875
196,0.1796875,-1.0078125,-0.109375
197,0.1953125,-1.00390625,-0.10546875
198,0.19140625,-1.00390625,-0.10546875
199,0.18359375,-1.00390625,-0.1328125
200,0.1875,-1.0078125,-0.09765625
201,0.18359375,-1.0,-0.1015625
202,0.1796875,-1.0078125,-0.09765625
203,0.19140625,-1.01171875,-0.1015625
204,0.1875,-1.0,-0.10546875
205,0.1875,-1.01171875,-0.12109375
206,0.1875,-1.0078125,-0.1171875
207,0.1796875,-1.015625,-0.1171875
208,0.18359375,-1.01171875,-0.11328125
209,0.1875,-1.01171875,-0.11328125
210,0.1875,-1.0234375,-0.11328125
211,0.17578125,-1.015625,-0.1328125
212,0.18359375,-1.01171875,-0.13671875
213,0.1796875,-1.0078125,-0.09765625
214,0.171875,-1.015625,-0.1015625
215,0.17578125,-1.01171875,-0.109375
216,0.1796875,-1.01171875,-0.109375
217,0.16796875,-1.01171875,-0.10546875
218,0.16015625,-1.00390625,-0.11328125
219,0.171875,-1.01171875,-0.12109375
220,0.16796875,-1.015625,-0.109375
221,0.171875,-1.01953125,-0.12109375
222,0.17578125,-1.0234375,-0.11328125
223,0.17578125,-1.02734375,-0.1328125
224,0.1875,-1.03125,-0.125
225,0.171875,-1.03515625,-0.0859375
226,0.1640625,-1.015625,-0.12890625
227,0.1796875,-1.02734375,-0.12109375
228,0.1796875,-1.01953125,-0.11328125
229,0.18359375,-1.015625,-0.109375
230,0.1796875,-1.0234375,-0.1171875
231,0.18359375,-1.00390625,-0.12890625
232,0.1953125,-1.01171875,-0.1015625
233,0.19140625,-1.00390625,-0.12890625
234,0.1875,-1.0078125,-0.11328125
235,0.17578125,-1.0078125,-0.12109375
236,0.17578125,-1.0,-0.1171875
237,0.1796875,-1.01171875,-0.12109375
238,0.1875,-1.00390625,-0.1171875
239,0.17578125,-1.0078125,-0.125
240,0.171875,-1.01171875,-0.12109375
241,0.17578125,-1.015625,-0.12890625
242,0.1796875,-1.015625,-0.12109375
243,0.19140625,-1.015625,-0.11328125
244,0.18359375,-1.00390625,-0.13671875
245,0.1796875,-1.01953125,-0.1171875
246,0.1796875,-1.0234375,-0.12109375
247,0.18359375,-1.01171875,-0.125
248,0.19140625,-1.02734375,-0.10546875
249,0.1796875,-1.01171875,-0.109375
250,0.18359375,-1.03125,-0.1328125
251,0.1953125,-1.01953125,-0.12890625
252,0.1875,-1.015625,-0.125
253,0.18359375,-1.01171875,-0.1171875
254,0.19140625,-1.0078125,-0.09375
255,0.19921875,-1.01171875,-0.12109375
256,0.17578125,-1.00390625,-0.125
257,0.1875,-1.01171875,-0.109375
258,0.1796875,-1.0,-0.12109375
259,0.17578125,-1.00390625,-0.12109375
260,0.17578125,-1.00390625,-0.125
261,0.1796875,-1.01171875,-0.12109375
262,0.17578125,-1.00390625,-0.12109375
263,0.17578125,-1.015625,-0.125
264,0.18359375,-1.01953125,-0.12109375
265,0.1953125,-1.02734375,-0.125
266,0.18359375,-1.02734375,-0.1328125
267,0.19140625,-1.01953125,-0.125
268,0.19140625,-1.03515625,-0.125
269,0.1953125,-1.02734375,-0.11328125
270,0.19140625,-1.02734375,-0.11328125
271,0.19140625,-1.02734375,-0.109375
272,0.19140625,-1.0234375,-0.125
273,0.1953125,-1.0234375,-0.125
274,0.18359375,-1.01953125,-0.140625
275,0.17578125,-1.01953125,-0.1171875
276,0.1796875,-1.0234375,-0.125
277,0.171875,-1.01953125,-0.1328125
278,0.17578125,-1.015625,-0.140625
279,0.171875,-1.015625,-0.11328125
280,0.19921875,-1.02734375,-0.125
281,0.16796875,-1.01171875,-0.12890625
282,0.171875,-1.0078125,-0.12109375
283,0.16796875,-1.0078125,-0.12890625
284,0.16796875,-1.0078125,-0.12109375
285,0.1875,-1.015625,-0.1171875
286,0.1796875,-1.01953125,-0.125
287,0.18359375,-1.0234375,-0.109375
288,0.1640625,-1.0234375,-0.125
289,0.171875,-1.0234375,-0.125
290,0.171875,-1.0234375,-0.14453125
291,0.171875,-1.01953125,-0.1328125
292,0.171875,-1.02734375,-0.12890625
293,0.17578125,-1.015625,-0.12109375
294,0.18359375,-1.0234375,-0.14453125
295,0.16796875,-1.0078125,-0.12109375
296,0.17578125,-1.01171875,-0.11328125
297,0.16015625,-1.00390625,-0.109375
298,0.16796875,-1.015625,-0.109375
299,0.16796875,-1.0078125,-0.109375
300,0.171875,-1.015625,-0.1015625
301,0.171875,-1.0078125,-0.1171875
302,0.17578125,-1.01171875,-0.09765625
303,0.171875,-1.00390625,-0.1171875
304,0.171875,-1.0,-0.09765625
305,0.171875,-1.0078125,-0.1171875
306,0.171875,-1.00390625,-0.11328125
307,0.16796875,-1.0078125,-0.10546875
308,0.171875,-1.01171875,-0.09765625
309,0.171875,-1.015625,-0.09375
310,0.16796875,-1.00390625,-0.1015625
311,0.16015625,-1.00390625,-0.11328125
312,0.17578125,-1.0078125,-0.09375
313,0.1640625,-1.01171875,-0.08984375
314,0.171875,-1.00390625,-0.09375
315,0.17578125,-1.0,-0.109375
316,0.1796875,-1.00390625,-0.10546875
317,0.171875,-0.9921875,-0.1015625
318,0.1796875,-1.00390625,-0.1015625
319,0.1875,-1.0,-0.09765625
320,0.1875,-1.0,-0.09765625
321,0.17578125,-1.0078125,-0.09765625
322,0.1796875,-1.01171875,-0.10546875
323,0.18359375,-1.00390625,-0.1015625
324,0.18359375,-1.00390625,-0.08984375
325,0.1640625,-0.99609375,-0.08984375
326,0.18359375,-1.01171875,-0.1171875
327,0.18359375,-1.0078125,-0.09765625
328,0.1796875,-1.00390625,-0.09375
329,0.17578125,-1.01171875,-0.09765625
330,0.171875,-1.00390625,-0.1015625
331,0.171875,-1.01171875,-0.09375
332,0.1796875,-1.01953125,-0.09765625
333,0.18359375,-1.01953125,-0.11328125
334,0.1796875,-1.01171875,-0.10546875
335,0.171875,-1.01953125,-0.09375
336,0.1796875,-1.02734375,-0.09375
337,0.1875,-1.02734375,-0.0859375
338,0.171875,-1.03515625,-0.08203125
339,0.18359375,-1.0390625,-0.08984375
340,0.1796875,-1.02734375,-0.07421875
341,0.1875,-1.02734375,-0.06640625
342,0.19140625,-1.02734375,-0.0859375
343,0.1875,-1.015625,-0.078125
344,0.203125,-1.015625,-0.09375
345,0.1875,-1.015625,-0.0859375
346,0.19140625,-1.01171875,-0.078125
347,0.1953125,-1.0078125,-0.0859375
348,0.19140625,-1.0078125,-0.08984375
349,0.19140625,-1.01171875,-0.08203125
350,0.19140625,-1.015625,-0.08203125
351,0.1875,-1.01953125,-0.0703125
352,0.1796875,-1.01953125,-0.07421875
353,0.1796875,-1.01953125,-0.0625
354,0.18359375,-1.03125,-0.08984375
355,0.1875,-1.03125,-0.0703125
356,0.19140625,-1.0390625,-0.06640625
357,0.1953125,-1.02734375,-0.09375
358,0.171875,-1.015625,-0.08203125
359,0.19140625,-1.04296875,-0.078125
360,0.18359375,-1.015625,-0.078125
361,0.17578125,-1.015625,-0.09375
362,0.19140625,-1.01953125,-0.0859375
363,0.1796875,-1.00390625,-0.07421875
364,0.1796875,-1.01171875,-0.08984375
365,0.18359375,-1.01953125,-0.08203125
366,0.18359375,-1.01953125,-0.0859375
367,0.1953125,-1.015625,-0.0859375
368,0.1796875,-1.01171875,-0.08203125
369,0.171875,-1.01171875,-0.109375
370,0.18359375,-1.0234375,-0.09765625
371,0.19921875,-1.0234375,-0.10546875
372,0.1875,-1.015625,-0.109375
373,0.18359375,-1.0078125,-0.125
374,0.1796875,-1.01171875,-0.1171875
375,0.18359375,-1.00390625,-0.11328125
376,0.18359375,-1.0078125,-0.109375
377,0.19140625,-1.01171875,-0.10546875
378,0.18359375,-1.0078125,-0.1015625
379,0.17578125,-1.015625,-0.11328125
380,0.18359375,-1.015625,-0.0859375
381,0.18359375,-1.015625,-0.0859375
382,0.19140625,-1.03515625,-0.1015625
383,0.18359375,-1.0234375,-0.09765625
384,0.19140625,-1.0234375,-0.10546875
385,0.19140625,-1.0234375,-0.1015625
386,0.1875,-1.0234375,-0.10546875
387,0.19140625,-1.015625,-0.1171875
388,0.203125,-1.01953125,-0.109375
389,0.19140625,-1.0078125,-0.11328125
390,0.18359375,-1.0078125,-0.11328125
391,0.19921875,-1.01171875,-0.125
392,0.18359375,-1.00390625,-0.125
393,0.1953125,-1.0078125,-0.13671875
394,0.1875,-1.0,-0.12109375
395,0.1796875,-0.99609375,-0.12109375
396,0.1875,-1.0,-0.12109375
397,0.16796875,-1.0,-0.140625
398,0.171875,-0.99609375,-0.14453125
399,0.171875,-1.00390625,-0.12890625
400,0.17578125,-1.0,-0.125
401,0.171875,-1.01953125,-0.1328125
402,0.17578125,-1.015625,-0.125
403,0.1875,-1.02734375,-0.125
404,0.171875,-1.01953125,-0.12890625
405,0.1640625,-1.01953125,-0.1328125
406,0.171875,-1.015625,-0.13671875
407,0.171875,-1.015625,-0.1328125
408,0.1796875,-1.015625,-0.12109375
409,0.171875,-1.015625,-0.140625
410,0.17578125,-1.01171875,-0.125
411,0.17578125,-1.01171875,-0.1484375
412,0.17578125,-1.01171875,-0.14453125
413,0.16796875,-1.00390625,-0.15234375
414,0.16796875,-1.00390625,-0.13671875
415,0.1796875,-1.015625,-0.14453125
416,0.16796875,-1.01171875,-0.15234375
417,0.171875,-1.0234375,-0.1484375
418,0.1640625,-1.0078125,-0.15625
419,0.17578125,-1.015625,-0.16015625
420,0.16796875,-1.01171875,-0.15625
421,0.15234375,-1.015625,-0.1484375
422,0.16796875,-1.02734375,-0.14453125
423,0.1640625,-1.0234375,-0.1484375
424,0.16796875,-1.01953125,-0.1484375
425,0.15625,-1.015625,-0.12890625
426,0.15234375,-1.02734375,-0.140625
427,0.16015625,-1.01953125,-0.140625
428,0.15625,-1.02734375,-0.14453125
429,0.17578125,-1.04296875,-0.1328125
430,0.16015625,-1.0234375,-0.1484375
431,0.15234375,-1.015625,-0.1484375
432,0.15625,-1.01953125,-0.15234375
433,0.16796875,-1.01953125,-0.1484375
434,0.16796875,-1.01171875,-0.140625
435,0.17578125,-1.01953125,-0.1328125
436,0.1796875,-1.01171875,-0.140625
437,0.171875,-1.01171875,-0.15234375
438,0.171875,-1.00390625,-0.16015625
439,0.1640625,-0.9921875,-0.16015625
440,0.16796875,-1.0,-0.16015625
441,0.171875,-1.0,-0.15234375
442,0.16796875,-0.99609375,-0.16015625
443,0.16796875,-1.0,-0.15234375
444,0.16015625,-1.0,-0.14453125
445,0.171875,-1.0,-0.140625
446,0.16015625,-1.00390625,-0.15234375
447,0.17578125,-1.0078125,-0.16015625
448,0.171875,-1.00390625,-0.1484375
449,0.18359375,-1.02734375,-0.15625
450,0.18359375,-1.01953125,-0.16015625
451,0.17578125,-1.01953125,-0.17578125
452,0.19140625,-1.03125,-0.1796875
453,0.19921875,-1.0234375,-0.16015625
454,0.19921875,-1.01953125,-0.16796875
455,0.1875,-1.0234375,-0.1796875
456,0.203125,-1.015625,-0.14453125
457,0.19921875,-1.03515625,-0.15625
458,0.203125,-1.04296875,-0.1484375
459,0.1953125,-1.0390625,-0.1484375
460,0.203125,-1.0546875,-0.1484375
461,0.1953125,-1.03515625,-0.140625
462,0.2109375,-1.04296875,-0.140625
463,0.19921875,-1.02734375,-0.16796875
464,0.19921875,-1.03515625,-0.14453125
465,0.19921875,-1.015625,-0.16796875
466,0.19140625,-0.99609375,-0.16015625
467,0.1953125,-1.0,-0.171875
468,0.203125,-0.99609375,-0.1484375
469,0.19140625,-0.98828125,-0.1484375
470,0.1875,-0.9765625,-0.15625
471,0.19140625,-0.97265625,-0.140625
472,0.17578125,-0.96484375,-0.14453125
473,0.171875,-0.9765625,-0.13671875
474,0.17578125,-0.9765625,-0.140625
475,0.16796875,-0.97265625,-0.12109375
476,0.1640625,-0.9765625,-0.12890625
477,0.1640625,-0.98046875,-0.125
478,0.1640625,-0.9765625,-0.12890625
479,0.1484375,-0.9609375,-0.1484375
480,0.14453125,-0.92578125,-0.140625
481,0.15234375,-0.95703125,-0.1640625
482,0.15234375,-0.95703125,-0.140625
483,0.14453125,-0.9609375,-0.16796875
484,0.15625,-0.95703125,-0.17578125
485,0.15234375,-0.96484375,-0.171875
486,0.1640625,-0.97265625,-0.1640625
487,0.171875,-0.97265625,-0.1796875
488,0.1796875,-0.98828125,-0.15625
489,0.17578125,-0.9921875,-0.15234375
490,0.16796875,-0.97265625,-0.1484375
491,0.12890625,-0.9765625,-0.1015625
492,0.16796875,-0.984375,-0.140625
493,0.171875,-0.9921875,-0.15625
494,0.1640625,-0.97265625,-0.1796875
495,0.16796875,-0.9765625,-0.15234375
496,0.17578125,-0.97265625,-0.171875
497,0.17578125,-0.96484375,-0.18359375
498,0.16015625,-0.96875,-0.1796875
499,0.16015625,-0.9609375,-0.17578125
500,0.15234375,-0.9609375,-0.17578125
501,0.1484375,-0.9609375,-0.17578125
502,0.13671875,-0.96875,-0.14453125
503,0.16015625,-0.96484375,-0.16796875
504,0.16015625,-0.953125,-0.1796875
505,0.171875,-0.94140625,-0.1875
506,0.18359375,-0.9296875,-0.1640625
507,0.19140625,-0.9296875,-0.1484375
508,0.1953125,-0.92578125,-0.1484375
509,0.1875,-0.9296875,-0.15234375
510,0.18359375,-0.93359375,-0.14453125
511,0.1796875,-0.93359375,-0.13671875
512,0.1796875,-0.94921875,-0.13671875
513,0.21875,-0.91796875,-0.171875
514,0.1640625,-0.96484375,-0.13671875
515,0.1640625,-0.984375,-0.1328125
516,0.16015625,-0.98046875,-0.14453125
517,0.16796875,-0.98046875,-0.15234375
518,0.17578125,-0.98828125,-0.12890625
519,0.171875,-0.9765625,-0.1484375
520,0.1875,-0.9921875,-0.16796875
521,0.19140625,-0.98828125,-0.16015625
522,0.17578125,-1.0,-0.18359375
523,0.19140625,-0.99609375,-0.19140625
524,0.20703125,-1.0,-0.16015625
525,0.18359375,-1.0,-0.21484375
526,0.1953125,-0.99609375,-0.21875
527,0.19921875,-0.99609375,-0.234375
528,0.21484375,-1.0,-0.23046875
529,0.19921875,-0.98828125,-0.2265625
530,0.17578125,-0.98828125,-0.2265625
531,0.18359375,-0.98046875,-0.234375
532,0.18359375,-0.97265625,-0.234375
533,0.1640625,-0.96875,-0.2265625
534,0.1484375,-0.95703125,-0.2265625
535,0.1328125,-0.9609375,-0.23828125
536,0.11328125,-0.953125,-0.234375
537,0.1171875,-0.94921875,-0.23828125
538,0.11328125,-0.9375,-0.23828125
539,0.11328125,-0.94140625,-0.23828125
540,0.11328125,-0.9453125,-0.2421875
541,0.1171875,-0.91796875,-0.2109375
542,0.12109375,-0.91796875,-0.2109375
543,0.11328125,-0.90625,-0.21875
544,0.11328125,-0.88671875,-0.23046875
545,0.1328125,-0.890625,-0.24609375
546,0.14453125,-0.87890625,-0.22265625
547,0.171875,-0.88671875,-0.23828125
548,0.16796875,-0.86328125,-0.23046875
549,0.19140625,-0.87109375,-0.23046875
550,0.1796875,-0.87109375,-0.24609375
551,0.1875,-0.8671875,-0.23828125
552,0.17578125,-0.88671875,-0.234375
553,0.16015625,-0.890625,-0.23828125
554,0.1796875,-0.90625,-0.23828125
555,0.16796875,-0.91015625,-0.234375
556,0.1796875,-0.9140625,-0.2265625
557,0.1796875,-0.92578125,-0.23828125
558,0.18359375,-0.91796875,-0.234375
559,0.16796875,-0.90625,-0.25
560,0.16796875,-0.9140625,-0.24609375
561,0.16015625,-0.87109375,-0.26171875
562,0.16015625,-0.875,-0.26171875
563,0.16015625,-0.86328125,-0.265625
564,0.15625,-0.8671875,-0.27734375
565,0.16015625,-0.88671875,-0.26953125
566,0.15625,-0.88671875,-0.2578125
567,0.1484375,-0.87109375,-0.26953125
568,0.14453125,-0.86328125,-0.26171875
569,0.14453125,-0.8671875,-0.28515625
570,0.14453125,-0.86328125,-0.29296875
571,0.13671875,-0.85546875,-0.28515625
572,0.15234375,-0.89453125,-0.27734375
573,0.14453125,-0.8828125,-0.26171875
574,0.15234375,-0.89453125,-0.25
575,0.1484375,-0.9296875,-0.2421875
576,0.15625,-0.9375,-0.2265625
577,0.1484375,-0.953125,-0.21875
578,0.1484375,-0.9609375,-0.23046875
579,0.1328125,-0.9765625,-0.2265625
580,0.125,-0.98046875,-0.2421875
581,0.12109375,-0.98828125,-0.23828125
582,0.13671875,-1.0078125,-0.23828125
583,0.13671875,-1.0,-0.234375
584,0.14453125,-0.9921875,-0.23828125
585,0.16796875,-0.984375,-0.25390625
586,0.17578125,-0.9765625,-0.27734375
587,0.1640625,-0.984375,-0.28515625
588,0.18359375,-0.984375,-0.27734375
589,0.19140625,-0.99609375,-0.2734375
590,0.18359375,-1.015625,-0.27734375
591,0.19140625,-1.03125,-0.2421875
592,0.19140625,-1.06640625,-0.2421875
593,0.19140625,-1.08203125,-0.21484375
594,0.19140625,-1.1171875,-0.19921875
595,0.1953125,-1.1484375,-0.19140625
596,0.19140625,-1.18359375,-0.17578125
597,0.171875,-1.203125,-0.16015625
598,0.1796875,-1.2265625,-0.15625
599,0.171875,-1.25,-0.1640625
600,0.1796875,-1.2734375,-0.16015625
601,0.1875,-1.3046875,-0.17578125
602,0.1953125,-1.34765625,-0.16796875
603,0.2109375,-1.37890625,-0.18359375
604,0.2265625,-1.40625,-0.21484375
605,0.2421875,-1.43359375,-0.24609375
606,0.25390625,-1.45703125,-0.24609375
607,0.25390625,-1.4609375,-0.265625
608,0.26171875,-1.5,-0.265625
609,0.28125,-1.5234375,-0.24609375
610,0.29296875,-1.6015625,-0.22265625
611,0.3046875,-1.6640625,-0.18359375
612,0.33203125,-1.76171875,-0.140625
613,0.36328125,-1.875,-0.09375
614,0.3984375,-1.9921875,-0.0234375
615,0.42578125,-2.1171875,0.015625
616,0.4375,-2.23828125,0.00390625
617,0.42578125,-2.34765625,0.0
618,0.4140625,-2.42578125,-0.05859375
619,0.38671875,-2.50390625,-0.140625
620,0.36328125,-2.546875,-0.23046875
621,0.33203125,-2.5859375,-0.27734375
622,0.3125,-2.609375,-0.375
623,0.30859375,-2.6328125,-0.40625
624,0.3515625,-2.703125,-0.37890625
625,0.3671875,-2.75390625,-0.26171875
626,0.4140625,-2.8203125,-0.1640625
627,0.45703125,-2.87890625,-0.05859375
628,0.47265625,-2.9453125,0.0390625
629,0.484375,-2.99609375,0.09375
630,0.4921875,-3.0,0.05078125
631,0.48828125,-2.98828125,0.00390625
632,0.50390625,-2.984375,-0.05859375
633,0.515625,-2.953125,-0.0859375
634,0.48828125,-2.88671875,-0.08203125
635,0.4765625,-2.80078125,-0.05078125
636,0.453125,-2.7109375,-0.03515625
637,0.4296875,-2.58203125,0.0
638,0.39453125,-2.453125,-0.01171875
639,0.33203125,-2.30078125,-0.02734375
640,0.28515625,-2.15234375,-0.0546875
641,0.2421875,-1.98046875,-0.1015625
642,0.1875,-1.765625,-0.1484375
643,0.13671875,-1.5546875,-0.18359375
644,0.10546875,-1.30859375,-0.23828125
645,0.0859375,-1.08203125,-0.2890625
646,0.0703125,-0.88671875,-0.3515625
647,0.06640625,-0.71875,-0.41796875
648,0.078125,-0.55078125,-0.42578125
649,0.078125,-0.3671875,-0.38671875
650,0.0859375,-0.1640625,-0.296875
651,0.0703125,0.0859375,-0.28515625
652,0.07421875,0.33203125,-0.33203125
653,0.05078125,0.58203125,-0.44921875
654,0.00390625,0.81640625,-0.5546875
655,-0.015625,0.9921875,-0.66796875
656,-0.08203125,1.0859375,-0.74609375
657,-0.109375,1.12109375,-0.77734375
658,-0.19140625,1.0859375,-0.7578125
659,-0.2265625,0.95703125,-0.67578125
660,-0.18359375,0.69921875,-0.58984375
661,-0.16796875,0.47265625,-0.5
662,-0.11328125,0.24609375,-0.4296875
663,-0.046875,0.046875,-0.35546875
664,0.0234375,-0.11328125,-0.32421875
665,0.07421875,-0.234375,-0.34375
666,0.1171875,-0.28125,-0.359375
667,0.1328125,-0.30078125,-0.3828125
668,0.1015625,-0.2734375,-0.44140625
669,0.10546875,-0.25,-0.4609375
670,0.0859375,-0.20703125,-0.48046875
671,0.08203125,-0.17578125,-0.484375
672,0.05859375,-0.140625,-0.46875
673,0.06640625,-0.12109375,-0.43359375
674,0.07421875,-0.09765625,-0.40234375
675,0.078125,-0.07421875,-0.37890625
676,0.078125,-0.05078125,-0.3671875
677,0.1015625,-0.04296875,-0.34765625
678,0.11328125,-0.03125,-0.31640625
679,0.13671875,-0.015625,-0.30859375
680,0.16015625,-0.00390625,-0.26171875
681,0.1640625,0.01953125,-0.2265625
682,0.1640625,0.02734375,-0.1875
683,0.171875,0.046875,-0.1640625
684,0.17578125,0.05859375,-0.11328125
685,0.1640625,0.09765625,-0.0859375
686,0.1484375,0.1015625,-0.0625
687,0.1484375,0.1015625,-0.04296875
688,0.125,0.09765625,-0.015625
689,0.12109375,0.1171875,0.00390625
690,0.1015625,0.10546875,-0.01953125
691,0.08984375,0.08203125,-0.03515625
692,0.0859375,0.0703125,-0.0625
693,0.078125,0.04296875,-0.09765625
694,0.08203125,0.01171875,-0.11328125
695,0.06640625,0.0078125,-0.10546875
696,0.0703125,-0.00390625,-0.11328125
697,0.05078125,-0.02734375,-0.1328125
698,0.05859375,-0.05078125,-0.12890625
699,0.05859375,-0.0859375,-0.140625
700,0.05078125,-0.1015625,-0.13671875
701,0.05078125,-0.10546875,-0.1484375
702,0.0546875,-0.12109375,-0.14453125
703,0.03515625,-0.1171875,-0.12109375
704,0.02734375,-0.12109375,-0.1171875
705,0.01171875,-0.1328125,-0.09375
706,0.0078125,-0.140625,-0.109375
707,0.0,-0.15625,-0.1015625
708,0.0,-0.15234375,-0.12890625
709,-0.0234375,-0.12109375,-0.13671875
710,-0.04296875,-0.10546875,-0.15234375
711,-0.04296875,-0.0703125,-0.1484375
712,-0.03515625,-0.046875,-0.15234375
713,-0.03515625,-0.01953125,-0.1796875
714,-0.00390625,-0.00390625,-0.1796875
715,0.0,0.0,-0.19921875
716,0.0078125,0.00390625,-0.2265625
717,0.02734375,0.0078125,-0.2109375
718,0.046875,0.0,-0.22265625
719,0.07421875,-0.01171875,-0.3203125
720,0.0078125,-0.08203125,-0.453125
721,-0.14453125,-0.18359375,-0.4453125
722,-0.16015625,-0.3515625,-0.3125
723,0.015625,-0.51953125,-0.26171875
724,0.1484375,-0.65234375,-0.49609375
725,0.15234375,-0.73828125,-0.94921875
726,0.11328125,-0.76953125,-0.9296875
727,0.015625,-0.85546875,-0.62890625
728,-0.01171875,-0.97265625,-0.1640625
729,0.02734375,-1.18359375,0.33203125
730,0.12109375,-1.49609375,0.53125
731,0.23828125,-1.81640625,0.4296875
732,0.27734375,-2.05078125,-0.015625
733,0.28515625,-2.1875,-0.43359375
734,0.35546875,-2.296875,-0.68359375
735,0.48828125,-2.4375,-0.60546875
736,0.5859375,-2.61328125,-0.08984375
737,0.58203125,-2.8046875,0.4453125
738,0.48828125,-2.98046875,0.6953125
739,0.3125,-2.9921875,0.66796875
740,0.32421875,-2.9140625,0.5859375
741,0.47265625,-2.75,0.4609375
742,0.58984375,-2.49609375,0.2578125
743,0.71875,-2.23046875,-0.0390625
744,0.87890625,-1.984375,-0.50390625
745,0.9921875,-1.77734375,-0.9453125
746,1.06640625,-1.703125,-1.16015625
747,1.08203125,-1.68359375,-0.94921875
748,1.015625,-1.78515625,-0.41015625
749,0.87109375,-1.921875,0.109375
750,0.74609375,-2.04296875,0.44140625
751,0.66015625,-2.109375,0.48046875
752,0.63671875,-2.109375,0.3671875
753,0.5859375,-2.05078125,0.1640625
754,0.5234375,-1.984375,0.0078125
755,0.47265625,-1.92578125,-0.09375
756,0.40625,-1.8515625,-0.1953125
757,0.34765625,-1.7734375,-0.21875
758,0.28125,-1.7109375,-0.22265625
759,0.25,-1.66796875,-0.20703125
760,0.24609375,-1.6484375,-0.171875
761,0.23828125,-1.62109375,-0.1484375
762,0.24609375,-1.59765625,-0.1640625
763,0.26171875,-1.55859375,-0.1640625
764,0.28515625,-1.51953125,-0.14453125
765,0.3046875,-1.48828125,-0.125
766,0.3203125,-1.44140625,-0.1015625
767,0.3359375,-1.421875,-0.08203125
768,0.33984375,-1.3828125,-0.05859375
769,0.3671875,-1.375,-0.05078125
770,0.33984375,-1.359375,-0.0390625
771,0.33984375,-1.3515625,-0.01953125
772,0.328125,-1.35546875,-0.00390625
773,0.33984375,-1.35546875,0.00390625
774,0.328125,-1.3671875,0.00390625
775,0.3125,-1.3671875,0.0
776,0.3046875,-1.35546875,-0.01953125
777,0.30078125,-1.3515625,-0.06640625
778,0.2890625,-1.3359375,-0.1015625
779,0.27734375,-1.3125,-0.1484375
780,0.2578125,-1.2890625,-0.18359375
781,0.24609375,-1.265625,-0.1953125
782,0.23046875,-1.25,-0.21484375
783,0.234375,-1.23828125,-0.2265625
784,0.2109375,-1.2109375,-0.2421875
785,0.21875,-1.18359375,-0.22265625
786,0.23046875,-1.16015625,-0.21484375
787,0.23046875,-1.14453125,-0.1953125
788,0.24609375,-1.13671875,-0.18359375
789,0.2421875,-1.125,-0.1875
790,0.23828125,-1.1171875,-0.1796875
791,0.25,-1.1171875,-0.1796875
792,0.2578125,-1.12109375,-0.16015625
793,0.27734375,-1.125,-0.171875
794,0.3046875,-1.125,-0.17578125
795,0.29296875,-1.12890625,-0.171875
796,0.29296875,-1.1171875,-0.1953125
797,0.29296875,-1.1171875,-0.18359375
798,0.3046875,-1.12109375,-0.18359375
799,0.28515625,-1.11328125,-0.1875
800,0.2890625,-1.11328125,-0.19140625
801,0.27734375,-1.09375,-0.17578125
802,0.265625,-1.1015625,-0.171875
803,0.2578125,-1.09375,-0.19140625
804,0.25,-1.0859375,-0.2109375
805,0.26171875,-1.09375,-0.21484375
806,0.21875,-1.046875,-0.26171875
807,0.21875,-1.03125,-0.29296875
808,0.203125,-1.0234375,-0.31640625
809,0.1953125,-1.01953125,-0.28515625
810,0.18359375,-1.03125,-0.27734375
811,0.1953125,-1.0390625,-0.24609375
812,0.19921875,-1.0703125,-0.21484375
813,0.21484375,-1.09375,-0.171875
814,0.21875,-1.10546875,-0.14453125
815,0.23046875,-1.09765625,-0.15234375
816,0.234375,-1.125,-0.09375
817,0.234375,-1.1171875,-0.08984375
818,0.234375,-1.1171875,-0.109375
819,0.23046875,-1.0859375,-0.11328125
820,0.22265625,-1.06640625,-0.12109375
821,0.21484375,-1.04296875,-0.140625
822,0.2109375,-1.015625,-0.171875
823,0.203125,-0.98828125,-0.19921875
824,0.1953125,-0.95703125,-0.20703125
825,0.19921875,-0.9453125,-0.22265625
826,0.1484375,-0.90625,-0.26953125
827,0.203125,-0.921875,-0.21875
828,0.20703125,-0.8984375,-0.1875
829,0.20703125,-0.90234375,-0.1953125
830,0.22265625,-0.90234375,-0.16796875
831,0.20703125,-0.890625,-0.15625
832,0.20703125,-0.89453125,-0.14453125
833,0.20703125,-0.88671875,-0.140625
834,0.203125,-0.8984375,-0.1171875
835,0.203125,-0.89453125,-0.11328125
836,0.2109375,-0.89453125,-0.1328125
837,0.20703125,-0.84765625,-0.171875
838,0.19921875,-0.88671875,-0.12890625
839,0.1875,-0.890625,-0.140625
840,0.16796875,-0.8828125,-0.15625
841,0.171875,-0.8828125,-0.15625
842,0.15625,-0.87890625,-0.18359375
843,0.1484375,-0.8671875,-0.16796875
844,0.16796875,-0.8515625,-0.17578125
845,0.16015625,-0.83984375,-0.17578125
846,0.14453125,-0.82421875,-0.1796875
847,0.15625,-0.8125,-0.18359375
848,0.1875,-0.77734375,-0.16015625
849,0.15625,-0.78515625,-0.171875
850,0.17578125,-0.77734375,-0.171875
851,0.18359375,-0.7734375,-0.171875
852,0.171875,-0.765625,-0.15625
853,0.19140625,-0.7734375,-0.1640625
854,0.1953125,-0.78125,-0.16015625
855,0.203125,-0.8046875,-0.14453125
856,0.21484375,-0.81640625,-0.125
857,0.23828125,-0.8359375,-0.140625
858,0.23828125,-0.82421875,-0.13671875
859,0.24609375,-0.83203125,-0.11328125
860,0.25390625,-0.83984375,-0.1328125
861,0.25390625,-0.84765625,-0.1484375
862,0.2578125,-0.84765625,-0.15625
863,0.26953125,-0.84765625,-0.1328125
864,0.25,-0.8515625,-0.12890625
865,0.25390625,-0.85546875,-0.12890625
866,0.25,-0.8671875,-0.125
867,0.25,-0.87109375,-0.11328125
868,0.24609375,-0.89453125,-0.10546875
869,0.24609375,-0.91015625,-0.10546875
870,0.24609375,-0.92578125,-0.08203125
871,0.24609375,-0.9453125,-0.09765625
872,0.2421875,-0.9453125,-0.09765625
873,0.23046875,-0.9453125,-0.11328125
874,0.2421875,-0.94140625,-0.109375
875,0.23828125,-0.94140625,-0.109375
876,0.23046875,-0.94921875,-0.13671875
877,0.234375,-0.953125,-0.12109375
878,0.23046875,-0.96875,-0.0859375
879,0.2265625,-0.96484375,-0.1015625
880,0.22265625,-0.9921875,-0.078125
881,0.21484375,-0.99609375,-0.0703125
882,0.21484375,-1.00390625,-0.07421875
883,0.2109375,-1.00390625,-0.08203125
884,0.22265625,-1.0,-0.0703125
885,0.2109375,-1.01171875,-0.0546875
886,0.20703125,-1.01171875,-0.05859375
887,0.21484375,-1.01953125,-0.0625
888,0.21484375,-1.0234375,-0.0703125
889,0.21484375,-1.01953125,-0.078125
890,0.22265625,-1.015625,-0.07421875
891,0.21875,-1.015625,-0.0703125
892,0.2265625,-1.01171875,-0.0703125
893,0.2265625,-1.0,-0.07421875
894,0.22265625,-0.9921875,-0.078125
895,0.23046875,-0.984375,-0.08984375
896,0.23046875,-0.9765625,-0.08984375
897,0.22265625,-0.95703125,-0.08984375
898,0.24609375,-0.96484375,-0.08984375
899,0.23828125,-0.97265625,-0.06640625
900,0.24609375,-0.97265625,-0.08984375
901,0.24609375,-0.97265625,-0.06640625
902,0.25390625,-0.9765625,-0.078125
903,0.25390625,-0.96875,-0.078125
904,0.265625,-0.97265625,-0.06640625
905,0.26171875,-0.9765625,-0.08203125
906,0.25390625,-0.98828125,-0.05859375
907,0.2578125,-1.01953125,-0.0625
908,0.25,-1.02734375,-0.07421875
909,0.25,-1.03125,-0.0859375
910,0.24609375,-1.02734375,-0.08984375
911,0.234375,-1.0234375,-0.10546875
912,0.21484375,-1.01953125,-0.08984375
913,0.2109375,-1.015625,-0.1171875
914,0.21875,-1.01171875,-0.1171875
915,0.22265625,-1.00390625,-0.10546875
916,0.22265625,-1.00390625,-0.1015625
917,0.2265625,-1.0,-0.12109375
918,0.23046875,-0.99609375,-0.11328125
919,0.2421875,-0.9921875,-0.109375
920,0.25390625,-0.98828125,-0.1015625
921,0.25,-0.9765625,-0.11328125
922,0.26171875,-0.984375,-0.08984375
923,0.26171875,-0.98828125,-0.08203125
924,0.2578125,-0.9765625,-0.07421875
925,0.25390625,-0.98046875,-0.0625
926,0.25,-0.98046875,-0.05078125
927,0.23828125,-1.0078125,-0.05859375
928,0.2265625,-1.01953125,-0.0546875
929,0.23046875,-1.0234375,-0.06640625
930,0.21484375,-1.0234375,-0.10546875
931,0.21875,-1.01171875,-0.10546875
932,0.19921875,-1.0078125,-0.1328125
933,0.21484375,-1.0,-0.140625
934,0.203125,-1.0,-0.140625
935,0.18359375,-0.99609375,-0.1484375
936,0.18359375,-0.99609375,-0.16015625
937,0.1875,-0.99609375,-0.16015625
938,0.1796875,-0.9921875,-0.1484375
939,0.19140625,-0.99609375,-0.1328125
940,0.1875,-0.99609375,-0.140625
941,0.17578125,-0.98828125,-0.12890625
942,0.1796875,-0.99609375,-0.140625
943,0.1640625,-0.98828125,-0.16015625
944,0.16796875,-0.99609375,-0.15625
945,0.171875,-0.99609375,-0.16796875
946,0.17578125,-1.0,-0.15234375
947,0.16796875,-0.9921875,-0.13671875
948,0.1796875,-0.99609375,-0.1640625
949,0.1875,-1.0078125,-0.1640625
950,0.1875,-1.00390625,-0.171875
951,0.1953125,-1.015625,-0.1640625
952,0.1953125,-1.0078125,-0.1484375
953,0.21484375,-1.015625,-0.1640625
954,0.20703125,-1.00390625,-0.14453125
955,0.2109375,-1.0078125,-0.1484375
956,0.21875,-1.01171875,-0.15234375
957,0.22265625,-1.00390625,-0.16796875
958,0.23046875,-1.01953125,-0.1484375
959,0.21484375,-1.00390625,-0.15625
960,0.23046875,-1.03515625,-0.15234375
961,0.2265625,-1.02734375,-0.16015625
962,0.23046875,-1.03125,-0.16015625
963,0.234375,-1.03125,-0.15234375
964,0.23046875,-1.0234375,-0.15234375
965,0.23828125,-1.01953125,-0.14453125
966,0.22265625,-1.0,-0.15234375
967,0.234375,-1.015625,-0.14453125
968,0.234375,-1.00390625,-0.1328125
969,0.22265625,-0.9921875,-0.12890625
970,0.234375,-1.0,-0.1171875
971,0.23828125,-1.0,-0.12109375
972,0.23828125,-0.99609375,-0.12109375
973,0.23046875,-1.01171875,-0.1171875
974,0.2265625,-0.99609375,-0.125
975,0.2265625,-1.01171875,-0.1171875
976,0.21484375,-1.0078125,-0.12890625
977,0.22265625,-1.00390625,-0.12109375
978,0.21484375,-1.01171875,-0.1328125
979,0.20703125,-1.0,-0.12890625
980,0.19921875,-1.0078125,-0.1328125
981,0.19921875,-1.01953125,-0.12109375
982,0.19140625,-1.00390625,-0.13671875
983,0.19921875,-1.0234375,-0.13671875
984,0.203125,-1.00390625,-0.12890625
985,0.19921875,-1.01171875,-0.1171875
986,0.19921875,-1.015625,-0.1328125
987,0.1953125,-1.0078125,-0.11328125
988,0.203125,-1.01953125,-0.13671875
989,0.19921875,-1.01171875,-0.13671875
990,0.2109375,-1.01171875,-0.12890625
991,0.203125,-1.0078125,-0.1328125
992,0.21875,-1.015625,-0.140625
993,0.19921875,-1.0078125,-0.14453125
994,0.21875,-1.0078125,-0.13671875
995,0.21875,-1.0078125,-0.1328125
996,0.21484375,-1.0078125,-0.1484375
997,0.22265625,-1.01953125,-0.13671875
998,0.21484375,-1.03125,-0.15625
999,0.20703125,-1.02734375,-0.1484375
1000,0.20703125,-1.02734375,-0.15625
1001,0.2265625,-1.0234375,-0.1328125
1002,0.23046875,-1.03125,-0.140625
1003,0.2265625,-1.0234375,-0.16015625
1004,0.24609375,-1.015625,-0.12890625
1005,0.234375,-1.015625,-0.1484375
1006,0.23046875,-1.01171875,-0.14453125
1007,0.234375,-1.0078125,-0.15234375
1008,0.23046875,-1.01953125,-0.15625
1009,0.23046875,-1.0078125,-0.16015625
1010,0.23046875,-1.015625,-0.1484375
1011,0.21484375,-1.015625,-0.1484375
1012,0.2109375,-1.015625,-0.15625
1013,0.2109375,-1.01171875,-0.16015625
1014,0.21484375,-1.01171875,-0.16015625
1015,0.21484375,-1.01171875,-0.15234375
1016,0.23046875,-1.0234375,-0.15625
1017,0.23046875,-1.0234375,-0.16015625
1018,0.22265625,-1.01171875,-0.15625
1019,0.23046875,-1.015625,-0.16796875
1020,0.2265625,-1.01171875,-0.15234375
1021,0.234375,-1.0078125,-0.171875
1022,0.21875,-0.9921875,-0.171875
1023,0.2265625,-1.0,-0.16796875
1024,0.23046875,-1.0078125,-0.16015625
1025,0.22265625,-1.00390625,-0.1796875
1026,0.22265625,-1.01171875,-0.171875
1027,0.23828125,-1.0078125,-0.1796875
1028,0.23046875,-1.0078125,-0.16015625
1029,0.22265625,-1.0078125,-0.16796875
1030,0.23828125,-1.00390625,-0.1484375
1031,0.23046875,-1.0,-0.1796875
1032,0.22265625,-1.0,-0.17578125
1033,0.21875,-1.0,-0.16796875
1034,0.21875,-1.0,-0.16796875
1035,0.22265625,-1.0078125,-0.16015625
1036,0.23046875,-1.01953125,-0.17578125
1037,0.21875,-1.00390625,-0.16796875
1038,0.22265625,-1.015625,-0.171875
1039,0.2265625,-1.015625,-0.18359375
1040,0.21875,-1.015625,-0.18359375
1041,0.22265625,-1.01171875,-0.19140625
1042,0.21875,-0.9921875,-0.1875
1043,0.21875,-1.00390625,-0.1796875
1044,0.21875,-1.0078125,-0.18359375
1045,0.22265625,-1.00390625,-0.15625
1046,0.20703125,-1.015625,-0.16796875
1047,0.21875,-1.01171875,-0.1796875
1048,0.21484375,-1.00390625,-0.16796875
1049,0.21484375,-1.01953125,-0.1640625
1050,0.21875,-1.03125,-0.16796875
1051,0.12109375,-1.015625,-0.16796875
1052,0.2109375,-1.0234375,-0.19140625
1053,0.2109375,-1.01953125,-0.15625
1054,0.20703125,-1.0,-0.1796875
1055,0.203125,-1.0,-0.1640625
1056,0.20703125,-1.0078125,-0.15625
1057,0.21484375,-1.0078125,-0.18359375
1058,0.21875,-1.00390625,-0.17578125
1059,0.23046875,-1.0078125,-0.17578125
1060,0.20703125,-1.01171875,-0.1796875
1061,0.21484375,-1.01953125,-0.16796875
1062,0.203125,-1.01171875,-0.15234375
1063,0.20703125,-1.01953125,-0.15625
1064,0.2109375,-1.015625,-0.17578125
1065,0.21875,-1.02734375,-0.1640625
1066,0.2109375,-1.015625,-0.1640625
1067,0.21484375,-1.015625,-0.16015625
1068,0.203125,-1.015625,-0.16796875
1069,0.20703125,-1.01953125,-0.1796875
1070,0.21875,-1.0078125,-0.15625
1071,0.22265625,-1.01953125,-0.15625
1072,0.23046875,-1.0234375,-0.1640625
1073,0.22265625,-1.015625,-0.15234375
1074,0.21484375,-1.015625,-0.1484375
1075,0.21875,-1.03125,-0.1484375
1076,0.2109375,-1.01171875,-0.1484375
1077,0.22265625,-1.0234375,-0.15625
1078,0.19921875,-1.0234375,-0.14453125
1079,0.21875,-1.015625,-0.140625
1080,0.203125,-1.01171875,-0.15625
1081,0.21484375,-1.01171875,-0.14453125
1082,0.21875,-1.02734375,-0.14453125
1083,0.19140625,-1.01953125,-0.171875
1084,0.19921875,-1.015625,-0.1484375
1085,0.203125,-1.03515625,-0.15234375
1086,0.18359375,-1.0234375,-0.15625
1087,0.19921875,-1.03515625,-0.16015625
1088,0.171875,-1.01171875,-0.16015625
1089,0.171875,-1.01953125,-0.15625
1090,0.1796875,-1.02734375,-0.14453125
1091,0.171875,-1.015625,-0.1640625
1092,0.18359375,-1.03125,-0.1484375
1093,0.18359375,-1.0234375,-0.15234375
1094,0.17578125,-1.02734375,-0.15625
1095,0.16796875,-1.01953125,-0.140625
1096,0.15625,-1.0078125,-0.1328125
1097,0.15625,-1.015625,-0.12109375
1098,0.171875,-1.01953125,-0.14453125
1099,0.171875,-1.015625,-0.1328125
1100,0.1796875,-1.0234375,-0.140625
1101,0.171875,-1.01953125,-0.140625
1102,0.171875,-1.01171875,-0.13671875
1103,0.16796875,-1.02734375,-0.15625
1104,0.15234375,-1.01171875,-0.14453125
1105,0.16796875,-1.015625,-0.140625
1106,0.14453125,-1.01171875,-0.140625
1107,0.15234375,-1.0234375,-0.14453125
1108,0.12890625,-1.0078125,-0.17578125
1109,0.16796875,-1.01953125,-0.1484375
1110,0.16796875,-1.0234375,-0.15625
1111,0.18359375,-1.03515625,-0.15625
1112,0.171875,-1.01171875,-0.15625
1113,0.17578125,-1.01171875,-0.1484375
1114,0.16796875,-1.0234375,-0.1484375
1115,0.1796875,-1.0234375,-0.1484375
1116,0.1796875,-1.01953125,-0.13671875
1117,0.16015625,-1.0234375,-0.16015625
1118,0.16796875,-1.01171875,-0.1328125
1119,0.13671875,-1.0390625,-0.10546875
1120,0.17578125,-1.01171875,-0.1484375
1121,0.18359375,-1.01171875,-0.15234375
1122,0.16796875,-1.01171875,-0.13671875
1123,0.16796875,-0.99609375,-0.1328125
1124,0.171875,-1.0078125,-0.140625
1125,0.17578125,-1.0078125,-0.15234375
1126,0.1796875,-1.015625,-0.15234375
1127,0.16796875,-1.00390625,-0.1640625
1128,0.171875,-1.00390625,-0.15234375
1129,0.17578125,-1.00390625,-0.15625
1130,0.19921875,-1.03515625,-0.1640625
1131,0.171875,-1.00390625,-0.1640625
1132,0.1796875,-1.01171875,-0.171875
1133,0.171875,-1.01953125,-0.15234375
1134,0.18359375,-1.01953125,-0.1484375
1135,0.1875,-1.01953125,-0.1640625
1136,0.19921875,-1.015625,-0.1484375
1137,0.19140625,-1.01953125,-0.140625
1138,0.203125,-1.03125,-0.14453125
1139,0.1953125,-1.0078125,-0.1328125
1140,0.1875,-1.02734375,-0.1484375
1141,0.16015625,-1.015625,-0.19140625
1142,0.1875,-1.01953125,-0.1328125
1143,0.19140625,-1.01953125,-0.140625
1144,0.19140625,-1.015625,-0.140625
1145,0.1953125,-1.01953125,-0.140625
1146,0.1875,-1.0234375,-0.140625
1147,0.19921875,-1.01953125,-0.140625
1148,0.20703125,-1.0390625,-0.12890625
1149,0.1953125,-1.03125,-0.1484375
1150,0.1953125,-1.03515625,-0.14453125
1151,0.19921875,-1.01171875,-0.16015625
1152,0.19921875,-1.01953125,-0.17578125
1153,0.19921875,-1.01171875,-0.1484375
1154,0.19140625,-1.00390625,-0.13671875
1155,0.203125,-1.01171875,-0.140625
1156,0.18359375,-1.00390625,-0.12890625
1157,0.19921875,-1.00390625,-0.1328125
1158,0.203125,-1.0234375,-0.12890625
1159,0.19921875,-1.01171875,-0.12109375
1160,0.19140625,-1.015625,-0.1171875
1161,0.1953125,-1.0078125,-0.10546875
1162,0.19921875,-1.01171875,-0.09765625
1163,0.20703125,-1.015625,-0.12890625
1164,0.19921875,-1.015625,-0.09765625
1165,0.1953125,-1.0078125,-0.109375
1166,0.203125,-1.00390625,-0.109375
1167,0.20703125,-1.0,-0.09765625
1168,0.19921875,-1.00390625,-0.1328125
1169,0.19921875,-0.99609375,-0.12109375
1170,0.1875,-0.99609375,-0.125
1171,0.18359375,-0.9921875,-0.1328125
1172,0.1875,-0.98828125,-0.125
1173,0.1875,-0.99609375,-0.12109375
1174,0.19140625,-1.01171875,-0.12109375
1175,0.1953125,-1.01171875,-0.12109375
1176,0.1875,-1.0,-0.125
1177,0.1875,-1.015625,-0.1328125
1178,0.1875,-1.0078125,-0.109375
1179,0.19140625,-1.01953125,-0.13671875
1180,0.19921875,-1.01953125,-0.11328125
1181,0.203125,-1.0234375,-0.12109375
1182,0.1953125,-1.01953125,-0.1015625
1183,0.19921875,-1.02734375,-0.10546875
1184,0.19140625,-1.01171875,-0.11328125
1185,0.19140625,-1.01953125,-0.1328125
1186,0.1953125,-1.01171875,-0.125
1187,0.18359375,-1.01171875,-0.12109375
1188,0.18359375,-1.00390625,-0.125
1189,0.19140625,-1.00390625,-0.125
1190,0.18359375,-1.0078125,-0.12109375
1191,0.19140625,-1.0078125,-0.1484375
1192,0.18359375,-1.015625,-0.12890625
1193,0.1953125,-1.0078125,-0.1171875
1194,0.1953125,-1.01953125,-0.1171875
1195,0.1953125,-1.01171875,-0.1171875
1196,0.1953125,-1.0234375,-0.1015625
1197,0.18359375,-1.02734375,-0.1171875
1198,0.1953125,-1.01953125,-0.12890625
1199,0.203125,-1.0234375,-0.1171875
1200,0.203125,-1.01171875,-0.1171875
1201,0.2109375,-1.0078125,-0.12109375
1202,0.18359375,-1.0,-0.1171875
1203,0.203125,-1.00390625,-0.109375
1204,0.203125,-1.015625,-0.11328125
1205,0.1953125,-1.00390625,-0.11328125
1206,0.20703125,-1.0078125,-0.109375
1207,0.203125,-1.0078125,-0.1171875
1208,0.19140625,-1.00390625,-0.10546875
1209,0.19140625,-1.015625,-0.11328125
1210,0.1953125,-1.015625,-0.12109375
1211,0.20703125,-1.01171875,-0.12109375
1212,0.1953125,-1.01171875,-0.1015625
1213,0.21875,-1.015625,-0.10546875
1214,0.1953125,-1.01171875,-0.078125
1215,0.20703125,-1.015625,-0.08984375
1216,0.1953125,-1.02734375,-0.0859375
1217,0.19921875,-1.015625,-0.09765625
1218,0.2109375,-1.01953125,-0.09375
1219,0.19921875,-1.015625,-0.10546875
1220,0.20703125,-1.01171875,-0.10546875
1221,0.20703125,-1.01171875,-0.10546875
1222,0.21484375,-1.00390625,-0.109375
1223,0.20703125,-0.9921875,-0.109375
1224,0.20703125,-1.0,-0.1171875
1225,0.2265625,-1.0078125,-0.08984375
1226,0.22265625,-0.99609375,-0.109375
1227,0.21875,-1.0,-0.1015625
1228,0.23046875,-1.0,-0.09765625
1229,0.21875,-1.0,-0.10546875
1230,0.21875,-0.9921875,-0.1015625
1231,0.22265625,-0.9921875,-0.1015625
1232,0.21875,-1.0078125,-0.09375
1233,0.21875,-1.01953125,-0.1015625
1234,0.23046875,-1.01171875,-0.08984375
1235,0.1953125,-1.0,-0.09765625
1236,0.2109375,-1.01171875,-0.09765625
1237,0.21875,-1.0078125,-0.11328125
1238,0.2109375,-1.0078125,-0.109375
1239,0.23046875,-1.0234375,-0.109375
1240,0.20703125,-1.0,-0.08203125
1241,0.21484375,-1.01171875,-0.08984375
1242,0.21875,-1.0078125,-0.10546875
1243,0.21875,-1.0078125,-0.11328125
1244,0.19921875,-0.99609375,-0.09375
1245,0.21484375,-1.0,-0.12109375
1246,0.22265625,-1.0078125,-0.09765625
1247,0.23046875,-1.00390625,-0.09765625
1248,0.2265625,-1.00390625,-0.1015625
1249,0.2265625,-1.0,-0.08203125
1250,0.23046875,-1.0078125,-0.09765625
1251,0.23046875,-1.00390625,-0.09375
1252,0.20703125,-1.0,-0.08984375
1253,0.21875,-1.01171875,-0.07421875
1254,0.21875,-1.0078125,-0.08984375
1255,0.22265625,-1.01171875,-0.1015625
1256,0.21875,-1.01171875,-0.08984375
1257,0.22265625,-1.0078125,-0.10546875
1258,0.2109375,-1.0,-0.09765625
1259,0.19921875,-1.00390625,-0.10546875
1260,0.2109375,-1.0078125,-0.1171875
1261,0.2109375,-0.99609375,-0.12109375
1262,0.2109375,-0.98828125,-0.13671875
1263,0.2109375,-0.984375,-0.12890625
1264,0.20703125,-0.97265625,-0.140625
1265,0.20703125,-0.97265625,-0.15234375
1266,0.19140625,-0.9609375,-0.140625
1267,0.1953125,-0.9609375,-0.15234375
1268,0.1796875,-0.94921875,-0.1484375
1269,0.1875,-0.94140625,-0.1640625
1270,0.1953125,-0.94140625,-0.15234375
1271,0.1796875,-0.94140625,-0.1484375
1272,0.19140625,-0.94140625,-0.1484375
1273,0.1953125,-0.94140625,-0.15234375
1274,0.19921875,-0.9296875,-0.15625
1275,0.20703125,-0.921875,-0.1328125
1276,0.203125,-0.8984375,-0.14453125
1277,0.1953125,-0.89453125,-0.15625
1278,0.17578125,-0.8671875,-0.1796875
1279,0.19140625,-0.84765625,-0.18359375
1280,0.18359375,-0.82421875,-0.2109375
1281,0.17578125,-0.8125,-0.20703125
1282,0.19140625,-0.8046875,-0.21484375
1283,0.1953125,-0.796875,-0.21484375
1284,0.1953125,-0.7734375,-0.20703125
1285,0.1953125,-0.76953125,-0.1953125
1286,0.18359375,-0.7578125,-0.203125
1287,0.17578125,-0.75,-0.20703125
1288,0.1796875,-0.73828125,-0.1796875
1289,0.18359375,-0.71484375,-0.1875
1290,0.1640625,-0.671875,-0.1953125
1291,0.17578125,-0.65234375,-0.2109375
1292,0.16796875,-0.61328125,-0.21875
1293,0.1640625,-0.578125,-0.19921875
1294,0.1640625,-0.5390625,-0.2265625
1295,0.1640625,-0.515625,-0.2265625
1296,0.14453125,-0.48828125,-0.20703125
1297,0.140625,-0.45703125,-0.21484375
1298,0.140625,-0.44921875,-0.2265625
1299,0.140625,-0.4609375,-0.22265625
1300,0.1484375,-0.44921875,-0.2109375
1301,0.14453125,-0.4609375,-0.16796875
1302,0.125,-0.45703125,-0.15625
1303,0.12109375,-0.47265625,-0.1171875
1304,0.125,-0.48046875,-0.11328125
1305,0.1328125,-0.48046875,-0.09765625
1306,0.125,-0.484375,-0.11328125
1307,0.1015625,-0.484375,-0.08984375
1308,0.09765625,-0.4921875,-0.0859375
1309,0.0859375,-0.4921875,-0.0859375
1310,0.0625,-0.50390625,-0.08203125
1311,0.07421875,-0.515625,-0.0859375
1312,0.0625,-0.52734375,-0.08984375
1313,0.09375,-0.5625,-0.11328125
1314,0.11328125,-0.59375,-0.13671875
1315,0.109375,-0.6328125,-0.13671875
1316,0.12109375,-0.671875,-0.12109375
1317,0.10546875,-0.75,-0.09375
1318,0.12109375,-0.84765625,-0.08203125
1319,0.11328125,-0.92578125,-0.078125
1320,0.08203125,-0.99609375,-0.0625
1321,0.078125,-1.09765625,-0.0703125
1322,0.0625,-1.17578125,-0.08984375
1323,0.04296875,-1.24609375,-0.125
1324,0.02734375,-1.3203125,-0.13671875
1325,0.0078125,-1.41015625,-0.1484375
1326,0.015625,-1.51171875,-0.125
1327,0.01953125,-1.609375,-0.08984375
1328,0.0390625,-1.7109375,-0.09375
1329,0.07421875,-1.7734375,-0.0546875
1330,0.11328125,-1.83984375,-0.02734375
1331,0.1484375,-1.90234375,0.015625
1332,0.21875,-1.953125,0.0625
1333,0.2578125,-2.03125,0.1171875
1334,0.29296875,-2.125,0.19140625
1335,0.33203125,-2.25390625,0.2421875
1336,0.3671875,-2.421875,0.2890625
1337,0.40625,-2.625,0.30078125
1338,0.4453125,-2.84375,0.2578125
1339,0.46875,-3.07421875,0.21484375
1340,0.51953125,-3.3046875,0.125
1341,0.6015625,-3.48828125,0.0625
1342,0.71875,-3.62109375,0.0546875
1343,0.82421875,-3.6953125,0.1875
1344,0.91015625,-3.73046875,0.3984375
1345,0.96484375,-3.73828125,0.58984375
1346,0.9765625,-3.74609375,0.7421875
1347,0.9453125,-3.72265625,0.80859375
1348,0.90234375,-3.66015625,0.76953125
1349,0.84375,-3.5234375,0.62890625
1350,0.77734375,-3.34765625,0.4609375
1351,0.71484375,-3.18359375,0.328125
1352,0.6171875,-3.0234375,0.2890625
1353,0.49609375,-2.890625,0.296875
1354,0.37109375,-2.75,0.26953125
1355,0.28125,-2.609375,0.25
1356,0.2109375,-2.46484375,0.1953125
1357,0.140625,-2.34765625,0.12890625
1358,0.1015625,-2.25390625,0.0078125
1359,0.078125,-2.19921875,-0.1015625
1360,0.0859375,-2.22265625,-0.1796875
1361,0.078125,-2.23046875,-0.18359375
1362,0.02734375,-2.19921875,-0.1875
1363,0.0,-2.2890625,-0.28515625
1364,-0.02734375,-2.32421875,-0.36328125
1365,-0.00390625,-2.265625,-0.3515625
1366,0.0625,-2.12109375,-0.37109375
1367,0.109375,-1.87890625,-0.4609375
1368,0.1015625,-1.59375,-0.55859375
1369,0.0625,-1.2734375,-0.6171875
1370,0.0390625,-0.953125,-0.5859375
1371,0.02734375,-0.578125,-0.58984375
1372,-0.01953125,-0.2421875,-0.72265625
1373,-0.1015625,0.05859375,-0.9296875
1374,-0.21484375,0.4296875,-1.05078125
1375,-0.31640625,0.78515625,-1.14453125
1376,-0.3828125,1.109375,-1.19140625
1377,-0.40625,1.46484375,-1.19921875
1378,-0.3359375,1.82421875,-1.046875
1379,-0.1171875,1.9921875,-0.796875
1380,0.0859375,1.7421875,-0.546875
1381,0.015625,1.08203125,-0.671875
1382,-0.11328125,0.65625,-0.59375
1383,-0.171875,0.3203125,-0.54296875
1384,-0.15625,0.05859375,-0.515625
1385,-0.08203125,-0.16015625,-0.47265625
1386,-0.0234375,-0.33984375,-0.390625
1387,0.015625,-0.51953125,-0.234375
1388,0.00390625,-0.62890625,-0.1015625
1389,-0.03125,-0.69921875,-0.0234375
1390,-0.06640625,-0.6875,-0.03125
1391,-0.08203125,-0.609375,-0.125
1392,-0.0703125,-0.4921875,-0.2109375
1393,-0.0546875,-0.35546875,-0.265625
1394,0.01953125,-0.234375,-0.32421875
1395,0.09375,-0.1328125,-0.34375
1396,0.1875,-0.02734375,-0.35546875
1397,0.25390625,0.07421875,-0.3359375
1398,0.3203125,0.15625,-0.29296875
1399,0.375,0.22265625,-0.22265625
1400,0.41796875,0.2421875,-0.15625
1401,0.42578125,0.265625,-0.09765625
1402,0.4375,0.2578125,-0.03125
1403,0.43359375,0.25,0.0078125
1404,0.41015625,0.2421875,0.0546875
1405,0.3671875,0.21875,0.0703125
1406,0.31640625,0.18359375,0.046875
1407,0.24609375,0.1484375,0.0078125
1408,0.171875,0.09765625,-0.0390625
1409,0.09375,0.0546875,-0.08203125
1410,0.05078125,0.015625,-0.10546875
1411,0.0078125,0.0,-0.1171875
1412,-0.00390625,-0.03125,-0.140625
1413,-0.0390625,-0.046875,-0.1484375
1414,-0.05859375,-0.06640625,-0.1640625
1415,-0.05859375,-0.0859375,-0.16015625
1416,-0.07421875,-0.0703125,-0.16015625
1417,-0.07421875,-0.08203125,-0.1640625
1418,-0.07421875,-0.0625,-0.16796875
1419,-0.07421875,-0.0703125,-0.1796875
1420,-0.0703125,-0.078125,-0.19140625
1421,-0.0703125,-0.06640625,-0.203125
1422,-0.0703125,-0.0703125,-0.19140625
1423,-0.05078125,-0.0625,-0.19921875
1424,-0.0546875,-0.05078125,-0.20703125
1425,-0.03515625,-0.03125,-0.2265625
1426,-0.03125,-0.01953125,-0.21484375
1427,0.00390625,-0.0234375,-0.22265625
1428,0.01171875,-0.01171875,-0.2265625
1429,0.0390625,-0.01171875,-0.23046875
1430,0.05078125,-0.00390625,-0.23046875
1431,0.0859375,-0.0078125,-0.21875
1432,0.1015625,-0.03125,-0.21875
1433,0.140625,-0.015625,-0.2109375
1434,0.1796875,-0.046875,-0.203125
1435,0.17578125,-0.01953125,-0.1796875
1436,0.1875,-0.03125,-0.171875
1437,0.19921875,-0.0390625,-0.16015625
1438,0.1953125,-0.05078125,-0.12890625
1439,0.1796875,-0.0546875,-0.08203125
1440,0.15234375,-0.02734375,-0.07421875
1441,0.15234375,-0.04296875,-0.05859375
1442,0.12109375,-0.0703125,-0.1015625
1443,0.09765625,-0.0859375,-0.23046875
1444,0.08984375,-0.08203125,-0.38671875
1445,0.0859375,-0.1328125,-0.453125
1446,0.0625,-0.16015625,-0.45703125
1447,0.015625,-0.171875,-0.44140625
1448,-0.03125,-0.15625,-0.37890625
1449,-0.1015625,-0.10546875,-0.375
1450,-0.1640625,-0.05859375,-0.40625
1451,-0.25,0.0,-0.4609375
1452,-0.296875,0.015625,-0.57421875
1453,-0.23828125,0.0,-0.6328125
1454,-0.09765625,-0.08203125,-0.6953125
1455,-0.05859375,-0.24609375,-0.7109375
1456,0.06640625,-0.3515625,-0.484375
1457,0.22265625,-0.453125,-0.28515625
1458,0.0625,-0.60546875,-0.79296875
1459,0.02734375,-0.74609375,-1.3828125
1460,0.23828125,-0.97265625,-0.828125
1461,0.41796875,-1.22265625,0.25
1462,0.62890625,-1.5234375,1.1875
1463,0.76953125,-1.67578125,1.25
1464,0.8359375,-1.671875,0.31640625
1465,0.88671875,-1.68359375,-0.49609375
1466,0.96484375,-1.9140625,-0.91015625
1467,0.9609375,-2.27734375,-0.67578125
1468,0.8203125,-2.6171875,0.0234375
1469,0.74609375,-2.85546875,0.7578125
1470,0.8984375,-2.99609375,1.0546875
1471,1.08984375,-3.0546875,0.859375
1472,1.06640625,-3.05078125,0.4921875
1473,0.66015625,-2.8984375,0.21875
1474,0.4921875,-2.625,-0.1328125
1475,0.5,-2.31640625,-0.44921875
1476,0.62109375,-2.171875,-0.48046875
1477,0.76171875,-2.1640625,-0.23046875
1478,0.80859375,-2.2421875,0.01953125
1479,0.7265625,-2.30859375,0.08984375
1480,0.5859375,-2.35546875,-0.0390625
1481,0.49609375,-2.4296875,-0.14453125
1482,0.4921875,-2.57421875,-0.08203125
1483,0.5,-2.73828125,0.11328125
1484,0.5234375,-2.76953125,0.34375
1485,0.55078125,-2.66796875,0.50390625
1486,0.5546875,-2.4609375,0.546875
1487,0.5546875,-2.19921875,0.52734375
1488,0.52734375,-1.94921875,0.4609375
1489,0.51171875,-1.6953125,0.3671875
1490,0.50390625,-1.5078125,0.296875
1491,0.4765625,-1.34765625,0.25
1492,0.4375,-1.24609375,0.17578125
1493,0.390625,-1.171875,0.08203125
1494,0.39453125,-1.140625,0.0390625
1495,0.41796875,-1.1015625,0.01953125
1496,0.390625,-1.15234375,0.0546875
1497,0.34375,-1.21875,0.1015625
1498,0.2890625,-1.28515625,0.10546875
1499,0.2578125,-1.390625,0.09765625
1500,0.24609375,-1.48046875,0.0390625
1501,0.22265625,-1.51953125,0.0
1502,0.2109375,-1.6015625,-0.03515625
1503,0.21484375,-1.640625,-0.0546875
1504,0.22265625,-1.66015625,-0.07421875
1505,0.23828125,-1.65625,-0.1015625
1506,0.26953125,-1.65625,-0.1015625
1507,0.28515625,-1.62890625,-0.125
1508,0.3125,-1.59765625,-0.14453125
1509,0.359375,-1.55859375,-0.12890625
1510,0.3984375,-1.5390625,-0.10546875
1511,0.42578125,-1.515625,-0.06640625
1512,0.46484375,-1.5078125,-0.01953125
1513,0.4921875,-1.51953125,0.0234375
1514,0.484375,-1.52734375,0.0546875
1515,0.44921875,-1.5,0.03125
1516,0.41796875,-1.4921875,0.01171875
1517,0.38671875,-1.44921875,-0.015625
1518,0.3671875,-1.40625,-0.07421875
1519,0.36328125,-1.36328125,-0.09765625
1520,0.3515625,-1.3359375,-0.11328125
1521,0.34765625,-1.32421875,-0.10546875
1522,0.3359375,-1.3125,-0.1015625
1523,0.3203125,-1.296875,-0.08984375
1524,0.30859375,-1.2890625,-0.0859375
1525,0.28515625,-1.25390625,-0.08203125
1526,0.28125,-1.23828125,-0.0703125
1527,0.25390625,-1.1953125,-0.08984375
1528,0.2421875,-1.14453125,-0.1015625
1529,0.24609375,-1.109375,-0.13671875
1530,0.25,-1.07421875,-0.13671875
1531,0.2421875,-1.0859375,-0.15625
1532,0.25,-1.078125,-0.15625
1533,0.2578125,-1.09765625,-0.140625
1534,0.26953125,-1.1015625,-0.1484375
1535,0.27734375,-1.10546875,-0.11328125
1536,0.2890625,-1.12109375,-0.1328125
1537,0.29296875,-1.11328125,-0.10546875
1538,0.31640625,-1.109375,-0.125
1539,0.3125,-1.1015625,-0.1484375
1540,0.29296875,-1.0625,-0.16015625
1541,0.29296875,-1.046875,-0.171875
1542,0.28125,-1.03125,-0.1953125
1543,0.26953125,-1.00390625,-0.19140625
1544,0.26953125,-1.0078125,-0.2109375
1545,0.26953125,-1.0,-0.17578125
1546,0.27734375,-0.99609375,-0.140625
1547,0.28515625,-0.98046875,-0.11328125
1548,0.26953125,-0.98046875,-0.0859375
1549,0.2578125,-0.96484375,-0.0546875
1550,0.26171875,-0.953125,-0.03125
1551,0.265625,-0.91796875,-0.0234375
1552,0.26171875,-0.91015625,-0.046875
1553,0.25390625,-0.86328125,-0.0546875
1554,0.265625,-0.828125,-0.078125
1555,0.25390625,-0.80859375,-0.109375
1556,0.25,-0.7890625,-0.125
1557,0.2421875,-0.7890625,-0.125
1558,0.23046875,-0.7890625,-0.1328125
1559,0.203125,-0.7734375,-0.125
1560,0.21484375,-0.7890625,-0.13671875
1561,0.18359375,-0.77734375,-0.12109375
1562,0.18359375,-0.7734375,-0.125
1563,0.171875,-0.765625,-0.1171875
1564,0.18359375,-0.75390625,-0.1171875
1565,0.1640625,-0.75,-0.1015625
1566,0.16796875,-0.73046875,-0.10546875
1567,0.16796875,-0.71875,-0.11328125
1568,0.17578125,-0.71484375,-0.125
1569,0.18359375,-0.7265625,-0.10546875
1570,0.18359375,-0.70703125,-0.125
1571,0.19140625,-0.7265625,-0.125
1572,0.19921875,-0.7265625,-0.1171875
1573,0.1953125,-0.74609375,-0.12109375
1574,0.19140625,-0.75,-0.12890625
1575,0.19140625,-0.7421875,-0.1171875
1576,0.20703125,-0.75,-0.12890625
1577,0.21484375,-0.73046875,-0.14453125
1578,0.21484375,-0.73046875,-0.1484375
1579,0.2265625,-0.7265625,-0.140625
1580,0.2265625,-0.7265625,-0.14453125
1581,0.22265625,-0.73046875,-0.15234375
1582,0.2421875,-0.7421875,-0.15234375
1583,0.25390625,-0.75,-0.14453125
1584,0.2578125,-0.75390625,-0.14453125
1585,0.26953125,-0.7578125,-0.1484375
1586,0.28125,-0.78125,-0.12890625
1587,0.28125,-0.79296875,-0.1171875
1588,0.2734375,-0.81640625,-0.12890625
1589,0.2734375,-0.84765625,-0.11328125
1590,0.26171875,-0.8671875,-0.10546875
1591,0.26171875,-0.890625,-0.10546875
1592,0.25390625,-0.91015625,-0.11328125
1593,0.25,-0.93359375,-0.1171875
1594,0.26171875,-0.9453125,-0.1171875
1595,0.2578125,-0.94921875,-0.13671875
1596,0.265625,-0.95703125,-0.12890625
1597,0.25390625,-0.97265625,-0.11328125
1598,0.265625,-0.98046875,-0.1015625
1599,0.26953125,-0.98046875,-0.0703125
1600,0.2734375,-1.0078125,-0.0546875
1601,0.29296875,-1.01953125,-0.046875
1602,0.2890625,-1.03125,-0.0234375
1603,0.296875,-1.03515625,-0.0390625
1604,0.3046875,-1.03125,-0.05078125
1605,0.3046875,-1.0390625,-0.05078125
1606,0.296875,-1.0390625,-0.0625
1607,0.30078125,-1.01953125,-0.03125
1608,0.30078125,-1.01953125,-0.02734375
1609,0.30078125,-1.015625,0.015625
1610,0.29296875,-1.00390625,-0.0078125
1611,0.30078125,-1.00390625,-0.00390625
1612,0.2890625,-0.9921875,-0.015625
1613,0.28125,-0.9765625,-0.02734375
1614,0.28125,-0.984375,-0.01953125
1615,0.265625,-0.96484375,-0.03125
1616,0.25390625,-0.96875,-0.03125
1617,0.25390625,-0.9765625,-0.03515625
1618,0.265625,-0.98828125,-0.02734375
1619,0.25,-0.96875,-0.01171875
1620,0.25,-0.96875,-0.01953125
1621,0.2578125,-0.984375,-0.03515625
1622,0.2421875,-0.97265625,0.0078125
1623,0.25,-0.98046875,-0.05078125
1624,0.23828125,-0.96484375,-0.03515625
1625,0.23046875,-0.96875,-0.02734375
1626,0.21875,-0.96484375,-0.0546875
1627,0.2109375,-0.953125,-0.05078125
1628,0.203125,-0.9296875,-0.0546875
1629,0.19140625,-0.94140625,-0.0625
1630,0.203125,-0.93359375,-0.0625
1631,0.19140625,-0.93359375,-0.04296875
1632,0.1875,-0.94140625,-0.05859375
1633,0.1953125,-0.9375,-0.03125
1634,0.19140625,-0.9453125,-0.046875
1635,0.203125,-0.95703125,-0.03125
1636,0.19921875,-0.97265625,-0.03515625
1637,0.19921875,-0.96875,-0.01953125
1638,0.19921875,-0.984375,0.0
1639,0.20703125,-0.97265625,0.00390625
1640,0.22265625,-0.984375,0.00390625
1641,0.20703125,-0.98828125,-0.00390625
1642,0.2265625,-0.984375,0.0
1643,0.234375,-0.98828125,-0.01171875
1644,0.23828125,-0.98828125,-0.00390625
1645,0.25390625,-0.9765625,-0.01171875
1646,0.2578125,-0.98828125,-0.01953125
1647,0.2734375,-0.98828125,-0.01171875
1648,0.265625,-0.98046875,-0.00390625
1649,0.27734375,-0.98828125,-0.01171875
1650,0.265625,-1.01171875,-0.00390625
1651,0.2578125,-0.984375,0.0
1652,0.25,-0.98828125,0.00390625
1653,0.24609375,-0.98828125,0.0
1654,0.25390625,-0.98828125,0.01953125
1655,0.25390625,-0.984375,0.0234375
1656,0.23828125,-0.9921875,0.03125
1657,0.2421875,-0.99609375,0.02734375
1658,0.23828125,-0.99609375,0.0390625
1659,0.234375,-1.0078125,0.0390625
1660,0.2421875,-1.0078125,0.04296875
1661,0.23828125,-1.01953125,0.0390625
1662,0.24609375,-1.01953125,0.05078125
1663,0.2578125,-1.02734375,0.03125
1664,0.25390625,-1.015625,0.015625
1665,0.2578125,-1.01171875,0.00390625
1666,0.26171875,-0.99609375,0.0
1667,0.2578125,-0.98828125,0.01171875
1668,0.265625,-0.97265625,0.0
1669,0.25390625,-0.95703125,0.0
1670,0.25,-0.9375,0.0078125
1671,0.2578125,-0.9453125,0.0078125
1672,0.2578125,-0.93359375,0.015625
1673,0.26171875,-0.9296875,0.0078125
1674,0.26953125,-0.93359375,0.0078125
1675,0.26953125,-0.9375,0.00390625
1676,0.265625,-0.953125,0.0
1677,0.2578125,-0.953125,-0.01171875
1678,0.25390625,-0.95703125,-0.01953125
1679,0.2578125,-0.97265625,-0.015625
1680,0.2578125,-0.953125,-0.01953125
1681,0.2578125,-0.94921875,-0.01953125
1682,0.27734375,-0.9375,0.0
1683,0.28515625,-0.92578125,0.0
1684,0.2890625,-0.9140625,0.00390625
1685,0.28515625,-0.91015625,0.02734375
1686,0.26953125,-0.90625,0.0234375
1687,0.27734375,-0.89453125,0.03125
1688,0.29296875,-0.90234375,0.03125
1689,0.30078125,-0.8984375,0.05078125
1690,0.296875,-0.9140625,0.04296875
1691,0.296875,-0.9296875,0.03515625
1692,0.30078125,-0.9375,0.0390625
1693,0.2890625,-0.9609375,0.046875
1694,0.31640625,-0.97265625,0.0390625
1695,0.30078125,-0.98046875,0.03515625
1696,0.296875,-0.984375,0.03515625
1697,0.30078125,-0.984375,0.03125
1698,0.30078125,-1.00390625,0.05078125
1699,0.30078125,-1.0234375,0.04296875
1700,0.2890625,-1.01953125,0.05078125
1701,0.29296875,-1.0390625,0.05859375
1702,0.2890625,-1.01953125,0.046875
1703,0.28515625,-1.01953125,0.01953125
1704,0.26171875,-1.015625,0.01953125
1705,0.265625,-1.0078125,0.00390625
1706,0.2578125,-0.9921875,0.00390625
1707,0.2578125,-0.9765625,0.0
1708,0.25,-0.98046875,-0.00390625
1709,0.24609375,-0.9921875,0.0
1710,0.234375,-1.01171875,0.01171875
1711,0.23046875,-1.04296875,0.0390625
1712,0.234375,-1.0703125,0.02734375
1713,0.22265625,-1.09375,0.05859375
1714,0.2109375,-1.078125,0.0703125
1715,0.234375,-1.0859375,0.05859375
1716,0.24609375,-1.0625,0.04296875
1717,0.25390625,-1.0546875,0.05078125
1718,0.24609375,-1.046875,0.02734375
1719,0.2421875,-1.01953125,0.01171875
1720,0.2421875,-1.0234375,0.015625
1721,0.2421875,-1.00390625,0.00390625
1722,0.2421875,-0.98046875,0.0078125
1723,0.24609375,-0.96875,0.015625
1724,0.2421875,-0.97265625,0.01171875
1725,0.23828125,-0.95703125,0.0078125
1726,0.2421875,-0.94921875,0.015625
1727,0.2421875,-0.96484375,0.01953125
1728,0.24609375,-0.96875,0.02734375
1729,0.25,-0.96875,0.0078125
1730,0.2578125,-1.00390625,0.00390625
1731,0.25,-0.99609375,0.0234375
1732,0.25390625,-1.0078125,0.0234375
1733,0.26171875,-1.00390625,-0.00390625
1734,0.26171875,-1.00390625,0.00390625
1735,0.25390625,-1.00390625,0.0
1736,0.21875,-1.08203125,0.015625
1737,0.25,-1.01171875,0.00390625
1738,0.24609375,-1.0078125,0.01171875
1739,0.24609375,-1.01171875,0.0078125
1740,0.2421875,-0.99609375,0.01171875
1741,0.22265625,-1.0,-0.00390625
1742,0.234375,-1.0,0.0078125
1743,0.24609375,-1.00390625,-0.01953125
1744,0.2421875,-1.0,0.0
1745,0.23046875,-0.9921875,-0.00390625
1746,0.2265625,-0.984375,-0.00390625
1747,0.24609375,-1.0390625,0.0546875
1748,0.234375,-1.0,-0.00390625
1749,0.23046875,-0.984375,0.00390625
1750,0.23046875,-1.0078125,-0.00390625
1751,0.22265625,-1.01171875,-0.0078125
1752,0.234375,-1.0078125,0.0
1753,0.2421875,-1.0,0.0
1754,0.23828125,-0.99609375,-0.01171875
1755,0.23828125,-0.99609375,-0.0078125
1756,0.2265625,-1.0,-0.01171875
1757,0.2265625,-1.0,-0.0078125
1758,0.21875,-0.953125,-0.07421875
1759,0.21875,-1.0,-0.00390625
1760,0.20703125,-1.00390625,0.0
1761,0.21875,-1.01171875,0.0
1762,0.21875,-1.01171875,0.0
1763,0.22265625,-1.00390625,0.00390625
1764,0.23046875,-1.0,0.0078125
1765,0.2265625,-1.0,-0.00390625
1766,0.23046875,-0.98046875,-0.00390625
1767,0.234375,-0.98828125,-0.00390625
1768,0.234375,-0.984375,0.00390625
1769,0.203125,-0.99609375,0.01953125
1770,0.21484375,-0.984375,0.00390625
1771,0.21875,-0.984375,-0.00390625
1772,0.2265625,-0.9921875,0.0
1773,0.2265625,-0.99609375,0.0
1774,0.19921875,-0.9921875,0.00390625
1775,0.2109375,-1.00390625,0.0078125
1776,0.2109375,-0.99609375,0.0
1777,0.22265625,-1.0,-0.0078125
1778,0.2265625,-0.98046875,-0.0078125
1779,0.234375,-0.9921875,0.0
1780,0.23046875,-0.9765625,-0.05859375
1781,0.234375,-1.0,0.0
1782,0.2265625,-0.984375,0.0
1783,0.234375,-0.98828125,0.0
1784,0.23046875,-0.98828125,0.0
1785,0.2421875,-0.9765625,-0.00390625
1786,0.2421875,-0.97265625,-0.0078125
1787,0.24609375,-0.99609375,-0.01171875
1788,0.23828125,-0.98046875,0.00390625
1789,0.2421875,-0.98828125,-0.015625
1790,0.23828125,-1.00390625,-0.01171875
1791,0.23828125,-1.0078125,0.0
1792,0.24609375,-1.015625,0.00390625
1793,0.2265625,-1.0078125,0.00390625
1794,0.23046875,-1.0078125,0.0
1795,0.234375,-1.03125,0.015625
1796,0.22265625,-1.01171875,-0.015625
1797,0.23046875,-1.01171875,-0.01171875
1798,0.234375,-1.01953125,0.0
1799,0.234375,-1.0078125,-0.01953125
1800,0.21875,-1.01171875,-0.00390625
1801,0.21484375,-1.015625,-0.0078125
1802,0.21484375,-1.01953125,-0.01171875
1803,0.2265625,-1.015625,-0.00390625
1804,0.23046875,-1.0078125,-0.03125
1805,0.21875,-1.015625,-0.0234375
1806,0.22265625,-1.01171875,-0.0234375
1807,0.21875,-1.015625,-0.0234375
1808,0.21875,-1.0078125,-0.01953125
1809,0.22265625,-1.0078125,-0.02734375
1810,0.234375,-1.0078125,-0.015625
1811,0.23828125,-1.0,-0.02734375
1812,0.234375,-1.0,-0.03125
1813,0.234375,-0.984375,-0.0390625
1814,0.2421875,-0.9765625,-0.02734375
1815,0.25,-0.98046875,-0.0234375
1816,0.2421875,-0.98046875,-0.0234375
1817,0.25390625,-0.984375,-0.0078125
1818,0.2578125,-0.99609375,-0.00390625
1819,0.25,-1.0,-0.00390625
1820,0.25390625,-1.0,0.0
1821,0.2578125,-0.99609375,-0.01953125
1822,0.25,-1.0,0.0
1823,0.2578125,-1.00390625,0.0
1824,0.25,-0.98828125,-0.0078125
1825,0.25,-0.9921875,-0.0078125
1826,0.24609375,-0.9921875,-0.04296875
1827,0.24609375,-0.98046875,-0.04296875
1828,0.234375,-0.9921875,-0.046875
1829,0.234375,-0.984375,-0.0390625
1830,0.22265625,-0.98828125,-0.0390625
1831,0.2265625,-0.98828125,-0.046875
1832,0.23828125,-0.99609375,-0.046875
1833,0.234375,-0.98828125,-0.046875
1834,0.24609375,-0.9921875,-0.03125
1835,0.2421875,-1.0,-0.046875
1836,0.2421875,-0.98828125,-0.0390625
1837,0.23828125,-0.99609375,-0.03515625
1838,0.24609375,-0.9921875,-0.04296875
1839,0.25,-1.00390625,-0.02734375
1840,0.2578125,-1.01953125,0.07421875
1841,0.24609375,-1.0,-0.01953125
1842,0.2421875,-1.0,-0.0078125
1843,0.2421875,-0.99609375,-0.0234375
1844,0.24609375,-1.0078125,-0.015625
1845,0.24609375,-1.0078125,-0.015625
1846,0.234375,-1.0078125,0.0
1847,0.25,-1.01953125,-0.0078125
1848,0.23828125,-1.015625,-0.01953125
1849,0.2421875,-1.01953125,-0.01953125
1850,0.234375,-1.00390625,-0.00390625
1851,0.23828125,-1.01171875,-0.0078125
1852,0.23046875,-1.0,-0.01171875
1853,0.23046875,-1.0078125,-0.09765625
1854,0.23046875,-1.00390625,-0.01171875
1855,0.22265625,-1.00390625,-0.01171875
1856,0.2265625,-1.00390625,-0.03125
1857,0.21484375,-1.0078125,-0.02734375
1858,0.22265625,-1.0,0.0234375
1859,0.21875,-1.0,-0.01953125
1860,0.203125,-1.0078125,-0.00390625
1861,0.2109375,-1.00390625,-0.0234375
1862,0.234375,-1.0234375,-0.01171875
1863,0.1953125,-1.0078125,-0.015625
1864,0.21484375,-1.01953125,-0.00390625
1865,0.21484375,-1.01953125,-0.0078125
1866,0.21875,-1.0078125,-0.015625
1867,0.22265625,-1.01953125,-0.0234375
1868,0.21484375,-1.01171875,-0.01171875
1869,0.22265625,-1.00390625,-0.02734375
1870,0.21875,-0.98828125,-0.03125
1871,0.21484375,-0.99609375,-0.02734375
1872,0.22265625,-1.0,-0.03515625
1873,0.20703125,-0.99609375,-0.04296875
1874,0.21484375,-1.00390625,-0.0390625
1875,0.2109375,-0.99609375,-0.04296875
1876,0.21484375,-0.99609375,-0.03515625
1877,0.2265625,-1.0078125,-0.0390625
1878,0.22265625,-1.00390625,-0.0390625
1879,0.23046875,-1.0,-0.04296875
1880,0.21875,-1.00390625,-0.03515625
1881,0.22265625,-1.00390625,-0.03515625
1882,0.234375,-1.00390625,-0.02734375
1883,0.234375,-1.00390625,-0.0390625
1884,0.21484375,-1.0,-0.03515625
1885,0.21875,-1.0,-0.03515625
1886,0.22265625,-1.0,-0.05078125
1887,0.234375,-1.0,-0.03125
1888,0.234375,-1.0078125,-0.02734375
1889,0.23046875,-1.0,-0.02734375
1890,0.24609375,-1.01171875,-0.01171875
1891,0.23046875,-1.01953125,-0.015625
1892,0.234375,-1.04296875,-0.0078125
1893,0.23828125,-1.04296875,0.01171875
1894,0.234375,-1.0234375,0.0078125
1895,0.24609375,-1.03515625,0.0
1896,0.25,-1.015625,0.00390625
1897,0.25,-1.01171875,-0.00390625
1898,0.2421875,-1.01953125,-0.0078125
1899,0.23828125,-1.015625,-0.0078125
1900,0.23828125,-1.0234375,-0.0234375
1901,0.25390625,-1.00390625,-0.02734375
1902,0.25390625,-1.01953125,-0.02734375
1903,0.23828125,-1.0078125,-0.0390625
1904,0.2421875,-1.02734375,-0.03125
1905,0.24609375,-1.00390625,-0.03515625
1906,0.2421875,-1.00390625,-0.0234375
1907,0.2265625,-1.0,-0.03125
1908,0.24609375,-1.0,-0.0078125
1909,0.24609375,-1.01171875,-0.00390625
1910,0.2421875,-1.01171875,0.0
1911,0.2421875,-1.0,-0.00390625
1912,0.23828125,-1.00390625,0.0
1913,0.23046875,-1.00390625,-0.01171875
1914,0.2265625,-1.01171875,-0.015625
1915,0.28515625,-1.078125,-0.02734375
1916,0.23046875,-1.0078125,-0.01171875
1917,0.23046875,-1.0078125,-0.01171875
1918,0.22265625,-1.01171875,-0.015625
1919,0.21875,-1.01171875,-0.015625
1920,0.234375,-1.00390625,-0.00390625
1921,0.21875,-1.0,-0.02734375
1922,0.21875,-0.99609375,-0.01953125
1923,0.21484375,-0.98828125,-0.0625
1924,0.21484375,-1.0,-0.0390625
1925,0.21875,-0.99609375,-0.01953125
1926,0.2265625,-1.0,-0.02734375
1927,0.23828125,-1.0,-0.0078125
1928,0.234375,-1.00390625,-0.01171875
1929,0.234375,-1.0078125,0.0
1930,0.21484375,-1.0,-0.00390625
1931,0.21875,-0.99609375,0.0
1932,0.23046875,-0.98828125,0.0
1933,0.23828125,-0.98046875,-0.01953125
1934,0.21484375,-0.98828125,-0.00390625
1935,0.21484375,-0.98046875,-0.01171875
1936,0.21875,-0.96875,-0.0390625
1937,0.203125,-0.96484375,-0.02734375
1938,0.21875,-0.97265625,-0.00390625
1939,0.2265625,-0.96484375,-0.015625
1940,0.234375,-0.9765625,-0.0078125
1941,0.2265625,-0.96484375,0.0
1942,0.23046875,-0.984375,-0.00390625
1943,0.21875,-1.0,-0.00390625
1944,0.23046875,-1.00390625,0.00390625
1945,0.21875,-1.00390625,0.01171875
1946,0.2109375,-1.00390625,0.00390625
1947,0.2109375,-1.00390625,0.0
1948,0.2265625,-1.0078125,0.00390625
1949,0.21875,-1.0078125,0.01171875
1950,0.21875,-1.00390625,0.0
1951,0.22265625,-1.0,0.0078125
1952,0.23046875,-1.015625,0.0
1953,0.2421875,-0.99609375,0.0
1954,0.25390625,-1.0,-0.0078125
1955,0.25,-1.0,-0.01171875
1956,0.234375,-0.98828125,0.0078125
1957,0.2421875,-0.984375,-0.0078125
1958,0.23046875,-0.98828125,-0.00390625
1959,0.23828125,-0.9921875,-0.01171875
1960,0.23046875,-0.9765625,-0.01953125
1961,0.23046875,-0.96484375,-0.0078125
1962,0.2421875,-0.953125,-0.0234375
1963,0.21484375,-0.953125,-0.02734375
1964,0.20703125,-0.96484375,-0.01953125
1965,0.20703125,-0.98046875,0.00390625
1966,0.1875,-0.98828125,-0.00390625
1967,0.18359375,-1.0,0.00390625
1968,0.1953125,-1.0078125,0.03125
1969,0.19140625,-1.00390625,0.02734375
1970,0.19921875,-1.0078125,0.03515625
1971,0.1953125,-1.0,0.02734375
1972,0.21484375,-0.9921875,0.02734375
1973,0.2265625,-1.0,0.03125
1974,0.23046875,-0.99609375,0.03515625
1975,0.234375,-1.0078125,0.0390625
1976,0.234375,-1.01171875,0.0390625
1977,0.234375,-1.0,0.04296875
1978,0.23828125,-0.98828125,0.03125
1979,0.2265625,-1.0,0.0546875
1980,0.22265625,-0.99609375,0.03515625
1981,0.21484375,-1.0,0.03125
1982,0.21875,-1.0,0.0234375
1983,0.22265625,-1.0,0.03125
1984,0.2109375,-1.0,0.03515625
1985,0.2109375,-1.01171875,0.015625
1986,0.20703125,-1.0,0.0234375
1987,0.21484375,-1.0,0.0234375
1988,0.22265625,-1.0,0.04296875
1989,0.21484375,-1.0,0.03515625
1990,0.19921875,-0.98828125,0.05078125
1991,0.21875,-1.0,0.03515625
1992,0.21875,-0.9921875,0.03125
1993,0.21875,-0.9921875,0.0390625
1994,0.21484375,-0.99609375,0.05859375
1995,0.22265625,-0.99609375,0.0546875
1996,0.21875,-0.99609375,0.0390625
1997,0.22265625,-0.99609375,0.05078125
1998,0.21484375,-0.98828125,0.04296875
1999,0.21875,-0.9921875,0.0546875
2000,0.21875,-0.99609375,0.0546875
2001,0.2265625,-0.9921875,0.0390625
2002,0.234375,-0.98828125,0.046875
2003,0.21875,-0.99609375,0.04296875
2004,0.2109375,-1.00390625,0.05078125
2005,0.2109375,-0.99609375,0.0625
2006,0.20703125,-0.9921875,0.0546875
2007,0.22265625,-0.99609375,0.0390625
2008,0.2109375,-0.99609375,0.03125
2009,0.21484375,-0.9765625,0.0390625
2010,0.21875,-0.9921875,0.0234375
2011,0.203125,-0.9921875,0.046875
2012,0.2109375,-0.98828125,0.0390625
2013,0.22265625,-1.00390625,0.0390625
2014,0.22265625,-1.0,0.0390625
2015,0.21875,-0.99609375,0.05078125
2016,0.21875,-1.0,0.046875
2017,0.21484375,-1.0078125,0.0390625
2018,0.2265625,-0.99609375,0.05078125
2019,0.2265625,-1.00390625,0.03515625
2020,0.22265625,-1.0,0.046875
2021,0.22265625,-0.99609375,0.04296875
2022,0.21875,-0.98828125,0.03125
2023,0.23046875,-0.98828125,0.03515625
2024,0.21875,-0.98046875,0.03125
2025,0.21875,-0.98828125,0.0390625
2026,0.21484375,-0.98828125,0.03515625
2027,0.21484375,-0.9765625,0.05078125
2028,0.203125,-0.98828125,0.04296875
2029,0.203125,-0.984375,0.03125
2030,0.21875,-0.9921875,0.03515625
2031,0.21484375,-0.9921875,0.015625
2032,0.21484375,-0.9921875,0.0234375
2033,0.22265625,-1.0,0.046875
2034,0.2109375,-1.0,0.0546875
2035,0.21484375,-1.0078125,0.05078125
2036,0.2265625,-1.00390625,0.05859375
2037,0.20703125,-1.0,0.05078125
2038,0.21484375,-1.0,0.05078125
2039,0.21484375,-1.00390625,0.0390625
2040,0.20703125,-0.9921875,0.046875
2041,0.1875,-0.9765625,0.03125
2042,0.19921875,-0.9921875,0.04296875
2043,0.203125,-0.99609375,0.0546875
2044,0.21484375,-0.984375,0.0546875
2045,0.21484375,-0.98828125,0.0390625
2046,0.203125,-0.9921875,0.0625
2047,0.21484375,-0.9921875,0.0625
2048,0.20703125,-1.0,0.046875
2049,0.21484375,-0.99609375,0.0546875
2050,0.20703125,-0.98046875,0.0625
2051,0.203125,-0.984375,0.0625
2052,0.24609375,-0.99609375,0.08984375
2053,0.2109375,-0.984375,0.06640625
2054,0.1953125,-0.99609375,0.0625
2055,0.21875,-0.98828125,0.0703125
2056,0.21875,-1.0,0.06640625
2057,0.203125,-1.0,0.05859375
2058,0.2109375,-1.0,0.0703125
2059,0.20703125,-0.99609375,0.05859375
2060,0.21875,-0.99609375,0.05859375
2061,0.23046875,-1.0,0.05859375
2062,0.20703125,-0.98828125,0.05078125
2063,0.22265625,-0.97265625,0.00390625
2064,0.21484375,-0.9921875,0.078125
2065,0.2109375,-0.99609375,0.0625
2066,0.2265625,-0.9921875,0.0546875
2067,0.21875,-0.984375,0.04296875
2068,0.203125,-0.98046875,0.0546875
2069,0.2265625,-0.98046875,0.05078125
2070,0.2265625,-0.984375,0.0546875
2071,0.21484375,-0.98828125,0.0625
2072,0.22265625,-0.9921875,0.05078125
2073,0.2109375,-0.98046875,0.05859375
2074,0.2109375,-0.9921875,0.0703125
2075,0.2109375,-0.99609375,0.05859375
2076,0.2109375,-0.9921875,0.0625
2077,0.21875,-1.0,0.05859375
2078,0.21875,-0.9921875,0.05859375
2079,0.20703125,-0.99609375,0.0625
2080,0.21484375,-0.9921875,0.0625
2081,0.203125,-0.9921875,0.07421875
2082,0.21875,-0.9921875,0.05078125
2083,0.203125,-0.9921875,0.0546875
2084,0.2109375,-0.99609375,0.06640625
2085,0.21875,-0.9921875,0.05859375
2086,0.2109375,-0.9921875,0.0625
2087,0.21484375,-0.98828125,0.078125
2088,0.21875,-0.984375,0.06640625
2089,0.203125,-0.9921875,0.0703125
2090,0.2109375,-0.984375,0.05859375
2091,0.21875,-0.984375,0.046875
2092,0.22265625,-0.98828125,0.07421875
2093,0.21484375,-0.98828125,0.046875
2094,0.2109375,-0.98046875,0.0625
2095,0.2109375,-0.9921875,0.0546875
2096,0.2109375,-0.98828125,0.1015625
2097,0.21875,-1.0,0.06640625
2098,0.21875,-0.984375,0.0390625
2099,0.22265625,-0.99609375,0.07421875
2100,0.23046875,-0.99609375,0.046875
2101,0.21875,-0.98046875,0.0546875
2102,0.21484375,-0.9921875,0.0625
2103,0.22265625,-0.9921875,0.0703125
2104,0.21875,-0.98828125,0.05859375
2105,0.20703125,-0.9765625,0.0625
2106,0.21484375,-0.984375,0.0625
2107,0.22265625,-0.97265625,0.05078125
2108,0.21875,-0.9765625,0.05078125
2109,0.20703125,-0.98046875,0.0546875
2110,0.203125,-0.98828125,0.06640625
2111,0.19921875,-0.98046875,0.0625
2112,0.2109375,-0.9921875,0.046875
2113,0.20703125,-0.984375,0.04296875
2114,0.21484375,-0.98046875,0.05078125
2115,0.2109375,-0.98046875,0.05078125
2116,0.2109375,-0.98046875,0.0546875
2117,0.21875,-0.99609375,0.05859375
2118,0.21875,-1.0,0.0546875
2119,0.21875,-0.98046875,0.0546875
2120,0.21875,-0.984375,0.05859375
2121,0.22265625,-0.9921875,0.046875
2122,0.21484375,-0.99609375,0.03515625
2123,0.21484375,-0.98046875,0.05078125
2124,0.234375,-0.9921875,0.03515625
2125,0.22265625,-0.9921875,0.05078125
2126,0.21875,-0.98828125,0.05078125
2127,0.21484375,-0.99609375,0.04296875
2128,0.21484375,-0.98828125,0.05859375
2129,0.21484375,-0.98828125,0.0390625
2130,0.21484375,-0.9921875,0.05078125
2131,0.22265625,-0.9921875,0.05859375
2132,0.203125,-0.9921875,0.0625
2133,0.21484375,-0.98046875,0.08203125
2134,0.2109375,-0.98828125,0.09375
2135,0.2265625,-1.0,0.0703125
2136,0.21484375,-1.0,0.06640625
2137,0.2265625,-0.98828125,0.078125
2138,0.22265625,-0.98828125,0.06640625
2139,0.22265625,-0.984375,0.0703125
2140,0.21875,-0.97265625,0.05859375
2141,0.21875,-0.984375,0.046875
2142,0.23828125,-0.9921875,0.046875
2143,0.23046875,-0.9765625,0.05078125
2144,0.23828125,-0.98828125,0.05078125
2145,0.2265625,-0.9921875,0.046875
2146,0.234375,-0.99609375,0.0625
2147,0.23828125,-0.9921875,0.078125
2148,0.24609375,-1.0,0.0703125
2149,0.234375,-1.0078125,0.07421875
2150,0.234375,-1.00390625,0.08203125
2151,0.2265625,-1.0,0.0703125
2152,0.23828125,-0.9921875,0.0703125
2153,0.234375,-0.9921875,0.07421875
2154,0.2265625,-0.9921875,0.05859375
2155,0.21484375,-0.98046875,0.06640625
2156,0.21875,-0.96484375,0.0546875
2157,0.234375,-0.96484375,0.05859375
2158,0.22265625,-0.953125,0.05078125
2159,0.234375,-0.96484375,0.05078125
2160,0.23046875,-0.97265625,0.05078125
2161,0.22265625,-0.96484375,0.0546875
2162,0.23046875,-0.96875,0.05078125
2163,0.234375,-0.984375,0.05078125
2164,0.21875,-0.9765625,0.05859375
2165,0.21875,-0.9921875,0.05859375
2166,0.23046875,-0.99609375,0.0625
2167,0.21484375,-0.99609375,0.0546875
2168,0.21484375,-0.99609375,0.0625
2169,0.2109375,-0.99609375,0.0625
2170,0.20703125,-0.9921875,0.046875
2171,0.2109375,-0.9921875,0.05859375
2172,0.203125,-0.9921875,0.05859375
2173,0.2109375,-0.98828125,0.0625
2174,0.1953125,-0.98046875,0.05078125
2175,0.20703125,-0.984375,0.05078125
2176,0.19921875,-0.99609375,0.08203125
2177,0.19921875,-0.98828125,0.05859375
2178,0.2109375,-0.9921875,0.05859375
2179,0.203125,-0.984375,0.0546875
2180,0.2109375,-0.984375,0.0625
2181,0.20703125,-0.9765625,0.0546875
2182,0.2109375,-0.9765625,0.05859375
2183,0.21484375,-0.9921875,0.0625
2184,0.2109375,-0.9765625,0.04296875
2185,0.20703125,-0.99609375,0.07421875
2186,0.203125,-0.984375,0.0546875
2187,0.19921875,-0.9921875,0.0625
2188,0.203125,-1.0,0.0546875
2189,0.1953125,-0.98828125,0.0703125
2190,0.21484375,-1.0,0.06640625
2191,0.203125,-0.99609375,0.0703125
2192,0.21484375,-1.0,0.0703125
2193,0.21484375,-1.0,0.06640625
2194,0.2265625,-0.9921875,0.06640625
2195,0.2265625,-0.9921875,0.05859375
2196,0.22265625,-0.98828125,0.06640625
2197,0.21875,-0.98046875,0.0625
2198,0.21875,-0.98046875,0.0546875
2199,0.22265625,-0.984375,0.046875
2200,0.22265625,-0.98828125,0.0625
2201,0.21484375,-0.984375,0.06640625
2202,0.20703125,-0.99609375,0.046875
2203,0.2109375,-1.0,0.078125
2204,0.19921875,-0.9921875,0.06640625
2205,0.2109375,-0.99609375,0.0703125
2206,0.20703125,-0.99609375,0.06640625
2207,0.21484375,-1.0,0.0625
2208,0.21484375,-0.9921875,0.07421875
2209,0.22265625,-1.00390625,0.0625
2210,0.22265625,-1.0,0.05859375
2211,0.20703125,-0.98828125,0.0625
2212,0.22265625,-1.0,0.0625
2213,0.2109375,-0.9921875,0.05078125
2214,0.21484375,-0.98046875,0.04296875
2215,0.21875,-0.98828125,0.05078125
2216,0.21875,-0.984375,0.0546875
2217,0.20703125,-0.98828125,0.05859375
2218,0.2109375,-0.984375,0.05859375
2219,0.21484375,-0.98046875,0.046875
2220,0.21875,-0.99609375,0.0390625
2221,0.21484375,-0.98828125,0.0625
2222,0.21484375,-0.9921875,0.05859375
2223,0.2109375,-0.9921875,0.0546875
2224,0.23046875,-0.99609375,0.0546875
2225,0.21484375,-0.98828125,0.05859375
2226,0.2265625,-0.9921875,0.05859375
2227,0.21875,-0.98828125,0.046875
2228,0.22265625,-0.9921875,0.04296875
2229,0.23046875,-0.984375,0.05078125
2230,0.21875,-0.98828125,0.046875
2231,0.21875,-0.98828125,0.0390625
2232,0.2265625,-0.9921875,0.03515625
2233,0.22265625,-0.98046875,0.05859375
2234,0.2265625,-0.98828125,0.05078125
2235,0.2265625,-0.99609375,0.05859375
2236,0.21875,-0.984375,0.05859375
2237,0.23046875,-0.9921875,0.05859375
2238,0.2109375,-0.984375,0.03515625
2239,0.2109375,-0.9921875,0.05859375
2240,0.21875,-0.9921875,0.03515625
2241,0.22265625,-1.0,0.0546875
2242,0.20703125,-0.9921875,0.05078125
2243,0.19140625,-0.98046875,0.0625
2244,0.2109375,-0.99609375,0.0546875
2245,0.20703125,-0.9921875,0.05859375
2246,0.21875,-0.99609375,0.04296875
2247,0.2109375,-0.9921875,0.0546875
2248,0.21875,-0.9921875,0.0546875
2249,0.19921875,-0.9921875,0.06640625
2250,0.21484375,-0.98828125,0.0546875
2251,0.22265625,-0.99609375,0.046875
2252,0.21484375,-0.99609375,0.0546875
2253,0.21484375,-0.9921875,0.046875
2254,0.21484375,-0.984375,0.0625
2255,0.2265625,-0.99609375,0.05078125
2256,0.2109375,-0.98828125,0.06640625
2257,0.23046875,-1.00390625,0.05859375
2258,0.2265625,-1.00390625,0.07421875
2259,0.21875,-1.0078125,0.0625
2260,0.2109375,-0.9921875,0.05078125
2261,0.21875,-1.0,0.0625
2262,0.22265625,-0.98828125,0.04296875
2263,0.22265625,-0.9921875,0.05078125
2264,0.20703125,-0.9765625,0.0625
2265,0.2265625,-0.98046875,0.03515625
2266,0.2109375,-0.98046875,0.0546875
2267,0.20703125,-0.984375,0.0546875
2268,0.2109375,-0.98046875,0.05078125
2269,0.20703125,-0.9921875,0.04296875
2270,0.2109375,-0.99609375,0.046875
2271,0.21875,-0.984375,0.05078125
2272,0.21875,-0.98828125,0.0546875
2273,0.20703125,-0.9921875,0.0390625
2274,0.2109375,-0.98828125,0.06640625
2275,0.203125,-0.9921875,0.03515625
2276,0.2109375,-0.99609375,0.05859375
2277,0.2109375,-0.984375,0.05078125
2278,0.203125,-1.0,0.03515625
2279,0.20703125,-0.9921875,0.05859375
2280,0.21484375,-0.98828125,0.0625
2281,0.21484375,-0.99609375,0.04296875
2282,0.21875,-0.9921875,0.0390625
2283,0.2109375,-0.98046875,0.05078125
2284,0.21875,-0.98828125,0.0546875
2285,0.21484375,-0.99609375,0.05078125
2286,0.22265625,-0.99609375,0.046875
2287,0.2265625,-0.99609375,0.04296875
2288,0.2109375,-1.0,0.04296875
2289,0.20703125,-1.0,0.046875
2290,0.22265625,-0.99609375,0.04296875
2291,0.21484375,-1.00390625,0.046875
2292,0.203125,-0.98828125,0.05078125
2293,0.21484375,-0.99609375,0.0234375
2294,0.21484375,-0.9921875,0.046875
2295,0.20703125,-0.98828125,0.046875
2296,0.20703125,-0.984375,0.03515625
2297,0.21875,-0.99609375,0.05078125
2298,0.20703125,-0.984375,0.046875
2299,0.20703125,-0.9765625,0.046875
2300,0.21484375,-0.98828125,0.0390625
2301,0.20703125,-0.98828125,0.0390625
2302,0.19921875,-0.9921875,0.04296875
2303,0.21484375,-1.0,0.04296875
2304,0.20703125,-0.98828125,0.05078125
2305,0.19921875,-0.9921875,0.06640625
2306,0.21875,-0.99609375,0.0390625
2307,0.21484375,-1.0,0.0625
2308,0.2109375,-1.0,0.0546875
2309,0.2109375,-0.99609375,0.0625
2310,0.21484375,-1.0,0.046875
2311,0.21484375,-0.99609375,0.04296875
2312,0.2109375,-0.9921875,0.03125
2313,0.21484375,-0.99609375,0.0390625
2314,0.234375,-1.0,0.046875
2315,0.22265625,-0.9921875,0.03515625
2316,0.21875,-0.99609375,0.046875
2317,0.2265625,-0.9921875,0.05078125
2318,0.2265625,-0.9921875,0.046875
2319,0.21875,-1.0,0.046875
2320,0.2109375,-0.984375,0.03125
2321,0.2265625,-0.99609375,0.0546875
2322,0.22265625,-1.0,0.0390625
2323,0.21875,-0.98828125,0.04296875
2324,0.21484375,-0.984375,0.05859375
2325,0.21875,-0.9921875,0.0390625
2326,0.21484375,-0.9921875,0.0390625
2327,0.2109375,-1.0,0.046875
2328,0.21484375,-0.99609375,0.0390625
2329,0.22265625,-1.0,0.0546875
2330,0.22265625,-0.99609375,0.0546875
2331,0.2109375,-0.984375,0.05859375
2332,0.20703125,-1.0,0.046875
2333,0.20703125,-0.984375,0.03125
2334,0.20703125,-0.98828125,0.0390625
2335,0.203125,-0.99609375,0.05078125
2336,0.1875,-0.984375,0.046875
2337,0.203125,-0.98046875,0.0546875
2338,0.20703125,-0.98828125,0.03125
2339,0.20703125,-0.98828125,0.0390625
2340,0.203125,-0.984375,0.03125
2341,0.21875,-0.98828125,0.0234375
2342,0.21875,-0.98828125,0.02734375
2343,0.203125,-0.984375,0.01953125
2344,0.21484375,-0.984375,0.03125
2345,0.20703125,-0.984375,0.0390625
2346,0.1953125,-0.9765625,0.02734375
2347,0.21484375,-0.98046875,0.0234375
2348,0.21484375,-0.99609375,0.046875
2349,0.21875,-0.984375,0.04296875
2350,0.22265625,-1.0,0.02734375
2351,0.2265625,-1.0,0.03515625
2352,0.21484375,-1.0,0.046875
2353,0.2109375,-0.99609375,0.0625
2354,0.20703125,-1.0,0.07421875
2355,0.22265625,-1.00390625,0.05859375
2356,0.20703125,-0.99609375,0.046875
2357,0.2578125,-1.0,0.04296875
2358,0.20703125,-1.0,0.05078125
2359,0.20703125,-1.0078125,0.0703125
2360,0.21875,-1.00390625,0.0546875
2361,0.21484375,-1.0,0.05078125
2362,0.21484375,-1.0,0.046875
2363,0.21484375,-0.9921875,0.0546875
2364,0.21484375,-0.98828125,0.0625
2365,0.2109375,-0.98828125,0.07421875
2366,0.22265625,-1.0,0.08203125
2367,0.2265625,-0.984375,0.08984375
2368,0.21484375,-0.9296875,0.02734375
2369,0.23046875,-0.984375,0.078125
2370,0.2109375,-0.984375,0.1015625
2371,0.21875,-0.99609375,0.0859375
2372,0.22265625,-0.98828125,0.08203125
2373,0.23828125,-0.98046875,0.078125
2374,0.23046875,-0.9921875,0.08984375
2375,0.23828125,-0.9921875,0.08203125
2376,0.234375,-1.0,0.07421875
2377,0.2265625,-0.99609375,0.078125
2378,0.2265625,-0.9921875,0.06640625
2379,0.234375,-1.0390625,0.125
2380,0.234375,-0.9921875,0.07421875
2381,0.21484375,-0.98046875,0.0625
2382,0.21484375,-0.984375,0.0703125
2383,0.22265625,-0.97265625,0.06640625
2384,0.2265625,-0.98046875,0.078125
2385,0.23828125,-0.9765625,0.0625
2386,0.2265625,-0.98046875,0.05859375
2387,0.234375,-0.98046875,0.0625
2388,0.20703125,-0.9765625,0.0546875
2389,0.23046875,-0.9921875,0.0625
2390,0.23828125,-0.9609375,0.05078125
2391,0.234375,-0.99609375,0.06640625
2392,0.23828125,-1.0,0.05078125
2393,0.2109375,-0.96875,0.05859375
2394,0.2265625,-0.9921875,0.0625
2395,0.2265625,-0.9921875,0.05078125
2396,0.22265625,-0.98828125,0.0625
2397,0.22265625,-0.99609375,0.07421875
2398,0.23046875,-0.97265625,0.0703125
2399,0.22265625,-0.98828125,0.07421875
