,accelerometerAccelerationX(G),accelerometerAccelerationY(G),accelerometerAccelerationZ(G)
0,0.0859375,-0.9296875,0.23828125
1,0.08984375,-0.92578125,0.24609375
2,0.09375,-0.9296875,0.2421875
3,0.08984375,-0.9296875,0.23828125
4,0.1015625,-0.9375,0.23046875
5,0.0859375,-0.9296875,0.25
6,0.09375,-0.94140625,0.23046875
7,0.1015625,-0.92578125,0.25
8,0.1015625,-0.9453125,0.2421875
9,0.1015625,-0.9453125,0.25
10,0.08984375,-0.9375,0.2421875
11,0.08984375,-0.94140625,0.25
12,0.09375,-0.94921875,0.24609375
13,0.09765625,-0.9296875,0.2421875
14,0.0859375,-0.93359375,0.21875
15,0.09375,-0.94140625,0.23046875
16,0.09765625,-0.9375,0.24609375
17,0.08984375,-0.9375,0.25
18,0.08984375,-0.93359375,0.25
19,0.09375,-0.9296875,0.23046875
20,0.1015625,-0.921875,0.2421875
21,0.09375,-0.93359375,0.25
22,0.078125,-0.9375,0.25
23,0.09375,-0.93359375,0.25
24,0.09765625,-0.9296875,0.25
25,0.0859375,-0.92578125,0.24609375
26,0.0859375,-0.9296875,0.25
27,0.078125,-0.921875,0.24609375
28,0.0859375,-0.9296875,0.25
29,0.09375,-0.9296875,0.26171875
30,0.09375,-0.94921875,0.25
31,0.09375,-0.9296875,0.25
32,0.1015625,-0.9375,0.234375
33,0.09765625,-0.93359375,0.25390625
34,0.0859375,-0.91796875,0.265625
35,0.09375,-0.921875,0.265625
36,0.0859375,-0.92578125,0.25
37,0.08984375,-0.92578125,0.25
38,0.08984375,-0.9296875,0.2578125
39,0.0859375,-0.92578125,0.2734375
40,0.08984375,-0.9296875,0.25390625
41,0.07421875,-0.92578125,0.24609375
42,0.078125,-0.92578125,0.24609375
43,0.09765625,-0.92578125,0.24609375
44,0.1015625,-0.9140625,0.25
45,0.09765625,-0.9375,0.234375
46,0.09375,-0.93359375,0.25
47,0.09765625,-0.94921875,0.2578125
48,0.0859375,-0.9375,0.25390625
49,0.08984375,-0.9375,0.2578125
50,0.0859375,-0.93359375,0.25390625
51,0.09375,-0.9296875,0.25
52,0.09765625,-0.92578125,0.24609375
53,0.08984375,-0.921875,0.24609375
54,0.1015625,-0.921875,0.24609375
55,0.09375,-0.9296875,0.2421875
56,0.0859375,-0.92578125,0.24609375
57,0.0859375,-0.93359375,0.25
58,0.09375,-0.94140625,0.25
59,0.08984375,-0.94140625,0.24609375
60,0.08984375,-0.9375,0.24609375
61,0.09375,-0.9453125,0.25
62,0.08984375,-0.93359375,0.25
63,0.08984375,-0.94140625,0.2578125
64,0.09375,-0.93359375,0.26171875
65,0.08984375,-0.9453125,0.25
66,0.09375,-0.9375,0.25
67,0.08984375,-0.9296875,0.25
68,0.08984375,-0.91796875,0.25390625
69,0.078125,-0.9140625,0.234375
70,0.09765625,-0.9140625,0.2421875
71,0.0859375,-0.91015625,0.2421875
72,0.09765625,-0.91796875,0.2421875
73,0.09375,-0.9140625,0.25390625
74,0.09765625,-0.9296875,0.25
75,0.09375,-0.9296875,0.24609375
76,0.0703125,-0.93359375,0.24609375
77,0.0859375,-0.921875,0.2578125
78,0.08984375,-0.92578125,0.25
79,0.0859375,-0.9296875,0.25
80,0.09765625,-0.921875,0.2578125
81,0.0859375,-0.9296875,0.23828125
82,0.0859375,-0.92578125,0.24609375
83,0.09765625,-0.9296875,0.25
84,0.0859375,-0.94140625,0.25
85,0.08984375,-0.921875,0.24609375
86,0.0859375,-0.9296875,0.2578125
87,0.09375,-0.92578125,0.25390625
88,0.08984375,-0.9296875,0.25
89,0.0859375,-0.93359375,0.25390625
90,0.08203125,-0.9296875,0.25
91,0.08203125,-0.9296875,0.24609375
92,0.0859375,-0.93359375,0.25390625
93,0.08984375,-0.9375,0.2578125
94,0.08203125,-0.9140625,0.24609375
95,0.07421875,-0.92578125,0.25390625
96,0.09375,-0.9296875,0.23828125
97,0.0859375,-0.92578125,0.24609375
98,0.08984375,-0.9296875,0.26171875
99,0.08984375,-0.91796875,0.2578125
100,0.08984375,-0.9140625,0.25
101,0.0859375,-0.921875,0.25390625
102,0.08984375,-0.9296875,0.25390625
103,0.0859375,-0.93359375,0.26171875
104,0.07421875,-0.91796875,0.25390625
105,0.09765625,-0.94140625,0.26171875
106,0.08984375,-0.9296875,0.2578125
107,0.08984375,-0.921875,0.2578125
108,0.0859375,-0.93359375,0.24609375
109,0.09375,-0.92578125,0.25390625
110,0.09765625,-0.953125,0.2578125
111,0.08984375,-0.9375,0.25
112,0.0859375,-0.92578125,0.265625
113,0.09765625,-0.94140625,0.23828125
114,0.08203125,-0.9296875,0.24609375
115,0.0859375,-0.9296875,0.2578125
116,0.0859375,-0.93359375,0.25
117,0.08203125,-0.9296875,0.2578125
118,0.08203125,-0.91796875,0.24609375
119,0.0859375,-0.9296875,0.24609375
120,0.08203125,-0.92578125,0.2578125
121,0.08203125,-0.92578125,0.25390625
122,0.09375,-0.9296875,0.25390625
123,0.0859375,-0.9375,0.26171875
124,0.08203125,-0.91796875,0.26171875
125,0.08984375,-0.92578125,0.2578125
126,0.08203125,-0.92578125,0.25390625
127,0.07421875,-0.921875,0.265625
128,0.0859375,-0.93359375,0.26171875
129,0.078125,-0.9296875,0.25
130,0.08203125,-0.921875,0.25
131,0.0859375,-0.921875,0.2578125
132,0.0859375,-0.92578125,0.26953125
133,0.08203125,-0.91796875,0.2578125
134,0.07421875,-0.91796875,0.265625
135,0.078125,-0.921875,0.26171875
136,0.08984375,-0.921875,0.26171875
137,0.08203125,-0.92578125,0.26171875
138,0.08984375,-0.91796875,0.26953125
139,0.08984375,-0.9296875,0.26171875
140,0.078125,-0.92578125,0.28125
141,0.08984375,-0.91796875,0.2734375
142,0.08203125,-0.921875,0.2578125
143,0.0859375,-0.9140625,0.265625
144,0.08203125,-0.9296875,0.265625
145,0.09375,-0.9140625,0.26171875
146,0.0859375,-0.91015625,0.265625
147,0.08203125,-0.93359375,0.2578125
148,0.09375,-0.93359375,0.25390625
149,0.08984375,-0.91796875,0.25390625
150,0.08203125,-0.921875,0.2734375
151,0.08984375,-0.93359375,0.2578125
152,0.0859375,-0.91796875,0.26171875
153,0.08984375,-0.921875,0.26953125
154,0.06640625,-0.921875,0.2578125
155,0.07421875,-0.91015625,0.265625
156,0.08203125,-0.90625,0.2734375
157,0.08203125,-0.90625,0.27734375
158,0.078125,-0.9140625,0.25390625
159,0.09375,-0.92578125,0.265625
160,0.078125,-0.93359375,0.25390625
161,0.078125,-0.9296875,0.2734375
162,0.08984375,-0.93359375,0.265625
163,0.078125,-0.9140625,0.2578125
164,0.08984375,-0.9140625,0.28125
165,0.09375,-0.9140625,0.26953125
166,0.0859375,-0.9140625,0.265625
167,0.08984375,-0.91015625,0.26953125
168,0.078125,-0.9140625,0.26953125
169,0.08984375,-0.90234375,0.26171875
170,0.07421875,-0.91015625,0.265625
171,0.08203125,-0.91796875,0.28125
172,0.08203125,-0.91796875,0.28125
173,0.07421875,-0.9296875,0.25
174,0.07421875,-0.9375,0.27734375
175,0.08203125,-0.9375,0.28515625
176,0.06640625,-0.9375,0.28125
177,0.08984375,-0.94140625,0.296875
178,0.08203125,-0.9296875,0.2734375
179,0.08984375,-0.92578125,0.2734375
180,0.078125,-0.91015625,0.26953125
181,0.0703125,-0.91015625,0.2578125
182,0.0859375,-0.91015625,0.25
183,0.08984375,-0.91015625,0.24609375
184,0.07421875,-0.91015625,0.2578125
185,0.078125,-0.90234375,0.2734375
186,0.0859375,-0.89453125,0.26171875
187,0.07421875,-0.8984375,0.2734375
188,0.0859375,-0.89453125,0.2734375
189,0.09765625,-0.8984375,0.26953125
190,0.08984375,-0.88671875,0.28515625
191,0.0859375,-0.89453125,0.265625
192,0.07421875,-0.89453125,0.28515625
193,0.08984375,-0.90234375,0.27734375
194,0.1015625,-0.91015625,0.2734375
195,0.0859375,-0.91015625,0.27734375
196,0.0859375,-0.90234375,0.26953125
197,0.08203125,-0.8984375,0.28125
198,0.078125,-0.90625,0.28125
199,0.08984375,-0.91015625,0.28125
200,0.08984375,-0.9140625,0.27734375
201,0.08203125,-0.91796875,0.27734375
202,0.09375,-0.91796875,0.26171875
203,0.06640625,-0.90234375,0.265625
204,0.078125,-0.91015625,0.28125
205,0.08984375,-0.921875,0.2734375
206,0.08203125,-0.91015625,0.28125
207,0.09375,-0.9140625,0.26953125
208,0.09375,-0.921875,0.2578125
209,0.09375,-0.91796875,0.2890625
210,0.08203125,-0.90234375,0.2578125
211,0.08984375,-0.90234375,0.2734375
212,0.08203125,-0.9140625,0.26953125
213,0.0859375,-0.90625,0.2734375
214,0.078125,-0.91015625,0.26953125
215,0.08203125,-0.9140625,0.28125
216,0.08984375,-0.91796875,0.27734375
217,0.078125,-0.9140625,0.28125
218,0.08203125,-0.91015625,0.27734375
219,0.07421875,-0.921875,0.26953125
220,0.08984375,-0.92578125,0.28125
221,0.08203125,-0.91796875,0.2734375
222,0.078125,-0.91796875,0.28515625
223,0.07421875,-0.90625,0.27734375
224,0.07421875,-0.91796875,0.2734375
225,0.0703125,-0.91796875,0.26953125
226,0.08203125,-0.921875,0.26953125
227,0.07421875,-0.92578125,0.265625
228,0.078125,-0.921875,0.28125
229,0.07421875,-0.921875,0.2734375
230,0.0859375,-0.91015625,0.26953125
231,0.0859375,-0.91015625,0.28125
232,0.0859375,-0.92578125,0.265625
233,0.0859375,-0.91015625,0.27734375
234,0.0859375,-0.9140625,0.27734375
235,0.07421875,-0.9140625,0.28515625
236,0.07421875,-0.91796875,0.265625
237,0.078125,-0.921875,0.27734375
238,0.0859375,-0.90625,0.2578125
239,0.08203125,-0.91796875,0.28125
240,0.08203125,-0.91015625,0.28515625
241,0.0859375,-0.921875,0.28125
242,0.0859375,-0.91796875,0.28125
243,0.08984375,-0.92578125,0.2734375
244,0.0859375,-0.921875,0.2734375
245,0.08203125,-0.921875,0.29296875
246,0.0703125,-0.91015625,0.27734375
247,0.08203125,-0.90625,0.29296875
248,0.08203125,-0.9140625,0.27734375
249,0.08984375,-0.91796875,0.28515625
250,0.078125,-0.90625,0.26953125
251,0.08203125,-0.90625,0.265625
252,0.0859375,-0.91796875,0.28125
253,0.0859375,-0.91015625,0.27734375
254,0.078125,-0.9140625,0.27734375
255,0.1015625,-0.9140625,0.26953125
256,0.078125,-0.90625,0.2734375
257,0.07421875,-0.90625,0.28125
258,0.078125,-0.90625,0.2890625
259,0.078125,-0.9140625,0.27734375
260,0.09375,-0.91796875,0.28515625
261,0.08203125,-0.9296875,0.26953125
262,0.078125,-0.91015625,0.27734375
263,0.078125,-0.91015625,0.26953125
264,0.08203125,-0.91015625,0.2734375
265,0.078125,-0.9140625,0.27734375
266,0.09375,-0.9296875,0.2734375
267,0.078125,-0.90625,0.26953125
268,0.08203125,-0.90625,0.27734375
269,0.078125,-0.91796875,0.26171875
270,0.07421875,-0.89453125,0.28125
271,0.07421875,-0.90234375,0.26953125
272,0.09375,-0.8984375,0.28515625
273,0.08984375,-0.9140625,0.28515625
274,0.0859375,-0.92578125,0.28515625
275,0.0859375,-0.921875,0.28125
276,0.08984375,-0.91796875,0.28125
277,0.08203125,-0.90625,0.27734375
278,0.078125,-0.90234375,0.2734375
279,0.08203125,-0.90234375,0.27734375
280,0.08984375,-0.91015625,0.27734375
281,0.0859375,-0.91015625,0.2734375
282,0.078125,-0.8828125,0.2890625
283,0.078125,-0.890625,0.27734375
284,0.09375,-0.9140625,0.28515625
285,0.0859375,-0.921875,0.265625
286,0.08203125,-0.9296875,0.27734375
287,0.08203125,-0.9375,0.30859375
288,0.08203125,-0.94140625,0.30078125
289,0.078125,-0.92578125,0.29296875
290,0.07421875,-0.92578125,0.27734375
291,0.08203125,-0.921875,0.29296875
292,0.0703125,-0.92578125,0.2890625
293,0.0859375,-0.91015625,0.27734375
294,0.08984375,-0.89453125,0.2578125
295,0.0859375,-0.90234375,0.26171875
296,0.08203125,-0.90234375,0.2578125
297,0.0859375,-0.8984375,0.26171875
298,0.08984375,-0.90625,0.2578125
299,0.08203125,-0.8984375,0.2734375
300,0.078125,-0.90234375,0.26953125
301,0.07421875,-0.90234375,0.26953125
302,0.0703125,-0.8984375,0.296875
303,0.08984375,-0.9140625,0.27734375
304,0.0859375,-0.91796875,0.28125
305,0.08203125,-0.91015625,0.2734375
306,0.08203125,-0.89453125,0.2734375
307,0.08984375,-0.91015625,0.28515625
308,0.078125,-0.90625,0.2890625
309,0.08984375,-0.91796875,0.28125
310,0.0859375,-0.91015625,0.2734375
311,0.08984375,-0.921875,0.2734375
312,0.0859375,-0.921875,0.28515625
313,0.07421875,-0.91796875,0.28125
314,0.08203125,-0.92578125,0.28125
315,0.078125,-0.91796875,0.2734375
316,0.0859375,-0.91796875,0.2734375
317,0.078125,-0.9140625,0.30078125
318,0.08203125,-0.91015625,0.2734375
319,0.078125,-0.91796875,0.27734375
320,0.09375,-0.90625,0.26953125
321,0.08203125,-0.9140625,0.2578125
322,0.078125,-0.90625,0.26953125
323,0.09375,-0.91796875,0.2734375
324,0.078125,-0.91796875,0.26171875
325,0.07421875,-0.90234375,0.26953125
326,0.08984375,-0.91796875,0.2734375
327,0.0859375,-0.90625,0.26953125
328,0.09375,-0.91015625,0.2890625
329,0.09375,-0.92578125,0.26953125
330,0.0859375,-0.91796875,0.2734375
331,0.078125,-0.91796875,0.26953125
332,0.08203125,-0.91796875,0.27734375
333,0.078125,-0.9140625,0.26171875
334,0.0859375,-0.92578125,0.2734375
335,0.078125,-0.921875,0.28125
336,0.0859375,-0.92578125,0.27734375
337,0.08203125,-0.91015625,0.26953125
338,0.078125,-0.9140625,0.28125
339,0.078125,-0.9140625,0.2734375
340,0.0859375,-0.91796875,0.27734375
341,0.0859375,-0.921875,0.26171875
342,0.07421875,-0.8984375,0.28125
343,0.08203125,-0.91796875,0.25390625
344,0.078125,-0.91796875,0.265625
345,0.08984375,-0.90625,0.27734375
346,0.08203125,-0.91796875,0.26953125
347,0.07421875,-0.91796875,0.265625
348,0.0859375,-0.91796875,0.26953125
349,0.0703125,-0.90625,0.26953125
350,0.078125,-0.9140625,0.2734375
351,0.0859375,-0.92578125,0.2734375
352,0.08203125,-0.91796875,0.26953125
353,0.08984375,-0.921875,0.26953125
354,0.1015625,-0.921875,0.26953125
355,0.078125,-0.921875,0.2734375
356,0.07421875,-0.921875,0.26953125
357,0.078125,-0.9140625,0.265625
358,0.0859375,-0.91796875,0.265625
359,0.09375,-0.91796875,0.29296875
360,0.0703125,-0.90625,0.2734375
361,0.08203125,-0.9140625,0.25390625
362,0.078125,-0.91015625,0.265625
363,0.0859375,-0.91796875,0.27734375
364,0.08203125,-0.90234375,0.26953125
365,0.0859375,-0.9140625,0.2734375
366,0.08203125,-0.921875,0.265625
367,0.08984375,-0.9296875,0.2734375
368,0.09375,-0.9140625,0.27734375
369,0.08984375,-0.921875,0.26953125
370,0.078125,-0.9140625,0.265625
371,0.0859375,-0.9140625,0.26171875
372,0.078125,-0.91796875,0.2734375
373,0.09765625,-0.92578125,0.265625
374,0.08203125,-0.91796875,0.2734375
375,0.07421875,-0.92578125,0.29296875
376,0.0859375,-0.9296875,0.26953125
377,0.0859375,-0.9140625,0.26953125
378,0.08203125,-0.9140625,0.265625
379,0.0859375,-0.9140625,0.265625
380,0.0859375,-0.91796875,0.26171875
381,0.08203125,-0.921875,0.26171875
382,0.08203125,-0.9140625,0.265625
383,0.07421875,-0.9140625,0.27734375
384,0.08203125,-0.9140625,0.265625
385,0.08203125,-0.90625,0.2734375
386,0.08984375,-0.921875,0.26171875
387,0.08203125,-0.92578125,0.30078125
388,0.078125,-0.9453125,0.25390625
389,0.0859375,-0.9296875,0.26171875
390,0.09375,-0.91796875,0.26171875
391,0.0859375,-0.9296875,0.26953125
392,0.08203125,-0.91796875,0.26953125
393,0.0625,-0.86328125,0.2421875
394,0.06640625,-0.8984375,0.28125
395,0.0859375,-0.90234375,0.26171875
396,0.08203125,-0.9140625,0.2578125
397,0.08203125,-0.91015625,0.26171875
398,0.09375,-0.9140625,0.26171875
399,0.07421875,-0.921875,0.2578125
400,0.1015625,-0.91796875,0.28125
401,0.08203125,-0.9375,0.29296875
402,0.08984375,-0.94140625,0.26953125
403,0.0859375,-0.9453125,0.26171875
404,0.0859375,-0.92578125,0.2890625
405,0.0859375,-0.94140625,0.28515625
406,0.0859375,-0.94140625,0.26953125
407,0.07421875,-0.91796875,0.26953125
408,0.08984375,-0.9296875,0.28515625
409,0.078125,-0.93359375,0.26953125
410,0.08203125,-0.91796875,0.2578125
411,0.0703125,-0.90625,0.2421875
412,0.07421875,-0.91015625,0.25
413,0.0703125,-0.9140625,0.24609375
414,0.07421875,-0.9140625,0.25390625
415,0.08984375,-0.9140625,0.26953125
416,0.08203125,-0.92578125,0.265625
417,0.08203125,-0.9140625,0.26171875
418,0.08203125,-0.91796875,0.265625
419,0.09765625,-0.91796875,0.25
420,0.08203125,-0.91796875,0.26171875
421,0.08984375,-0.92578125,0.26171875
422,0.08984375,-0.921875,0.25390625
423,0.078125,-0.92578125,0.26171875
424,0.0859375,-0.90625,0.26953125
425,0.078125,-0.91015625,0.2578125
426,0.08203125,-0.9140625,0.26171875
427,0.08203125,-0.9140625,0.26953125
428,0.0859375,-0.91796875,0.265625
429,0.07421875,-0.92578125,0.25390625
430,0.078125,-0.9140625,0.26171875
431,0.08203125,-0.9140625,0.2734375
432,0.0859375,-0.94140625,0.26171875
433,0.0859375,-0.921875,0.26953125
434,0.0859375,-0.91796875,0.2578125
435,0.0859375,-0.921875,0.25390625
436,0.08984375,-0.92578125,0.25390625
437,0.0859375,-0.9296875,0.265625
438,0.08984375,-0.93359375,0.26171875
439,0.08203125,-0.92578125,0.26171875
440,0.08203125,-0.921875,0.265625
441,0.08203125,-0.91796875,0.26953125
442,0.08203125,-0.9296875,0.26171875
443,0.0859375,-0.91796875,0.2578125
444,0.08203125,-0.921875,0.2578125
445,0.0859375,-0.9296875,0.26171875
446,0.0859375,-0.9296875,0.265625
447,0.08984375,-0.93359375,0.25
448,0.09375,-0.9375,0.26171875
449,0.09375,-0.9296875,0.26953125
450,0.08203125,-0.9296875,0.26171875
451,0.08984375,-0.93359375,0.265625
452,0.078125,-0.9375,0.26171875
453,0.0859375,-0.921875,0.2734375
454,0.08984375,-0.9296875,0.27734375
455,0.08984375,-0.921875,0.2734375
456,0.07421875,-0.90625,0.265625
457,0.08203125,-0.91796875,0.26171875
458,0.078125,-0.921875,0.26171875
459,0.078125,-0.90234375,0.2734375
460,0.0859375,-0.921875,0.265625
461,0.0859375,-0.91796875,0.265625
462,0.08203125,-0.9296875,0.2578125
463,0.08984375,-0.921875,0.25390625
464,0.08984375,-0.92578125,0.25390625
465,0.08984375,-0.91796875,0.265625
466,0.08203125,-0.921875,0.26171875
467,0.078125,-0.921875,0.265625
468,0.08203125,-0.91796875,0.2578125
469,0.08203125,-0.91796875,0.265625
470,0.0859375,-0.921875,0.2578125
471,0.08203125,-0.92578125,0.26953125
472,0.08984375,-0.91796875,0.26171875
473,0.08203125,-0.921875,0.265625
474,0.0859375,-0.92578125,0.2578125
475,0.078125,-0.91796875,0.2734375
476,0.0859375,-0.91796875,0.265625
477,0.08203125,-0.92578125,0.25390625
478,0.078125,-0.91796875,0.26171875
479,0.08984375,-0.921875,0.27734375
480,0.0859375,-0.91796875,0.2734375
481,0.08984375,-0.921875,0.26171875
482,0.08203125,-0.92578125,0.2578125
483,0.08984375,-0.91796875,0.31640625
484,0.078125,-0.9140625,0.26953125
485,0.08203125,-0.91796875,0.26953125
486,0.09375,-0.921875,0.265625
487,0.078125,-0.921875,0.2734375
488,0.08984375,-0.91796875,0.26953125
489,0.08984375,-0.9140625,0.265625
490,0.08203125,-0.91796875,0.2734375
491,0.0859375,-0.92578125,0.26171875
492,0.09375,-0.91796875,0.26171875
493,0.08984375,-0.9140625,0.25390625
494,0.0859375,-0.92578125,0.27734375
495,0.078125,-0.92578125,0.2578125
496,0.07421875,-0.91015625,0.2734375
497,0.08984375,-0.91015625,0.25390625
498,0.0859375,-0.91796875,0.265625
499,0.09375,-0.91796875,0.265625
500,0.08984375,-0.92578125,0.265625
501,0.0859375,-0.91796875,0.265625
502,0.09765625,-0.93359375,0.26953125
503,0.0859375,-0.9296875,0.265625
504,0.1015625,-0.9375,0.265625
505,0.05859375,-0.91015625,0.265625
506,0.08203125,-0.91796875,0.26953125
507,0.08203125,-0.92578125,0.2734375
508,0.08203125,-0.90234375,0.2578125
509,0.0859375,-0.90625,0.26953125
510,0.09375,-0.90234375,0.2734375
511,0.09375,-0.91796875,0.2734375
512,0.0859375,-0.90625,0.27734375
513,0.0859375,-0.92578125,0.2734375
514,0.09375,-0.9296875,0.27734375
515,0.0859375,-0.9453125,0.265625
516,0.05859375,-0.90234375,0.2421875
517,0.08203125,-0.94140625,0.27734375
518,0.08203125,-0.94921875,0.26171875
519,0.08984375,-0.92578125,0.26953125
520,0.0859375,-0.93359375,0.28125
521,0.0859375,-0.92578125,0.265625
522,0.09375,-0.93359375,0.28125
523,0.07421875,-0.9140625,0.2734375
524,0.078125,-0.91015625,0.25390625
525,0.0859375,-0.91015625,0.265625
526,0.06640625,-0.921875,0.30859375
527,0.078125,-0.90625,0.26171875
528,0.08203125,-0.9140625,0.25
529,0.0859375,-0.91796875,0.25390625
530,0.07421875,-0.9140625,0.26953125
531,0.0859375,-0.9296875,0.26953125
532,0.0859375,-0.91015625,0.2734375
533,0.0859375,-0.91796875,0.28125
534,0.08984375,-0.91796875,0.28125
535,0.08203125,-0.9140625,0.26953125
536,0.08203125,-0.91015625,0.26953125
537,0.05859375,-0.8984375,0.296875
538,0.09375,-0.91015625,0.265625
539,0.0859375,-0.9140625,0.265625
540,0.078125,-0.9140625,0.26953125
541,0.08203125,-0.91796875,0.265625
542,0.0859375,-0.921875,0.27734375
543,0.0859375,-0.9140625,0.26953125
544,0.0703125,-0.91015625,0.265625
545,0.0859375,-0.9296875,0.26953125
546,0.08984375,-0.9140625,0.265625
547,0.0859375,-0.921875,0.27734375
548,0.08203125,-0.9453125,0.3125
549,0.08984375,-0.91015625,0.265625
550,0.0859375,-0.91796875,0.2578125
551,0.08203125,-0.91796875,0.26953125
552,0.0703125,-0.90625,0.265625
553,0.078125,-0.91796875,0.26953125
554,0.07421875,-0.921875,0.26953125
555,0.0703125,-0.8984375,0.27734375
556,0.08984375,-0.91796875,0.26953125
557,0.08203125,-0.91796875,0.26953125
558,0.0859375,-0.92578125,0.28125
559,0.0703125,-0.91015625,0.30859375
560,0.0703125,-0.91796875,0.2734375
561,0.0703125,-0.921875,0.2890625
562,0.078125,-0.92578125,0.296875
563,0.078125,-0.92578125,0.26953125
564,0.078125,-0.921875,0.2734375
565,0.07421875,-0.9140625,0.28125
566,0.078125,-0.92578125,0.28515625
567,0.08203125,-0.9296875,0.2734375
568,0.078125,-0.92578125,0.26953125
569,0.0859375,-0.94140625,0.28515625
570,0.125,-0.875,0.234375
571,0.078125,-0.921875,0.26171875
572,0.08203125,-0.92578125,0.26171875
573,0.078125,-0.91796875,0.25390625
574,0.08203125,-0.91796875,0.2734375
575,0.078125,-0.9140625,0.265625
576,0.0859375,-0.9140625,0.265625
577,0.08203125,-0.90625,0.2734375
578,0.0859375,-0.8984375,0.26171875
579,0.09375,-0.9140625,0.28125
580,0.09765625,-0.90625,0.26171875
581,0.10546875,-0.91796875,0.27734375
582,0.09765625,-0.8984375,0.28515625
583,0.10546875,-0.9140625,0.2734375
584,0.09375,-0.90625,0.265625
585,0.09765625,-0.90234375,0.28125
586,0.0859375,-0.90625,0.2890625
587,0.09375,-0.91796875,0.2890625
588,0.08984375,-0.8984375,0.28515625
589,0.10546875,-0.90234375,0.26171875
590,0.0859375,-0.90234375,0.2890625
591,0.08984375,-0.89453125,0.27734375
592,0.046875,-0.90625,0.28125
593,0.09375,-0.8984375,0.26953125
594,0.0859375,-0.90234375,0.2734375
595,0.09375,-0.91015625,0.26953125
596,0.09375,-0.9140625,0.2734375
597,0.08984375,-0.921875,0.27734375
598,0.08984375,-0.90234375,0.30078125
599,0.08984375,-0.91796875,0.28125
600,0.08203125,-0.9140625,0.28125
601,0.10546875,-0.91796875,0.2890625
602,0.08203125,-0.8984375,0.29296875
603,0.08203125,-0.91015625,0.28125
604,0.1015625,-0.92578125,0.27734375
605,0.09375,-0.91015625,0.28515625
606,0.08203125,-0.91796875,0.27734375
607,0.06640625,-0.90234375,0.27734375
608,0.07421875,-0.9140625,0.27734375
609,0.078125,-0.91796875,0.30078125
610,0.07421875,-0.9296875,0.26953125
611,0.0703125,-0.9140625,0.28515625
612,0.0703125,-0.91015625,0.29296875
613,0.05859375,-0.8984375,0.29296875
614,0.07421875,-0.90234375,0.26953125
615,0.06640625,-0.890625,0.28515625
616,0.06640625,-0.91015625,0.265625
617,0.078125,-0.92578125,0.29296875
618,0.06640625,-0.9296875,0.2734375
619,0.0625,-0.93359375,0.28515625
620,0.05859375,-0.921875,0.28515625
621,0.0625,-0.91796875,0.26953125
622,0.07421875,-0.921875,0.28125
623,0.0625,-0.9140625,0.28515625
624,0.0625,-0.90625,0.28125
625,0.0625,-0.89453125,0.28125
626,0.06640625,-0.890625,0.28515625
627,0.0546875,-0.8828125,0.27734375
628,0.05859375,-0.90625,0.26171875
629,0.05859375,-0.90234375,0.27734375
630,0.05859375,-0.921875,0.27734375
631,0.06640625,-0.921875,0.2890625
632,0.05859375,-0.9296875,0.296875
633,0.046875,-0.91796875,0.2890625
634,0.07421875,-0.93359375,0.28125
635,0.06640625,-0.9375,0.296875
636,0.05859375,-0.93359375,0.29296875
637,0.05859375,-0.92578125,0.28515625
638,0.0625,-0.92578125,0.2734375
639,0.06640625,-0.921875,0.28515625
640,0.06640625,-0.9140625,0.28515625
641,0.046875,-0.91015625,0.28515625
642,0.046875,-0.890625,0.28125
643,0.046875,-0.8828125,0.29296875
644,0.0390625,-0.88671875,0.27734375
645,0.05078125,-0.8984375,0.28125
646,0.0390625,-0.89453125,0.29296875
647,0.05859375,-0.88671875,0.26953125
648,0.0390625,-0.87890625,0.29296875
649,0.0390625,-0.88671875,0.26953125
650,0.0390625,-0.88671875,0.2890625
651,0.0390625,-0.89453125,0.28125
652,0.05859375,-0.90234375,0.2734375
653,0.0625,-0.8984375,0.26953125
654,0.0625,-0.90625,0.27734375
655,0.0703125,-0.91015625,0.29296875
656,0.06640625,-0.91796875,0.2890625
657,0.07421875,-0.92578125,0.26953125
658,0.0625,-0.91015625,0.265625
659,0.07421875,-0.921875,0.26953125
660,0.078125,-0.9140625,0.26953125
661,0.0703125,-0.9140625,0.2578125
662,0.0625,-0.91015625,0.265625
663,0.0703125,-0.91015625,0.2578125
664,0.06640625,-0.91796875,0.25390625
665,0.06640625,-0.91015625,0.26953125
666,0.0625,-0.91015625,0.26171875
667,0.0625,-0.90625,0.265625
668,0.0625,-0.921875,0.26171875
669,0.0546875,-0.8984375,0.2578125
670,0.0625,-0.90625,0.25
671,0.0625,-0.90234375,0.265625
672,0.0703125,-0.9140625,0.25390625
673,0.0625,-0.9140625,0.265625
674,0.06640625,-0.93359375,0.25390625
675,0.046875,-0.921875,0.26171875
676,0.046875,-0.9296875,0.25
677,0.04296875,-0.9140625,0.265625
678,0.05078125,-0.91796875,0.26171875
679,0.05859375,-0.92578125,0.26171875
680,0.046875,-0.92578125,0.25
681,0.03515625,-0.9140625,0.265625
682,0.04296875,-0.92578125,0.2578125
683,0.02734375,-0.9140625,0.265625
684,0.05078125,-0.9140625,0.28515625
685,0.0546875,-0.9140625,0.265625
686,0.05859375,-0.92578125,0.26953125
687,0.046875,-0.91015625,0.27734375
688,0.03515625,-0.91796875,0.26953125
689,0.04296875,-0.91796875,0.2734375
690,0.03515625,-0.921875,0.265625
691,0.03125,-0.9140625,0.28515625
692,0.02734375,-0.921875,0.25390625
693,0.01953125,-0.90625,0.26171875
694,0.01953125,-0.9140625,0.24609375
695,0.015625,-0.9140625,0.26171875
696,0.00390625,-0.91015625,0.2734375
697,0.0078125,-0.90625,0.26171875
698,0.0078125,-0.9140625,0.2578125
699,0.00390625,-0.91015625,0.2578125
700,0.0,-0.8984375,0.26953125
701,0.0,-0.8984375,0.25
702,0.0,-0.90234375,0.26171875
703,0.0,-0.90234375,0.265625
704,0.0,-0.88671875,0.27734375
705,-0.00390625,-0.89453125,0.265625
706,0.0,-0.8984375,0.25390625
707,0.0,-0.890625,0.2734375
708,0.0,-0.8984375,0.28125
709,0.00390625,-0.90234375,0.26953125
710,0.0,-0.89453125,0.26953125
711,0.01171875,-0.90625,0.2734375
712,0.00390625,-0.90234375,0.265625
713,0.0078125,-0.91015625,0.25
714,0.01953125,-0.88671875,0.25
715,0.0078125,-0.8984375,0.25390625
716,0.0078125,-0.87890625,0.2578125
717,0.0078125,-0.88671875,0.23828125
718,0.00390625,-0.87890625,0.234375
719,0.0,-0.8828125,0.2578125
720,0.00390625,-0.8984375,0.25
721,0.0,-0.8828125,0.2421875
722,0.0,-0.90625,0.26171875
723,-0.0078125,-0.90625,0.25
724,-0.02734375,-0.9140625,0.24609375
725,-0.03125,-0.92578125,0.26171875
726,-0.01953125,-0.91796875,0.23046875
727,-0.04296875,-0.92578125,0.2421875
728,-0.02734375,-0.92578125,0.234375
729,-0.0390625,-0.9375,0.23828125
730,-0.0390625,-0.9296875,0.234375
731,-0.04296875,-0.9453125,0.2265625
732,-0.0390625,-0.9296875,0.22265625
733,-0.02734375,-0.921875,0.21875
734,-0.0390625,-0.921875,0.19921875
735,-0.03515625,-0.9296875,0.20703125
736,-0.0390625,-0.9375,0.22265625
737,-0.02734375,-0.94921875,0.2109375
738,-0.04296875,-0.9375,0.2109375
739,-0.0546875,-0.9375,0.203125
740,-0.0546875,-0.93359375,0.22265625
741,-0.05859375,-0.93359375,0.21484375
742,-0.046875,-0.9375,0.21875
743,-0.06640625,-0.921875,0.20703125
744,-0.06640625,-0.91796875,0.2109375
745,-0.0625,-0.9296875,0.19921875
746,-0.078125,-0.9375,0.1875
747,-0.08203125,-0.93359375,0.203125
748,-0.09765625,-0.95703125,0.18359375
749,-0.09765625,-0.9453125,0.1796875
750,-0.11328125,-0.94921875,0.19921875
751,-0.1171875,-0.95703125,0.1953125
752,-0.1171875,-0.96484375,0.19140625
753,-0.1328125,-0.97265625,0.19140625
754,-0.14453125,-0.96484375,0.1875
755,-0.14453125,-0.96484375,0.18359375
756,-0.1484375,-0.96484375,0.1640625
757,-0.1484375,-0.93359375,0.16796875
758,-0.15234375,-0.9375,0.15234375
759,-0.1640625,-0.91796875,0.15234375
760,-0.16015625,-0.92578125,0.15234375
761,-0.1640625,-0.9140625,0.15234375
762,-0.16015625,-0.90625,0.140625
763,-0.16015625,-0.8984375,0.14453125
764,-0.15625,-0.90625,0.15625
765,-0.1640625,-0.90625,0.14453125
766,-0.16796875,-0.91796875,0.14453125
767,-0.17578125,-0.91015625,0.16015625
768,-0.15625,-0.91796875,0.140625
769,-0.1796875,-0.9296875,0.1328125
770,-0.17578125,-0.9375,0.140625
771,-0.1875,-0.92578125,0.1484375
772,-0.18359375,-0.94140625,0.125
773,-0.1953125,-0.93359375,0.1328125
774,-0.1875,-0.93359375,0.12109375
775,-0.19921875,-0.9453125,0.125
776,-0.1796875,-0.94921875,0.1015625
777,-0.1953125,-0.9375,0.11328125
778,-0.19140625,-0.9453125,0.10546875
779,-0.19140625,-0.9453125,0.10546875
780,-0.1875,-0.953125,0.08984375
781,-0.1875,-0.9453125,0.0859375
782,-0.203125,-0.9296875,0.07421875
783,-0.2109375,-0.92578125,0.0625
784,-0.1953125,-0.9296875,0.05859375
785,-0.19140625,-0.9296875,0.0625
786,-0.203125,-0.91796875,0.04296875
787,-0.1953125,-0.90625,0.05078125
788,-0.19140625,-0.90234375,0.05078125
789,-0.21484375,-0.8984375,0.05859375
790,-0.19921875,-0.91015625,0.0546875
791,-0.20703125,-0.91015625,0.05859375
792,-0.203125,-0.90234375,0.0546875
793,-0.22265625,-0.91015625,0.05859375
794,-0.22265625,-0.91796875,0.078125
795,-0.23046875,-0.91015625,0.06640625
796,-0.2578125,-0.91015625,0.0546875
797,-0.2578125,-0.90625,0.05859375
798,-0.26953125,-0.9140625,0.05078125
799,-0.28515625,-0.90625,0.05078125
800,-0.3046875,-0.91015625,0.0625
801,-0.3125,-0.8984375,0.03515625
802,-0.3203125,-0.890625,0.03515625
803,-0.32421875,-0.88671875,0.03515625
804,-0.35546875,-0.91796875,0.02734375
805,-0.3125,-0.89453125,0.02734375
806,-0.31640625,-0.89453125,0.015625
807,-0.33203125,-0.90234375,0.0078125
808,-0.3203125,-0.921875,0.0
809,-0.328125,-0.9140625,0.0
810,-0.33203125,-0.9296875,-0.00390625
811,-0.33984375,-0.93359375,-0.0078125
812,-0.375,-0.9296875,-0.01953125
813,-0.3203125,-0.90234375,-0.01953125
814,-0.33984375,-0.91796875,-0.0078125
815,-0.328125,-0.9296875,-0.0546875
816,-0.32421875,-0.9296875,-0.0546875
817,-0.31640625,-0.91796875,-0.07421875
818,-0.328125,-0.9453125,-0.08203125
819,-0.28125,-0.921875,-0.1015625
820,-0.24609375,-0.91796875,-0.09765625
821,-0.23828125,-0.92578125,-0.1015625
822,-0.203125,-0.91015625,-0.109375
823,-0.1953125,-0.9140625,-0.125
824,-0.171875,-0.91015625,-0.1015625
825,-0.1796875,-0.90234375,-0.1328125
826,-0.16796875,-0.90625,-0.11328125
827,-0.22265625,-0.9140625,-0.12109375
828,-0.2109375,-0.8671875,-0.11328125
829,-0.234375,-0.87109375,-0.1171875
830,-0.27734375,-0.8671875,-0.12109375
831,-0.3125,-0.83984375,-0.14453125
832,-0.37109375,-0.8203125,-0.15625
833,-0.3984375,-0.8125,-0.18359375
834,-0.4375,-0.78515625,-0.1953125
835,-0.45703125,-0.7890625,-0.19921875
836,-0.4921875,-0.7890625,-0.203125
837,-0.44140625,-0.75,-0.203125
838,-0.44921875,-0.75390625,-0.19921875
839,-0.4375,-0.75,-0.19921875
840,-0.44140625,-0.7421875,-0.203125
841,-0.41015625,-0.73828125,-0.20703125
842,-0.37109375,-0.72265625,-0.21875
843,-0.35546875,-0.7109375,-0.21484375
844,-0.34375,-0.69921875,-0.2265625
845,-0.33984375,-0.6875,-0.21484375
846,-0.30859375,-0.68359375,-0.23046875
847,-0.296875,-0.62109375,-0.24609375
848,-0.3203125,-0.58984375,-0.25390625
849,-0.30859375,-0.57421875,-0.296875
850,-0.34375,-0.55078125,-0.31640625
851,-0.3203125,-0.54296875,-0.3359375
852,-0.34765625,-0.515625,-0.3671875
853,-0.35546875,-0.5,-0.37890625
854,-0.3828125,-0.48828125,-0.3828125
855,-0.3671875,-0.44140625,-0.38671875
856,-0.37890625,-0.4375,-0.3984375
857,-0.390625,-0.390625,-0.41015625
858,-0.43359375,-0.32421875,-0.40625
859,-0.4765625,-0.296875,-0.38671875
860,-0.51953125,-0.33203125,-0.38671875
861,-0.48046875,-0.40234375,-0.3828125
862,-0.49609375,-0.453125,-0.32421875
863,-0.52734375,-0.46484375,-0.27734375
864,-0.47265625,-0.484375,-0.31640625
865,-0.40625,-0.50390625,-0.29296875
866,-0.36328125,-0.50390625,-0.2890625
867,-0.33203125,-0.5078125,-0.3046875
868,-0.30859375,-0.484375,-0.30078125
869,-0.31640625,-0.44921875,-0.3046875
870,-0.31640625,-0.43359375,-0.2890625
871,-0.30078125,-0.45703125,-0.30859375
872,-0.29296875,-0.5,-0.28125
873,-0.3046875,-0.54296875,-0.2890625
874,-0.328125,-0.5390625,-0.30859375
875,-0.3359375,-0.515625,-0.3203125
876,-0.328125,-0.5,-0.31640625
877,-0.31640625,-0.49609375,-0.34375
878,-0.296875,-0.48046875,-0.37890625
879,-0.26171875,-0.48046875,-0.3984375
880,-0.2421875,-0.4921875,-0.4375
881,-0.23828125,-0.51953125,-0.4765625
882,-0.24609375,-0.53515625,-0.52734375
883,-0.23046875,-0.546875,-0.58203125
884,-0.1796875,-0.58984375,-0.61328125
885,-0.1171875,-0.62890625,-0.6328125
886,-0.0703125,-0.64453125,-0.6640625
887,0.02734375,-0.68359375,-0.6875
888,0.0546875,-0.66015625,-0.71484375
889,0.078125,-0.6875,-0.70703125
890,0.08984375,-0.67578125,-0.72265625
891,0.0546875,-0.578125,-0.71484375
892,-0.01953125,-0.484375,-0.69140625
893,-0.09765625,-0.40234375,-0.6875
894,-0.1640625,-0.3359375,-0.6640625
895,-0.25,-0.28125,-0.62109375
896,-0.4375,-0.2421875,-0.53515625
897,-0.5390625,-0.20703125,-0.56640625
898,-0.6015625,-0.21484375,-0.69921875
899,-0.6796875,-0.203125,-0.80859375
900,-0.71484375,-0.19921875,-0.91796875
901,-0.7421875,-0.23828125,-0.9921875
902,-0.81640625,-0.2421875,-1.01171875
903,-0.9296875,-0.234375,-0.98828125
904,-1.05078125,-0.25390625,-0.9921875
905,-1.17578125,-0.2734375,-0.99609375
906,-1.265625,-0.26953125,-0.984375
907,-1.33203125,-0.23828125,-0.95703125
908,-1.36328125,-0.2109375,-0.91796875
909,-1.41796875,-0.140625,-0.8359375
910,-1.359375,-0.125,-0.78515625
911,-1.28125,0.0234375,-0.72265625
912,-1.28125,0.10546875,-0.60546875
913,-1.36328125,0.16796875,-0.6953125
914,-1.64453125,0.3046875,-0.7578125
915,-1.921875,0.4140625,-0.71484375
916,-2.06640625,0.39453125,-0.50390625
917,-2.37890625,0.50390625,-0.33203125
918,-2.67578125,0.64453125,-0.26953125
919,-3.03125,0.5625,-0.3046875
920,-3.46875,0.296875,-0.453125
921,-3.71484375,0.07421875,-0.56640625
922,-3.80078125,0.01171875,-0.5703125
923,-3.72265625,0.078125,-0.42578125
924,-3.56640625,0.23828125,-0.3671875
925,-3.4453125,0.33984375,-0.2578125
926,-3.1015625,0.36328125,-0.20703125
927,-2.73828125,0.37109375,-0.08984375
928,-2.39453125,0.390625,0.07421875
929,-2.140625,0.3984375,0.1953125
930,-1.85546875,0.421875,0.2421875
931,-1.65234375,0.484375,0.2890625
932,-1.37109375,0.45703125,0.27734375
933,-1.26171875,0.58984375,0.36328125
934,-1.22265625,0.609375,0.44921875
935,-1.08203125,0.625,0.40625
936,-0.8671875,0.58203125,0.37109375
937,-0.91796875,0.578125,0.328125
938,-0.890625,0.53125,0.33203125
939,-0.53515625,0.49609375,0.3359375
940,-0.171875,0.49609375,0.2890625
941,-0.0625,0.5078125,0.34375
942,0.0,0.43359375,0.3515625
943,-0.04296875,0.27734375,0.3984375
944,-0.13671875,0.2578125,0.4921875
945,-0.1953125,0.21875,0.5078125
946,-0.1875,0.2421875,0.48046875
947,-0.25390625,0.19921875,0.390625
948,-0.26171875,0.2265625,0.32421875
949,-0.30078125,0.2734375,0.26171875
950,-0.34375,0.29296875,0.25390625
951,-0.34375,0.3359375,0.23046875
952,-0.34375,0.359375,0.2421875
953,-0.3515625,0.375,0.25
954,-0.3046875,0.38671875,0.2421875
955,-0.19140625,0.37890625,0.23046875
956,-0.125,0.36328125,0.2265625
957,-0.0703125,0.28515625,0.23046875
958,-0.0390625,0.24609375,0.23046875
959,-0.03515625,0.19140625,0.24609375
960,-0.109375,0.19921875,0.2578125
961,-0.1796875,0.1953125,0.2578125
962,-0.2421875,0.203125,0.26171875
963,-0.3515625,0.2265625,0.25
964,-0.4453125,0.2578125,0.26171875
965,-0.52734375,0.296875,0.265625
966,-0.60546875,0.32421875,0.265625
967,-0.67578125,0.3671875,0.27734375
968,-0.75,0.41015625,0.28125
969,-0.81640625,0.44140625,0.2890625
970,-0.88671875,0.47265625,0.28515625
971,-1.0234375,0.52734375,0.3046875
972,-1.01171875,0.5625,0.2734375
973,-0.984375,0.54296875,0.24609375
974,-1.03125,0.53125,0.22265625
975,-1.046875,0.48828125,0.22265625
976,-1.0859375,0.48046875,0.19921875
977,-1.1015625,0.48828125,0.203125
978,-1.12109375,0.46875,0.19921875
979,-1.11328125,0.47265625,0.17578125
980,-1.13671875,0.47265625,0.1796875
981,-1.1171875,0.44921875,0.171875
982,-1.109375,0.421875,0.16015625
983,-1.1015625,0.37890625,0.15625
984,-1.10546875,0.36328125,0.16796875
985,-1.0859375,0.33984375,0.1640625
986,-1.08203125,0.35546875,0.15625
987,-1.0546875,0.3515625,0.171875
988,-1.0390625,0.35546875,0.17578125
989,-1.03515625,0.35546875,0.16015625
990,-1.0234375,0.3671875,0.1796875
991,-1.0,0.34765625,0.16796875
992,-0.98828125,0.33984375,0.1875
993,-0.9609375,0.3359375,0.19140625
994,-0.92578125,0.3125,0.16015625
995,-0.89453125,0.296875,0.18359375
996,-0.87890625,0.29296875,0.1796875
997,-0.83984375,0.28515625,0.1875
998,-0.81640625,0.2890625,0.171875
999,-0.796875,0.26953125,0.16796875
1000,-0.75,0.265625,0.17578125
1001,-0.75390625,0.26171875,0.171875
1002,-0.75,0.24609375,0.18359375
1003,-0.75390625,0.234375,0.1640625
1004,-0.7578125,0.2421875,0.171875
1005,-0.7421875,0.22265625,0.15234375
1006,-0.75,0.2109375,0.140625
1007,-0.7421875,0.19140625,0.1484375
1008,-0.74609375,0.1875,0.140625
1009,-0.73828125,0.171875,0.125
1010,-0.74609375,0.17578125,0.1171875
1011,-0.74609375,0.18359375,0.08203125
1012,-0.74609375,0.1875,0.05078125
1013,-0.75,0.1953125,0.05078125
1014,-0.765625,0.2109375,0.04296875
1015,-0.7890625,0.2265625,0.0234375
1016,-0.8046875,0.21484375,0.0234375
1017,-0.8359375,0.20703125,0.0390625
1018,-0.875,0.203125,0.07421875
1019,-0.890625,0.21875,0.0859375
1020,-0.921875,0.1953125,0.109375
1021,-0.95703125,0.20703125,0.078125
1022,-0.99609375,0.22265625,0.0859375
1023,-0.9921875,0.1953125,0.10546875
1024,-1.0,0.19921875,0.12890625
1025,-0.98828125,0.15234375,0.171875
1026,-0.953125,0.140625,0.1640625
1027,-0.921875,0.125,0.1796875
1028,-0.90234375,0.125,0.19921875
1029,-0.82421875,0.1328125,0.23046875
1030,-0.75390625,0.16015625,0.25
1031,-0.69140625,0.15625,0.2578125
1032,-0.6484375,0.1640625,0.28515625
1033,-0.5859375,0.1796875,0.29296875
1034,-0.54296875,0.18359375,0.3046875
1035,-0.55078125,0.1796875,0.28515625
1036,-0.55078125,0.171875,0.26953125
1037,-0.58984375,0.16796875,0.23828125
1038,-0.640625,0.16796875,0.17578125
1039,-0.6796875,0.13671875,0.15234375
1040,-0.77734375,0.1484375,0.1484375
1041,-0.859375,0.140625,0.1328125
1042,-0.90625,0.125,0.10546875
1043,-0.98046875,0.10546875,0.07421875
1044,-1.0,0.09375,0.02734375
1045,-1.03515625,0.08203125,0.0078125
1046,-1.0625,0.08984375,-0.01953125
1047,-1.078125,0.09765625,-0.02734375
1048,-1.10546875,0.078125,-0.04296875
1049,-1.08984375,0.06640625,-0.0859375
1050,-1.078125,0.046875,-0.0703125
1051,-1.0859375,0.05078125,-0.09765625
1052,-1.09375,0.046875,-0.1171875
1053,-1.0859375,0.0390625,-0.12890625
1054,-1.05078125,0.01171875,-0.18359375
1055,-1.03515625,0.0,-0.1875
1056,-1.03125,-0.00390625,-0.16796875
1057,-1.015625,0.00390625,-0.22265625
1058,-0.95703125,-0.03515625,-0.22265625
1059,-0.953125,-0.05859375,-0.20703125
1060,-0.97265625,-0.02734375,-0.171875
1061,-0.97265625,-0.00390625,-0.2109375
1062,-0.92578125,-0.01953125,-0.23828125
1063,-0.93359375,-0.01171875,-0.2265625
1064,-0.94921875,-0.01953125,-0.21875
1065,-0.9609375,0.00390625,-0.234375
1066,-0.98828125,0.01953125,-0.2265625
1067,-0.9765625,0.01953125,-0.26171875
1068,-1.0,0.04296875,-0.24609375
1069,-1.015625,0.05078125,-0.25390625
1070,-1.00390625,0.046875,-0.28125
1071,-1.01171875,0.046875,-0.3125
1072,-1.0390625,0.05859375,-0.3125
1073,-1.0390625,0.0546875,-0.32421875
1074,-1.05078125,0.05078125,-0.32421875
1075,-1.05859375,0.04296875,-0.3203125
1076,-1.046875,0.05078125,-0.3203125
1077,-1.0546875,0.03125,-0.33203125
1078,-1.0625,0.03515625,-0.3515625
1079,-1.046875,0.02734375,-0.3359375
1080,-1.04296875,0.05078125,-0.3515625
1081,-1.046875,0.05078125,-0.36328125
1082,-1.0625,0.07421875,-0.37109375
1083,-1.0390625,0.0703125,-0.3671875
1084,-1.04296875,0.07421875,-0.38671875
1085,-1.01953125,0.078125,-0.3828125
1086,-1.015625,0.0703125,-0.39453125
1087,-1.02734375,0.0859375,-0.38671875
1088,-1.0078125,0.07421875,-0.3984375
1089,-1.015625,0.0859375,-0.38671875
1090,-1.00390625,0.0859375,-0.41015625
1091,-1.00390625,0.08984375,-0.375
1092,-1.0,0.078125,-0.38671875
1093,-0.99609375,0.07421875,-0.375
1094,-0.984375,0.07421875,-0.375
1095,-0.9765625,0.0703125,-0.36328125
1096,-0.984375,0.078125,-0.34765625
1097,-0.96875,0.05859375,-0.36328125
1098,-0.96875,0.05859375,-0.33203125
1099,-0.96484375,0.05859375,-0.33984375
1100,-0.95703125,0.0546875,-0.33984375
1101,-0.953125,0.046875,-0.328125
1102,-0.953125,0.04296875,-0.31640625
1103,-0.94921875,0.05078125,-0.3125
1104,-0.953125,0.05859375,-0.296875
1105,-0.9609375,0.046875,-0.30859375
1106,-0.9609375,0.046875,-0.30859375
1107,-0.953125,0.06640625,-0.30078125
1108,-0.9765625,0.0703125,-0.3125
1109,-0.96484375,0.078125,-0.32421875
1110,-0.98828125,0.1015625,-0.31640625
1111,-0.98046875,0.1015625,-0.3125
1112,-0.98046875,0.109375,-0.3125
1113,-0.98828125,0.125,-0.3125
1114,-0.98046875,0.125,-0.296875
1115,-0.98046875,0.140625,-0.30859375
1116,-0.98828125,0.1484375,-0.30859375
1117,-0.98046875,0.16015625,-0.28125
1118,-0.96875,0.1640625,-0.28515625
1119,-0.96484375,0.16796875,-0.2890625
1120,-0.984375,0.171875,-0.28125
1121,-0.98046875,0.16015625,-0.27734375
1122,-0.96875,0.1796875,-0.265625
1123,-0.98046875,0.171875,-0.2578125
1124,-0.9765625,0.1796875,-0.26171875
1125,-0.9765625,0.1875,-0.25
1126,-0.9765625,0.18359375,-0.2578125
1127,-0.97265625,0.1875,-0.234375
1128,-0.95703125,0.19921875,-0.23828125
1129,-0.96484375,0.203125,-0.21875
1130,-0.97265625,0.19921875,-0.21484375
1131,-0.9609375,0.1953125,-0.203125
1132,-0.94921875,0.19140625,-0.1875
1133,-0.94921875,0.19140625,-0.19140625
1134,-0.93359375,0.19140625,-0.1640625
1135,-0.9296875,0.1953125,-0.15625
1136,-0.921875,0.20703125,-0.13671875
1137,-0.8984375,0.1875,-0.13671875
1138,-0.8984375,0.1953125,-0.16015625
1139,-0.8984375,0.18359375,-0.14453125
1140,-0.9140625,0.1796875,-0.14453125
1141,-0.90234375,0.18359375,-0.140625
1142,-0.90625,0.14453125,-0.11328125
1143,-0.92578125,0.1640625,-0.15234375
1144,-0.92578125,0.15234375,-0.1640625
1145,-0.93359375,0.14453125,-0.1796875
1146,-0.93359375,0.13671875,-0.18359375
1147,-0.93359375,0.15234375,-0.19921875
1148,-0.93359375,0.15234375,-0.17578125
1149,-0.9453125,0.15234375,-0.1796875
1150,-0.9453125,0.1484375,-0.1796875
1151,-0.94140625,0.13671875,-0.17578125
1152,-0.95703125,0.14453125,-0.15625
1153,-0.96484375,0.109375,-0.1328125
1154,-0.953125,0.125,-0.16796875
1155,-0.93359375,0.125,-0.16796875
1156,-0.9453125,0.1015625,-0.1328125
1157,-0.953125,0.1171875,-0.13671875
1158,-0.9375,0.1171875,-0.14453125
1159,-0.94140625,0.1328125,-0.1484375
1160,-0.9453125,0.125,-0.12109375
1161,-0.91796875,0.09765625,-0.1171875
1162,-0.92578125,0.08984375,-0.10546875
1163,-0.88671875,0.078125,-0.0390625
1164,-0.92578125,0.07421875,-0.1171875
1165,-0.9375,0.078125,-0.09765625
1166,-0.93359375,0.046875,-0.0859375
1167,-0.9296875,0.04296875,-0.08203125
1168,-0.9140625,0.03125,-0.08984375
1169,-0.92578125,0.0390625,-0.0859375
1170,-0.9140625,0.01953125,-0.078125
1171,-0.921875,0.0234375,-0.08203125
1172,-0.90625,0.03125,-0.0703125
1173,-0.91015625,0.04296875,-0.07421875
1174,-0.91796875,0.046875,-0.0703125
1175,-0.91015625,0.07421875,-0.109375
1176,-0.91015625,0.0546875,-0.125
1177,-0.91015625,0.08203125,-0.12890625
1178,-0.921875,0.078125,-0.16015625
1179,-0.92578125,0.078125,-0.18359375
1180,-0.921875,0.06640625,-0.1796875
1181,-0.9375,0.08203125,-0.1875
1182,-0.9453125,0.08203125,-0.1953125
1183,-0.9453125,0.078125,-0.203125
1184,-0.9375,0.0703125,-0.203125
1185,-0.96875,0.09375,-0.21484375
1186,-0.95703125,0.08203125,-0.20703125
1187,-0.9609375,0.08984375,-0.203125
1188,-0.95703125,0.09765625,-0.21875
1189,-0.96484375,0.1015625,-0.22265625
1190,-0.9609375,0.11328125,-0.22265625
1191,-0.95703125,0.10546875,-0.2265625
1192,-0.94921875,0.125,-0.21875
1193,-0.95703125,0.12109375,-0.23046875
1194,-0.96484375,0.1171875,-0.2265625
1195,-0.93359375,0.10546875,-0.19140625
1196,-0.95703125,0.12890625,-0.23828125
1197,-0.95703125,0.125,-0.25
1198,-0.97265625,0.1171875,-0.24609375
1199,-0.9609375,0.125,-0.25
1200,-0.97265625,0.1171875,-0.2578125
1201,-0.9765625,0.11328125,-0.25390625
1202,-0.97265625,0.10546875,-0.265625
1203,-0.98046875,0.1015625,-0.25
1204,-0.96484375,0.09765625,-0.26953125
1205,-0.97265625,0.08203125,-0.2734375
1206,-0.96875,0.0546875,-0.19140625
1207,-0.984375,0.1015625,-0.26953125
1208,-0.984375,0.11328125,-0.28515625
1209,-0.98046875,0.10546875,-0.26171875
1210,-0.98046875,0.12109375,-0.2734375
1211,-0.97265625,0.12109375,-0.27734375
1212,-0.96875,0.125,-0.2578125
1213,-0.953125,0.109375,-0.265625
1214,-0.953125,0.109375,-0.2578125
1215,-0.9609375,0.109375,-0.2421875
1216,-0.953125,0.09375,-0.234375
1217,-0.94921875,0.12109375,-0.3203125
1218,-0.94921875,0.0859375,-0.24609375
1219,-0.9609375,0.07421875,-0.25
1220,-0.9453125,0.078125,-0.25
1221,-0.94921875,0.078125,-0.24609375
1222,-0.9453125,0.0703125,-0.234375
1223,-0.94140625,0.0703125,-0.2421875
1224,-0.9375,0.0859375,-0.24609375
1225,-0.96484375,0.07421875,-0.2578125
1226,-0.953125,0.07421875,-0.25390625
1227,-1.00390625,0.109375,-0.234375
1228,-0.9453125,0.08203125,-0.265625
1229,-0.94140625,0.08203125,-0.2578125
1230,-0.95703125,0.08203125,-0.24609375
1231,-0.953125,0.0859375,-0.24609375
1232,-0.95703125,0.078125,-0.25390625
1233,-0.95703125,0.078125,-0.2578125
1234,-0.94921875,0.078125,-0.24609375
1235,-0.96875,0.0859375,-0.25
1236,-0.96484375,0.078125,-0.2421875
1237,-0.984375,0.08984375,-0.23046875
1238,-0.9453125,0.0859375,-0.25390625
1239,-0.99609375,0.08984375,-0.2578125
1240,-1.00390625,0.09375,-0.25390625
1241,-0.9921875,0.09375,-0.2578125
1242,-0.9921875,0.09765625,-0.26171875
1243,-0.9765625,0.078125,-0.24609375
1244,-0.9921875,0.09765625,-0.234375
1245,-0.9921875,0.0859375,-0.25
1246,-0.984375,0.1015625,-0.234375
1247,-0.96875,0.09375,-0.23046875
1248,-0.97265625,0.109375,-0.23046875
1249,-0.94140625,0.09765625,-0.21484375
1250,-0.9609375,0.109375,-0.24609375
1251,-0.97265625,0.08984375,-0.2265625
1252,-0.97265625,0.1015625,-0.22265625
1253,-0.9609375,0.09375,-0.23046875
1254,-0.97265625,0.09765625,-0.23046875
1255,-0.96875,0.09765625,-0.21875
1256,-0.96484375,0.09765625,-0.2265625
1257,-0.9765625,0.11328125,-0.21875
1258,-0.95703125,0.09765625,-0.2265625
1259,-0.94921875,0.1171875,-0.2109375
1260,-0.953125,0.125,-0.21484375
1261,-0.95703125,0.12109375,-0.20703125
1262,-0.953125,0.1171875,-0.20703125
1263,-0.94140625,0.12109375,-0.21484375
1264,-0.9453125,0.109375,-0.21484375
1265,-0.9296875,0.11328125,-0.19140625
1266,-0.94140625,0.11328125,-0.1875
1267,-0.9296875,0.1171875,-0.19140625
1268,-0.94140625,0.11328125,-0.1875
1269,-0.94140625,0.109375,-0.1953125
1270,-0.94140625,0.1171875,-0.1796875
1271,-0.91796875,0.12109375,-0.1796875
1272,-0.93359375,0.12109375,-0.171875
1273,-0.92578125,0.109375,-0.19140625
1274,-0.9453125,0.125,-0.1875
1275,-0.9296875,0.1171875,-0.18359375
1276,-0.92578125,0.1328125,-0.1875
1277,-0.9375,0.11328125,-0.1796875
1278,-0.93359375,0.1171875,-0.1796875
1279,-0.94140625,0.12890625,-0.1796875
1280,-0.9375,0.1171875,-0.1640625
1281,-0.93359375,0.1171875,-0.17578125
1282,-0.94921875,0.109375,-0.17578125
1283,-0.94140625,0.11328125,-0.17578125
1284,-0.94140625,0.1015625,-0.17578125
1285,-0.953125,0.11328125,-0.171875
1286,-0.96875,0.109375,-0.17578125
1287,-0.9453125,0.109375,-0.171875
1288,-0.953125,0.10546875,-0.15625
1289,-0.9453125,0.1015625,-0.17578125
1290,-0.95703125,0.09375,-0.1953125
1291,-0.953125,0.10546875,-0.17578125
1292,-0.953125,0.09375,-0.19140625
1293,-0.94921875,0.1015625,-0.18359375
1294,-0.96875,0.1015625,-0.1796875
1295,-0.953125,0.10546875,-0.17578125
1296,-0.953125,0.09765625,-0.1953125
1297,-0.953125,0.109375,-0.1953125
1298,-0.94921875,0.1015625,-0.1796875
1299,-0.953125,0.1015625,-0.19921875
1300,-0.95703125,0.10546875,-0.17578125
1301,-0.95703125,0.109375,-0.19921875
1302,-0.95703125,0.09765625,-0.18359375
1303,-0.95703125,0.1015625,-0.2109375
1304,-0.95703125,0.10546875,-0.1953125
1305,-0.96484375,0.09765625,-0.203125
1306,-0.95703125,0.1015625,-0.2109375
1307,-0.953125,0.11328125,-0.20703125
1308,-0.96484375,0.11328125,-0.19921875
1309,-0.9765625,0.1171875,-0.20703125
1310,-0.95703125,0.1015625,-0.20703125
1311,-0.9609375,0.11328125,-0.203125
1312,-0.95703125,0.1015625,-0.203125
1313,-0.953125,0.109375,-0.1953125
1314,-0.953125,0.11328125,-0.19921875
1315,-0.9453125,0.09765625,-0.2109375
1316,-0.9609375,0.1015625,-0.20703125
1317,-0.9609375,0.10546875,-0.1953125
1318,-0.95703125,0.10546875,-0.203125
1319,-0.95703125,0.1015625,-0.22265625
1320,-0.94140625,0.109375,-0.19140625
1321,-0.9609375,0.1015625,-0.19921875
1322,-0.953125,0.10546875,-0.1796875
1323,-0.94140625,0.1015625,-0.1953125
1324,-0.96484375,0.12109375,-0.20703125
1325,-0.94921875,0.10546875,-0.1796875
1326,-0.94921875,0.109375,-0.1953125
1327,-0.94921875,0.1015625,-0.1875
1328,-0.9375,0.1015625,-0.1796875
1329,-0.9453125,0.109375,-0.1875
1330,-0.9453125,0.09765625,-0.18359375
1331,-0.94921875,0.10546875,-0.17578125
1332,-0.9453125,0.10546875,-0.1953125
1333,-0.953125,0.09765625,-0.18359375
1334,-0.953125,0.09765625,-0.17578125
1335,-0.94921875,0.10546875,-0.1953125
1336,-0.9609375,0.11328125,-0.19921875
1337,-0.953125,0.1171875,-0.19140625
1338,-0.953125,0.109375,-0.1875
1339,-0.95703125,0.11328125,-0.19921875
1340,-0.95703125,0.125,-0.19921875
1341,-0.94921875,0.11328125,-0.1953125
1342,-0.953125,0.12109375,-0.1796875
1343,-0.94921875,0.1171875,-0.1953125
1344,-0.953125,0.12109375,-0.20703125
1345,-0.95703125,0.11328125,-0.17578125
1346,-0.94921875,0.1171875,-0.18359375
1347,-0.94921875,0.10546875,-0.1875
1348,-0.95703125,0.10546875,-0.1796875
1349,-0.9453125,0.10546875,-0.18359375
1350,-0.95703125,0.11328125,-0.171875
1351,-0.9609375,0.11328125,-0.1796875
1352,-0.95703125,0.10546875,-0.17578125
1353,-0.9609375,0.11328125,-0.1796875
1354,-0.94921875,0.11328125,-0.19140625
1355,-0.95703125,0.11328125,-0.1875
1356,-0.953125,0.109375,-0.17578125
1357,-0.95703125,0.1015625,-0.171875
1358,-0.953125,0.1015625,-0.1796875
1359,-0.95703125,0.09765625,-0.18359375
1360,-0.9453125,0.09765625,-0.1796875
1361,-0.9609375,0.1171875,-0.18359375
1362,-0.94921875,0.11328125,-0.16796875
1363,-0.95703125,0.11328125,-0.16796875
1364,-0.95703125,0.11328125,-0.18359375
1365,-0.94921875,0.109375,-0.1796875
1366,-0.953125,0.1171875,-0.1796875
1367,-0.94921875,0.11328125,-0.1796875
1368,-0.9609375,0.11328125,-0.17578125
1369,-0.95703125,0.109375,-0.1953125
1370,-0.9453125,0.10546875,-0.1640625
1371,-0.9375,0.10546875,-0.18359375
1372,-0.9453125,0.10546875,-0.171875
1373,-0.95703125,0.109375,-0.1640625
1374,-0.94921875,0.11328125,-0.18359375
1375,-0.953125,0.109375,-0.16796875
1376,-0.94140625,0.1171875,-0.1796875
1377,-0.953125,0.1171875,-0.171875
1378,-0.94140625,0.10546875,-0.19140625
1379,-0.9453125,0.10546875,-0.17578125
1380,-0.9453125,0.11328125,-0.16015625
1381,-0.9609375,0.109375,-0.1796875
1382,-0.9453125,0.10546875,-0.18359375
1383,-0.9453125,0.109375,-0.171875
1384,-0.95703125,0.1171875,-0.1875
1385,-0.96484375,0.11328125,-0.18359375
1386,-0.9453125,0.10546875,-0.18359375
1387,-0.95703125,0.1171875,-0.17578125
1388,-0.953125,0.109375,-0.203125
1389,-0.95703125,0.11328125,-0.19140625
1390,-0.95703125,0.10546875,-0.18359375
1391,-0.95703125,0.11328125,-0.1875
1392,-0.9609375,0.109375,-0.1875
1393,-0.95703125,0.109375,-0.1875
1394,-0.94140625,0.109375,-0.18359375
1395,-0.9609375,0.1171875,-0.1875
1396,-0.94921875,0.11328125,-0.1875
1397,-0.95703125,0.1171875,-0.1875
1398,-0.95703125,0.109375,-0.19140625
1399,-0.94140625,0.1171875,-0.17578125
1400,-0.94921875,0.11328125,-0.18359375
1401,-0.9453125,0.12109375,-0.1875
1402,-0.953125,0.11328125,-0.1875
1403,-0.94921875,0.10546875,-0.1796875
1404,-0.94921875,0.1171875,-0.18359375
1405,-0.9609375,0.125,-0.1796875
1406,-0.95703125,0.11328125,-0.1796875
1407,-0.953125,0.11328125,-0.17578125
1408,-0.95703125,0.11328125,-0.19921875
1409,-0.94921875,0.11328125,-0.1796875
1410,-0.95703125,0.12109375,-0.16796875
1411,-0.94921875,0.11328125,-0.18359375
1412,-0.9609375,0.10546875,-0.1953125
1413,-0.9609375,0.109375,-0.1953125
1414,-0.96484375,0.11328125,-0.1875
1415,-0.95703125,0.1171875,-0.1796875
1416,-0.94921875,0.1171875,-0.1953125
1417,-0.9609375,0.1171875,-0.19140625
1418,-0.94921875,0.12109375,-0.19140625
1419,-0.953125,0.1171875,-0.203125
1420,-0.94921875,0.11328125,-0.1875
1421,-0.94921875,0.11328125,-0.1875
1422,-0.953125,0.11328125,-0.1796875
1423,-0.95703125,0.09765625,-0.19921875
1424,-0.94140625,0.11328125,-0.19140625
1425,-0.953125,0.12109375,-0.17578125
1426,-0.953125,0.12109375,-0.19921875
1427,-0.9453125,0.09765625,-0.19140625
1428,-0.9609375,0.109375,-0.19921875
1429,-0.95703125,0.1171875,-0.1875
1430,-0.95703125,0.11328125,-0.1875
1431,-0.953125,0.09765625,-0.203125
1432,-0.953125,0.10546875,-0.1953125
1433,-0.95703125,0.09375,-0.19921875
1434,-0.95703125,0.109375,-0.19140625
1435,-0.953125,0.11328125,-0.2265625
1436,-0.9609375,0.1171875,-0.1953125
1437,-0.95703125,0.11328125,-0.2109375
1438,-0.95703125,0.12109375,-0.2109375
1439,-0.94921875,0.11328125,-0.21484375
1440,-0.94140625,0.10546875,-0.20703125
1441,-0.94140625,0.10546875,-0.20703125
1442,-0.94140625,0.09765625,-0.2109375
1443,-0.95703125,0.10546875,-0.19140625
1444,-0.94921875,0.08984375,-0.20703125
1445,-0.9453125,0.109375,-0.1953125
1446,-0.953125,0.09375,-0.203125
1447,-0.94921875,0.09765625,-0.1875
1448,-0.9453125,0.1015625,-0.19140625
1449,-0.94921875,0.10546875,-0.19921875
1450,-0.9296875,0.0859375,-0.21484375
1451,-0.95703125,0.1171875,-0.19140625
1452,-0.94921875,0.11328125,-0.19140625
1453,-0.953125,0.1015625,-0.2109375
1454,-0.94921875,0.11328125,-0.2109375
1455,-0.953125,0.109375,-0.2109375
1456,-0.96484375,0.1171875,-0.1953125
1457,-0.96484375,0.11328125,-0.203125
1458,-0.94921875,0.10546875,-0.1953125
1459,-0.96484375,0.109375,-0.203125
1460,-0.94921875,0.11328125,-0.19921875
1461,-0.94921875,0.1015625,-0.21875
1462,-0.96484375,0.11328125,-0.19921875
1463,-0.9609375,0.10546875,-0.20703125
1464,-0.95703125,0.109375,-0.20703125
1465,-0.94140625,0.09375,-0.19140625
1466,-0.96875,0.109375,-0.19921875
1467,-0.94921875,0.10546875,-0.203125
1468,-0.9453125,0.09375,-0.2109375
1469,-0.95703125,0.109375,-0.19921875
1470,-0.953125,0.10546875,-0.20703125
1471,-0.953125,0.109375,-0.19921875
1472,-0.953125,0.1015625,-0.20703125
1473,-0.9375,0.1015625,-0.21484375
1474,-0.9453125,0.11328125,-0.21875
1475,-0.9609375,0.1015625,-0.21484375
1476,-0.94140625,0.1171875,-0.2109375
1477,-0.953125,0.10546875,-0.20703125
1478,-0.953125,0.11328125,-0.2109375
1479,-0.953125,0.11328125,-0.2109375
1480,-0.94921875,0.10546875,-0.21484375
1481,-0.93359375,0.1015625,-0.2265625
1482,-0.94921875,0.11328125,-0.203125
1483,-0.95703125,0.11328125,-0.23046875
1484,-0.95703125,0.10546875,-0.1953125
1485,-0.95703125,0.10546875,-0.23828125
1486,-0.953125,0.1015625,-0.21875
1487,-0.95703125,0.12109375,-0.2265625
1488,-0.95703125,0.109375,-0.2109375
1489,-0.96484375,0.10546875,-0.22265625
1490,-0.95703125,0.109375,-0.22265625
1491,-0.94921875,0.12109375,-0.2265625
1492,-0.96875,0.10546875,-0.21875
1493,-0.9609375,0.11328125,-0.203125
1494,-0.95703125,0.109375,-0.2109375
1495,-0.953125,0.109375,-0.2109375
1496,-0.953125,0.109375,-0.20703125
1497,-0.96484375,0.09765625,-0.20703125
1498,-0.96875,0.1171875,-0.19140625
1499,-0.9453125,0.09765625,-0.21875
1500,-0.94921875,0.109375,-0.2109375
1501,-0.953125,0.10546875,-0.19140625
1502,-0.94921875,0.10546875,-0.18359375
1503,-0.94921875,0.1015625,-0.2109375
1504,-0.94921875,0.1015625,-0.20703125
1505,-0.94921875,0.1015625,-0.20703125
1506,-0.94140625,0.08984375,-0.203125
1507,-0.9453125,0.1015625,-0.1953125
1508,-0.953125,0.09765625,-0.2109375
1509,-0.953125,0.10546875,-0.19140625
1510,-0.94921875,0.109375,-0.20703125
1511,-0.94921875,0.10546875,-0.19140625
1512,-0.96484375,0.109375,-0.2109375
1513,-0.96875,0.1171875,-0.203125
1514,-0.9453125,0.10546875,-0.2109375
1515,-0.9609375,0.1171875,-0.1875
1516,-0.953125,0.11328125,-0.203125
1517,-0.95703125,0.109375,-0.19921875
1518,-0.953125,0.11328125,-0.21875
1519,-0.953125,0.11328125,-0.20703125
1520,-0.94140625,0.109375,-0.203125
1521,-0.9453125,0.109375,-0.1953125
1522,-0.96484375,0.11328125,-0.203125
1523,-0.94921875,0.09765625,-0.203125
1524,-0.9453125,0.1171875,-0.1953125
1525,-0.953125,0.109375,-0.1953125
1526,-0.95703125,0.10546875,-0.21484375
1527,-0.9453125,0.11328125,-0.21875
1528,-0.97265625,0.1171875,-0.21875
1529,-0.95703125,0.109375,-0.21484375
1530,-0.95703125,0.11328125,-0.203125
1531,-0.953125,0.10546875,-0.20703125
1532,-0.96875,0.1171875,-0.203125
1533,-0.953125,0.11328125,-0.2109375
1534,-0.94140625,0.109375,-0.20703125
1535,-0.953125,0.12109375,-0.20703125
1536,-0.953125,0.11328125,-0.19921875
1537,-0.94921875,0.109375,-0.2109375
1538,-0.95703125,0.1328125,-0.19921875
1539,-0.94921875,0.1171875,-0.2109375
1540,-0.953125,0.11328125,-0.203125
1541,-0.953125,0.125,-0.1953125
1542,-0.953125,0.12890625,-0.19140625
1543,-0.9453125,0.12109375,-0.1796875
1544,-0.953125,0.1171875,-0.203125
1545,-0.9609375,0.10546875,-0.19921875
1546,-0.95703125,0.1171875,-0.1875
1547,-0.94921875,0.12109375,-0.1875
1548,-0.9609375,0.1171875,-0.1953125
1549,-0.94921875,0.1171875,-0.19921875
1550,-0.9609375,0.1328125,-0.20703125
1551,-0.95703125,0.12109375,-0.1953125
1552,-0.9609375,0.125,-0.2109375
1553,-0.953125,0.11328125,-0.203125
1554,-0.96484375,0.10546875,-0.20703125
1555,-0.95703125,0.09765625,-0.1875
1556,-0.94921875,0.1015625,-0.19921875
1557,-0.9609375,0.1171875,-0.21484375
1558,-0.9609375,0.1171875,-0.21875
1559,-0.96484375,0.125,-0.203125
1560,-0.9609375,0.12890625,-0.19921875
1561,-0.96484375,0.125,-0.1953125
1562,-0.9609375,0.125,-0.20703125
1563,-0.94921875,0.13671875,-0.2109375
1564,-0.953125,0.125,-0.19140625
1565,-0.94921875,0.1015625,-0.20703125
1566,-0.95703125,0.11328125,-0.19140625
1567,-0.9453125,0.11328125,-0.19140625
1568,-0.953125,0.10546875,-0.1953125
1569,-0.94921875,0.1171875,-0.17578125
1570,-0.94140625,0.10546875,-0.19921875
1571,-0.9765625,0.078125,-0.23046875
1572,-0.94921875,0.1171875,-0.19140625
1573,-0.94921875,0.12109375,-0.1796875
1574,-0.9453125,0.1015625,-0.1875
1575,-0.984375,0.1484375,-0.25
1576,-0.9609375,0.1328125,-0.203125
1577,-0.953125,0.125,-0.20703125
1578,-0.94921875,0.12109375,-0.203125
1579,-0.95703125,0.109375,-0.20703125
1580,-0.9609375,0.109375,-0.203125
1581,-0.95703125,0.12109375,-0.19921875
1582,-0.953125,0.1171875,-0.1953125
1583,-0.953125,0.12109375,-0.2109375
1584,-0.953125,0.10546875,-0.203125
1585,-0.95703125,0.1171875,-0.1796875
1586,-0.9609375,0.12109375,-0.1875
1587,-0.96484375,0.1171875,-0.19140625
1588,-0.93359375,0.16015625,-0.21484375
1589,-0.953125,0.109375,-0.18359375
1590,-0.953125,0.12890625,-0.19140625
1591,-0.96484375,0.1171875,-0.203125
1592,-0.95703125,0.125,-0.19140625
1593,-0.95703125,0.125,-0.20703125
1594,-0.95703125,0.12109375,-0.1875
1595,-0.953125,0.12890625,-0.1796875
1596,-0.94921875,0.1171875,-0.19140625
1597,-0.9453125,0.12890625,-0.19140625
1598,-0.9453125,0.11328125,-0.19140625
1599,-0.94921875,0.12890625,-0.1875
1600,-0.9453125,0.11328125,-0.19921875
1601,-0.94921875,0.12109375,-0.18359375
1602,-0.921875,0.14453125,-0.16796875
1603,-0.94921875,0.12890625,-0.19921875
1604,-0.96484375,0.12890625,-0.19140625
1605,-0.94921875,0.11328125,-0.19140625
1606,-0.94921875,0.12109375,-0.1796875
1607,-0.94140625,0.1171875,-0.18359375
1608,-0.94921875,0.13671875,-0.1875
1609,-0.9609375,0.1328125,-0.19140625
1610,-0.96484375,0.1171875,-0.1875
1611,-0.9453125,0.125,-0.1953125
1612,-0.95703125,0.12109375,-0.1953125
1613,-0.94140625,0.12890625,-0.19140625
1614,-0.95703125,0.12890625,-0.1875
1615,-0.953125,0.1171875,-0.19140625
1616,-0.94921875,0.12890625,-0.1796875
1617,-0.953125,0.12109375,-0.1875
1618,-0.953125,0.11328125,-0.1953125
1619,-0.9609375,0.12109375,-0.203125
1620,-0.953125,0.109375,-0.19921875
1621,-0.9609375,0.11328125,-0.203125
1622,-0.95703125,0.11328125,-0.19140625
1623,-0.95703125,0.125,-0.1953125
1624,-0.94921875,0.11328125,-0.19921875
1625,-0.9609375,0.125,-0.1796875
1626,-0.94921875,0.12109375,-0.18359375
1627,-0.953125,0.125,-0.1875
1628,-0.953125,0.12890625,-0.19140625
1629,-0.94921875,0.1171875,-0.1953125
1630,-0.9453125,0.1171875,-0.203125
1631,-0.953125,0.12890625,-0.1953125
1632,-0.95703125,0.1171875,-0.203125
1633,-0.94921875,0.125,-0.18359375
1634,-0.94921875,0.109375,-0.19140625
1635,-0.94140625,0.10546875,-0.18359375
1636,-0.953125,0.11328125,-0.18359375
1637,-0.9609375,0.1015625,-0.1953125
1638,-0.94921875,0.1171875,-0.1875
1639,-0.953125,0.11328125,-0.1875
1640,-0.96484375,0.1171875,-0.19140625
1641,-0.953125,0.11328125,-0.1875
1642,-0.953125,0.11328125,-0.1875
1643,-0.9609375,0.11328125,-0.1953125
1644,-0.953125,0.11328125,-0.1796875
1645,-0.9453125,0.12890625,-0.1875
1646,-0.9453125,0.12890625,-0.19921875
1647,-0.94921875,0.109375,-0.1796875
1648,-0.953125,0.1328125,-0.19140625
1649,-0.95703125,0.125,-0.1640625
1650,-0.953125,0.13671875,-0.1796875
1651,-0.953125,0.10546875,-0.1875
1652,-0.95703125,0.12109375,-0.203125
1653,-0.95703125,0.125,-0.1875
1654,-0.94140625,0.1171875,-0.19140625
1655,-0.95703125,0.12890625,-0.203125
1656,-0.953125,0.125,-0.2265625
1657,-0.94921875,0.1328125,-0.1875
1658,-0.94921875,0.125,-0.1875
1659,-0.94921875,0.125,-0.19921875
1660,-0.96484375,0.12890625,-0.1640625
1661,-0.9453125,0.12109375,-0.18359375
1662,-0.953125,0.12109375,-0.171875
1663,-0.9609375,0.12890625,-0.1875
1664,-0.95703125,0.1171875,-0.19921875
1665,-0.94140625,0.11328125,-0.19140625
1666,-0.9609375,0.12109375,-0.18359375
1667,-0.95703125,0.1171875,-0.1875
1668,-0.9453125,0.12109375,-0.1953125
1669,-0.9453125,0.11328125,-0.18359375
1670,-0.95703125,0.12109375,-0.1875
1671,-0.953125,0.12890625,-0.1953125
1672,-0.9375,0.12109375,-0.18359375
1673,-0.953125,0.1171875,-0.1796875
1674,-0.94140625,0.1171875,-0.17578125
1675,-0.9453125,0.125,-0.1875
1676,-0.953125,0.1171875,-0.171875
1677,-0.9609375,0.12109375,-0.171875
1678,-0.97265625,0.12890625,-0.19140625
1679,-0.96484375,0.125,-0.16796875
1680,-0.953125,0.125,-0.1953125
1681,-0.953125,0.13671875,-0.18359375
1682,-0.9609375,0.1328125,-0.18359375
1683,-0.94921875,0.12890625,-0.1640625
1684,-0.9609375,0.12890625,-0.18359375
1685,-0.953125,0.11328125,-0.1640625
1686,-0.94140625,0.125,-0.1875
1687,-0.953125,0.1171875,-0.1875
1688,-0.96875,0.1171875,-0.1796875
1689,-0.9453125,0.12109375,-0.17578125
1690,-0.95703125,0.140625,-0.17578125
1691,-0.9609375,0.12890625,-0.17578125
1692,-0.9453125,0.125,-0.16796875
1693,-0.95703125,0.12890625,-0.1875
1694,-0.94921875,0.125,-0.17578125
1695,-0.95703125,0.12890625,-0.16796875
1696,-0.94921875,0.12109375,-0.16796875
1697,-0.95703125,0.125,-0.1875
1698,-0.953125,0.13671875,-0.19140625
1699,-0.94921875,0.1328125,-0.19140625
1700,-0.953125,0.14453125,-0.16796875
1701,-0.94140625,0.1171875,-0.16796875
1702,-0.94921875,0.11328125,-0.1796875
1703,-0.94921875,0.12109375,-0.171875
1704,-0.94921875,0.12109375,-0.15625
1705,-0.9375,0.1015625,-0.1796875
1706,-0.94140625,0.12890625,-0.16796875
1707,-0.94921875,0.12109375,-0.1796875
1708,-0.94921875,0.10546875,-0.15625
1709,-0.94140625,0.1171875,-0.1796875
1710,-0.94921875,0.1171875,-0.1875
1711,-0.94921875,0.109375,-0.171875
1712,-0.9609375,0.12109375,-0.1640625
1713,-0.9453125,0.11328125,-0.1796875
1714,-0.9609375,0.1171875,-0.16796875
1715,-0.9609375,0.12109375,-0.19921875
1716,-0.9609375,0.140625,-0.203125
1717,-0.96484375,0.125,-0.17578125
1718,-0.9453125,0.1328125,-0.20703125
1719,-0.96484375,0.12109375,-0.19140625
1720,-0.95703125,0.1328125,-0.1796875
1721,-0.94921875,0.12109375,-0.17578125
1722,-0.94921875,0.1171875,-0.17578125
1723,-0.9609375,0.12890625,-0.18359375
1724,-0.953125,0.1328125,-0.171875
1725,-0.953125,0.12109375,-0.17578125
1726,-0.94921875,0.125,-0.16796875
1727,-0.95703125,0.125,-0.1640625
1728,-0.95703125,0.12109375,-0.17578125
1729,-0.92578125,0.16796875,-0.1953125
1730,-0.953125,0.125,-0.16015625
1731,-0.953125,0.12109375,-0.171875
1732,-0.95703125,0.1328125,-0.171875
1733,-0.95703125,0.12109375,-0.17578125
1734,-0.953125,0.12109375,-0.17578125
1735,-0.953125,0.12890625,-0.18359375
1736,-0.953125,0.125,-0.18359375
1737,-0.9453125,0.12109375,-0.171875
1738,-0.953125,0.1171875,-0.1796875
1739,-0.9609375,0.16015625,-0.12109375
1740,-0.95703125,0.140625,-0.1953125
1741,-0.9453125,0.1328125,-0.171875
1742,-0.9453125,0.12109375,-0.1796875
1743,-0.94921875,0.125,-0.1796875
1744,-0.9453125,0.1328125,-0.17578125
1745,-0.94140625,0.1328125,-0.17578125
1746,-0.953125,0.125,-0.171875
1747,-0.9453125,0.125,-0.1640625
1748,-0.9453125,0.1328125,-0.1640625
1749,-0.953125,0.1328125,-0.16796875
1750,-0.96484375,0.125,-0.15625
1751,-0.9609375,0.125,-0.1796875
1752,-0.95703125,0.125,-0.17578125
1753,-0.95703125,0.125,-0.16015625
1754,-0.94921875,0.12109375,-0.16796875
1755,-0.9453125,0.125,-0.16796875
1756,-0.94921875,0.1328125,-0.1640625
1757,-0.953125,0.125,-0.171875
1758,-0.953125,0.12890625,-0.16796875
1759,-0.9375,0.12109375,-0.171875
1760,-0.9453125,0.12109375,-0.1796875
1761,-0.94921875,0.14453125,-0.22265625
1762,-0.953125,0.125,-0.1640625
1763,-0.953125,0.12890625,-0.17578125
1764,-0.9609375,0.12890625,-0.1640625
1765,-0.9609375,0.13671875,-0.18359375
1766,-0.9453125,0.13671875,-0.1796875
1767,-0.953125,0.125,-0.15625
1768,-0.9609375,0.12890625,-0.171875
1769,-0.95703125,0.125,-0.1640625
1770,-0.95703125,0.1328125,-0.1484375
1771,-0.9140625,0.140625,-0.1875
1772,-0.95703125,0.1328125,-0.18359375
1773,-0.953125,0.12890625,-0.1640625
1774,-0.953125,0.12890625,-0.16796875
1775,-0.95703125,0.12890625,-0.17578125
1776,-0.9375,0.125,-0.1796875
1777,-0.9453125,0.12890625,-0.16015625
1778,-0.94921875,0.125,-0.16796875
1779,-0.9375,0.1171875,-0.16796875
1780,-0.94921875,0.125,-0.171875
1781,-0.94921875,0.125,-0.17578125
1782,-0.9375,0.09765625,-0.12109375
1783,-0.95703125,0.1328125,-0.171875
1784,-0.94921875,0.12890625,-0.17578125
1785,-0.953125,0.1171875,-0.18359375
1786,-0.94921875,0.140625,-0.15625
1787,-0.94921875,0.125,-0.17578125
1788,-0.9609375,0.12109375,-0.16015625
1789,-0.94921875,0.12109375,-0.171875
1790,-0.9609375,0.125,-0.17578125
1791,-0.9453125,0.12109375,-0.1796875
1792,-0.9453125,0.12109375,-0.171875
1793,-0.96484375,0.140625,-0.14453125
1794,-0.94921875,0.125,-0.16796875
1795,-0.9609375,0.12890625,-0.17578125
1796,-0.953125,0.12109375,-0.17578125
1797,-0.96875,0.1328125,-0.17578125
1798,-0.9609375,0.125,-0.1796875
1799,-0.9609375,0.12890625,-0.18359375
1800,-0.953125,0.125,-0.16796875
1801,-0.953125,0.12890625,-0.16796875
1802,-0.94921875,0.12890625,-0.1796875
1803,-0.92578125,0.16796875,-0.23046875
1804,-0.94921875,0.12109375,-0.17578125
1805,-0.9453125,0.12109375,-0.1953125
1806,-0.95703125,0.14453125,-0.18359375
1807,-0.95703125,0.125,-0.17578125
1808,-0.9609375,0.125,-0.171875
1809,-0.9375,0.11328125,-0.18359375
1810,-0.953125,0.125,-0.16796875
1811,-0.95703125,0.12109375,-0.19140625
1812,-0.953125,0.125,-0.1796875
1813,-0.953125,0.10546875,-0.16015625
1814,-0.921875,0.0859375,-0.1640625
1815,-0.94921875,0.109375,-0.1796875
1816,-0.9375,0.109375,-0.171875
1817,-0.94140625,0.10546875,-0.16796875
1818,-0.96484375,0.12890625,-0.17578125
1819,-0.95703125,0.125,-0.16796875
1820,-0.95703125,0.125,-0.19140625
1821,-0.953125,0.12890625,-0.19140625
1822,-0.953125,0.11328125,-0.19140625
1823,-0.953125,0.125,-0.171875
1824,-0.953125,0.12890625,-0.18359375
1825,-0.96484375,0.1015625,-0.18359375
1826,-0.953125,0.12109375,-0.1875
1827,-0.953125,0.1171875,-0.16796875
1828,-0.9609375,0.1328125,-0.16796875
1829,-0.953125,0.12109375,-0.19921875
1830,-0.9453125,0.1171875,-0.1796875
1831,-0.953125,0.11328125,-0.18359375
1832,-0.953125,0.12109375,-0.17578125
1833,-0.953125,0.11328125,-0.1796875
1834,-0.9609375,0.11328125,-0.1796875
1835,-0.94921875,0.1328125,-0.1796875
1836,-0.95703125,0.125,-0.18359375
1837,-0.95703125,0.1171875,-0.15625
1838,-0.94921875,0.11328125,-0.171875
1839,-0.9609375,0.12890625,-0.1875
1840,-0.95703125,0.1171875,-0.1796875
1841,-0.9453125,0.1171875,-0.171875
1842,-0.9453125,0.125,-0.1796875
1843,-0.953125,0.12109375,-0.1640625
1844,-0.9453125,0.11328125,-0.1640625
1845,-0.9453125,0.1171875,-0.17578125
1846,-0.9609375,0.125,-0.1875
1847,-0.95703125,0.13671875,-0.18359375
1848,-0.94921875,0.12109375,-0.203125
1849,-0.95703125,0.13671875,-0.203125
1850,-0.95703125,0.1328125,-0.18359375
1851,-0.9609375,0.12109375,-0.18359375
1852,-0.94921875,0.1171875,-0.19140625
1853,-0.94921875,0.1171875,-0.1875
1854,-0.95703125,0.12109375,-0.18359375
1855,-0.9609375,0.12109375,-0.18359375
1856,-0.95703125,0.1171875,-0.17578125
1857,-0.953125,0.11328125,-0.19140625
1858,-0.953125,0.11328125,-0.171875
1859,-0.93359375,0.1015625,-0.1875
1860,-0.953125,0.10546875,-0.1875
1861,-0.95703125,0.1171875,-0.18359375
1862,-0.9609375,0.109375,-0.1953125
1863,-0.9609375,0.1171875,-0.1796875
1864,-0.9453125,0.11328125,-0.18359375
1865,-0.94921875,0.125,-0.203125
1866,-0.9609375,0.125,-0.203125
1867,-0.96484375,0.12109375,-0.1953125
1868,-0.95703125,0.1171875,-0.1875
1869,-0.94921875,0.12109375,-0.2109375
1870,-0.953125,0.12890625,-0.19921875
1871,-0.94921875,0.109375,-0.20703125
1872,-0.953125,0.11328125,-0.19140625
1873,-0.94921875,0.125,-0.19140625
1874,-0.95703125,0.11328125,-0.17578125
1875,-0.97265625,0.1171875,-0.19921875
1876,-0.95703125,0.125,-0.1875
1877,-0.96484375,0.12109375,-0.1875
1878,-0.9609375,0.1171875,-0.19140625
1879,-0.96484375,0.12109375,-0.1875
1880,-0.96875,0.12109375,-0.19140625
1881,-0.94921875,0.1171875,-0.1875
1882,-0.94921875,0.12109375,-0.203125
1883,-0.95703125,0.11328125,-0.20703125
1884,-0.94921875,0.12890625,-0.2109375
1885,-0.9609375,0.12109375,-0.1953125
1886,-0.95703125,0.125,-0.1796875
1887,-0.96875,0.1328125,-0.19921875
1888,-0.94140625,0.11328125,-0.19140625
1889,-0.953125,0.12109375,-0.1953125
1890,-0.94921875,0.125,-0.19921875
1891,-0.95703125,0.12890625,-0.1796875
1892,-0.94921875,0.125,-0.1796875
1893,-0.9453125,0.12109375,-0.19921875
1894,-0.953125,0.125,-0.1953125
1895,-0.9609375,0.109375,-0.2109375
1896,-0.95703125,0.1171875,-0.19921875
1897,-0.95703125,0.1171875,-0.203125
1898,-0.953125,0.1171875,-0.1796875
1899,-0.953125,0.109375,-0.203125
1900,-0.953125,0.10546875,-0.19140625
1901,-0.9609375,0.11328125,-0.20703125
1902,-0.9609375,0.12109375,-0.203125
1903,-0.9609375,0.12109375,-0.203125
1904,-0.953125,0.11328125,-0.2109375
1905,-0.95703125,0.11328125,-0.203125
1906,-0.9765625,0.125,-0.203125
1907,-0.9453125,0.10546875,-0.20703125
1908,-0.9453125,0.109375,-0.19140625
1909,-0.95703125,0.10546875,-0.19921875
1910,-0.96875,0.12109375,-0.1875
1911,-0.94921875,0.12109375,-0.19921875
1912,-0.953125,0.09765625,-0.19921875
1913,-0.95703125,0.125,-0.1875
1914,-0.95703125,0.109375,-0.17578125
1915,-0.953125,0.125,-0.1875
1916,-0.94921875,0.1171875,-0.2109375
1917,-0.95703125,0.1171875,-0.1953125
1918,-0.9609375,0.10546875,-0.1875
1919,-0.9609375,0.11328125,-0.1796875
1920,-0.94921875,0.10546875,-0.18359375
1921,-0.9609375,0.11328125,-0.1875
1922,-0.95703125,0.10546875,-0.1875
1923,-0.9609375,0.11328125,-0.203125
1924,-0.9609375,0.11328125,-0.20703125
1925,-0.9609375,0.1171875,-0.1796875
1926,-0.95703125,0.109375,-0.19921875
1927,-0.953125,0.1171875,-0.203125
1928,-0.94921875,0.109375,-0.21484375
1929,-0.953125,0.109375,-0.1953125
1930,-0.95703125,0.1171875,-0.19140625
1931,-0.95703125,0.12890625,-0.1875
1932,-0.95703125,0.125,-0.19140625
1933,-0.94921875,0.1171875,-0.1875
1934,-0.95703125,0.1171875,-0.203125
1935,-0.9609375,0.109375,-0.1953125
1936,-0.9453125,0.1171875,-0.21875
1937,-0.95703125,0.1171875,-0.18359375
1938,-0.953125,0.11328125,-0.18359375
1939,-0.953125,0.11328125,-0.1953125
1940,-0.95703125,0.125,-0.20703125
1941,-0.953125,0.10546875,-0.19140625
1942,-0.953125,0.11328125,-0.1875
1943,-0.953125,0.1171875,-0.203125
1944,-0.953125,0.109375,-0.1953125
1945,-0.953125,0.11328125,-0.19921875
1946,-0.94921875,0.1328125,-0.1953125
1947,-0.95703125,0.12109375,-0.18359375
1948,-0.94921875,0.12109375,-0.1953125
1949,-0.9609375,0.1171875,-0.17578125
1950,-0.9453125,0.11328125,-0.203125
1951,-0.9609375,0.12890625,-0.19921875
1952,-0.953125,0.109375,-0.1953125
1953,-0.953125,0.12109375,-0.18359375
1954,-0.94921875,0.1171875,-0.19140625
1955,-0.953125,0.125,-0.1953125
1956,-0.9609375,0.12109375,-0.1875
1957,-0.96484375,0.11328125,-0.18359375
1958,-0.9609375,0.12109375,-0.19921875
1959,-0.9609375,0.11328125,-0.1875
1960,-0.9609375,0.12109375,-0.19921875
1961,-0.94921875,0.1171875,-0.1875
1962,-0.94921875,0.11328125,-0.1875
1963,-0.953125,0.12109375,-0.18359375
1964,-0.953125,0.1171875,-0.20703125
1965,-0.9609375,0.1171875,-0.1796875
1966,-0.953125,0.1171875,-0.18359375
1967,-0.94140625,0.12109375,-0.1875
1968,-0.95703125,0.12109375,-0.18359375
1969,-0.95703125,0.125,-0.16796875
1970,-0.94921875,0.125,-0.20703125
1971,-0.94140625,0.12109375,-0.19921875
1972,-0.94921875,0.125,-0.1875
1973,-0.94921875,0.11328125,-0.203125
1974,-0.94921875,0.12890625,-0.19140625
1975,-0.9453125,0.11328125,-0.1953125
1976,-0.95703125,0.125,-0.18359375
1977,-0.9453125,0.10546875,-0.2109375
1978,-0.94921875,0.1171875,-0.18359375
1979,-0.94140625,0.109375,-0.19921875
1980,-0.95703125,0.109375,-0.1875
1981,-0.953125,0.109375,-0.1875
1982,-0.953125,0.12109375,-0.1796875
1983,-0.96484375,0.1171875,-0.1953125
1984,-0.95703125,0.11328125,-0.1953125
1985,-0.95703125,0.125,-0.1875
1986,-0.97265625,0.125,-0.19140625
1987,-0.95703125,0.1328125,-0.1875
1988,-0.95703125,0.11328125,-0.17578125
1989,-0.94921875,0.11328125,-0.17578125
1990,-0.95703125,0.1171875,-0.1796875
1991,-0.953125,0.10546875,-0.21484375
1992,-0.953125,0.12109375,-0.18359375
1993,-0.96484375,0.12890625,-0.1953125
1994,-0.96484375,0.1328125,-0.1953125
1995,-0.96484375,0.12890625,-0.1875
1996,-0.95703125,0.13671875,-0.1953125
1997,-0.953125,0.12109375,-0.19140625
1998,-0.953125,0.11328125,-0.1796875
1999,-0.953125,0.12890625,-0.1953125
2000,-0.94921875,0.1171875,-0.19921875
2001,-0.96484375,0.1171875,-0.17578125
2002,-0.95703125,0.12890625,-0.1796875
2003,-0.94921875,0.11328125,-0.1796875
2004,-0.94921875,0.125,-0.16796875
2005,-0.94140625,0.11328125,-0.1875
2006,-0.94921875,0.11328125,-0.16796875
2007,-0.95703125,0.12890625,-0.1875
2008,-0.95703125,0.125,-0.17578125
2009,-0.94921875,0.125,-0.18359375
2010,-0.9453125,0.12109375,-0.1796875
2011,-0.95703125,0.125,-0.1796875
2012,-0.96875,0.12890625,-0.19140625
2013,-0.9453125,0.1328125,-0.1875
2014,-0.95703125,0.12890625,-0.18359375
2015,-0.953125,0.1171875,-0.1953125
2016,-0.94921875,0.1171875,-0.19140625
2017,-0.95703125,0.1328125,-0.203125
2018,-0.95703125,0.1484375,-0.1796875
2019,-0.94921875,0.125,-0.1796875
2020,-0.953125,0.125,-0.18359375
2021,-0.953125,0.12890625,-0.1953125
2022,-0.953125,0.12109375,-0.18359375
2023,-0.95703125,0.125,-0.16796875
2024,-0.94921875,0.1171875,-0.1953125
2025,-0.953125,0.12109375,-0.1953125
2026,-0.953125,0.125,-0.18359375
2027,-0.9609375,0.1328125,-0.19140625
2028,-0.95703125,0.125,-0.19140625
2029,-0.96875,0.13671875,-0.1796875
2030,-0.953125,0.13671875,-0.1875
2031,-0.94921875,0.12109375,-0.18359375
2032,-0.953125,0.12890625,-0.18359375
2033,-0.94921875,0.12109375,-0.18359375
2034,-0.95703125,0.12890625,-0.19140625
2035,-0.94921875,0.12109375,-0.17578125
2036,-0.953125,0.12109375,-0.17578125
2037,-0.94140625,0.12890625,-0.17578125
2038,-0.953125,0.13671875,-0.19921875
2039,-0.953125,0.12109375,-0.1796875
2040,-0.9453125,0.12109375,-0.18359375
2041,-0.95703125,0.14453125,-0.18359375
2042,-0.95703125,0.12890625,-0.19140625
2043,-0.953125,0.12890625,-0.17578125
2044,-0.94921875,0.125,-0.18359375
2045,-0.95703125,0.125,-0.1796875
2046,-0.9609375,0.12890625,-0.1875
2047,-0.95703125,0.12890625,-0.171875
2048,-0.94921875,0.1171875,-0.19921875
2049,-0.953125,0.1171875,-0.16796875
2050,-0.94921875,0.11328125,-0.19140625
2051,-0.953125,0.11328125,-0.19140625
2052,-0.95703125,0.1328125,-0.17578125
2053,-0.95703125,0.12890625,-0.1875
2054,-0.9609375,0.125,-0.203125
2055,-0.9453125,0.11328125,-0.1796875
2056,-0.96875,0.12890625,-0.19921875
2057,-0.953125,0.12109375,-0.1875
2058,-0.94140625,0.12109375,-0.1875
2059,-0.96875,0.125,-0.171875
2060,-0.96484375,0.1171875,-0.1796875
2061,-0.94921875,0.1171875,-0.18359375
2062,-0.95703125,0.1328125,-0.18359375
2063,-0.94921875,0.125,-0.1953125
2064,-0.94921875,0.125,-0.18359375
2065,-0.9453125,0.1328125,-0.18359375
2066,-0.953125,0.125,-0.1875
2067,-0.95703125,0.12890625,-0.19140625
2068,-0.94140625,0.1171875,-0.17578125
2069,-0.95703125,0.12890625,-0.171875
2070,-0.94921875,0.12890625,-0.1796875
2071,-0.9609375,0.125,-0.18359375
2072,-0.94921875,0.12109375,-0.1796875
2073,-0.9609375,0.13671875,-0.1796875
2074,-0.9453125,0.140625,-0.1875
2075,-0.9609375,0.125,-0.171875
2076,-0.95703125,0.12890625,-0.171875
2077,-0.95703125,0.125,-0.1875
2078,-0.953125,0.1328125,-0.1796875
2079,-0.94921875,0.12890625,-0.17578125
2080,-0.95703125,0.1328125,-0.171875
2081,-0.94140625,0.13671875,-0.1796875
2082,-0.953125,0.125,-0.18359375
2083,-0.9453125,0.1328125,-0.17578125
2084,-0.94140625,0.12109375,-0.17578125
2085,-0.96484375,0.1328125,-0.15625
2086,-0.94921875,0.125,-0.1640625
2087,-0.953125,0.12890625,-0.16015625
2088,-0.9453125,0.12890625,-0.171875
2089,-0.9453125,0.1171875,-0.16796875
2090,-0.94921875,0.125,-0.17578125
2091,-0.94921875,0.12890625,-0.16796875
2092,-0.94921875,0.13671875,-0.1796875
2093,-0.953125,0.125,-0.18359375
2094,-0.94140625,0.125,-0.1796875
2095,-0.9453125,0.12890625,-0.18359375
2096,-0.94921875,0.12890625,-0.16796875
2097,-0.9453125,0.125,-0.16796875
2098,-0.95703125,0.1328125,-0.18359375
2099,-0.953125,0.12109375,-0.1640625
2100,-0.94921875,0.125,-0.1796875
2101,-0.9453125,0.125,-0.18359375
2102,-0.9453125,0.13671875,-0.17578125
2103,-0.9453125,0.13671875,-0.19140625
2104,-0.95703125,0.13671875,-0.17578125
2105,-0.95703125,0.1328125,-0.17578125
2106,-0.95703125,0.125,-0.171875
2107,-0.9453125,0.125,-0.18359375
2108,-0.953125,0.1171875,-0.17578125
2109,-0.953125,0.13671875,-0.17578125
2110,-0.95703125,0.1328125,-0.16796875
2111,-0.95703125,0.12890625,-0.18359375
2112,-0.94921875,0.125,-0.171875
2113,-0.95703125,0.1171875,-0.1640625
2114,-0.953125,0.125,-0.17578125
2115,-0.94921875,0.125,-0.171875
2116,-0.94140625,0.12109375,-0.17578125
2117,-0.9375,0.12890625,-0.17578125
2118,-0.95703125,0.1328125,-0.16796875
2119,-0.953125,0.12109375,-0.171875
2120,-0.9453125,0.1171875,-0.17578125
2121,-0.94921875,0.1328125,-0.17578125
2122,-0.953125,0.12890625,-0.17578125
2123,-0.953125,0.12109375,-0.17578125
2124,-0.953125,0.125,-0.1796875
2125,-0.95703125,0.13671875,-0.1640625
2126,-0.9609375,0.1328125,-0.1796875
2127,-0.94921875,0.1328125,-0.18359375
2128,-0.953125,0.125,-0.171875
2129,-0.9453125,0.11328125,-0.18359375
2130,-0.94921875,0.12109375,-0.171875
2131,-0.94921875,0.12109375,-0.17578125
2132,-0.953125,0.125,-0.171875
2133,-0.9453125,0.125,-0.1640625
2134,-0.94140625,0.12109375,-0.171875
2135,-0.94921875,0.125,-0.19140625
2136,-0.953125,0.1328125,-0.17578125
2137,-0.9609375,0.125,-0.171875
2138,-0.94140625,0.109375,-0.17578125
2139,-0.953125,0.13671875,-0.17578125
2140,-0.94140625,0.125,-0.17578125
2141,-0.94921875,0.1328125,-0.17578125
2142,-0.953125,0.12890625,-0.16796875
2143,-0.94921875,0.1328125,-0.16796875
2144,-0.94921875,0.12890625,-0.1640625
2145,-0.9375,0.1171875,-0.16796875
2146,-0.94921875,0.125,-0.1640625
2147,-0.9609375,0.12109375,-0.1796875
2148,-0.94921875,0.1328125,-0.18359375
2149,-0.94921875,0.1328125,-0.16796875
2150,-0.9375,0.12890625,-0.1875
2151,-0.95703125,0.125,-0.1875
2152,-0.94921875,0.13671875,-0.19140625
2153,-0.95703125,0.13671875,-0.1875
2154,-0.95703125,0.1171875,-0.17578125
2155,-0.94921875,0.125,-0.17578125
2156,-0.94921875,0.12890625,-0.16796875
2157,-0.953125,0.11328125,-0.18359375
2158,-0.94921875,0.1171875,-0.14453125
2159,-0.9609375,0.12109375,-0.1640625
2160,-0.953125,0.12890625,-0.1640625
2161,-0.94921875,0.12890625,-0.17578125
2162,-0.953125,0.125,-0.1640625
2163,-0.94140625,0.10546875,-0.1640625
2164,-0.94921875,0.109375,-0.1640625
2165,-0.953125,0.1328125,-0.171875
2166,-0.96875,0.140625,-0.1796875
2167,-0.953125,0.1328125,-0.18359375
2168,-0.9609375,0.1484375,-0.16015625
2169,-0.94921875,0.12890625,-0.1953125
2170,-0.9453125,0.125,-0.19140625
2171,-0.95703125,0.12109375,-0.1796875
2172,-0.9453125,0.12109375,-0.17578125
2173,-0.94921875,0.1328125,-0.18359375
2174,-0.96484375,0.12109375,-0.1796875
2175,-0.953125,0.1328125,-0.171875
2176,-0.9453125,0.1328125,-0.1875
2177,-0.95703125,0.1328125,-0.18359375
2178,-0.95703125,0.12890625,-0.17578125
2179,-0.95703125,0.13671875,-0.171875
2180,-0.94921875,0.140625,-0.171875
2181,-0.95703125,0.12890625,-0.19140625
2182,-0.94921875,0.12109375,-0.171875
2183,-0.96484375,0.140625,-0.18359375
2184,-0.95703125,0.12890625,-0.171875
2185,-0.95703125,0.1328125,-0.1640625
2186,-0.94921875,0.125,-0.16015625
2187,-0.94921875,0.1328125,-0.171875
2188,-0.94921875,0.12109375,-0.171875
2189,-0.9375,0.12109375,-0.17578125
2190,-0.94921875,0.12890625,-0.16796875
2191,-0.9453125,0.13671875,-0.171875
2192,-0.95703125,0.14453125,-0.16796875
2193,-0.94140625,0.12890625,-0.1796875
2194,-0.94921875,0.14453125,-0.15234375
2195,-0.953125,0.1328125,-0.16796875
2196,-0.9375,0.125,-0.1640625
2197,-0.94140625,0.13671875,-0.171875
2198,-0.9375,0.1328125,-0.1875
2199,-0.9453125,0.12109375,-0.17578125
2200,-0.953125,0.13671875,-0.16796875
2201,-0.94921875,0.1171875,-0.16796875
2202,-0.953125,0.13671875,-0.171875
2203,-0.953125,0.125,-0.17578125
2204,-0.95703125,0.12890625,-0.1796875
2205,-0.953125,0.140625,-0.16796875
2206,-0.953125,0.12890625,-0.171875
2207,-0.96484375,0.12109375,-0.17578125
2208,-0.953125,0.125,-0.17578125
2209,-0.94921875,0.1328125,-0.171875
2210,-0.94921875,0.12890625,-0.18359375
2211,-0.953125,0.125,-0.1796875
2212,-0.95703125,0.125,-0.15234375
2213,-0.94921875,0.1171875,-0.17578125
2214,-0.9453125,0.12890625,-0.17578125
2215,-0.94921875,0.12109375,-0.1640625
2216,-0.95703125,0.12109375,-0.18359375
2217,-0.94921875,0.12109375,-0.171875
2218,-0.953125,0.1328125,-0.16796875
2219,-0.94921875,0.1328125,-0.17578125
2220,-0.9453125,0.12890625,-0.16015625
2221,-0.93359375,0.13671875,-0.1875
2222,-0.953125,0.140625,-0.16796875
2223,-0.9453125,0.12890625,-0.16015625
2224,-0.95703125,0.13671875,-0.17578125
2225,-0.95703125,0.14453125,-0.16015625
2226,-0.953125,0.125,-0.1640625
2227,-0.953125,0.125,-0.171875
2228,-0.9375,0.11328125,-0.1640625
2229,-0.9453125,0.125,-0.1640625
2230,-0.9453125,0.125,-0.17578125
2231,-0.9453125,0.125,-0.15625
2232,-0.94140625,0.125,-0.171875
2233,-0.9453125,0.12109375,-0.1796875
2234,-0.9609375,0.125,-0.1640625
2235,-0.9453125,0.12890625,-0.16796875
2236,-0.94921875,0.12890625,-0.171875
2237,-0.9453125,0.125,-0.1875
2238,-0.9609375,0.13671875,-0.1875
2239,-0.953125,0.13671875,-0.16796875
2240,-0.953125,0.1171875,-0.1640625
2241,-0.96875,0.14453125,-0.1640625
2242,-0.9453125,0.1328125,-0.1640625
2243,-0.953125,0.1328125,-0.17578125
2244,-0.9609375,0.1328125,-0.1796875
2245,-0.95703125,0.12890625,-0.15625
2246,-0.9453125,0.125,-0.16796875
2247,-0.9453125,0.12890625,-0.171875
2248,-0.9609375,0.14453125,-0.16015625
2249,-0.9453125,0.12890625,-0.17578125
2250,-0.953125,0.12109375,-0.16796875
2251,-0.94921875,0.1328125,-0.1640625
2252,-0.95703125,0.1328125,-0.16015625
2253,-0.953125,0.125,-0.171875
2254,-0.95703125,0.1328125,-0.171875
2255,-0.953125,0.12890625,-0.171875
2256,-0.9453125,0.14453125,-0.18359375
2257,-0.9453125,0.125,-0.1640625
2258,-0.95703125,0.12890625,-0.17578125
2259,-0.94921875,0.12890625,-0.1796875
2260,-0.9609375,0.12890625,-0.16015625
2261,-0.953125,0.13671875,-0.1640625
2262,-0.9453125,0.1171875,-0.171875
2263,-0.953125,0.125,-0.1640625
2264,-0.953125,0.12890625,-0.1796875
2265,-0.94921875,0.12109375,-0.1796875
2266,-0.953125,0.1328125,-0.16796875
2267,-0.9609375,0.1328125,-0.171875
2268,-0.94921875,0.1328125,-0.15625
2269,-0.94921875,0.125,-0.171875
2270,-0.95703125,0.12890625,-0.16796875
2271,-0.9453125,0.125,-0.18359375
2272,-0.9609375,0.12109375,-0.15234375
2273,-0.953125,0.13671875,-0.16015625
2274,-0.953125,0.140625,-0.16796875
2275,-0.953125,0.125,-0.171875
2276,-0.95703125,0.1328125,-0.16015625
2277,-0.953125,0.140625,-0.17578125
2278,-0.94921875,0.12890625,-0.16015625
2279,-0.953125,0.1328125,-0.17578125
2280,-0.9453125,0.12109375,-0.16796875
2281,-0.95703125,0.125,-0.15625
2282,-0.94921875,0.1328125,-0.17578125
2283,-0.94921875,0.1328125,-0.203125
2284,-0.94921875,0.125,-0.16015625
2285,-0.94921875,0.12890625,-0.16796875
2286,-0.953125,0.125,-0.17578125
2287,-0.95703125,0.1328125,-0.1875
2288,-0.9453125,0.125,-0.171875
2289,-0.94921875,0.12890625,-0.16796875
2290,-0.9453125,0.125,-0.171875
2291,-0.9453125,0.125,-0.16796875
2292,-0.953125,0.1171875,-0.1875
2293,-0.94921875,0.12890625,-0.18359375
2294,-0.9453125,0.125,-0.1328125
2295,-0.953125,0.12890625,-0.17578125
2296,-0.9609375,0.140625,-0.16796875
2297,-0.94921875,0.1171875,-0.1484375
2298,-0.93359375,0.12890625,-0.171875
2299,-0.953125,0.12109375,-0.1875
2300,-0.95703125,0.13671875,-0.16796875
2301,-0.9453125,0.12890625,-0.17578125
2302,-0.953125,0.12890625,-0.16796875
2303,-0.953125,0.12890625,-0.17578125
2304,-0.9453125,0.125,-0.17578125
2305,-0.94140625,0.13671875,-0.1640625
2306,-0.9453125,0.1171875,-0.1796875
2307,-0.953125,0.125,-0.17578125
2308,-0.953125,0.1328125,-0.171875
2309,-0.96875,0.13671875,-0.17578125
2310,-0.9375,0.12890625,-0.19140625
2311,-0.953125,0.1171875,-0.16796875
2312,-0.953125,0.1171875,-0.171875
2313,-0.94921875,0.12109375,-0.17578125
2314,-0.953125,0.12890625,-0.1875
2315,-0.953125,0.15625,-0.1875
2316,-0.96484375,0.125,-0.17578125
2317,-0.94921875,0.125,-0.16015625
2318,-0.95703125,0.1328125,-0.17578125
2319,-0.96484375,0.1328125,-0.1796875
2320,-0.9609375,0.1328125,-0.1796875
2321,-0.95703125,0.12109375,-0.1953125
2322,-0.94921875,0.125,-0.18359375
2323,-0.953125,0.125,-0.1796875
2324,-0.95703125,0.10546875,-0.17578125
2325,-0.94921875,0.09765625,-0.16796875
2326,-0.9296875,0.09375,-0.19140625
2327,-0.94140625,0.1171875,-0.1875
2328,-0.94140625,0.1171875,-0.171875
2329,-0.94140625,0.1171875,-0.17578125
2330,-0.94921875,0.1171875,-0.1953125
2331,-0.953125,0.125,-0.1796875
2332,-0.94921875,0.11328125,-0.1640625
2333,-0.95703125,0.125,-0.19140625
2334,-0.9609375,0.1328125,-0.19140625
2335,-0.9609375,0.12890625,-0.1953125
2336,-0.953125,0.1328125,-0.1875
2337,-0.91796875,0.12890625,-0.1796875
2338,-0.9453125,0.1171875,-0.203125
2339,-0.95703125,0.12890625,-0.1875
2340,-0.95703125,0.11328125,-0.1953125
2341,-0.95703125,0.125,-0.19140625
2342,-0.953125,0.12109375,-0.17578125
2343,-0.9453125,0.12109375,-0.19140625
2344,-0.94921875,0.12109375,-0.1796875
2345,-0.953125,0.1171875,-0.171875
2346,-0.94921875,0.12890625,-0.17578125
2347,-0.99609375,0.12890625,-0.203125
2348,-0.95703125,0.125,-0.16015625
2349,-0.96484375,0.12890625,-0.19140625
2350,-0.94140625,0.12890625,-0.17578125
2351,-0.953125,0.1171875,-0.1796875
2352,-0.94921875,0.12890625,-0.1875
2353,-0.96875,0.125,-0.1875
2354,-0.95703125,0.12890625,-0.18359375
2355,-0.94921875,0.12109375,-0.1796875
2356,-0.9453125,0.125,-0.171875
2357,-0.96875,0.12890625,-0.19921875
2358,-0.99609375,0.109375,-0.1484375
2359,-0.94921875,0.1328125,-0.171875
2360,-0.94921875,0.13671875,-0.1953125
2361,-0.9453125,0.125,-0.1796875
2362,-0.9609375,0.12890625,-0.1796875
2363,-0.9609375,0.1171875,-0.2109375
2364,-0.9453125,0.12109375,-0.1875
2365,-0.94921875,0.125,-0.1875
2366,-0.94921875,0.125,-0.1875
2367,-0.9609375,0.125,-0.19140625
2368,-0.94921875,0.11328125,-0.19140625
2369,-0.92578125,0.15625,-0.1875
2370,-0.94921875,0.11328125,-0.1796875
2371,-0.953125,0.1171875,-0.1953125
2372,-0.9453125,0.109375,-0.19140625
2373,-0.94921875,0.11328125,-0.1875
2374,-0.953125,0.1171875,-0.18359375
2375,-0.9609375,0.125,-0.1875
2376,-0.95703125,0.125,-0.203125
2377,-0.95703125,0.1171875,-0.16796875
2378,-0.95703125,0.12109375,-0.203125
2379,-0.96484375,0.1015625,-0.17578125
2380,-0.94921875,0.11328125,-0.19140625
2381,-0.953125,0.11328125,-0.203125
2382,-0.95703125,0.1171875,-0.1875
2383,-0.953125,0.125,-0.19140625
2384,-0.95703125,0.1171875,-0.1875
2385,-0.9609375,0.1171875,-0.1953125
2386,-0.95703125,0.11328125,-0.1640625
2387,-0.9453125,0.12890625,-0.171875
2388,-0.95703125,0.125,-0.17578125
2389,-0.953125,0.1171875,-0.19921875
2390,-0.96484375,0.12109375,-0.18359375
2391,-0.953125,0.1171875,-0.18359375
2392,-0.95703125,0.12109375,-0.1796875
2393,-0.953125,0.11328125,-0.19140625
2394,-0.94140625,0.12109375,-0.19921875
2395,-0.9453125,0.11328125,-0.1953125
2396,-0.94921875,0.12109375,-0.1796875
2397,-0.9453125,0.125,-0.203125
2398,-0.95703125,0.11328125,-0.1953125
2399,-0.953125,0.1171875,-0.19140625
2400,-0.953125,0.12109375,-0.1875
2401,-0.953125,0.12109375,-0.17578125
2402,-0.95703125,0.12890625,-0.17578125
2403,-0.96484375,0.12890625,-0.19140625
2404,-0.94921875,0.1171875,-0.17578125
2405,-0.9609375,0.125,-0.1875
2406,-0.95703125,0.12890625,-0.1875
2407,-0.95703125,0.12890625,-0.171875
2408,-0.96484375,0.11328125,-0.18359375
2409,-0.9453125,0.12109375,-0.18359375
2410,-0.9453125,0.12109375,-0.1796875
2411,-0.95703125,0.11328125,-0.1875
2412,-0.94140625,0.10546875,-0.1796875
2413,-0.94921875,0.12109375,-0.19140625
2414,-0.9453125,0.11328125,-0.1796875
2415,-0.9453125,0.12109375,-0.1875
2416,-0.94921875,0.12109375,-0.19140625
2417,-0.953125,0.125,-0.19140625
2418,-0.95703125,0.12890625,-0.1875
2419,-0.9453125,0.125,-0.171875
2420,-0.953125,0.11328125,-0.17578125
2421,-0.953125,0.1171875,-0.19921875
2422,-0.95703125,0.12109375,-0.1875
2423,-0.94921875,0.1171875,-0.1953125
2424,-0.9453125,0.11328125,-0.18359375
2425,-0.94921875,0.1015625,-0.18359375
2426,-0.9453125,0.109375,-0.1953125
2427,-0.953125,0.109375,-0.1875
2428,-0.95703125,0.125,-0.1875
2429,-0.95703125,0.125,-0.18359375
2430,-0.9609375,0.11328125,-0.19140625
2431,-0.9453125,0.11328125,-0.18359375
2432,-0.9453125,0.11328125,-0.203125
2433,-0.95703125,0.1171875,-0.1953125
2434,-0.953125,0.11328125,-0.18359375
2435,-0.953125,0.11328125,-0.21484375
2436,-0.95703125,0.12890625,-0.1875
2437,-0.95703125,0.12109375,-0.19140625
2438,-0.94140625,0.11328125,-0.203125
2439,-0.9609375,0.11328125,-0.19921875
2440,-0.953125,0.109375,-0.1796875
2441,-0.953125,0.109375,-0.19140625
2442,-0.953125,0.11328125,-0.1953125
2443,-0.95703125,0.1171875,-0.18359375
2444,-0.953125,0.1171875,-0.19921875
2445,-0.953125,0.12109375,-0.1953125
2446,-0.96875,0.125,-0.1875
2447,-0.9609375,0.12109375,-0.20703125
2448,-0.9609375,0.12890625,-0.1953125
2449,-0.953125,0.12109375,-0.203125
2450,-0.96875,0.12109375,-0.1796875
2451,-0.94140625,0.125,-0.18359375
2452,-0.94921875,0.1171875,-0.19140625
2453,-0.953125,0.12109375,-0.1875
2454,-0.9609375,0.12890625,-0.203125
2455,-0.9609375,0.1171875,-0.19140625
2456,-0.953125,0.125,-0.19140625
2457,-0.953125,0.1171875,-0.19921875
2458,-0.94921875,0.109375,-0.1875
2459,-0.953125,0.10546875,-0.19921875
2460,-0.94921875,0.1171875,-0.1875
2461,-0.95703125,0.11328125,-0.18359375
2462,-0.9453125,0.11328125,-0.19140625
2463,-0.9453125,0.109375,-0.19140625
2464,-0.9609375,0.109375,-0.1875
2465,-0.9609375,0.12890625,-0.1875
2466,-0.9609375,0.125,-0.17578125
2467,-0.94921875,0.11328125,-0.17578125
2468,-0.9609375,0.12890625,-0.1875
2469,-0.953125,0.109375,-0.18359375
2470,-0.953125,0.11328125,-0.1875
2471,-0.953125,0.12109375,-0.1875
2472,-0.96484375,0.12890625,-0.19921875
2473,-0.96484375,0.125,-0.1796875
2474,-0.953125,0.125,-0.19140625
2475,-0.9609375,0.125,-0.19140625
2476,-0.96484375,0.1328125,-0.203125
2477,-0.95703125,0.140625,-0.19921875
2478,-0.9609375,0.12109375,-0.203125
2479,-0.94921875,0.11328125,-0.1875
2480,-0.953125,0.11328125,-0.1875
2481,-0.94921875,0.11328125,-0.1875
2482,-0.9453125,0.10546875,-0.1953125
2483,-0.953125,0.109375,-0.19140625
2484,-0.9453125,0.11328125,-0.1953125
2485,-0.94921875,0.1171875,-0.171875
2486,-0.94140625,0.1171875,-0.171875
2487,-0.953125,0.1171875,-0.1875
2488,-0.94921875,0.10546875,-0.1953125
2489,-0.94921875,0.125,-0.1875
2490,-0.94140625,0.109375,-0.18359375
2491,-0.9609375,0.125,-0.1796875
2492,-0.9609375,0.13671875,-0.203125
2493,-0.95703125,0.12890625,-0.1953125
2494,-0.96484375,0.12109375,-0.19140625
2495,-0.94921875,0.12890625,-0.1953125
2496,-0.94921875,0.1171875,-0.19140625
2497,-0.953125,0.13671875,-0.1953125
2498,-0.953125,0.12109375,-0.18359375
2499,-0.9609375,0.125,-0.1875
2500,-0.9375,0.12109375,-0.1875
2501,-0.953125,0.1328125,-0.1796875
2502,-0.953125,0.12109375,-0.19140625
2503,-0.96484375,0.125,-0.1875
2504,-0.9609375,0.12890625,-0.1796875
2505,-0.9609375,0.1171875,-0.1875
2506,-0.96484375,0.1171875,-0.18359375
2507,-0.95703125,0.12890625,-0.19140625
2508,-0.95703125,0.125,-0.1953125
2509,-0.9609375,0.140625,-0.17578125
2510,-0.94921875,0.1328125,-0.171875
2511,-0.96484375,0.1328125,-0.17578125
2512,-0.94921875,0.125,-0.1796875
2513,-0.953125,0.11328125,-0.17578125
2514,-0.953125,0.13671875,-0.16796875
2515,-0.95703125,0.13671875,-0.171875
2516,-0.9375,0.1328125,-0.17578125
2517,-0.953125,0.125,-0.171875
2518,-0.95703125,0.125,-0.1953125
2519,-0.9453125,0.1328125,-0.18359375
2520,-0.94140625,0.125,-0.17578125
2521,-0.9453125,0.125,-0.18359375
2522,-0.9453125,0.1328125,-0.16796875
2523,-0.9453125,0.1171875,-0.203125
2524,-0.95703125,0.12109375,-0.1953125
2525,-0.9453125,0.12109375,-0.1796875
2526,-0.95703125,0.1328125,-0.1796875
2527,-0.953125,0.125,-0.1875
2528,-0.96484375,0.1328125,-0.18359375
2529,-0.9609375,0.125,-0.1875
2530,-0.94921875,0.13671875,-0.19140625
2531,-0.95703125,0.140625,-0.1953125
2532,-0.9453125,0.140625,-0.18359375
2533,-0.95703125,0.125,-0.17578125
2534,-0.953125,0.1171875,-0.1953125
2535,-0.953125,0.12890625,-0.19140625
2536,-0.94921875,0.109375,-0.171875
2537,-0.9453125,0.11328125,-0.17578125
2538,-0.96484375,0.12109375,-0.171875
2539,-0.94921875,0.1328125,-0.1796875
2540,-0.94921875,0.109375,-0.1796875
2541,-0.953125,0.1328125,-0.1875
2542,-0.95703125,0.125,-0.17578125
2543,-0.9609375,0.12890625,-0.1796875
2544,-0.94140625,0.109375,-0.18359375
2545,-0.9453125,0.11328125,-0.16015625
2546,-0.94921875,0.12890625,-0.16015625
2547,-0.94921875,0.1328125,-0.18359375
2548,-0.953125,0.125,-0.1875
2549,-0.94140625,0.109375,-0.18359375
2550,-0.95703125,0.11328125,-0.18359375
2551,-0.95703125,0.12109375,-0.16796875
2552,-0.953125,0.125,-0.16796875
2553,-0.953125,0.11328125,-0.1796875
2554,-0.953125,0.125,-0.17578125
2555,-0.953125,0.12890625,-0.18359375
2556,-0.95703125,0.12109375,-0.17578125
2557,-0.95703125,0.12109375,-0.17578125
2558,-0.95703125,0.125,-0.18359375
2559,-0.94140625,0.12890625,-0.171875
2560,-0.953125,0.1328125,-0.18359375
2561,-0.94921875,0.1328125,-0.1953125
2562,-0.95703125,0.12890625,-0.1796875
2563,-0.94921875,0.12109375,-0.17578125
2564,-0.953125,0.14453125,-0.17578125
2565,-0.95703125,0.140625,-0.17578125
2566,-0.9609375,0.12109375,-0.1796875
2567,-0.95703125,0.125,-0.16015625
2568,-0.953125,0.1328125,-0.18359375
2569,-0.9609375,0.1328125,-0.18359375
2570,-0.94921875,0.12890625,-0.19140625
2571,-0.953125,0.125,-0.17578125
2572,-0.95703125,0.125,-0.171875
2573,-0.9453125,0.125,-0.171875
2574,-0.94140625,0.1171875,-0.1796875
2575,-0.94921875,0.12109375,-0.171875
2576,-0.94921875,0.12890625,-0.1796875
2577,-0.94921875,0.140625,-0.1796875
2578,-0.953125,0.1328125,-0.17578125
2579,-0.94921875,0.13671875,-0.171875
2580,-0.94921875,0.12890625,-0.1875
2581,-0.96484375,0.15234375,-0.19140625
2582,-0.94921875,0.125,-0.16796875
2583,-0.94921875,0.140625,-0.1796875
2584,-0.953125,0.1328125,-0.16796875
2585,-0.95703125,0.1328125,-0.16796875
2586,-0.9609375,0.125,-0.1796875
2587,-0.94921875,0.125,-0.171875
2588,-0.96484375,0.125,-0.16796875
2589,-0.94921875,0.1171875,-0.18359375
2590,-0.94921875,0.12109375,-0.17578125
2591,-0.95703125,0.12890625,-0.17578125
2592,-0.953125,0.12109375,-0.1796875
2593,-0.94140625,0.1171875,-0.17578125
2594,-0.953125,0.125,-0.16796875
2595,-0.953125,0.1328125,-0.171875
2596,-0.9609375,0.12890625,-0.1796875
2597,-0.9453125,0.12109375,-0.17578125
2598,-0.94921875,0.11328125,-0.17578125
2599,-0.9453125,0.125,-0.1796875
2600,-0.953125,0.12890625,-0.171875
2601,-0.953125,0.12890625,-0.171875
2602,-0.95703125,0.1328125,-0.17578125
2603,-0.95703125,0.125,-0.17578125
2604,-0.95703125,0.125,-0.16015625
2605,-0.94921875,0.12890625,-0.16796875
2606,-0.94921875,0.125,-0.1640625
2607,-0.953125,0.1328125,-0.1796875
2608,-0.96484375,0.125,-0.1640625
2609,-0.9453125,0.1328125,-0.1875
2610,-0.96484375,0.140625,-0.17578125
2611,-0.953125,0.12109375,-0.18359375
2612,-0.94140625,0.12890625,-0.17578125
2613,-0.953125,0.125,-0.171875
2614,-0.95703125,0.125,-0.1640625
2615,-0.953125,0.12890625,-0.16796875
2616,-0.94921875,0.12109375,-0.1640625
2617,-0.95703125,0.125,-0.171875
2618,-0.95703125,0.12890625,-0.1640625
2619,-0.94921875,0.12109375,-0.18359375
2620,-0.94140625,0.12890625,-0.171875
2621,-0.9453125,0.1328125,-0.16796875
2622,-0.9453125,0.13671875,-0.16796875
2623,-0.953125,0.12890625,-0.171875
2624,-0.953125,0.12890625,-0.171875
2625,-0.94921875,0.12890625,-0.1640625
2626,-0.9375,0.12890625,-0.16796875
2627,-0.9453125,0.1171875,-0.16796875
2628,-0.95703125,0.12890625,-0.171875
2629,-0.9375,0.12109375,-0.1640625
2630,-0.95703125,0.140625,-0.15625
2631,-0.9453125,0.125,-0.17578125
2632,-0.953125,0.1171875,-0.1640625
2633,-0.94921875,0.12890625,-0.171875
2634,-0.953125,0.12890625,-0.1640625
2635,-0.94140625,0.12890625,-0.171875
2636,-0.94921875,0.12109375,-0.16796875
2637,-0.97265625,0.1328125,-0.16796875
2638,-0.96484375,0.1328125,-0.16796875
2639,-0.94921875,0.1328125,-0.1875
2640,-0.9609375,0.13671875,-0.16796875
2641,-0.94921875,0.13671875,-0.1796875
2642,-0.953125,0.1171875,-0.16796875
2643,-0.95703125,0.125,-0.16796875
2644,-0.94140625,0.1328125,-0.171875
2645,-0.953125,0.12109375,-0.15625
2646,-0.94140625,0.12109375,-0.1640625
2647,-0.94921875,0.125,-0.1640625
2648,-0.95703125,0.12890625,-0.17578125
2649,-0.953125,0.125,-0.16015625
2650,-0.97265625,0.1328125,-0.17578125
2651,-0.95703125,0.12890625,-0.1640625
2652,-0.94921875,0.12890625,-0.1640625
2653,-0.953125,0.12109375,-0.171875
2654,-0.9453125,0.12109375,-0.17578125
2655,-0.95703125,0.13671875,-0.1640625
2656,-0.94140625,0.13671875,-0.17578125
2657,-0.9453125,0.1328125,-0.17578125
2658,-0.94921875,0.12890625,-0.171875
2659,-0.953125,0.125,-0.18359375
2660,-0.96875,0.1328125,-0.171875
2661,-0.953125,0.12890625,-0.16796875
2662,-0.94921875,0.12890625,-0.1796875
2663,-0.94921875,0.140625,-0.171875
2664,-0.95703125,0.12890625,-0.17578125
2665,-0.9609375,0.12109375,-0.16796875
2666,-0.96875,0.12890625,-0.16015625
2667,-0.94921875,0.140625,-0.17578125
2668,-0.96484375,0.12890625,-0.171875
2669,-0.94921875,0.13671875,-0.17578125
2670,-0.953125,0.13671875,-0.171875
2671,-0.94921875,0.1171875,-0.1640625
2672,-0.9609375,0.13671875,-0.1796875
2673,-0.94140625,0.1328125,-0.1796875
2674,-0.95703125,0.1328125,-0.171875
2675,-0.9609375,0.14453125,-0.16015625
2676,-0.94921875,0.12890625,-0.15234375
2677,-0.9453125,0.1328125,-0.1640625
2678,-0.94921875,0.125,-0.171875
2679,-0.9453125,0.12890625,-0.15234375
2680,-0.953125,0.12890625,-0.17578125
2681,-0.94140625,0.12890625,-0.15625
2682,-0.9375,0.125,-0.18359375
2683,-0.96484375,0.13671875,-0.16796875
2684,-0.94921875,0.140625,-0.16015625
2685,-0.953125,0.140625,-0.15625
2686,-0.94921875,0.125,-0.16015625
2687,-0.9453125,0.12890625,-0.1640625
2688,-0.953125,0.125,-0.171875
2689,-0.94921875,0.140625,-0.15625
2690,-0.9609375,0.1328125,-0.16796875
2691,-0.95703125,0.12890625,-0.1640625
2692,-0.9609375,0.1328125,-0.16015625
2693,-0.9609375,0.140625,-0.171875
2694,-0.95703125,0.1328125,-0.171875
2695,-0.95703125,0.125,-0.16015625
2696,-0.9375,0.125,-0.16015625
2697,-0.9609375,0.12890625,-0.1640625
2698,-0.94921875,0.1328125,-0.1640625
2699,-0.94921875,0.12890625,-0.16796875
2700,-0.94921875,0.12109375,-0.16796875
2701,-0.953125,0.12890625,-0.1796875
2702,-0.94921875,0.12109375,-0.17578125
2703,-0.94921875,0.1328125,-0.16796875
2704,-0.94921875,0.125,-0.171875
2705,-0.95703125,0.13671875,-0.16015625
2706,-0.9375,0.1328125,-0.1640625
2707,-0.96484375,0.13671875,-0.16015625
2708,-0.95703125,0.1328125,-0.16015625
2709,-0.9375,0.125,-0.16796875
2710,-0.95703125,0.1328125,-0.1640625
2711,-0.94921875,0.12890625,-0.15625
2712,-0.94921875,0.1171875,-0.16796875
2713,-0.94921875,0.12890625,-0.1640625
2714,-0.95703125,0.12890625,-0.15625
2715,-0.953125,0.12890625,-0.171875
2716,-0.953125,0.13671875,-0.16796875
2717,-0.953125,0.13671875,-0.15234375
2718,-0.953125,0.13671875,-0.16015625
2719,-0.953125,0.1328125,-0.15234375
2720,-0.9375,0.125,-0.16015625
2721,-0.9453125,0.13671875,-0.16015625
2722,-0.94921875,0.1328125,-0.16796875
2723,-0.953125,0.12890625,-0.16015625
2724,-0.9609375,0.12890625,-0.16796875
2725,-0.94921875,0.140625,-0.16015625
2726,-0.95703125,0.14453125,-0.1640625
2727,-0.953125,0.13671875,-0.171875
2728,-0.93359375,0.1171875,-0.15625
2729,-0.9609375,0.13671875,-0.1484375
2730,-0.953125,0.1328125,-0.17578125
2731,-0.953125,0.125,-0.16015625
2732,-0.94140625,0.13671875,-0.17578125
2733,-0.9296875,0.12890625,-0.1640625
2734,-0.953125,0.12890625,-0.16015625
2735,-0.9375,0.12890625,-0.16015625
2736,-0.94921875,0.13671875,-0.17578125
2737,-0.953125,0.13671875,-0.15625
2738,-0.9453125,0.1328125,-0.15625
2739,-0.94921875,0.12890625,-0.16015625
2740,-0.953125,0.1328125,-0.171875
2741,-0.953125,0.12890625,-0.17578125
2742,-0.953125,0.13671875,-0.16796875
2743,-0.94140625,0.1328125,-0.1640625
2744,-0.95703125,0.125,-0.15625
2745,-0.94921875,0.12890625,-0.15625
2746,-0.9453125,0.125,-0.16796875
2747,-0.953125,0.14453125,-0.16015625
2748,-0.94140625,0.1328125,-0.17578125
2749,-0.953125,0.12890625,-0.16015625
2750,-0.953125,0.12890625,-0.1640625
2751,-0.95703125,0.1328125,-0.16796875
2752,-0.94921875,0.1328125,-0.17578125
2753,-0.94921875,0.1171875,-0.16015625
2754,-0.95703125,0.140625,-0.17578125
2755,-0.92578125,0.12109375,-0.16796875
2756,-0.94921875,0.12890625,-0.171875
2757,-0.94921875,0.1171875,-0.17578125
2758,-0.9453125,0.12890625,-0.15625
2759,-0.94921875,0.125,-0.15625
2760,-0.953125,0.12109375,-0.16015625
2761,-0.953125,0.140625,-0.16796875
2762,-0.9609375,0.1328125,-0.16796875
2763,-0.9609375,0.13671875,-0.1640625
2764,-0.953125,0.1328125,-0.18359375
2765,-0.94921875,0.13671875,-0.171875
2766,-0.9453125,0.12890625,-0.1796875
2767,-0.9453125,0.1171875,-0.1640625
2768,-0.94921875,0.12890625,-0.171875
2769,-0.9453125,0.12890625,-0.1640625
2770,-0.94921875,0.1328125,-0.1484375
2771,-0.94140625,0.12890625,-0.17578125
2772,-0.94921875,0.1328125,-0.16015625
2773,-0.94921875,0.140625,-0.1484375
2774,-0.9609375,0.1328125,-0.171875
2775,-0.95703125,0.140625,-0.171875
2776,-0.953125,0.14453125,-0.17578125
2777,-0.95703125,0.125,-0.16796875
2778,-0.94921875,0.1328125,-0.171875
2779,-0.95703125,0.13671875,-0.1796875
2780,-0.95703125,0.1328125,-0.171875
2781,-0.953125,0.13671875,-0.16796875
2782,-0.95703125,0.1328125,-0.1640625
2783,-0.94921875,0.12890625,-0.16015625
2784,-0.953125,0.12890625,-0.16015625
2785,-0.94140625,0.1328125,-0.16015625
2786,-0.94921875,0.12890625,-0.16015625
2787,-0.9453125,0.1328125,-0.171875
2788,-0.95703125,0.13671875,-0.13671875
2789,-0.953125,0.12890625,-0.1640625
2790,-0.9609375,0.13671875,-0.17578125
2791,-0.94921875,0.1328125,-0.1640625
2792,-0.95703125,0.125,-0.15625
2793,-0.9453125,0.12890625,-0.171875
2794,-0.953125,0.1328125,-0.17578125
2795,-0.9453125,0.13671875,-0.1640625
2796,-0.94921875,0.12890625,-0.171875
2797,-0.9375,0.11328125,-0.18359375
2798,-0.94921875,0.1171875,-0.1640625
2799,-0.9453125,0.1328125,-0.14453125
2800,-0.953125,0.12890625,-0.1640625
2801,-0.953125,0.125,-0.17578125
2802,-0.95703125,0.1484375,-0.18359375
2803,-0.96484375,0.1484375,-0.1796875
2804,-0.953125,0.140625,-0.1796875
2805,-0.96875,0.1328125,-0.1796875
2806,-0.95703125,0.125,-0.16796875
2807,-0.9453125,0.1328125,-0.15625
2808,-0.9453125,0.12109375,-0.16015625
2809,-0.95703125,0.12109375,-0.17578125
2810,-0.94140625,0.125,-0.16796875
2811,-0.9609375,0.125,-0.16796875
2812,-0.95703125,0.125,-0.15234375
2813,-0.9375,0.11328125,-0.1875
2814,-0.94921875,0.12890625,-0.1640625
2815,-0.9609375,0.12890625,-0.17578125
2816,-0.94921875,0.1171875,-0.1640625
2817,-0.9453125,0.12109375,-0.16796875
2818,-0.94921875,0.125,-0.18359375
2819,-0.9453125,0.12109375,-0.171875
2820,-0.95703125,0.12890625,-0.18359375
2821,-0.96484375,0.13671875,-0.17578125
2822,-0.94921875,0.1328125,-0.171875
2823,-0.9453125,0.125,-0.16796875
2824,-0.9609375,0.1328125,-0.1796875
2825,-0.9609375,0.12890625,-0.1796875
2826,-0.9453125,0.1171875,-0.18359375
2827,-0.9453125,0.12890625,-0.16796875
2828,-0.94921875,0.13671875,-0.171875
2829,-0.94921875,0.125,-0.17578125
2830,-0.95703125,0.13671875,-0.16015625
2831,-0.94921875,0.12109375,-0.17578125
2832,-0.96875,0.13671875,-0.1640625
2833,-0.9609375,0.1328125,-0.171875
2834,-0.953125,0.1328125,-0.1796875
2835,-0.95703125,0.140625,-0.16796875
2836,-0.9609375,0.13671875,-0.17578125
2837,-0.9453125,0.125,-0.171875
2838,-0.9453125,0.12890625,-0.171875
2839,-0.953125,0.1328125,-0.18359375
2840,-0.953125,0.12890625,-0.171875
2841,-0.95703125,0.1328125,-0.171875
2842,-0.94140625,0.12109375,-0.171875
2843,-0.94140625,0.125,-0.1640625
2844,-0.9453125,0.13671875,-0.1796875
2845,-0.95703125,0.1328125,-0.17578125
2846,-0.94921875,0.125,-0.1640625
2847,-0.9609375,0.12890625,-0.171875
2848,-0.953125,0.1328125,-0.16796875
2849,-0.953125,0.12890625,-0.12890625
2850,-0.9453125,0.125,-0.171875
2851,-0.96484375,0.1171875,-0.171875
2852,-0.953125,0.1328125,-0.16796875
2853,-0.9453125,0.12109375,-0.1640625
2854,-0.95703125,0.125,-0.18359375
2855,-0.953125,0.13671875,-0.19140625
2856,-0.95703125,0.13671875,-0.171875
2857,-0.953125,0.125,-0.19140625
2858,-0.95703125,0.125,-0.171875
2859,-0.94140625,0.12109375,-0.203125
2860,-0.94140625,0.12890625,-0.17578125
2861,-0.94921875,0.1328125,-0.171875
2862,-0.95703125,0.12890625,-0.1796875
2863,-0.95703125,0.12890625,-0.171875
2864,-0.953125,0.11328125,-0.16796875
2865,-0.95703125,0.12890625,-0.18359375
2866,-0.95703125,0.125,-0.1640625
2867,-0.94921875,0.1171875,-0.17578125
2868,-0.94921875,0.12109375,-0.16015625
2869,-0.953125,0.1171875,-0.16796875
2870,-0.953125,0.0859375,-0.15234375
2871,-0.96484375,0.125,-0.1875
2872,-0.9609375,0.125,-0.16015625
2873,-0.94921875,0.125,-0.18359375
2874,-0.953125,0.1171875,-0.16796875
2875,-0.9453125,0.09375,-0.171875
2876,-0.953125,0.1328125,-0.171875
2877,-0.9453125,0.109375,-0.17578125
2878,-0.94921875,0.11328125,-0.1640625
2879,-0.953125,0.11328125,-0.17578125
2880,-0.9453125,0.12109375,-0.17578125
2881,-0.98828125,0.10546875,-0.12890625
2882,-0.94921875,0.1171875,-0.171875
2883,-0.95703125,0.1328125,-0.16796875
2884,-0.953125,0.125,-0.17578125
2885,-0.94921875,0.1328125,-0.16796875
2886,-0.94921875,0.125,-0.16796875
2887,-0.96484375,0.1328125,-0.1796875
2888,-0.94921875,0.12109375,-0.16796875
2889,-0.9609375,0.12890625,-0.1796875
2890,-0.9453125,0.12890625,-0.16796875
2891,-0.96875,0.125,-0.1796875
2892,-0.9609375,0.12109375,-0.18359375
2893,-0.94921875,0.1171875,-0.17578125
2894,-0.953125,0.1171875,-0.16796875
2895,-0.94921875,0.125,-0.17578125
2896,-0.953125,0.12109375,-0.16015625
2897,-0.94921875,0.125,-0.19140625
2898,-0.94921875,0.140625,-0.16015625
2899,-0.953125,0.12890625,-0.18359375
2900,-0.953125,0.125,-0.16796875
2901,-0.94140625,0.12109375,-0.16796875
2902,-0.91796875,0.16796875,-0.21484375
2903,-0.94140625,0.1171875,-0.1796875
2904,-0.95703125,0.13671875,-0.16796875
2905,-0.953125,0.125,-0.1875
2906,-0.95703125,0.12890625,-0.16015625
2907,-0.94140625,0.109375,-0.1796875
2908,-0.9375,0.1328125,-0.1796875
2909,-0.94921875,0.12890625,-0.17578125
2910,-0.95703125,0.1328125,-0.1796875
2911,-0.94921875,0.12109375,-0.17578125
2912,-0.9453125,0.1171875,-0.171875
2913,-0.9296875,0.09375,-0.11328125
2914,-0.953125,0.1171875,-0.16015625
2915,-0.95703125,0.125,-0.16796875
2916,-0.953125,0.125,-0.18359375
2917,-0.9609375,0.125,-0.16796875
2918,-0.94140625,0.125,-0.19140625
2919,-0.9453125,0.125,-0.1796875
2920,-0.9609375,0.1171875,-0.1875
2921,-0.953125,0.125,-0.19140625
2922,-0.9609375,0.125,-0.19140625
2923,-0.9140625,0.09375,-0.1328125
2924,-0.953125,0.11328125,-0.19140625
2925,-0.96484375,0.125,-0.17578125
2926,-0.9453125,0.12109375,-0.171875
2927,-0.95703125,0.12890625,-0.18359375
2928,-0.953125,0.125,-0.18359375
2929,-0.95703125,0.12109375,-0.19921875
2930,-0.9609375,0.13671875,-0.18359375
2931,-0.9453125,0.125,-0.1875
2932,-0.94921875,0.125,-0.1875
2933,-0.96484375,0.13671875,-0.1875
2934,-0.9375,0.15625,-0.1953125
2935,-0.953125,0.12890625,-0.18359375
2936,-0.9453125,0.12109375,-0.18359375
2937,-0.95703125,0.12890625,-0.17578125
2938,-0.9609375,0.11328125,-0.17578125
2939,-0.96484375,0.125,-0.17578125
2940,-0.95703125,0.12109375,-0.19140625
2941,-0.95703125,0.1328125,-0.1875
2942,-0.9453125,0.11328125,-0.19140625
2943,-0.95703125,0.125,-0.19140625
2944,-0.96484375,0.125,-0.16796875
2945,-0.97265625,0.109375,-0.1484375
2946,-0.9453125,0.1171875,-0.17578125
2947,-0.9453125,0.1171875,-0.171875
2948,-0.953125,0.12109375,-0.19140625
2949,-0.95703125,0.12890625,-0.1875
2950,-0.95703125,0.12890625,-0.17578125
2951,-0.9609375,0.12890625,-0.1640625
2952,-0.9453125,0.12109375,-0.1640625
2953,-0.9453125,0.1171875,-0.17578125
2954,-0.953125,0.12890625,-0.171875
2955,-0.96875,0.0859375,-0.16015625
2956,-0.94921875,0.11328125,-0.17578125
2957,-0.96875,0.13671875,-0.16796875
2958,-0.94921875,0.12890625,-0.1796875
2959,-0.95703125,0.1328125,-0.171875
2960,-0.953125,0.12109375,-0.1875
2961,-0.94921875,0.12109375,-0.18359375
2962,-0.94921875,0.1015625,-0.1796875
2963,-0.9609375,0.13671875,-0.18359375
2964,-0.953125,0.125,-0.171875
2965,-0.94921875,0.1171875,-0.1875
2966,-1.0234375,0.09765625,-0.171875
2967,-0.953125,0.125,-0.18359375
2968,-0.96484375,0.12890625,-0.1796875
2969,-0.96875,0.1328125,-0.203125
2970,-0.95703125,0.12109375,-0.20703125
2971,-0.9453125,0.125,-0.19140625
2972,-0.94921875,0.12890625,-0.19921875
2973,-0.95703125,0.11328125,-0.19921875
2974,-0.953125,0.1171875,-0.1875
2975,-0.953125,0.1171875,-0.1875
2976,-0.95703125,0.12109375,-0.16796875
2977,-0.96484375,0.11328125,-0.1796875
2978,-0.953125,0.125,-0.1875
2979,-0.95703125,0.12109375,-0.16796875
2980,-0.94921875,0.109375,-0.18359375
2981,-0.9453125,0.1171875,-0.16796875
2982,-0.9453125,0.1328125,-0.171875
2983,-0.94140625,0.1171875,-0.1796875
2984,-0.953125,0.10546875,-0.1796875
2985,-0.953125,0.12109375,-0.1640625
2986,-0.953125,0.12890625,-0.1796875
2987,-0.94921875,0.12890625,-0.1875
2988,-0.953125,0.140625,-0.19921875
2989,-0.95703125,0.12890625,-0.19921875
2990,-0.94921875,0.12109375,-0.1953125
2991,-0.95703125,0.125,-0.1796875
2992,-0.953125,0.125,-0.203125
2993,-0.9453125,0.12890625,-0.1796875
2994,-0.95703125,0.1171875,-0.18359375
2995,-0.9609375,0.12890625,-0.171875
2996,-0.95703125,0.12109375,-0.1875
2997,-0.94921875,0.12109375,-0.18359375
2998,-0.953125,0.1171875,-0.1953125
2999,-0.953125,0.1171875,-0.1875
