,accelerometerAccelerationX(G),accelerometerAccelerationY(G),accelerometerAccelerationZ(G)
0,0.02734375,-0.98046875,0.09375
1,0.02734375,-0.9765625,0.1015625
2,0.0390625,-0.98046875,0.08984375
3,0.03125,-0.98828125,0.10546875
4,0.03515625,-0.984375,0.09375
5,0.03515625,-0.984375,0.11328125
6,0.05078125,-0.98828125,0.09765625
7,0.03515625,-0.9765625,0.09375
8,0.046875,-0.98828125,0.09765625
9,0.02734375,-0.97265625,0.0703125
10,0.05859375,-0.98046875,0.08203125
11,0.05078125,-0.96875,0.078125
12,0.05078125,-0.97265625,0.078125
13,0.0390625,-0.9765625,0.0703125
14,0.0390625,-0.96875,0.0703125
15,0.05078125,-0.9765625,0.078125
16,0.03515625,-0.96875,0.0859375
17,0.04296875,-0.9765625,0.0625
18,0.04296875,-0.98046875,0.07421875
19,0.04296875,-0.9765625,0.05859375
20,0.05078125,-0.98046875,0.0625
21,0.04296875,-0.98828125,0.078125
22,0.03515625,-1.00390625,0.0546875
23,0.0390625,-0.9921875,0.05859375
24,0.04296875,-0.9921875,0.0859375
25,0.03125,-0.9921875,0.0703125
26,0.046875,-0.99609375,0.08203125
27,0.03125,-0.99609375,0.06640625
28,0.03515625,-0.98828125,0.0546875
29,0.02734375,-0.99609375,0.05859375
30,0.0390625,-0.984375,0.0625
31,0.04296875,-0.9921875,0.0390625
32,0.046875,-0.9921875,0.046875
33,0.0390625,-0.9921875,0.0703125
34,0.03515625,-0.9921875,0.03515625
35,0.03515625,-0.99609375,0.0390625
36,0.04296875,-1.015625,0.05078125
37,0.03515625,-1.00390625,0.046875
38,0.05078125,-1.00390625,0.0234375
39,0.0390625,-1.015625,0.02734375
40,0.03125,-1.0078125,0.02734375
41,0.0390625,-1.0078125,0.0234375
42,0.0390625,-1.0078125,0.01953125
43,0.03515625,-1.01953125,0.0234375
44,0.0234375,-1.01171875,0.01953125
45,0.01953125,-1.01171875,0.01953125
46,0.01953125,-1.015625,0.01953125
47,0.0234375,-1.015625,0.0390625
48,0.03125,-1.015625,0.01953125
49,0.03125,-1.01953125,0.01171875
50,0.01953125,-1.01953125,0.01953125
51,0.02734375,-1.02734375,0.02734375
52,0.01171875,-1.02734375,0.01953125
53,0.03515625,-1.01171875,0.015625
54,0.03515625,-1.0234375,0.015625
55,0.03125,-1.0078125,-0.01953125
56,0.04296875,-0.99609375,-0.00390625
57,0.0546875,-1.01171875,-0.0078125
58,0.0390625,-0.99609375,-0.01171875
59,0.0625,-1.0078125,0.0
60,0.0625,-1.01171875,-0.00390625
61,0.06640625,-1.01171875,-0.01171875
62,0.08203125,-1.01953125,-0.00390625
63,0.07421875,-1.015625,0.0
64,0.08984375,-1.015625,0.0
65,0.09375,-1.015625,0.0234375
66,0.09765625,-1.02734375,0.015625
67,0.07421875,-1.03125,0.03515625
68,0.07421875,-1.03125,0.0546875
69,0.05078125,-1.0234375,0.06640625
70,0.02734375,-1.02734375,0.046875
71,0.0,-1.0234375,0.046875
72,-0.02734375,-1.015625,0.0546875
73,-0.0390625,-1.01171875,0.05078125
74,-0.05859375,-0.984375,0.03125
75,-0.078125,-0.9765625,0.01171875
76,-0.0703125,-0.96875,0.0
77,-0.08203125,-0.96484375,0.00390625
78,-0.0703125,-0.96484375,-0.0078125
79,-0.06640625,-0.9609375,-0.00390625
80,-0.04296875,-0.97265625,-0.0078125
81,-0.03125,-0.96875,-0.00390625
82,-0.0078125,-0.98828125,0.00390625
83,0.00390625,-0.9921875,0.0234375
84,0.0234375,-0.9921875,0.0078125
85,0.0390625,-1.015625,0.015625
86,0.046875,-1.00390625,0.015625
87,0.06640625,-1.015625,0.0234375
88,0.07421875,-1.015625,0.015625
89,0.0859375,-0.99609375,0.015625
90,0.08984375,-0.98046875,-0.00390625
91,0.10546875,-0.98046875,-0.015625
92,0.11328125,-0.96875,-0.01171875
93,0.12109375,-0.95703125,-0.0078125
94,0.1328125,-0.96875,-0.01171875
95,0.140625,-0.95703125,0.0078125
96,0.140625,-0.9609375,0.01171875
97,0.14453125,-0.96875,0.015625
98,0.14453125,-0.96875,0.01953125
99,0.13671875,-0.97265625,0.0078125
100,0.125,-0.98828125,0.01953125
101,0.12890625,-1.00390625,0.0078125
102,0.1015625,-1.00390625,0.0234375
103,0.1015625,-1.01171875,0.0
104,0.0859375,-1.015625,-0.00390625
105,0.0625,-1.015625,0.0
106,0.046875,-1.01953125,-0.015625
107,0.03515625,-1.0078125,-0.015625
108,0.0234375,-1.0,-0.0390625
109,0.015625,-1.00390625,-0.03125
110,0.0,-0.9921875,-0.04296875
111,0.0,-0.9921875,-0.04296875
112,0.00390625,-0.9921875,-0.05078125
113,0.01171875,-1.00390625,-0.03125
114,0.00390625,-1.00390625,-0.03125
115,0.0,-1.01171875,-0.0390625
116,0.00390625,-0.99609375,-0.0390625
117,0.015625,-1.015625,-0.03125
118,0.015625,-1.01953125,-0.0234375
119,0.0390625,-1.03515625,-0.0078125
120,0.04296875,-1.02734375,-0.0078125
121,0.0625,-1.03515625,-0.015625
122,0.08203125,-1.04296875,-0.00390625
123,0.06640625,-1.0390625,-0.0078125
124,0.078125,-1.0234375,-0.0078125
125,0.06640625,-1.02734375,-0.01171875
126,0.08203125,-1.015625,-0.00390625
127,0.07421875,-1.01171875,-0.01953125
128,0.0625,-1.01953125,-0.01171875
129,0.05078125,-1.0078125,-0.0078125
130,0.04296875,-1.00390625,-0.01953125
131,0.0390625,-1.00390625,-0.0234375
132,0.0234375,-1.0,-0.01953125
133,0.0234375,-1.015625,-0.00390625
134,0.03125,-1.0234375,-0.03125
135,0.00390625,-1.01171875,0.01171875
136,0.00390625,-1.02734375,0.0078125
137,0.0,-1.0390625,0.0078125
138,0.0,-1.02734375,0.0234375
139,0.0,-1.0234375,0.02734375
140,0.0,-1.0234375,0.0234375
141,0.0,-1.0234375,0.01953125
142,0.0,-1.015625,0.0390625
143,0.0,-1.015625,0.01171875
144,0.0078125,-1.0,0.0234375
145,0.0,-1.0,0.0234375
146,0.00390625,-1.00390625,0.01171875
147,0.0078125,-0.9921875,0.01171875
148,0.02734375,-1.00390625,0.01953125
149,0.015625,-1.00390625,0.0
150,0.0,-0.9921875,0.00390625
151,0.01953125,-1.00390625,0.01171875
152,0.02734375,-1.0,0.015625
153,0.02734375,-0.99609375,0.0078125
154,0.02734375,-1.0078125,0.01171875
155,0.03125,-1.0078125,0.01171875
156,0.03125,-1.01171875,0.0
157,0.05078125,-1.01953125,0.015625
158,0.046875,-1.01171875,0.0078125
159,0.0546875,-1.02734375,0.03125
160,0.0546875,-1.0234375,0.0078125
161,0.06640625,-1.0234375,0.0078125
162,0.07421875,-1.01171875,0.0078125
163,0.07421875,-1.01171875,0.01171875
164,0.0859375,-1.0078125,0.0078125
165,0.078125,-0.99609375,0.015625
166,0.08984375,-1.0,0.015625
167,0.0859375,-1.0,0.00390625
168,0.08984375,-0.9921875,-0.0078125
169,0.0859375,-0.9921875,-0.0078125
170,0.078125,-0.9921875,0.00390625
171,0.08203125,-0.9765625,0.0
172,0.0703125,-0.9921875,-0.0078125
173,0.07421875,-0.984375,-0.00390625
174,0.08203125,-0.984375,0.015625
175,0.07421875,-0.9765625,0.015625
176,0.07421875,-0.9921875,0.0234375
177,0.06640625,-0.97265625,-0.01171875
178,0.0546875,-0.98828125,-0.00390625
179,0.05859375,-1.00390625,0.0078125
180,0.06640625,-0.99609375,-0.01171875
181,0.0546875,-0.99609375,0.0
182,0.05859375,-0.9921875,0.00390625
183,0.07421875,-0.984375,0.0
184,0.05859375,-0.9921875,-0.00390625
185,0.0703125,-0.9921875,-0.00390625
186,0.06640625,-0.99609375,-0.015625
187,0.0625,-0.98046875,-0.00390625
188,0.05078125,-0.98828125,0.00390625
189,0.07421875,-0.984375,-0.00390625
190,0.07421875,-0.9765625,-0.015625
191,0.0703125,-0.9921875,0.0
192,0.0625,-0.984375,-0.0078125
193,0.04296875,-0.98046875,-0.01171875
194,0.05078125,-0.9765625,-0.02734375
195,0.05859375,-0.97265625,-0.01953125
196,0.05078125,-0.96875,-0.01953125
197,0.0546875,-0.98046875,-0.0078125
198,0.046875,-0.97265625,0.0
199,0.0546875,-0.98828125,-0.015625
200,0.04296875,-0.98046875,-0.0078125
201,0.046875,-0.9921875,0.0
202,0.046875,-1.0078125,0.0078125
203,0.04296875,-1.015625,0.0
204,0.04296875,-1.00390625,-0.0078125
205,0.0390625,-1.0,0.0078125
206,0.046875,-0.99609375,-0.0078125
207,0.03515625,-1.0078125,-0.0234375
208,0.03515625,-0.98828125,-0.01953125
209,0.03125,-0.9921875,-0.02734375
210,0.02734375,-0.99609375,-0.0234375
211,0.0234375,-0.99609375,-0.02734375
212,0.015625,-0.99609375,-0.0078125
213,0.03515625,-1.00390625,-0.0078125
214,0.01953125,-1.00390625,-0.0078125
215,0.0234375,-1.00390625,-0.0078125
216,0.0234375,-1.0,-0.0078125
217,0.02734375,-1.0078125,-0.01171875
218,0.02734375,-1.01171875,-0.0078125
219,0.03125,-1.01171875,-0.00390625
220,0.0390625,-1.0078125,-0.01171875
221,0.03125,-0.98046875,-0.015625
222,0.03125,-1.015625,-0.01171875
223,0.0390625,-1.01953125,-0.00390625
224,0.0390625,-1.0078125,-0.015625
225,0.02734375,-1.01171875,-0.00390625
226,0.0390625,-1.01171875,-0.01171875
227,0.0390625,-1.00390625,-0.01953125
228,0.03515625,-0.9921875,-0.00390625
229,0.03515625,-0.9921875,-0.015625
230,0.03125,-0.99609375,-0.00390625
231,0.05078125,-1.0,-0.01171875
232,0.04296875,-0.98828125,-0.01171875
233,0.03515625,-0.98828125,-0.01953125
234,0.03125,-0.9921875,-0.01171875
235,0.046875,-1.0,-0.01171875
236,0.04296875,-0.984375,-0.015625
237,0.04296875,-1.015625,-0.015625
238,0.04296875,-1.01171875,-0.0078125
239,0.04296875,-0.9921875,0.00390625
240,0.0390625,-0.9921875,0.0078125
241,0.046875,-0.9921875,0.00390625
242,0.03125,-0.9765625,0.0
243,0.03515625,-1.0,-0.0078125
244,0.0546875,-1.01171875,-0.00390625
245,0.0390625,-1.0,-0.00390625
246,0.05078125,-0.99609375,-0.01171875
247,0.046875,-1.0,0.00390625
248,0.0546875,-1.0078125,0.00390625
249,0.0546875,-1.0078125,0.0
250,0.0625,-1.0078125,0.00390625
251,0.0546875,-1.00390625,0.01171875
252,0.046875,-0.99609375,-0.01171875
253,0.0546875,-0.99609375,0.0078125
254,0.0546875,-1.0,0.0
255,0.0703125,-1.0,0.0078125
256,0.0625,-0.9921875,0.0078125
257,0.0546875,-0.99609375,-0.00390625
258,0.046875,-0.984375,-0.01171875
259,0.05078125,-1.00390625,0.01953125
260,0.05859375,-0.98828125,-0.0078125
261,0.0546875,-1.01171875,0.00390625
262,0.05078125,-1.0,-0.00390625
263,0.0546875,-0.99609375,0.0
264,0.08203125,-0.9765625,-0.01171875
265,0.0546875,-1.0078125,-0.0078125
266,0.046875,-1.0078125,0.0078125
267,0.046875,-1.00390625,0.00390625
268,0.05078125,-1.00390625,0.0078125
269,0.05078125,-1.01171875,0.0078125
270,0.046875,-0.99609375,0.0
271,0.046875,-1.00390625,0.01171875
272,0.0390625,-1.0,0.01171875
273,0.0390625,-1.0,-0.0078125
274,0.03515625,-0.99609375,0.00390625
275,0.05078125,-1.0078125,0.015625
276,0.04296875,-1.00390625,-0.00390625
277,0.046875,-1.0078125,0.0078125
278,0.04296875,-0.99609375,0.00390625
279,0.0546875,-1.01171875,0.01953125
280,0.0546875,-0.9921875,0.0078125
281,0.0390625,-0.9921875,0.01171875
282,0.05078125,-0.99609375,0.01171875
283,0.0546875,-1.00390625,0.0234375
284,0.03515625,-1.0,0.015625
285,0.05078125,-0.9921875,0.01953125
286,0.0234375,-0.9921875,0.0078125
287,0.046875,-0.98828125,0.0078125
288,0.046875,-0.98828125,0.01171875
289,0.04296875,-0.98828125,0.0078125
290,0.04296875,-0.98046875,0.015625
291,0.05078125,-0.9921875,0.01953125
292,0.04296875,-0.9921875,0.0078125
293,0.046875,-0.9921875,0.00390625
294,0.0390625,-0.99609375,0.015625
295,0.046875,-0.99609375,0.015625
296,0.04296875,-0.99609375,0.02734375
297,0.0390625,-0.99609375,0.015625
298,0.046875,-0.99609375,0.0078125
299,0.046875,-1.00390625,0.01953125
300,0.046875,-0.99609375,0.01171875
301,0.0390625,-0.98828125,0.0234375
302,0.046875,-0.984375,0.01953125
303,0.05078125,-0.99609375,0.015625
304,0.046875,-0.9921875,0.01171875
305,0.0546875,-0.984375,0.015625
306,0.046875,-0.9921875,0.015625
307,0.04296875,-0.98828125,0.0078125
308,0.0703125,-1.0078125,0.015625
309,0.05859375,-1.0,0.0078125
310,0.05859375,-0.9921875,0.015625
311,0.0546875,-1.0078125,0.0078125
312,0.046875,-0.99609375,0.015625
313,0.046875,-1.0078125,0.00390625
314,0.046875,-1.0,0.0078125
315,0.04296875,-1.0,-0.0078125
316,0.05078125,-1.00390625,0.0
317,0.05078125,-1.0,0.00390625
318,0.05078125,-1.0,0.00390625
319,0.046875,-0.99609375,0.00390625
320,0.04296875,-1.0,0.01171875
321,0.04296875,-1.0,-0.015625
322,0.05078125,-0.9921875,0.0
323,0.046875,-0.9921875,0.00390625
324,0.0390625,-0.99609375,-0.00390625
325,0.05078125,-0.99609375,0.0
326,0.05859375,-1.0,0.0078125
327,0.05859375,-0.99609375,0.0078125
328,0.0390625,-0.99609375,-0.01953125
329,0.05859375,-1.00390625,0.0078125
330,0.0546875,-1.0078125,0.0078125
331,0.046875,-1.01171875,0.00390625
332,0.0546875,-1.00390625,-0.01171875
333,0.0546875,-1.01171875,-0.0234375
334,0.05859375,-1.01171875,0.0
335,0.05078125,-1.01171875,0.0
336,0.046875,-1.01171875,-0.0078125
337,0.0390625,-1.01953125,-0.015625
338,0.0546875,-1.00390625,0.0
339,0.046875,-1.015625,0.0
340,0.05078125,-1.0078125,-0.01953125
341,0.03515625,-0.99609375,0.00390625
342,0.0546875,-1.0078125,0.0
343,0.05078125,-0.99609375,-0.015625
344,0.05078125,-1.00390625,-0.0078125
345,0.05078125,-0.99609375,-0.00390625
346,0.04296875,-1.0078125,-0.0078125
347,0.046875,-1.00390625,0.0
348,0.0546875,-1.015625,-0.00390625
349,0.046875,-1.015625,0.01171875
350,0.05859375,-1.0,0.00390625
351,0.05078125,-1.00390625,-0.00390625
352,0.046875,-0.99609375,0.00390625
353,0.0390625,-0.9921875,-0.0078125
354,0.04296875,-0.9921875,-0.015625
355,0.04296875,-0.98828125,-0.01171875
356,0.046875,-0.99609375,-0.00390625
357,0.04296875,-0.98046875,0.00390625
358,0.05859375,-1.00390625,-0.0078125
359,0.03515625,-0.98828125,0.00390625
360,0.05859375,-1.01171875,-0.01171875
361,0.05078125,-0.98828125,-0.00390625
362,0.046875,-0.98828125,-0.01171875
363,0.05078125,-1.00390625,0.0
364,0.0546875,-1.00390625,-0.01171875
365,0.04296875,-0.99609375,-0.015625
366,0.046875,-1.00390625,-0.00390625
367,0.046875,-1.00390625,-0.0234375
368,0.046875,-1.0078125,-0.015625
369,0.04296875,-1.01171875,-0.01953125
370,0.046875,-0.99609375,-0.015625
371,0.04296875,-1.0078125,-0.01171875
372,0.05078125,-1.01171875,-0.00390625
373,0.03515625,-1.01953125,0.0078125
374,0.04296875,-1.01171875,-0.01171875
375,0.0390625,-1.0078125,-0.0078125
376,0.03125,-0.99609375,-0.01953125
377,0.0390625,-0.99609375,-0.0078125
378,0.05078125,-0.9921875,-0.0078125
379,0.046875,-0.9921875,0.0
380,0.04296875,-0.9921875,-0.0078125
381,0.04296875,-0.9921875,-0.01171875
382,0.046875,-0.99609375,-0.01171875
383,0.03125,-0.9921875,0.0078125
384,0.04296875,-1.0,-0.015625
385,0.0390625,-0.9921875,-0.00390625
386,0.03515625,-0.9921875,-0.01171875
387,0.04296875,-1.0,0.0
388,0.046875,-1.00390625,-0.0078125
389,0.04296875,-1.01171875,-0.00390625
390,0.03515625,-1.00390625,-0.01171875
391,0.04296875,-1.00390625,0.0
392,0.046875,-1.01171875,0.0078125
393,0.03125,-0.9921875,-0.01953125
394,0.0390625,-1.0,0.0078125
395,0.03125,-0.9921875,-0.01171875
396,0.04296875,-0.98046875,0.0
397,0.04296875,-0.99609375,0.00390625
398,0.046875,-0.9921875,0.0
399,0.0546875,-0.9921875,-0.00390625
400,0.046875,-0.984375,-0.00390625
401,0.046875,-0.984375,0.0078125
402,0.05078125,-1.00390625,-0.0078125
403,0.05078125,-0.99609375,0.01171875
404,0.04296875,-0.99609375,0.01171875
405,0.046875,-1.01171875,0.00390625
406,0.05078125,-1.01171875,0.0078125
407,0.0390625,-1.0078125,-0.00390625
408,0.05078125,-1.01171875,0.01171875
409,0.03515625,-1.0,0.015625
410,0.0390625,-0.99609375,0.0
411,0.0390625,-0.98828125,0.00390625
412,0.046875,-0.98828125,0.0078125
413,0.046875,-1.00390625,0.01171875
414,0.03515625,-0.9921875,0.01171875
415,0.05078125,-0.9921875,0.01171875
416,0.05078125,-0.99609375,0.015625
417,0.0390625,-0.984375,0.01171875
418,0.05078125,-0.9921875,0.00390625
419,0.04296875,-0.98828125,0.01171875
420,0.0546875,-0.99609375,0.0078125
421,0.046875,-0.9921875,0.01953125
422,0.046875,-0.984375,0.0078125
423,0.04296875,-0.98828125,0.01171875
424,0.04296875,-0.98828125,0.0078125
425,0.05078125,-0.9921875,-0.00390625
426,0.046875,-0.99609375,0.00390625
427,0.04296875,-1.0,0.00390625
428,0.046875,-1.01171875,0.0078125
429,0.0390625,-1.0078125,0.00390625
430,0.046875,-1.0,0.0
431,0.046875,-1.01171875,0.0078125
432,0.05078125,-1.0,0.00390625
433,0.04296875,-0.99609375,0.00390625
434,0.0546875,-1.00390625,0.0078125
435,0.046875,-0.9921875,0.0
436,0.0390625,-0.9921875,0.015625
437,0.0546875,-1.0,0.0
438,0.05078125,-0.984375,0.00390625
439,0.0546875,-0.99609375,-0.00390625
440,0.05078125,-0.99609375,0.015625
441,0.0390625,-0.98828125,0.0078125
442,0.0390625,-0.99609375,0.01171875
443,0.0390625,-1.0,0.01171875
444,0.046875,-0.9921875,0.01953125
445,0.046875,-0.9921875,-0.01171875
446,0.03515625,-1.0,0.01953125
447,0.03515625,-1.015625,0.0
448,0.03125,-0.98046875,-0.0078125
449,0.05078125,-1.0078125,0.0078125
450,0.0546875,-1.0078125,0.00390625
451,0.0390625,-1.00390625,0.01171875
452,0.046875,-1.0,-0.0078125
453,0.0390625,-1.0,0.01171875
454,0.046875,-1.0,0.00390625
455,0.046875,-0.99609375,-0.00390625
456,0.0390625,-0.9921875,-0.0078125
457,0.046875,-0.99609375,0.0078125
458,0.0390625,-0.984375,0.0
459,0.05859375,-1.01171875,0.01171875
460,0.05078125,-0.9921875,0.00390625
461,0.0390625,-0.9921875,0.015625
462,0.0390625,-0.9921875,-0.00390625
463,0.0546875,-0.99609375,-0.015625
464,0.0390625,-0.98828125,0.00390625
465,0.03515625,-1.0,0.01171875
466,0.046875,-1.0078125,-0.0078125
467,0.046875,-0.9921875,0.00390625
468,0.0390625,-1.0078125,-0.015625
469,0.0390625,-1.00390625,0.00390625
470,0.0546875,-1.00390625,0.0
471,0.04296875,-1.0,0.0078125
472,0.0390625,-0.9921875,-0.0078125
473,0.046875,-1.0,0.0
474,0.04296875,-0.99609375,-0.01171875
475,0.046875,-1.0,0.01171875
476,0.03515625,-1.01171875,-0.00390625
477,0.04296875,-1.00390625,-0.00390625
478,0.04296875,-0.99609375,0.0
479,0.03515625,-0.98828125,0.00390625
480,0.0390625,-1.0078125,0.0
481,0.04296875,-1.00390625,0.0078125
482,0.05859375,-0.99609375,0.0234375
483,0.03125,-1.0,0.0
484,0.0390625,-1.0,-0.0078125
485,0.04296875,-1.00390625,-0.015625
486,0.0390625,-1.0,-0.015625
487,0.046875,-0.99609375,-0.01171875
488,0.04296875,-0.984375,-0.01953125
489,0.0390625,-1.01171875,-0.01953125
490,0.04296875,-0.99609375,-0.00390625
491,0.03515625,-1.00390625,-0.01171875
492,0.0234375,-0.99609375,-0.015625
493,0.046875,-1.015625,-0.00390625
494,0.03515625,-1.0078125,-0.01171875
495,0.04296875,-1.015625,-0.00390625
496,0.03125,-1.00390625,0.0078125
497,0.02734375,-0.98828125,-0.00390625
498,0.03515625,-1.0,0.0078125
499,0.03125,-1.0078125,-0.00390625
500,0.0234375,-0.9765625,0.0078125
501,0.0390625,-1.0,-0.00390625
502,0.03125,-0.984375,0.0078125
503,0.046875,-1.0,0.01171875
504,0.03515625,-0.9921875,0.0
505,0.0390625,-0.9921875,-0.01953125
506,0.0390625,-0.99609375,0.0
507,0.03515625,-1.0,0.00390625
508,0.05078125,-1.00390625,0.00390625
509,0.03125,-1.00390625,0.0078125
510,0.0390625,-1.0,0.02734375
511,0.0390625,-1.0078125,-0.01171875
512,0.03125,-1.0078125,-0.00390625
513,0.03515625,-1.00390625,0.03125
514,0.05078125,-1.0078125,0.0
515,0.02734375,-0.98828125,-0.01171875
516,0.04296875,-1.00390625,-0.00390625
517,0.046875,-1.00390625,0.0078125
518,0.03125,-0.98828125,0.01171875
519,0.03125,-1.0,0.01171875
520,0.04296875,-0.98828125,0.0078125
521,0.046875,-0.99609375,0.015625
522,0.046875,-1.00390625,0.0
523,0.05078125,-1.0,0.00390625
524,0.02734375,-1.0,0.0078125
525,0.03515625,-1.03125,0.0078125
526,0.03515625,-0.99609375,0.01171875
527,0.04296875,-1.01171875,0.0
528,0.046875,-1.0,0.00390625
529,0.04296875,-0.99609375,0.01171875
530,0.046875,-1.0,0.01171875
531,0.046875,-1.0078125,0.0078125
532,0.05078125,-0.984375,0.0
533,0.04296875,-1.0078125,-0.015625
534,0.04296875,-0.99609375,0.0078125
535,0.02734375,-0.99609375,0.0
536,0.03125,-0.99609375,-0.01171875
537,0.04296875,-1.0,0.015625
538,0.04296875,-1.0,0.0
539,0.03125,-0.9921875,0.0
540,0.03515625,-0.99609375,0.00390625
541,0.046875,-0.9921875,0.0
542,0.0390625,-0.984375,0.00390625
543,0.03515625,-0.98828125,0.00390625
544,0.04296875,-0.99609375,-0.0078125
545,0.05078125,-0.99609375,0.00390625
546,0.04296875,-0.99609375,0.00390625
547,0.04296875,-0.98828125,-0.00390625
548,0.0390625,-0.98828125,0.015625
549,0.0390625,-1.0,0.0078125
550,0.03515625,-0.9921875,0.01171875
551,0.04296875,-0.99609375,0.0
552,0.04296875,-1.0078125,0.00390625
553,0.02734375,-1.0,0.0
554,0.0390625,-1.00390625,0.01171875
555,0.0390625,-1.0078125,0.01171875
556,0.03515625,-0.98828125,0.01171875
557,0.03515625,-0.9921875,0.0078125
558,0.04296875,-1.0,0.0078125
559,0.03125,-1.00390625,0.01171875
560,0.02734375,-1.01171875,0.01171875
561,0.046875,-0.9921875,0.0234375
562,0.04296875,-1.0078125,0.01171875
563,0.0390625,-1.0,0.0078125
564,0.0546875,-1.00390625,0.0078125
565,0.0390625,-1.0,0.0
566,0.0390625,-1.00390625,-0.00390625
567,0.05859375,-1.0,0.0234375
568,0.0390625,-1.00390625,0.01953125
569,0.04296875,-1.01171875,0.01953125
570,0.0390625,-1.00390625,0.0078125
571,0.04296875,-1.0,0.01171875
572,0.03125,-0.98828125,0.00390625
573,0.046875,-0.9921875,0.015625
574,0.04296875,-1.0,0.0
575,0.04296875,-0.99609375,0.015625
576,0.046875,-1.00390625,0.00390625
577,0.03515625,-1.00390625,0.0078125
578,0.05078125,-0.99609375,-0.00390625
579,0.04296875,-0.99609375,0.0078125
580,0.03125,-1.0,0.0
581,0.046875,-1.00390625,0.01953125
582,0.03125,-1.0,0.01171875
583,0.03515625,-1.0078125,0.015625
584,0.0390625,-0.99609375,0.015625
585,0.04296875,-0.99609375,0.00390625
586,0.04296875,-1.00390625,0.01171875
587,0.046875,-0.99609375,0.00390625
588,0.03515625,-1.00390625,-0.00390625
589,0.0390625,-1.00390625,0.01171875
590,0.0234375,-0.9921875,0.0078125
591,0.0390625,-0.9921875,0.0078125
592,0.04296875,-0.984375,0.0
593,0.046875,-0.99609375,-0.0078125
594,0.05078125,-1.0,0.0
595,0.05078125,-1.0078125,0.0
596,0.05078125,-1.0,0.0078125
597,0.04296875,-1.0,-0.01171875
598,0.04296875,-1.015625,0.015625
599,0.04296875,-1.00390625,0.00390625
600,0.04296875,-1.01171875,-0.00390625
601,0.03515625,-1.0078125,0.0
602,0.0390625,-1.0,0.01171875
603,0.046875,-1.00390625,-0.0078125
604,0.04296875,-1.01171875,-0.015625
605,0.04296875,-1.0,0.0
606,0.0390625,-0.9921875,-0.0078125
607,0.04296875,-0.99609375,-0.00390625
608,0.0546875,-0.984375,0.0
609,0.0546875,-0.99609375,-0.01953125
610,0.046875,-0.99609375,-0.0078125
611,0.05078125,-0.984375,-0.0078125
612,0.0625,-1.01171875,0.0078125
613,0.04296875,-1.0,0.0078125
614,0.046875,-1.00390625,-0.0078125
615,0.046875,-1.015625,-0.015625
616,0.04296875,-1.0,-0.00390625
617,0.03125,-1.00390625,0.0078125
618,0.0390625,-1.0,-0.0078125
619,0.046875,-1.0078125,0.0
620,0.05078125,-1.0078125,0.00390625
621,0.046875,-0.99609375,0.0078125
622,0.04296875,-1.00390625,0.015625
623,0.0390625,-1.0078125,0.01171875
624,0.0390625,-0.99609375,0.00390625
625,0.0390625,-1.00390625,0.0
626,0.0390625,-0.9921875,-0.01171875
627,0.046875,-1.0,0.00390625
628,0.04296875,-1.01171875,-0.015625
629,0.03515625,-1.0078125,0.0
630,0.046875,-0.9921875,0.0
631,0.046875,-0.98828125,0.0
632,0.046875,-0.99609375,0.0078125
633,0.04296875,-1.00390625,0.00390625
634,0.05078125,-0.99609375,-0.0234375
635,0.04296875,-1.00390625,0.00390625
636,0.046875,-1.01171875,0.00390625
637,0.04296875,-0.9921875,0.00390625
638,0.05078125,-1.00390625,0.0078125
639,0.04296875,-0.99609375,-0.00390625
640,0.0390625,-0.99609375,0.015625
641,0.04296875,-1.00390625,0.015625
642,0.04296875,-0.99609375,0.0078125
643,0.0390625,-0.98828125,0.00390625
644,0.0390625,-0.9921875,0.00390625
645,0.04296875,-0.99609375,0.0078125
646,0.0390625,-1.0,0.01953125
647,0.0390625,-0.99609375,0.01953125
648,0.046875,-1.0,0.0078125
649,0.04296875,-0.99609375,0.015625
650,0.05859375,-1.0,0.00390625
651,0.05078125,-0.9921875,0.0078125
652,0.05078125,-0.99609375,0.0078125
653,0.0546875,-0.9921875,0.01171875
654,0.05078125,-1.0,0.015625
655,0.05078125,-0.9921875,0.01953125
656,0.0390625,-1.0390625,0.02734375
657,0.046875,-0.99609375,0.0234375
658,0.04296875,-1.00390625,0.0234375
659,0.06640625,-1.0,0.01953125
660,0.04296875,-0.9921875,0.0234375
661,0.05078125,-0.9921875,0.02734375
662,0.04296875,-1.00390625,0.01953125
663,0.0625,-0.98828125,0.02734375
664,0.03515625,-0.99609375,0.01953125
665,0.0390625,-0.99609375,0.03125
666,0.04296875,-0.99609375,0.01953125
667,0.04296875,-0.9921875,0.0078125
668,0.04296875,-0.984375,0.03125
669,0.0390625,-0.98828125,0.0234375
670,0.03515625,-0.984375,0.0078125
671,0.03515625,-0.98828125,0.015625
672,0.04296875,-0.98828125,0.015625
673,0.046875,-0.98828125,0.0234375
674,0.0390625,-1.0,0.01171875
675,0.04296875,-0.9921875,0.0
676,0.03515625,-1.00390625,0.01171875
677,0.04296875,-0.9921875,0.015625
678,0.05078125,-0.99609375,0.00390625
679,0.046875,-1.0078125,0.01171875
680,0.0390625,-0.99609375,0.0078125
681,0.0390625,-1.0,0.015625
682,0.04296875,-1.0078125,0.01171875
683,0.03515625,-0.99609375,0.01171875
684,0.05078125,-1.01171875,0.01171875
685,0.046875,-1.0,0.01171875
686,0.04296875,-1.0,0.0078125
687,0.05078125,-0.9921875,0.01171875
688,0.0546875,-1.00390625,0.0078125
689,0.05859375,-1.0078125,0.015625
690,0.0546875,-0.99609375,0.00390625
691,0.05078125,-1.0,-0.00390625
692,0.046875,-1.0,0.0
693,0.03125,-0.9921875,0.00390625
694,0.04296875,-1.0078125,0.0
695,0.04296875,-1.0,0.0
696,0.04296875,-1.00390625,0.0078125
697,0.04296875,-1.0,-0.015625
698,0.04296875,-0.9921875,0.01953125
699,0.046875,-1.00390625,-0.00390625
700,0.046875,-0.98828125,0.01171875
701,0.05078125,-1.0078125,0.015625
702,0.05859375,-1.0,0.0078125
703,0.046875,-1.00390625,-0.00390625
704,0.0390625,-0.99609375,0.00390625
705,0.05078125,-1.00390625,-0.00390625
706,0.04296875,-1.00390625,0.015625
707,0.05078125,-0.99609375,0.015625
708,0.04296875,-1.0,0.0078125
709,0.046875,-1.0,0.01171875
710,0.0390625,-1.0,0.01171875
711,0.0390625,-0.99609375,0.015625
712,0.0390625,-0.9921875,0.0234375
713,0.04296875,-1.0,0.00390625
714,0.046875,-0.99609375,0.0078125
715,0.0546875,-1.0,-0.00390625
716,0.0390625,-0.984375,-0.0078125
717,0.046875,-0.98828125,0.0
718,0.05078125,-1.0,-0.00390625
719,0.05078125,-1.0,0.0078125
720,0.03515625,-0.97265625,-0.01953125
721,0.0390625,-1.00390625,-0.00390625
722,0.0390625,-1.0078125,0.00390625
723,0.03515625,-1.0,0.0078125
724,0.0390625,-1.00390625,0.0
725,0.04296875,-1.00390625,0.0234375
726,0.046875,-1.0078125,0.00390625
727,0.02734375,-0.99609375,0.0078125
728,0.05078125,-0.98828125,0.01171875
729,0.04296875,-1.00390625,-0.00390625
730,0.0546875,-0.9921875,0.0
731,0.05078125,-1.0,0.00390625
732,0.05078125,-0.9921875,0.01171875
733,0.04296875,-0.99609375,0.01171875
734,0.0390625,-1.0,0.01171875
735,0.0390625,-0.9921875,0.0
736,0.04296875,-0.98828125,0.015625
737,0.03125,-0.9921875,0.00390625
738,0.046875,-1.0,0.01171875
739,0.046875,-0.98828125,0.01171875
740,0.046875,-1.00390625,0.00390625
741,0.02734375,-0.9921875,0.0078125
742,0.03125,-1.0,-0.0078125
743,0.03125,-0.984375,-0.0078125
744,0.0390625,-1.00390625,0.0
745,0.04296875,-1.0078125,-0.00390625
746,0.03515625,-1.0,-0.00390625
747,0.0390625,-0.99609375,0.015625
748,0.04296875,-1.0,0.0
749,0.03125,-1.0,0.01953125
750,0.04296875,-1.0,0.0078125
751,0.03515625,-0.9921875,-0.015625
752,0.046875,-1.0,-0.0078125
753,0.03515625,-0.99609375,-0.00390625
754,0.0390625,-0.98828125,0.0078125
755,0.046875,-1.01171875,-0.0078125
756,0.04296875,-1.0,0.0078125
757,0.0546875,-1.00390625,-0.0078125
758,0.04296875,-1.0078125,0.00390625
759,0.0390625,-0.99609375,-0.0078125
760,0.03515625,-0.984375,0.01171875
761,0.04296875,-0.99609375,0.0
762,0.046875,-0.9921875,0.0078125
763,0.0390625,-1.0078125,0.015625
764,0.04296875,-1.0,0.0
765,0.078125,-0.98828125,0.01171875
766,0.03515625,-1.0,-0.00390625
767,0.04296875,-1.00390625,0.015625
768,0.046875,-1.00390625,0.0
769,0.05078125,-1.0,-0.00390625
770,0.046875,-1.0078125,-0.00390625
771,0.046875,-0.99609375,-0.00390625
772,0.04296875,-0.99609375,-0.0078125
773,0.046875,-1.0,0.015625
774,0.05078125,-0.9921875,0.0
775,0.04296875,-0.99609375,-0.0078125
776,0.046875,-1.0,0.00390625
777,0.046875,-0.98828125,-0.01171875
778,0.04296875,-0.984375,0.0
779,0.046875,-1.0,0.0
780,0.03515625,-1.0078125,0.0078125
781,0.046875,-1.0,-0.01171875
782,0.046875,-1.0078125,-0.00390625
783,0.0390625,-0.9921875,0.00390625
784,0.046875,-0.99609375,-0.0234375
785,0.046875,-0.9921875,0.0078125
786,0.03125,-1.01953125,0.0
787,0.02734375,-0.99609375,-0.00390625
788,0.03125,-1.00390625,0.01171875
789,0.04296875,-0.98828125,-0.0078125
790,0.04296875,-1.0,-0.00390625
791,0.03515625,-0.98828125,-0.0078125
792,0.04296875,-0.99609375,-0.00390625
793,0.03515625,-0.9921875,-0.01171875
794,0.04296875,-0.9921875,-0.0234375
795,0.05078125,-0.9921875,-0.015625
796,0.05078125,-1.0,-0.03515625
797,0.03515625,-0.984375,-0.046875
798,0.0390625,-0.984375,-0.04296875
799,0.046875,-1.01171875,-0.0625
800,0.0390625,-0.99609375,-0.0546875
801,0.02734375,-1.01953125,-0.0546875
802,0.03515625,-1.03125,-0.06640625
803,0.03515625,-1.046875,-0.046875
804,0.04296875,-1.03125,-0.0546875
805,0.0390625,-1.04296875,-0.05078125
806,0.04296875,-1.03125,-0.0703125
807,0.05078125,-1.0390625,-0.07421875
808,0.0546875,-1.04296875,-0.078125
809,0.0546875,-1.046875,-0.09375
810,0.046875,-1.03125,-0.1015625
811,0.05859375,-1.046875,-0.11328125
812,0.05078125,-1.046875,-0.1328125
813,0.05859375,-1.05078125,-0.125
814,0.05078125,-1.04296875,-0.14453125
815,0.05859375,-1.0546875,-0.14453125
816,0.05859375,-1.0625,-0.1484375
817,0.0625,-1.04296875,-0.171875
818,0.046875,-1.03515625,-0.1796875
819,0.046875,-1.015625,-0.1796875
820,0.046875,-0.99609375,-0.19140625
821,0.0390625,-1.00390625,-0.16796875
822,0.046875,-0.9921875,-0.16015625
823,0.0390625,-0.97265625,-0.16015625
824,0.04296875,-0.98046875,-0.1640625
825,0.046875,-0.9765625,-0.14453125
826,0.05078125,-0.97265625,-0.14453125
827,0.0234375,-0.97265625,-0.1484375
828,0.01953125,-0.98046875,-0.16015625
829,0.015625,-0.9765625,-0.14453125
830,0.01171875,-1.00390625,-0.15625
831,0.015625,-0.99609375,-0.15234375
832,0.015625,-1.0,-0.16015625
833,0.015625,-0.99609375,-0.19140625
834,0.01171875,-0.98046875,-0.203125
835,0.0234375,-0.984375,-0.19921875
836,0.01953125,-0.9609375,-0.2265625
837,0.01171875,-0.94140625,-0.23046875
838,0.0078125,-0.9375,-0.26171875
839,0.0234375,-0.9296875,-0.2734375
840,0.0078125,-0.91796875,-0.26953125
841,0.00390625,-0.9140625,-0.265625
842,-0.00390625,-0.9140625,-0.25
843,0.00390625,-0.9296875,-0.2578125
844,-0.0078125,-0.9296875,-0.25390625
845,-0.015625,-0.94140625,-0.2578125
846,-0.01171875,-0.953125,-0.24609375
847,0.0,-0.9609375,-0.26171875
848,-0.0078125,-0.97265625,-0.26171875
849,0.00390625,-0.97265625,-0.28515625
850,-0.00390625,-0.96484375,-0.29296875
851,0.0,-0.98046875,-0.30859375
852,0.00390625,-0.96484375,-0.3203125
853,0.015625,-0.97265625,-0.33203125
854,0.015625,-0.96484375,-0.3359375
855,0.0078125,-0.953125,-0.34375
856,0.01953125,-0.953125,-0.34375
857,0.015625,-0.93359375,-0.359375
858,0.01171875,-0.921875,-0.37890625
859,0.0234375,-0.89453125,-0.38671875
860,0.01953125,-0.8671875,-0.390625
861,0.02734375,-0.828125,-0.3984375
862,0.0234375,-0.7890625,-0.390625
863,0.02734375,-0.75,-0.39453125
864,0.03125,-0.7109375,-0.39453125
865,0.03515625,-0.671875,-0.35546875
866,0.0390625,-0.59375,-0.32421875
867,0.03125,-0.5390625,-0.30859375
868,0.05078125,-0.46484375,-0.28125
869,0.0546875,-0.41796875,-0.23828125
870,0.0546875,-0.31640625,-0.19140625
871,0.0546875,-0.23828125,-0.1640625
872,0.046875,-0.16015625,-0.14453125
873,0.0546875,-0.12890625,-0.12109375
874,0.0546875,-0.08984375,-0.09765625
875,0.06640625,-0.06640625,-0.08203125
876,0.08203125,-0.06640625,-0.05859375
877,0.09375,-0.078125,-0.046875
878,0.0703125,-0.1171875,-0.0234375
879,0.078125,-0.15234375,-0.01171875
880,0.03515625,-0.1953125,-0.015625
881,0.01171875,-0.23046875,0.015625
882,-0.00390625,-0.26171875,0.0
883,-0.046875,-0.29296875,0.01171875
884,-0.0859375,-0.3125,0.00390625
885,-0.10546875,-0.34765625,-0.02734375
886,-0.1328125,-0.37109375,-0.05859375
887,-0.140625,-0.3984375,-0.1015625
888,-0.1484375,-0.4296875,-0.15234375
889,-0.171875,-0.42578125,-0.1953125
890,-0.18359375,-0.453125,-0.2421875
891,-0.19140625,-0.453125,-0.28515625
892,-0.1953125,-0.47265625,-0.3125
893,-0.1796875,-0.50390625,-0.296875
894,-0.1640625,-0.51171875,-0.296875
895,-0.14453125,-0.546875,-0.3046875
896,-0.09375,-0.5546875,-0.28125
897,-0.0546875,-0.5625,-0.23046875
898,-0.0234375,-0.5625,-0.19140625
899,0.015625,-0.55859375,-0.125
900,0.046875,-0.5625,-0.0546875
901,0.0625,-0.58203125,0.00390625
902,0.08203125,-0.5859375,0.0703125
903,0.1015625,-0.5859375,0.09765625
904,0.13671875,-0.5625,0.12109375
905,0.16796875,-0.52734375,0.1015625
906,0.18359375,-0.5,0.0546875
907,0.19140625,-0.5,0.0
908,0.2109375,-0.49609375,-0.08203125
909,0.1875,-0.5,-0.1796875
910,0.18359375,-0.5546875,-0.29296875
911,0.18359375,-0.60546875,-0.375
912,0.14453125,-0.6640625,-0.45703125
913,0.109375,-0.71484375,-0.51953125
914,0.07421875,-0.765625,-0.57421875
915,0.01953125,-0.81640625,-0.5390625
916,0.0,-0.89453125,-0.46875
917,-0.03515625,-1.00390625,-0.40625
918,-0.08203125,-1.15625,-0.296875
919,-0.125,-1.26171875,-0.18359375
920,-0.11328125,-1.26953125,-0.16015625
921,-0.09375,-1.19140625,-0.19140625
922,-0.1015625,-1.1171875,-0.25
923,-0.109375,-1.02734375,-0.3203125
924,-0.1015625,-0.96484375,-0.390625
925,-0.1015625,-0.921875,-0.46484375
926,-0.03125,-0.91015625,-0.5078125
927,-0.046875,-0.8828125,-0.5703125
928,-0.02734375,-0.88671875,-0.60546875
929,0.0234375,-0.8984375,-0.66796875
930,0.09765625,-0.94921875,-0.70703125
931,0.171875,-1.0234375,-0.671875
932,0.2265625,-1.12890625,-0.671875
933,0.265625,-1.22265625,-0.68359375
934,0.28125,-1.3046875,-0.66015625
935,0.32421875,-1.41015625,-0.58203125
936,0.31640625,-1.4296875,-0.52734375
937,0.2890625,-1.4375,-0.453125
938,0.17578125,-1.40234375,-0.41796875
939,0.1484375,-1.30859375,-0.38671875
940,0.08203125,-1.1875,-0.40625
941,0.01953125,-1.05078125,-0.44140625
942,0.0,-0.953125,-0.45703125
943,-0.06640625,-0.8515625,-0.49609375
944,-0.0703125,-0.7734375,-0.5078125
945,-0.09375,-0.75390625,-0.57421875
946,-0.08984375,-0.80859375,-0.66796875
947,-0.08984375,-0.94921875,-0.71875
948,-0.08203125,-1.08203125,-0.83984375
949,-0.04296875,-1.19921875,-0.94140625
950,0.02734375,-1.30859375,-0.98046875
951,0.0859375,-1.41015625,-0.9609375
952,0.140625,-1.46484375,-0.94140625
953,0.16796875,-1.4609375,-0.90625
954,0.22265625,-1.453125,-0.84375
955,0.2578125,-1.40625,-0.78125
956,0.2890625,-1.3359375,-0.66015625
957,0.2890625,-1.3125,-0.59375
958,0.296875,-1.28125,-0.53125
959,0.2734375,-1.25390625,-0.50390625
960,0.23828125,-1.203125,-0.5
961,0.26171875,-1.22265625,-0.55078125
962,0.265625,-1.19140625,-0.61328125
963,0.2421875,-1.19140625,-0.64453125
964,0.21484375,-1.16796875,-0.71875
965,0.18359375,-1.1328125,-0.77734375
966,0.22265625,-1.1484375,-0.80078125
967,0.140625,-1.1640625,-0.859375
968,0.12890625,-1.16796875,-0.8359375
969,0.109375,-1.2109375,-0.82421875
970,0.078125,-1.23828125,-0.80859375
971,0.015625,-1.2734375,-0.7578125
972,0.0078125,-1.3203125,-0.703125
973,0.0,-1.3359375,-0.6484375
974,-0.01953125,-1.2890625,-0.62109375
975,0.0,-1.25390625,-0.5703125
976,-0.0078125,-1.2265625,-0.5390625
977,-0.0078125,-1.203125,-0.5546875
978,0.0,-1.1953125,-0.58203125
979,0.0078125,-1.19140625,-0.609375
980,0.02734375,-1.19140625,-0.6328125
981,0.03515625,-1.19140625,-0.65625
982,0.046875,-1.1953125,-0.6796875
983,0.06640625,-1.19921875,-0.66796875
984,0.10546875,-1.21484375,-0.68359375
985,0.12890625,-1.21875,-0.69140625
986,0.1484375,-1.21484375,-0.671875
987,0.16015625,-1.21875,-0.66015625
988,0.1484375,-1.20703125,-0.62109375
989,0.1484375,-1.1875,-0.59765625
990,0.140625,-1.17578125,-0.5625
991,0.09765625,-1.16015625,-0.52734375
992,0.05859375,-1.1875,-0.4765625
993,0.03515625,-1.21875,-0.43359375
994,0.02734375,-1.29296875,-0.3671875
995,0.03125,-1.37890625,-0.3359375
996,0.0625,-1.5078125,-0.31640625
997,0.125,-1.66796875,-0.37109375
998,0.1640625,-1.80078125,-0.4296875
999,0.19921875,-1.9453125,-0.54296875
1000,0.25390625,-2.03125,-0.6953125
1001,0.24609375,-2.06640625,-0.953125
1002,0.28515625,-1.98828125,-1.26171875
1003,0.30859375,-1.8515625,-1.41015625
1004,0.23046875,-1.70703125,-1.2265625
1005,0.16015625,-1.6328125,-0.9140625
1006,0.0859375,-1.546875,-0.58203125
1007,0.046875,-1.44921875,-0.3046875
1008,-0.00390625,-1.296875,-0.0703125
1009,-0.02734375,-1.1484375,0.08203125
1010,-0.05859375,-0.95703125,0.16015625
1011,-0.07421875,-0.73828125,0.18359375
1012,-0.08203125,-0.58203125,0.171875
1013,-0.09375,-0.4296875,0.0859375
1014,-0.07421875,-0.33203125,0.0
1015,-0.02734375,-0.3046875,-0.078125
1016,-0.03515625,-0.32421875,-0.1640625
1017,0.0234375,-0.38671875,-0.19921875
1018,0.0390625,-0.47265625,-0.1953125
1019,0.046875,-0.609375,-0.15234375
1020,0.0546875,-0.70703125,-0.08984375
1021,0.05859375,-0.78515625,-0.046875
1022,0.06640625,-0.89453125,0.06640625
1023,0.015625,-0.89453125,0.1015625
1024,0.0078125,-0.94921875,0.14453125
1025,0.0,-0.9765625,0.16796875
1026,0.01171875,-1.015625,0.203125
1027,0.0,-1.078125,0.21875
1028,0.00390625,-1.15234375,0.1953125
1029,0.0078125,-1.2109375,0.1640625
1030,0.01171875,-1.26171875,0.125
1031,0.01171875,-1.2734375,0.0546875
1032,0.0078125,-1.26171875,-0.015625
1033,0.0078125,-1.24609375,-0.0625
1034,0.00390625,-1.20703125,-0.0703125
1035,-0.01171875,-1.1484375,-0.07421875
1036,-0.04296875,-1.1171875,-0.05078125
1037,-0.05859375,-1.06640625,-0.0234375
1038,-0.078125,-1.02734375,-0.0078125
1039,-0.05859375,-0.9921875,0.03515625
1040,-0.05078125,-0.96484375,0.0703125
1041,-0.03515625,-0.91796875,0.1015625
1042,-0.03515625,-0.89453125,0.1171875
1043,-0.03515625,-0.85546875,0.1171875
1044,0.0078125,-0.859375,0.13671875
1045,0.03515625,-0.78125,0.125
1046,0.0,-0.83984375,0.1328125
1047,0.0234375,-0.84375,0.11328125
1048,0.05078125,-0.86328125,0.09765625
1049,0.046875,-0.89453125,0.0859375
1050,0.03125,-0.921875,0.09375
1051,0.0078125,-0.94921875,0.08984375
1052,0.0,-0.96875,0.109375
1053,-0.0078125,-0.98046875,0.11328125
1054,-0.01953125,-1.0,0.16015625
1055,-0.06640625,-0.98828125,0.1640625
1056,-0.05078125,-0.98828125,0.16796875
1057,-0.07421875,-0.98828125,0.1796875
1058,-0.06640625,-0.98046875,0.1796875
1059,-0.05859375,-0.97265625,0.18359375
1060,-0.08203125,-0.9609375,0.17578125
1061,-0.06640625,-0.96484375,0.17578125
1062,-0.06640625,-0.9609375,0.16796875
1063,-0.06640625,-0.94921875,0.14453125
1064,-0.046875,-0.94140625,0.16796875
1065,-0.03125,-0.9453125,0.13671875
1066,-0.0546875,-0.9296875,0.10546875
1067,-0.02734375,-0.9453125,0.1328125
1068,-0.0546875,-0.93359375,0.140625
1069,-0.046875,-0.9375,0.16015625
1070,-0.04296875,-0.94140625,0.140625
1071,-0.0546875,-0.9375,0.1484375
1072,-0.03515625,-0.95703125,0.15625
1073,-0.0390625,-0.94921875,0.1640625
1074,-0.0390625,-0.95703125,0.18359375
1075,-0.05078125,-0.96875,0.17578125
1076,-0.0546875,-0.9765625,0.1640625
1077,-0.05859375,-0.96875,0.15625
1078,-0.05078125,-0.96484375,0.1640625
1079,-0.0390625,-0.9765625,0.16015625
1080,-0.02734375,-0.97265625,0.14453125
1081,-0.0390625,-0.9765625,0.1640625
1082,-0.01171875,-0.99609375,0.1640625
1083,-0.00390625,-0.984375,0.171875
1084,0.01171875,-1.00390625,0.17578125
1085,0.01953125,-1.01953125,0.1875
1086,0.03515625,-1.0390625,0.1875
1087,0.05078125,-1.0390625,0.19921875
1088,0.04296875,-1.01953125,0.19140625
1089,0.06640625,-1.01953125,0.21484375
1090,0.06640625,-1.0234375,0.1953125
1091,0.0703125,-0.99609375,0.20703125
1092,0.0546875,-0.9765625,0.19140625
1093,0.06640625,-0.984375,0.20703125
1094,0.08203125,-0.953125,0.22265625
1095,0.07421875,-0.93359375,0.24609375
1096,0.06640625,-0.9140625,0.25390625
1097,0.0625,-0.89453125,0.2734375
1098,0.0546875,-0.890625,0.28515625
1099,0.0390625,-0.87109375,0.296875
1100,0.0390625,-0.8828125,0.30078125
1101,0.0234375,-0.859375,0.296875
1102,0.0234375,-0.8671875,0.29296875
1103,0.0234375,-0.87109375,0.28515625
1104,0.01953125,-0.875,0.26953125
1105,0.015625,-0.8984375,0.2734375
1106,0.0,-0.87890625,0.26171875
1107,0.0078125,-0.90625,0.2734375
1108,-0.00390625,-0.91015625,0.26953125
1109,0.0,-0.92578125,0.25
1110,-0.00390625,-0.9375,0.2578125
1111,-0.0234375,-0.9453125,0.2734375
1112,-0.03125,-0.953125,0.25
1113,-0.03515625,-0.96875,0.25390625
1114,-0.0390625,-0.97265625,0.25
1115,-0.03125,-0.9765625,0.23828125
1116,-0.01953125,-0.9921875,0.234375
1117,-0.0234375,-0.98828125,0.25390625
1118,-0.01171875,-0.98046875,0.24609375
1119,-0.00390625,-0.96875,0.23828125
1120,-0.015625,-0.98046875,0.234375
1121,0.0,-0.97265625,0.23046875
1122,0.0078125,-0.96875,0.20703125
1123,-0.01171875,-0.96875,0.2421875
1124,-0.0078125,-0.953125,0.23046875
1125,-0.0078125,-0.96484375,0.234375
1126,-0.0234375,-0.96484375,0.24609375
1127,-0.02734375,-0.953125,0.23828125
1128,-0.0234375,-0.96484375,0.25
1129,-0.03125,-0.953125,0.25
1130,-0.02734375,-0.94921875,0.24609375
1131,-0.02734375,-0.94140625,0.2578125
1132,-0.03515625,-0.9375,0.25390625
1133,-0.02734375,-0.93359375,0.26171875
1134,-0.03515625,-0.93359375,0.2421875
1135,-0.03515625,-0.9296875,0.25390625
1136,-0.02734375,-0.9375,0.265625
1137,-0.0390625,-0.93359375,0.25390625
1138,-0.03125,-0.94140625,0.25390625
1139,-0.0234375,-0.94140625,0.25
1140,-0.0234375,-0.9453125,0.2578125
1141,-0.0078125,-0.96875,0.2578125
1142,-0.0234375,-0.96875,0.2578125
1143,-0.01171875,-0.95703125,0.25
1144,-0.0078125,-0.9765625,0.26953125
1145,-0.0078125,-0.97265625,0.2578125
1146,0.0,-0.96875,0.24609375
1147,-0.0078125,-0.96875,0.25390625
1148,0.0,-0.96875,0.24609375
1149,0.0,-0.96875,0.26171875
1150,0.00390625,-0.96875,0.2578125
1151,0.0,-0.96484375,0.265625
1152,0.0,-0.95703125,0.2421875
1153,0.0,-0.96484375,0.2578125
1154,-0.0078125,-0.96484375,0.27734375
1155,0.0,-0.96875,0.265625
1156,-0.0078125,-0.9609375,0.27734375
1157,0.0078125,-0.96484375,0.265625
1158,-0.01171875,-0.953125,0.27734375
1159,0.0,-0.95703125,0.2734375
1160,0.0078125,-0.96484375,0.26953125
1161,0.00390625,-0.953125,0.2578125
1162,0.0,-0.95703125,0.2578125
1163,0.0,-0.95703125,0.25390625
1164,0.0234375,-0.90625,0.25390625
1165,0.0,-0.9375,0.28125
1166,0.01953125,-0.94921875,0.26171875
1167,0.01953125,-0.96484375,0.25390625
1168,0.01953125,-0.96484375,0.2578125
1169,0.03515625,-0.96484375,0.2734375
1170,0.0234375,-0.9609375,0.2734375
1171,0.03515625,-0.96484375,0.26171875
1172,0.02734375,-0.9765625,0.26171875
1173,0.01953125,-0.96484375,0.26171875
1174,0.0234375,-0.9609375,0.26953125
1175,0.01171875,-0.9609375,0.23828125
1176,0.015625,-0.9765625,0.24609375
1177,0.0078125,-0.98046875,0.24609375
1178,0.0,-0.96875,0.24609375
1179,-0.0078125,-0.96484375,0.24609375
1180,-0.01171875,-0.95703125,0.25
1181,-0.0078125,-0.97265625,0.25
1182,0.0,-0.96875,0.2265625
1183,-0.00390625,-0.96875,0.2421875
1184,-0.01953125,-0.95703125,0.2578125
1185,-0.01953125,-0.9609375,0.23046875
1186,-0.01953125,-0.95703125,0.234375
1187,-0.0234375,-0.96484375,0.21875
1188,-0.01953125,-0.96484375,0.2265625
1189,-0.02734375,-0.95703125,0.21484375
1190,-0.00390625,-0.96875,0.22265625
1191,-0.00390625,-0.97265625,0.22265625
1192,-0.0234375,-0.96875,0.22265625
1193,-0.0078125,-0.97265625,0.21875
1194,-0.0078125,-0.96484375,0.21875
1195,0.0,-0.9765625,0.234375
1196,0.0,-0.98046875,0.234375
1197,0.0234375,-0.96484375,0.25390625
1198,0.00390625,-0.97265625,0.21875
1199,0.00390625,-0.96875,0.2265625
1200,0.00390625,-0.984375,0.23046875
1201,0.0,-0.96875,0.22265625
1202,0.0,-0.96484375,0.22265625
1203,0.0078125,-0.97265625,0.2265625
1204,0.0,-0.9765625,0.22265625
1205,0.00390625,-0.96484375,0.2265625
1206,0.0,-0.97265625,0.23046875
1207,0.0,-0.96875,0.2265625
1208,-0.00390625,-0.97265625,0.2421875
1209,-0.01953125,-0.96875,0.2421875
1210,-0.01171875,-0.9609375,0.23046875
1211,-0.01171875,-0.96875,0.23046875
1212,-0.01953125,-0.96484375,0.22265625
1213,-0.015625,-0.96484375,0.22265625
1214,-0.0234375,-0.96484375,0.22265625
1215,-0.01171875,-0.97265625,0.2109375
1216,-0.015625,-0.95703125,0.2109375
1217,-0.0234375,-0.96875,0.1953125
1218,-0.03125,-0.96484375,0.21484375
1219,-0.03125,-0.94921875,0.2421875
1220,-0.01953125,-0.9765625,0.203125
1221,-0.015625,-0.98046875,0.203125
1222,-0.015625,-0.98828125,0.2109375
1223,-0.0078125,-0.9765625,0.21875
1224,-0.00390625,-0.98828125,0.23046875
1225,-0.015625,-0.98046875,0.23828125
1226,-0.015625,-0.98046875,0.22265625
1227,-0.015625,-0.9765625,0.22265625
1228,0.0,-0.9765625,0.23046875
1229,0.03515625,-0.96875,0.19140625
1230,0.00390625,-0.9765625,0.2265625
1231,0.00390625,-0.96484375,0.20703125
1232,0.00390625,-0.95703125,0.23046875
1233,0.0,-0.9609375,0.23828125
1234,0.00390625,-0.953125,0.234375
1235,0.00390625,-0.9609375,0.2421875
1236,0.0,-0.9609375,0.2265625
1237,0.0,-0.9609375,0.2421875
1238,0.0,-0.97265625,0.2421875
1239,0.00390625,-0.9609375,0.24609375
1240,-0.03125,-0.953125,0.2578125
1241,0.0,-0.96875,0.23828125
1242,-0.00390625,-0.96484375,0.23828125
1243,-0.01171875,-0.9609375,0.2421875
1244,-0.0078125,-0.96484375,0.234375
1245,-0.0078125,-0.96484375,0.23828125
1246,-0.00390625,-0.96875,0.25
1247,0.0,-0.97265625,0.2421875
1248,-0.0078125,-0.96484375,0.234375
1249,0.0078125,-0.96484375,0.234375
1250,0.0078125,-0.96875,0.2421875
1251,0.0,-0.97265625,0.22265625
1252,0.0078125,-0.9609375,0.2265625
1253,0.0078125,-0.9609375,0.2421875
1254,0.00390625,-0.96875,0.21875
1255,0.0,-0.96484375,0.22265625
1256,0.0,-0.9609375,0.22265625
1257,0.0,-0.96484375,0.2265625
1258,0.00390625,-0.9609375,0.234375
1259,-0.0078125,-0.96484375,0.22265625
1260,0.0,-0.96484375,0.21484375
1261,0.0,-0.96875,0.21484375
1262,-0.015625,-0.96875,0.23046875
1263,0.00390625,-0.94921875,0.21484375
1264,-0.00390625,-0.95703125,0.21875
1265,-0.00390625,-0.96484375,0.21875
1266,-0.00390625,-0.96484375,0.23046875
1267,-0.015625,-0.96875,0.21875
1268,-0.01171875,-0.96484375,0.23828125
1269,-0.015625,-0.97265625,0.21484375
1270,-0.0078125,-0.97265625,0.2109375
1271,-0.0078125,-0.96484375,0.2265625
1272,-0.015625,-0.97265625,0.21484375
1273,0.0,-0.97265625,0.21484375
1274,0.0,-0.96875,0.2109375
1275,-0.0078125,-0.98046875,0.20703125
1276,0.0,-0.97265625,0.19921875
1277,0.0,-0.96875,0.21875
1278,-0.00390625,-0.9765625,0.21484375
1279,-0.00390625,-0.97265625,0.21875
1280,0.0,-0.98046875,0.20703125
1281,0.00390625,-0.9765625,0.21484375
1282,-0.00390625,-0.96875,0.21484375
1283,0.00390625,-0.984375,0.19921875
1284,0.00390625,-0.9765625,0.19140625
1285,0.00390625,-0.984375,0.22265625
1286,0.0,-0.97265625,0.22265625
1287,0.00390625,-0.97265625,0.21875
1288,0.00390625,-0.9765625,0.2109375
1289,0.0,-0.96484375,0.20703125
1290,0.0,-0.96875,0.20703125
1291,0.0,-0.96484375,0.21875
1292,0.0,-0.96484375,0.21875
1293,0.0,-0.95703125,0.23046875
1294,-0.0078125,-0.9609375,0.234375
1295,-0.01171875,-0.953125,0.21875
1296,-0.00390625,-0.96484375,0.22265625
1297,-0.00390625,-0.96484375,0.234375
1298,0.0,-0.984375,0.20703125
1299,-0.00390625,-0.96875,0.21875
1300,0.0,-0.97265625,0.21875
1301,-0.00390625,-0.9609375,0.23828125
1302,-0.00390625,-0.97265625,0.21484375
1303,-0.00390625,-0.9765625,0.2265625
1304,-0.00390625,-0.96875,0.21875
1305,-0.01953125,-0.94921875,0.23828125
1306,-0.00390625,-0.97265625,0.24609375
1307,-0.015625,-0.96484375,0.23046875
1308,0.0,-0.96484375,0.23046875
1309,-0.0078125,-0.96875,0.2265625
1310,0.0,-0.9609375,0.23046875
1311,-0.00390625,-0.96484375,0.234375
1312,-0.00390625,-0.953125,0.2265625
1313,0.0,-0.96875,0.21875
1314,0.0,-0.96484375,0.2265625
1315,-0.00390625,-0.96875,0.2265625
1316,0.00390625,-0.96875,0.22265625
1317,0.0,-0.9765625,0.234375
1318,0.0,-0.97265625,0.22265625
1319,-0.0078125,-0.96484375,0.2265625
1320,-0.0078125,-0.9765625,0.2265625
1321,-0.00390625,-0.96875,0.22265625
1322,-0.00390625,-0.96875,0.2421875
1323,-0.01953125,-0.97265625,0.2265625
1324,-0.0078125,-0.96875,0.22265625
1325,-0.02734375,-0.98046875,0.21875
1326,-0.02734375,-0.9765625,0.23828125
1327,-0.0390625,-0.96875,0.20703125
1328,-0.01953125,-0.97265625,0.2421875
1329,-0.015625,-0.98046875,0.20703125
1330,-0.03515625,-0.9609375,0.21484375
1331,-0.03125,-0.96484375,0.21875
1332,-0.01171875,-0.9609375,0.21484375
1333,-0.0234375,-0.96484375,0.22265625
1334,-0.01953125,-0.96484375,0.21875
1335,-0.0078125,-0.96484375,0.22265625
1336,-0.00390625,-0.96484375,0.21875
1337,-0.01171875,-0.953125,0.23828125
1338,0.0,-0.953125,0.21875
1339,0.00390625,-0.96484375,0.2265625
1340,0.0,-0.953125,0.21484375
1341,0.00390625,-0.9609375,0.24609375
1342,0.0,-0.96875,0.22265625
1343,-0.00390625,-0.96875,0.234375
1344,0.00390625,-0.96875,0.22265625
1345,0.0,-0.96875,0.22265625
1346,0.0078125,-0.97265625,0.2265625
1347,0.0,-0.96484375,0.234375
1348,0.0,-0.9765625,0.20703125
1349,0.0078125,-0.99609375,0.23046875
1350,0.0,-0.96875,0.2109375
1351,-0.00390625,-0.97265625,0.23828125
1352,0.0,-0.96875,0.21875
1353,-0.00390625,-0.96875,0.21875
1354,-0.0078125,-0.96875,0.21484375
1355,0.00390625,-0.9765625,0.2265625
1356,-0.01171875,-0.96875,0.21875
1357,-0.01171875,-0.96875,0.2109375
1358,-0.00390625,-0.96875,0.21484375
1359,-0.0078125,-0.96484375,0.21875
1360,0.0,-0.96875,0.22265625
1361,-0.00390625,-0.96484375,0.2265625
1362,-0.00390625,-0.96484375,0.21484375
1363,0.0,-0.96484375,0.22265625
1364,0.0,-0.953125,0.22265625
1365,-0.00390625,-0.96484375,0.21484375
1366,0.0,-0.96875,0.21875
1367,0.0,-0.9609375,0.23046875
1368,-0.015625,-0.96875,0.22265625
1369,-0.0078125,-0.96484375,0.234375
1370,-0.00390625,-0.96875,0.23046875
1371,0.0,-0.98046875,0.22265625
1372,-0.00390625,-0.96484375,0.21875
1373,-0.0078125,-0.96484375,0.2265625
1374,-0.0078125,-0.97265625,0.21875
1375,-0.00390625,-0.96875,0.2109375
1376,-0.00390625,-0.9609375,0.234375
1377,0.0,-0.96484375,0.23046875
1378,-0.00390625,-0.96875,0.22265625
1379,0.0,-0.96484375,0.22265625
1380,-0.0078125,-0.96875,0.234375
1381,0.0,-0.94921875,0.22265625
1382,0.0,-0.9609375,0.2421875
1383,0.0,-0.96484375,0.23828125
1384,-0.01171875,-0.9609375,0.2265625
1385,-0.01171875,-0.96875,0.234375
1386,-0.0234375,-0.96484375,0.23046875
1387,-0.0234375,-0.95703125,0.24609375
1388,-0.02734375,-0.96484375,0.234375
1389,-0.01171875,-0.9765625,0.24609375
1390,-0.0234375,-0.9765625,0.234375
1391,-0.0078125,-0.96875,0.25
1392,-0.00390625,-0.9765625,0.24609375
1393,-0.01953125,-0.96875,0.23828125
1394,-0.01171875,-0.96875,0.24609375
1395,-0.0078125,-0.96484375,0.24609375
1396,-0.00390625,-0.96484375,0.24609375
1397,-0.00390625,-0.9609375,0.234375
1398,-0.01171875,-0.96875,0.23828125
1399,-0.00390625,-0.9609375,0.23828125
1400,0.00390625,-0.9609375,0.23046875
1401,0.0,-0.96484375,0.234375
1402,-0.0078125,-0.96875,0.25
1403,0.0,-0.9609375,0.24609375
1404,0.00390625,-0.96875,0.2421875
1405,0.0,-0.97265625,0.234375
1406,0.00390625,-0.97265625,0.234375
1407,0.00390625,-0.96484375,0.2265625
1408,0.0,-0.96484375,0.2421875
1409,-0.00390625,-0.96484375,0.234375
1410,0.0,-0.96484375,0.23828125
1411,-0.015625,-0.9453125,0.2421875
1412,0.0,-0.9765625,0.24609375
1413,-0.01953125,-0.9609375,0.23828125
1414,-0.0078125,-0.96484375,0.23828125
1415,-0.00390625,-0.96484375,0.234375
1416,-0.0078125,-0.97265625,0.23046875
1417,-0.015625,-0.9609375,0.24609375
1418,-0.0078125,-0.96875,0.23828125
1419,-0.0078125,-0.96484375,0.24609375
1420,-0.01171875,-0.9609375,0.25
1421,-0.01953125,-0.96484375,0.25390625
1422,-0.02734375,-0.94921875,0.265625
1423,-0.015625,-0.95703125,0.25
1424,-0.0078125,-0.96875,0.25390625
1425,-0.015625,-0.97265625,0.25390625
1426,-0.00390625,-0.97265625,0.23828125
1427,-0.015625,-0.97265625,0.23828125
1428,-0.0078125,-0.9609375,0.2421875
1429,-0.00390625,-0.953125,0.23828125
1430,-0.00390625,-0.94921875,0.25390625
1431,-0.00390625,-0.9609375,0.25390625
1432,-0.01171875,-0.94921875,0.23828125
1433,-0.01171875,-0.95703125,0.25390625
1434,-0.0078125,-0.95703125,0.265625
1435,-0.0078125,-0.9453125,0.25390625
1436,-0.01171875,-0.9453125,0.265625
1437,-0.0078125,-0.95703125,0.26953125
1438,-0.00390625,-0.953125,0.2734375
1439,0.0,-0.96484375,0.27734375
1440,0.0,-0.953125,0.26171875
1441,-0.00390625,-0.953125,0.26171875
1442,0.0,-0.95703125,0.26171875
1443,-0.01171875,-0.9609375,0.2578125
1444,-0.00390625,-0.9609375,0.26171875
1445,0.0,-0.96484375,0.25390625
1446,-0.01171875,-0.953125,0.2578125
1447,0.0,-0.96875,0.26171875
1448,-0.0078125,-0.9609375,0.2578125
1449,-0.0078125,-0.95703125,0.265625
1450,-0.01171875,-0.9609375,0.2578125
1451,-0.00390625,-0.96484375,0.26171875
1452,-0.015625,-0.96484375,0.265625
1453,-0.01171875,-0.96875,0.26171875
1454,-0.0078125,-0.95703125,0.26953125
1455,-0.015625,-0.96484375,0.25390625
1456,-0.01171875,-0.94921875,0.25390625
1457,-0.00390625,-0.96484375,0.25
1458,-0.00390625,-0.95703125,0.24609375
1459,-0.00390625,-0.9609375,0.25390625
1460,-0.01171875,-0.9609375,0.25390625
1461,0.0,-0.94921875,0.265625
1462,-0.01171875,-0.94921875,0.25390625
1463,-0.00390625,-0.96484375,0.24609375
1464,-0.0234375,-0.94921875,0.26953125
1465,0.0,-0.9453125,0.23828125
1466,0.0,-0.953125,0.25390625
1467,-0.00390625,-0.9609375,0.26953125
1468,0.0,-0.9609375,0.26171875
1469,0.0,-0.9609375,0.265625
1470,-0.00390625,-0.96875,0.2734375
1471,0.0,-0.96875,0.25390625
1472,-0.0078125,-0.97265625,0.2578125
1473,0.0,-0.96875,0.26953125
1474,0.0,-0.9609375,0.265625
1475,0.00390625,-0.9609375,0.2578125
1476,0.0,-0.95703125,0.2578125
1477,-0.00390625,-0.9609375,0.265625
1478,-0.01171875,-0.96484375,0.2734375
1479,-0.00390625,-0.953125,0.265625
1480,-0.03125,-0.9375,0.296875
1481,-0.01953125,-0.95703125,0.26953125
1482,-0.0078125,-0.94921875,0.2734375
1483,-0.0234375,-0.95703125,0.26171875
1484,0.0,-0.953125,0.265625
1485,-0.0078125,-0.953125,0.28515625
1486,-0.0078125,-0.953125,0.265625
1487,-0.01171875,-0.95703125,0.265625
1488,-0.015625,-0.953125,0.26953125
1489,0.0,-0.96484375,0.28515625
1490,0.0,-0.96484375,0.2578125
1491,-0.015625,-0.95703125,0.28515625
1492,-0.0078125,-0.95703125,0.265625
1493,-0.01171875,-0.95703125,0.28125
1494,-0.00390625,-0.953125,0.26953125
1495,-0.0078125,-0.95703125,0.2734375
1496,-0.01171875,-0.96484375,0.26953125
1497,-0.01171875,-0.9453125,0.2578125
1498,-0.01171875,-0.9609375,0.26953125
1499,0.0,-0.953125,0.26953125
1500,0.0,-0.95703125,0.2734375
1501,0.00390625,-0.96484375,0.2734375
1502,0.0,-0.94921875,0.30859375
1503,-0.00390625,-0.95703125,0.265625
1504,0.0,-0.96484375,0.265625
1505,0.0,-0.9609375,0.26171875
1506,-0.00390625,-0.95703125,0.26171875
1507,0.0,-0.95703125,0.25390625
1508,0.0,-0.96484375,0.2578125
1509,0.0,-0.96875,0.2734375
1510,0.0,-0.95703125,0.2578125
1511,-0.0078125,-0.96484375,0.265625
1512,-0.0078125,-0.953125,0.26953125
1513,0.0,-0.96484375,0.26953125
1514,-0.0078125,-0.953125,0.28515625
1515,-0.0078125,-0.953125,0.265625
1516,-0.0078125,-0.953125,0.2734375
1517,-0.015625,-0.94921875,0.2734375
1518,-0.00390625,-0.9609375,0.28515625
1519,-0.015625,-0.95703125,0.26953125
1520,-0.0234375,-0.95703125,0.26953125
1521,-0.01171875,-0.94921875,0.28515625
1522,-0.01171875,-0.95703125,0.2734375
1523,-0.01171875,-0.9453125,0.26953125
1524,-0.0078125,-0.9609375,0.2890625
1525,-0.0078125,-0.96484375,0.2890625
1526,-0.01171875,-0.9609375,0.28125
1527,0.0,-0.97265625,0.28515625
1528,-0.015625,-0.9609375,0.28515625
1529,-0.0078125,-0.96484375,0.265625
1530,-0.00390625,-0.97265625,0.27734375
1531,-0.00390625,-0.96484375,0.27734375
1532,-0.00390625,-0.95703125,0.265625
1533,0.0,-0.953125,0.2734375
1534,-0.00390625,-0.953125,0.2578125
1535,0.0,-0.9453125,0.28515625
1536,-0.00390625,-0.9375,0.265625
1537,-0.0078125,-0.9453125,0.2890625
1538,0.0,-0.93359375,0.28125
1539,0.0,-0.9375,0.29296875
1540,-0.0078125,-0.953125,0.29296875
1541,-0.015625,-0.9453125,0.28125
1542,-0.0234375,-0.95703125,0.28515625
1543,-0.00390625,-0.95703125,0.29296875
1544,-0.01171875,-0.9453125,0.2890625
1545,-0.015625,-0.9609375,0.28515625
1546,-0.0078125,-0.95703125,0.29296875
1547,-0.00390625,-0.953125,0.2890625
1548,-0.0078125,-0.95703125,0.29296875
1549,-0.00390625,-0.9609375,0.28515625
1550,-0.015625,-0.94921875,0.2734375
1551,-0.00390625,-0.9453125,0.28125
1552,-0.00390625,-0.953125,0.27734375
1553,-0.0078125,-0.9453125,0.26953125
1554,-0.0078125,-0.94921875,0.28125
1555,-0.0078125,-0.953125,0.28125
1556,0.0,-0.953125,0.26953125
1557,0.0,-0.95703125,0.2734375
1558,0.00390625,-0.9609375,0.2734375
1559,0.00390625,-0.95703125,0.2734375
1560,0.0,-0.953125,0.2734375
1561,0.0078125,-0.95703125,0.2734375
1562,0.00390625,-0.95703125,0.28125
1563,-0.0078125,-0.95703125,0.2734375
1564,0.0,-0.95703125,0.29296875
1565,0.0,-0.94921875,0.26953125
1566,0.0,-0.94921875,0.28515625
1567,-0.0078125,-0.953125,0.28515625
1568,-0.00390625,-0.95703125,0.28125
1569,-0.01171875,-0.9609375,0.2890625
1570,0.0,-0.9453125,0.2734375
1571,-0.015625,-0.95703125,0.28515625
1572,-0.01953125,-0.953125,0.27734375
1573,0.0,-0.95703125,0.2734375
1574,-0.0078125,-0.95703125,0.28515625
1575,-0.00390625,-0.95703125,0.3046875
1576,-0.0078125,-0.96484375,0.28515625
1577,-0.0078125,-0.95703125,0.296875
1578,-0.01953125,-0.95703125,0.28515625
1579,0.0,-0.9609375,0.26953125
1580,0.0,-0.95703125,0.2734375
1581,-0.0078125,-0.9453125,0.27734375
1582,0.0,-0.953125,0.2890625
1583,0.0,-0.9453125,0.28515625
1584,-0.00390625,-0.953125,0.29296875
1585,-0.00390625,-0.94921875,0.27734375
1586,0.0,-0.953125,0.296875
1587,-0.01171875,-0.953125,0.28125
1588,-0.00390625,-0.95703125,0.2734375
1589,0.0,-0.94140625,0.27734375
1590,-0.00390625,-0.953125,0.2890625
1591,0.0,-0.953125,0.28515625
1592,0.0,-0.95703125,0.28125
1593,0.0,-0.94921875,0.28515625
1594,-0.0234375,-0.9453125,0.28125
1595,-0.0078125,-0.95703125,0.28125
1596,-0.00390625,-0.9609375,0.28125
1597,-0.0078125,-0.94921875,0.27734375
1598,-0.0078125,-0.95703125,0.28515625
1599,0.0,-0.953125,0.2734375
1600,-0.0078125,-0.95703125,0.27734375
1601,-0.00390625,-0.95703125,0.28515625
1602,-0.00390625,-0.95703125,0.2890625
1603,-0.0078125,-0.95703125,0.27734375
1604,-0.02734375,-0.9453125,0.2734375
1605,-0.00390625,-0.95703125,0.2734375
1606,0.0,-0.9453125,0.28125
1607,-0.0078125,-0.95703125,0.29296875
1608,0.0,-0.95703125,0.28515625
1609,-0.00390625,-0.96875,0.27734375
1610,-0.01953125,-0.9375,0.29296875
1611,-0.01171875,-0.95703125,0.28515625
1612,-0.00390625,-0.9609375,0.28125
1613,0.0,-0.953125,0.2734375
1614,0.0,-0.96484375,0.2734375
1615,0.0,-0.96484375,0.2734375
1616,-0.0078125,-0.95703125,0.29296875
1617,0.0,-0.94921875,0.2734375
1618,-0.00390625,-0.94921875,0.2890625
1619,-0.0078125,-0.94921875,0.28125
1620,-0.0078125,-0.953125,0.2890625
1621,0.0,-0.953125,0.2890625
1622,0.0,-0.953125,0.28515625
1623,0.0,-0.96484375,0.28125
1624,0.0,-0.9609375,0.27734375
1625,0.0,-0.96484375,0.28125
1626,-0.0078125,-0.9609375,0.2890625
1627,-0.00390625,-0.953125,0.28125
1628,-0.0078125,-0.953125,0.27734375
1629,-0.0078125,-0.94140625,0.28125
1630,-0.01171875,-0.94140625,0.29296875
1631,-0.00390625,-0.9609375,0.2734375
1632,-0.0078125,-0.95703125,0.28515625
1633,0.0,-0.94140625,0.29296875
1634,-0.00390625,-0.9609375,0.26953125
1635,-0.015625,-0.9609375,0.28125
1636,-0.0078125,-0.9609375,0.28515625
1637,-0.0078125,-0.96484375,0.27734375
1638,0.0,-0.953125,0.28125
1639,0.0,-0.953125,0.2890625
1640,-0.0078125,-0.94921875,0.28515625
1641,0.0,-0.9453125,0.26953125
1642,-0.00390625,-0.9453125,0.28515625
1643,0.0,-0.9453125,0.27734375
1644,0.0,-0.93359375,0.26953125
1645,-0.00390625,-0.94921875,0.28515625
1646,0.0,-0.94921875,0.28125
1647,0.0,-0.93359375,0.27734375
1648,-0.015625,-0.94140625,0.296875
1649,0.0,-0.9609375,0.2734375
1650,0.0,-0.96484375,0.2734375
1651,0.0,-0.953125,0.28515625
1652,0.0,-0.953125,0.2890625
1653,0.0,-0.953125,0.26953125
1654,-0.00390625,-0.9609375,0.3046875
1655,-0.0078125,-0.953125,0.29296875
1656,-0.00390625,-0.94921875,0.28515625
1657,-0.0078125,-0.96484375,0.2890625
1658,-0.01171875,-0.9609375,0.28125
1659,-0.0078125,-0.94140625,0.28125
1660,-0.00390625,-0.94921875,0.265625
1661,-0.00390625,-0.94921875,0.2734375
1662,-0.0078125,-0.953125,0.27734375
1663,-0.01953125,-0.9453125,0.26953125
1664,-0.0234375,-0.94140625,0.28125
1665,-0.00390625,-0.94921875,0.2734375
1666,-0.015625,-0.95703125,0.28125
1667,-0.01953125,-0.953125,0.28125
1668,-0.0078125,-0.9609375,0.265625
1669,0.0,-0.95703125,0.2734375
1670,-0.00390625,-0.953125,0.2578125
1671,-0.00390625,-0.95703125,0.27734375
1672,0.0,-0.95703125,0.28125
1673,-0.0078125,-0.9609375,0.28515625
1674,0.0,-0.96484375,0.2578125
1675,-0.01171875,-0.96484375,0.2890625
1676,-0.00390625,-0.9765625,0.25390625
1677,0.0,-0.96875,0.2734375
1678,0.0,-0.96875,0.28125
1679,0.00390625,-0.96484375,0.2734375
1680,0.0,-0.95703125,0.26953125
1681,0.0,-0.9609375,0.26953125
1682,-0.00390625,-0.96484375,0.265625
1683,-0.00390625,-0.95703125,0.2734375
1684,0.0,-0.953125,0.2578125
1685,0.0,-0.95703125,0.265625
1686,-0.015625,-0.9609375,0.29296875
1687,-0.01171875,-0.9453125,0.25390625
1688,-0.00390625,-0.95703125,0.26171875
1689,-0.01171875,-0.94921875,0.2734375
1690,-0.00390625,-0.95703125,0.2734375
1691,-0.00390625,-0.96484375,0.2578125
1692,-0.0078125,-0.953125,0.26171875
1693,-0.015625,-0.9609375,0.265625
1694,-0.015625,-0.953125,0.27734375
1695,0.0,-0.96484375,0.26953125
1696,-0.01171875,-0.95703125,0.26953125
1697,-0.01171875,-0.94140625,0.27734375
1698,-0.01171875,-0.9140625,0.265625
1699,-0.015625,-0.9453125,0.2578125
1700,-0.01171875,-0.9453125,0.265625
1701,-0.015625,-0.93359375,0.26171875
1702,0.0,-0.95703125,0.265625
1703,0.0,-0.96484375,0.28125
1704,-0.0234375,-0.953125,0.26953125
1705,-0.0078125,-0.95703125,0.27734375
1706,-0.0078125,-0.95703125,0.2890625
1707,-0.01171875,-0.95703125,0.26953125
1708,-0.01171875,-0.9609375,0.28125
1709,0.0,-0.95703125,0.30078125
1710,-0.01953125,-0.94921875,0.28125
1711,0.0,-0.9453125,0.28515625
1712,-0.015625,-0.9453125,0.28515625
1713,-0.01171875,-0.95703125,0.28515625
1714,-0.0078125,-0.94921875,0.28515625
1715,-0.00390625,-0.94921875,0.26953125
1716,-0.01953125,-0.94140625,0.28515625
1717,-0.0234375,-0.94921875,0.2734375
1718,-0.01953125,-0.953125,0.28515625
1719,-0.01171875,-0.95703125,0.26953125
1720,-0.0234375,-0.94921875,0.2578125
1721,-0.01171875,-0.95703125,0.27734375
1722,-0.01953125,-0.953125,0.2734375
1723,-0.0078125,-0.96484375,0.28125
1724,-0.0078125,-0.9609375,0.28125
1725,-0.01171875,-0.96484375,0.28515625
1726,-0.015625,-0.9609375,0.2734375
1727,-0.01171875,-0.94921875,0.27734375
1728,-0.00390625,-0.95703125,0.28125
1729,-0.0078125,-0.9453125,0.27734375
1730,-0.0078125,-0.94921875,0.28515625
1731,-0.0078125,-0.9609375,0.27734375
1732,-0.0078125,-0.94921875,0.26953125
1733,-0.01171875,-0.94921875,0.28515625
1734,-0.00390625,-0.95703125,0.27734375
1735,-0.0078125,-0.95703125,0.27734375
1736,-0.00390625,-0.95703125,0.28515625
1737,-0.01953125,-0.9609375,0.28125
1738,-0.01171875,-0.95703125,0.2890625
1739,-0.01953125,-0.95703125,0.27734375
1740,-0.00390625,-0.95703125,0.26953125
1741,-0.0078125,-0.95703125,0.27734375
1742,-0.0234375,-0.94921875,0.27734375
1743,-0.0078125,-0.9609375,0.27734375
1744,-0.02734375,-0.953125,0.26953125
1745,-0.0078125,-0.95703125,0.265625
1746,-0.01171875,-0.95703125,0.28515625
1747,-0.03125,-0.95703125,0.2890625
1748,-0.0078125,-0.96484375,0.28515625
1749,0.0,-0.96484375,0.26953125
1750,-0.01171875,-0.96875,0.27734375
1751,0.0,-0.96875,0.26953125
1752,0.0,-0.9609375,0.27734375
1753,0.0,-0.96484375,0.28125
1754,-0.0078125,-0.9453125,0.26171875
1755,-0.00390625,-0.9609375,0.28125
1756,0.0,-0.94140625,0.26953125
1757,0.0,-0.9453125,0.28515625
1758,0.0,-0.9375,0.27734375
1759,0.0,-0.93359375,0.28515625
1760,-0.00390625,-0.94921875,0.27734375
1761,-0.015625,-0.9453125,0.28515625
1762,-0.015625,-0.9453125,0.30078125
1763,-0.0078125,-0.94140625,0.30078125
1764,-0.0078125,-0.95703125,0.2890625
1765,-0.015625,-0.94921875,0.28515625
1766,-0.00390625,-0.9609375,0.29296875
1767,-0.0234375,-0.953125,0.28125
1768,-0.01953125,-0.953125,0.28125
1769,-0.01171875,-0.94921875,0.2734375
1770,-0.01171875,-0.953125,0.26171875
1771,-0.02734375,-0.953125,0.265625
1772,-0.015625,-0.9609375,0.27734375
1773,-0.02734375,-0.94140625,0.28125
1774,-0.0078125,-0.95703125,0.2734375
1775,-0.0078125,-0.94921875,0.2734375
1776,-0.0078125,-0.96875,0.27734375
1777,-0.00390625,-0.96484375,0.25390625
1778,-0.00390625,-0.96875,0.26953125
1779,-0.01171875,-0.9609375,0.25390625
1780,-0.00390625,-0.9609375,0.26171875
1781,-0.00390625,-0.96484375,0.2578125
1782,-0.015625,-0.9609375,0.25390625
1783,-0.0078125,-0.953125,0.25
1784,-0.01953125,-0.9609375,0.296875
1785,-0.00390625,-0.95703125,0.27734375
1786,-0.0234375,-0.95703125,0.265625
1787,-0.00390625,-0.95703125,0.27734375
1788,-0.01953125,-0.953125,0.265625
1789,-0.01953125,-0.94921875,0.2734375
1790,-0.01171875,-0.9609375,0.26171875
1791,-0.0078125,-0.96484375,0.26953125
1792,-0.015625,-0.95703125,0.2578125
1793,-0.01953125,-0.96484375,0.26171875
1794,-0.02734375,-0.96484375,0.26171875
1795,-0.00390625,-0.96875,0.265625
1796,-0.015625,-0.96875,0.2734375
1797,-0.02734375,-0.96484375,0.26953125
1798,-0.01953125,-0.96875,0.2734375
1799,-0.01953125,-0.9609375,0.2734375
1800,-0.015625,-0.96484375,0.28125
1801,-0.015625,-0.9453125,0.265625
1802,-0.0078125,-0.9609375,0.28515625
1803,-0.00390625,-0.96484375,0.27734375
1804,-0.01953125,-0.953125,0.265625
1805,0.0,-0.95703125,0.265625
1806,-0.01953125,-0.94921875,0.26953125
1807,-0.01171875,-0.94921875,0.27734375
1808,-0.01171875,-0.95703125,0.27734375
1809,-0.0234375,-0.953125,0.28515625
1810,-0.01171875,-0.9609375,0.26953125
1811,-0.0234375,-0.94921875,0.2734375
1812,-0.015625,-0.9609375,0.265625
1813,-0.02734375,-0.95703125,0.27734375
1814,-0.01953125,-0.953125,0.26953125
1815,-0.015625,-0.95703125,0.265625
1816,-0.0234375,-0.95703125,0.26953125
1817,0.0,-0.953125,0.27734375
1818,-0.01171875,-0.94140625,0.27734375
1819,-0.00390625,-0.953125,0.2734375
1820,-0.01953125,-0.953125,0.27734375
1821,-0.015625,-0.953125,0.27734375
1822,-0.015625,-0.95703125,0.2734375
1823,0.0,-0.95703125,0.2734375
1824,-0.015625,-0.95703125,0.28125
1825,-0.00390625,-0.953125,0.26953125
1826,-0.015625,-0.94140625,0.2734375
1827,0.0,-0.96484375,0.26953125
1828,-0.0078125,-0.94921875,0.27734375
1829,-0.03125,-0.9296875,0.2578125
1830,-0.01953125,-0.9609375,0.29296875
1831,-0.00390625,-0.953125,0.28125
1832,-0.015625,-0.95703125,0.28125
1833,-0.00390625,-0.95703125,0.265625
1834,0.0,-0.953125,0.28125
1835,-0.00390625,-0.953125,0.27734375
1836,-0.0078125,-0.95703125,0.27734375
1837,0.0,-0.95703125,0.28515625
1838,-0.01953125,-0.95703125,0.2734375
1839,-0.00390625,-0.9609375,0.28125
1840,-0.0234375,-0.94921875,0.29296875
1841,-0.015625,-0.94921875,0.2890625
1842,-0.0078125,-0.9453125,0.30078125
1843,-0.0078125,-0.953125,0.28125
1844,-0.01171875,-0.96484375,0.2890625
1845,-0.01171875,-0.96484375,0.2734375
1846,-0.01171875,-0.95703125,0.28515625
1847,0.0,-0.96484375,0.28515625
1848,-0.01171875,-0.94921875,0.28515625
1849,-0.01171875,-0.953125,0.28125
1850,-0.01171875,-0.953125,0.30078125
1851,0.0,-0.953125,0.28125
1852,-0.01171875,-0.9453125,0.3046875
1853,-0.015625,-0.94921875,0.2890625
1854,-0.01953125,-0.93359375,0.2890625
1855,-0.015625,-0.94140625,0.28125
1856,-0.01171875,-0.9453125,0.2890625
1857,-0.0078125,-0.9453125,0.3046875
1858,-0.015625,-0.94921875,0.29296875
1859,-0.015625,-0.94921875,0.28515625
1860,-0.0234375,-0.96875,0.28125
1861,-0.01953125,-0.9609375,0.296875
1862,-0.015625,-0.9609375,0.28125
1863,-0.0234375,-0.94921875,0.28125
1864,-0.015625,-0.953125,0.28125
1865,-0.00390625,-0.9609375,0.2890625
1866,-0.0078125,-0.94921875,0.28515625
1867,-0.0234375,-0.9375,0.27734375
1868,-0.015625,-0.9453125,0.2890625
1869,0.0,-0.9453125,0.2734375
1870,-0.01171875,-0.93359375,0.29296875
1871,-0.0234375,-0.91796875,0.29296875
1872,-0.0078125,-0.93359375,0.28515625
1873,-0.01953125,-0.94921875,0.30078125
1874,0.0,-0.9375,0.30859375
1875,-0.01953125,-0.93359375,0.3125
1876,-0.015625,-0.953125,0.30859375
1877,-0.01953125,-0.94140625,0.30859375
1878,-0.0234375,-0.9453125,0.30859375
1879,-0.01171875,-0.9453125,0.296875
1880,-0.015625,-0.94921875,0.30859375
1881,-0.0078125,-0.95703125,0.30078125
1882,-0.0078125,-0.953125,0.29296875
1883,-0.01953125,-0.94921875,0.2890625
1884,-0.0078125,-0.9375,0.3046875
1885,-0.01953125,-0.9453125,0.28515625
1886,-0.01953125,-0.94140625,0.296875
1887,-0.01953125,-0.95703125,0.3046875
1888,-0.0078125,-0.94921875,0.30859375
1889,-0.015625,-0.94140625,0.3125
1890,-0.0078125,-0.953125,0.30859375
1891,-0.01953125,-0.9609375,0.30859375
1892,-0.015625,-0.953125,0.30078125
1893,-0.03125,-0.94921875,0.30078125
1894,-0.0078125,-0.9296875,0.30078125
1895,-0.0078125,-0.94140625,0.296875
1896,-0.0234375,-0.9453125,0.30078125
1897,-0.01953125,-0.9375,0.29296875
1898,-0.01171875,-0.9296875,0.3046875
1899,-0.01953125,-0.9453125,0.3046875
1900,-0.00390625,-0.94921875,0.3046875
1901,-0.015625,-0.94140625,0.30078125
1902,-0.01953125,-0.9453125,0.29296875
1903,-0.03125,-0.93359375,0.30859375
1904,-0.0234375,-0.95703125,0.29296875
1905,-0.03125,-0.95703125,0.28515625
1906,-0.01953125,-0.9609375,0.30078125
1907,-0.02734375,-0.953125,0.30859375
1908,-0.01171875,-0.953125,0.296875
1909,-0.01953125,-0.9609375,0.30078125
1910,-0.03125,-0.953125,0.2890625
1911,-0.015625,-0.94921875,0.3046875
1912,-0.015625,-0.95703125,0.29296875
1913,-0.0234375,-0.94921875,0.3046875
1914,-0.015625,-0.9453125,0.2890625
1915,-0.01171875,-0.9375,0.29296875
1916,0.0,-0.94140625,0.31640625
1917,-0.00390625,-0.9609375,0.296875
1918,-0.00390625,-0.9453125,0.296875
1919,-0.00390625,-0.953125,0.3046875
1920,-0.0078125,-0.94140625,0.29296875
1921,-0.00390625,-0.9453125,0.30078125
1922,-0.0078125,-0.9453125,0.3046875
1923,0.0,-0.9453125,0.2890625
1924,-0.015625,-0.94140625,0.3125
1925,-0.01171875,-0.953125,0.3046875
1926,-0.01171875,-0.95703125,0.3125
1927,-0.00390625,-0.96875,0.29296875
1928,-0.015625,-0.953125,0.29296875
1929,-0.02734375,-0.9453125,0.30078125
1930,-0.015625,-0.94921875,0.31640625
1931,-0.01953125,-0.9453125,0.30078125
1932,-0.015625,-0.953125,0.296875
1933,-0.02734375,-0.94140625,0.30859375
1934,-0.01953125,-0.953125,0.296875
1935,-0.0234375,-0.94140625,0.30078125
1936,-0.015625,-0.9375,0.30078125
1937,-0.01171875,-0.9375,0.31640625
1938,-0.01171875,-0.953125,0.3046875
1939,-0.00390625,-0.95703125,0.296875
1940,-0.0078125,-0.953125,0.30078125
1941,-0.0078125,-0.9453125,0.31640625
1942,-0.015625,-0.9375,0.30078125
1943,-0.01953125,-0.953125,0.296875
1944,-0.01171875,-0.9453125,0.2890625
1945,-0.01171875,-0.9296875,0.3125
1946,-0.01171875,-0.9375,0.3125
1947,-0.01171875,-0.94140625,0.30859375
1948,-0.015625,-0.93359375,0.28515625
1949,-0.015625,-0.94921875,0.3125
1950,-0.02734375,-0.94140625,0.3203125
1951,-0.0078125,-0.94921875,0.31640625
1952,-0.0234375,-0.94140625,0.296875
1953,-0.01953125,-0.9375,0.3046875
1954,-0.01953125,-0.9609375,0.296875
1955,-0.0234375,-0.93359375,0.3046875
1956,-0.0234375,-0.94140625,0.296875
1957,-0.00390625,-0.953125,0.3203125
1958,-0.0234375,-0.9453125,0.30078125
1959,-0.04296875,-0.93359375,0.27734375
1960,-0.02734375,-0.953125,0.31640625
1961,-0.00390625,-0.95703125,0.3046875
1962,-0.0234375,-0.9375,0.3046875
1963,-0.01953125,-0.94140625,0.31640625
1964,-0.01953125,-0.9453125,0.3125
1965,-0.01953125,-0.9375,0.3046875
1966,-0.0078125,-0.9375,0.296875
1967,-0.0234375,-0.93359375,0.3046875
1968,-0.00390625,-0.9453125,0.30078125
1969,-0.0078125,-0.9375,0.296875
1970,-0.01953125,-0.9453125,0.29296875
1971,0.0,-0.953125,0.30859375
1972,0.0,-0.9296875,0.3203125
1973,-0.015625,-0.94140625,0.3125
1974,-0.01171875,-0.94921875,0.3046875
1975,-0.01171875,-0.94921875,0.30859375
1976,-0.0078125,-0.953125,0.30859375
1977,-0.01171875,-0.9609375,0.30859375
1978,-0.0078125,-0.96484375,0.30078125
1979,-0.01953125,-0.94921875,0.30078125
1980,-0.01953125,-0.953125,0.3046875
1981,-0.015625,-0.9296875,0.296875
1982,-0.0234375,-0.953125,0.296875
1983,-0.015625,-0.9296875,0.30078125
1984,-0.0234375,-0.92578125,0.30859375
1985,-0.015625,-0.93359375,0.2890625
1986,-0.02734375,-0.921875,0.30078125
1987,-0.01171875,-0.93359375,0.3046875
1988,-0.01953125,-0.93359375,0.3203125
1989,-0.02734375,-0.9453125,0.3125
1990,-0.01171875,-0.94140625,0.30859375
1991,-0.0234375,-0.953125,0.30859375
1992,-0.03125,-0.9609375,0.3046875
1993,-0.02734375,-0.97265625,0.29296875
1994,-0.0234375,-0.984375,0.2890625
1995,-0.0078125,-0.9765625,0.29296875
1996,-0.00390625,-0.98828125,0.29296875
1997,0.0,-0.98046875,0.296875
1998,0.00390625,-0.9609375,0.3046875
1999,0.00390625,-0.94140625,0.29296875
2000,0.0078125,-0.90625,0.2890625
2001,0.01953125,-0.89453125,0.29296875
2002,0.01171875,-0.87890625,0.30078125
2003,0.01953125,-0.859375,0.31640625
2004,0.00390625,-0.83203125,0.29296875
2005,-0.00390625,-0.84765625,0.2734375
2006,0.00390625,-0.83203125,0.265625
2007,0.0234375,-0.83984375,0.2265625
2008,0.03125,-0.8515625,0.2265625
2009,0.03125,-0.87109375,0.203125
2010,0.03125,-0.91015625,0.22265625
2011,0.046875,-0.953125,0.234375
2012,0.03515625,-0.97265625,0.2578125
2013,0.04296875,-0.97265625,0.26953125
2014,0.01953125,-0.9765625,0.26171875
2015,0.03515625,-0.99609375,0.28125
2016,0.02734375,-0.9921875,0.2578125
2017,0.015625,-1.0,0.21875
2018,0.0,-0.9921875,0.1875
2019,-0.00390625,-1.00390625,0.16015625
2020,-0.0234375,-1.0078125,0.12109375
2021,-0.02734375,-1.0078125,0.0859375
2022,-0.04296875,-1.0,0.0625
2023,-0.04296875,-0.98046875,0.03515625
2024,-0.0625,-0.96484375,0.0234375
2025,-0.06640625,-0.94921875,0.02734375
2026,-0.078125,-0.94140625,0.05859375
2027,-0.09765625,-0.921875,0.046875
2028,-0.1171875,-0.88671875,0.0625
2029,-0.12109375,-0.88671875,0.0703125
2030,-0.13671875,-0.890625,0.0859375
2031,-0.12890625,-0.90234375,0.12109375
2032,-0.125,-0.90625,0.10546875
2033,-0.1171875,-0.91015625,0.09765625
2034,-0.12109375,-0.91796875,0.11328125
2035,-0.09765625,-0.94140625,0.0703125
2036,-0.08203125,-0.9296875,0.09375
2037,-0.07421875,-0.9453125,0.078125
2038,-0.0703125,-0.9375,0.09765625
2039,-0.0546875,-0.92578125,0.0859375
2040,-0.05859375,-0.92578125,0.09375
2041,-0.0703125,-0.921875,0.1171875
2042,-0.08203125,-0.90625,0.1015625
2043,-0.04296875,-0.8984375,0.13671875
2044,-0.046875,-0.87890625,0.14453125
2045,-0.0625,-0.87109375,0.1484375
2046,-0.11328125,-0.84765625,0.1328125
2047,-0.06640625,-0.85546875,0.12109375
2048,-0.07421875,-0.83203125,0.08984375
2049,-0.0625,-0.83984375,0.06640625
2050,-0.03125,-0.859375,0.0546875
2051,-0.0390625,-0.859375,0.03515625
2052,-0.02734375,-0.875,0.0078125
2053,0.0078125,-0.88671875,-0.0390625
2054,0.046875,-0.9140625,-0.08203125
2055,0.0234375,-0.9140625,-0.1640625
2056,0.10546875,-0.953125,-0.25
2057,0.0859375,-0.9921875,-0.2578125
2058,0.12109375,-1.046875,-0.29296875
2059,0.15234375,-1.11328125,-0.31640625
2060,0.1328125,-1.12890625,-0.35546875
2061,0.10546875,-1.16015625,-0.484375
2062,0.015625,-1.22265625,-0.54296875
2063,-0.0078125,-1.29296875,-0.5703125
2064,-0.08203125,-1.33203125,-0.56640625
2065,-0.08984375,-1.3359375,-0.5390625
2066,-0.0859375,-1.26171875,-0.51953125
2067,-0.1875,-1.17578125,-0.4921875
2068,-0.171875,-1.06640625,-0.46875
2069,-0.0546875,-0.94921875,-0.45703125
2070,0.01171875,-0.81640625,-0.4453125
2071,0.0703125,-0.75,-0.46875
2072,0.09765625,-0.7421875,-0.55078125
2073,0.13671875,-0.76953125,-0.62890625
2074,0.19921875,-0.94140625,-0.67578125
2075,0.23828125,-1.19140625,-0.66015625
2076,0.15234375,-1.42578125,-0.5703125
2077,0.0625,-1.6796875,-0.46875
2078,-0.0859375,-1.84765625,-0.37890625
2079,-0.14453125,-1.953125,-0.33203125
2080,-0.18359375,-2.0,-0.359375
2081,-0.14453125,-2.01171875,-0.41796875
2082,-0.140625,-1.9765625,-0.53515625
2083,-0.1171875,-1.9375,-0.625
2084,-0.0234375,-1.921875,-0.69140625
2085,0.08203125,-1.90234375,-0.69140625
2086,0.1796875,-1.87109375,-0.6640625
2087,0.234375,-1.86328125,-0.63671875
2088,0.27734375,-1.828125,-0.625
2089,0.328125,-1.72265625,-0.62890625
2090,0.328125,-1.60546875,-0.62109375
2091,0.30078125,-1.48828125,-0.6015625
2092,0.28125,-1.40234375,-0.6015625
2093,0.2265625,-1.30859375,-0.5859375
2094,0.171875,-1.22265625,-0.58203125
2095,0.109375,-1.1953125,-0.5703125
2096,0.1015625,-1.1484375,-0.59375
2097,0.03515625,-1.10546875,-0.61328125
2098,-0.02734375,-1.0859375,-0.6484375
2099,-0.0859375,-1.08984375,-0.6484375
2100,-0.16796875,-1.0859375,-0.66796875
2101,-0.17578125,-1.078125,-0.64453125
2102,-0.171875,-1.11328125,-0.65234375
2103,-0.140625,-1.15234375,-0.62890625
2104,-0.16015625,-1.20703125,-0.625
2105,-0.140625,-1.25,-0.59375
2106,-0.1015625,-1.2734375,-0.5703125
2107,-0.08984375,-1.28125,-0.53515625
2108,-0.0546875,-1.3203125,-0.48828125
2109,0.0,-1.3671875,-0.4765625
2110,0.01953125,-1.37890625,-0.44140625
2111,0.06640625,-1.40234375,-0.42578125
2112,0.08984375,-1.43359375,-0.39453125
2113,0.1640625,-1.453125,-0.3828125
2114,0.1796875,-1.47265625,-0.3828125
2115,0.19921875,-1.484375,-0.3828125
2116,0.2109375,-1.4921875,-0.37890625
2117,0.203125,-1.4921875,-0.39453125
2118,0.1953125,-1.4765625,-0.4140625
2119,0.17578125,-1.4453125,-0.44140625
2120,0.1640625,-1.4140625,-0.453125
2121,0.15625,-1.39453125,-0.4453125
2122,0.140625,-1.35546875,-0.4296875
2123,0.13671875,-1.32421875,-0.4375
2124,0.109375,-1.31640625,-0.44921875
2125,0.0859375,-1.30078125,-0.4296875
2126,0.04296875,-1.28515625,-0.41015625
2127,0.00390625,-1.27734375,-0.41796875
2128,-0.03515625,-1.265625,-0.39453125
2129,-0.0546875,-1.26953125,-0.35546875
2130,-0.09375,-1.2734375,-0.3203125
2131,-0.1328125,-1.2734375,-0.30078125
2132,-0.14453125,-1.26171875,-0.3203125
2133,-0.15234375,-1.25390625,-0.33984375
2134,-0.16015625,-1.21875,-0.34765625
2135,-0.16796875,-1.1796875,-0.3828125
2136,-0.1640625,-1.1171875,-0.390625
2137,-0.16796875,-1.05859375,-0.40234375
2138,-0.16796875,-0.98828125,-0.40625
2139,-0.15234375,-0.92578125,-0.38671875
2140,-0.15625,-0.85546875,-0.36328125
2141,-0.14453125,-0.80078125,-0.33984375
2142,-0.1328125,-0.75,-0.32421875
2143,-0.13671875,-0.69921875,-0.2890625
2144,-0.10546875,-0.72265625,-0.26953125
2145,-0.09375,-0.72265625,-0.23828125
2146,-0.08203125,-0.7578125,-0.21484375
2147,-0.1015625,-0.8125,-0.171875
2148,-0.0859375,-0.875,-0.12109375
2149,-0.09375,-0.9375,-0.10546875
2150,-0.12890625,-0.9921875,-0.09765625
2151,-0.14453125,-1.0234375,-0.12890625
2152,-0.14453125,-1.06640625,-0.171875
2153,-0.17578125,-1.04296875,-0.2421875
2154,-0.1875,-1.03515625,-0.3046875
2155,-0.19140625,-1.015625,-0.33203125
2156,-0.1796875,-1.0078125,-0.36328125
2157,-0.18359375,-1.00390625,-0.37109375
2158,-0.1796875,-1.02734375,-0.34765625
2159,-0.16015625,-1.0390625,-0.33203125
2160,-0.15234375,-1.05859375,-0.30859375
2161,-0.1328125,-1.07421875,-0.28125
2162,-0.12109375,-1.078125,-0.27734375
2163,-0.09375,-1.0859375,-0.21875
2164,-0.07421875,-1.06640625,-0.2109375
2165,-0.03125,-1.04296875,-0.171875
2166,0.01953125,-1.01171875,-0.15625
2167,0.08203125,-0.95703125,-0.1328125
2168,0.12109375,-0.875,-0.14453125
2169,0.1328125,-0.77734375,-0.14453125
2170,0.13671875,-0.6875,-0.16796875
2171,0.12890625,-0.55078125,-0.2109375
2172,0.13671875,-0.44921875,-0.2421875
2173,0.13671875,-0.34765625,-0.26171875
2174,0.1484375,-0.26171875,-0.3046875
2175,0.16015625,-0.19140625,-0.30078125
2176,0.15234375,-0.12109375,-0.265625
2177,0.14453125,-0.0859375,-0.23828125
2178,0.08984375,-0.09765625,-0.203125
2179,0.00390625,-0.12109375,-0.203125
2180,-0.06640625,-0.1640625,-0.1875
2181,-0.0703125,-0.234375,-0.19921875
2182,-0.11328125,-0.2890625,-0.21484375
2183,-0.09375,-0.359375,-0.21484375
2184,-0.01953125,-0.421875,-0.25
2185,0.046875,-0.45703125,-0.30859375
2186,0.109375,-0.4453125,-0.33984375
2187,0.1484375,-0.4140625,-0.37890625
2188,0.1796875,-0.3671875,-0.35546875
2189,0.23046875,-0.3671875,-0.31640625
2190,0.2109375,-0.33984375,-0.28125
2191,0.14453125,-0.32421875,-0.25390625
2192,0.1171875,-0.3046875,-0.21875
2193,0.09375,-0.29296875,-0.17578125
2194,0.05859375,-0.234375,-0.16796875
2195,0.05859375,-0.23046875,-0.15234375
2196,0.0546875,-0.17578125,-0.12109375
2197,0.046875,-0.15234375,-0.12890625
2198,0.0625,-0.14453125,-0.15625
2199,0.0390625,-0.1171875,-0.1640625
2200,0.05078125,-0.1328125,-0.1875
2201,0.06640625,-0.14453125,-0.22265625
2202,0.07421875,-0.1875,-0.234375
2203,0.046875,-0.1875,-0.20703125
2204,0.015625,-0.234375,-0.23046875
2205,-0.03125,-0.2578125,-0.20703125
2206,-0.05859375,-0.3125,-0.16796875
2207,-0.1171875,-0.390625,-0.140625
2208,-0.1328125,-0.46875,-0.0703125
2209,-0.13671875,-0.55078125,-0.0546875
2210,-0.140625,-0.609375,-0.05859375
2211,-0.15234375,-0.6640625,-0.0859375
2212,-0.15234375,-0.7265625,-0.09765625
2213,-0.14453125,-0.796875,-0.1015625
2214,-0.1484375,-0.86328125,-0.10546875
2215,-0.1328125,-0.9140625,-0.08203125
2216,-0.1328125,-0.96484375,-0.08203125
2217,-0.1015625,-1.0234375,-0.08984375
2218,-0.07421875,-1.0390625,-0.07421875
2219,-0.046875,-1.0546875,-0.078125
2220,-0.02734375,-1.08984375,-0.078125
2221,0.015625,-1.0859375,-0.0703125
2222,0.06640625,-1.08984375,-0.07421875
2223,0.11328125,-1.078125,-0.06640625
2224,0.14453125,-1.05859375,-0.0703125
2225,0.1875,-1.046875,-0.0703125
2226,0.2109375,-1.00390625,-0.0546875
2227,0.25,-0.9921875,-0.04296875
2228,0.25390625,-0.97265625,-0.02734375
2229,0.28515625,-0.96875,-0.03515625
2230,0.296875,-0.9609375,-0.03125
2231,0.26953125,-0.96484375,-0.05078125
2232,0.2421875,-0.97265625,-0.05078125
2233,0.2265625,-0.99609375,-0.078125
2234,0.171875,-1.0078125,-0.09375
2235,0.11328125,-1.0390625,-0.1015625
2236,0.0546875,-1.06640625,-0.109375
2237,0.0,-1.0859375,-0.1171875
2238,-0.046875,-1.109375,-0.109375
2239,-0.0625,-1.14453125,-0.11328125
2240,-0.09375,-1.16796875,-0.10546875
2241,-0.08984375,-1.18359375,-0.11328125
2242,-0.0859375,-1.19140625,-0.1015625
2243,-0.0859375,-1.1953125,-0.11328125
2244,-0.06640625,-1.20703125,-0.08203125
2245,-0.04296875,-1.21484375,-0.078125
2246,-0.046875,-1.203125,-0.0546875
2247,-0.015625,-1.1953125,-0.02734375
2248,-0.0078125,-1.17578125,-0.01171875
2249,0.00390625,-1.140625,-0.01171875
2250,0.0078125,-1.1328125,-0.0078125
2251,0.01171875,-1.10546875,0.015625
2252,0.046875,-1.0625,0.015625
2253,0.0546875,-1.03515625,0.04296875
2254,0.0625,-1.01171875,0.05859375
2255,0.078125,-0.98828125,0.05859375
2256,0.0859375,-0.96484375,0.0703125
2257,0.09765625,-0.95703125,0.07421875
2258,0.08984375,-0.9375,0.06640625
2259,0.0859375,-0.921875,0.0859375
2260,0.0859375,-0.90625,0.08984375
2261,0.078125,-0.90625,0.08203125
2262,0.0625,-0.875,0.07421875
2263,0.0625,-0.875,0.08203125
2264,0.04296875,-0.8828125,0.09375
2265,0.0390625,-0.87109375,0.06640625
2266,0.02734375,-0.890625,0.07421875
2267,0.015625,-0.890625,0.078125
2268,0.0078125,-0.8984375,0.07421875
2269,0.0078125,-0.93359375,0.07421875
2270,0.01171875,-0.953125,0.06640625
2271,0.00390625,-0.94921875,0.05859375
2272,0.01953125,-0.96484375,0.05859375
2273,0.0234375,-0.97265625,0.05078125
2274,0.04296875,-0.98828125,0.0390625
2275,0.046875,-0.9765625,0.01953125
2276,0.05859375,-0.98828125,0.03515625
2277,0.0625,-0.98828125,0.015625
2278,0.06640625,-0.984375,0.015625
2279,0.0703125,-1.00390625,0.015625
2280,0.05859375,-1.0078125,0.015625
2281,0.0625,-1.03125,0.03515625
2282,0.0546875,-1.04296875,0.0390625
2283,0.0390625,-1.046875,0.02734375
2284,0.04296875,-1.07421875,0.03125
2285,0.03515625,-1.078125,0.03125
2286,0.01953125,-1.078125,0.03125
2287,0.0078125,-1.078125,0.015625
2288,0.01953125,-1.0859375,-0.00390625
2289,0.01171875,-1.04296875,0.00390625
2290,-0.01171875,-1.03125,0.0
2291,0.0,-1.0234375,-0.015625
2292,-0.03125,-1.01953125,-0.02734375
2293,-0.046875,-1.03125,-0.02734375
2294,-0.04296875,-1.01953125,-0.01171875
2295,-0.03515625,-1.0234375,0.0
2296,-0.015625,-1.01953125,0.0234375
2297,-0.0078125,-1.015625,0.0234375
2298,0.01171875,-1.0078125,0.05078125
2299,0.0234375,-0.99609375,0.06640625
2300,0.03515625,-1.0,0.0546875
2301,0.0234375,-0.98046875,0.04296875
2302,0.01171875,-0.9765625,0.015625
2303,0.0078125,-0.953125,0.03515625
2304,0.015625,-0.96875,0.01171875
2305,0.01953125,-0.98828125,0.0
2306,0.015625,-0.99609375,0.03125
2307,0.00390625,-1.0,0.02734375
2308,0.00390625,-0.9921875,0.01953125
2309,0.0078125,-0.98828125,0.015625
2310,-0.00390625,-0.984375,0.01171875
2311,0.01953125,-0.96875,0.01953125
2312,0.0078125,-0.96875,0.03515625
2313,0.00390625,-0.96484375,0.04296875
2314,0.0,-0.96484375,0.05078125
2315,-0.01171875,-0.95703125,0.04296875
2316,-0.01171875,-0.97265625,0.046875
2317,0.00390625,-0.984375,0.046875
2318,0.01171875,-1.0,0.02734375
2319,0.0078125,-0.98828125,0.046875
2320,0.01953125,-1.0,0.04296875
2321,0.0390625,-0.99609375,0.02734375
2322,0.0546875,-1.0078125,0.03125
2323,0.05078125,-1.01171875,0.0234375
2324,0.0625,-1.0234375,0.01953125
2325,0.0703125,-1.0,0.02734375
2326,0.0859375,-1.00390625,0.02734375
2327,0.0703125,-0.98828125,0.03125
2328,0.0625,-0.98828125,0.01953125
2329,0.0625,-0.98828125,0.0
2330,0.0625,-0.99609375,0.015625
2331,0.0625,-0.99609375,0.015625
2332,0.05078125,-0.98046875,0.01171875
2333,0.0625,-0.99609375,0.00390625
2334,0.04296875,-1.015625,0.0
2335,0.0390625,-1.01953125,-0.0078125
2336,0.046875,-1.01953125,-0.015625
2337,0.046875,-1.02734375,0.0078125
2338,0.046875,-1.03125,-0.00390625
2339,0.0390625,-1.01953125,-0.0234375
2340,0.03515625,-1.01953125,-0.0078125
2341,0.03125,-1.015625,-0.0234375
2342,0.01953125,-1.015625,-0.00390625
2343,0.03125,-1.01171875,-0.00390625
2344,0.015625,-1.00390625,-0.0078125
2345,0.0234375,-1.0078125,0.00390625
2346,0.0078125,-1.0,0.0
2347,0.01953125,-0.98828125,0.015625
2348,0.01953125,-1.0078125,-0.0078125
2349,0.0234375,-1.0,-0.0234375
2350,0.01171875,-1.015625,-0.015625
2351,0.0078125,-1.0234375,-0.0078125
2352,0.01171875,-1.01171875,-0.015625
2353,0.00390625,-1.0078125,-0.015625
2354,0.0,-1.00390625,-0.03125
2355,0.0,-1.0,-0.01171875
2356,-0.00390625,-0.9921875,-0.0078125
2357,0.0,-0.9921875,-0.0390625
2358,-0.00390625,-1.0,-0.03125
2359,-0.00390625,-1.0078125,-0.0390625
2360,0.0,-1.00390625,-0.0234375
2361,0.0078125,-1.0234375,-0.0234375
2362,0.0,-1.0234375,-0.046875
2363,0.0,-1.01171875,-0.04296875
2364,-0.00390625,-1.00390625,-0.03125
2365,-0.00390625,-1.01171875,-0.04296875
2366,0.0,-1.0,-0.04296875
2367,0.0,-0.99609375,-0.03515625
2368,-0.0078125,-0.98046875,-0.01171875
2369,0.00390625,-0.9765625,-0.0625
2370,0.00390625,-0.9765625,-0.046875
2371,0.0078125,-0.9765625,-0.04296875
2372,0.0,-0.98046875,-0.046875
2373,0.0,-0.96484375,-0.03125
2374,0.0,-0.9765625,-0.03515625
2375,0.0,-0.98046875,-0.02734375
2376,-0.00390625,-0.9921875,-0.03515625
2377,0.00390625,-0.9921875,-0.03125
2378,-0.01171875,-0.99609375,-0.03515625
2379,0.00390625,-1.0078125,-0.04296875
2380,0.015625,-1.01171875,-0.0234375
2381,0.01953125,-1.01953125,-0.0546875
2382,0.01953125,-1.02734375,-0.03125
2383,0.03125,-1.0234375,-0.05078125
2384,0.0234375,-1.015625,-0.03125
2385,0.0390625,-1.01953125,-0.04296875
2386,0.03125,-0.9921875,-0.03515625
2387,0.0390625,-1.0078125,-0.03515625
2388,0.02734375,-1.00390625,-0.03515625
2389,0.03125,-0.99609375,-0.02734375
2390,0.05078125,-0.98828125,-0.03515625
2391,0.04296875,-1.00390625,-0.0390625
2392,0.0390625,-0.9921875,-0.046875
2393,0.0234375,-0.99609375,-0.04296875
2394,0.0234375,-0.9921875,-0.04296875
2395,0.0234375,-1.01171875,-0.04296875
2396,0.03125,-1.015625,-0.0234375
2397,0.015625,-1.015625,-0.03515625
2398,0.01171875,-1.01171875,-0.02734375
2399,0.01953125,-1.015625,-0.02734375
