,accelerometerAccelerationX(G),accelerometerAccelerationY(G),accelerometerAccelerationZ(G)
0,0.02734375,-0.97265625,0.21875
1,0.01953125,-0.96875,0.23046875
2,0.01171875,-0.96484375,0.2265625
3,0.01171875,-0.97265625,0.21875
4,0.02734375,-0.97265625,0.22265625
5,0.01953125,-0.9453125,0.20703125
6,0.01953125,-0.96875,0.21875
7,0.0234375,-0.96484375,0.21484375
8,0.0234375,-0.9609375,0.21875
9,0.03125,-0.9765625,0.20703125
10,0.02734375,-0.97265625,0.2109375
11,0.01953125,-0.96875,0.2109375
12,0.015625,-0.96875,0.22265625
13,0.02734375,-0.98046875,0.21875
14,0.0234375,-0.96875,0.21875
15,0.0234375,-0.97265625,0.19921875
16,0.01171875,-0.96484375,0.21875
17,0.015625,-0.96875,0.22265625
18,0.015625,-0.9609375,0.21875
19,0.015625,-0.97265625,0.22265625
20,0.01953125,-0.97265625,0.203125
21,0.015625,-0.96875,0.23046875
22,0.01953125,-0.96484375,0.2109375
23,0.0234375,-0.96875,0.21875
24,0.01171875,-0.96875,0.2265625
25,0.0234375,-0.96875,0.2265625
26,0.01171875,-0.98046875,0.25390625
27,0.01953125,-0.984375,0.22265625
28,0.01953125,-0.97265625,0.22265625
29,0.01171875,-0.96875,0.21484375
30,0.01171875,-0.97265625,0.22265625
31,0.015625,-0.96875,0.2265625
32,0.0078125,-0.9609375,0.21875
33,0.01171875,-0.96875,0.21875
34,0.01171875,-0.9609375,0.20703125
35,0.0,-0.9609375,0.20703125
36,0.01171875,-0.9609375,0.23828125
37,0.01953125,-0.96484375,0.21875
38,0.01953125,-0.9609375,0.23046875
39,0.0234375,-0.953125,0.22265625
40,0.0234375,-0.9609375,0.2265625
41,0.01171875,-0.96875,0.21875
42,0.01171875,-0.9609375,0.23828125
43,0.02734375,-0.96484375,0.2421875
44,0.03125,-0.97265625,0.21875
45,0.01171875,-0.96875,0.234375
46,0.0234375,-0.98046875,0.22265625
47,0.01953125,-0.9609375,0.23046875
48,0.03125,-0.984375,0.22265625
49,0.0234375,-0.97265625,0.22265625
50,0.01953125,-0.97265625,0.22265625
51,0.015625,-0.96875,0.2265625
52,0.01171875,-0.96875,0.22265625
53,0.01953125,-0.9609375,0.22265625
54,0.0234375,-0.97265625,0.2109375
55,0.01171875,-0.97265625,0.20703125
56,0.01171875,-0.96484375,0.2109375
57,0.01953125,-0.9765625,0.20703125
58,0.01953125,-0.96875,0.21484375
59,0.0234375,-0.97265625,0.234375
60,0.01953125,-0.97265625,0.22265625
61,0.03125,-0.96875,0.20703125
62,0.0078125,-0.96875,0.22265625
63,0.01953125,-0.96875,0.2265625
64,0.01953125,-0.96875,0.23046875
65,0.015625,-0.97265625,0.22265625
66,0.015625,-0.96875,0.2265625
67,0.01953125,-0.97265625,0.2109375
68,0.01171875,-0.96875,0.2265625
69,0.015625,-0.9765625,0.2265625
70,0.01953125,-0.9765625,0.20703125
71,0.015625,-0.96484375,0.22265625
72,0.01953125,-0.97265625,0.22265625
73,0.015625,-0.97265625,0.2265625
74,0.01953125,-0.97265625,0.20703125
75,0.015625,-0.9765625,0.2265625
76,0.015625,-0.96484375,0.2109375
77,0.015625,-0.9609375,0.2265625
78,0.01953125,-0.96484375,0.2265625
79,0.0234375,-0.9765625,0.2265625
80,0.01953125,-0.97265625,0.22265625
81,0.01953125,-0.96875,0.21875
82,0.015625,-0.9609375,0.23046875
83,0.01171875,-0.9609375,0.21875
84,0.01171875,-0.96484375,0.2109375
85,0.0078125,-0.9609375,0.2265625
86,0.0234375,-0.953125,0.2265625
87,0.015625,-0.96875,0.23828125
88,0.01953125,-0.96875,0.2421875
89,0.01953125,-0.96875,0.234375
90,0.01953125,-0.98046875,0.21875
91,0.0078125,-0.97265625,0.22265625
92,0.015625,-0.96875,0.21875
93,0.015625,-0.96875,0.21484375
94,0.01171875,-0.96875,0.21875
95,0.01171875,-0.96875,0.2265625
96,0.015625,-0.9609375,0.23828125
97,0.01953125,-0.9609375,0.21875
98,0.0234375,-0.9609375,0.20703125
99,0.02734375,-0.96484375,0.20703125
100,0.01953125,-0.9609375,0.22265625
101,0.0234375,-0.96875,0.234375
102,0.00390625,-0.953125,0.23046875
103,0.0234375,-0.96484375,0.23046875
104,0.015625,-0.96484375,0.234375
105,0.01953125,-0.9765625,0.234375
106,0.02734375,-0.96875,0.23828125
107,0.0078125,-0.9609375,0.2265625
108,0.01171875,-0.96875,0.22265625
109,0.015625,-0.9609375,0.2265625
110,0.0234375,-0.96875,0.23046875
111,0.01953125,-0.96875,0.234375
112,0.015625,-0.97265625,0.24609375
113,0.0234375,-0.9453125,0.23046875
114,0.03125,-0.9609375,0.22265625
115,0.02734375,-0.96484375,0.22265625
116,0.015625,-0.96484375,0.203125
117,0.03125,-0.95703125,0.21484375
118,0.01953125,-0.9609375,0.22265625
119,0.0234375,-0.96484375,0.2265625
120,0.02734375,-0.9609375,0.2109375
121,0.01953125,-0.95703125,0.22265625
122,0.02734375,-0.95703125,0.234375
123,0.015625,-0.96875,0.2265625
124,0.01171875,-0.97265625,0.203125
125,0.01953125,-0.96875,0.21484375
126,0.01953125,-0.9765625,0.20703125
127,0.015625,-0.98046875,0.203125
128,0.015625,-0.98828125,0.20703125
129,0.015625,-0.984375,0.22265625
130,0.015625,-0.98828125,0.20703125
131,0.01171875,-0.9765625,0.20703125
132,0.01171875,-0.9921875,0.203125
133,0.015625,-0.9765625,0.2109375
134,0.01171875,-0.9609375,0.20703125
135,0.0546875,-0.96875,0.19140625
136,0.015625,-0.96484375,0.20703125
137,0.015625,-0.96875,0.2109375
138,0.015625,-0.97265625,0.2109375
139,0.01171875,-0.96484375,0.1953125
140,0.0234375,-0.97265625,0.19140625
141,0.015625,-0.96875,0.2109375
142,0.0078125,-0.96875,0.2109375
143,0.01953125,-0.96875,0.21875
144,0.01171875,-0.96875,0.2109375
145,0.0234375,-0.98046875,0.20703125
146,0.015625,-0.96875,0.1953125
147,0.015625,-0.97265625,0.20703125
148,0.0078125,-0.96875,0.21484375
149,0.01171875,-0.97265625,0.19921875
150,0.02734375,-0.9765625,0.19921875
151,0.01953125,-0.96484375,0.1953125
152,0.01953125,-0.9765625,0.1875
153,0.0234375,-0.98046875,0.19921875
154,0.0078125,-0.96875,0.1953125
155,0.00390625,-0.96875,0.19140625
156,0.015625,-0.9765625,0.19921875
157,0.04296875,-0.9765625,0.21484375
158,0.01953125,-0.98828125,0.19921875
159,0.01171875,-0.9765625,0.1796875
160,0.01171875,-0.97265625,0.1875
161,0.0234375,-0.9765625,0.1875
162,0.0078125,-0.97265625,0.19140625
163,0.01171875,-0.97265625,0.17578125
164,0.015625,-0.97265625,0.19140625
165,0.0078125,-0.98046875,0.1875
166,0.0234375,-0.97265625,0.19921875
167,0.0078125,-0.9609375,0.19140625
168,0.01953125,-0.97265625,0.1953125
169,0.0078125,-0.96484375,0.18359375
170,0.00390625,-0.96875,0.17578125
171,0.01953125,-0.96875,0.19921875
172,0.00390625,-0.9609375,0.19140625
173,0.0078125,-0.96484375,0.19140625
174,0.0234375,-0.96875,0.19140625
175,0.015625,-0.9765625,0.1796875
176,0.0234375,-0.98046875,0.18359375
177,0.01953125,-0.98046875,0.18359375
178,0.0078125,-0.98046875,0.1953125
179,0.0078125,-0.9765625,0.171875
180,0.01953125,-0.98828125,0.19140625
181,0.01171875,-0.9921875,0.17578125
182,0.0078125,-0.984375,0.18359375
183,0.015625,-0.98828125,0.17578125
184,0.015625,-0.98046875,0.18359375
185,0.015625,-0.98046875,0.17578125
186,0.015625,-0.9765625,0.19921875
187,0.01171875,-0.96484375,0.1796875
188,0.01953125,-0.98828125,0.1796875
189,0.00390625,-0.97265625,0.18359375
190,0.015625,-0.96875,0.17578125
191,0.01171875,-0.96875,0.18359375
192,0.015625,-0.97265625,0.18359375
193,0.01953125,-0.96875,0.1796875
194,0.02734375,-0.984375,0.1796875
195,0.0078125,-0.97265625,0.17578125
196,0.015625,-0.9765625,0.18359375
197,0.0234375,-0.96875,0.17578125
198,0.015625,-0.9765625,0.1796875
199,0.01953125,-0.984375,0.17578125
200,0.03125,-0.9765625,0.1640625
201,0.0234375,-0.98046875,0.1796875
202,0.015625,-0.9921875,0.18359375
203,0.01171875,-0.98828125,0.1796875
204,0.0078125,-0.9921875,0.171875
205,0.015625,-0.984375,0.1796875
206,0.015625,-0.9921875,0.1640625
207,0.0078125,-0.97265625,0.15625
208,0.0078125,-0.97265625,0.16796875
209,0.01171875,-0.97265625,0.16796875
210,0.015625,-0.97265625,0.1875
211,0.015625,-0.97265625,0.1640625
212,0.01171875,-0.9765625,0.16796875
213,0.01171875,-0.97265625,0.16796875
214,0.0078125,-0.9765625,0.17578125
215,0.0234375,-0.984375,0.16796875
216,0.01953125,-0.984375,0.171875
217,0.0078125,-0.98828125,0.18359375
218,0.015625,-0.97265625,0.1796875
219,0.0234375,-0.98828125,0.1953125
220,0.0234375,-0.98046875,0.1796875
221,0.015625,-0.99609375,0.18359375
222,0.015625,-0.984375,0.171875
223,0.015625,-0.97265625,0.18359375
224,0.01171875,-0.97265625,0.171875
225,0.01171875,-0.9765625,0.1796875
226,0.01953125,-0.98046875,0.1796875
227,0.01953125,-0.97265625,0.171875
228,0.01953125,-0.984375,0.171875
229,0.01953125,-0.9765625,0.17578125
230,0.0078125,-0.97265625,0.1796875
231,0.015625,-0.96875,0.1796875
232,0.01953125,-0.99609375,0.1953125
233,0.0078125,-0.96875,0.171875
234,0.015625,-0.9765625,0.1640625
235,0.0078125,-0.98046875,0.171875
236,0.015625,-0.98046875,0.1796875
237,0.02734375,-0.97265625,0.16796875
238,0.00390625,-0.9609375,0.1796875
239,0.01171875,-0.96875,0.18359375
240,0.015625,-0.96875,0.19140625
241,0.0078125,-0.9765625,0.1875
242,0.015625,-0.97265625,0.18359375
243,0.02734375,-0.9765625,0.1796875
244,0.015625,-0.98046875,0.1875
245,0.01171875,-0.98046875,0.19140625
246,0.0234375,-0.984375,0.1875
247,0.0234375,-0.984375,0.19140625
248,0.01171875,-0.9765625,0.19921875
249,0.01171875,-0.9765625,0.18359375
250,0.0078125,-0.9765625,0.19140625
251,0.015625,-0.97265625,0.1875
252,0.0078125,-0.984375,0.1875
253,0.015625,-0.96484375,0.19140625
254,0.015625,-0.96484375,0.18359375
255,0.0078125,-0.96875,0.1796875
256,0.015625,-0.97265625,0.1796875
257,0.00390625,-0.98046875,0.1953125
258,0.01171875,-0.96875,0.1953125
259,0.0234375,-0.98046875,0.1953125
260,0.015625,-0.97265625,0.1875
261,0.015625,-0.98046875,0.1875
262,0.015625,-0.984375,0.20703125
263,0.0078125,-0.9765625,0.19140625
264,0.0234375,-0.97265625,0.203125
265,0.01953125,-0.97265625,0.1875
266,0.0078125,-0.9921875,0.1796875
267,0.015625,-0.96875,0.1953125
268,0.01953125,-0.96875,0.19140625
269,0.015625,-0.9765625,0.1875
270,0.01953125,-0.97265625,0.203125
271,0.015625,-0.97265625,0.19140625
272,0.015625,-0.984375,0.1953125
273,0.01953125,-0.9765625,0.19921875
274,0.015625,-0.98046875,0.19140625
275,0.015625,-0.9765625,0.1953125
276,0.015625,-0.96875,0.1953125
277,0.02734375,-0.9765625,0.19921875
278,0.01171875,-0.97265625,0.171875
279,0.0078125,-0.96484375,0.1875
280,0.015625,-0.96875,0.19140625
281,0.01953125,-0.96484375,0.18359375
282,0.015625,-0.98046875,0.18359375
283,0.01171875,-0.96875,0.1953125
284,0.03515625,-0.984375,0.1875
285,0.01953125,-0.97265625,0.1875
286,0.0234375,-0.97265625,0.18359375
287,0.01953125,-0.97265625,0.1953125
288,0.01953125,-0.95703125,0.20703125
289,0.015625,-0.96875,0.1953125
290,0.01953125,-0.9765625,0.1953125
291,0.02734375,-0.97265625,0.19921875
292,0.0078125,-0.97265625,0.1953125
293,0.015625,-0.97265625,0.19140625
294,0.01953125,-0.98046875,0.1875
295,0.01953125,-0.96875,0.19921875
296,0.015625,-0.96875,0.19140625
297,0.01171875,-0.984375,0.1875
298,0.0078125,-0.97265625,0.203125
299,0.0234375,-0.9765625,0.19140625
300,0.01953125,-0.96875,0.19140625
301,0.01171875,-0.97265625,0.203125
302,0.01953125,-0.97265625,0.20703125
303,0.0234375,-0.96875,0.1875
304,0.01171875,-0.97265625,0.20703125
305,0.015625,-0.96875,0.203125
306,0.01953125,-0.97265625,0.20703125
307,0.0234375,-0.97265625,0.203125
308,0.01953125,-0.9765625,0.20703125
309,0.01953125,-0.96875,0.19140625
310,0.01953125,-0.99609375,0.21484375
311,0.01171875,-0.97265625,0.20703125
312,0.01953125,-0.9921875,0.19140625
313,0.03125,-0.98046875,0.1953125
314,0.01171875,-0.98046875,0.19921875
315,0.0078125,-0.98828125,0.1875
316,0.0078125,-0.984375,0.1953125
317,0.0234375,-0.9765625,0.1875
318,0.00390625,-0.96484375,0.203125
319,0.01171875,-0.96484375,0.19140625
320,0.01171875,-0.9609375,0.21875
321,0.01171875,-0.96875,0.1953125
322,0.01953125,-0.97265625,0.1875
323,0.0,-0.95703125,0.20703125
324,0.015625,-0.96484375,0.19140625
325,0.01171875,-0.97265625,0.20703125
326,0.0078125,-0.97265625,0.203125
327,0.015625,-0.96875,0.21484375
328,0.01171875,-0.96875,0.203125
329,0.00390625,-0.97265625,0.20703125
330,0.01953125,-0.9765625,0.2109375
331,0.0,-0.96484375,0.203125
332,0.0234375,-0.96875,0.203125
333,0.01171875,-0.97265625,0.21484375
334,0.01171875,-0.96484375,0.2109375
335,0.015625,-0.96875,0.20703125
336,0.02734375,-0.96875,0.20703125
337,0.01171875,-0.96875,0.2109375
338,0.0078125,-0.96484375,0.203125
339,0.01171875,-0.96484375,0.1953125
340,0.0234375,-0.97265625,0.203125
341,0.02734375,-0.984375,0.21484375
342,0.01953125,-0.96875,0.20703125
343,0.0078125,-0.96875,0.203125
344,0.015625,-0.96875,0.20703125
345,0.01953125,-0.9765625,0.1953125
346,0.015625,-0.97265625,0.21484375
347,0.02734375,-0.984375,0.19921875
348,0.015625,-0.96484375,0.2109375
349,0.01953125,-0.98046875,0.21484375
350,0.01953125,-0.98046875,0.2109375
351,0.03125,-0.98046875,0.203125
352,0.01171875,-0.96484375,0.21875
353,0.015625,-0.96875,0.2109375
354,0.01171875,-0.97265625,0.203125
355,0.01171875,-0.96875,0.21875
356,0.0078125,-0.9765625,0.20703125
357,0.01171875,-0.984375,0.20703125
358,0.015625,-0.984375,0.20703125
359,0.01171875,-0.9765625,0.21875
360,0.0078125,-0.96875,0.21875
361,0.01171875,-0.97265625,0.203125
362,0.015625,-0.98046875,0.2109375
363,0.0234375,-0.9765625,0.2109375
364,0.0234375,-0.96875,0.2109375
365,0.01953125,-0.96875,0.203125
366,0.01171875,-0.98046875,0.22265625
367,0.015625,-0.96875,0.21484375
368,0.0234375,-0.97265625,0.2109375
369,0.015625,-0.97265625,0.23046875
370,0.01171875,-0.9609375,0.23046875
371,0.0234375,-0.96875,0.203125
372,0.01953125,-0.96484375,0.21875
373,0.015625,-0.97265625,0.21875
374,0.0078125,-0.96484375,0.21875
375,0.01953125,-0.9765625,0.21484375
376,0.0078125,-0.96484375,0.21484375
377,0.01953125,-0.9609375,0.22265625
378,0.01171875,-0.96484375,0.21875
379,0.0078125,-0.96875,0.23046875
380,0.01953125,-0.96875,0.22265625
381,0.015625,-0.9765625,0.203125
382,0.01171875,-0.97265625,0.21484375
383,0.01171875,-0.96875,0.21875
384,0.015625,-0.9765625,0.21875
385,0.01953125,-0.97265625,0.2265625
386,0.01953125,-0.97265625,0.23828125
387,0.01953125,-0.97265625,0.2109375
388,0.01953125,-0.96875,0.22265625
389,0.0078125,-0.96484375,0.2265625
390,0.0234375,-0.97265625,0.203125
391,0.0234375,-0.9765625,0.23046875
392,0.0078125,-0.96875,0.203125
393,0.0234375,-0.9765625,0.23046875
394,0.01171875,-0.97265625,0.2265625
395,0.0078125,-0.9765625,0.23046875
396,0.03515625,-0.9765625,0.19921875
397,0.0234375,-0.96875,0.21875
398,0.0,-0.9609375,0.22265625
399,0.01171875,-0.96875,0.21875
400,0.0078125,-0.9609375,0.21484375
401,0.0234375,-0.97265625,0.21875
402,0.00390625,-0.96875,0.2265625
403,0.015625,-0.96484375,0.203125
404,0.015625,-0.96484375,0.21484375
405,0.01171875,-0.96484375,0.23046875
406,0.0234375,-0.9609375,0.2265625
407,0.015625,-0.9609375,0.21875
408,0.0234375,-0.96484375,0.21484375
409,0.01953125,-0.96875,0.23046875
410,0.0234375,-0.97265625,0.2265625
411,0.015625,-0.97265625,0.2265625
412,0.01953125,-0.97265625,0.2265625
413,0.02734375,-0.9765625,0.21484375
414,0.01953125,-0.9609375,0.2265625
415,0.01953125,-0.95703125,0.21875
416,0.01953125,-0.9609375,0.23046875
417,0.03125,-0.9765625,0.21875
418,0.015625,-0.984375,0.2578125
419,0.0078125,-0.97265625,0.21875
420,0.01171875,-0.96875,0.22265625
421,0.015625,-0.96875,0.24609375
422,0.01171875,-0.95703125,0.234375
423,0.01171875,-0.96875,0.2265625
424,0.01171875,-0.96875,0.23046875
425,0.015625,-0.96875,0.2421875
426,0.01953125,-0.9765625,0.2265625
427,0.0234375,-0.98046875,0.23828125
428,0.015625,-0.97265625,0.2265625
429,0.01171875,-0.97265625,0.23046875
430,0.015625,-0.96875,0.22265625
431,0.01953125,-0.96875,0.2265625
432,0.0078125,-0.96875,0.234375
433,0.015625,-0.96484375,0.22265625
434,0.02734375,-0.96484375,0.23828125
435,0.0078125,-0.96875,0.21875
436,0.015625,-0.9609375,0.23828125
437,0.01171875,-0.96484375,0.234375
438,0.01171875,-0.95703125,0.23046875
439,0.0234375,-0.953125,0.23828125
440,0.0078125,-0.95703125,0.234375
441,0.01171875,-0.95703125,0.2421875
442,0.0078125,-0.95703125,0.25390625
443,0.01171875,-0.96875,0.24609375
444,0.00390625,-0.94921875,0.23828125
445,0.01171875,-0.96875,0.25
446,0.01171875,-0.95703125,0.23046875
447,0.015625,-0.953125,0.23828125
448,0.0078125,-0.96875,0.2265625
449,0.01953125,-0.97265625,0.23828125
450,0.03125,-0.97265625,0.25
451,0.03515625,-0.96875,0.234375
452,0.02734375,-0.96484375,0.24609375
453,0.01953125,-0.96484375,0.23828125
454,0.03515625,-0.96875,0.234375
455,0.03125,-0.96875,0.234375
456,0.01953125,-0.9609375,0.2421875
457,0.0234375,-0.96875,0.23828125
458,0.01953125,-0.96875,0.23828125
459,0.01953125,-0.95703125,0.23046875
460,0.0234375,-0.96484375,0.24609375
461,0.015625,-0.96875,0.2421875
462,0.01171875,-0.96484375,0.2265625
463,0.015625,-0.96484375,0.25
464,0.01171875,-0.96484375,0.25
465,0.01953125,-0.95703125,0.25390625
466,0.01953125,-0.9609375,0.25390625
467,0.01171875,-0.9609375,0.2578125
468,0.015625,-0.96484375,0.24609375
469,0.02734375,-0.9609375,0.25390625
470,0.01953125,-0.96484375,0.25390625
471,0.03125,-0.96484375,0.24609375
472,0.02734375,-0.96875,0.2734375
473,0.03125,-0.9609375,0.2578125
474,0.02734375,-0.97265625,0.2578125
475,0.02734375,-0.96484375,0.23828125
476,0.01953125,-0.96484375,0.26171875
477,0.0078125,-0.96484375,0.25
478,0.01953125,-0.9609375,0.25
479,0.0234375,-0.9765625,0.24609375
480,0.015625,-0.96484375,0.24609375
481,0.015625,-0.96875,0.25390625
482,0.0234375,-0.96875,0.265625
483,0.01171875,-0.96484375,0.26171875
484,0.0078125,-0.96875,0.24609375
485,0.0,-0.96484375,0.2578125
486,0.0,-0.96484375,0.2421875
487,0.00390625,-0.96875,0.23828125
488,0.0078125,-0.96484375,0.265625
489,0.0,-0.96484375,0.25
490,0.0,-0.96484375,0.25
491,-0.00390625,-0.95703125,0.2578125
492,0.01171875,-0.96484375,0.26171875
493,0.00390625,-0.9609375,0.2578125
494,0.01171875,-0.95703125,0.26953125
495,0.0078125,-0.96875,0.2578125
496,0.0234375,-0.94921875,0.265625
497,0.01953125,-0.95703125,0.265625
498,0.01171875,-0.953125,0.26171875
499,0.02734375,-0.95703125,0.26953125
500,0.01953125,-0.94921875,0.2578125
501,0.0390625,-0.9609375,0.265625
502,0.0234375,-0.95703125,0.28125
503,0.015625,-0.95703125,0.2734375
504,0.01953125,-0.953125,0.27734375
505,0.02734375,-0.96875,0.28125
506,0.01953125,-0.97265625,0.26171875
507,0.01953125,-0.9609375,0.27734375
508,0.01171875,-0.97265625,0.28515625
509,0.03125,-0.96875,0.28515625
510,0.0234375,-0.97265625,0.27734375
511,0.03125,-0.96875,0.2890625
512,0.03125,-0.96875,0.28515625
513,0.0234375,-0.9921875,0.28125
514,0.0234375,-0.984375,0.29296875
515,0.01953125,-0.96875,0.27734375
516,0.015625,-0.984375,0.28515625
517,0.0078125,-0.9765625,0.28515625
518,0.015625,-0.96484375,0.2890625
519,0.01171875,-0.96875,0.28515625
520,0.01953125,-0.9609375,0.2734375
521,0.01171875,-0.9609375,0.28515625
522,0.015625,-0.96484375,0.27734375
523,0.015625,-0.95703125,0.28515625
524,0.0234375,-0.9453125,0.28515625
525,0.015625,-0.94921875,0.2890625
526,0.015625,-0.92578125,0.30078125
527,0.015625,-0.95703125,0.27734375
528,0.015625,-0.92578125,0.28515625
529,0.0390625,-0.921875,0.2734375
530,0.01953125,-0.91796875,0.26171875
531,0.015625,-0.9140625,0.2578125
532,0.01953125,-0.921875,0.26171875
533,0.015625,-0.90625,0.24609375
534,0.02734375,-0.921875,0.26953125
535,0.01953125,-0.921875,0.28125
536,0.03125,-0.9140625,0.3046875
537,0.03125,-0.9296875,0.296875
538,0.0390625,-0.92578125,0.30078125
539,0.046875,-0.9296875,0.30078125
540,0.0390625,-0.93359375,0.30859375
541,0.04296875,-0.92578125,0.296875
542,0.03125,-0.94140625,0.30078125
543,0.02734375,-0.9296875,0.30078125
544,0.03515625,-0.921875,0.31640625
545,0.03515625,-0.921875,0.30078125
546,0.0390625,-0.93359375,0.296875
547,0.03125,-0.94140625,0.296875
548,0.02734375,-0.92578125,0.28515625
549,0.01953125,-0.95703125,0.2890625
550,0.0234375,-0.94140625,0.29296875
551,0.0234375,-0.94140625,0.28125
552,0.03125,-0.93359375,0.29296875
553,0.0234375,-0.9453125,0.29296875
554,0.0234375,-0.94921875,0.29296875
555,0.03125,-0.92578125,0.296875
556,0.03515625,-0.93359375,0.2890625
557,0.03125,-0.92578125,0.27734375
558,0.03125,-0.92578125,0.28515625
559,0.03515625,-0.921875,0.296875
560,0.04296875,-0.94921875,0.29296875
561,0.03125,-0.921875,0.29296875
562,0.0390625,-0.921875,0.296875
563,0.03515625,-0.921875,0.296875
564,0.05078125,-0.92578125,0.3046875
565,0.0390625,-0.9296875,0.3125
566,0.03515625,-0.9296875,0.29296875
567,0.05078125,-0.94140625,0.296875
568,0.046875,-0.94921875,0.30078125
569,0.04296875,-0.9453125,0.28515625
570,0.0390625,-0.95703125,0.2734375
571,0.03515625,-0.96484375,0.27734375
572,0.02734375,-0.96875,0.26953125
573,0.02734375,-0.9765625,0.26953125
574,0.015625,-0.98828125,0.28125
575,0.015625,-0.9921875,0.26171875
576,0.015625,-1.00390625,0.25390625
577,0.0078125,-0.9921875,0.2578125
578,0.0,-0.984375,0.23828125
579,0.0,-0.99609375,0.2578125
580,0.0,-0.9921875,0.25390625
581,0.00390625,-0.9921875,0.2578125
582,0.015625,-0.9921875,0.25
583,0.015625,-0.9921875,0.24609375
584,0.00390625,-0.98046875,0.26171875
585,0.02734375,-0.984375,0.26953125
586,0.0234375,-0.9765625,0.25390625
587,0.03515625,-0.96875,0.25390625
588,0.03515625,-0.96484375,0.2578125
589,0.046875,-0.96484375,0.23828125
590,0.0546875,-0.96484375,0.234375
591,0.078125,-0.9609375,0.234375
592,0.08203125,-0.9609375,0.2265625
593,0.08984375,-0.9609375,0.21484375
594,0.09765625,-0.96484375,0.21484375
595,0.09375,-0.95703125,0.2109375
596,0.11328125,-0.96484375,0.20703125
597,0.11328125,-0.9609375,0.2109375
598,0.12109375,-0.953125,0.203125
599,0.12109375,-0.96484375,0.21484375
600,0.125,-0.96875,0.22265625
601,0.1171875,-0.97265625,0.21875
602,0.12109375,-0.97265625,0.20703125
603,0.1171875,-0.98046875,0.22265625
604,0.125,-0.98828125,0.21875
605,0.125,-0.98046875,0.2265625
606,0.12890625,-0.984375,0.21875
607,0.12109375,-0.9921875,0.21484375
608,0.1328125,-0.98828125,0.21875
609,0.125,-0.98046875,0.2109375
610,0.140625,-0.9921875,0.21875
611,0.1328125,-0.98828125,0.2265625
612,0.13671875,-0.984375,0.23046875
613,0.1328125,-0.98046875,0.21875
614,0.12890625,-0.96875,0.2265625
615,0.12109375,-1.015625,0.22265625
616,0.125,-0.97265625,0.2109375
617,0.140625,-0.97265625,0.22265625
618,0.140625,-0.9609375,0.203125
619,0.12109375,-0.95703125,0.203125
620,0.14453125,-0.953125,0.20703125
621,0.1328125,-0.95703125,0.20703125
622,0.13671875,-0.9453125,0.21484375
623,0.15234375,-0.94140625,0.2109375
624,0.1640625,-0.9375,0.19921875
625,0.1640625,-0.9375,0.2109375
626,0.1640625,-0.93359375,0.19921875
627,0.16796875,-0.9296875,0.1953125
628,0.16796875,-0.93359375,0.203125
629,0.19140625,-0.94140625,0.19921875
630,0.19140625,-0.94140625,0.20703125
631,0.19921875,-0.94140625,0.19921875
632,0.20703125,-0.94921875,0.21875
633,0.1953125,-0.9453125,0.2109375
634,0.2109375,-0.953125,0.20703125
635,0.22265625,-0.9453125,0.22265625
636,0.26171875,-0.93359375,0.28125
637,0.23046875,-0.9609375,0.23046875
638,0.21875,-0.94921875,0.23828125
639,0.24609375,-0.95703125,0.2421875
640,0.25,-0.953125,0.2421875
641,0.25,-0.95703125,0.2421875
642,0.2421875,-0.953125,0.21875
643,0.24609375,-0.95703125,0.2265625
644,0.25,-0.94921875,0.20703125
645,0.25,-0.9609375,0.20703125
646,0.24609375,-0.9453125,0.21484375
647,0.2421875,-0.9375,0.19921875
648,0.25390625,-0.9453125,0.23046875
649,0.2578125,-0.94140625,0.21484375
650,0.25,-0.9375,0.2265625
651,0.2578125,-0.94140625,0.2265625
652,0.25,-0.94140625,0.234375
653,0.25,-0.93359375,0.25390625
654,0.2578125,-0.9453125,0.24609375
655,0.2578125,-0.9453125,0.24609375
656,0.26171875,-0.94140625,0.2265625
657,0.27734375,-0.9375,0.22265625
658,0.27734375,-0.94140625,0.2734375
659,0.265625,-0.92578125,0.20703125
660,0.26953125,-0.92578125,0.2109375
661,0.28515625,-0.921875,0.23046875
662,0.29296875,-0.91015625,0.234375
663,0.28125,-0.90234375,0.23828125
664,0.30078125,-0.90234375,0.2421875
665,0.296875,-0.8984375,0.23046875
666,0.3125,-0.89453125,0.22265625
667,0.32421875,-0.890625,0.234375
668,0.33984375,-0.89453125,0.2265625
669,0.33984375,-0.9140625,0.22265625
670,0.3515625,-0.90234375,0.23046875
671,0.35546875,-0.890625,0.23828125
672,0.34765625,-0.90234375,0.24609375
673,0.35546875,-0.890625,0.23046875
674,0.34375,-0.8984375,0.22265625
675,0.34375,-0.8984375,0.234375
676,0.34765625,-0.8984375,0.21484375
677,0.34375,-0.89453125,0.22265625
678,0.34375,-0.890625,0.23046875
679,0.34765625,-0.88671875,0.234375
680,0.36328125,-0.87890625,0.234375
681,0.34765625,-0.88671875,0.23828125
682,0.3359375,-0.88671875,0.23046875
683,0.3359375,-0.890625,0.24609375
684,0.33984375,-0.90625,0.24609375
685,0.35546875,-0.89453125,0.2421875
686,0.35546875,-0.90625,0.2421875
687,0.359375,-0.89453125,0.2265625
688,0.359375,-0.89453125,0.2109375
689,0.36328125,-0.88671875,0.203125
690,0.36328125,-0.87890625,0.19921875
691,0.359375,-0.8828125,0.16015625
692,0.37890625,-0.87890625,0.1640625
693,0.3984375,-0.875,0.1640625
694,0.38671875,-0.87890625,0.1640625
695,0.4140625,-0.88671875,0.16796875
696,0.4140625,-0.890625,0.171875
697,0.421875,-0.88671875,0.171875
698,0.43359375,-0.90625,0.1796875
699,0.43359375,-0.90625,0.1953125
700,0.4375,-0.921875,0.19140625
701,0.4375,-0.91015625,0.20703125
702,0.42578125,-0.890625,0.18359375
703,0.4375,-0.8984375,0.19921875
704,0.41796875,-0.89453125,0.1875
705,0.4296875,-0.89453125,0.17578125
706,0.421875,-0.8828125,0.18359375
707,0.41796875,-0.8671875,0.16796875
708,0.4140625,-0.8671875,0.16015625
709,0.42578125,-0.86328125,0.16796875
710,0.4140625,-0.86328125,0.1640625
711,0.42578125,-0.8671875,0.14453125
712,0.41796875,-0.84765625,0.1640625
713,0.421875,-0.8515625,0.14453125
714,0.4296875,-0.84765625,0.1484375
715,0.42578125,-0.84765625,0.16796875
716,0.421875,-0.84765625,0.16796875
717,0.43359375,-0.8515625,0.16796875
718,0.43359375,-0.84765625,0.15625
719,0.45703125,-0.8515625,0.1484375
720,0.46484375,-0.8515625,0.140625
721,0.46875,-0.87109375,0.13671875
722,0.48046875,-0.859375,0.1328125
723,0.44921875,-0.875,0.15625
724,0.48828125,-0.859375,0.12109375
725,0.4765625,-0.87890625,0.109375
726,0.49609375,-0.875,0.12890625
727,0.50390625,-0.87890625,0.1328125
728,0.48046875,-0.875,0.1171875
729,0.5,-0.8828125,0.13671875
730,0.4921875,-0.87890625,0.1328125
731,0.50390625,-0.87890625,0.14453125
732,0.4921875,-0.87109375,0.12890625
733,0.49609375,-0.86328125,0.12890625
734,0.49609375,-0.86328125,0.12109375
735,0.5,-0.85546875,0.1328125
736,0.50390625,-0.859375,0.13671875
737,0.5,-0.84765625,0.125
738,0.50390625,-0.84765625,0.12109375
739,0.51171875,-0.84375,0.125
740,0.50390625,-0.83984375,0.125
741,0.5,-0.8359375,0.12109375
742,0.5,-0.81640625,0.1171875
743,0.50390625,-0.8125,0.125
744,0.51171875,-0.8125,0.12890625
745,0.5234375,-0.8125,0.12890625
746,0.51171875,-0.8046875,0.11328125
747,0.5234375,-0.8046875,0.078125
748,0.5390625,-0.80078125,0.08203125
749,0.546875,-0.7890625,0.0703125
750,0.55078125,-0.8046875,0.06640625
751,0.578125,-0.80078125,0.09765625
752,0.59765625,-0.83203125,0.0703125
753,0.59765625,-0.83203125,0.07421875
754,0.61328125,-0.83984375,0.0859375
755,0.60546875,-0.83984375,0.07421875
756,0.61328125,-0.84375,0.08984375
757,0.6015625,-0.82421875,0.078125
758,0.62109375,-0.828125,0.0625
759,0.60546875,-0.81640625,0.0625
760,0.60546875,-0.7890625,0.03515625
761,0.6015625,-0.77734375,0.0078125
762,0.61328125,-0.75,0.01953125
763,0.62890625,-0.73046875,-0.01953125
764,0.62890625,-0.734375,-0.0078125
765,0.6328125,-0.70703125,-0.0078125
766,0.640625,-0.69140625,0.00390625
767,0.6640625,-0.66015625,0.046875
768,0.65625,-0.6953125,0.01171875
769,0.67578125,-0.703125,0.015625
770,0.6875,-0.69921875,0.03515625
771,0.68359375,-0.703125,0.04296875
772,0.6953125,-0.703125,0.0625
773,0.6953125,-0.71484375,0.05078125
774,0.69921875,-0.7265625,0.04296875
775,0.71875,-0.7421875,0.0625
776,0.6953125,-0.7578125,0.046875
777,0.70703125,-0.765625,0.03125
778,0.703125,-0.76171875,0.04296875
779,0.69140625,-0.75,0.01171875
780,0.703125,-0.7578125,0.01171875
781,0.70703125,-0.72265625,0.015625
782,0.69921875,-0.7265625,0.01953125
783,0.70703125,-0.71875,0.00390625
784,0.70703125,-0.7265625,0.01953125
785,0.71484375,-0.71875,0.01953125
786,0.70703125,-0.71875,0.03515625
787,0.70703125,-0.72265625,0.0390625
788,0.7109375,-0.72265625,0.05859375
789,0.7109375,-0.734375,0.09765625
790,0.69921875,-0.73828125,0.09375
791,0.703125,-0.73046875,0.1015625
792,0.71484375,-0.7109375,0.12109375
793,0.71484375,-0.70703125,0.109375
794,0.71875,-0.68359375,0.09765625
795,0.73828125,-0.6875,0.08203125
796,0.71875,-0.66796875,0.046875
797,0.73046875,-0.65625,0.04296875
798,0.734375,-0.64453125,0.01171875
799,0.73046875,-0.640625,0.0
800,0.73046875,-0.64453125,0.00390625
801,0.7421875,-0.640625,0.01171875
802,0.7265625,-0.62890625,-0.01171875
803,0.73828125,-0.63671875,0.0
804,0.7421875,-0.62890625,0.01953125
805,0.75,-0.625,0.03125
806,0.7578125,-0.625,0.046875
807,0.7578125,-0.625,0.046875
808,0.765625,-0.6171875,0.0625
809,0.78515625,-0.63671875,0.0546875
810,0.76953125,-0.66015625,0.0390625
811,0.7890625,-0.68359375,0.05078125
812,0.7890625,-0.68359375,0.04296875
813,0.7734375,-0.68359375,0.04296875
814,0.76953125,-0.6796875,0.05859375
815,0.76171875,-0.66796875,0.06640625
816,0.765625,-0.65625,0.05078125
817,0.7578125,-0.640625,0.05078125
818,0.75390625,-0.625,0.03515625
819,0.76171875,-0.58984375,0.02734375
820,0.76953125,-0.57421875,0.015625
821,0.765625,-0.56640625,0.015625
822,0.7578125,-0.5703125,0.015625
823,0.76953125,-0.5625,0.01171875
824,0.7578125,-0.55859375,0.0234375
825,0.75390625,-0.56640625,0.03515625
826,0.75390625,-0.5703125,0.0390625
827,0.75,-0.5625,0.04296875
828,0.76171875,-0.56640625,0.0546875
829,0.75390625,-0.5625,0.0625
830,0.76953125,-0.5625,0.0703125
831,0.75,-0.578125,0.04296875
832,0.78515625,-0.57421875,0.05859375
833,0.80078125,-0.57421875,0.0546875
834,0.78125,-0.58203125,0.04296875
835,0.79296875,-0.58203125,0.03125
836,0.80859375,-0.6015625,0.0390625
837,0.8203125,-0.58984375,0.05078125
838,0.828125,-0.578125,0.046875
839,0.84765625,-0.5859375,0.06640625
840,0.84765625,-0.55859375,0.046875
841,0.86328125,-0.5546875,0.0859375
842,0.87890625,-0.5390625,0.09375
843,0.875,-0.51171875,0.1015625
844,0.88671875,-0.50390625,0.10546875
845,0.8828125,-0.47265625,0.1171875
846,0.89453125,-0.47265625,0.10546875
847,0.91015625,-0.44921875,0.10546875
848,0.90625,-0.43359375,0.0859375
849,0.9140625,-0.42578125,0.0859375
850,0.90625,-0.41796875,0.078125
851,0.8984375,-0.40234375,0.0625
852,0.90625,-0.40234375,0.0546875
853,0.890625,-0.41015625,0.0546875
854,0.890625,-0.3828125,0.046875
855,0.87890625,-0.4140625,0.0078125
856,0.87109375,-0.421875,0.01953125
857,0.84765625,-0.42578125,0.01171875
858,0.84765625,-0.43359375,0.0234375
859,0.84375,-0.43359375,0.02734375
860,0.8515625,-0.46875,0.0234375
861,0.828125,-0.4609375,0.01953125
862,0.82421875,-0.47265625,0.01953125
863,0.828125,-0.47265625,0.01953125
864,0.8359375,-0.50390625,0.015625
865,0.83203125,-0.49609375,0.015625
866,0.8359375,-0.49609375,0.03125
867,0.82421875,-0.48828125,0.0390625
868,0.8359375,-0.5,0.0390625
869,0.85546875,-0.4921875,0.05078125
870,0.859375,-0.484375,0.0546875
871,0.87109375,-0.48828125,0.046875
872,0.8828125,-0.4765625,0.046875
873,0.88671875,-0.46484375,0.0390625
874,0.890625,-0.46875,0.03515625
875,0.890625,-0.453125,0.0390625
876,0.86328125,-0.484375,0.01171875
877,0.88671875,-0.453125,0.0234375
878,0.890625,-0.4453125,0.00390625
879,0.87890625,-0.45703125,-0.00390625
880,0.8828125,-0.44921875,0.0
881,0.87890625,-0.43359375,0.0078125
882,0.890625,-0.4375,0.0234375
883,0.89453125,-0.4296875,0.0234375
884,0.8828125,-0.41015625,0.05078125
885,0.90625,-0.41015625,0.05859375
886,0.8984375,-0.39453125,0.078125
887,0.91015625,-0.375,0.08203125
888,0.921875,-0.3671875,0.05859375
889,0.9453125,-0.3515625,0.06640625
890,0.95703125,-0.34765625,0.0625
891,0.95703125,-0.33984375,0.05078125
892,0.96484375,-0.33203125,0.0625
893,0.9765625,-0.328125,0.05078125
894,0.99609375,-0.33203125,0.04296875
895,0.98828125,-0.33203125,0.0546875
896,0.99609375,-0.34375,0.02734375
897,0.9921875,-0.3515625,0.0
898,0.97265625,-0.36328125,-0.04296875
899,0.9453125,-0.359375,-0.06640625
900,0.92578125,-0.359375,-0.07421875
901,0.90234375,-0.37109375,-0.0859375
902,0.890625,-0.35546875,-0.07421875
903,0.87890625,-0.34765625,-0.078125
904,0.87109375,-0.3515625,-0.0703125
905,0.8828125,-0.3515625,-0.05859375
906,0.890625,-0.34375,-0.05078125
907,0.90625,-0.36328125,-0.03125
908,0.91796875,-0.37109375,-0.015625
909,0.921875,-0.37109375,-0.01953125
910,0.9375,-0.3671875,0.0
911,0.94921875,-0.37890625,-0.0078125
912,0.95703125,-0.3828125,0.0
913,0.95703125,-0.3828125,0.0
914,0.96484375,-0.37109375,0.01171875
915,0.94921875,-0.359375,0.00390625
916,0.94140625,-0.34765625,0.0078125
917,0.9296875,-0.34765625,0.01171875
918,0.91796875,-0.328125,0.02734375
919,0.90234375,-0.30859375,0.0078125
920,0.90625,-0.3046875,0.00390625
921,0.9140625,-0.3203125,-0.00390625
922,0.8984375,-0.34765625,-0.01171875
923,0.87890625,-0.3359375,-0.015625
924,0.8671875,-0.3359375,-0.0234375
925,0.875,-0.34765625,-0.01171875
926,0.87890625,-0.359375,0.0
927,0.87890625,-0.37109375,0.0078125
928,0.88671875,-0.3671875,0.03125
929,0.89453125,-0.375,0.03125
930,0.91015625,-0.375,0.04296875
931,0.94140625,-0.3671875,0.05078125
932,0.95703125,-0.3671875,0.05859375
933,0.97265625,-0.3671875,0.0546875
934,0.9921875,-0.34765625,0.05078125
935,1.0,-0.33203125,0.0546875
936,1.0078125,-0.3203125,0.05859375
937,0.99609375,-0.29296875,0.0390625
938,0.99609375,-0.265625,0.04296875
939,0.98828125,-0.25,0.046875
940,0.97265625,-0.234375,0.046875
941,0.95703125,-0.21875,0.06640625
942,0.953125,-0.21484375,0.05078125
943,0.953125,-0.2109375,0.046875
944,0.9375,-0.1875,0.05078125
945,0.93359375,-0.1796875,0.05859375
946,0.94140625,-0.1875,0.0703125
947,0.921875,-0.17578125,0.07421875
948,0.94921875,-0.17578125,0.08984375
949,0.9609375,-0.19921875,0.0859375
950,0.9609375,-0.20703125,0.11328125
951,0.97265625,-0.22265625,0.109375
952,0.9765625,-0.23828125,0.10546875
953,0.98828125,-0.24609375,0.12109375
954,0.96875,-0.26171875,0.12890625
955,0.96875,-0.28125,0.13671875
956,0.953125,-0.2890625,0.15234375
957,0.921875,-0.29296875,0.140625
958,0.921875,-0.28515625,0.140625
959,0.91015625,-0.29296875,0.1328125
960,0.8984375,-0.27734375,0.11328125
961,0.8828125,-0.2578125,0.10546875
962,0.87109375,-0.23046875,0.11328125
963,0.88671875,-0.19921875,0.11328125
964,0.90625,-0.16015625,0.08203125
965,0.921875,-0.1484375,0.0859375
966,0.9453125,-0.125,0.0859375
967,0.953125,-0.125,0.07421875
968,0.95703125,-0.10546875,0.078125
969,0.98046875,-0.1015625,0.078125
970,0.984375,-0.09375,0.08203125
971,0.98046875,-0.08984375,0.09765625
972,0.984375,-0.078125,0.1015625
973,0.97265625,-0.09765625,0.1171875
974,0.96875,-0.10546875,0.125
975,0.97265625,-0.1171875,0.1171875
976,0.97265625,-0.125,0.12109375
977,0.95703125,-0.125,0.140625
978,0.9609375,-0.1328125,0.12890625
979,0.953125,-0.1328125,0.15234375
980,0.94140625,-0.13671875,0.14453125
981,0.95703125,-0.1484375,0.1328125
982,0.95703125,-0.1328125,0.11328125
983,0.9375,-0.140625,0.1015625
984,0.96484375,-0.1328125,0.08984375
985,0.96484375,-0.0859375,0.05078125
986,0.99609375,-0.1015625,0.0703125
987,1.01953125,-0.1015625,0.03125
988,1.03125,-0.1171875,0.04296875
989,1.05078125,-0.08984375,0.04296875
990,1.0703125,-0.08203125,0.0546875
991,1.12890625,-0.05859375,0.06640625
992,1.16015625,-0.0234375,0.109375
993,1.20703125,0.00390625,0.12890625
994,1.21875,0.01953125,0.14453125
995,1.2421875,0.03125,0.16015625
996,1.24609375,0.0390625,0.1796875
997,1.234375,0.03125,0.1640625
998,1.2265625,0.03125,0.15234375
999,1.203125,0.02734375,0.1328125
1000,1.18359375,0.03515625,0.12890625
1001,1.15625,0.03125,0.12109375
1002,1.13671875,0.03125,0.12109375
1003,1.125,0.03515625,0.125
1004,1.09765625,0.046875,0.125
1005,1.0546875,0.08203125,0.16015625
1006,1.03515625,0.0859375,0.15234375
1007,1.00390625,0.125,0.140625
1008,0.97265625,0.1328125,0.17578125
1009,0.93359375,0.12890625,0.16796875
1010,0.8984375,0.1484375,0.1796875
1011,0.875,0.14453125,0.1875
1012,0.8515625,0.13671875,0.21875
1013,0.8359375,0.125,0.234375
1014,0.80859375,0.10546875,0.24609375
1015,0.79296875,0.09375,0.25390625
1016,0.796875,0.046875,0.2734375
1017,0.7734375,0.046875,0.3046875
1018,0.7890625,0.0078125,0.3203125
1019,0.796875,-0.04296875,0.3203125
1020,0.80078125,-0.078125,0.33203125
1021,0.8125,-0.1015625,0.33984375
1022,0.83984375,-0.12109375,0.3359375
1023,0.85546875,-0.1484375,0.328125
1024,0.87890625,-0.1484375,0.32421875
1025,0.90234375,-0.1328125,0.32421875
1026,0.9140625,-0.12109375,0.3125
1027,0.93359375,-0.1171875,0.28125
1028,0.9609375,-0.1015625,0.27734375
1029,0.98046875,-0.0390625,0.25
1030,0.9921875,-0.046875,0.22265625
1031,1.00390625,-0.01953125,0.18359375
1032,1.0234375,-0.01171875,0.15625
1033,1.04296875,0.0078125,0.13671875
1034,1.046875,0.03125,0.11328125
1035,1.05078125,0.03125,0.125
1036,1.0625,0.03515625,0.1015625
1037,1.0625,0.0390625,0.0859375
1038,1.0703125,0.04296875,0.09765625
1039,1.0703125,0.05078125,0.09765625
1040,1.046875,0.05859375,0.1015625
1041,1.03125,0.05078125,0.109375
1042,1.03125,0.0390625,0.109375
1043,1.0234375,0.05078125,0.10546875
1044,1.01171875,0.05078125,0.1171875
1045,1.00390625,0.0390625,0.09375
1046,0.984375,0.0390625,0.11328125
1047,0.9921875,0.01953125,0.09765625
1048,0.9765625,0.03125,0.11328125
1049,0.98046875,-0.01171875,0.109375
1050,0.99609375,-0.015625,0.12109375
1051,0.9921875,-0.0390625,0.12109375
1052,0.99609375,-0.03515625,0.11328125
1053,1.0,-0.0390625,0.109375
1054,1.0,-0.03515625,0.09765625
1055,1.0078125,-0.03125,0.09765625
1056,1.015625,-0.0234375,0.08203125
1057,1.01171875,-0.015625,0.07421875
1058,1.0078125,-0.01171875,0.0390625
1059,1.01953125,-0.01171875,0.03515625
1060,1.00390625,0.00390625,0.0078125
1061,1.0078125,0.01953125,-0.00390625
1062,1.015625,0.01953125,-0.0234375
1063,1.00390625,0.015625,-0.00390625
1064,1.0,0.01953125,0.0
1065,1.00390625,0.01171875,0.00390625
1066,1.01171875,0.00390625,-0.01953125
1067,1.015625,-0.015625,0.0078125
1068,1.03125,-0.03515625,0.01953125
1069,1.03125,-0.04296875,0.03515625
1070,1.0390625,-0.05859375,0.03515625
1071,1.03125,-0.0703125,0.05078125
1072,1.0078125,-0.08984375,0.03125
1073,1.02734375,-0.09375,0.05859375
1074,1.046875,-0.1171875,0.046875
1075,1.05859375,-0.1171875,0.05859375
1076,1.0625,-0.12890625,0.03515625
1077,1.05859375,-0.125,0.02734375
1078,1.0390625,-0.11328125,0.015625
1079,1.03125,-0.1171875,0.01171875
1080,1.0078125,-0.11328125,0.00390625
1081,0.9921875,-0.125,0.0078125
1082,0.9765625,-0.09765625,0.01171875
1083,0.953125,-0.1015625,0.02734375
1084,0.93359375,-0.09765625,0.0390625
1085,0.9296875,-0.1015625,0.05078125
1086,0.921875,-0.0859375,0.0703125
1087,0.90625,-0.09765625,0.0703125
1088,0.91015625,-0.08984375,0.0625
1089,0.9140625,-0.09765625,0.05859375
1090,0.92578125,-0.10546875,0.0703125
1091,0.94921875,-0.10546875,0.0625
1092,0.95703125,-0.09765625,0.08203125
1093,0.9921875,-0.109375,0.0625
1094,1.03125,-0.109375,0.05078125
1095,1.0390625,-0.0859375,0.03125
1096,1.0859375,-0.08203125,0.03125
1097,1.10546875,-0.07421875,0.02734375
1098,1.12109375,-0.078125,0.02734375
1099,1.109375,-0.0703125,0.01953125
1100,1.1171875,-0.0703125,0.015625
1101,1.11328125,-0.05859375,0.015625
1102,1.109375,-0.046875,-0.0078125
1103,1.109375,-0.0546875,-0.01171875
1104,1.09765625,-0.0390625,-0.01953125
1105,1.0625,-0.04296875,-0.0234375
1106,1.03515625,-0.0390625,-0.05078125
1107,1.01953125,-0.04296875,-0.04296875
1108,1.0,-0.0546875,-0.0390625
1109,0.98046875,-0.046875,-0.04296875
1110,0.95703125,-0.0703125,-0.04296875
1111,0.95703125,-0.08203125,-0.03125
1112,0.9453125,-0.10546875,-0.0234375
1113,0.94140625,-0.1328125,-0.01953125
1114,0.9375,-0.15625,-0.0078125
1115,0.921875,-0.15625,0.0078125
1116,0.91015625,-0.15625,-0.0234375
1117,0.92578125,-0.1875,0.02734375
1118,0.92578125,-0.18359375,0.015625
1119,0.9296875,-0.203125,0.00390625
1120,0.94921875,-0.1875,0.00390625
1121,0.953125,-0.1875,-0.00390625
1122,0.94921875,-0.1640625,0.00390625
1123,0.95703125,-0.15234375,-0.0078125
1124,0.96484375,-0.14453125,-0.01171875
1125,0.97265625,-0.12109375,-0.015625
1126,0.98046875,-0.1015625,-0.01953125
1127,0.984375,-0.1015625,-0.01953125
1128,1.0,-0.08984375,-0.01171875
1129,1.01171875,-0.078125,-0.01171875
1130,1.01171875,-0.0703125,-0.0078125
1131,1.03125,-0.06640625,0.00390625
1132,1.03125,-0.0703125,-0.0078125
1133,1.0234375,-0.0703125,0.0
1134,1.0390625,-0.0703125,-0.01953125
1135,1.04296875,-0.09375,0.0078125
1136,1.0390625,-0.09375,0.0
1137,1.0703125,-0.05859375,0.02734375
1138,1.04296875,-0.08203125,0.00390625
1139,1.03515625,-0.08984375,-0.0078125
1140,1.02734375,-0.09375,-0.00390625
1141,1.015625,-0.09375,-0.00390625
1142,1.0234375,-0.09375,-0.0078125
1143,1.015625,-0.1015625,-0.00390625
1144,1.00390625,-0.09765625,0.01953125
1145,1.00390625,-0.09375,0.01171875
1146,1.0,-0.08984375,0.0234375
1147,0.99609375,-0.09375,0.01953125
1148,0.99609375,-0.078125,0.0234375
1149,0.9921875,-0.078125,0.03125
1150,0.98828125,-0.046875,0.04296875
1151,0.98046875,-0.0546875,0.046875
1152,0.99609375,-0.04296875,0.05859375
1153,0.9921875,-0.0390625,0.08203125
1154,0.98828125,-0.04296875,0.078125
1155,0.99609375,-0.046875,0.0703125
1156,0.99609375,-0.05078125,0.08984375
1157,1.00390625,-0.046875,0.078125
1158,0.99609375,-0.046875,0.1015625
1159,1.01953125,-0.03515625,0.08203125
1160,0.9921875,-0.046875,0.08984375
1161,0.99609375,-0.05078125,0.0859375
1162,1.0,-0.0546875,0.08984375
1163,1.0078125,-0.05078125,0.07421875
1164,1.00390625,-0.0546875,0.08203125
1165,0.99609375,-0.05078125,0.08984375
1166,1.0078125,-0.0625,0.08984375
1167,1.0,-0.04296875,0.08203125
1168,0.99609375,-0.0546875,0.1015625
1169,0.99609375,-0.05078125,0.11328125
1170,1.0078125,-0.04296875,0.11328125
1171,0.99609375,-0.0390625,0.09765625
1172,1.01171875,-0.0390625,0.109375
1173,1.0078125,-0.04296875,0.1015625
1174,1.015625,-0.0390625,0.1015625
1175,1.01171875,-0.03515625,0.10546875
1176,1.01171875,-0.046875,0.1015625
1177,1.0,-0.046875,0.1015625
1178,1.00390625,-0.0390625,0.09765625
1179,1.0,-0.046875,0.07421875
1180,1.0,-0.046875,0.08203125
1181,0.99609375,-0.02734375,0.06640625
1182,1.0,-0.05859375,0.0703125
1183,0.98046875,-0.05859375,0.06640625
1184,0.98828125,-0.05078125,0.06640625
1185,0.984375,-0.05078125,0.07421875
1186,0.984375,-0.0703125,0.078125
1187,0.9765625,-0.0546875,0.078125
1188,0.9921875,-0.08203125,0.0546875
1189,0.98828125,-0.05078125,0.0859375
1190,1.00390625,-0.07421875,0.07421875
1191,1.0,-0.06640625,0.0703125
1192,1.00390625,-0.06640625,0.0703125
1193,1.0,-0.08203125,0.05859375
1194,0.99609375,-0.08203125,0.0546875
1195,0.99609375,-0.078125,0.0703125
1196,1.0,-0.08203125,0.06640625
1197,0.984375,-0.0703125,0.046875
1198,0.9921875,-0.0703125,0.05859375
1199,0.984375,-0.078125,0.05859375
1200,0.984375,-0.0703125,0.06640625
1201,0.98046875,-0.06640625,0.05078125
1202,0.98828125,-0.0703125,0.04296875
1203,0.9765625,-0.078125,0.05859375
1204,0.984375,-0.07421875,0.046875
1205,0.98046875,-0.08203125,0.046875
1206,0.98046875,-0.0703125,0.046875
1207,0.9921875,-0.0703125,0.0625
1208,0.984375,-0.0703125,0.0703125
1209,0.98828125,-0.06640625,0.0625
1210,0.98828125,-0.06640625,0.05078125
1211,0.98828125,-0.0625,0.0546875
1212,0.99609375,-0.05078125,0.06640625
1213,0.9921875,-0.0625,0.046875
1214,0.99609375,-0.07421875,0.06640625
1215,1.0,-0.05859375,0.046875
1216,1.00390625,-0.05859375,0.0625
1217,1.00390625,-0.0625,0.0625
1218,1.0078125,-0.0703125,0.0546875
1219,1.00390625,-0.0703125,0.046875
1220,1.0078125,-0.0859375,0.0546875
1221,1.0,-0.09375,0.0625
1222,1.01171875,-0.0859375,0.0625
1223,1.0078125,-0.08203125,0.05859375
1224,1.0078125,-0.078125,0.0546875
1225,1.0078125,-0.08203125,0.01953125
1226,1.0078125,-0.0859375,0.07421875
1227,1.00390625,-0.078125,0.04296875
1228,1.0078125,-0.07421875,0.05859375
1229,1.0,-0.07421875,0.0546875
1230,1.01171875,-0.0625,0.0546875
1231,0.99609375,-0.0703125,0.04296875
1232,1.00390625,-0.05859375,0.05078125
1233,1.0078125,-0.06640625,0.046875
1234,1.00390625,-0.05859375,0.046875
1235,1.00390625,-0.05859375,0.0390625
1236,1.0078125,-0.0546875,0.0390625
1237,1.0078125,-0.0703125,0.03515625
1238,0.99609375,-0.0625,0.0390625
1239,1.0,-0.0546875,0.02734375
1240,0.98828125,-0.05859375,0.03515625
1241,1.0,-0.0703125,0.0390625
1242,0.99609375,-0.0625,0.05078125
1243,0.99609375,-0.0703125,0.0390625
1244,1.0,-0.07421875,0.0390625
1245,1.0,-0.05859375,0.046875
1246,0.99609375,-0.0546875,0.08203125
1247,0.9921875,-0.0625,0.0546875
1248,1.0,-0.05859375,0.05078125
1249,0.9921875,-0.0546875,0.07421875
1250,1.0078125,-0.046875,0.0546875
1251,1.00390625,-0.05078125,0.0546875
1252,0.99609375,-0.05859375,0.05078125
1253,0.9921875,-0.06640625,0.0625
1254,1.00390625,-0.0625,0.06640625
1255,1.00390625,-0.0546875,0.0625
1256,1.0,-0.0703125,0.05078125
1257,1.00390625,-0.078125,0.0390625
1258,1.0078125,-0.0703125,0.046875
1259,1.0,-0.07421875,0.0546875
1260,1.00390625,-0.0703125,0.05859375
1261,1.0,-0.0703125,0.04296875
1262,0.99609375,-0.05859375,0.0390625
1263,0.99609375,-0.0546875,0.0546875
1264,1.0,-0.0546875,0.03515625
1265,0.99609375,-0.05859375,0.03515625
1266,0.98828125,-0.0625,0.0546875
1267,0.98828125,-0.0546875,0.0546875
1268,0.9921875,-0.07421875,0.06640625
1269,1.0,-0.05078125,0.0546875
1270,1.00390625,-0.0546875,0.05078125
1271,1.0,-0.06640625,0.05859375
1272,1.0,-0.06640625,0.0625
1273,1.00390625,-0.0625,0.078125
1274,1.00390625,-0.0625,0.0625
1275,1.0078125,-0.0625,0.07421875
1276,1.00390625,-0.0546875,0.06640625
1277,1.01171875,-0.08203125,0.05859375
1278,0.99609375,-0.04296875,0.06640625
1279,0.9921875,-0.05859375,0.07421875
1280,0.99609375,-0.0625,0.0703125
1281,1.00390625,-0.0703125,0.0546875
1282,1.0,-0.0703125,0.0546875
1283,1.0,-0.0703125,0.05859375
1284,0.9921875,-0.0625,0.0546875
1285,0.98828125,-0.0625,0.05859375
1286,0.99609375,-0.0703125,0.0703125
1287,0.98828125,-0.0546875,0.05859375
1288,0.984375,-0.07421875,0.06640625
1289,0.99609375,-0.0703125,0.078125
1290,0.984375,-0.046875,0.08984375
1291,0.98828125,-0.06640625,0.078125
1292,0.99609375,-0.0703125,0.06640625
1293,0.98828125,-0.0625,0.08203125
1294,0.99609375,-0.07421875,0.06640625
1295,0.99609375,-0.06640625,0.08203125
1296,0.9921875,-0.06640625,0.07421875
1297,0.98828125,-0.0546875,0.08984375
1298,1.0,-0.078125,0.09765625
1299,0.9921875,-0.06640625,0.09375
1300,0.9921875,-0.06640625,0.08203125
1301,0.98828125,-0.05859375,0.08984375
1302,0.98828125,-0.0625,0.08984375
1303,0.9921875,-0.07421875,0.09375
1304,0.984375,-0.07421875,0.0859375
1305,0.98046875,-0.07421875,0.08984375
1306,1.0,-0.08984375,0.09375
1307,0.9921875,-0.08984375,0.08984375
1308,0.98828125,-0.0859375,0.10546875
1309,1.00390625,-0.09375,0.08984375
1310,0.9921875,-0.08984375,0.109375
1311,1.0,-0.08984375,0.078125
1312,1.0234375,-0.0859375,0.1171875
1313,0.99609375,-0.078125,0.09765625
1314,1.00390625,-0.09375,0.09765625
1315,0.99609375,-0.07421875,0.09375
1316,0.99609375,-0.0703125,0.08984375
1317,0.9921875,-0.07421875,0.08984375
1318,1.0,-0.07421875,0.1015625
1319,0.984375,-0.07421875,0.09765625
1320,0.98046875,-0.0625,0.09375
1321,0.99609375,-0.0859375,0.09375
1322,0.9921875,-0.078125,0.09375
1323,0.98828125,-0.0703125,0.09375
1324,0.9921875,-0.07421875,0.08203125
1325,0.98828125,-0.07421875,0.09765625
1326,0.98046875,-0.06640625,0.10546875
1327,0.98828125,-0.0703125,0.0859375
1328,0.99609375,-0.0703125,0.0859375
1329,0.984375,-0.07421875,0.09765625
1330,0.9921875,-0.05859375,0.0859375
1331,0.9921875,-0.05859375,0.09375
1332,0.99609375,-0.05078125,0.08203125
1333,0.98828125,-0.0625,0.09375
1334,1.01171875,-0.0546875,0.12109375
1335,0.99609375,-0.0625,0.0859375
1336,0.984375,-0.0625,0.09375
1337,0.98828125,-0.0703125,0.11328125
1338,0.9921875,-0.07421875,0.09765625
1339,0.99609375,-0.07421875,0.09765625
1340,0.99609375,-0.08203125,0.09375
1341,0.9921875,-0.08203125,0.109375
1342,0.99609375,-0.078125,0.09765625
1343,1.0,-0.0859375,0.09375
1344,0.9921875,-0.078125,0.0859375
1345,0.98828125,-0.0703125,0.09375
1346,0.98046875,-0.0703125,0.0859375
1347,0.984375,-0.06640625,0.0859375
1348,0.984375,-0.078125,0.09375
1349,0.98828125,-0.08203125,0.09375
1350,0.98828125,-0.0703125,0.07421875
1351,1.00390625,-0.078125,0.09375
1352,0.9921875,-0.07421875,0.08984375
1353,0.98828125,-0.0703125,0.1015625
1354,0.98828125,-0.078125,0.1015625
1355,1.00390625,-0.0859375,0.11328125
1356,1.0,-0.08203125,0.078125
1357,1.0,-0.07421875,0.09765625
1358,1.00390625,-0.0859375,0.09375
1359,0.99609375,-0.078125,0.1015625
1360,0.99609375,-0.07421875,0.078125
1361,1.0,-0.07421875,0.08984375
1362,1.0,-0.08203125,0.08984375
1363,1.0,-0.078125,0.078125
1364,0.99609375,-0.07421875,0.09765625
1365,0.9921875,-0.0859375,0.10546875
1366,0.98828125,-0.078125,0.09375
1367,0.9921875,-0.078125,0.09375
1368,0.99609375,-0.08203125,0.09375
1369,0.99609375,-0.078125,0.08203125
1370,0.98828125,-0.08203125,0.0859375
1371,0.99609375,-0.0859375,0.08203125
1372,0.99609375,-0.08203125,0.09375
1373,0.9921875,-0.08984375,0.07421875
1374,0.99609375,-0.08984375,0.06640625
1375,0.9765625,-0.07421875,0.08203125
1376,0.9921875,-0.0859375,0.07421875
1377,1.00390625,-0.0625,0.109375
1378,0.99609375,-0.0703125,0.08984375
1379,0.9921875,-0.07421875,0.078125
1380,0.99609375,-0.07421875,0.0859375
1381,1.0,-0.0703125,0.09375
1382,0.9921875,-0.0703125,0.09375
1383,0.9921875,-0.07421875,0.10546875
1384,0.99609375,-0.0703125,0.10546875
1385,1.0,-0.06640625,0.08984375
1386,0.99609375,-0.0703125,0.09375
1387,1.0,-0.0859375,0.09765625
1388,1.0,-0.07421875,0.09765625
1389,0.99609375,-0.0703125,0.1015625
1390,0.99609375,-0.078125,0.08984375
1391,1.0,-0.07421875,0.09375
1392,0.99609375,-0.07421875,0.0859375
1393,0.99609375,-0.0703125,0.09375
1394,1.0,-0.0625,0.09375
1395,0.99609375,-0.0703125,0.09765625
1396,0.9921875,-0.0703125,0.08984375
1397,0.99609375,-0.07421875,0.08984375
1398,0.99609375,-0.08203125,0.08203125
1399,0.9375,-0.08984375,0.08203125
1400,0.99609375,-0.08203125,0.0703125
1401,0.98046875,-0.0859375,0.09765625
1402,0.984375,-0.078125,0.09765625
1403,0.9921875,-0.08203125,0.1015625
1404,1.0,-0.078125,0.09765625
1405,0.9921875,-0.07421875,0.09765625
1406,0.99609375,-0.0859375,0.1015625
1407,0.99609375,-0.08984375,0.109375
1408,0.9921875,-0.08203125,0.10546875
1409,0.9921875,-0.08203125,0.10546875
1410,0.98828125,-0.078125,0.09765625
1411,0.9921875,-0.06640625,0.09375
1412,1.0,-0.06640625,0.109375
1413,0.99609375,-0.078125,0.09375
1414,0.98046875,-0.08203125,0.09375
1415,0.99609375,-0.07421875,0.08984375
1416,0.99609375,-0.07421875,0.0859375
1417,0.99609375,-0.08203125,0.09765625
1418,0.9921875,-0.06640625,0.09765625
1419,0.9921875,-0.078125,0.1015625
1420,0.9921875,-0.09375,0.10546875
1421,1.02734375,-0.0625,0.1015625
1422,0.9921875,-0.08203125,0.1015625
1423,0.984375,-0.08984375,0.109375
1424,0.98828125,-0.09375,0.08984375
1425,0.99609375,-0.0859375,0.109375
1426,0.99609375,-0.08203125,0.10546875
1427,0.98828125,-0.078125,0.1015625
1428,0.9921875,-0.08203125,0.109375
1429,0.98828125,-0.06640625,0.0859375
1430,0.98828125,-0.07421875,0.09765625
1431,0.9921875,-0.07421875,0.08984375
1432,1.0,-0.07421875,0.09765625
1433,0.9921875,-0.06640625,0.08984375
1434,1.00390625,-0.078125,0.09375
1435,0.99609375,-0.06640625,0.10546875
1436,0.9921875,-0.07421875,0.1015625
1437,0.99609375,-0.08984375,0.09375
1438,0.99609375,-0.078125,0.109375
1439,1.0,-0.09765625,0.1015625
1440,1.0,-0.0859375,0.09375
1441,0.9921875,-0.08203125,0.08984375
1442,0.98828125,-0.09765625,0.08984375
1443,0.9921875,-0.078125,0.09375
1444,0.9921875,-0.08984375,0.0859375
1445,0.99609375,-0.078125,0.08984375
1446,0.9921875,-0.078125,0.1015625
1447,1.0,-0.05859375,0.09765625
1448,0.99609375,-0.07421875,0.09765625
1449,0.99609375,-0.07421875,0.1015625
1450,1.00390625,-0.08984375,0.08984375
1451,0.984375,-0.07421875,0.08984375
1452,0.99609375,-0.07421875,0.10546875
1453,0.9921875,-0.0703125,0.08984375
1454,0.98828125,-0.07421875,0.1015625
1455,1.00390625,-0.07421875,0.0859375
1456,0.99609375,-0.08203125,0.09765625
1457,1.00390625,-0.0703125,0.08984375
1458,0.98828125,-0.0703125,0.1015625
1459,0.9921875,-0.06640625,0.09765625
1460,0.99609375,-0.0703125,0.08203125
1461,0.98828125,-0.07421875,0.09375
1462,0.9921875,-0.0859375,0.08203125
1463,0.99609375,-0.08203125,0.09375
1464,0.99609375,-0.0859375,0.1015625
1465,0.99609375,-0.09375,0.078125
1466,0.99609375,-0.08984375,0.08984375
1467,0.9921875,-0.0859375,0.09375
1468,0.99609375,-0.07421875,0.109375
1469,0.99609375,-0.08984375,0.1015625
1470,1.0,-0.078125,0.078125
1471,0.9921875,-0.0859375,0.1015625
1472,0.98828125,-0.07421875,0.08984375
1473,1.0,-0.0859375,0.08984375
1474,0.99609375,-0.08203125,0.08984375
1475,1.0,-0.0703125,0.09765625
1476,0.99609375,-0.0703125,0.09375
1477,0.9921875,-0.0703125,0.08203125
1478,0.99609375,-0.06640625,0.09765625
1479,1.0,-0.0703125,0.09375
1480,1.00390625,-0.08203125,0.1015625
1481,0.99609375,-0.08203125,0.09765625
1482,0.9921875,-0.0859375,0.08203125
1483,0.99609375,-0.0859375,0.0859375
1484,0.98046875,-0.0859375,0.08203125
1485,1.00390625,-0.09765625,0.08203125
1486,0.97265625,-0.09765625,0.08984375
1487,0.9921875,-0.08203125,0.07421875
1488,0.99609375,-0.0859375,0.078125
1489,0.984375,-0.06640625,0.08203125
1490,0.9921875,-0.08203125,0.0859375
1491,0.98046875,-0.07421875,0.078125
1492,0.98828125,-0.0625,0.08203125
1493,0.984375,-0.0625,0.09375
1494,0.9921875,-0.0625,0.08203125
1495,0.99609375,-0.05859375,0.0859375
1496,0.98828125,-0.0703125,0.09375
1497,0.98828125,-0.0625,0.10546875
1498,0.99609375,-0.07421875,0.109375
1499,1.0,-0.0703125,0.109375
1500,0.9921875,-0.08203125,0.09375
1501,1.0,-0.07421875,0.09765625
1502,1.0,-0.078125,0.109375
1503,0.99609375,-0.08203125,0.1015625
1504,1.0,-0.0703125,0.10546875
1505,0.99609375,-0.0859375,0.09375
1506,0.99609375,-0.0703125,0.08984375
1507,1.0,-0.078125,0.0859375
1508,0.98828125,-0.09375,0.04296875
1509,0.99609375,-0.07421875,0.08984375
1510,1.0,-0.08203125,0.08984375
1511,0.9921875,-0.07421875,0.08203125
1512,1.0,-0.0859375,0.1015625
1513,0.98828125,-0.06640625,0.09375
1514,0.99609375,-0.0703125,0.08203125
1515,0.99609375,-0.07421875,0.10546875
1516,0.99609375,-0.06640625,0.1015625
1517,0.99609375,-0.07421875,0.09765625
1518,0.99609375,-0.07421875,0.07421875
1519,0.9921875,-0.05859375,0.08984375
1520,0.9921875,-0.0703125,0.10546875
1521,0.99609375,-0.0703125,0.1015625
1522,0.99609375,-0.08203125,0.1015625
1523,0.99609375,-0.0703125,0.10546875
1524,0.99609375,-0.06640625,0.09765625
1525,0.99609375,-0.05859375,0.10546875
1526,1.0,-0.06640625,0.1015625
1527,1.00390625,-0.0703125,0.09765625
1528,1.0,-0.0625,0.10546875
1529,0.9921875,-0.0625,0.09375
1530,1.0078125,-0.05078125,0.078125
1531,0.9921875,-0.0546875,0.09765625
1532,0.99609375,-0.078125,0.09765625
1533,0.99609375,-0.08203125,0.10546875
1534,0.9921875,-0.07421875,0.0859375
1535,1.0,-0.08203125,0.09765625
1536,1.0,-0.0859375,0.09765625
1537,0.9921875,-0.09375,0.08984375
1538,0.98828125,-0.08984375,0.08984375
1539,0.98828125,-0.078125,0.1015625
1540,0.98828125,-0.1015625,0.08984375
1541,1.0,-0.0859375,0.09375
1542,1.0,-0.08984375,0.07421875
1543,0.984375,-0.09765625,0.09375
1544,0.99609375,-0.08984375,0.08203125
1545,0.98828125,-0.078125,0.09375
1546,0.99609375,-0.08984375,0.0859375
1547,1.0,-0.09765625,0.08203125
1548,0.98828125,-0.08984375,0.078125
1549,0.9921875,-0.08984375,0.09765625
1550,0.9921875,-0.0859375,0.09375
1551,0.984375,-0.1015625,0.10546875
1552,0.98828125,-0.09375,0.09765625
1553,0.99609375,-0.08984375,0.08984375
1554,0.99609375,-0.0859375,0.11328125
1555,0.99609375,-0.08203125,0.109375
1556,0.99609375,-0.078125,0.1015625
1557,1.0,-0.08203125,0.10546875
1558,1.0,-0.06640625,0.12109375
1559,0.99609375,-0.0625,0.11328125
1560,1.00390625,-0.06640625,0.09765625
1561,1.0078125,-0.06640625,0.09765625
1562,1.00390625,-0.06640625,0.109375
1563,1.01171875,-0.06640625,0.1015625
1564,1.0078125,-0.05859375,0.09765625
1565,0.99609375,-0.0703125,0.09375
1566,1.00390625,-0.06640625,0.0859375
1567,1.00390625,-0.08203125,0.09375
1568,1.0,-0.05859375,0.08984375
1569,1.0,-0.078125,0.0625
1570,1.0,-0.08203125,0.078125
1571,0.9921875,-0.078125,0.0625
1572,1.0,-0.06640625,0.0859375
1573,0.984375,-0.0859375,0.0703125
1574,1.00390625,-0.078125,0.07421875
1575,0.98828125,-0.07421875,0.05859375
1576,0.98046875,-0.06640625,0.06640625
1577,0.99609375,-0.07421875,0.07421875
1578,0.99609375,-0.08203125,0.06640625
1579,0.9921875,-0.06640625,0.07421875
1580,0.98828125,-0.0703125,0.0859375
1581,0.9921875,-0.06640625,0.05859375
1582,0.984375,-0.0703125,0.0859375
1583,0.98046875,-0.06640625,0.0625
1584,0.98046875,-0.07421875,0.078125
1585,0.984375,-0.07421875,0.07421875
1586,0.984375,-0.06640625,0.0703125
1587,0.98828125,-0.09375,0.0859375
1588,0.9921875,-0.08203125,0.0859375
1589,0.98046875,-0.08203125,0.06640625
1590,0.984375,-0.07421875,0.08203125
1591,0.9765625,-0.0703125,0.07421875
1592,0.984375,-0.0859375,0.07421875
1593,0.9765625,-0.08984375,0.08203125
1594,0.9921875,-0.09375,0.09375
1595,0.98046875,-0.08984375,0.08984375
1596,0.9921875,-0.09375,0.08203125
1597,0.9921875,-0.1015625,0.0859375
1598,0.98046875,-0.09375,0.10546875
1599,0.98828125,-0.10546875,0.09765625
1600,0.9921875,-0.09375,0.109375
1601,0.9921875,-0.078125,0.10546875
1602,1.0,-0.1015625,0.11328125
1603,1.00390625,-0.08984375,0.10546875
1604,0.9921875,-0.0859375,0.09765625
1605,1.0078125,-0.09765625,0.09765625
1606,1.0078125,-0.09375,0.09375
1607,1.0078125,-0.08203125,0.08203125
1608,0.99609375,-0.08984375,0.09375
1609,0.99609375,-0.07421875,0.08203125
1610,1.0,-0.078125,0.08984375
1611,0.99609375,-0.06640625,0.0859375
1612,1.0,-0.08203125,0.06640625
1613,1.0,-0.06640625,0.1015625
1614,0.9921875,-0.0703125,0.1015625
1615,1.0,-0.08203125,0.09375
1616,0.9921875,-0.078125,0.11328125
1617,0.99609375,-0.0859375,0.11328125
1618,0.9921875,-0.06640625,0.09765625
1619,1.00390625,-0.07421875,0.10546875
1620,1.0,-0.09765625,0.13671875
1621,1.0078125,-0.1484375,0.078125
1622,1.0546875,-0.078125,0.13671875
1623,1.0078125,-0.09375,0.09375
1624,1.01953125,-0.08984375,0.11328125
1625,1.01171875,-0.1015625,0.08203125
1626,0.99609375,-0.10546875,0.0859375
1627,1.01171875,-0.1015625,0.12109375
1628,1.01171875,-0.109375,0.10546875
1629,1.015625,-0.1015625,0.09765625
1630,1.0078125,-0.09765625,0.09765625
1631,1.00390625,-0.10546875,0.08984375
1632,1.015625,-0.0859375,0.0859375
1633,1.00390625,-0.1171875,0.0703125
1634,1.015625,-0.11328125,0.0859375
1635,1.01171875,-0.09375,0.0546875
1636,1.01953125,-0.0703125,0.0625
1637,1.00390625,-0.09375,0.078125
1638,1.01171875,-0.09765625,0.03515625
1639,1.01171875,-0.1015625,0.046875
1640,1.0078125,-0.08203125,0.0390625
1641,0.9765625,-0.08203125,0.0546875
1642,0.99609375,-0.0703125,0.0
1643,0.9765625,-0.109375,0.03125
1644,0.984375,-0.1171875,0.04296875
1645,0.96875,-0.125,0.02734375
1646,0.98828125,-0.125,0.0390625
1647,0.953125,-0.08984375,0.01953125
1648,0.94921875,-0.10546875,0.03515625
1649,0.9765625,-0.12890625,0.08203125
1650,0.94921875,-0.1171875,0.07421875
1651,1.00390625,-0.109375,0.10546875
1652,0.95703125,-0.109375,0.0703125
1653,0.96875,-0.0859375,0.0859375
1654,0.96484375,-0.109375,0.1171875
1655,0.96484375,-0.1171875,0.10546875
1656,0.97265625,-0.06640625,0.1171875
1657,1.00390625,-0.0546875,0.1328125
1658,0.984375,-0.07421875,0.125
1659,0.99609375,-0.0546875,0.125
1660,0.98046875,-0.05078125,0.125
1661,0.9921875,-0.0390625,0.1171875
1662,0.98046875,-0.01953125,0.1171875
1663,1.0078125,-0.03515625,0.14453125
1664,0.96875,-0.03125,0.06640625
1665,1.01171875,0.0390625,0.0703125
1666,0.984375,-0.015625,0.046875
1667,0.96484375,0.01171875,0.0859375
1668,0.98828125,-0.0234375,0.0234375
1669,0.97265625,-0.0234375,0.04296875
1670,0.95703125,-0.0234375,0.03125
1671,0.98046875,-0.0234375,0.05078125
1672,0.98046875,-0.03515625,0.0546875
1673,1.03515625,-0.04296875,0.09375
1674,0.96875,-0.0625,0.08984375
1675,0.98046875,-0.0703125,0.10546875
1676,0.98828125,-0.0625,0.13671875
1677,0.984375,-0.06640625,0.1328125
1678,0.9921875,-0.0625,0.16796875
1679,0.98828125,-0.05078125,0.1875
1680,1.01171875,-0.0703125,0.17578125
1681,0.9921875,-0.07421875,0.1640625
1682,0.9921875,-0.05078125,0.1875
1683,0.99609375,-0.05859375,0.16796875
1684,0.9609375,-0.04296875,0.16796875
1685,1.015625,-0.0234375,0.1328125
1686,0.98828125,-0.00390625,0.18359375
1687,1.0234375,-0.0078125,0.16015625
1688,0.9765625,0.04296875,0.1484375
1689,1.00390625,0.03125,0.125
1690,0.9921875,0.01171875,0.12109375
1691,0.96875,0.0234375,0.1015625
1692,0.96484375,0.03125,0.09765625
1693,0.96484375,0.0234375,0.08984375
1694,0.94921875,-0.06640625,0.0859375
1695,0.94921875,0.00390625,0.0703125
1696,0.98828125,-0.03515625,0.078125
1697,0.984375,-0.03515625,0.08984375
1698,0.99609375,-0.04296875,0.1171875
1699,1.01171875,-0.046875,0.125
1700,1.0234375,-0.05859375,0.13671875
1701,0.98828125,-0.078125,0.08984375
1702,1.01953125,-0.0703125,0.13671875
1703,1.0,-0.0703125,0.12109375
1704,1.01171875,-0.0546875,0.140625
1705,1.0234375,-0.06640625,0.13671875
1706,1.01171875,-0.0546875,0.1328125
1707,1.0,-0.04296875,0.125
1708,1.0234375,-0.015625,0.12109375
1709,1.01171875,-0.015625,0.11328125
1710,0.9765625,-0.01953125,0.1484375
1711,0.984375,0.0,0.12109375
1712,1.0078125,-0.01171875,0.11328125
1713,0.96875,0.03125,0.1328125
1714,0.96875,0.02734375,0.13671875
1715,0.98046875,0.0234375,0.1171875
1716,0.984375,0.03515625,0.12109375
1717,0.9921875,0.02734375,0.1484375
1718,1.0234375,0.06640625,0.23046875
1719,1.02734375,0.02734375,0.1484375
1720,1.03515625,0.03515625,0.1484375
1721,1.05078125,0.01953125,0.16796875
1722,1.078125,0.0078125,0.15625
1723,1.07421875,-0.01171875,0.140625
1724,1.1015625,0.015625,0.125
1725,1.10546875,-0.00390625,0.09765625
1726,1.109375,0.0,0.1015625
1727,1.10546875,0.0,0.07421875
1728,1.08984375,0.0078125,0.06640625
1729,1.08203125,-0.0078125,0.078125
1730,1.08203125,-0.0078125,0.0546875
1731,1.0390625,-0.0078125,0.0625
1732,1.0390625,-0.015625,0.0546875
1733,0.99609375,-0.015625,0.05859375
1734,0.984375,-0.015625,0.0625
1735,0.95703125,-0.01171875,0.0625
1736,0.93359375,-0.015625,0.0546875
1737,0.93359375,-0.01171875,0.1484375
1738,0.9140625,-0.0546875,0.06640625
1739,0.91796875,-0.06640625,0.0859375
1740,0.89453125,-0.0703125,0.09765625
1741,0.8984375,-0.10546875,0.08984375
1742,0.90234375,-0.12109375,0.07421875
1743,0.8984375,-0.1015625,0.08984375
1744,0.91796875,-0.109375,0.0859375
1745,0.9375,-0.10546875,0.06640625
1746,0.9453125,-0.09765625,0.0703125
1747,0.953125,-0.11328125,0.0390625
1748,0.95703125,-0.078125,0.0546875
1749,0.9765625,-0.0703125,0.06640625
1750,0.9765625,-0.0546875,0.05859375
1751,0.99609375,-0.0703125,0.0859375
1752,0.9921875,-0.078125,0.09375
1753,0.99609375,-0.09375,0.0703125
1754,0.98828125,-0.11328125,0.09375
1755,0.98828125,-0.14453125,0.09765625
1756,0.99609375,-0.1796875,0.12109375
1757,0.9765625,-0.203125,0.10546875
1758,0.98046875,-0.234375,0.0859375
1759,0.9921875,-0.2578125,0.09765625
1760,0.98828125,-0.2734375,0.1015625
1761,0.98828125,-0.26953125,0.08984375
1762,0.98828125,-0.26171875,0.0859375
1763,0.9921875,-0.234375,0.07421875
1764,1.0078125,-0.21484375,0.04296875
1765,1.01171875,-0.1875,0.01953125
1766,1.01953125,-0.1640625,0.00390625
1767,1.0234375,-0.140625,-0.015625
1768,1.01953125,-0.12890625,-0.04296875
1769,1.02734375,-0.1171875,-0.07421875
1770,1.0234375,-0.11328125,-0.078125
1771,1.0,-0.11328125,-0.109375
1772,1.00390625,-0.125,-0.11328125
1773,0.98828125,-0.125,-0.14453125
1774,0.94921875,-0.14453125,-0.15234375
1775,0.94140625,-0.1484375,-0.16796875
1776,0.9296875,-0.15234375,-0.1640625
1777,0.9375,-0.1640625,-0.1640625
1778,0.9453125,-0.16015625,-0.14453125
1779,0.94140625,-0.16796875,-0.1484375
1780,0.96875,-0.171875,-0.13671875
1781,0.98046875,-0.16796875,-0.1171875
1782,0.99609375,-0.171875,-0.12890625
1783,1.0078125,-0.17578125,-0.12890625
1784,1.01171875,-0.1796875,-0.15625
1785,1.03125,-0.1796875,-0.13671875
1786,1.04296875,-0.17578125,-0.16796875
1787,1.0390625,-0.171875,-0.171875
1788,1.03125,-0.16796875,-0.1484375
1789,1.01953125,-0.15625,-0.12890625
1790,1.0234375,-0.1796875,-0.12109375
1791,1.01953125,-0.171875,-0.12109375
1792,1.015625,-0.20703125,-0.09375
1793,1.0,-0.20703125,-0.1015625
1794,1.0,-0.21484375,-0.078125
1795,0.984375,-0.2265625,-0.09375
1796,0.98828125,-0.23046875,-0.08203125
1797,0.96875,-0.234375,-0.078125
1798,0.9609375,-0.2109375,-0.09375
1799,0.97265625,-0.2265625,-0.09375
1800,0.984375,-0.22265625,-0.0859375
1801,1.0,-0.234375,-0.11328125
1802,1.01171875,-0.25390625,-0.11328125
1803,1.0234375,-0.25390625,-0.11328125
1804,1.02734375,-0.28125,-0.09765625
1805,1.0390625,-0.26953125,-0.08984375
1806,1.0390625,-0.2890625,-0.09765625
1807,1.0390625,-0.2890625,-0.078125
1808,1.0234375,-0.296875,-0.078125
1809,1.03515625,-0.30859375,-0.078125
1810,1.02734375,-0.27734375,-0.07421875
1811,1.0078125,-0.29296875,-0.1015625
1812,0.9921875,-0.27734375,-0.0703125
1813,0.9765625,-0.2734375,-0.09375
1814,0.953125,-0.2734375,-0.0859375
1815,0.95703125,-0.2890625,-0.0859375
1816,0.94140625,-0.29296875,-0.08203125
1817,0.921875,-0.3046875,-0.07421875
1818,0.91796875,-0.31640625,-0.0859375
1819,0.921875,-0.3203125,-0.078125
1820,0.91796875,-0.32421875,-0.06640625
1821,0.92578125,-0.33203125,-0.08984375
1822,0.9140625,-0.3359375,-0.08203125
1823,0.9140625,-0.34765625,-0.078125
1824,0.9140625,-0.32421875,-0.0625
1825,0.921875,-0.35546875,-0.078125
1826,0.93359375,-0.33984375,-0.0703125
1827,0.9453125,-0.34375,-0.0703125
1828,0.92578125,-0.33984375,-0.0703125
1829,0.9375,-0.35546875,-0.07421875
1830,0.921875,-0.3359375,-0.078125
1831,0.94140625,-0.3359375,-0.1015625
1832,0.92578125,-0.3359375,-0.09375
1833,0.91796875,-0.328125,-0.1015625
1834,0.91796875,-0.3359375,-0.11328125
1835,0.92578125,-0.35546875,-0.11328125
1836,0.9140625,-0.3671875,-0.140625
1837,0.8984375,-0.359375,-0.13671875
1838,0.90234375,-0.36328125,-0.12890625
1839,0.90625,-0.37890625,-0.15234375
1840,0.8984375,-0.3828125,-0.1328125
1841,0.8984375,-0.40625,-0.1484375
1842,0.90234375,-0.40625,-0.12890625
1843,0.90625,-0.4296875,-0.1328125
1844,0.90234375,-0.4375,-0.11328125
1845,0.90625,-0.4609375,-0.11328125
1846,0.90234375,-0.46875,-0.109375
1847,0.90625,-0.47265625,-0.1015625
1848,0.90234375,-0.4921875,-0.12890625
1849,0.91796875,-0.4921875,-0.1328125
1850,0.9140625,-0.4921875,-0.140625
1851,0.91796875,-0.47265625,-0.140625
1852,0.91796875,-0.46484375,-0.17578125
1853,0.91015625,-0.46875,-0.15625
1854,0.90625,-0.45703125,-0.16015625
1855,0.90625,-0.4609375,-0.1640625
1856,0.9140625,-0.4375,-0.171875
1857,0.890625,-0.453125,-0.16796875
1858,0.87890625,-0.4609375,-0.1484375
1859,0.87890625,-0.45703125,-0.14453125
1860,0.8671875,-0.4375,-0.11328125
1861,0.859375,-0.4453125,-0.1171875
1862,0.84765625,-0.4375,-0.109375
1863,0.83984375,-0.4453125,-0.11328125
1864,0.85546875,-0.453125,-0.12109375
1865,0.84765625,-0.44921875,-0.11328125
1866,0.84375,-0.46875,-0.11328125
1867,0.8359375,-0.47265625,-0.125
1868,0.8359375,-0.46875,-0.140625
1869,0.83984375,-0.48828125,-0.12109375
1870,0.8359375,-0.5,-0.12890625
1871,0.8359375,-0.5,-0.12890625
1872,0.8359375,-0.50390625,-0.12109375
1873,0.8359375,-0.5078125,-0.1171875
1874,0.8203125,-0.515625,-0.11328125
1875,0.80859375,-0.52734375,-0.12109375
1876,0.81640625,-0.5234375,-0.1171875
1877,0.81640625,-0.53515625,-0.125
1878,0.828125,-0.53125,-0.08984375
1879,0.80078125,-0.53515625,-0.11328125
1880,0.80078125,-0.5390625,-0.11328125
1881,0.8125,-0.53125,-0.125
1882,0.8203125,-0.54296875,-0.13671875
1883,0.8046875,-0.53125,-0.14453125
1884,0.81640625,-0.546875,-0.125
1885,0.8125,-0.5625,-0.13671875
1886,0.80078125,-0.54296875,-0.15234375
1887,0.796875,-0.546875,-0.12890625
1888,0.796875,-0.5390625,-0.140625
1889,0.796875,-0.55078125,-0.13671875
1890,0.79296875,-0.55078125,-0.140625
1891,0.78125,-0.54296875,-0.140625
1892,0.79296875,-0.5546875,-0.13671875
1893,0.79296875,-0.56640625,-0.1640625
1894,0.7890625,-0.56640625,-0.140625
1895,0.7890625,-0.5625,-0.14453125
1896,0.7890625,-0.578125,-0.14453125
1897,0.78515625,-0.58203125,-0.16015625
1898,0.796875,-0.58203125,-0.140625
1899,0.78515625,-0.578125,-0.14453125
1900,0.77734375,-0.59765625,-0.15234375
1901,0.77734375,-0.59765625,-0.140625
1902,0.7890625,-0.59765625,-0.14453125
1903,0.77734375,-0.59375,-0.13671875
1904,0.7734375,-0.60546875,-0.14453125
1905,0.76171875,-0.60546875,-0.1171875
1906,0.75390625,-0.59375,-0.12890625
1907,0.765625,-0.6171875,-0.125
1908,0.7578125,-0.62109375,-0.109375
1909,0.76171875,-0.6171875,-0.10546875
1910,0.75390625,-0.62890625,-0.10546875
1911,0.765625,-0.6328125,-0.12109375
1912,0.7578125,-0.640625,-0.1328125
1913,0.75390625,-0.6484375,-0.1484375
1914,0.75390625,-0.6484375,-0.140625
1915,0.76171875,-0.65234375,-0.15234375
1916,0.7578125,-0.6640625,-0.14453125
1917,0.75,-0.66015625,-0.16015625
1918,0.75,-0.6640625,-0.16015625
1919,0.73828125,-0.671875,-0.1640625
1920,0.7421875,-0.6640625,-0.15234375
1921,0.73828125,-0.6796875,-0.12890625
1922,0.71484375,-0.65625,-0.1484375
1923,0.70703125,-0.66796875,-0.1484375
1924,0.69921875,-0.67578125,-0.1328125
1925,0.6953125,-0.68359375,-0.10546875
1926,0.6953125,-0.6953125,-0.11328125
1927,0.6875,-0.6875,-0.109375
1928,0.671875,-0.69921875,-0.09765625
1929,0.68359375,-0.7109375,-0.09765625
1930,0.671875,-0.7109375,-0.07421875
1931,0.69140625,-0.72265625,-0.08984375
1932,0.67578125,-0.7109375,-0.08984375
1933,0.69921875,-0.71875,-0.09765625
1934,0.6953125,-0.72265625,-0.09765625
1935,0.70703125,-0.7265625,-0.1171875
1936,0.71484375,-0.73828125,-0.0859375
1937,0.72265625,-0.73828125,-0.1015625
1938,0.71875,-0.73046875,-0.1015625
1939,0.703125,-0.73046875,-0.08984375
1940,0.7109375,-0.7265625,-0.10546875
1941,0.703125,-0.7109375,-0.08984375
1942,0.69921875,-0.73046875,-0.1171875
1943,0.68359375,-0.71875,-0.12109375
1944,0.65625,-0.68359375,-0.15234375
1945,0.6640625,-0.71484375,-0.08984375
1946,0.66796875,-0.72265625,-0.10546875
1947,0.65625,-0.72265625,-0.109375
1948,0.64453125,-0.7421875,-0.109375
1949,0.640625,-0.734375,-0.11328125
1950,0.64453125,-0.76171875,-0.0859375
1951,0.625,-0.7734375,-0.08984375
1952,0.6171875,-0.78515625,-0.078125
1953,0.59765625,-0.796875,-0.08203125
1954,0.60546875,-0.80859375,-0.078125
1955,0.59765625,-0.8046875,-0.078125
1956,0.59375,-0.82421875,-0.078125
1957,0.57421875,-0.81640625,-0.08203125
1958,0.5703125,-0.828125,-0.0703125
1959,0.56640625,-0.828125,-0.07421875
1960,0.5703125,-0.82421875,-0.078125
1961,0.578125,-0.8203125,-0.0859375
1962,0.578125,-0.80078125,-0.0859375
1963,0.5859375,-0.82421875,-0.0859375
1964,0.6015625,-0.81640625,-0.078125
1965,0.62109375,-0.80078125,-0.10546875
1966,0.61328125,-0.8046875,-0.08203125
1967,0.62109375,-0.8125,-0.08203125
1968,0.62109375,-0.8046875,-0.0703125
1969,0.625,-0.828125,-0.06640625
1970,0.625,-0.8359375,-0.0546875
1971,0.625,-0.82421875,-0.0703125
1972,0.6171875,-0.84375,-0.0703125
1973,0.6171875,-0.83984375,-0.078125
1974,0.60546875,-0.83984375,-0.05859375
1975,0.59765625,-0.83984375,-0.06640625
1976,0.56640625,-0.84375,-0.0546875
1977,0.5546875,-0.82421875,-0.0546875
1978,0.53515625,-0.83984375,-0.05078125
1979,0.52734375,-0.82421875,-0.05859375
1980,0.5078125,-0.828125,-0.0390625
1981,0.5,-0.83203125,-0.02734375
1982,0.48828125,-0.8203125,-0.03125
1983,0.48046875,-0.82421875,-0.0234375
1984,0.48046875,-0.83203125,-0.03515625
1985,0.47265625,-0.8515625,-0.0390625
1986,0.46875,-0.84765625,-0.015625
1987,0.46875,-0.859375,-0.0234375
1988,0.48828125,-0.87109375,-0.04296875
1989,0.5,-0.8515625,-0.0234375
1990,0.50390625,-0.86328125,-0.03515625
1991,0.5234375,-0.85546875,-0.04296875
1992,0.5234375,-0.84375,-0.04296875
1993,0.53125,-0.859375,-0.0625
1994,0.5390625,-0.83984375,-0.05859375
1995,0.55078125,-0.8515625,-0.05859375
1996,0.54296875,-0.8359375,-0.0546875
1997,0.546875,-0.8515625,-0.04296875
1998,0.57421875,-0.85546875,-0.046875
1999,0.55078125,-0.85546875,-0.0390625
2000,0.5546875,-0.859375,-0.02734375
2001,0.53515625,-0.87890625,-0.0234375
2002,0.5234375,-0.87890625,-0.01171875
2003,0.5,-0.89453125,-0.01953125
2004,0.4921875,-0.90234375,0.0
2005,0.48046875,-0.91015625,0.0
2006,0.45703125,-0.9140625,-0.00390625
2007,0.44921875,-0.91015625,-0.015625
2008,0.453125,-0.88671875,-0.01953125
2009,0.453125,-0.85546875,-0.015625
2010,0.45703125,-0.84765625,-0.015625
2011,0.4765625,-0.85546875,-0.03125
2012,0.4765625,-0.8359375,-0.0234375
2013,0.48046875,-0.828125,-0.01953125
2014,0.484375,-0.81640625,-0.02734375
2015,0.5,-0.828125,-0.04296875
2016,0.50390625,-0.82421875,-0.05859375
2017,0.51953125,-0.82421875,-0.0703125
2018,0.51953125,-0.82421875,-0.0390625
2019,0.53515625,-0.8125,-0.05078125
2020,0.5234375,-0.828125,-0.02734375
2021,0.52734375,-0.83203125,0.01171875
2022,0.51953125,-0.84765625,0.0
2023,0.5078125,-0.85546875,0.015625
2024,0.5234375,-0.8671875,0.015625
2025,0.5078125,-0.87890625,0.0390625
2026,0.5078125,-0.890625,0.02734375
2027,0.4921875,-0.90234375,0.05078125
2028,0.484375,-0.91796875,0.0390625
2029,0.4921875,-0.921875,0.0390625
2030,0.46484375,-0.94140625,0.03125
2031,0.453125,-0.94921875,0.0234375
2032,0.4375,-0.953125,0.02734375
2033,0.43359375,-0.94921875,0.02734375
2034,0.421875,-0.9375,0.01953125
2035,0.42578125,-0.93359375,0.01953125
2036,0.41015625,-0.921875,0.0
2037,0.41015625,-0.9140625,0.0234375
2038,0.40234375,-0.90234375,0.00390625
2039,0.40625,-0.8671875,0.01953125
2040,0.41015625,-0.86328125,0.02734375
2041,0.39453125,-0.84765625,0.0390625
2042,0.40234375,-0.8515625,0.046875
2043,0.40625,-0.83984375,0.046875
2044,0.41015625,-0.84765625,0.06640625
2045,0.41796875,-0.8515625,0.0859375
2046,0.41796875,-0.8515625,0.07421875
2047,0.421875,-0.859375,0.07421875
2048,0.41796875,-0.8671875,0.0859375
2049,0.41796875,-0.859375,0.05859375
2050,0.421875,-0.87109375,0.07421875
2051,0.40234375,-0.85546875,0.0546875
2052,0.39453125,-0.85546875,0.0546875
2053,0.32421875,-0.83203125,-0.00390625
2054,0.375,-0.8671875,0.03515625
2055,0.3515625,-0.86328125,0.03125
2056,0.33203125,-0.859375,0.0390625
2057,0.33203125,-0.8671875,0.0234375
2058,0.3046875,-0.875,0.03515625
2059,0.3046875,-0.8828125,0.046875
2060,0.28515625,-0.88671875,0.0546875
2061,0.29296875,-0.90234375,0.04296875
2062,0.3046875,-0.91796875,0.0625
2063,0.296875,-0.9296875,0.08984375
2064,0.3203125,-0.94921875,0.08203125
2065,0.34375,-0.95703125,0.08984375
2066,0.3671875,-0.96484375,0.07421875
2067,0.37109375,-0.96484375,0.078125
2068,0.38671875,-0.96484375,0.0859375
2069,0.40234375,-0.9765625,0.09375
2070,0.39453125,-0.96875,0.09765625
2071,0.40625,-0.96875,0.1015625
2072,0.39453125,-0.96484375,0.11328125
2073,0.40234375,-0.95703125,0.109375
2074,0.3671875,-0.9375,0.09765625
2075,0.375,-0.9375,0.125
2076,0.375,-0.9453125,0.11328125
2077,0.359375,-0.9296875,0.109375
2078,0.34765625,-0.93359375,0.109375
2079,0.3359375,-0.94140625,0.11328125
2080,0.3203125,-0.94921875,0.109375
2081,0.31640625,-0.94921875,0.12890625
2082,0.28515625,-0.93359375,0.11328125
2083,0.26171875,-0.9375,0.140625
2084,0.25390625,-0.9453125,0.12109375
2085,0.23828125,-0.9375,0.1171875
2086,0.22265625,-0.9453125,0.12890625
2087,0.19140625,-0.9453125,0.12890625
2088,0.1953125,-0.95703125,0.12890625
2089,0.19140625,-0.9609375,0.12109375
2090,0.18359375,-0.95703125,0.10546875
2091,0.16796875,-0.9609375,0.1015625
2092,0.16796875,-0.95703125,0.09765625
2093,0.1796875,-0.96875,0.12109375
2094,0.19140625,-0.96484375,0.11328125
2095,0.1953125,-0.96875,0.12890625
2096,0.203125,-0.95703125,0.109375
2097,0.22265625,-0.96875,0.125
2098,0.2265625,-0.97265625,0.12890625
2099,0.2421875,-0.96875,0.1328125
2100,0.25,-0.96484375,0.1328125
2101,0.26171875,-0.97265625,0.1328125
2102,0.26953125,-0.9609375,0.125
2103,0.26953125,-0.953125,0.140625
2104,0.26953125,-0.95703125,0.140625
2105,0.2890625,-0.9609375,0.140625
2106,0.29296875,-0.953125,0.140625
2107,0.3046875,-0.9453125,0.1328125
2108,0.2890625,-0.94921875,0.13671875
2109,0.29296875,-0.9375,0.1171875
2110,0.296875,-0.9453125,0.14453125
2111,0.2890625,-0.94140625,0.12109375
2112,0.29296875,-0.92578125,0.125
2113,0.2890625,-0.94140625,0.125
2114,0.296875,-0.93359375,0.1171875
2115,0.28125,-0.9296875,0.1328125
2116,0.2734375,-0.94140625,0.11328125
2117,0.2578125,-0.92578125,0.1015625
2118,0.26171875,-0.9375,0.1015625
2119,0.25390625,-0.95703125,0.12109375
2120,0.23828125,-0.94921875,0.1171875
2121,0.23828125,-0.94140625,0.125
2122,0.23828125,-0.95703125,0.125
2123,0.2265625,-0.95703125,0.1015625
2124,0.23046875,-0.95703125,0.1171875
2125,0.22265625,-0.9453125,0.1015625
2126,0.2265625,-0.953125,0.1015625
2127,0.21875,-0.96484375,0.09765625
2128,0.22265625,-0.95703125,0.11328125
2129,0.20703125,-0.953125,0.11328125
2130,0.21484375,-0.97265625,0.1171875
2131,0.21484375,-0.97265625,0.1015625
2132,0.20703125,-0.9765625,0.109375
2133,0.1953125,-0.96875,0.10546875
2134,0.1875,-0.98828125,0.10546875
2135,0.19921875,-0.98828125,0.109375
2136,0.18359375,-0.98828125,0.12109375
2137,0.15625,-0.97265625,0.12890625
2138,0.1796875,-0.9765625,0.11328125
2139,0.1875,-0.984375,0.11328125
2140,0.13671875,-0.98046875,0.14453125
2141,0.171875,-0.98828125,0.10546875
2142,0.16015625,-0.9921875,0.10546875
2143,0.14453125,-0.984375,0.08984375
2144,0.14453125,-0.98828125,0.09375
2145,0.15234375,-0.98046875,0.10546875
2146,0.1484375,-0.97265625,0.1015625
2147,0.1484375,-0.98046875,0.10546875
2148,0.13671875,-0.9765625,0.1015625
2149,0.13671875,-0.9765625,0.11328125
2150,0.12890625,-0.98046875,0.10546875
2151,0.12890625,-0.98828125,0.10546875
2152,0.13671875,-1.0,0.09375
2153,0.125,-0.98828125,0.09765625
2154,0.12109375,-0.98828125,0.09765625
2155,0.12109375,-0.9921875,0.078125
2156,0.109375,-0.9921875,0.09375
2157,0.1015625,-1.015625,0.08984375
2158,0.09765625,-0.99609375,0.0859375
2159,0.10546875,-1.0,0.09765625
2160,0.09375,-1.01171875,0.1015625
2161,0.08203125,-1.01953125,0.109375
2162,0.08984375,-1.00390625,0.12109375
2163,0.07421875,-1.00390625,0.1015625
2164,0.06640625,-0.99609375,0.10546875
2165,0.0625,-0.99609375,0.09375
2166,0.05859375,-0.9921875,0.09765625
2167,0.0546875,-0.98828125,0.09765625
2168,0.046875,-0.99609375,0.1015625
2169,0.0546875,-0.98828125,0.10546875
2170,0.0390625,-1.00390625,0.109375
2171,0.01171875,-0.99609375,0.08984375
2172,0.01171875,-1.01171875,0.11328125
2173,0.00390625,-1.01953125,0.13671875
2174,0.00390625,-1.0234375,0.13671875
2175,0.0,-1.0234375,0.1328125
2176,-0.0078125,-1.03125,0.1328125
2177,0.0,-1.03125,0.14453125
2178,-0.01953125,-1.0390625,0.125
2179,-0.0234375,-1.01953125,0.1484375
2180,-0.00390625,-1.02734375,0.14453125
2181,-0.00390625,-1.0234375,0.140625
2182,-0.015625,-1.015625,0.16015625
2183,-0.0078125,-1.0078125,0.15625
2184,-0.01171875,-0.99609375,0.1484375
2185,-0.00390625,-1.0,0.1640625
2186,0.0,-1.0,0.15625
2187,0.0,-0.98046875,0.1484375
2188,0.0078125,-0.97265625,0.16015625
2189,0.00390625,-0.96484375,0.15625
2190,0.00390625,-0.97265625,0.16015625
2191,0.0,-0.9609375,0.1640625
2192,0.00390625,-0.9765625,0.15625
2193,0.0,-0.97265625,0.171875
2194,0.0,-0.97265625,0.1640625
2195,-0.01171875,-0.98046875,0.1640625
2196,-0.03125,-0.9765625,0.16796875
2197,-0.02734375,-0.9921875,0.1640625
2198,-0.03515625,-0.984375,0.1796875
2199,-0.0625,-0.99609375,0.17578125
2200,-0.08203125,-0.99609375,0.1875
2201,-0.09375,-1.0,0.19921875
2202,-0.0859375,-1.00390625,0.18359375
2203,-0.1015625,-1.015625,0.1953125
2204,-0.1015625,-1.0078125,0.1953125
2205,-0.10546875,-1.00390625,0.1953125
2206,-0.11328125,-1.0078125,0.203125
2207,-0.1171875,-1.0078125,0.1953125
2208,-0.125,-0.99609375,0.18359375
2209,-0.11328125,-0.99609375,0.1953125
2210,-0.1015625,-0.98828125,0.1953125
2211,-0.10546875,-0.97265625,0.1953125
2212,-0.10546875,-0.97265625,0.19921875
2213,-0.1015625,-0.9765625,0.19921875
2214,-0.09765625,-0.97265625,0.2109375
2215,-0.09375,-0.9609375,0.19140625
2216,-0.09375,-0.95703125,0.2109375
2217,-0.07421875,-0.94921875,0.1796875
2218,-0.08984375,-0.94140625,0.19140625
2219,-0.0703125,-0.92578125,0.203125
2220,-0.078125,-0.93359375,0.1796875
2221,-0.06640625,-0.9296875,0.17578125
2222,-0.08984375,-0.9140625,0.17578125
2223,-0.07421875,-0.93359375,0.17578125
2224,-0.05078125,-0.94140625,0.1796875
2225,-0.0625,-0.953125,0.1796875
2226,-0.06640625,-0.9609375,0.1953125
2227,-0.0546875,-0.9609375,0.19921875
2228,-0.0703125,-0.9765625,0.203125
2229,-0.046875,-0.98046875,0.20703125
2230,-0.046875,-0.99609375,0.20703125
2231,-0.046875,-1.0078125,0.20703125
2232,-0.0625,-1.0078125,0.23046875
2233,-0.0625,-1.0078125,0.22265625
2234,-0.05078125,-1.01953125,0.21484375
2235,-0.05859375,-1.00390625,0.203125
2236,-0.05859375,-1.0,0.203125
2237,-0.05078125,-0.99609375,0.20703125
2238,-0.05078125,-0.984375,0.1875
2239,-0.046875,-0.97265625,0.1953125
2240,-0.0546875,-0.96484375,0.203125
2241,-0.05078125,-0.95703125,0.19921875
2242,-0.06640625,-0.9453125,0.19140625
2243,-0.0625,-0.94140625,0.19921875
2244,-0.06640625,-0.9375,0.203125
2245,-0.0703125,-0.921875,0.1875
2246,-0.06640625,-0.9375,0.203125
2247,-0.06640625,-0.93359375,0.19921875
2248,-0.0703125,-0.9453125,0.2265625
2249,-0.0625,-0.9375,0.203125
2250,-0.0703125,-0.94921875,0.2109375
2251,-0.0625,-0.95703125,0.1875
2252,-0.0703125,-0.94921875,0.1875
2253,-0.0703125,-0.95703125,0.19140625
2254,-0.078125,-0.96484375,0.1953125
2255,-0.078125,-0.96484375,0.19140625
2256,-0.0703125,-0.96875,0.19140625
2257,-0.078125,-0.9609375,0.19140625
2258,-0.0703125,-0.953125,0.1875
2259,-0.078125,-0.96484375,0.203125
2260,-0.0859375,-0.96484375,0.18359375
2261,-0.08984375,-0.95703125,0.17578125
2262,-0.0859375,-0.9609375,0.171875
2263,-0.078125,-0.9609375,0.17578125
2264,-0.07421875,-0.95703125,0.1640625
2265,-0.06640625,-0.96875,0.1640625
2266,-0.06640625,-0.96875,0.16796875
2267,-0.07421875,-0.97265625,0.171875
2268,-0.07421875,-0.97265625,0.1640625
2269,-0.078125,-0.9765625,0.15625
2270,-0.07421875,-0.98046875,0.16796875
2271,-0.06640625,-0.9921875,0.16796875
2272,-0.0546875,-0.98828125,0.171875
2273,-0.05859375,-0.9921875,0.16015625
2274,-0.0390625,-1.0,0.171875
2275,-0.046875,-0.99609375,0.15625
2276,-0.03125,-1.0078125,0.15625
2277,-0.0234375,-1.02734375,0.15625
2278,0.0,-1.01953125,0.16015625
2279,0.00390625,-1.01171875,0.1640625
2280,0.00390625,-1.0234375,0.15625
2281,0.0078125,-1.0234375,0.16796875
2282,0.01953125,-1.015625,0.15234375
2283,0.02734375,-1.0234375,0.15625
2284,0.01953125,-1.00390625,0.171875
2285,0.0234375,-1.00390625,0.1640625
2286,0.02734375,-0.9921875,0.16796875
2287,0.03125,-0.99609375,0.16796875
2288,0.02734375,-0.98828125,0.1640625
2289,0.015625,-0.9765625,0.16015625
2290,0.0234375,-0.98828125,0.171875
2291,0.01171875,-0.9765625,0.15234375
2292,0.03125,-0.96875,0.171875
2293,0.01953125,-0.9765625,0.1640625
2294,0.015625,-0.97265625,0.1640625
2295,0.0234375,-0.9765625,0.16796875
2296,0.01953125,-0.98046875,0.16796875
2297,0.0078125,-0.9765625,0.15625
2298,0.01171875,-0.984375,0.16015625
2299,0.00390625,-0.97265625,0.171875
2300,0.015625,-0.97265625,0.171875
2301,0.01171875,-0.9765625,0.16796875
2302,0.01171875,-0.97265625,0.171875
2303,0.01171875,-0.97265625,0.16796875
2304,0.01953125,-0.9921875,0.17578125
2305,0.015625,-0.97265625,0.171875
2306,0.0078125,-0.9765625,0.17578125
2307,0.015625,-0.96875,0.16796875
2308,0.01953125,-0.97265625,0.16796875
2309,0.015625,-0.96484375,0.171875
2310,0.0078125,-0.96875,0.1640625
2311,0.01953125,-0.96484375,0.1640625
2312,0.0078125,-0.96875,0.14453125
2313,0.015625,-0.98046875,0.16015625
2314,0.0078125,-0.98046875,0.15234375
2315,0.0078125,-0.98828125,0.1640625
2316,0.01171875,-0.9921875,0.16015625
2317,0.0,-0.9921875,0.1640625
2318,0.0,-0.99609375,0.16015625
2319,0.00390625,-1.0078125,0.171875
2320,0.0,-1.00390625,0.16796875
2321,0.00390625,-1.00390625,0.16796875
2322,0.015625,-1.0,0.16796875
2323,0.00390625,-0.99609375,0.171875
2324,0.0078125,-1.0078125,0.16796875
2325,0.0,-0.99609375,0.16796875
2326,0.0,-0.9921875,0.1640625
2327,-0.0078125,-0.9921875,0.16015625
2328,-0.0078125,-0.97265625,0.16015625
2329,-0.01171875,-0.9765625,0.1640625
2330,-0.00390625,-0.984375,0.1640625
2331,-0.015625,-0.9765625,0.1484375
2332,-0.00390625,-0.9765625,0.15625
2333,-0.01953125,-0.96875,0.15234375
2334,-0.0078125,-0.97265625,0.16015625
2335,0.00390625,-0.96875,0.140625
2336,-0.0078125,-0.97265625,0.15234375
2337,-0.0078125,-0.96875,0.1640625
2338,-0.015625,-0.97265625,0.1484375
2339,-0.01953125,-0.97265625,0.1484375
2340,-0.01171875,-0.97265625,0.16015625
2341,-0.015625,-0.9609375,0.15234375
2342,-0.0078125,-0.9765625,0.1484375
2343,-0.0078125,-0.984375,0.15234375
2344,-0.015625,-0.98046875,0.1484375
2345,-0.0078125,-0.9765625,0.15234375
2346,-0.00390625,-0.97265625,0.1484375
2347,-0.01171875,-0.97265625,0.15625
2348,-0.0078125,-0.98046875,0.171875
2349,-0.01171875,-0.97265625,0.16796875
2350,-0.01171875,-0.98046875,0.1640625
2351,-0.0078125,-0.984375,0.15234375
2352,-0.01171875,-0.98046875,0.1484375
2353,0.0,-0.984375,0.14453125
2354,0.0,-0.98828125,0.1484375
2355,0.00390625,-0.98046875,0.14453125
2356,0.00390625,-0.984375,0.14453125
2357,0.015625,-0.9921875,0.19140625
2358,0.01171875,-0.9921875,0.140625
2359,0.0,-0.99609375,0.1484375
2360,0.00390625,-1.01171875,0.1484375
2361,0.0,-1.015625,0.14453125
2362,0.00390625,-1.015625,0.1484375
2363,0.0,-1.0234375,0.140625
2364,0.0078125,-1.01953125,0.15234375
2365,-0.015625,-1.0078125,0.1484375
2366,-0.0078125,-1.00390625,0.15625
2367,0.0,-1.0,0.15625
2368,0.00390625,-0.9921875,0.1484375
2369,-0.00390625,-0.98828125,0.16796875
2370,0.0,-0.98828125,0.14453125
2371,0.0,-0.984375,0.15234375
2372,0.0,-0.984375,0.15234375
2373,-0.00390625,-0.97265625,0.1484375
2374,0.0,-0.98828125,0.140625
2375,0.0,-0.96875,0.14453125
2376,-0.00390625,-0.9765625,0.15234375
2377,0.0,-0.98046875,0.13671875
2378,0.0234375,-0.9921875,0.16015625
2379,0.0,-0.97265625,0.15625
2380,0.0,-0.9765625,0.1484375
2381,0.0,-0.98046875,0.1328125
2382,0.0,-0.984375,0.140625
2383,0.0,-0.9765625,0.13671875
2384,0.0078125,-1.0,0.1328125
2385,0.0,-0.984375,0.13671875
2386,0.0078125,-0.99609375,0.14453125
2387,0.00390625,-0.9921875,0.1484375
2388,0.0078125,-1.0,0.13671875
2389,0.00390625,-0.99609375,0.1328125
2390,0.0078125,-0.984375,0.140625
2391,0.00390625,-0.984375,0.14453125
2392,0.00390625,-0.984375,0.1484375
2393,0.00390625,-0.9765625,0.15625
2394,0.00390625,-0.97265625,0.1484375
2395,0.00390625,-0.98828125,0.15625
2396,0.0,-0.97265625,0.1640625
2397,0.0,-0.9921875,0.15234375
2398,0.00390625,-0.98046875,0.1484375
2399,0.00390625,-0.984375,0.16015625
