,accelerometerAccelerationX(G),accelerometerAccelerationY(G),accelerometerAccelerationZ(G)
0,-0.046875,-1.0,-0.0703125
1,-0.04296875,-1.00390625,-0.078125
2,-0.03125,-1.0,-0.078125
3,-0.0390625,-0.9921875,-0.0703125
4,-0.0390625,-1.00390625,-0.07421875
5,-0.03125,-0.984375,-0.109375
6,-0.0234375,-0.984375,-0.07421875
7,-0.0390625,-0.984375,-0.078125
8,-0.03515625,-0.98828125,-0.078125
9,-0.02734375,-0.9921875,-0.078125
10,-0.02734375,-1.0,-0.0859375
11,-0.03515625,-1.0078125,-0.08203125
12,-0.03125,-1.01171875,-0.0859375
13,-0.03125,-1.00390625,-0.078125
14,-0.0234375,-1.0,-0.0703125
15,0.0,-1.01171875,-0.09765625
16,-0.02734375,-0.99609375,-0.06640625
17,-0.01953125,-1.00390625,-0.0703125
18,-0.0234375,-0.98828125,-0.07421875
19,-0.01953125,-1.00390625,-0.07421875
20,-0.02734375,-0.9921875,-0.07421875
21,-0.02734375,-0.98828125,-0.07421875
22,-0.0078125,-0.99609375,-0.06640625
23,-0.015625,-0.98828125,-0.0625
24,-0.01953125,-1.0,-0.07421875
25,-0.01953125,-1.0,-0.08203125
26,-0.015625,-1.00390625,-0.05859375
27,-0.0078125,-1.00390625,-0.0625
28,-0.03125,-1.00390625,-0.07421875
29,-0.01171875,-1.00390625,-0.07421875
30,-0.0078125,-1.0,-0.07421875
31,-0.0390625,-0.99609375,-0.0625
32,-0.01953125,-1.0,-0.07421875
33,-0.0234375,-1.0,-0.078125
34,-0.0234375,-0.9921875,-0.078125
35,-0.02734375,-0.99609375,-0.07421875
36,-0.03125,-0.984375,-0.0546875
37,-0.01953125,-0.9921875,-0.08203125
38,-0.02734375,-1.0,-0.07421875
39,-0.03515625,-0.98828125,-0.0703125
40,-0.03125,-0.9921875,-0.078125
41,-0.0234375,-0.99609375,-0.05859375
42,-0.0234375,-1.00390625,-0.078125
43,-0.02734375,-1.0078125,-0.06640625
44,-0.01171875,-1.0,-0.05859375
45,-0.01953125,-1.0,-0.06640625
46,-0.02734375,-0.99609375,-0.07421875
47,-0.03125,-1.0,-0.06640625
48,-0.02734375,-0.9921875,-0.08203125
49,-0.03515625,-0.98828125,-0.06640625
50,-0.0234375,-1.01171875,-0.07421875
51,-0.03125,-0.99609375,-0.0703125
52,-0.03125,-1.00390625,-0.07421875
53,-0.03515625,-1.0,-0.0703125
54,-0.03125,-1.01171875,-0.07421875
55,-0.03515625,-1.0,-0.06640625
56,-0.03125,-0.99609375,-0.07421875
57,-0.0390625,-0.98828125,-0.0625
58,-0.04296875,-0.99609375,-0.0703125
59,-0.03125,-1.0390625,-0.0703125
60,-0.03125,-1.0,-0.0625
61,-0.03515625,-0.99609375,-0.0546875
62,-0.0390625,-0.99609375,-0.07421875
63,-0.0390625,-1.0,-0.07421875
64,-0.04296875,-1.0078125,-0.05859375
65,-0.046875,-1.00390625,-0.06640625
66,-0.0390625,-1.0,-0.06640625
67,-0.046875,-1.0078125,-0.0625
68,-0.04296875,-1.00390625,-0.07421875
69,-0.03125,-1.00390625,-0.05859375
70,-0.0390625,-0.9921875,-0.08203125
71,-0.03125,-0.9921875,-0.07421875
72,-0.03125,-0.99609375,-0.05859375
73,-0.046875,-1.0078125,-0.0625
74,-0.03125,-0.99609375,-0.07421875
75,-0.0390625,-0.99609375,-0.07421875
76,-0.046875,-0.984375,-0.07421875
77,-0.03515625,-0.9921875,-0.0703125
78,-0.03515625,-1.0,-0.07421875
79,-0.04296875,-1.00390625,-0.0703125
80,-0.02734375,-0.98828125,-0.0703125
81,-0.0234375,-0.98828125,-0.05859375
82,-0.03515625,-0.9921875,-0.0703125
83,-0.0390625,-0.98046875,-0.0625
84,-0.0390625,-0.9921875,-0.07421875
85,-0.03515625,-0.98828125,-0.0625
86,-0.03515625,-0.99609375,-0.06640625
87,-0.04296875,-0.98828125,-0.06640625
88,-0.03125,-1.00390625,-0.0703125
89,-0.04296875,-0.99609375,-0.06640625
90,-0.046875,-0.9921875,-0.0703125
91,-0.03515625,-1.01171875,-0.05859375
92,-0.0390625,-1.0078125,-0.06640625
93,-0.03125,-1.01953125,-0.06640625
94,-0.03515625,-1.015625,-0.078125
95,-0.0390625,-1.0078125,-0.0703125
96,-0.03125,-1.0078125,-0.07421875
97,-0.0390625,-1.0,-0.0703125
98,-0.0390625,-0.98828125,-0.07421875
99,-0.04296875,-0.984375,-0.05859375
100,-0.03515625,-0.99609375,-0.078125
101,-0.03125,-1.0,-0.07421875
102,-0.05078125,-1.01171875,-0.07421875
103,-0.03515625,-0.9921875,-0.078125
104,-0.03515625,-0.984375,-0.05859375
105,-0.01953125,-0.98046875,-0.07421875
106,-0.0234375,-0.9921875,-0.06640625
107,-0.03125,-0.98046875,-0.07421875
108,-0.02734375,-0.98828125,-0.08203125
109,-0.01953125,-0.98828125,-0.07421875
110,-0.01953125,-0.9921875,-0.07421875
111,-0.015625,-1.00390625,-0.07421875
112,-0.01953125,-1.0,-0.08203125
113,-0.0234375,-1.0,-0.06640625
114,-0.03515625,-1.0,-0.078125
115,-0.0234375,-1.01953125,-0.07421875
116,-0.015625,-1.015625,-0.0703125
117,-0.02734375,-1.0078125,-0.07421875
118,-0.02734375,-1.0078125,-0.078125
119,-0.0390625,-1.0,-0.07421875
120,-0.01953125,-1.0,-0.08203125
121,-0.03125,-1.00390625,-0.07421875
122,-0.02734375,-1.0078125,-0.0703125
123,-0.01953125,-1.00390625,-0.0625
124,-0.03125,-0.98828125,-0.078125
125,-0.00390625,-0.99609375,-0.0703125
126,-0.01953125,-1.0078125,-0.07421875
127,-0.0078125,-1.00390625,-0.07421875
128,0.0,-1.01171875,-0.078125
129,-0.01171875,-0.99609375,-0.078125
130,-0.02734375,-1.0,-0.0859375
131,-0.01953125,-0.9921875,-0.08984375
132,-0.01171875,-1.01171875,-0.08203125
133,-0.02734375,-1.0,-0.0859375
134,-0.03515625,-0.98828125,-0.078125
135,-0.01953125,-1.00390625,-0.08984375
136,-0.03515625,-0.9921875,-0.07421875
137,-0.0234375,-0.9921875,-0.078125
138,-0.03125,-0.98828125,-0.0859375
139,-0.02734375,-1.0,-0.08984375
140,-0.03125,-0.99609375,-0.0859375
141,-0.0234375,-1.00390625,-0.078125
142,-0.03125,-1.0078125,-0.078125
143,-0.04296875,-1.0,-0.07421875
144,-0.03125,-0.98828125,-0.09375
145,-0.0234375,-0.9921875,-0.0703125
146,-0.0234375,-0.9921875,-0.0859375
147,-0.03515625,-1.00390625,-0.09765625
148,-0.0390625,-0.9921875,-0.08203125
149,-0.0234375,-1.0,-0.09765625
150,-0.03125,-0.984375,-0.08984375
151,-0.0390625,-1.0,-0.09375
152,-0.01953125,-0.98828125,-0.09765625
153,-0.02734375,-0.984375,-0.1015625
154,-0.03515625,-1.01171875,-0.08984375
155,-0.04296875,-1.00390625,-0.0859375
156,-0.03515625,-1.00390625,-0.078125
157,-0.03515625,-1.0,-0.1171875
158,-0.03515625,-1.0,-0.078125
159,-0.03125,-1.0078125,-0.08984375
160,-0.02734375,-0.9921875,-0.07421875
161,-0.0390625,-1.0078125,-0.0859375
162,-0.0234375,-1.0078125,-0.08984375
163,-0.0234375,-1.0078125,-0.09375
164,-0.05078125,-0.99609375,-0.0859375
165,-0.02734375,-0.98046875,-0.0859375
166,-0.0234375,-1.00390625,-0.08984375
167,-0.0234375,-0.99609375,-0.08984375
168,-0.0625,-0.99609375,-0.078125
169,-0.0390625,-0.98828125,-0.09765625
170,-0.0390625,-0.984375,-0.0859375
171,-0.03515625,-0.99609375,-0.09375
172,-0.046875,-0.98828125,-0.0859375
173,-0.0390625,-0.9921875,-0.0859375
174,-0.04296875,-0.99609375,-0.1015625
175,-0.03125,-0.9921875,-0.08984375
176,-0.0390625,-0.99609375,-0.1015625
177,-0.015625,-0.984375,-0.10546875
178,-0.0390625,-0.98828125,-0.08203125
179,-0.0234375,-1.0,-0.0859375
180,-0.02734375,-0.984375,-0.08203125
181,-0.03515625,-1.0,-0.08203125
182,-0.015625,-0.9921875,-0.08984375
183,-0.02734375,-1.0,-0.08203125
184,-0.0234375,-0.99609375,-0.08203125
185,-0.0234375,-1.0078125,-0.0859375
186,-0.02734375,-0.98046875,-0.08984375
187,-0.04296875,-1.00390625,-0.1015625
188,-0.0234375,-1.00390625,-0.09765625
189,-0.0234375,-0.9921875,-0.09765625
190,-0.03515625,-0.98828125,-0.09375
191,-0.03515625,-0.98828125,-0.0859375
192,-0.03515625,-0.9921875,-0.08203125
193,-0.03125,-0.98828125,-0.1015625
194,-0.03515625,-1.0,-0.09375
195,-0.03125,-0.9921875,-0.10546875
196,-0.03515625,-0.98828125,-0.09765625
197,-0.03515625,-1.00390625,-0.09375
198,-0.03515625,-0.99609375,-0.09375
199,-0.03125,-0.99609375,-0.1015625
200,-0.0390625,-0.99609375,-0.09375
201,-0.04296875,-0.98828125,-0.1015625
202,-0.0390625,-1.0,-0.09765625
203,-0.04296875,-0.9921875,-0.09765625
204,-0.03515625,-0.98828125,-0.08984375
205,-0.0234375,-0.98828125,-0.09375
206,-0.03125,-0.99609375,-0.11328125
207,-0.03125,-1.00390625,-0.10546875
208,-0.02734375,-1.0,-0.109375
209,-0.02734375,-0.98828125,-0.109375
210,-0.0234375,-0.9921875,-0.10546875
211,-0.02734375,-1.00390625,-0.06640625
212,-0.0234375,-1.00390625,-0.10546875
213,-0.03515625,-0.9921875,-0.1171875
214,-0.03515625,-1.0078125,-0.09375
215,-0.04296875,-1.0,-0.11328125
216,-0.03125,-1.0,-0.09765625
217,-0.03515625,-0.99609375,-0.109375
218,-0.02734375,-1.0078125,-0.1171875
219,-0.0390625,-0.98828125,-0.1015625
220,-0.01171875,-0.99609375,-0.10546875
221,-0.0390625,-1.00390625,-0.109375
222,-0.03125,-1.00390625,-0.10546875
223,-0.02734375,-1.00390625,-0.1015625
224,-0.03515625,-1.00390625,-0.09765625
225,-0.02734375,-1.0078125,-0.109375
226,-0.03515625,-0.9921875,-0.10546875
227,-0.01953125,-1.01171875,-0.12109375
228,-0.02734375,-1.0234375,-0.09375
229,-0.03125,-1.01171875,-0.109375
230,-0.01953125,-1.00390625,-0.09375
231,-0.03515625,-0.99609375,-0.1171875
232,-0.0234375,-0.99609375,-0.109375
233,-0.04296875,-1.0078125,-0.09765625
234,-0.0234375,-1.01171875,-0.09765625
235,-0.03125,-0.99609375,-0.11328125
236,-0.02734375,-0.9921875,-0.11328125
237,-0.01171875,-0.99609375,-0.125
238,-0.01953125,-1.0,-0.11328125
239,-0.02734375,-0.99609375,-0.109375
240,-0.0234375,-1.00390625,-0.09765625
241,-0.0390625,-1.0,-0.09375
242,-0.04296875,-0.99609375,-0.1015625
243,-0.0390625,-0.98828125,-0.109375
244,-0.03125,-0.984375,-0.1015625
245,-0.03515625,-0.9921875,-0.109375
246,-0.02734375,-0.99609375,-0.1015625
247,-0.0234375,-0.9921875,-0.1015625
248,-0.03515625,-0.98046875,-0.109375
249,-0.02734375,-0.9921875,-0.1171875
250,-0.0390625,-0.9921875,-0.11328125
251,-0.03125,-1.00390625,-0.109375
252,-0.03515625,-0.98828125,-0.10546875
253,-0.05078125,-0.99609375,-0.11328125
254,-0.03125,-0.99609375,-0.12109375
255,-0.04296875,-0.99609375,-0.12109375
256,-0.03515625,-0.9921875,-0.1015625
257,-0.03125,-0.99609375,-0.11328125
258,-0.03515625,-0.99609375,-0.109375
259,-0.03125,-1.0078125,-0.11328125
260,-0.03125,-1.0,-0.1171875
261,-0.03515625,-0.9921875,-0.09375
262,-0.046875,-0.98828125,-0.1015625
263,-0.0390625,-0.98828125,-0.1015625
264,-0.0234375,-0.984375,-0.1328125
265,-0.03125,-1.0,-0.1171875
266,-0.03125,-0.99609375,-0.1171875
267,-0.03125,-0.99609375,-0.11328125
268,-0.03125,-0.9921875,-0.10546875
269,-0.03125,-1.00390625,-0.125
270,-0.03125,-1.0078125,-0.1171875
271,-0.03125,-1.01953125,-0.109375
272,-0.03515625,-1.015625,-0.1015625
273,-0.0234375,-1.00390625,-0.12109375
274,-0.03515625,-1.00390625,-0.11328125
275,-0.03125,-0.99609375,-0.109375
276,-0.0546875,-0.9921875,-0.12890625
277,-0.03125,-1.0,-0.10546875
278,-0.03125,-0.98046875,-0.09765625
279,-0.04296875,-0.98828125,-0.109375
280,-0.03125,-0.9921875,-0.10546875
281,-0.03515625,-1.0,-0.1015625
282,-0.03515625,-1.01171875,-0.09375
283,-0.0390625,-0.99609375,-0.09765625
284,-0.03125,-1.0,-0.125
285,-0.03515625,-1.0,-0.11328125
286,-0.0390625,-0.98828125,-0.09765625
287,-0.04296875,-0.984375,-0.1015625
288,-0.0390625,-0.98828125,-0.109375
289,-0.04296875,-0.98828125,-0.1015625
290,-0.03515625,-0.99609375,-0.09375
291,-0.03125,-0.98828125,-0.10546875
292,-0.03515625,-0.98828125,-0.09375
293,-0.046875,-0.98046875,-0.11328125
294,-0.0390625,-0.98828125,-0.09375
295,-0.046875,-0.9921875,-0.109375
296,-0.04296875,-0.98828125,-0.09765625
297,-0.04296875,-1.0,-0.1015625
298,-0.03515625,-0.984375,-0.09375
299,-0.0390625,-1.0,-0.109375
300,-0.046875,-0.99609375,-0.1015625
301,-0.02734375,-1.01171875,-0.1171875
302,-0.03515625,-1.0078125,-0.1015625
303,-0.0390625,-1.0,-0.109375
304,-0.03125,-1.00390625,-0.10546875
305,-0.046875,-1.0,-0.1015625
306,-0.02734375,-1.00390625,-0.09375
307,-0.046875,-0.9921875,-0.09375
308,-0.03125,-0.9921875,-0.11328125
309,-0.0390625,-0.99609375,-0.11328125
310,-0.01953125,-1.0,-0.11328125
311,-0.03125,-1.0,-0.109375
312,-0.03515625,-0.98828125,-0.10546875
313,-0.03515625,-0.9921875,-0.11328125
314,-0.01953125,-0.98828125,-0.11328125
315,-0.03125,-1.00390625,-0.08203125
316,-0.03125,-0.99609375,-0.109375
317,-0.0390625,-1.00390625,-0.09375
318,-0.04296875,-1.00390625,-0.09765625
319,-0.03125,-1.01171875,-0.11328125
320,-0.01953125,-1.00390625,-0.08984375
321,-0.04296875,-1.0,-0.09375
322,-0.04296875,-0.9921875,-0.08984375
323,-0.02734375,-1.0,-0.10546875
324,-0.03515625,-0.99609375,-0.109375
325,-0.03125,-0.98828125,-0.1015625
326,-0.01953125,-0.98828125,-0.09375
327,-0.0390625,-0.98828125,-0.0859375
328,-0.03515625,-1.0,-0.11328125
329,-0.01953125,-1.00390625,-0.09765625
330,-0.03515625,-1.0078125,-0.09765625
331,-0.02734375,-1.01171875,-0.109375
332,-0.0390625,-1.0,-0.109375
333,-0.03125,-1.0,-0.09765625
334,-0.03515625,-1.0078125,-0.1015625
335,-0.03125,-1.00390625,-0.09375
336,-0.0234375,-1.0078125,-0.10546875
337,-0.02734375,-1.0,-0.08984375
338,-0.03515625,-1.0,-0.08984375
339,-0.03125,-1.0,-0.0859375
340,-0.04296875,-0.99609375,-0.109375
341,-0.04296875,-1.00390625,-0.10546875
342,-0.0546875,-0.984375,-0.1015625
343,-0.03515625,-1.00390625,-0.1015625
344,-0.046875,-1.0,-0.12109375
345,-0.04296875,-1.0078125,-0.10546875
346,-0.04296875,-1.0,-0.09765625
347,-0.0390625,-0.984375,-0.1015625
348,-0.03515625,-0.99609375,-0.10546875
349,-0.0234375,-0.99609375,-0.1015625
350,-0.0390625,-0.9921875,-0.109375
351,-0.03515625,-1.0,-0.11328125
352,-0.03515625,-0.98828125,-0.10546875
353,-0.046875,-1.00390625,-0.11328125
354,-0.03515625,-0.98828125,-0.10546875
355,-0.0390625,-0.99609375,-0.1015625
356,-0.05078125,-0.99609375,-0.1015625
357,-0.046875,-0.9921875,-0.09765625
358,-0.03515625,-1.01171875,-0.09375
359,-0.04296875,-1.0078125,-0.08203125
360,-0.04296875,-1.0,-0.1015625
361,-0.03515625,-1.00390625,-0.1015625
362,-0.0390625,-1.0,-0.1015625
363,-0.03125,-1.015625,-0.13671875
364,-0.046875,-0.9921875,-0.08203125
365,-0.0390625,-0.984375,-0.078125
366,-0.04296875,-0.99609375,-0.09375
367,-0.05078125,-0.98046875,-0.10546875
368,-0.02734375,-0.99609375,-0.1015625
369,-0.0390625,-1.0,-0.0859375
370,-0.03125,-1.0,-0.109375
371,-0.0390625,-0.9921875,-0.1015625
372,-0.0234375,-1.0,-0.11328125
373,-0.0390625,-1.00390625,-0.1015625
374,-0.03515625,-1.0,-0.09375
375,-0.03515625,-0.98828125,-0.1015625
376,-0.04296875,-0.9921875,-0.0859375
377,-0.04296875,-1.0,-0.08984375
378,-0.046875,-1.0,-0.08984375
379,-0.03515625,-0.99609375,-0.08984375
380,-0.03125,-0.99609375,-0.0859375
381,-0.0234375,-0.9921875,-0.10546875
382,-0.03125,-1.0,-0.09375
383,-0.046875,-0.98828125,-0.08203125
384,-0.0390625,-0.9921875,-0.08984375
385,-0.03125,-0.99609375,-0.08984375
386,-0.02734375,-0.98828125,-0.09765625
387,-0.0390625,-0.9921875,-0.078125
388,-0.02734375,-0.99609375,-0.08203125
389,-0.03125,-1.00390625,-0.0859375
390,-0.02734375,-0.99609375,-0.0859375
391,-0.02734375,-1.00390625,-0.08984375
392,-0.0390625,-0.99609375,-0.08984375
393,-0.03125,-0.99609375,-0.078125
394,-0.02734375,-1.00390625,-0.09375
395,-0.046875,-0.98828125,-0.09375
396,-0.03125,-1.00390625,-0.08984375
397,-0.0390625,-0.99609375,-0.09765625
398,-0.02734375,-0.99609375,-0.078125
399,-0.04296875,-0.984375,-0.078125
400,-0.02734375,-0.99609375,-0.078125
401,-0.0390625,-1.01171875,-0.08984375
402,-0.03125,-0.99609375,-0.0859375
403,-0.03515625,-0.98828125,-0.08203125
404,-0.0390625,-0.99609375,-0.07421875
405,-0.0390625,-0.99609375,-0.078125
406,-0.03125,-1.0,-0.078125
407,-0.0390625,-1.0,-0.08203125
408,-0.03515625,-1.0,-0.08984375
409,-0.01953125,-0.98828125,-0.078125
410,-0.03125,-0.984375,-0.0859375
411,-0.015625,-0.9921875,-0.0859375
412,-0.03515625,-0.984375,-0.09375
413,-0.03125,-1.0,-0.08984375
414,-0.03125,-0.98828125,-0.09375
415,-0.03125,-0.99609375,-0.08203125
416,-0.03515625,-1.0078125,-0.08984375
417,-0.03515625,-1.0,-0.08984375
418,-0.0234375,-1.0078125,-0.078125
419,-0.03515625,-1.0078125,-0.09375
420,-0.02734375,-1.0078125,-0.06640625
421,-0.03125,-0.99609375,-0.08203125
422,-0.02734375,-1.01171875,-0.07421875
423,-0.0234375,-1.0078125,-0.07421875
424,-0.03515625,-1.0,-0.0859375
425,-0.02734375,-0.99609375,-0.0703125
426,-0.0234375,-0.9921875,-0.0859375
427,-0.03125,-0.99609375,-0.078125
428,-0.03515625,-0.99609375,-0.06640625
429,-0.0390625,-0.98828125,-0.078125
430,-0.02734375,-1.0,-0.078125
431,-0.0390625,-0.98828125,-0.078125
432,-0.0390625,-0.99609375,-0.08984375
433,-0.03125,-1.0,-0.078125
434,-0.03515625,-0.99609375,-0.078125
435,-0.02734375,-1.00390625,-0.08984375
436,-0.0390625,-0.99609375,-0.08203125
437,-0.0390625,-0.9921875,-0.078125
438,-0.0390625,-1.00390625,-0.0703125
439,-0.0390625,-1.01171875,-0.08984375
440,-0.03515625,-0.9921875,-0.08984375
441,-0.03515625,-1.0078125,-0.0859375
442,-0.03515625,-0.9921875,-0.0859375
443,-0.02734375,-1.0,-0.08203125
444,-0.03515625,-1.0078125,-0.0859375
445,-0.03125,-0.99609375,-0.078125
446,-0.02734375,-0.99609375,-0.08203125
447,-0.0234375,-0.99609375,-0.078125
448,-0.03125,-0.99609375,-0.078125
449,-0.03515625,-0.984375,-0.0859375
450,-0.0234375,-0.984375,-0.09375
451,-0.0390625,-0.984375,-0.08203125
452,-0.03515625,-0.9921875,-0.08203125
453,-0.0390625,-0.99609375,-0.0859375
454,-0.0390625,-0.9921875,-0.078125
455,-0.03515625,-1.00390625,-0.08984375
456,-0.03515625,-1.0,-0.0859375
457,-0.03125,-0.99609375,-0.08984375
458,-0.0390625,-1.0078125,-0.078125
459,-0.04296875,-0.98828125,-0.078125
460,-0.0390625,-0.99609375,-0.06640625
461,-0.03125,-1.0,-0.078125
462,-0.03515625,-0.9921875,-0.09765625
463,-0.0390625,-0.99609375,-0.0859375
464,-0.03515625,-0.9921875,-0.08984375
465,-0.03125,-0.99609375,-0.078125
466,-0.03515625,-1.0,-0.08203125
467,-0.03125,-0.9921875,-0.08984375
468,-0.0390625,-1.00390625,-0.08984375
469,-0.03125,-0.9921875,-0.0859375
470,-0.046875,-0.99609375,-0.08203125
471,-0.03125,-1.0,-0.08984375
472,-0.01953125,-1.0078125,-0.078125
473,-0.03515625,-1.00390625,-0.078125
474,-0.02734375,-0.98828125,-0.078125
475,-0.02734375,-0.99609375,-0.08984375
476,-0.03125,-1.00390625,-0.078125
477,-0.03515625,-1.0,-0.1015625
478,-0.02734375,-1.0078125,-0.08203125
479,-0.03125,-0.984375,-0.078125
480,-0.03125,-0.99609375,-0.078125
481,-0.0546875,-1.0,-0.078125
482,-0.03515625,-0.9921875,-0.078125
483,-0.02734375,-1.0,-0.09765625
484,-0.02734375,-1.0078125,-0.08203125
485,-0.03125,-1.00390625,-0.08203125
486,-0.0390625,-0.99609375,-0.078125
487,-0.04296875,-0.9921875,-0.0859375
488,-0.03125,-1.00390625,-0.09375
489,-0.04296875,-0.9921875,-0.0859375
490,-0.03515625,-1.0,-0.078125
491,-0.0390625,-0.99609375,-0.078125
492,-0.04296875,-0.99609375,-0.07421875
493,-0.0390625,-0.99609375,-0.08984375
494,-0.02734375,-0.99609375,-0.0703125
495,-0.03515625,-0.98828125,-0.09375
496,-0.03515625,-0.9921875,-0.078125
497,-0.03515625,-1.0,-0.08203125
498,-0.02734375,-0.9921875,-0.08984375
499,-0.04296875,-1.00390625,-0.08203125
500,-0.0234375,-1.0078125,-0.078125
501,-0.03515625,-0.99609375,-0.08984375
502,-0.0390625,-1.0,-0.078125
503,-0.02734375,-1.015625,-0.09375
504,-0.0234375,-1.00390625,-0.08984375
505,-0.0234375,-1.0078125,-0.078125
506,-0.03515625,-1.00390625,-0.07421875
507,-0.02734375,-1.0,-0.08203125
508,-0.0234375,-1.0,-0.1015625
509,-0.0390625,-0.984375,-0.08984375
510,-0.03125,-0.99609375,-0.09375
511,-0.03125,-0.98828125,-0.09765625
512,-0.0078125,-1.00390625,-0.08984375
513,-0.0390625,-1.0,-0.10546875
514,-0.01953125,-1.00390625,-0.09375
515,-0.03125,-1.0078125,-0.08984375
516,-0.03515625,-1.00390625,-0.1015625
517,-0.0234375,-1.00390625,-0.1015625
518,-0.0390625,-1.00390625,-0.09765625
519,-0.0390625,-1.00390625,-0.08984375
520,-0.03125,-1.0234375,-0.09765625
521,-0.03515625,-1.01171875,-0.08203125
522,-0.0390625,-1.0078125,-0.08984375
523,-0.03125,-1.0,-0.09375
524,-0.03125,-0.99609375,-0.09375
525,-0.02734375,-1.0,-0.078125
526,-0.03515625,-1.01171875,-0.08984375
527,-0.03515625,-0.99609375,-0.09765625
528,-0.03515625,-0.99609375,-0.08203125
529,-0.03125,-0.99609375,-0.078125
530,-0.0234375,-0.99609375,-0.09375
531,-0.02734375,-0.99609375,-0.08984375
532,-0.02734375,-0.9921875,-0.08984375
533,-0.0390625,-0.9921875,-0.08984375
534,-0.0234375,-0.99609375,-0.09375
535,-0.03515625,-1.0,-0.0859375
536,-0.03515625,-0.99609375,-0.078125
537,-0.0390625,-0.9921875,-0.1015625
538,-0.03125,-1.0078125,-0.09375
539,-0.03125,-1.00390625,-0.09375
540,-0.0390625,-1.0078125,-0.0859375
541,-0.0390625,-0.9921875,-0.08984375
542,-0.03515625,-1.00390625,-0.08203125
543,-0.03125,-0.9921875,-0.109375
544,-0.02734375,-1.0,-0.09375
545,-0.03125,-0.99609375,-0.08984375
546,-0.0390625,-0.984375,-0.09375
547,-0.0390625,-0.9921875,-0.078125
548,-0.03125,-0.99609375,-0.09765625
549,-0.02734375,-0.99609375,-0.09375
550,-0.0390625,-0.984375,-0.09765625
551,-0.03515625,-0.99609375,-0.10546875
552,-0.04296875,-0.9921875,-0.09375
553,-0.0234375,-1.0078125,-0.08203125
554,-0.03515625,-1.0,-0.09765625
555,-0.046875,-0.99609375,-0.07421875
556,-0.02734375,-1.00390625,-0.08203125
557,-0.0390625,-1.0,-0.08203125
558,-0.03515625,-1.00390625,-0.09765625
559,-0.0234375,-0.98046875,-0.12109375
560,-0.03515625,-1.0,-0.0859375
561,-0.03515625,-1.01953125,-0.08203125
562,-0.0234375,-0.99609375,-0.08203125
563,-0.03125,-0.9921875,-0.08203125
564,-0.02734375,-0.98828125,-0.09375
565,-0.03125,-0.99609375,-0.08984375
566,-0.04296875,-0.9765625,-0.08984375
567,-0.0234375,-1.0,-0.09375
568,-0.02734375,-0.98828125,-0.08984375
569,-0.01953125,-1.0,-0.0859375
570,-0.04296875,-1.0,-0.08203125
571,-0.04296875,-0.9921875,-0.09375
572,-0.03515625,-0.99609375,-0.1015625
573,-0.03515625,-1.0,-0.0859375
574,-0.03125,-1.0,-0.1015625
575,-0.0390625,-0.99609375,-0.09375
576,-0.0390625,-1.00390625,-0.0859375
577,-0.03515625,-1.0,-0.078125
578,-0.0234375,-1.00390625,-0.08984375
579,-0.03515625,-0.99609375,-0.08984375
580,-0.04296875,-1.00390625,-0.09765625
581,-0.0546875,-0.9921875,-0.09765625
582,-0.03515625,-0.99609375,-0.09375
583,-0.02734375,-0.9921875,-0.0859375
584,-0.04296875,-1.0078125,-0.09375
585,-0.0234375,-0.9921875,-0.1015625
586,-0.03515625,-0.9921875,-0.08984375
587,-0.046875,-0.98828125,-0.0859375
588,-0.03515625,-1.01171875,-0.08203125
589,-0.02734375,-0.99609375,-0.09375
590,-0.03515625,-0.9921875,-0.1015625
591,-0.02734375,-1.00390625,-0.1015625
592,-0.03125,-1.0,-0.1015625
593,-0.02734375,-0.9921875,-0.10546875
594,-0.03515625,-0.98828125,-0.08203125
595,-0.03515625,-0.98828125,-0.09765625
596,-0.02734375,-0.99609375,-0.0859375
597,-0.02734375,-1.00390625,-0.08203125
598,-0.03125,-1.0078125,-0.1015625
599,-0.02734375,-0.99609375,-0.09765625
600,-0.03125,-0.98828125,-0.08984375
601,-0.0390625,-1.0,-0.09375
602,-0.03515625,-1.0078125,-0.0859375
603,-0.03125,-0.98828125,-0.0703125
604,-0.04296875,-0.98828125,-0.09765625
605,-0.046875,-0.9921875,-0.09375
606,-0.01953125,-1.0,-0.09765625
607,-0.03515625,-0.99609375,-0.078125
608,-0.03125,-0.98046875,-0.0859375
609,-0.01953125,-0.99609375,-0.09765625
610,-0.03125,-1.0,-0.1015625
611,-0.02734375,-0.99609375,-0.109375
612,-0.0234375,-1.00390625,-0.08984375
613,-0.0390625,-0.99609375,-0.08984375
614,-0.03125,-1.00390625,-0.1015625
615,-0.03515625,-1.00390625,-0.08984375
616,-0.03125,-1.00390625,-0.08984375
617,-0.02734375,-0.99609375,-0.10546875
618,-0.03515625,-0.99609375,-0.1015625
619,-0.0390625,-1.0,-0.09765625
620,-0.02734375,-1.0,-0.08984375
621,-0.03515625,-1.0,-0.09375
622,-0.03125,-0.99609375,-0.109375
623,-0.02734375,-1.00390625,-0.08984375
624,-0.0390625,-1.00390625,-0.0859375
625,-0.0390625,-0.98828125,-0.09375
626,-0.03515625,-0.9921875,-0.0859375
627,-0.0390625,-1.0078125,-0.09375
628,-0.03125,-1.0078125,-0.09765625
629,-0.03515625,-1.00390625,-0.11328125
630,-0.03125,-1.0,-0.109375
631,-0.0390625,-1.0078125,-0.10546875
632,-0.03515625,-1.00390625,-0.08984375
633,-0.0390625,-1.0,-0.1015625
634,-0.03125,-1.01171875,-0.0859375
635,-0.03515625,-1.0,-0.1171875
636,-0.046875,-1.0,-0.1015625
637,-0.03125,-1.00390625,-0.109375
638,-0.0390625,-0.99609375,-0.10546875
639,-0.03515625,-0.99609375,-0.10546875
640,-0.0390625,-1.00390625,-0.109375
641,-0.03125,-1.0,-0.109375
642,-0.03125,-0.9921875,-0.10546875
643,-0.04296875,-0.984375,-0.109375
644,-0.0390625,-1.0,-0.1171875
645,-0.03125,-1.0078125,-0.1015625
646,-0.03125,-0.9921875,-0.10546875
647,-0.03125,-1.0,-0.09375
648,-0.03515625,-1.00390625,-0.09375
649,-0.03515625,-0.984375,-0.09375
650,-0.03125,-0.99609375,-0.10546875
651,-0.04296875,-0.9921875,-0.1015625
652,-0.0390625,-1.01171875,-0.10546875
653,-0.046875,-1.0,-0.1015625
654,-0.03515625,-1.0078125,-0.10546875
655,-0.0390625,-1.00390625,-0.10546875
656,-0.0390625,-0.9921875,-0.109375
657,-0.0390625,-1.0,-0.1484375
658,-0.0390625,-0.99609375,-0.08984375
659,-0.0390625,-1.01171875,-0.1015625
660,-0.03515625,-0.99609375,-0.1015625
661,-0.04296875,-0.9921875,-0.109375
662,-0.046875,-0.984375,-0.109375
663,-0.02734375,-1.0,-0.109375
664,-0.03515625,-0.99609375,-0.12109375
665,-0.03125,-0.984375,-0.11328125
666,-0.02734375,-1.00390625,-0.09375
667,-0.03125,-0.99609375,-0.10546875
668,-0.046875,-0.9921875,-0.09765625
669,-0.046875,-0.98828125,-0.109375
670,-0.03515625,-1.0,-0.125
671,-0.0390625,-1.00390625,-0.10546875
672,-0.046875,-1.0,-0.1015625
673,-0.04296875,-1.00390625,-0.10546875
674,-0.03515625,-0.9921875,-0.1171875
675,-0.03515625,-0.99609375,-0.10546875
676,-0.04296875,-0.98828125,-0.12109375
677,-0.04296875,-0.99609375,-0.12109375
678,-0.03515625,-0.984375,-0.1328125
679,-0.03515625,-0.99609375,-0.109375
680,-0.03125,-0.9921875,-0.11328125
681,-0.04296875,-0.98828125,-0.109375
682,-0.03125,-0.99609375,-0.11328125
683,-0.03125,-0.98828125,-0.125
684,-0.0390625,-0.99609375,-0.11328125
685,-0.02734375,-0.9921875,-0.12109375
686,-0.03515625,-0.99609375,-0.10546875
687,-0.03515625,-0.99609375,-0.12109375
688,-0.0390625,-0.98046875,-0.12109375
689,-0.03125,-0.984375,-0.1015625
690,-0.03515625,-0.98828125,-0.10546875
691,-0.03515625,-0.99609375,-0.08984375
692,-0.02734375,-1.0,-0.10546875
693,-0.03125,-0.98046875,-0.109375
694,-0.03125,-0.98828125,-0.125
695,-0.03515625,-0.9921875,-0.1328125
696,-0.03125,-0.98046875,-0.13671875
697,-0.03125,-0.984375,-0.14453125
698,-0.03515625,-0.9921875,-0.15234375
699,-0.0234375,-1.0,-0.1484375
700,-0.046875,-0.984375,-0.15234375
701,-0.046875,-1.0078125,-0.14453125
702,-0.03125,-1.00390625,-0.14453125
703,-0.03515625,-1.0078125,-0.1484375
704,-0.05078125,-0.9921875,-0.125
705,-0.03125,-1.01171875,-0.12890625
706,-0.03515625,-1.01171875,-0.1328125
707,-0.03515625,-1.0,-0.14453125
708,-0.03125,-1.00390625,-0.14453125
709,-0.0390625,-0.98828125,-0.125
710,-0.03515625,-0.98828125,-0.1328125
711,-0.0390625,-0.9765625,-0.13671875
712,-0.04296875,-0.98046875,-0.12890625
713,-0.03515625,-0.96484375,-0.16015625
714,-0.02734375,-0.97265625,-0.15625
715,-0.02734375,-0.97265625,-0.16796875
716,-0.02734375,-0.9765625,-0.16796875
717,-0.04296875,-0.97265625,-0.15625
718,-0.03515625,-0.98828125,-0.1484375
719,-0.03515625,-0.99609375,-0.13671875
720,-0.0390625,-0.98828125,-0.16015625
721,-0.0390625,-1.0,-0.16015625
722,-0.03125,-1.0078125,-0.1484375
723,-0.0234375,-1.01171875,-0.16796875
724,-0.04296875,-1.01953125,-0.171875
725,-0.02734375,-1.03125,-0.1875
726,-0.01171875,-1.02734375,-0.1875
727,-0.0234375,-1.0234375,-0.1875
728,-0.015625,-1.01171875,-0.1875
729,-0.0234375,-1.00390625,-0.203125
730,-0.0234375,-0.984375,-0.203125
731,-0.0234375,-0.98046875,-0.19921875
732,-0.0078125,-0.98046875,-0.19921875
733,-0.04296875,-0.96484375,-0.24609375
734,-0.03125,-0.98046875,-0.19140625
735,-0.03125,-0.97265625,-0.1953125
736,-0.0390625,-0.97265625,-0.1875
737,-0.01953125,-0.984375,-0.18359375
738,-0.04296875,-0.984375,-0.1953125
739,-0.046875,-0.984375,-0.203125
740,-0.05078125,-0.99609375,-0.1875
741,-0.04296875,-0.99609375,-0.19921875
742,-0.03515625,-1.0,-0.19140625
743,-0.046875,-1.0,-0.18359375
744,-0.0390625,-1.00390625,-0.18359375
745,-0.046875,-0.99609375,-0.16796875
746,-0.03515625,-0.9921875,-0.18359375
747,-0.046875,-0.98828125,-0.17578125
748,-0.03515625,-0.97265625,-0.18359375
749,-0.03125,-0.98046875,-0.171875
750,-0.03125,-0.9765625,-0.19140625
751,-0.03515625,-0.97265625,-0.1953125
752,-0.02734375,-0.98828125,-0.19140625
753,-0.01953125,-0.98046875,-0.1953125
754,-0.03125,-0.98046875,-0.21875
755,-0.03515625,-0.984375,-0.203125
756,-0.03515625,-0.99609375,-0.2109375
757,-0.0234375,-0.9921875,-0.2109375
758,-0.03125,-0.9921875,-0.21484375
759,-0.0234375,-0.98046875,-0.203125
760,-0.0234375,-0.99609375,-0.2109375
761,-0.03125,-0.99609375,-0.20703125
762,-0.03515625,-0.984375,-0.20703125
763,-0.03515625,-0.984375,-0.19921875
764,-0.03125,-0.9921875,-0.19921875
765,-0.03125,-0.9765625,-0.2109375
766,-0.04296875,-0.9765625,-0.203125
767,-0.04296875,-0.96484375,-0.19140625
768,-0.05078125,-0.96875,-0.203125
769,-0.04296875,-0.953125,-0.1796875
770,-0.046875,-0.94921875,-0.18359375
771,-0.04296875,-0.9375,-0.1875
772,-0.05078125,-0.93359375,-0.1796875
773,-0.03515625,-0.92578125,-0.1875
774,-0.0546875,-0.91796875,-0.1875
775,-0.0390625,-0.9140625,-0.1796875
776,-0.0390625,-0.9296875,-0.18359375
777,-0.03515625,-0.92578125,-0.1875
778,-0.0390625,-0.90234375,-0.1640625
779,-0.0390625,-0.90234375,-0.17578125
780,-0.0390625,-0.9140625,-0.19140625
781,-0.02734375,-0.91015625,-0.1875
782,-0.015625,-0.92578125,-0.19921875
783,-0.03515625,-0.91015625,-0.1875
784,-0.03125,-0.91796875,-0.21484375
785,-0.03125,-0.921875,-0.19921875
786,-0.04296875,-0.921875,-0.2109375
787,-0.046875,-0.91796875,-0.23046875
788,-0.04296875,-0.91796875,-0.23828125
789,-0.05078125,-0.9140625,-0.25
790,-0.0703125,-0.921875,-0.265625
791,-0.0625,-0.91796875,-0.26953125
792,-0.078125,-0.90625,-0.265625
793,-0.06640625,-0.91015625,-0.2890625
794,-0.0625,-0.91015625,-0.27734375
795,-0.078125,-0.92578125,-0.2890625
796,-0.06640625,-0.92578125,-0.29296875
797,-0.07421875,-0.91796875,-0.296875
798,-0.07421875,-0.91796875,-0.296875
799,-0.0859375,-0.91015625,-0.3046875
800,-0.046875,-0.921875,-0.31640625
801,-0.05078125,-0.921875,-0.3203125
802,-0.03125,-0.9140625,-0.32421875
803,-0.03515625,-0.91015625,-0.32421875
804,-0.015625,-0.90234375,-0.31640625
805,-0.0234375,-0.8984375,-0.33203125
806,-0.02734375,-0.90234375,-0.33203125
807,-0.03125,-0.890625,-0.34765625
808,-0.0390625,-0.875,-0.34375
809,-0.05078125,-0.86328125,-0.3515625
810,-0.046875,-0.85546875,-0.35546875
811,-0.0625,-0.84375,-0.359375
812,-0.0625,-0.828125,-0.36328125
813,-0.0546875,-0.828125,-0.37109375
814,-0.06640625,-0.8125,-0.38671875
815,-0.07421875,-0.8046875,-0.375
816,-0.07421875,-0.796875,-0.375
817,-0.07421875,-0.796875,-0.375
818,-0.08203125,-0.796875,-0.3671875
819,-0.0703125,-0.8046875,-0.34375
820,-0.0390625,-0.80078125,-0.32421875
821,-0.05859375,-0.81640625,-0.328125
822,-0.0546875,-0.83984375,-0.3203125
823,-0.03515625,-0.8515625,-0.3125
824,-0.04296875,-0.84375,-0.30078125
825,-0.03125,-0.875,-0.30859375
826,-0.02734375,-0.86328125,-0.328125
827,-0.01953125,-0.86328125,-0.33203125
828,-0.04296875,-0.859375,-0.34765625
829,-0.0234375,-0.85546875,-0.3671875
830,-0.02734375,-0.828125,-0.375
831,-0.02734375,-0.8203125,-0.38671875
832,-0.0234375,-0.81640625,-0.41015625
833,-0.015625,-0.80078125,-0.40625
834,-0.015625,-0.80078125,-0.40234375
835,-0.00390625,-0.796875,-0.37109375
836,-0.03515625,-0.80078125,-0.390625
837,-0.02734375,-0.8125,-0.3671875
838,-0.04296875,-0.8203125,-0.36328125
839,-0.0546875,-0.8203125,-0.38671875
840,-0.0546875,-0.80078125,-0.37890625
841,-0.046875,-0.81640625,-0.40625
842,-0.0546875,-0.80078125,-0.43359375
843,-0.0625,-0.7890625,-0.453125
844,-0.04296875,-0.77734375,-0.46484375
845,-0.05078125,-0.7578125,-0.48046875
846,-0.02734375,-0.75,-0.50390625
847,-0.05078125,-0.73046875,-0.5078125
848,-0.03515625,-0.73046875,-0.4921875
849,-0.03515625,-0.72265625,-0.48828125
850,-0.01953125,-0.73828125,-0.4765625
851,-0.0234375,-0.73046875,-0.484375
852,-0.015625,-0.7265625,-0.48828125
853,-0.0078125,-0.74609375,-0.4765625
854,0.00390625,-0.75390625,-0.484375
855,0.0078125,-0.7421875,-0.48828125
856,0.01171875,-0.74609375,-0.484375
857,0.01171875,-0.75,-0.51171875
858,0.02734375,-0.7578125,-0.5390625
859,0.01953125,-0.75390625,-0.5390625
860,0.0078125,-0.73828125,-0.55859375
861,0.0078125,-0.74609375,-0.5703125
862,0.0078125,-0.7578125,-0.578125
863,0.01953125,-0.7421875,-0.59765625
864,0.0,-0.7734375,-0.59375
865,-0.00390625,-0.76171875,-0.5859375
866,-0.0078125,-0.765625,-0.578125
867,-0.0234375,-0.76953125,-0.56640625
868,-0.01171875,-0.76953125,-0.56640625
869,-0.01953125,-0.7578125,-0.55078125
870,-0.01953125,-0.74609375,-0.546875
871,-0.0234375,-0.73828125,-0.546875
872,-0.00390625,-0.7421875,-0.53125
873,0.0,-0.7265625,-0.55078125
874,0.0,-0.71484375,-0.5625
875,0.0,-0.71875,-0.56640625
876,0.0,-0.70703125,-0.57421875
877,0.0,-0.703125,-0.578125
878,-0.015625,-0.69140625,-0.5859375
879,-0.02734375,-0.6953125,-0.5859375
880,-0.03515625,-0.6875,-0.5859375
881,-0.04296875,-0.6875,-0.59765625
882,-0.06640625,-0.67578125,-0.59765625
883,-0.0625,-0.671875,-0.59375
884,-0.0859375,-0.6640625,-0.58984375
885,-0.09765625,-0.70703125,-0.56640625
886,-0.0625,-0.67578125,-0.58203125
887,-0.05859375,-0.67578125,-0.58203125
888,-0.0625,-0.671875,-0.58203125
889,-0.07421875,-0.671875,-0.58203125
890,-0.0625,-0.67578125,-0.58203125
891,-0.0390625,-0.6796875,-0.58984375
892,-0.04296875,-0.6640625,-0.58984375
893,-0.02734375,-0.68359375,-0.61328125
894,-0.03515625,-0.671875,-0.609375
895,-0.04296875,-0.66015625,-0.6171875
896,-0.03125,-0.68359375,-0.60546875
897,-0.01953125,-0.734375,-0.6171875
898,-0.0390625,-0.71484375,-0.61328125
899,-0.0546875,-0.71875,-0.60546875
900,-0.05859375,-0.7109375,-0.6328125
901,-0.0625,-0.703125,-0.64453125
902,-0.078125,-0.69140625,-0.65234375
903,-0.08203125,-0.68359375,-0.67578125
904,-0.07421875,-0.6640625,-0.66015625
905,-0.0859375,-0.6640625,-0.6796875
906,-0.08203125,-0.66015625,-0.66796875
907,-0.06640625,-0.6796875,-0.6796875
908,-0.08203125,-0.67578125,-0.68359375
909,-0.0625,-0.6875,-0.703125
910,-0.05078125,-0.70703125,-0.6875
911,-0.03515625,-0.7109375,-0.6953125
912,-0.01171875,-0.71875,-0.71484375
913,0.0078125,-0.72265625,-0.703125
914,0.01171875,-0.7265625,-0.71875
915,0.01953125,-0.7109375,-0.7109375
916,0.03515625,-0.7109375,-0.7421875
917,0.02734375,-0.703125,-0.734375
918,0.03125,-0.69140625,-0.75390625
919,0.0390625,-0.6875,-0.765625
920,0.02734375,-0.67578125,-0.80078125
921,0.01953125,-0.671875,-0.78515625
922,0.0234375,-0.66015625,-0.81640625
923,0.01953125,-0.671875,-0.81640625
924,0.01171875,-0.6796875,-0.796875
925,0.0234375,-0.68359375,-0.81640625
926,0.02734375,-0.70703125,-0.8046875
927,0.0390625,-0.7109375,-0.8203125
928,0.046875,-0.74609375,-0.80859375
929,0.046875,-0.73046875,-0.8203125
930,0.03515625,-0.734375,-0.8125
931,0.0,-0.7109375,-0.8046875
932,0.0078125,-0.71484375,-0.82421875
933,0.00390625,-0.68359375,-0.81640625
934,-0.0234375,-0.67578125,-0.8125
935,-0.06640625,-0.6328125,-0.83984375
936,-0.06640625,-0.62109375,-0.83203125
937,-0.09375,-0.6015625,-0.84375
938,-0.078125,-0.58984375,-0.84375
939,-0.08984375,-0.578125,-0.83984375
940,-0.08203125,-0.5703125,-0.84765625
941,-0.06640625,-0.58203125,-0.84375
942,-0.03125,-0.59375,-0.84765625
943,0.0078125,-0.59765625,-0.875
944,0.0234375,-0.6171875,-0.8671875
945,0.0546875,-0.6328125,-0.90625
946,0.0703125,-0.6484375,-0.890625
947,0.0703125,-0.6484375,-0.89453125
948,0.07421875,-0.6796875,-0.875
949,0.08984375,-0.67578125,-0.88671875
950,0.0859375,-0.69140625,-0.91015625
951,0.0859375,-0.67578125,-0.8515625
952,0.0703125,-0.6640625,-0.85546875
953,0.0703125,-0.65625,-0.84375
954,0.06640625,-0.63671875,-0.8515625
955,0.08203125,-0.640625,-0.8671875
956,0.05859375,-0.6328125,-0.8359375
957,0.05078125,-0.62890625,-0.84375
958,0.05078125,-0.609375,-0.8515625
959,0.03515625,-0.59765625,-0.859375
960,0.02734375,-0.6015625,-0.86328125
961,0.0390625,-0.5859375,-0.859375
962,0.0078125,-0.59375,-0.8515625
963,-0.01171875,-0.59375,-0.83984375
964,-0.03515625,-0.59765625,-0.8515625
965,-0.015625,-0.58984375,-0.85546875
966,-0.03125,-0.58984375,-0.84765625
967,-0.046875,-0.578125,-0.8359375
968,-0.03515625,-0.5859375,-0.859375
969,-0.046875,-0.57421875,-0.8515625
970,-0.0390625,-0.578125,-0.8515625
971,-0.03125,-0.578125,-0.87890625
972,0.0078125,-0.57421875,-0.83984375
973,-0.01171875,-0.5546875,-0.8671875
974,-0.01953125,-0.5546875,-0.8828125
975,-0.01171875,-0.5390625,-0.8671875
976,-0.015625,-0.5546875,-0.87109375
977,0.00390625,-0.5390625,-0.87109375
978,0.01171875,-0.5390625,-0.89453125
979,0.01953125,-0.54296875,-0.890625
980,0.05078125,-0.54296875,-0.87890625
981,0.0625,-0.54296875,-0.875
982,0.078125,-0.55859375,-0.85546875
983,0.09375,-0.5546875,-0.8515625
984,0.08203125,-0.55859375,-0.8515625
985,0.078125,-0.546875,-0.84375
986,0.05859375,-0.546875,-0.84765625
987,0.0703125,-0.5546875,-0.84765625
988,0.06640625,-0.55078125,-0.859375
989,0.046875,-0.53515625,-0.875
990,0.03125,-0.546875,-0.87890625
991,0.0078125,-0.53515625,-0.875
992,0.015625,-0.5390625,-0.86328125
993,0.0078125,-0.55859375,-0.875
994,0.0234375,-0.55859375,-0.88671875
995,-0.01171875,-0.5625,-0.8515625
996,0.0,-0.5625,-0.8671875
997,-0.00390625,-0.56640625,-0.859375
998,0.0,-0.55859375,-0.87109375
999,0.0078125,-0.55859375,-0.87109375
1000,0.02734375,-0.55078125,-0.875
1001,0.0234375,-0.52734375,-0.88671875
1002,0.0390625,-0.515625,-0.91015625
1003,0.04296875,-0.51171875,-0.90234375
1004,0.046875,-0.5078125,-0.92578125
1005,0.02734375,-0.5,-0.88671875
1006,0.015625,-0.50390625,-0.87890625
1007,0.01171875,-0.5,-0.875
1008,0.0,-0.50390625,-0.8671875
1009,0.015625,-0.50390625,-0.859375
1010,0.00390625,-0.5078125,-0.87890625
1011,0.0,-0.5,-0.890625
1012,-0.00390625,-0.48828125,-0.890625
1013,0.0,-0.5078125,-0.890625
1014,-0.01171875,-0.5078125,-0.89453125
1015,0.0,-0.4921875,-0.90625
1016,-0.01953125,-0.4921875,-0.91015625
1017,0.0,-0.4765625,-0.921875
1018,-0.00390625,-0.46484375,-0.93359375
1019,0.01171875,-0.47265625,-0.9453125
1020,0.0234375,-0.46875,-0.91796875
1021,0.0234375,-0.46875,-0.90234375
1022,0.01953125,-0.484375,-0.90625
1023,0.04296875,-0.4765625,-0.88671875
1024,0.0390625,-0.48046875,-0.89453125
1025,0.01171875,-0.47265625,-0.86328125
1026,0.01953125,-0.4921875,-0.87890625
1027,0.01171875,-0.50390625,-0.859375
1028,-0.015625,-0.5078125,-0.88671875
1029,-0.02734375,-0.5,-0.87109375
1030,-0.01953125,-0.5,-0.84375
1031,-0.0078125,-0.515625,-0.84375
1032,-0.02734375,-0.52734375,-0.828125
1033,-0.015625,-0.51171875,-0.8203125
1034,-0.0234375,-0.5078125,-0.81640625
1035,-0.04296875,-0.50390625,-0.8046875
1036,-0.046875,-0.5078125,-0.8125
1037,-0.0703125,-0.5,-0.8046875
1038,-0.06640625,-0.51953125,-0.7890625
1039,-0.05078125,-0.52734375,-0.79296875
1040,-0.0703125,-0.515625,-0.7890625
1041,-0.0625,-0.5078125,-0.78125
1042,-0.0625,-0.49609375,-0.78515625
1043,-0.05859375,-0.49609375,-0.81640625
1044,-0.05078125,-0.50390625,-0.82421875
1045,-0.0390625,-0.51171875,-0.82421875
1046,-0.0390625,-0.5234375,-0.82421875
1047,0.0,-0.53515625,-0.81640625
1048,0.0,-0.54296875,-0.8359375
1049,0.00390625,-0.546875,-0.8046875
1050,0.0,-0.5625,-0.8203125
1051,0.01953125,-0.5859375,-0.8203125
1052,0.00390625,-0.58203125,-0.82421875
1053,0.01953125,-0.58203125,-0.828125
1054,-0.0078125,-0.5625,-0.81640625
1055,-0.015625,-0.5703125,-0.80859375
1056,-0.02734375,-0.58203125,-0.828125
1057,-0.0078125,-0.58203125,-0.828125
1058,-0.05859375,-0.57421875,-0.84375
1059,-0.109375,-0.5390625,-0.859375
1060,-0.078125,-0.57421875,-0.84375
1061,-0.08984375,-0.5703125,-0.859375
1062,-0.08203125,-0.56640625,-0.87890625
1063,-0.08984375,-0.5859375,-0.8828125
1064,-0.0859375,-0.59375,-0.8984375
1065,-0.0859375,-0.60546875,-0.89453125
1066,-0.078125,-0.6171875,-0.89453125
1067,-0.08203125,-0.62109375,-0.91796875
1068,-0.0546875,-0.64453125,-0.9140625
1069,-0.0703125,-0.65234375,-0.90234375
1070,-0.07421875,-0.65625,-0.875
1071,-0.046875,-0.6640625,-0.87109375
1072,-0.05078125,-0.6796875,-0.87109375
1073,-0.0703125,-0.68359375,-0.85546875
1074,-0.09765625,-0.68359375,-0.83984375
1075,-0.07421875,-0.69140625,-0.83203125
1076,-0.0859375,-0.671875,-0.8515625
1077,-0.09375,-0.65234375,-0.84765625
1078,-0.078125,-0.6484375,-0.85546875
1079,-0.06640625,-0.6484375,-0.87109375
1080,-0.05859375,-0.63671875,-0.89453125
1081,-0.09765625,-0.62109375,-0.87890625
1082,-0.07421875,-0.625,-0.8984375
1083,-0.06640625,-0.62890625,-0.88671875
1084,-0.07421875,-0.63671875,-0.87109375
1085,-0.0859375,-0.65234375,-0.859375
1086,-0.07421875,-0.6484375,-0.86328125
1087,-0.0546875,-0.671875,-0.8359375
1088,-0.046875,-0.6796875,-0.828125
1089,-0.05078125,-0.68359375,-0.80078125
1090,-0.0546875,-0.6953125,-0.80078125
1091,-0.02734375,-0.703125,-0.79296875
1092,-0.05078125,-0.703125,-0.796875
1093,-0.0546875,-0.69921875,-0.80078125
1094,-0.04296875,-0.71484375,-0.8046875
1095,-0.05859375,-0.71484375,-0.8203125
1096,-0.0390625,-0.71484375,-0.80078125
1097,-0.03515625,-0.70703125,-0.8359375
1098,-0.05078125,-0.69140625,-0.8359375
1099,-0.03515625,-0.6953125,-0.8359375
1100,-0.05078125,-0.70703125,-0.83984375
1101,-0.0625,-0.70703125,-0.8515625
1102,-0.06640625,-0.71484375,-0.84765625
1103,-0.08203125,-0.7109375,-0.8046875
1104,-0.0625,-0.734375,-0.80078125
1105,-0.0859375,-0.7578125,-0.7890625
1106,-0.08984375,-0.765625,-0.7578125
1107,-0.09765625,-0.78515625,-0.765625
1108,-0.08984375,-0.80078125,-0.76953125
1109,-0.08984375,-0.79296875,-0.75390625
1110,-0.0703125,-0.80859375,-0.71484375
1111,-0.078125,-0.77734375,-0.71875
1112,-0.05859375,-0.78515625,-0.734375
1113,-0.06640625,-0.78515625,-0.73046875
1114,-0.0546875,-0.78125,-0.75
1115,-0.08203125,-0.7734375,-0.77734375
1116,-0.08203125,-0.78125,-0.76953125
1117,-0.078125,-0.78125,-0.8046875
1118,-0.0625,-0.76953125,-0.80078125
1119,-0.078125,-0.7734375,-0.8125
1120,-0.0703125,-0.78515625,-0.8046875
1121,-0.0703125,-0.796875,-0.81640625
1122,-0.0546875,-0.78125,-0.8046875
1123,-0.05859375,-0.79296875,-0.796875
1124,-0.02734375,-0.796875,-0.80078125
1125,-0.05078125,-0.81640625,-0.796875
1126,-0.03515625,-0.81640625,-0.79296875
1127,-0.03125,-0.80859375,-0.78515625
1128,-0.02734375,-0.80859375,-0.7890625
1129,-0.0234375,-0.8046875,-0.77734375
1130,-0.01171875,-0.78125,-0.7734375
1131,-0.0078125,-0.76953125,-0.7890625
1132,-0.03125,-0.76171875,-0.796875
1133,-0.0234375,-0.73828125,-0.7890625
1134,-0.03515625,-0.734375,-0.8046875
1135,-0.03125,-0.7265625,-0.8125
1136,-0.05078125,-0.71875,-0.8125
1137,-0.0625,-0.73046875,-0.8125
1138,-0.0625,-0.73046875,-0.8125
1139,-0.06640625,-0.7421875,-0.796875
1140,-0.0703125,-0.765625,-0.8125
1141,-0.06640625,-0.7734375,-0.796875
1142,-0.0625,-0.77734375,-0.7890625
1143,-0.05859375,-0.765625,-0.7890625
1144,-0.06640625,-0.77734375,-0.78125
1145,-0.0546875,-0.765625,-0.78125
1146,-0.0625,-0.76953125,-0.7578125
1147,-0.05078125,-0.7578125,-0.7734375
1148,-0.0390625,-0.7578125,-0.7734375
1149,-0.03515625,-0.75,-0.765625
1150,-0.03125,-0.73828125,-0.76953125
1151,-0.01953125,-0.72265625,-0.75390625
1152,-0.0234375,-0.72265625,-0.73828125
1153,-0.03515625,-0.73046875,-0.73046875
1154,-0.0546875,-0.734375,-0.71484375
1155,-0.06640625,-0.73046875,-0.7109375
1156,-0.08203125,-0.7421875,-0.69921875
1157,-0.0859375,-0.734375,-0.69921875
1158,-0.08984375,-0.7421875,-0.6875
1159,-0.08984375,-0.74609375,-0.66015625
1160,-0.08984375,-0.765625,-0.6640625
1161,-0.078125,-0.7578125,-0.671875
1162,-0.06640625,-0.75,-0.6796875
1163,-0.0546875,-0.75390625,-0.67578125
1164,-0.0390625,-0.75,-0.6875
1165,-0.00390625,-0.73828125,-0.6796875
1166,0.00390625,-0.73828125,-0.6796875
1167,-0.0078125,-0.72265625,-0.703125
1168,0.00390625,-0.7265625,-0.6875
1169,0.0,-0.71484375,-0.703125
1170,-0.01171875,-0.71484375,-0.69921875
1171,-0.02734375,-0.71875,-0.69140625
1172,-0.03515625,-0.7265625,-0.6875
1173,-0.04296875,-0.71875,-0.67578125
1174,-0.05078125,-0.71875,-0.671875
1175,-0.0390625,-0.71484375,-0.6796875
1176,-0.046875,-0.7109375,-0.671875
1177,-0.046875,-0.71875,-0.6640625
1178,-0.046875,-0.7109375,-0.66796875
1179,-0.05859375,-0.70703125,-0.671875
1180,-0.046875,-0.71484375,-0.6640625
1181,-0.0625,-0.7109375,-0.6796875
1182,-0.06640625,-0.70703125,-0.68359375
1183,-0.07421875,-0.7109375,-0.6640625
1184,-0.07421875,-0.703125,-0.6796875
1185,-0.07421875,-0.703125,-0.671875
1186,-0.0703125,-0.71484375,-0.6640625
1187,-0.06640625,-0.71875,-0.671875
1188,-0.0625,-0.71484375,-0.65234375
1189,-0.0546875,-0.7265625,-0.6640625
1190,-0.05078125,-0.7265625,-0.65234375
1191,-0.03125,-0.7265625,-0.671875
1192,-0.04296875,-0.73046875,-0.65625
1193,-0.0546875,-0.7265625,-0.66015625
1194,-0.046875,-0.7265625,-0.67578125
1195,-0.05078125,-0.734375,-0.671875
1196,-0.05078125,-0.73046875,-0.66796875
1197,-0.05078125,-0.7265625,-0.6796875
1198,-0.04296875,-0.73828125,-0.69140625
1199,-0.0546875,-0.7421875,-0.6953125
1200,-0.04296875,-0.74609375,-0.68359375
1201,-0.0546875,-0.7265625,-0.703125
1202,-0.0546875,-0.73046875,-0.6953125
1203,-0.05078125,-0.74609375,-0.70703125
1204,-0.046875,-0.734375,-0.69140625
1205,-0.0390625,-0.73046875,-0.69921875
1206,-0.0234375,-0.77734375,-0.72265625
1207,-0.0390625,-0.71484375,-0.7109375
1208,-0.03125,-0.71875,-0.71484375
1209,-0.0390625,-0.70703125,-0.72265625
1210,-0.03515625,-0.69140625,-0.71484375
1211,-0.06640625,-0.69921875,-0.72265625
1212,-0.0546875,-0.69140625,-0.6640625
1213,-0.04296875,-0.6875,-0.7109375
1214,-0.04296875,-0.6953125,-0.703125
1215,-0.0390625,-0.69140625,-0.70703125
1216,-0.0625,-0.69921875,-0.69140625
1217,-0.046875,-0.69921875,-0.6953125
1218,-0.046875,-0.7109375,-0.6953125
1219,-0.04296875,-0.71875,-0.6953125
1220,-0.03515625,-0.71484375,-0.69921875
1221,-0.04296875,-0.71484375,-0.7265625
1222,-0.0390625,-0.7265625,-0.71484375
1223,-0.0546875,-0.71875,-0.7265625
1224,-0.04296875,-0.71484375,-0.734375
1225,-0.0390625,-0.72265625,-0.73828125
1226,-0.03515625,-0.71875,-0.734375
1227,-0.03515625,-0.72265625,-0.73046875
1228,-0.03125,-0.7265625,-0.72265625
1229,-0.0390625,-0.7265625,-0.71875
1230,-0.03125,-0.71875,-0.7265625
1231,-0.04296875,-0.71484375,-0.70703125
1232,-0.0390625,-0.7109375,-0.734375
1233,-0.01171875,-0.6875,-0.76953125
1234,-0.0390625,-0.7109375,-0.7109375
1235,-0.04296875,-0.703125,-0.71875
1236,-0.0390625,-0.703125,-0.71484375
1237,-0.04296875,-0.70703125,-0.703125
1238,-0.03515625,-0.71484375,-0.69921875
1239,-0.04296875,-0.71484375,-0.71484375
1240,-0.05078125,-0.71484375,-0.7109375
1241,-0.04296875,-0.71875,-0.703125
1242,-0.0546875,-0.71484375,-0.71875
1243,-0.04296875,-0.71484375,-0.71875
1244,-0.05859375,-0.71484375,-0.7421875
1245,-0.046875,-0.71484375,-0.7265625
1246,-0.05078125,-0.71875,-0.7109375
1247,-0.03515625,-0.71875,-0.7109375
1248,-0.05078125,-0.7109375,-0.70703125
1249,-0.05859375,-0.7109375,-0.71875
1250,-0.046875,-0.703125,-0.703125
1251,-0.046875,-0.703125,-0.70703125
1252,-0.0390625,-0.7109375,-0.69921875
1253,-0.04296875,-0.71875,-0.6953125
1254,-0.0546875,-0.71875,-0.69921875
1255,-0.01953125,-0.734375,-0.69140625
1256,-0.05859375,-0.7109375,-0.69921875
1257,-0.0546875,-0.71875,-0.69921875
1258,-0.05859375,-0.72265625,-0.70703125
1259,-0.0546875,-0.70703125,-0.70703125
1260,-0.0546875,-0.71484375,-0.7109375
1261,-0.04296875,-0.70703125,-0.7109375
1262,-0.04296875,-0.7109375,-0.703125
1263,-0.04296875,-0.71484375,-0.703125
1264,-0.046875,-0.7109375,-0.703125
1265,-0.046875,-0.71875,-0.70703125
1266,-0.046875,-0.7109375,-0.71484375
1267,-0.046875,-0.71484375,-0.7109375
1268,-0.05078125,-0.71484375,-0.70703125
1269,-0.04296875,-0.69921875,-0.70703125
1270,-0.05078125,-0.703125,-0.7109375
1271,-0.046875,-0.71875,-0.69921875
1272,-0.04296875,-0.70703125,-0.70703125
1273,-0.05078125,-0.69921875,-0.703125
1274,-0.0546875,-0.70703125,-0.6953125
1275,-0.046875,-0.70703125,-0.70703125
1276,-0.06640625,-0.69140625,-0.72265625
1277,-0.04296875,-0.671875,-0.7109375
1278,-0.06640625,-0.70703125,-0.69140625
1279,-0.07421875,-0.7109375,-0.70703125
1280,-0.07421875,-0.6953125,-0.703125
1281,-0.08203125,-0.7109375,-0.7265625
1282,-0.08203125,-0.71875,-0.6953125
1283,-0.0703125,-0.71484375,-0.6953125
1284,-0.06640625,-0.71875,-0.7109375
1285,-0.0625,-0.71484375,-0.71875
1286,-0.05078125,-0.72265625,-0.7109375
1287,-0.05078125,-0.71484375,-0.69921875
1288,-0.04296875,-0.72265625,-0.70703125
1289,-0.04296875,-0.71484375,-0.703125
1290,-0.05078125,-0.71875,-0.70703125
1291,-0.05078125,-0.71875,-0.7109375
1292,-0.05859375,-0.7109375,-0.7109375
1293,-0.046875,-0.71875,-0.7109375
1294,-0.0546875,-0.71875,-0.69140625
1295,-0.0625,-0.71484375,-0.6953125
1296,-0.05078125,-0.71875,-0.69921875
1297,-0.0625,-0.71875,-0.69140625
1298,-0.06640625,-0.71484375,-0.68359375
1299,-0.06640625,-0.71484375,-0.6875
1300,-0.0703125,-0.7265625,-0.68359375
1301,-0.03515625,-0.73828125,-0.69140625
1302,-0.0625,-0.72265625,-0.68359375
1303,-0.04296875,-0.7265625,-0.69921875
1304,-0.05078125,-0.7265625,-0.6875
1305,-0.046875,-0.7421875,-0.69921875
1306,-0.05078125,-0.74609375,-0.69140625
1307,-0.0546875,-0.734375,-0.7109375
1308,-0.0546875,-0.7265625,-0.703125
1309,-0.0625,-0.73828125,-0.70703125
1310,-0.05859375,-0.734375,-0.70703125
1311,-0.05859375,-0.734375,-0.69921875
1312,-0.0546875,-0.73828125,-0.69921875
1313,-0.05859375,-0.73828125,-0.703125
1314,-0.06640625,-0.734375,-0.6875
1315,-0.0625,-0.72265625,-0.6953125
1316,-0.07421875,-0.71875,-0.69921875
1317,-0.078125,-0.7265625,-0.6875
1318,-0.07421875,-0.72265625,-0.6875
1319,-0.0625,-0.734375,-0.69140625
1320,-0.05859375,-0.75,-0.68359375
1321,-0.11328125,-0.734375,-0.6875
1322,-0.05859375,-0.75,-0.703125
1323,-0.05859375,-0.734375,-0.6875
1324,-0.0625,-0.73046875,-0.6875
1325,-0.04296875,-0.7421875,-0.6953125
1326,-0.0546875,-0.734375,-0.6953125
1327,-0.046875,-0.73046875,-0.6875
1328,-0.0546875,-0.72265625,-0.69140625
1329,-0.05078125,-0.71875,-0.69140625
1330,-0.046875,-0.73046875,-0.68359375
1331,-0.0625,-0.72265625,-0.68359375
1332,-0.0546875,-0.7265625,-0.69140625
1333,-0.05078125,-0.75,-0.703125
1334,-0.05859375,-0.7421875,-0.67578125
1335,-0.0546875,-0.7578125,-0.6640625
1336,-0.0546875,-0.75390625,-0.671875
1337,-0.05859375,-0.7578125,-0.671875
1338,-0.06640625,-0.73828125,-0.6875
1339,-0.0546875,-0.73828125,-0.6640625
1340,-0.0546875,-0.734375,-0.671875
1341,-0.0546875,-0.73828125,-0.66796875
1342,-0.08203125,-0.7421875,-0.6640625
1343,-0.05859375,-0.734375,-0.63671875
1344,-0.078125,-0.734375,-0.6484375
1345,-0.0703125,-0.734375,-0.64453125
1346,-0.0625,-0.75,-0.63671875
1347,-0.05859375,-0.74609375,-0.63671875
1348,-0.0703125,-0.7421875,-0.64453125
1349,-0.06640625,-0.75,-0.6328125
1350,-0.0703125,-0.765625,-0.63671875
1351,-0.0546875,-0.765625,-0.64453125
1352,-0.0546875,-0.77734375,-0.66015625
1353,-0.05078125,-0.76171875,-0.65625
1354,-0.0625,-0.75,-0.640625
1355,-0.0546875,-0.7578125,-0.65234375
1356,-0.05078125,-0.7578125,-0.63671875
1357,-0.05859375,-0.74609375,-0.6328125
1358,-0.0546875,-0.75390625,-0.640625
1359,-0.04296875,-0.7421875,-0.64453125
1360,-0.05859375,-0.7421875,-0.62109375
1361,-0.0546875,-0.75,-0.625
1362,-0.05859375,-0.7421875,-0.625
1363,-0.0703125,-0.73828125,-0.6171875
1364,-0.06640625,-0.7734375,-0.58203125
1365,-0.0703125,-0.75,-0.6171875
1366,-0.0703125,-0.75,-0.61328125
1367,-0.0859375,-0.7421875,-0.62109375
1368,-0.078125,-0.77734375,-0.6171875
1369,-0.07421875,-0.78125,-0.62890625
1370,-0.08203125,-0.77734375,-0.625
1371,-0.08203125,-0.7734375,-0.6328125
1372,-0.078125,-0.77734375,-0.6328125
1373,-0.08984375,-0.77734375,-0.64453125
1374,-0.08984375,-0.77734375,-0.640625
1375,-0.08984375,-0.7734375,-0.640625
1376,-0.078125,-0.77734375,-0.65234375
1377,-0.08984375,-0.76953125,-0.6484375
1378,-0.08203125,-0.78125,-0.640625
1379,-0.0703125,-0.78515625,-0.640625
1380,-0.0703125,-0.78125,-0.63671875
1381,-0.08203125,-0.78125,-0.62890625
1382,-0.0859375,-0.78125,-0.640625
1383,-0.07421875,-0.79296875,-0.62890625
1384,-0.078125,-0.79296875,-0.625
1385,-0.07421875,-0.78515625,-0.63671875
1386,-0.07421875,-0.80078125,-0.62890625
1387,-0.07421875,-0.79296875,-0.640625
1388,-0.07421875,-0.7890625,-0.640625
1389,-0.07421875,-0.796875,-0.6484375
1390,-0.078125,-0.796875,-0.62890625
1391,-0.0625,-0.78515625,-0.6328125
1392,-0.0703125,-0.79296875,-0.62890625
1393,-0.0703125,-0.79296875,-0.62109375
1394,-0.06640625,-0.79296875,-0.63671875
1395,-0.05859375,-0.80078125,-0.64453125
1396,-0.07421875,-0.7890625,-0.6171875
1397,-0.06640625,-0.796875,-0.61328125
1398,-0.0625,-0.8046875,-0.61328125
1399,-0.0859375,-0.78515625,-0.61328125
1400,-0.0859375,-0.78125,-0.6171875
1401,-0.0859375,-0.80078125,-0.62890625
1402,-0.08203125,-0.78125,-0.62109375
1403,-0.08203125,-0.7890625,-0.609375
1404,-0.078125,-0.7890625,-0.6171875
1405,-0.08203125,-0.7890625,-0.59765625
1406,-0.08203125,-0.79296875,-0.6015625
1407,-0.07421875,-0.8046875,-0.62109375
1408,-0.08203125,-0.76953125,-0.6171875
1409,-0.07421875,-0.78515625,-0.6171875
1410,-0.0625,-0.8125,-0.60546875
1411,-0.07421875,-0.796875,-0.60546875
1412,-0.07421875,-0.80078125,-0.62109375
1413,-0.0703125,-0.796875,-0.6015625
1414,-0.06640625,-0.80859375,-0.6015625
1415,-0.0859375,-0.80078125,-0.609375
1416,-0.0703125,-0.796875,-0.59375
1417,-0.06640625,-0.796875,-0.609375
1418,-0.0625,-0.79296875,-0.60546875
1419,-0.06640625,-0.78125,-0.6171875
1420,-0.078125,-0.796875,-0.6171875
1421,-0.0703125,-0.7890625,-0.61328125
1422,-0.0625,-0.78125,-0.609375
1423,-0.0625,-0.7890625,-0.61328125
1424,-0.0703125,-0.78125,-0.61328125
1425,-0.0703125,-0.78515625,-0.60546875
1426,-0.07421875,-0.78125,-0.60546875
1427,-0.078125,-0.7734375,-0.6171875
1428,-0.0703125,-0.78515625,-0.62890625
1429,-0.06640625,-0.78515625,-0.61328125
1430,-0.05859375,-0.80078125,-0.63671875
1431,-0.06640625,-0.79296875,-0.625
1432,-0.06640625,-0.77734375,-0.59765625
1433,-0.06640625,-0.7734375,-0.61328125
1434,-0.0703125,-0.78125,-0.609375
1435,-0.0703125,-0.78515625,-0.61328125
1436,-0.07421875,-0.796875,-0.60546875
1437,-0.078125,-0.79296875,-0.59765625
1438,-0.0546875,-0.796875,-0.59765625
1439,-0.06640625,-0.7890625,-0.6171875
1440,-0.0625,-0.7890625,-0.60546875
1441,-0.0703125,-0.7890625,-0.60546875
1442,-0.05859375,-0.80078125,-0.609375
1443,-0.0625,-0.78515625,-0.59375
1444,-0.05859375,-0.796875,-0.6015625
1445,-0.046875,-0.78515625,-0.59375
1446,-0.05078125,-0.796875,-0.6015625
1447,-0.05859375,-0.78515625,-0.609375
1448,-0.046875,-0.80078125,-0.6171875
1449,-0.0625,-0.796875,-0.609375
1450,-0.0546875,-0.80078125,-0.62109375
1451,-0.05859375,-0.8125,-0.5859375
1452,-0.0625,-0.79296875,-0.6171875
1453,-0.06640625,-0.78125,-0.62890625
1454,-0.06640625,-0.77734375,-0.61328125
1455,-0.0625,-0.7734375,-0.6328125
1456,-0.0703125,-0.78515625,-0.62890625
1457,-0.0625,-0.77734375,-0.62109375
1458,-0.0625,-0.7734375,-0.625
1459,-0.046875,-0.76953125,-0.6171875
1460,-0.046875,-0.78515625,-0.6171875
1461,-0.04296875,-0.7734375,-0.6171875
1462,-0.04296875,-0.7890625,-0.61328125
1463,-0.02734375,-0.78515625,-0.6171875
1464,-0.03125,-0.78515625,-0.609375
1465,-0.0390625,-0.79296875,-0.61328125
1466,-0.046875,-0.78515625,-0.62890625
1467,-0.03125,-0.80078125,-0.625
1468,-0.0625,-0.78515625,-0.6171875
1469,-0.06640625,-0.79296875,-0.62109375
1470,-0.0703125,-0.796875,-0.61328125
1471,-0.07421875,-0.8046875,-0.62109375
1472,-0.07421875,-0.80078125,-0.62890625
1473,-0.0703125,-0.8125,-0.6015625
1474,-0.078125,-0.81640625,-0.625
1475,-0.06640625,-0.81640625,-0.63671875
1476,-0.0703125,-0.80859375,-0.6171875
1477,-0.05859375,-0.80859375,-0.625
1478,-0.05859375,-0.8125,-0.63671875
1479,-0.046875,-0.8203125,-0.6484375
1480,-0.0546875,-0.8046875,-0.62109375
1481,-0.046875,-0.82421875,-0.6328125
1482,-0.046875,-0.80859375,-0.64453125
1483,-0.06640625,-0.80859375,-0.63671875
1484,-0.0546875,-0.82421875,-0.6328125
1485,-0.0625,-0.80859375,-0.62890625
1486,-0.08203125,-0.8203125,-0.640625
1487,-0.08984375,-0.79296875,-0.61328125
1488,-0.0703125,-0.796875,-0.6328125
1489,-0.07421875,-0.8125,-0.62890625
1490,-0.078125,-0.79296875,-0.60546875
1491,-0.08203125,-0.79296875,-0.609375
1492,-0.0859375,-0.78515625,-0.625
1493,-0.0703125,-0.78125,-0.61328125
1494,-0.06640625,-0.7890625,-0.609375
1495,-0.0625,-0.78515625,-0.609375
1496,-0.07421875,-0.7890625,-0.6015625
1497,-0.06640625,-0.79296875,-0.609375
1498,-0.0625,-0.77734375,-0.609375
1499,-0.0625,-0.79296875,-0.6015625
1500,-0.06640625,-0.78125,-0.6171875
1501,-0.0703125,-0.80078125,-0.59765625
1502,-0.0625,-0.78515625,-0.60546875
1503,-0.0546875,-0.79296875,-0.61328125
1504,-0.0703125,-0.796875,-0.58984375
1505,-0.07421875,-0.79296875,-0.60546875
1506,-0.0703125,-0.76171875,-0.58203125
1507,-0.07421875,-0.796875,-0.60546875
1508,-0.07421875,-0.7890625,-0.61328125
1509,-0.0625,-0.78125,-0.58984375
1510,-0.078125,-0.78125,-0.6015625
1511,-0.078125,-0.7734375,-0.60546875
1512,-0.0703125,-0.78515625,-0.6015625
1513,-0.06640625,-0.7734375,-0.61328125
1514,-0.06640625,-0.7734375,-0.6015625
1515,-0.0625,-0.77734375,-0.60546875
1516,-0.0625,-0.77734375,-0.60546875
1517,-0.05078125,-0.765625,-0.6015625
1518,-0.0546875,-0.7734375,-0.6015625
1519,-0.0703125,-0.76171875,-0.609375
1520,-0.06640625,-0.76953125,-0.59375
1521,-0.0625,-0.765625,-0.59375
1522,-0.0625,-0.76953125,-0.62109375
1523,-0.0703125,-0.76953125,-0.6171875
1524,-0.08203125,-0.75,-0.609375
1525,-0.078125,-0.76953125,-0.6015625
1526,-0.08203125,-0.76953125,-0.61328125
1527,-0.0703125,-0.76171875,-0.59765625
1528,-0.0703125,-0.76171875,-0.6015625
1529,-0.078125,-0.76953125,-0.59765625
1530,-0.0625,-0.78515625,-0.6171875
1531,-0.078125,-0.78515625,-0.6015625
1532,-0.078125,-0.796875,-0.609375
1533,-0.0703125,-0.8046875,-0.6015625
1534,-0.0703125,-0.78515625,-0.6015625
1535,-0.07421875,-0.796875,-0.625
1536,-0.0703125,-0.80859375,-0.6015625
1537,-0.0546875,-0.8125,-0.609375
1538,-0.046875,-0.8125,-0.6015625
1539,-0.05859375,-0.80859375,-0.6328125
1540,-0.0703125,-0.80078125,-0.640625
1541,-0.0703125,-0.796875,-0.62109375
1542,-0.078125,-0.80078125,-0.62890625
1543,-0.07421875,-0.80078125,-0.63671875
1544,-0.08203125,-0.796875,-0.62890625
1545,-0.06640625,-0.78515625,-0.6328125
1546,-0.09375,-0.7890625,-0.625
1547,-0.0859375,-0.79296875,-0.6171875
1548,-0.07421875,-0.796875,-0.625
1549,-0.08203125,-0.796875,-0.62109375
1550,-0.078125,-0.80078125,-0.625
1551,-0.0703125,-0.79296875,-0.62109375
1552,-0.07421875,-0.8046875,-0.62109375
1553,-0.078125,-0.8125,-0.625
1554,-0.078125,-0.8046875,-0.63671875
1555,-0.08984375,-0.8046875,-0.640625
1556,-0.07421875,-0.796875,-0.640625
1557,-0.0703125,-0.80078125,-0.625
1558,-0.078125,-0.80078125,-0.6484375
1559,-0.0703125,-0.80078125,-0.62890625
1560,-0.08203125,-0.796875,-0.6015625
1561,-0.078125,-0.79296875,-0.63671875
1562,-0.08984375,-0.78125,-0.6171875
1563,-0.09765625,-0.7734375,-0.6171875
1564,-0.08984375,-0.78515625,-0.6328125
1565,-0.09765625,-0.78515625,-0.625
1566,-0.09375,-0.77734375,-0.62890625
1567,-0.0859375,-0.78515625,-0.6328125
1568,-0.08984375,-0.765625,-0.60546875
1569,-0.08984375,-0.7734375,-0.6171875
1570,-0.0703125,-0.78125,-0.625
1571,-0.078125,-0.78125,-0.6171875
1572,-0.0703125,-0.78515625,-0.61328125
1573,-0.07421875,-0.76953125,-0.6171875
1574,-0.0859375,-0.7734375,-0.61328125
1575,-0.0703125,-0.78125,-0.609375
1576,-0.078125,-0.76953125,-0.62109375
1577,-0.0703125,-0.77734375,-0.62109375
1578,-0.0703125,-0.7734375,-0.6171875
1579,-0.06640625,-0.78125,-0.609375
1580,-0.08203125,-0.76953125,-0.62109375
1581,-0.07421875,-0.79296875,-0.61328125
1582,-0.04296875,-0.765625,-0.60546875
1583,-0.07421875,-0.77734375,-0.6015625
1584,-0.078125,-0.78125,-0.60546875
1585,-0.078125,-0.77734375,-0.59765625
1586,-0.0703125,-0.78125,-0.59765625
1587,-0.0859375,-0.77734375,-0.61328125
1588,-0.08984375,-0.7734375,-0.61328125
1589,-0.08203125,-0.77734375,-0.6015625
1590,-0.0703125,-0.7890625,-0.6015625
1591,-0.07421875,-0.79296875,-0.59765625
1592,-0.0703125,-0.79296875,-0.62109375
1593,-0.08984375,-0.79296875,-0.60546875
1594,-0.07421875,-0.7890625,-0.6015625
1595,-0.078125,-0.78125,-0.6015625
1596,-0.0859375,-0.7734375,-0.61328125
1597,-0.08203125,-0.7734375,-0.609375
1598,-0.08984375,-0.765625,-0.62890625
1599,-0.07421875,-0.76171875,-0.62109375
1600,-0.08203125,-0.77734375,-0.6328125
1601,-0.08203125,-0.765625,-0.6328125
1602,-0.078125,-0.76171875,-0.62890625
1603,-0.078125,-0.7734375,-0.63671875
1604,-0.09765625,-0.8125,-0.640625
1605,-0.08984375,-0.77734375,-0.62890625
1606,-0.09375,-0.78125,-0.6328125
1607,-0.09375,-0.78515625,-0.625
1608,-0.09375,-0.78125,-0.625
1609,-0.1015625,-0.765625,-0.63671875
1610,-0.10546875,-0.76171875,-0.625
1611,-0.09765625,-0.76953125,-0.62109375
1612,-0.09765625,-0.75,-0.6328125
1613,-0.1015625,-0.765625,-0.625
1614,-0.10546875,-0.76953125,-0.62109375
1615,-0.08203125,-0.76953125,-0.625
1616,-0.0859375,-0.7734375,-0.6171875
1617,-0.0859375,-0.78125,-0.625
1618,-0.0859375,-0.78515625,-0.62109375
1619,-0.06640625,-0.80078125,-0.62109375
1620,-0.0625,-0.8046875,-0.62109375
1621,-0.0625,-0.8046875,-0.6328125
1622,-0.0703125,-0.8125,-0.63671875
1623,-0.078125,-0.80859375,-0.6328125
1624,-0.0859375,-0.79296875,-0.64453125
1625,-0.08984375,-0.80078125,-0.640625
1626,-0.09375,-0.80078125,-0.640625
1627,-0.09765625,-0.8125,-0.6328125
1628,-0.09765625,-0.80859375,-0.6171875
1629,-0.08984375,-0.796875,-0.62890625
1630,-0.08984375,-0.80078125,-0.62890625
1631,-0.11328125,-0.78125,-0.6171875
1632,-0.11328125,-0.80078125,-0.6171875
1633,-0.09765625,-0.80859375,-0.63671875
1634,-0.09765625,-0.8125,-0.6171875
1635,-0.10546875,-0.8203125,-0.625
1636,-0.109375,-0.82421875,-0.63671875
1637,-0.109375,-0.83203125,-0.640625
1638,-0.1015625,-0.83203125,-0.64453125
1639,-0.09765625,-0.84375,-0.65234375
1640,-0.11328125,-0.84375,-0.67578125
1641,-0.08984375,-0.84375,-0.671875
1642,-0.09375,-0.8515625,-0.71484375
1643,-0.09375,-0.83984375,-0.71484375
1644,-0.09765625,-0.84375,-0.70703125
1645,-0.0859375,-0.84375,-0.75
1646,-0.09375,-0.83984375,-0.75
1647,-0.09375,-0.83203125,-0.78125
1648,-0.09375,-0.84765625,-0.796875
1649,-0.09765625,-0.87109375,-0.8046875
1650,-0.11328125,-0.87109375,-0.80078125
1651,-0.1328125,-0.875,-0.8046875
1652,-0.125,-0.87890625,-0.80859375
1653,-0.1328125,-0.8828125,-0.828125
1654,-0.140625,-0.890625,-0.83203125
1655,-0.1328125,-0.8828125,-0.84765625
1656,-0.12109375,-0.890625,-0.8671875
1657,-0.109375,-0.90234375,-0.88671875
1658,-0.10546875,-0.89453125,-0.91796875
1659,-0.1171875,-0.87890625,-0.92578125
1660,-0.12890625,-0.8671875,-0.953125
1661,-0.1171875,-0.86328125,-0.9609375
1662,-0.125,-0.86328125,-0.96875
1663,-0.11328125,-0.86328125,-0.984375
1664,-0.12109375,-0.86328125,-1.01171875
1665,-0.11328125,-0.84765625,-1.00390625
1666,-0.09765625,-0.8671875,-0.99609375
1667,-0.09765625,-0.8671875,-0.99609375
1668,-0.09765625,-0.8671875,-0.98828125
1669,-0.0859375,-0.86328125,-0.98046875
1670,-0.11328125,-0.8515625,-0.98046875
1671,-0.10546875,-0.84765625,-0.96875
1672,-0.11328125,-0.83984375,-0.97265625
1673,-0.0859375,-0.8359375,-0.9609375
1674,-0.078125,-0.82421875,-0.98828125
1675,-0.07421875,-0.80078125,-0.9609375
1676,-0.078125,-0.77734375,-0.9609375
1677,-0.05078125,-0.796875,-0.94140625
1678,-0.0390625,-0.79296875,-0.9453125
1679,-0.03515625,-0.8203125,-0.91796875
1680,-0.04296875,-0.796875,-0.91796875
1681,-0.04296875,-0.79296875,-0.91796875
1682,-0.05078125,-0.7890625,-0.90234375
1683,-0.0703125,-0.78125,-0.90234375
1684,-0.0625,-0.78515625,-0.89453125
1685,-0.08203125,-0.7734375,-0.8984375
1686,-0.07421875,-0.75390625,-0.87109375
1687,-0.0625,-0.7265625,-0.87890625
1688,-0.08203125,-0.71875,-0.84375
1689,-0.07421875,-0.703125,-0.83984375
1690,-0.0703125,-0.6953125,-0.85546875
1691,-0.08203125,-0.6875,-0.8203125
1692,-0.078125,-0.6875,-0.80859375
1693,-0.0703125,-0.6796875,-0.8046875
1694,-0.0546875,-0.66796875,-0.8046875
1695,-0.05859375,-0.65234375,-0.79296875
1696,-0.0390625,-0.65625,-0.79296875
1697,-0.0390625,-0.65625,-0.80859375
1698,-0.03125,-0.66015625,-0.8203125
1699,-0.0234375,-0.65625,-0.80078125
1700,-0.00390625,-0.6640625,-0.796875
1701,-0.01171875,-0.66015625,-0.78515625
1702,-0.015625,-0.64453125,-0.79296875
1703,-0.00390625,-0.64453125,-0.76171875
1704,-0.00390625,-0.64453125,-0.765625
1705,0.0,-0.6328125,-0.75390625
1706,0.00390625,-0.6171875,-0.74609375
1707,-0.01171875,-0.59765625,-0.74609375
1708,-0.01171875,-0.58203125,-0.74609375
1709,-0.015625,-0.5703125,-0.734375
1710,-0.01953125,-0.55859375,-0.75
1711,-0.01171875,-0.5703125,-0.734375
1712,-0.0234375,-0.59375,-0.7421875
1713,-0.01171875,-0.5703125,-0.72265625
1714,-0.015625,-0.56640625,-0.7421875
1715,-0.00390625,-0.5625,-0.74609375
1716,-0.03125,-0.55078125,-0.7421875
1717,-0.02734375,-0.55078125,-0.7578125
1718,-0.0625,-0.5390625,-0.76953125
1719,-0.03515625,-0.55859375,-0.75390625
1720,-0.05078125,-0.55859375,-0.7578125
1721,-0.05078125,-0.57421875,-0.7734375
1722,-0.05078125,-0.5625,-0.77734375
1723,-0.046875,-0.57421875,-0.76953125
1724,-0.0546875,-0.57421875,-0.78515625
1725,-0.03515625,-0.5859375,-0.78125
1726,-0.04296875,-0.58203125,-0.78515625
1727,-0.05078125,-0.58984375,-0.81640625
1728,-0.01953125,-0.60546875,-0.8203125
1729,-0.05078125,-0.6015625,-0.82421875
1730,-0.06640625,-0.60546875,-0.83203125
1731,-0.0390625,-0.625,-0.8359375
1732,-0.0234375,-0.62890625,-0.83984375
1733,-0.01171875,-0.62109375,-0.859375
1734,-0.0234375,-0.63671875,-0.859375
1735,-0.01171875,-0.66796875,-0.85546875
1736,-0.015625,-0.66015625,-0.8671875
1737,-0.02734375,-0.66015625,-0.8515625
1738,-0.0234375,-0.671875,-0.859375
1739,-0.02734375,-0.67578125,-0.859375
1740,-0.01171875,-0.68359375,-0.83984375
1741,-0.03125,-0.6953125,-0.8359375
1742,-0.0625,-0.6796875,-0.83203125
1743,-0.0703125,-0.6875,-0.83203125
1744,-0.0625,-0.6953125,-0.8359375
1745,-0.06640625,-0.6875,-0.84765625
1746,-0.0625,-0.68359375,-0.84375
1747,-0.06640625,-0.68359375,-0.84375
1748,-0.0546875,-0.6640625,-0.86328125
1749,-0.0703125,-0.66015625,-0.87109375
1750,-0.0625,-0.65234375,-0.87109375
1751,-0.046875,-0.65234375,-0.875
1752,-0.0390625,-0.6484375,-0.87109375
1753,-0.0234375,-0.65625,-0.859375
1754,-0.015625,-0.66015625,-0.84375
1755,-0.0625,-0.65625,-0.90625
1756,-0.0234375,-0.65625,-0.8203125
1757,-0.03515625,-0.65625,-0.81640625
1758,-0.015625,-0.6796875,-0.82421875
1759,-0.0234375,-0.68359375,-0.8046875
1760,-0.046875,-0.67578125,-0.8125
1761,-0.04296875,-0.703125,-0.8125
1762,-0.05859375,-0.6875,-0.8046875
1763,-0.0625,-0.69140625,-0.796875
1764,-0.08203125,-0.69921875,-0.8125
1765,-0.0703125,-0.703125,-0.8046875
1766,-0.078125,-0.70703125,-0.79296875
1767,-0.0703125,-0.69921875,-0.8125
1768,-0.07421875,-0.70703125,-0.8203125
1769,-0.05859375,-0.69921875,-0.8203125
1770,-0.0625,-0.70703125,-0.82421875
1771,-0.046875,-0.6953125,-0.80859375
1772,-0.05859375,-0.6875,-0.8125
1773,-0.0625,-0.6953125,-0.8046875
1774,-0.0390625,-0.6875,-0.79296875
1775,-0.0546875,-0.69921875,-0.76171875
1776,-0.046875,-0.703125,-0.7578125
1777,-0.046875,-0.6796875,-0.7421875
1778,-0.03125,-0.6796875,-0.71875
1779,-0.046875,-0.6796875,-0.71875
1780,-0.04296875,-0.67578125,-0.703125
1781,-0.046875,-0.6796875,-0.70703125
1782,-0.046875,-0.6875,-0.68359375
1783,-0.0546875,-0.6640625,-0.703125
1784,-0.05078125,-0.65234375,-0.70703125
1785,-0.05078125,-0.671875,-0.703125
1786,-0.05859375,-0.66015625,-0.69921875
1787,-0.06640625,-0.66015625,-0.703125
1788,-0.078125,-0.68359375,-0.671875
1789,-0.06640625,-0.6953125,-0.6953125
1790,-0.08203125,-0.70703125,-0.6875
1791,-0.08203125,-0.70703125,-0.68359375
1792,-0.07421875,-0.70703125,-0.68359375
1793,-0.0859375,-0.71875,-0.671875
1794,-0.078125,-0.73046875,-0.6796875
1795,-0.07421875,-0.734375,-0.671875
1796,-0.08203125,-0.734375,-0.671875
1797,-0.08203125,-0.734375,-0.6640625
1798,-0.09375,-0.73046875,-0.671875
1799,-0.10546875,-0.71484375,-0.66796875
1800,-0.09375,-0.73046875,-0.66015625
1801,-0.08203125,-0.7265625,-0.64453125
1802,-0.078125,-0.72265625,-0.6328125
1803,-0.0859375,-0.71484375,-0.62109375
1804,-0.09375,-0.71484375,-0.61328125
1805,-0.08984375,-0.703125,-0.6171875
1806,-0.0859375,-0.71484375,-0.59375
1807,-0.09375,-0.7109375,-0.59375
1808,-0.08203125,-0.69140625,-0.609375
1809,-0.08984375,-0.70703125,-0.59375
1810,-0.078125,-0.71484375,-0.5859375
1811,-0.08984375,-0.71484375,-0.6015625
1812,-0.08203125,-0.71875,-0.59765625
1813,-0.0859375,-0.71875,-0.609375
1814,-0.07421875,-0.7265625,-0.60546875
1815,-0.078125,-0.7265625,-0.60546875
1816,-0.08203125,-0.734375,-0.59375
1817,-0.078125,-0.7421875,-0.58984375
1818,-0.08984375,-0.7421875,-0.6015625
1819,-0.09375,-0.75390625,-0.59375
1820,-0.08984375,-0.76171875,-0.578125
1821,-0.12109375,-0.78125,-0.57421875
1822,-0.09765625,-0.78515625,-0.5625
1823,-0.10546875,-0.78125,-0.5625
1824,-0.08984375,-0.8046875,-0.55859375
1825,-0.11328125,-0.80078125,-0.546875
1826,-0.09765625,-0.80078125,-0.55078125
1827,-0.0859375,-0.80859375,-0.53125
1828,-0.1015625,-0.8046875,-0.53515625
1829,-0.09765625,-0.80859375,-0.52734375
1830,-0.1171875,-0.8125,-0.53515625
1831,-0.09765625,-0.8203125,-0.53125
1832,-0.109375,-0.8125,-0.53125
1833,-0.1015625,-0.82421875,-0.546875
1834,-0.109375,-0.8125,-0.53125
1835,-0.09765625,-0.80859375,-0.5390625
1836,-0.10546875,-0.80078125,-0.53125
1837,-0.09765625,-0.81640625,-0.51171875
1838,-0.09765625,-0.828125,-0.51953125
1839,-0.1015625,-0.82421875,-0.5078125
1840,-0.09765625,-0.8359375,-0.50390625
1841,-0.09765625,-0.828125,-0.4921875
1842,-0.09765625,-0.83203125,-0.49609375
1843,-0.08984375,-0.83203125,-0.48046875
1844,-0.1171875,-0.83203125,-0.46875
1845,-0.10546875,-0.828125,-0.47265625
1846,-0.08984375,-0.82421875,-0.45703125
1847,-0.1015625,-0.8203125,-0.4453125
1848,-0.09765625,-0.8203125,-0.44140625
1849,-0.09375,-0.8203125,-0.43359375
1850,-0.0859375,-0.80859375,-0.4296875
1851,-0.08984375,-0.82421875,-0.42578125
1852,-0.0859375,-0.8125,-0.41015625
1853,-0.08203125,-0.8203125,-0.42578125
1854,-0.08203125,-0.8046875,-0.421875
1855,-0.07421875,-0.80859375,-0.421875
1856,-0.0625,-0.80859375,-0.42578125
1857,-0.06640625,-0.8125,-0.42578125
1858,-0.08203125,-0.80859375,-0.421875
1859,-0.078125,-0.796875,-0.4140625
1860,-0.08203125,-0.7890625,-0.41796875
1861,-0.08203125,-0.796875,-0.41796875
1862,-0.0703125,-0.79296875,-0.390625
1863,-0.08203125,-0.796875,-0.39453125
1864,-0.0625,-0.77734375,-0.40234375
1865,-0.08203125,-0.8046875,-0.36328125
1866,-0.0859375,-0.7890625,-0.35546875
1867,-0.09375,-0.79296875,-0.34765625
1868,-0.09765625,-0.7890625,-0.35546875
1869,-0.08984375,-0.8046875,-0.3359375
1870,-0.0859375,-0.796875,-0.33203125
1871,-0.0859375,-0.79296875,-0.34375
1872,-0.07421875,-0.7890625,-0.359375
1873,-0.09375,-0.796875,-0.33984375
1874,-0.07421875,-0.7890625,-0.3515625
1875,-0.078125,-0.79296875,-0.36328125
1876,-0.08203125,-0.78125,-0.359375
1877,-0.08203125,-0.78515625,-0.35546875
1878,-0.078125,-0.7734375,-0.359375
1879,-0.07421875,-0.7734375,-0.34375
1880,-0.07421875,-0.75390625,-0.3359375
1881,-0.078125,-0.765625,-0.3359375
1882,-0.078125,-0.76171875,-0.33203125
1883,-0.078125,-0.76953125,-0.33203125
1884,-0.05859375,-0.7734375,-0.33203125
1885,-0.06640625,-0.76953125,-0.3203125
1886,-0.08984375,-0.7578125,-0.328125
1887,-0.0703125,-0.7734375,-0.31640625
1888,-0.0703125,-0.78125,-0.3125
1889,-0.0625,-0.77734375,-0.296875
1890,-0.0625,-0.80078125,-0.296875
1891,-0.0703125,-0.80859375,-0.2734375
1892,-0.078125,-0.83203125,-0.28515625
1893,-0.08203125,-0.84375,-0.27734375
1894,-0.1015625,-0.84765625,-0.26953125
1895,-0.08984375,-0.87890625,-0.28515625
1896,-0.08203125,-0.87890625,-0.3125
1897,-0.08984375,-0.88671875,-0.30078125
1898,-0.09375,-0.87890625,-0.3203125
1899,-0.09375,-0.88671875,-0.328125
1900,-0.09375,-0.8828125,-0.3359375
1901,-0.08203125,-0.86328125,-0.32421875
1902,-0.08984375,-0.85546875,-0.328125
1903,-0.08203125,-0.8515625,-0.3203125
1904,-0.07421875,-0.83984375,-0.31640625
1905,-0.0859375,-0.83203125,-0.3125
1906,-0.06640625,-0.8125,-0.2890625
1907,-0.07421875,-0.80859375,-0.2890625
1908,-0.05859375,-0.8359375,-0.265625
1909,-0.0625,-0.8046875,-0.265625
1910,-0.04296875,-0.81640625,-0.2578125
1911,-0.0625,-0.83203125,-0.234375
1912,-0.04296875,-0.8359375,-0.21875
1913,-0.04296875,-0.8359375,-0.21484375
1914,-0.05078125,-0.8515625,-0.22265625
1915,-0.046875,-0.86328125,-0.21484375
1916,-0.0390625,-0.87890625,-0.20703125
1917,-0.046875,-0.89453125,-0.2265625
1918,-0.046875,-0.90625,-0.2265625
1919,-0.03125,-0.9140625,-0.23828125
1920,-0.03515625,-0.92578125,-0.23828125
1921,-0.03125,-0.9296875,-0.234375
1922,-0.01953125,-0.9453125,-0.23046875
1923,-0.0234375,-0.94921875,-0.22265625
1924,-0.03125,-0.953125,-0.2265625
1925,-0.0390625,-0.95703125,-0.22265625
1926,-0.04296875,-0.95703125,-0.22265625
1927,-0.04296875,-0.953125,-0.203125
1928,-0.046875,-0.94140625,-0.20703125
1929,-0.05078125,-0.9375,-0.2109375
1930,-0.04296875,-0.95703125,-0.21484375
1931,-0.05859375,-0.9453125,-0.1953125
1932,-0.05859375,-0.93359375,-0.19921875
1933,-0.05859375,-0.93359375,-0.1875
1934,-0.0625,-0.94140625,-0.18359375
1935,-0.0546875,-0.93359375,-0.1875
1936,-0.05078125,-0.94921875,-0.17578125
1937,-0.05859375,-0.9375,-0.19140625
1938,-0.05859375,-0.94140625,-0.1796875
1939,-0.05859375,-0.9375,-0.1796875
1940,-0.0703125,-0.92578125,-0.18359375
1941,-0.05078125,-0.9453125,-0.16796875
1942,-0.05859375,-0.94921875,-0.16796875
1943,-0.0546875,-0.9453125,-0.15625
1944,-0.0546875,-0.9609375,-0.16015625
1945,-0.0546875,-0.96484375,-0.16796875
1946,-0.05078125,-0.9609375,-0.15625
1947,-0.046875,-0.953125,-0.16796875
1948,-0.04296875,-0.96484375,-0.17578125
1949,-0.04296875,-0.9609375,-0.1796875
1950,-0.046875,-0.9375,-0.171875
1951,-0.04296875,-0.953125,-0.1796875
1952,-0.0390625,-0.94140625,-0.13671875
1953,-0.02734375,-0.953125,-0.171875
1954,-0.015625,-0.94921875,-0.1640625
1955,-0.01171875,-0.953125,-0.17578125
1956,-0.015625,-0.96484375,-0.1640625
1957,-0.01171875,-0.97265625,-0.16796875
1958,-0.0078125,-0.9765625,-0.16015625
1959,-0.01171875,-0.97265625,-0.15234375
1960,-0.0078125,-0.9765625,-0.140625
1961,0.0,-0.98828125,-0.15234375
1962,-0.00390625,-0.98046875,-0.13671875
1963,0.0,-0.98046875,-0.13671875
1964,-0.0078125,-0.98828125,-0.13671875
1965,-0.00390625,-0.984375,-0.13671875
1966,-0.01171875,-0.984375,-0.14453125
1967,-0.01953125,-0.98828125,-0.14453125
1968,-0.015625,-0.98046875,-0.1484375
1969,-0.0078125,-0.97265625,-0.15625
1970,-0.01953125,-0.96875,-0.14453125
1971,-0.03125,-0.9765625,-0.140625
1972,-0.02734375,-0.96875,-0.13671875
1973,-0.03125,-0.9765625,-0.12890625
1974,-0.02734375,-0.9765625,-0.13671875
1975,-0.03515625,-0.98046875,-0.13671875
1976,-0.03125,-0.984375,-0.12109375
1977,-0.02734375,-0.9921875,-0.12109375
1978,-0.02734375,-0.98828125,-0.11328125
1979,-0.03515625,-0.99609375,-0.11328125
1980,-0.03515625,-1.01171875,-0.1015625
1981,-0.04296875,-1.0078125,-0.0859375
1982,-0.03125,-0.99609375,-0.08203125
1983,-0.03125,-1.01171875,-0.078125
1984,-0.0234375,-1.01171875,-0.0859375
1985,-0.0234375,-1.0,-0.08984375
1986,-0.015625,-0.99609375,-0.08984375
1987,-0.03125,-0.9765625,-0.08984375
1988,-0.0078125,-0.97265625,-0.11328125
1989,-0.015625,-0.95703125,-0.1171875
1990,-0.01171875,-0.96484375,-0.09765625
1991,-0.015625,-0.95703125,-0.11328125
1992,-0.015625,-0.9609375,-0.08984375
1993,-0.01953125,-0.953125,-0.109375
1994,-0.015625,-0.96875,-0.08984375
1995,-0.015625,-0.9609375,-0.08203125
1996,-0.01953125,-0.96875,-0.08203125
1997,-0.02734375,-0.98046875,-0.07421875
1998,-0.03125,-0.984375,-0.0703125
1999,-0.03515625,-0.98046875,-0.04296875
2000,-0.0390625,-0.9765625,-0.0625
2001,-0.0390625,-0.98828125,-0.07421875
2002,-0.02734375,-0.984375,-0.08203125
2003,-0.01953125,-0.97265625,-0.08203125
2004,-0.00390625,-0.97265625,-0.0859375
2005,-0.0078125,-0.98046875,-0.046875
2006,-0.0078125,-0.9609375,-0.09375
2007,-0.015625,-0.97265625,-0.078125
2008,-0.00390625,-0.96875,-0.08203125
2009,0.0,-0.96484375,-0.09765625
2010,0.0,-0.96484375,-0.0859375
2011,-0.00390625,-0.96484375,-0.08203125
2012,-0.015625,-0.97265625,-0.109375
2013,-0.00390625,-0.9765625,-0.08984375
2014,-0.01953125,-0.98046875,-0.109375
2015,-0.015625,-0.97265625,-0.10546875
2016,-0.0234375,-0.99609375,-0.10546875
2017,-0.0078125,-1.0078125,-0.08984375
2018,-0.01171875,-1.01953125,-0.1015625
2019,-0.0234375,-1.02734375,-0.1171875
2020,-0.0234375,-1.04296875,-0.09765625
2021,-0.01171875,-1.05078125,-0.11328125
2022,-0.015625,-1.0625,-0.11328125
2023,-0.01171875,-1.078125,-0.12109375
2024,-0.015625,-1.06640625,-0.1328125
2025,-0.0234375,-1.0703125,-0.13671875
2026,-0.02734375,-1.0859375,-0.140625
2027,-0.03125,-1.08203125,-0.13671875
2028,-0.04296875,-1.078125,-0.125
2029,-0.0546875,-1.0859375,-0.125
2030,-0.0625,-1.09375,-0.12109375
2031,-0.0703125,-1.08203125,-0.109375
2032,-0.08203125,-1.078125,-0.1015625
2033,-0.06640625,-1.0703125,-0.10546875
2034,-0.08203125,-1.05859375,-0.0859375
2035,-0.08203125,-1.046875,-0.078125
2036,-0.0625,-1.02734375,-0.07421875
2037,-0.05859375,-1.0078125,-0.0859375
2038,-0.08203125,-0.984375,-0.08984375
2039,-0.04296875,-0.9921875,-0.0703125
2040,-0.02734375,-0.99609375,-0.07421875
2041,-0.03515625,-0.97265625,-0.06640625
2042,-0.02734375,-0.984375,-0.06640625
2043,-0.02734375,-0.984375,-0.07421875
2044,-0.0234375,-0.9765625,-0.05078125
2045,-0.01171875,-0.98046875,-0.0625
2046,-0.02734375,-0.97265625,-0.05078125
2047,-0.0078125,-0.97265625,-0.04296875
2048,-0.01953125,-0.97265625,-0.04296875
2049,-0.01171875,-0.9765625,-0.04296875
2050,0.0,-0.96875,-0.04296875
2051,-0.0078125,-0.9609375,-0.05078125
2052,0.0,-0.97265625,-0.0625
2053,0.0,-0.9609375,-0.0703125
2054,0.0,-0.96484375,-0.05078125
2055,0.0,-0.96484375,-0.0703125
2056,0.0,-0.96875,-0.0546875
2057,-0.015625,-0.96875,-0.0390625
2058,-0.015625,-0.97265625,-0.0546875
2059,-0.02734375,-0.98046875,-0.046875
2060,-0.03515625,-0.9765625,-0.10546875
2061,-0.0234375,-0.98828125,0.015625
2062,-0.03515625,-0.97265625,-0.078125
2063,-0.0625,-1.0390625,-0.0625
2064,-0.046875,-0.96484375,-0.0390625
2065,-0.03125,-0.96484375,-0.05859375
2066,-0.03125,-1.01171875,-0.07421875
2067,-0.03515625,-0.94140625,-0.078125
2068,-0.0625,-1.0,-0.06640625
2069,-0.05078125,-1.0078125,-0.08203125
2070,-0.0390625,-1.0078125,-0.0546875
2071,-0.0625,-0.99609375,-0.078125
2072,-0.0546875,-1.00390625,-0.078125
2073,-0.0546875,-1.00390625,-0.078125
2074,-0.05859375,-1.00390625,-0.08203125
2075,-0.05859375,-1.00390625,-0.06640625
2076,-0.04296875,-1.01171875,-0.1171875
2077,-0.0546875,-1.06640625,-0.07421875
2078,-0.046875,-0.99609375,-0.08984375
2079,-0.02734375,-0.9609375,-0.07421875
2080,-0.01953125,-1.02734375,-0.078125
2081,-0.046875,-0.984375,-0.0859375
2082,-0.03515625,-0.9921875,-0.05078125
2083,-0.01953125,-1.00390625,-0.046875
2084,0.0234375,-0.99609375,-0.08203125
2085,-0.02734375,-1.01953125,-0.078125
2086,-0.03125,-1.01171875,-0.1015625
2087,-0.015625,-1.01953125,-0.08984375
2088,-0.015625,-1.0078125,-0.0859375
2089,-0.0234375,-1.0,-0.08203125
2090,-0.05078125,-1.00390625,-0.06640625
2091,0.02734375,-0.984375,-0.10546875
2092,-0.03125,-0.9609375,-0.0703125
2093,-0.01171875,-0.984375,-0.0859375
2094,-0.0625,-0.9765625,-0.0546875
2095,-0.03125,-1.03125,-0.05859375
2096,-0.01953125,-0.95703125,-0.05859375
2097,-0.0234375,-0.984375,-0.02734375
2098,-0.0390625,-0.9921875,-0.04296875
2099,-0.046875,-1.0078125,-0.01953125
2100,-0.09375,-0.984375,-0.02734375
2101,-0.0546875,-0.99609375,-0.05859375
2102,-0.05078125,-0.984375,-0.0546875
2103,-0.046875,-0.9765625,-0.05859375
2104,-0.046875,-0.97265625,-0.0546875
2105,-0.03515625,-0.97265625,-0.01953125
2106,-0.04296875,-0.984375,-0.0546875
2107,-0.04296875,-0.9375,-0.05859375
2108,-0.0234375,-0.95703125,-0.08203125
2109,-0.04296875,-0.9921875,-0.05078125
2110,-0.02734375,-0.9921875,-0.04296875
2111,-0.03125,-0.98828125,-0.06640625
2112,0.00390625,-0.96484375,-0.06640625
2113,-0.0078125,-0.98046875,-0.08984375
2114,-0.0078125,-0.98046875,-0.07421875
2115,-0.0078125,-0.99609375,-0.05859375
2116,-0.0078125,-0.9921875,-0.0703125
2117,-0.015625,-0.99609375,-0.078125
2118,-0.01171875,-0.9921875,-0.07421875
2119,0.0,-0.9921875,-0.08984375
2120,-0.01171875,-1.0,-0.109375
2121,-0.01171875,-0.9765625,-0.12109375
2122,0.00390625,-0.96484375,-0.12109375
2123,-0.015625,-0.9765625,-0.05859375
2124,-0.01953125,-0.98828125,-0.0703125
2125,-0.0078125,-1.00390625,-0.12890625
2126,-0.03515625,-0.98828125,-0.0859375
2127,-0.0078125,-1.0234375,-0.1171875
2128,-0.0234375,-1.046875,-0.078125
2129,-0.015625,-1.01953125,-0.1171875
2130,-0.046875,-1.0390625,-0.03125
2131,-0.01953125,-1.03125,-0.0859375
2132,-0.0234375,-1.01953125,-0.0859375
2133,-0.03515625,-1.01171875,-0.0859375
2134,-0.02734375,-1.0078125,-0.1015625
2135,-0.01953125,-1.02734375,-0.08984375
2136,0.00390625,-0.99609375,-0.12890625
2137,-0.02734375,-1.01953125,-0.109375
2138,-0.00390625,-0.98046875,-0.09375
2139,-0.0390625,-0.9765625,-0.15234375
2140,-0.00390625,-1.04296875,-0.09375
2141,-0.08203125,-0.98046875,-0.1328125
2142,-0.015625,-1.0078125,-0.10546875
2143,-0.0078125,-1.0078125,-0.07421875
2144,-0.00390625,-1.03515625,-0.140625
2145,-0.05078125,-1.01953125,-0.12109375
2146,-0.01953125,-1.01953125,-0.1171875
2147,-0.01953125,-1.01171875,-0.09765625
2148,-0.015625,-1.015625,-0.12109375
2149,-0.03515625,-1.03125,-0.09765625
2150,-0.03125,-1.0234375,-0.09765625
2151,-0.01171875,-1.0390625,-0.1640625
2152,-0.015625,-1.00390625,-0.1015625
2153,-0.05078125,-1.01953125,-0.13671875
2154,-0.03125,-1.00390625,-0.125
2155,-0.05078125,-0.9765625,-0.08203125
2156,-0.01953125,-0.99609375,-0.09765625
2157,-0.0234375,-1.01171875,-0.09375
2158,-0.0234375,-1.0078125,-0.09765625
2159,-0.03125,-1.00390625,-0.08984375
2160,-0.03515625,-0.99609375,-0.11328125
2161,-0.03125,-0.99609375,-0.10546875
2162,-0.03125,-0.99609375,-0.09375
2163,-0.03515625,-0.9921875,-0.1015625
2164,-0.015625,-0.984375,-0.109375
2165,-0.0390625,-0.98046875,-0.10546875
2166,-0.0390625,-0.984375,-0.10546875
2167,-0.03125,-0.98046875,-0.10546875
2168,-0.03125,-0.98046875,-0.09375
2169,-0.0390625,-0.98046875,-0.10546875
2170,-0.04296875,-0.9921875,-0.09765625
2171,-0.0390625,-0.99609375,-0.10546875
2172,-0.0390625,-0.9921875,-0.10546875
2173,-0.04296875,-1.0078125,-0.10546875
2174,-0.046875,-0.9921875,-0.1171875
2175,-0.03125,-1.0,-0.10546875
2176,-0.0390625,-1.00390625,-0.11328125
2177,-0.03515625,-0.99609375,-0.08984375
2178,-0.02734375,-1.00390625,-0.12109375
2179,-0.0390625,-1.015625,-0.08203125
2180,-0.0390625,-0.9921875,-0.08984375
2181,-0.02734375,-0.9921875,-0.1171875
2182,-0.03125,-0.984375,-0.109375
2183,-0.02734375,-0.9765625,-0.1171875
2184,-0.00390625,-0.98828125,-0.12109375
2185,-0.03125,-0.98046875,-0.12109375
2186,-0.03515625,-0.9921875,-0.10546875
2187,-0.02734375,-1.0,-0.09765625
2188,-0.02734375,-0.9921875,-0.12890625
2189,-0.0390625,-0.99609375,-0.1171875
2190,-0.0625,-1.0234375,-0.0859375
2191,-0.02734375,-1.0078125,-0.1328125
2192,-0.03515625,-1.0078125,-0.109375
2193,-0.03515625,-1.00390625,-0.1171875
2194,-0.03125,-1.00390625,-0.12109375
2195,-0.03515625,-1.00390625,-0.125
2196,-0.02734375,-1.01171875,-0.10546875
2197,-0.01953125,-1.01171875,-0.12890625
2198,-0.01953125,-1.00390625,-0.12890625
2199,-0.02734375,-0.99609375,-0.109375
2200,-0.03125,-1.0,-0.1328125
2201,-0.03515625,-0.99609375,-0.12109375
2202,-0.02734375,-1.015625,-0.11328125
2203,-0.03125,-1.0078125,-0.12109375
2204,-0.02734375,-1.00390625,-0.13671875
2205,-0.03125,-1.01171875,-0.1171875
2206,-0.03515625,-1.00390625,-0.1171875
2207,-0.046875,-1.0,-0.109375
2208,-0.02734375,-0.99609375,-0.11328125
2209,-0.0390625,-0.99609375,-0.1171875
2210,-0.03515625,-0.984375,-0.12890625
2211,-0.03515625,-0.9921875,-0.125
2212,-0.01171875,-0.96875,-0.13671875
2213,-0.03515625,-0.99609375,-0.109375
2214,-0.03515625,-0.984375,-0.1171875
2215,-0.0390625,-0.98828125,-0.125
2216,-0.03515625,-0.98828125,-0.12890625
2217,-0.03515625,-0.99609375,-0.109375
2218,-0.0390625,-1.0078125,-0.109375
2219,-0.0234375,-1.0078125,-0.10546875
2220,-0.0390625,-1.0,-0.1328125
2221,-0.03125,-1.0078125,-0.125
2222,-0.03125,-1.01953125,-0.11328125
2223,-0.03125,-1.00390625,-0.12109375
2224,-0.01953125,-1.00390625,-0.125
2225,-0.0390625,-1.0,-0.1171875
2226,-0.03125,-1.0,-0.12109375
2227,-0.03125,-0.9921875,-0.12109375
2228,-0.03515625,-0.984375,-0.12109375
2229,-0.02734375,-1.0,-0.12890625
2230,-0.015625,-0.9921875,-0.08984375
2231,-0.03125,-1.00390625,-0.10546875
2232,-0.03515625,-1.00390625,-0.109375
2233,-0.0234375,-1.00390625,-0.1015625
2234,-0.03125,-1.0,-0.09765625
2235,-0.03125,-0.984375,-0.109375
2236,-0.03515625,-0.9921875,-0.11328125
2237,-0.0390625,-0.99609375,-0.09765625
2238,-0.02734375,-1.015625,-0.125
2239,-0.03125,-0.9921875,-0.1015625
2240,-0.02734375,-1.0,-0.10546875
2241,-0.02734375,-1.0,-0.08984375
2242,-0.02734375,-1.0,-0.1015625
2243,-0.03515625,-0.9921875,-0.11328125
2244,-0.03125,-0.99609375,-0.109375
2245,-0.0234375,-1.0,-0.1171875
2246,-0.03125,-0.98046875,-0.10546875
2247,-0.03515625,-0.984375,-0.10546875
2248,-0.03515625,-0.98046875,-0.109375
2249,-0.03125,-0.984375,-0.11328125
2250,-0.02734375,-0.98828125,-0.1015625
2251,-0.03125,-0.984375,-0.09375
2252,-0.01953125,-0.9765625,-0.1171875
2253,-0.01953125,-1.0,-0.109375
2254,-0.03515625,-1.0,-0.09765625
2255,-0.01171875,-0.98828125,-0.09765625
2256,-0.02734375,-0.98828125,-0.11328125
2257,-0.02734375,-1.0078125,-0.09765625
2258,-0.03515625,-0.99609375,-0.10546875
2259,-0.03125,-1.00390625,-0.12109375
2260,-0.03125,-1.0078125,-0.109375
2261,-0.0234375,-1.00390625,-0.109375
2262,-0.03125,-1.0078125,-0.09375
2263,-0.03125,-0.99609375,-0.10546875
2264,-0.03515625,-0.99609375,-0.10546875
2265,-0.03515625,-0.9921875,-0.1015625
2266,-0.0234375,-0.99609375,-0.11328125
2267,-0.02734375,-1.0,-0.10546875
2268,-0.0390625,-0.99609375,-0.11328125
2269,-0.01171875,-0.98828125,-0.09765625
2270,-0.02734375,-0.99609375,-0.109375
2271,-0.01171875,-1.00390625,-0.12890625
2272,-0.03125,-0.99609375,-0.10546875
2273,-0.0234375,-0.99609375,-0.109375
2274,-0.0234375,-1.00390625,-0.1015625
2275,-0.015625,-1.0,-0.09765625
2276,-0.015625,-1.0,-0.109375
2277,0.0,-0.99609375,-0.12109375
2278,-0.02734375,-0.98828125,-0.109375
2279,-0.03125,-0.9921875,-0.11328125
2280,-0.015625,-1.00390625,-0.12109375
2281,-0.04296875,-0.99609375,-0.10546875
2282,-0.03125,-0.984375,-0.11328125
2283,-0.0390625,-0.9921875,-0.09765625
2284,-0.02734375,-0.98046875,-0.12109375
2285,-0.0390625,-0.99609375,-0.1015625
2286,-0.02734375,-1.00390625,-0.1015625
2287,-0.04296875,-0.9921875,-0.10546875
2288,-0.04296875,-0.9921875,-0.11328125
2289,-0.0390625,-0.99609375,-0.1015625
2290,-0.03515625,-1.00390625,-0.09375
2291,-0.0234375,-1.0078125,-0.11328125
2292,-0.03515625,-1.0,-0.1171875
2293,-0.01953125,-1.0,-0.1171875
2294,-0.0234375,-1.0,-0.11328125
2295,-0.03515625,-0.98828125,-0.1171875
2296,-0.0234375,-1.0078125,-0.10546875
2297,-0.03125,-1.0,-0.12109375
2298,-0.01953125,-1.0,-0.09375
2299,-0.05078125,-1.00390625,-0.0859375
2300,-0.02734375,-0.9921875,-0.10546875
2301,-0.03515625,-1.00390625,-0.11328125
2302,-0.02734375,-1.00390625,-0.09375
2303,-0.0234375,-0.99609375,-0.1015625
2304,-0.03515625,-1.0078125,-0.109375
2305,-0.01953125,-1.0,-0.09765625
2306,-0.04296875,-0.98828125,-0.109375
2307,-0.02734375,-0.99609375,-0.09765625
2308,-0.02734375,-1.00390625,-0.08984375
2309,-0.03125,-1.0078125,-0.1015625
2310,-0.03125,-0.99609375,-0.09765625
2311,-0.03125,-0.9921875,-0.09765625
2312,-0.02734375,-0.99609375,-0.09765625
2313,-0.03125,-0.9921875,-0.109375
2314,-0.02734375,-0.9765625,-0.109375
2315,-0.03515625,-0.984375,-0.109375
2316,-0.03125,-0.984375,-0.109375
2317,-0.015625,-0.984375,-0.10546875
2318,-0.02734375,-0.98828125,-0.12109375
2319,-0.0234375,-0.99609375,-0.11328125
2320,-0.0234375,-1.00390625,-0.11328125
2321,-0.02734375,-1.0078125,-0.1171875
2322,-0.03515625,-0.99609375,-0.10546875
2323,-0.015625,-0.99609375,-0.10546875
2324,-0.02734375,-0.99609375,-0.0859375
2325,-0.03125,-1.0078125,-0.09765625
2326,-0.03125,-0.99609375,-0.09375
2327,-0.0390625,-1.00390625,-0.12109375
2328,-0.03125,-0.99609375,-0.12109375
2329,-0.015625,-0.98828125,-0.1328125
2330,-0.01953125,-0.98828125,-0.1171875
2331,-0.01953125,-0.98828125,-0.125
2332,-0.0234375,-0.984375,-0.125
2333,-0.0234375,-1.0,-0.09375
2334,-0.0234375,-0.99609375,-0.11328125
2335,-0.03515625,-1.0,-0.10546875
2336,-0.01171875,-1.00390625,-0.09375
2337,-0.015625,-1.0078125,-0.1015625
2338,-0.0390625,-1.015625,-0.109375
2339,-0.03125,-1.00390625,-0.1015625
2340,-0.03125,-1.0,-0.1015625
2341,-0.03125,-0.99609375,-0.0859375
2342,-0.02734375,-1.0234375,-0.10546875
2343,-0.03515625,-0.99609375,-0.109375
2344,-0.02734375,-1.00390625,-0.09375
2345,-0.0234375,-0.9921875,-0.09375
2346,-0.0234375,-0.9921875,-0.0859375
2347,-0.03125,-0.9921875,-0.09375
2348,-0.0234375,-0.98828125,-0.1015625
2349,-0.015625,-0.9921875,-0.10546875
2350,-0.0078125,-0.9921875,-0.078125
2351,-0.00390625,-1.0078125,-0.08984375
2352,-0.02734375,-0.98828125,-0.1015625
2353,-0.00390625,-1.0,-0.08984375
2354,-0.015625,-1.0,-0.10546875
2355,-0.015625,-0.99609375,-0.109375
2356,-0.0234375,-1.0,-0.09765625
2357,-0.02734375,-0.99609375,-0.1015625
2358,-0.03125,-0.984375,-0.10546875
2359,-0.0234375,-1.0,-0.08203125
2360,-0.01171875,-1.00390625,-0.1015625
2361,-0.015625,-0.99609375,-0.1171875
2362,-0.0234375,-0.99609375,-0.11328125
2363,-0.03515625,-1.00390625,-0.10546875
2364,-0.01953125,-1.00390625,-0.109375
2365,-0.02734375,-0.99609375,-0.1171875
2366,-0.03125,-0.98828125,-0.10546875
2367,-0.015625,-0.9921875,-0.10546875
2368,-0.01953125,-1.0078125,-0.1015625
2369,-0.03125,-0.99609375,-0.09375
2370,-0.0234375,-1.00390625,-0.09375
2371,-0.0234375,-1.0078125,-0.1015625
2372,-0.01171875,-1.015625,-0.09375
2373,-0.015625,-1.00390625,-0.1015625
2374,-0.03515625,-1.0,-0.08984375
2375,-0.0234375,-1.01171875,-0.10546875
2376,-0.01171875,-1.00390625,-0.09375
2377,-0.01171875,-1.00390625,-0.11328125
2378,-0.01171875,-1.0,-0.10546875
2379,-0.02734375,-1.0,-0.08984375
2380,-0.01953125,-1.0,-0.09765625
2381,-0.02734375,-1.0,-0.0859375
2382,-0.02734375,-0.98828125,-0.08984375
2383,-0.00390625,-1.0,-0.10546875
2384,-0.0078125,-1.0078125,-0.09375
2385,-0.01953125,-0.98828125,-0.0859375
2386,-0.0078125,-0.98828125,-0.10546875
2387,-0.0234375,-0.984375,-0.10546875
2388,-0.02734375,-0.99609375,-0.109375
2389,-0.0234375,-0.9921875,-0.10546875
2390,-0.015625,-0.9921875,-0.09765625
2391,-0.0234375,-1.0,-0.10546875
2392,-0.03125,-0.99609375,-0.1015625
2393,-0.0234375,-0.99609375,-0.08203125
2394,-0.02734375,-0.99609375,-0.08984375
2395,-0.01953125,-1.0078125,-0.0859375
2396,-0.0234375,-0.99609375,-0.0859375
2397,-0.01953125,-0.99609375,-0.0859375
2398,-0.03125,-0.9921875,-0.09375
2399,-0.03515625,-0.9921875,-0.10546875
