,accelerometerAccelerationX(G),accelerometerAccelerationY(G),accelerometerAccelerationZ(G)
0,0.0,-0.984375,0.09765625
1,0.00390625,-0.9921875,0.1015625
2,0.0,-0.98046875,0.1171875
3,-0.01953125,-0.9765625,0.109375
4,0.0078125,-0.97265625,0.1171875
5,0.01953125,-0.96484375,0.08984375
6,0.01171875,-0.953125,0.08984375
7,0.0078125,-0.94921875,0.07421875
8,0.015625,-0.953125,0.08203125
9,0.015625,-0.95703125,0.06640625
10,0.00390625,-0.96484375,0.0625
11,0.0234375,-0.95703125,0.0703125
12,0.01171875,-0.96484375,0.05078125
13,0.00390625,-0.94140625,0.0546875
14,0.01171875,-0.96484375,0.046875
15,0.015625,-0.94921875,0.07421875
16,0.02734375,-0.96484375,0.0234375
17,0.0078125,-0.97265625,0.04296875
18,0.00390625,-0.96875,0.03515625
19,0.0078125,-0.97265625,0.046875
20,0.01171875,-0.96484375,0.0390625
21,0.0,-0.98046875,0.04296875
22,0.00390625,-0.95703125,0.0390625
23,0.00390625,-0.97265625,0.06640625
24,0.0078125,-0.96484375,0.05859375
25,0.0078125,-0.96875,0.07421875
26,0.01171875,-0.98046875,0.078125
27,0.00390625,-0.96484375,0.09375
28,0.00390625,-0.9609375,0.0625
29,0.00390625,-0.953125,0.06640625
30,0.0078125,-0.9609375,0.08203125
31,0.01171875,-0.9609375,0.078125
32,0.00390625,-0.95703125,0.05859375
33,0.0078125,-0.9609375,0.0703125
34,0.0,-0.95703125,0.0859375
35,0.00390625,-0.96875,0.0625
36,-0.0078125,-0.96484375,0.0625
37,0.00390625,-0.96484375,0.04296875
38,0.0078125,-0.97265625,0.0546875
39,0.00390625,-0.9609375,0.06640625
40,0.0078125,-0.9609375,0.0546875
41,0.00390625,-0.97265625,0.0546875
42,0.01171875,-0.96875,0.06640625
43,0.01171875,-0.984375,0.07421875
44,0.0078125,-0.9609375,0.05859375
45,0.0,-0.953125,0.05859375
46,0.0078125,-0.96484375,0.07421875
47,0.01171875,-0.96875,0.07421875
48,0.01171875,-0.96484375,0.0625
49,0.00390625,-0.96875,0.0625
50,0.00390625,-0.95703125,0.0625
51,-0.00390625,-0.953125,0.05078125
52,0.0078125,-0.96875,0.06640625
53,0.0,-0.9609375,0.0546875
54,0.0,-0.96484375,0.0625
55,0.00390625,-0.9765625,0.0546875
56,0.00390625,-0.96484375,0.04296875
57,0.01171875,-0.96484375,0.07421875
58,0.00390625,-0.9765625,0.0546875
59,0.00390625,-0.9765625,0.06640625
60,0.00390625,-0.96484375,0.05078125
61,0.00390625,-0.96875,0.046875
62,0.0078125,-0.9609375,0.05078125
63,0.00390625,-0.96484375,0.046875
64,0.01171875,-0.96484375,0.046875
65,0.01171875,-0.95703125,0.05859375
66,0.0,-0.9609375,0.04296875
67,0.0078125,-0.96484375,0.05859375
68,0.00390625,-0.97265625,0.05859375
69,0.0,-0.9765625,0.0546875
70,-0.00390625,-0.96484375,0.06640625
71,0.00390625,-0.96484375,0.0625
72,-0.00390625,-0.96875,0.0546875
73,0.0,-0.9609375,0.05859375
74,0.00390625,-0.97265625,0.0625
75,-0.0078125,-0.9765625,0.06640625
76,0.0,-0.9609375,0.0546875
77,0.0078125,-0.96875,0.05859375
78,0.00390625,-0.96484375,0.05859375
79,0.01171875,-0.96484375,0.0703125
80,-0.00390625,-0.9609375,0.04296875
81,0.0,-0.9609375,0.0546875
82,-0.00390625,-0.96484375,0.0703125
83,0.00390625,-0.96484375,0.05859375
84,0.00390625,-0.96875,0.046875
85,0.0,-0.95703125,0.05078125
86,0.00390625,-0.96484375,0.05078125
87,0.0,-0.9453125,0.04296875
88,0.0,-0.9453125,0.0625
89,-0.0078125,-0.953125,0.07421875
90,-0.0234375,-0.9453125,0.0703125
91,-0.0078125,-0.953125,0.0625
92,-0.015625,-0.95703125,0.0625
93,-0.02734375,-0.9609375,0.05078125
94,-0.01171875,-0.9765625,0.05078125
95,-0.03125,-0.98046875,0.05078125
96,-0.01953125,-0.98046875,0.0390625
97,-0.03515625,-0.98828125,0.046875
98,-0.0625,-0.97265625,0.0390625
99,-0.05078125,-0.9609375,0.04296875
100,-0.08984375,-0.953125,0.0234375
101,-0.07421875,-0.9765625,0.03125
102,-0.06640625,-0.95703125,0.03515625
103,-0.0859375,-0.94921875,0.0390625
104,-0.09375,-0.94921875,0.03515625
105,-0.09375,-0.953125,0.0390625
106,-0.07421875,-0.95703125,0.046875
107,-0.07421875,-0.95703125,0.04296875
108,-0.0703125,-0.9609375,0.03515625
109,-0.06640625,-0.9609375,0.0703125
110,-0.0546875,-0.97265625,0.0703125
111,-0.07421875,-0.9609375,0.078125
112,-0.06640625,-0.96875,0.05078125
113,-0.0546875,-0.97265625,0.04296875
114,-0.0625,-0.96875,0.046875
115,-0.0703125,-0.97265625,0.0390625
116,-0.07421875,-0.97265625,0.0390625
117,-0.08203125,-0.96875,0.0390625
118,-0.08203125,-0.96875,0.0078125
119,-0.09375,-0.96484375,0.02734375
120,-0.1015625,-0.94921875,0.01171875
121,-0.11328125,-0.94921875,0.01171875
122,-0.1171875,-0.94140625,0.01171875
123,-0.1328125,-0.9296875,0.0078125
124,-0.12890625,-0.921875,0.015625
125,-0.15234375,-0.91796875,0.01953125
126,-0.1484375,-0.921875,0.03125
127,-0.15625,-0.92578125,0.015625
128,-0.140625,-0.92578125,0.02734375
129,-0.14453125,-0.93359375,0.01953125
130,-0.125,-0.9453125,0.0234375
131,-0.125,-0.9375,0.0234375
132,-0.10546875,-0.94140625,0.03515625
133,-0.09765625,-0.953125,0.0078125
134,-0.09375,-0.93359375,0.0234375
135,-0.0859375,-0.953125,0.03125
136,-0.06640625,-0.94921875,0.01953125
137,-0.07421875,-0.94140625,0.0234375
138,-0.0703125,-0.95703125,0.015625
139,-0.05859375,-0.95703125,0.00390625
140,-0.05859375,-0.97265625,0.0
141,-0.05859375,-0.98828125,-0.00390625
142,-0.06640625,-0.9921875,-0.015625
143,-0.0625,-0.984375,-0.015625
144,-0.07421875,-0.94921875,-0.0390625
145,-0.0703125,-0.9921875,-0.02734375
146,-0.0703125,-0.99609375,-0.0234375
147,-0.07421875,-0.984375,-0.02734375
148,-0.06640625,-0.98828125,-0.02734375
149,-0.06640625,-0.9921875,-0.01171875
150,-0.0625,-0.99609375,-0.0078125
151,-0.078125,-0.984375,-0.00390625
152,-0.06640625,-0.98828125,0.0
153,-0.05859375,-1.0,-0.0078125
154,-0.06640625,-0.94921875,-0.0234375
155,-0.078125,-0.9921875,-0.015625
156,-0.08203125,-0.98046875,-0.01171875
157,-0.078125,-0.98046875,-0.03125
158,-0.0625,-0.99609375,-0.0390625
159,-0.046875,-0.9921875,-0.05859375
160,-0.05078125,-0.984375,-0.05859375
161,-0.0546875,-0.97265625,-0.05078125
162,-0.04296875,-0.984375,-0.05078125
163,-0.046875,-0.94921875,-0.08984375
164,-0.02734375,-0.9765625,-0.09375
165,-0.01953125,-0.97265625,-0.09375
166,-0.0078125,-0.9453125,-0.09375
167,0.0,-0.9375,-0.1171875
168,0.0078125,-0.9375,-0.12890625
169,0.0234375,-0.92578125,-0.13671875
170,0.03125,-0.9296875,-0.14453125
171,0.04296875,-0.9140625,-0.15234375
172,0.05859375,-0.92578125,-0.12890625
173,0.06640625,-0.9140625,-0.1328125
174,0.0703125,-0.9453125,-0.1328125
175,0.08203125,-0.96484375,-0.109375
176,0.0546875,-0.9921875,-0.1171875
177,0.078125,-0.99609375,-0.09375
178,0.09375,-1.015625,-0.08203125
179,0.07421875,-1.015625,-0.06640625
180,0.0625,-1.046875,-0.09765625
181,0.06640625,-1.0703125,-0.078125
182,0.02734375,-1.0625,-0.0859375
183,0.02734375,-1.09375,-0.12890625
184,0.04296875,-1.1015625,-0.171875
185,0.03125,-1.0859375,-0.16015625
186,0.05859375,-1.09765625,-0.203125
187,0.0234375,-1.08984375,-0.17578125
188,0.03515625,-1.07421875,-0.1640625
189,0.03515625,-1.06640625,-0.13671875
190,0.0390625,-1.0625,-0.1015625
191,0.05078125,-1.04296875,-0.08203125
192,0.046875,-1.03125,-0.0546875
193,0.05078125,-1.01953125,-0.0234375
194,0.078125,-1.01171875,0.015625
195,0.07421875,-0.99609375,0.05859375
196,0.09765625,-0.97265625,0.08203125
197,0.09375,-0.984375,0.109375
198,0.109375,-0.95703125,0.1171875
199,0.11328125,-0.9375,0.125
200,0.11328125,-0.94140625,0.13671875
201,0.1171875,-0.9453125,0.1484375
202,0.11328125,-0.9296875,0.14453125
203,0.109375,-0.92578125,0.14453125
204,0.109375,-0.93359375,0.1484375
205,0.09765625,-0.94140625,0.125
206,0.08984375,-0.9453125,0.12890625
207,0.05078125,-0.9296875,0.09765625
208,0.05859375,-0.94921875,0.0859375
209,0.05078125,-0.94921875,0.08984375
210,0.046875,-0.953125,0.0546875
211,0.0390625,-0.97265625,0.0546875
212,0.03515625,-0.9765625,0.0625
213,0.046875,-0.99609375,0.05859375
214,0.0390625,-1.0,0.0703125
215,0.046875,-1.0078125,0.05859375
216,0.0546875,-1.02734375,0.078125
217,0.08203125,-1.03125,0.078125
218,0.109375,-1.046875,0.078125
219,0.12109375,-1.046875,0.08203125
220,0.12890625,-1.04296875,0.06640625
221,0.14453125,-1.04296875,0.0546875
222,0.1640625,-1.05078125,0.04296875
223,0.17578125,-1.046875,0.03515625
224,0.171875,-1.04296875,0.04296875
225,0.1640625,-1.03125,0.03515625
226,0.14453125,-1.0078125,0.02734375
227,0.14453125,-0.9921875,0.03515625
228,0.14453125,-0.96875,0.02734375
229,0.125,-0.93359375,0.015625
230,0.125,-0.9296875,0.0234375
231,0.12109375,-0.9140625,0.05859375
232,0.10546875,-0.88671875,0.078125
233,0.1015625,-0.89453125,0.08203125
234,0.10546875,-0.88671875,0.09375
235,0.1015625,-0.87890625,0.10546875
236,0.09375,-0.8671875,0.109375
237,0.08203125,-0.85546875,0.09765625
238,0.07421875,-0.8671875,0.09375
239,0.06640625,-0.87109375,0.09375
240,0.078125,-0.87109375,0.1015625
241,0.08203125,-0.8828125,0.0703125
242,0.09375,-0.90234375,0.08203125
243,0.08984375,-0.91015625,0.05859375
244,0.10546875,-0.91796875,0.04296875
245,0.125,-0.9296875,0.0625
246,0.125,-0.92578125,0.0390625
247,0.1328125,-0.9375,0.02734375
248,0.12890625,-0.92578125,0.046875
249,0.15625,-0.94140625,0.02734375
250,0.12890625,-0.93359375,0.046875
251,0.16015625,-0.94921875,0.03515625
252,0.15625,-0.93359375,0.05078125
253,0.14453125,-0.91796875,0.046875
254,0.16796875,-0.921875,0.06640625
255,0.171875,-0.9296875,0.06640625
256,0.17578125,-0.94140625,0.05859375
257,0.171875,-0.9453125,0.0546875
258,0.18359375,-0.9453125,0.0703125
259,0.19140625,-0.9765625,0.07421875
260,0.17578125,-0.9609375,0.05078125
261,0.1640625,-0.96875,0.0859375
262,0.125,-0.984375,0.05078125
263,0.140625,-0.984375,0.046875
264,0.14453125,-0.9765625,0.04296875
265,0.125,-0.95703125,0.05078125
266,0.125,-0.94921875,0.03125
267,0.109375,-0.94921875,0.03125
268,0.10546875,-0.953125,0.02734375
269,0.08984375,-0.9375,0.03515625
270,0.09375,-0.9453125,0.0390625
271,0.09765625,-0.93359375,0.05859375
272,0.109375,-0.9453125,0.07421875
273,0.1015625,-0.93359375,0.07421875
274,0.1015625,-0.92578125,0.05859375
275,0.1171875,-0.953125,0.05078125
276,0.13671875,-0.96484375,0.046875
277,0.15625,-0.96875,0.015625
278,0.16796875,-0.96875,0.0
279,0.19140625,-0.96484375,0.00390625
280,0.1875,-0.9765625,-0.015625
281,0.15625,-0.953125,0.00390625
282,0.1796875,-0.97265625,0.0078125
283,0.16015625,-0.96875,0.0078125
284,0.15234375,-0.96875,0.0234375
285,0.1640625,-0.953125,0.05078125
286,0.140625,-0.96484375,0.046875
287,0.12890625,-0.9609375,0.05859375
288,0.12109375,-0.9453125,0.05078125
289,0.125,-0.96875,0.06640625
290,0.09765625,-0.9453125,0.0546875
291,0.09375,-0.9375,0.0546875
292,0.09375,-0.94921875,0.0546875
293,0.08984375,-0.93359375,0.0625
294,0.08203125,-0.9453125,0.1015625
295,0.08984375,-0.94921875,0.0546875
296,0.09765625,-0.9453125,0.06640625
297,0.09375,-0.93359375,0.06640625
298,0.1015625,-0.9375,0.05078125
299,0.12890625,-0.93359375,0.0703125
300,0.13671875,-0.9296875,0.08203125
301,0.1484375,-0.94921875,0.0859375
302,0.15625,-0.91796875,0.078125
303,0.171875,-0.94140625,0.09375
304,0.1640625,-0.921875,0.0859375
305,0.203125,-0.921875,0.04296875
306,0.20703125,-0.91796875,0.08984375
307,0.203125,-0.91796875,0.0859375
308,0.19921875,-0.91796875,0.0703125
309,0.19921875,-0.9453125,0.0625
310,0.19921875,-0.9296875,0.08203125
311,0.20703125,-0.93359375,0.08984375
312,0.16015625,-0.9296875,0.07421875
313,0.18359375,-0.9296875,0.0625
314,0.171875,-0.953125,0.07421875
315,0.16796875,-0.9453125,0.08984375
316,0.1484375,-0.94140625,0.0859375
317,0.14453125,-0.94921875,0.08984375
318,0.12890625,-0.9296875,0.1015625
319,0.140625,-0.94140625,0.08984375
320,0.14453125,-0.94140625,0.1015625
321,0.140625,-0.9453125,0.08984375
322,0.14453125,-0.94140625,0.109375
323,0.16015625,-0.9453125,0.09375
324,0.15625,-0.9296875,0.12109375
325,0.1484375,-0.92578125,0.08203125
326,0.16015625,-0.921875,0.10546875
327,0.1640625,-0.9375,0.0703125
328,0.17578125,-0.91796875,0.09375
329,0.17578125,-0.921875,0.08984375
330,0.17578125,-0.921875,0.078125
331,0.15625,-0.91796875,0.0703125
332,0.15625,-0.8984375,0.08984375
333,0.1640625,-0.9140625,0.08203125
334,0.14453125,-0.90234375,0.08984375
335,0.1328125,-0.90625,0.09765625
336,0.13671875,-0.91015625,0.0859375
337,0.15625,-0.92578125,0.0859375
338,0.1328125,-0.92578125,0.11328125
339,0.13671875,-0.921875,0.14453125
340,0.12109375,-0.91796875,0.14453125
341,0.12890625,-0.92578125,0.171875
342,0.1171875,-0.91015625,0.1953125
343,0.1328125,-0.90234375,0.2109375
344,0.1484375,-0.890625,0.2265625
345,0.171875,-0.8828125,0.21875
346,0.171875,-0.859375,0.19921875
347,0.1953125,-0.85546875,0.1875
348,0.19140625,-0.859375,0.16015625
349,0.2109375,-0.87109375,0.12109375
350,0.1953125,-0.8671875,0.08984375
351,0.19921875,-0.8984375,0.03515625
352,0.19140625,-0.91015625,0.0234375
353,0.21875,-0.92578125,0.01171875
354,0.2109375,-0.95703125,-0.00390625
355,0.2265625,-0.984375,-0.00390625
356,0.23828125,-0.99609375,-0.00390625
357,0.23828125,-1.0078125,-0.0078125
358,0.2265625,-1.01953125,-0.01953125
359,0.171875,-1.03125,0.01171875
360,0.1796875,-1.015625,-0.01953125
361,0.16015625,-1.01953125,0.0
362,0.171875,-1.0,0.0
363,0.16796875,-0.99609375,-0.01171875
364,0.1796875,-0.99609375,0.0
365,0.1875,-1.0,0.00390625
366,0.2109375,-1.015625,-0.0078125
367,0.22265625,-1.0078125,0.02734375
368,0.22265625,-1.0078125,0.02734375
369,0.21875,-1.015625,0.02734375
370,0.1953125,-1.00390625,0.01171875
371,0.19921875,-1.05859375,0.0234375
372,0.203125,-1.08203125,0.015625
373,0.20703125,-1.11328125,0.03515625
374,0.1953125,-1.13671875,0.046875
375,0.20703125,-1.15234375,0.05078125
376,0.21875,-1.16796875,0.03125
377,0.23828125,-1.19921875,0.06640625
378,0.2734375,-1.171875,0.078125
379,0.3046875,-1.17578125,0.08203125
380,0.3203125,-1.171875,0.078125
381,0.3359375,-1.13671875,0.05859375
382,0.359375,-1.14453125,0.0859375
383,0.34765625,-1.13671875,0.0703125
384,0.3515625,-1.12890625,0.0546875
385,0.33203125,-1.12109375,0.0390625
386,0.3125,-1.09375,0.02734375
387,0.296875,-1.09765625,0.015625
388,0.27734375,-1.0859375,0.00390625
389,0.27734375,-1.0859375,0.01953125
390,0.3046875,-1.10546875,0.01171875
391,0.2578125,-1.08984375,0.01171875
392,0.20703125,-1.09765625,0.0078125
393,0.17578125,-1.08984375,0.0
394,0.1640625,-1.10546875,-0.01171875
395,0.16015625,-1.10546875,-0.015625
396,0.140625,-1.109375,-0.01171875
397,0.1484375,-1.109375,-0.01953125
398,0.15625,-1.1328125,-0.0078125
399,0.171875,-1.1484375,-0.015625
400,0.1875,-1.1640625,-0.0078125
401,0.19140625,-1.18359375,0.0078125
402,0.18359375,-1.2109375,0.01953125
403,0.2109375,-1.20703125,0.04296875
404,0.234375,-1.19921875,0.0390625
405,0.24609375,-1.20703125,0.03515625
406,0.25390625,-1.19921875,0.01953125
407,0.2734375,-1.18359375,0.00390625
408,0.26953125,-1.16015625,-0.0390625
409,0.25390625,-1.12890625,-0.0859375
410,0.2421875,-1.10546875,-0.109375
411,0.23828125,-1.07421875,-0.125
412,0.22265625,-1.05859375,-0.1484375
413,0.17578125,-1.0234375,-0.1640625
414,0.15234375,-0.9921875,-0.1796875
415,0.1875,-0.99609375,-0.1953125
416,0.19140625,-0.984375,-0.2109375
417,0.2109375,-0.98828125,-0.21875
418,0.2265625,-0.97265625,-0.234375
419,0.23046875,-0.96484375,-0.21875
420,0.21875,-0.96484375,-0.2109375
421,0.1953125,-0.96484375,-0.1953125
422,0.20703125,-0.9765625,-0.20703125
423,0.1953125,-1.01171875,-0.1953125
424,0.2109375,-1.0546875,-0.18359375
425,0.21484375,-1.11328125,-0.1796875
426,0.21875,-1.13671875,-0.18359375
427,0.21484375,-1.1796875,-0.1953125
428,0.1875,-1.203125,-0.22265625
429,0.16015625,-1.19140625,-0.2421875
430,0.1171875,-1.16796875,-0.24609375
431,0.1015625,-1.16015625,-0.296875
432,0.03125,-1.12890625,-0.3046875
433,-0.01171875,-1.09375,-0.35546875
434,-0.08203125,-1.0703125,-0.375
435,-0.12890625,-1.0546875,-0.359375
436,-0.16015625,-1.0234375,-0.3515625
437,-0.19140625,-1.0078125,-0.33984375
438,-0.19921875,-0.99609375,-0.33203125
439,-0.1953125,-0.99609375,-0.3203125
440,-0.1953125,-0.96875,-0.29296875
441,-0.16015625,-0.9609375,-0.28125
442,-0.15625,-0.9453125,-0.25390625
443,-0.125,-0.953125,-0.24609375
444,-0.08984375,-0.93359375,-0.25390625
445,-0.0625,-0.93359375,-0.2421875
446,-0.0390625,-0.9140625,-0.22265625
447,-0.0078125,-0.90625,-0.2265625
448,0.02734375,-0.90234375,-0.234375
449,0.0234375,-0.890625,-0.2109375
450,0.04296875,-0.88671875,-0.22265625
451,0.046875,-0.89453125,-0.21484375
452,0.02734375,-0.875,-0.2265625
453,0.01953125,-0.87109375,-0.23828125
454,0.0234375,-0.875,-0.234375
455,0.01171875,-0.85546875,-0.2109375
456,0.0,-0.83203125,-0.234375
457,-0.03125,-0.796875,-0.23828125
458,-0.046875,-0.76953125,-0.24609375
459,-0.0625,-0.75,-0.234375
460,-0.0703125,-0.73828125,-0.2421875
461,-0.078125,-0.734375,-0.22265625
462,-0.09765625,-0.71875,-0.22265625
463,-0.1015625,-0.6953125,-0.21484375
464,-0.09765625,-0.703125,-0.21484375
465,-0.11328125,-0.6875,-0.1953125
466,-0.09765625,-0.7109375,-0.14453125
467,-0.10546875,-0.6953125,-0.19140625
468,-0.1015625,-0.6875,-0.1875
469,-0.0859375,-0.69921875,-0.1953125
470,-0.08984375,-0.6796875,-0.1953125
471,-0.09375,-0.67578125,-0.19921875
472,-0.05859375,-0.6875,-0.18359375
473,-0.05078125,-0.6796875,-0.18359375
474,-0.046875,-0.6953125,-0.17578125
475,-0.04296875,-0.703125,-0.1796875
476,-0.0546875,-0.71484375,-0.1640625
477,-0.0625,-0.703125,-0.19140625
478,-0.05859375,-0.74609375,-0.1484375
479,-0.09375,-0.7421875,-0.14453125
480,-0.1015625,-0.75390625,-0.12890625
481,-0.12890625,-0.76953125,-0.13671875
482,-0.140625,-0.78125,-0.140625
483,-0.15625,-0.77734375,-0.1640625
484,-0.140625,-0.78125,-0.15625
485,-0.16796875,-0.7734375,-0.15625
486,-0.15625,-0.76171875,-0.171875
487,-0.15625,-0.75390625,-0.16796875
488,-0.171875,-0.75,-0.171875
489,-0.19140625,-0.75,-0.1640625
490,-0.2109375,-0.74609375,-0.1328125
491,-0.23828125,-0.73046875,-0.13671875
492,-0.2421875,-0.73046875,-0.1328125
493,-0.25,-0.734375,-0.11328125
494,-0.2421875,-0.76953125,-0.09765625
495,-0.25,-0.7890625,-0.10546875
496,-0.23046875,-0.8359375,-0.10546875
497,-0.19140625,-0.8515625,-0.11328125
498,-0.17578125,-0.90625,-0.1328125
499,-0.15234375,-0.98046875,-0.1328125
500,-0.11328125,-1.015625,-0.16015625
501,-0.08984375,-1.046875,-0.18359375
502,-0.06640625,-1.07421875,-0.1875
503,-0.0234375,-1.0703125,-0.21484375
504,0.0078125,-1.0625,-0.23046875
505,0.03125,-1.02734375,-0.234375
506,0.09375,-1.0078125,-0.25
507,0.12109375,-0.984375,-0.25390625
508,0.1484375,-0.94140625,-0.26953125
509,0.1484375,-0.921875,-0.265625
510,0.12109375,-0.8984375,-0.265625
511,0.1484375,-0.89453125,-0.234375
512,0.16796875,-0.8984375,-0.23046875
513,0.1484375,-0.89453125,-0.20703125
514,0.11328125,-0.92578125,-0.18359375
515,0.06640625,-0.953125,-0.15234375
516,0.0390625,-0.97265625,-0.125
517,0.00390625,-0.98828125,-0.0859375
518,-0.06640625,-1.0,-0.06640625
519,-0.11328125,-1.03125,-0.046875
520,-0.16796875,-1.015625,-0.0546875
521,-0.23046875,-1.01171875,-0.04296875
522,-0.25,-1.0078125,-0.05078125
523,-0.27734375,-0.99609375,-0.08203125
524,-0.29296875,-0.953125,-0.109375
525,-0.32421875,-0.91796875,-0.109375
526,-0.3203125,-0.88671875,-0.12109375
527,-0.33984375,-0.8515625,-0.1171875
528,-0.35546875,-0.828125,-0.09765625
529,-0.3359375,-0.80078125,-0.07421875
530,-0.3515625,-0.79296875,-0.09765625
531,-0.32421875,-0.796875,-0.078125
532,-0.31640625,-0.796875,-0.078125
533,-0.3046875,-0.8125,-0.08203125
534,-0.296875,-0.828125,-0.0859375
535,-0.28515625,-0.859375,-0.08203125
536,-0.26953125,-0.87890625,-0.09765625
537,-0.265625,-0.88671875,-0.078125
538,-0.25390625,-0.890625,-0.08203125
539,-0.23046875,-0.92578125,-0.06640625
540,-0.23046875,-0.91796875,-0.0703125
541,-0.2265625,-0.921875,-0.0546875
542,-0.203125,-0.94140625,-0.078125
543,-0.2109375,-0.91796875,-0.0625
544,-0.203125,-0.91796875,-0.0625
545,-0.1953125,-0.91796875,-0.078125
546,-0.1875,-0.90625,-0.06640625
547,-0.1796875,-0.90625,-0.04296875
548,-0.18359375,-0.890625,-0.05859375
549,-0.18359375,-0.8984375,-0.0546875
550,-0.19921875,-0.890625,-0.04296875
551,-0.1953125,-0.90234375,-0.0546875
552,-0.203125,-0.90234375,-0.0390625
553,-0.18359375,-0.91796875,-0.0625
554,-0.1953125,-0.9140625,-0.05859375
555,-0.203125,-0.9140625,-0.04296875
556,-0.1875,-0.921875,-0.0625
557,-0.171875,-0.9296875,-0.03515625
558,-0.1796875,-0.921875,-0.03125
559,-0.171875,-0.94140625,-0.04296875
560,-0.1640625,-0.93359375,-0.00390625
561,-0.1796875,-0.94140625,0.0
562,-0.18359375,-0.93359375,0.01171875
563,-0.18359375,-0.93359375,0.01171875
564,-0.18359375,-0.9453125,0.01171875
565,-0.19140625,-0.93359375,0.015625
566,-0.2109375,-0.91015625,0.00390625
567,-0.203125,-0.90625,0.00390625
568,-0.20703125,-0.8828125,0.0
569,-0.203125,-0.87109375,-0.01953125
570,-0.19921875,-0.85546875,-0.04296875
571,-0.1796875,-0.84375,-0.046875
572,-0.171875,-0.8359375,-0.05859375
573,-0.17578125,-0.85546875,-0.04296875
574,-0.1875,-0.859375,-0.0390625
575,-0.1953125,-0.91015625,-0.0234375
576,-0.1953125,-0.91015625,-0.04296875
577,-0.21875,-0.94140625,-0.04296875
578,-0.22265625,-0.95703125,-0.0625
579,-0.2109375,-0.98828125,-0.06640625
580,-0.21875,-0.99609375,-0.09375
581,-0.23828125,-0.99609375,-0.08984375
582,-0.2265625,-1.00390625,-0.12109375
583,-0.25,-1.0,-0.12890625
584,-0.25,-0.99609375,-0.12890625
585,-0.2578125,-0.98046875,-0.109375
586,-0.27734375,-0.9609375,-0.11328125
587,-0.26171875,-0.97265625,-0.1328125
588,-0.2734375,-0.95703125,-0.140625
589,-0.28125,-0.94140625,-0.125
590,-0.28515625,-0.953125,-0.12109375
591,-0.29296875,-0.97265625,-0.12109375
592,-0.27734375,-0.99609375,-0.0703125
593,-0.2890625,-0.99609375,-0.078125
594,-0.2890625,-1.01171875,-0.0859375
595,-0.29296875,-1.03125,-0.08203125
596,-0.3046875,-1.01953125,-0.0625
597,-0.28515625,-1.05078125,-0.0625
598,-0.28125,-1.0546875,-0.05078125
599,-0.296875,-1.05859375,-0.0625
600,-0.2734375,-1.05859375,-0.0625
601,-0.26953125,-1.07421875,-0.0625
602,-0.26953125,-1.0703125,-0.0625
603,-0.26953125,-1.078125,-0.06640625
604,-0.265625,-1.09765625,-0.0546875
605,-0.29296875,-1.0625,-0.09765625
606,-0.28125,-1.06640625,-0.1171875
607,-0.2890625,-1.07421875,-0.1484375
608,-0.28515625,-1.0625,-0.16796875
609,-0.2890625,-1.07421875,-0.1875
610,-0.27734375,-1.0859375,-0.2109375
611,-0.26171875,-1.11328125,-0.1796875
612,-0.25390625,-1.1328125,-0.1328125
613,-0.26171875,-1.16796875,-0.1015625
614,-0.28515625,-1.1875,-0.0625
615,-0.28515625,-1.2421875,-0.0234375
616,-0.3203125,-1.24609375,-0.00390625
617,-0.30078125,-1.28515625,0.0078125
618,-0.2890625,-1.27734375,0.0234375
619,-0.2578125,-1.3046875,0.0
620,-0.22265625,-1.31640625,-0.01953125
621,-0.19921875,-1.30859375,-0.0546875
622,-0.16796875,-1.3046875,-0.08984375
623,-0.15234375,-1.2890625,-0.109375
624,-0.1484375,-1.28125,-0.12109375
625,-0.1171875,-1.2734375,-0.11328125
626,-0.109375,-1.26171875,-0.140625
627,-0.109375,-1.24609375,-0.16796875
628,-0.09765625,-1.25,-0.171875
629,-0.125,-1.21875,-0.16796875
630,-0.12109375,-1.19140625,-0.17578125
631,-0.125,-1.1484375,-0.2109375
632,-0.12890625,-1.09765625,-0.22265625
633,-0.125,-1.06640625,-0.2109375
634,-0.109375,-1.01171875,-0.20703125
635,-0.09765625,-0.984375,-0.203125
636,-0.109375,-0.96484375,-0.22265625
637,-0.109375,-0.9453125,-0.2109375
638,-0.12109375,-0.92578125,-0.203125
639,-0.09765625,-0.94921875,-0.1875
640,-0.10546875,-0.93359375,-0.1953125
641,-0.09765625,-0.953125,-0.20703125
642,-0.07421875,-0.9765625,-0.203125
643,-0.05859375,-1.0,-0.203125
644,-0.0234375,-1.046875,-0.21484375
645,0.00390625,-1.08203125,-0.22265625
646,0.0234375,-1.1171875,-0.2265625
647,0.0390625,-1.14453125,-0.21484375
648,0.04296875,-1.1484375,-0.2421875
649,0.0703125,-1.15625,-0.23046875
650,0.04296875,-1.16015625,-0.23828125
651,0.0390625,-1.1328125,-0.26953125
652,0.03125,-1.1171875,-0.28125
653,0.03515625,-1.125,-0.2890625
654,0.01953125,-1.1015625,-0.29296875
655,0.01953125,-1.11328125,-0.296875
656,0.0,-1.109375,-0.2890625
657,-0.015625,-1.1015625,-0.26171875
658,-0.015625,-1.11328125,-0.25390625
659,-0.03125,-1.1015625,-0.25390625
660,-0.02734375,-1.10546875,-0.23046875
661,-0.046875,-1.07421875,-0.23046875
662,-0.05859375,-1.0625,-0.23046875
663,-0.06640625,-1.0390625,-0.23828125
664,-0.0703125,-1.0078125,-0.203125
665,-0.0703125,-0.9921875,-0.203125
666,-0.0703125,-0.9609375,-0.18359375
667,-0.0859375,-0.90234375,-0.19921875
668,-0.09765625,-0.87109375,-0.19140625
669,-0.0703125,-0.82421875,-0.20703125
670,-0.0703125,-0.7734375,-0.2109375
671,-0.05859375,-0.7578125,-0.1796875
672,-0.05859375,-0.71875,-0.1796875
673,-0.07421875,-0.6953125,-0.16796875
674,-0.05078125,-0.68359375,-0.140625
675,-0.05078125,-0.65234375,-0.1484375
676,-0.03515625,-0.65234375,-0.12890625
677,-0.04296875,-0.62890625,-0.12109375
678,-0.01171875,-0.640625,-0.11328125
679,-0.01953125,-0.6328125,-0.125
680,-0.00390625,-0.66015625,-0.1328125
681,0.0234375,-0.6640625,-0.12109375
682,0.0234375,-0.67578125,-0.109375
683,0.05078125,-0.69140625,-0.11328125
684,0.0625,-0.6953125,-0.1171875
685,0.0703125,-0.703125,-0.1171875
686,0.0625,-0.69921875,-0.1328125
687,0.0703125,-0.69140625,-0.140625
688,0.07421875,-0.67578125,-0.14453125
689,0.08203125,-0.67578125,-0.16796875
690,0.0859375,-0.66796875,-0.1875
691,0.09375,-0.65625,-0.1953125
692,0.1015625,-0.6484375,-0.19140625
693,0.09765625,-0.6328125,-0.19921875
694,0.08984375,-0.62109375,-0.1796875
695,0.1015625,-0.609375,-0.18359375
696,0.109375,-0.609375,-0.17578125
697,0.12109375,-0.609375,-0.19921875
698,0.140625,-0.609375,-0.1953125
699,0.14453125,-0.609375,-0.1875
700,0.16796875,-0.61328125,-0.17578125
701,0.1953125,-0.640625,-0.16015625
702,0.19921875,-0.671875,-0.16796875
703,0.203125,-0.67578125,-0.1875
704,0.1953125,-0.72265625,-0.14453125
705,0.19921875,-0.74609375,-0.1484375
706,0.21484375,-0.76171875,-0.15234375
707,0.21484375,-0.78515625,-0.1328125
708,0.2109375,-0.80859375,-0.13671875
709,0.19921875,-0.83984375,-0.125
710,0.19921875,-0.86328125,-0.12890625
711,0.1953125,-0.87890625,-0.1328125
712,0.16796875,-0.890625,-0.13671875
713,0.15625,-0.91015625,-0.140625
714,0.14453125,-0.94140625,-0.125
715,0.13671875,-0.95703125,-0.12890625
716,0.10546875,-0.96484375,-0.140625
717,0.09765625,-0.98828125,-0.13671875
718,0.0859375,-1.0,-0.14453125
719,0.06640625,-1.0,-0.15625
720,0.0625,-1.015625,-0.1640625
721,0.06640625,-1.01953125,-0.18359375
722,0.046875,-1.02734375,-0.1796875
723,0.05859375,-1.02734375,-0.1953125
724,0.07421875,-1.04296875,-0.16796875
725,0.078125,-1.046875,-0.171875
726,0.1015625,-1.0234375,-0.16015625
727,0.109375,-1.0234375,-0.14453125
728,0.14453125,-1.01953125,-0.1328125
729,0.1484375,-1.0078125,-0.140625
730,0.16015625,-1.0,-0.12109375
731,0.1640625,-0.99609375,-0.11328125
732,0.1484375,-0.97265625,-0.08203125
733,0.15234375,-0.9453125,-0.0859375
734,0.13671875,-0.93359375,-0.0859375
735,0.1328125,-0.92578125,-0.06640625
736,0.109375,-0.88671875,-0.078125
737,0.1015625,-0.8828125,-0.0546875
738,0.078125,-0.8828125,-0.03515625
739,0.078125,-0.8671875,-0.0546875
740,0.05859375,-0.87109375,-0.02734375
741,0.05859375,-0.88671875,-0.046875
742,0.05859375,-0.88671875,-0.0390625
743,0.08984375,-0.91015625,-0.0390625
744,0.08984375,-0.90625,-0.03125
745,0.109375,-0.90625,-0.0234375
746,0.12109375,-0.91796875,-0.04296875
747,0.1640625,-0.921875,-0.015625
748,0.17578125,-0.91015625,-0.03515625
749,0.1875,-0.91796875,-0.03515625
750,0.1796875,-0.8984375,-0.0390625
751,0.203125,-0.8984375,-0.03515625
752,0.21484375,-0.88671875,-0.01171875
753,0.19921875,-0.890625,-0.00390625
754,0.19921875,-0.87890625,-0.015625
755,0.19140625,-0.88671875,-0.00390625
756,0.18359375,-0.8984375,0.00390625
757,0.140625,-0.90625,0.0078125
758,0.11328125,-0.9375,0.015625
759,0.109375,-0.9296875,0.01953125
760,0.109375,-0.9375,0.03515625
761,0.11328125,-0.94921875,0.046875
762,0.09765625,-0.94140625,0.05078125
763,0.08984375,-0.9609375,0.0625
764,0.1015625,-0.96484375,0.0390625
765,0.09375,-0.94921875,0.0234375
766,0.1015625,-0.96484375,0.046875
767,0.09375,-0.9453125,0.046875
768,0.09375,-0.9375,0.04296875
769,0.11328125,-0.9375,0.0234375
770,0.09765625,-0.91796875,0.04296875
771,0.09375,-0.90234375,0.05078125
772,0.08203125,-0.9140625,0.04296875
773,0.09375,-0.91015625,0.0390625
774,0.08203125,-0.91796875,0.0390625
775,0.0625,-0.92578125,0.04296875
776,0.0625,-0.94140625,0.0390625
777,0.0625,-0.94921875,0.03515625
778,0.05859375,-0.97265625,0.0234375
779,0.0703125,-0.98046875,0.04296875
780,0.078125,-1.0078125,0.02734375
781,0.09375,-1.00390625,0.02734375
782,0.10546875,-1.00390625,0.03515625
783,0.1171875,-1.00390625,0.03125
784,0.12890625,-0.99609375,0.01171875
785,0.1484375,-0.9921875,0.02734375
786,0.15625,-0.9921875,0.0078125
787,0.171875,-0.9765625,0.0078125
788,0.16796875,-0.9765625,-0.0078125
789,0.18359375,-0.97265625,0.0
790,0.18359375,-0.96484375,0.0
791,0.19921875,-0.9609375,-0.00390625
792,0.203125,-0.9609375,0.0
793,0.22265625,-0.95703125,0.0
794,0.2265625,-0.94921875,-0.01171875
795,0.22265625,-0.953125,-0.015625
796,0.21875,-0.953125,-0.015625
797,0.21875,-0.97265625,-0.00390625
798,0.19140625,-0.96875,-0.015625
799,0.19921875,-1.00390625,-0.02734375
800,0.19140625,-1.0,-0.0390625
801,0.23046875,-1.01953125,-0.04296875
802,0.21875,-1.03125,-0.05859375
803,0.203125,-1.046875,-0.08203125
804,0.20703125,-1.0390625,-0.07421875
805,0.19140625,-1.04296875,-0.0703125
806,0.1953125,-1.05078125,-0.07421875
807,0.19140625,-1.0546875,-0.05859375
808,0.1796875,-1.03515625,-0.06640625
809,0.18359375,-1.0390625,-0.05078125
810,0.17578125,-1.03515625,-0.046875
811,0.16796875,-1.0234375,-0.05078125
812,0.1953125,-1.02734375,-0.04296875
813,0.1796875,-1.00390625,-0.02734375
814,0.1953125,-1.00390625,-0.0234375
815,0.21875,-1.015625,-0.04296875
816,0.21875,-1.01171875,-0.01953125
817,0.22265625,-1.03515625,0.0078125
818,0.234375,-1.0625,0.02734375
819,0.234375,-1.10546875,0.05078125
820,0.22265625,-1.10546875,0.0703125
821,0.2265625,-1.13671875,0.0859375
822,0.234375,-1.125,0.0625
823,0.2421875,-1.12890625,0.05859375
824,0.25,-1.12890625,0.03515625
825,0.23828125,-1.1328125,0.0234375
826,0.25390625,-1.11328125,0.01953125
827,0.2421875,-1.1171875,0.0
828,0.25390625,-1.12109375,-0.00390625
829,0.25,-1.125,-0.01953125
830,0.234375,-1.12109375,0.0
831,0.2109375,-1.12109375,-0.0390625
832,0.22265625,-1.15234375,-0.015625
833,0.17578125,-1.15625,-0.02734375
834,0.171875,-1.16796875,-0.00390625
835,0.14453125,-1.17578125,-0.015625
836,0.1171875,-1.203125,0.0
837,0.11328125,-1.2109375,-0.00390625
838,0.10546875,-1.234375,-0.01171875
839,0.0859375,-1.234375,-0.0703125
840,0.09765625,-1.23828125,-0.1015625
841,0.1015625,-1.24609375,-0.12890625
842,0.1328125,-1.25390625,-0.1328125
843,0.125,-1.25390625,-0.125
844,0.10546875,-1.2578125,-0.15234375
845,0.12109375,-1.26171875,-0.140625
846,0.12109375,-1.27734375,-0.1484375
847,0.12890625,-1.27734375,-0.171875
848,0.14453125,-1.26171875,-0.19921875
849,0.140625,-1.24609375,-0.2265625
850,0.16015625,-1.21484375,-0.23046875
851,0.1640625,-1.1796875,-0.25390625
852,0.16015625,-1.13671875,-0.2890625
853,0.12890625,-1.12109375,-0.29296875
854,0.10546875,-1.0703125,-0.31640625
855,0.10546875,-1.04296875,-0.26953125
856,0.11328125,-1.01171875,-0.26171875
857,0.10546875,-1.01171875,-0.25390625
858,0.10546875,-0.984375,-0.2421875
859,0.08984375,-0.9609375,-0.2421875
860,0.08984375,-0.96875,-0.234375
861,0.109375,-0.96484375,-0.2421875
862,0.11328125,-0.9765625,-0.25390625
863,0.12109375,-0.9921875,-0.26171875
864,0.13671875,-1.0234375,-0.25390625
865,0.14453125,-1.05859375,-0.2734375
866,0.13671875,-1.08203125,-0.26953125
867,0.11328125,-1.1328125,-0.27734375
868,0.0859375,-1.15234375,-0.265625
869,0.0859375,-1.17578125,-0.265625
870,0.05859375,-1.1796875,-0.26171875
871,0.046875,-1.16796875,-0.265625
872,0.03125,-1.1484375,-0.2890625
873,0.01953125,-1.13671875,-0.3203125
874,0.00390625,-1.1015625,-0.34375
875,-0.01171875,-1.08203125,-0.36328125
876,-0.046875,-1.078125,-0.3828125
877,-0.0625,-1.05078125,-0.37890625
878,-0.08984375,-1.0234375,-0.3671875
879,-0.09765625,-1.03515625,-0.3828125
880,-0.09375,-1.03515625,-0.34375
881,-0.11328125,-1.01953125,-0.34375
882,-0.125,-1.01171875,-0.3046875
883,-0.125,-0.9765625,-0.3203125
884,-0.12890625,-0.9375,-0.2890625
885,-0.1015625,-0.90234375,-0.296875
886,-0.08984375,-0.86328125,-0.27734375
887,-0.08203125,-0.8046875,-0.26171875
888,-0.05859375,-0.7421875,-0.24609375
889,-0.0390625,-0.68359375,-0.234375
890,-0.015625,-0.65234375,-0.2109375
891,0.015625,-0.59375,-0.1875
892,0.05078125,-0.5625,-0.17578125
893,0.08984375,-0.5390625,-0.1640625
894,0.1171875,-0.515625,-0.14453125
895,0.15234375,-0.51171875,-0.125
896,0.16796875,-0.5,-0.125
897,0.19921875,-0.4921875,-0.140625
898,0.203125,-0.5,-0.13671875
899,0.234375,-0.515625,-0.140625
900,0.24609375,-0.54296875,-0.13671875
901,0.234375,-0.5390625,-0.1484375
902,0.2265625,-0.56640625,-0.12890625
903,0.21484375,-0.5859375,-0.13671875
904,0.19140625,-0.6171875,-0.1484375
905,0.17578125,-0.61328125,-0.15234375
906,0.12890625,-0.62109375,-0.1484375
907,0.09375,-0.640625,-0.1796875
908,0.0703125,-0.6484375,-0.1875
909,0.05859375,-0.65234375,-0.19140625
910,0.015625,-0.6484375,-0.1875
911,0.0,-0.64453125,-0.18359375
912,-0.03125,-0.66015625,-0.19921875
913,-0.0625,-0.65625,-0.1875
914,-0.09375,-0.6640625,-0.19921875
915,-0.1171875,-0.6796875,-0.18359375
916,-0.1328125,-0.69140625,-0.19140625
917,-0.15625,-0.69921875,-0.1875
918,-0.16796875,-0.75,-0.171875
919,-0.18359375,-0.734375,-0.2109375
920,-0.18359375,-0.7734375,-0.16796875
921,-0.1953125,-0.79296875,-0.15625
922,-0.171875,-0.8203125,-0.14453125
923,-0.17578125,-0.83984375,-0.1484375
924,-0.16796875,-0.86328125,-0.1484375
925,-0.15234375,-0.87890625,-0.15625
926,-0.13671875,-0.8984375,-0.1640625
927,-0.11328125,-0.9296875,-0.15234375
928,-0.09375,-0.9140625,-0.18359375
929,-0.07421875,-0.9453125,-0.16796875
930,-0.0625,-0.953125,-0.1796875
931,-0.05078125,-0.9609375,-0.18359375
932,-0.01953125,-0.984375,-0.19140625
933,-0.01171875,-0.96875,-0.19140625
934,0.0,-0.96875,-0.171875
935,0.0,-0.97265625,-0.171875
936,0.00390625,-0.9609375,-0.15625
937,0.0078125,-0.95703125,-0.1796875
938,0.01171875,-0.921875,-0.171875
939,-0.0078125,-0.88671875,-0.17578125
940,-0.02734375,-0.8828125,-0.1640625
941,-0.0234375,-0.84765625,-0.21875
942,-0.0234375,-0.84375,-0.19140625
943,-0.00390625,-0.83203125,-0.2109375
944,-0.02734375,-0.8125,-0.203125
945,0.0,-0.80859375,-0.19921875
946,-0.015625,-0.8125,-0.203125
947,-0.02734375,-0.82421875,-0.1875
948,-0.04296875,-0.8203125,-0.171875
949,-0.05078125,-0.8515625,-0.15234375
950,-0.0546875,-0.87890625,-0.16015625
951,-0.08203125,-0.91015625,-0.140625
952,-0.1171875,-0.921875,-0.14453125
953,-0.1484375,-0.94921875,-0.1328125
954,-0.17578125,-1.0,-0.11328125
955,-0.19921875,-1.0,-0.09765625
956,-0.22265625,-1.01171875,-0.1015625
957,-0.22265625,-1.0234375,-0.109375
958,-0.2421875,-1.01953125,-0.109375
959,-0.26171875,-0.99609375,-0.125
960,-0.26171875,-1.0,-0.1171875
961,-0.26171875,-0.98828125,-0.12890625
962,-0.25390625,-0.98046875,-0.125
963,-0.25,-0.94140625,-0.109375
964,-0.2421875,-0.93359375,-0.109375
965,-0.23828125,-0.90625,-0.06640625
966,-0.22265625,-0.91796875,-0.0703125
967,-0.2265625,-0.90234375,-0.05859375
968,-0.20703125,-0.90625,-0.0546875
969,-0.19140625,-0.89453125,-0.01171875
970,-0.17578125,-0.90625,-0.0234375
971,-0.16796875,-0.90234375,0.00390625
972,-0.171875,-0.91796875,0.01171875
973,-0.13671875,-0.9296875,0.01953125
974,-0.15625,-0.94140625,0.01171875
975,-0.12109375,-0.953125,0.0078125
976,-0.10546875,-0.95703125,0.0
977,-0.09375,-0.95703125,-0.02734375
978,-0.09765625,-0.9453125,-0.0546875
979,-0.08984375,-0.9453125,-0.0625
980,-0.07421875,-0.93359375,-0.08984375
981,-0.078125,-0.92578125,-0.1015625
982,-0.06640625,-0.91796875,-0.09375
983,-0.0546875,-0.91796875,-0.109375
984,-0.03515625,-0.9140625,-0.1015625
985,-0.02734375,-0.921875,-0.08984375
986,-0.02734375,-0.93359375,-0.0625
987,-0.03125,-0.92578125,-0.05859375
988,-0.046875,-0.94140625,-0.046875
989,-0.078125,-0.921875,-0.046875
990,-0.10546875,-0.91796875,-0.0546875
991,-0.140625,-0.91796875,-0.0703125
992,-0.17578125,-0.89453125,-0.09765625
993,-0.203125,-0.91796875,-0.12890625
994,-0.23046875,-0.9375,-0.12890625
995,-0.24609375,-0.953125,-0.140625
996,-0.26171875,-0.96875,-0.125
997,-0.27734375,-0.98828125,-0.10546875
998,-0.2890625,-1.01171875,-0.10546875
999,-0.29296875,-1.01953125,-0.10546875
1000,-0.29296875,-1.01171875,-0.12109375
1001,-0.296875,-1.015625,-0.1171875
1002,-0.296875,-1.00390625,-0.1328125
1003,-0.29296875,-0.99609375,-0.1640625
1004,-0.30078125,-0.984375,-0.17578125
1005,-0.30078125,-0.984375,-0.20703125
1006,-0.2890625,-0.9765625,-0.21484375
1007,-0.26953125,-0.96484375,-0.2109375
1008,-0.2578125,-0.9765625,-0.2265625
1009,-0.2421875,-1.0078125,-0.2265625
1010,-0.23046875,-1.04296875,-0.22265625
1011,-0.20703125,-1.10546875,-0.1953125
1012,-0.1953125,-1.1328125,-0.18359375
1013,-0.1953125,-1.1953125,-0.1796875
1014,-0.203125,-1.26171875,-0.16015625
1015,-0.1953125,-1.3203125,-0.16796875
1016,-0.17578125,-1.39453125,-0.1953125
1017,-0.171875,-1.4296875,-0.20703125
1018,-0.16015625,-1.4765625,-0.2734375
1019,-0.1640625,-1.49609375,-0.34375
1020,-0.15234375,-1.5078125,-0.3828125
1021,-0.12890625,-1.51953125,-0.3984375
1022,-0.14453125,-1.50390625,-0.40234375
1023,-0.15625,-1.47265625,-0.38671875
1024,-0.17578125,-1.4296875,-0.34765625
1025,-0.19921875,-1.37109375,-0.3359375
1026,-0.234375,-1.32421875,-0.33203125
1027,-0.23046875,-1.2734375,-0.3359375
1028,-0.2578125,-1.2578125,-0.32421875
1029,-0.2578125,-1.23828125,-0.31640625
1030,-0.2578125,-1.21875,-0.3125
1031,-0.2734375,-1.2265625,-0.31640625
1032,-0.265625,-1.21875,-0.31640625
1033,-0.25390625,-1.19921875,-0.3203125
1034,-0.23828125,-1.17578125,-0.33203125
1035,-0.17578125,-1.1640625,-0.36328125
1036,-0.1328125,-1.1328125,-0.375
1037,-0.06640625,-1.1015625,-0.3671875
1038,0.0,-1.078125,-0.359375
1039,0.05078125,-1.0625,-0.36328125
1040,0.0859375,-1.03125,-0.3359375
1041,0.13671875,-1.0078125,-0.3359375
1042,0.15625,-1.0078125,-0.3203125
1043,0.18359375,-0.984375,-0.33203125
1044,0.18359375,-0.98046875,-0.31640625
1045,0.18359375,-0.9765625,-0.3203125
1046,0.1796875,-0.98046875,-0.3125
1047,0.171875,-1.0,-0.3125
1048,0.14453125,-0.9921875,-0.328125
1049,0.11328125,-1.01171875,-0.29296875
1050,0.09375,-1.04296875,-0.2890625
1051,0.0625,-1.046875,-0.27734375
1052,0.046875,-1.0546875,-0.26953125
1053,0.03515625,-1.05078125,-0.28515625
1054,0.01953125,-1.03125,-0.265625
1055,-0.00390625,-1.00390625,-0.2578125
1056,-0.01953125,-0.9921875,-0.2421875
1057,-0.046875,-0.9609375,-0.23828125
1058,-0.06640625,-0.93359375,-0.2578125
1059,-0.05859375,-0.87890625,-0.25
1060,-0.05859375,-0.89453125,-0.25
1061,-0.05078125,-0.875,-0.26171875
1062,-0.046875,-0.85546875,-0.26171875
1063,-0.0234375,-0.83984375,-0.2265625
1064,-0.01953125,-0.81640625,-0.19921875
1065,0.0,-0.83203125,-0.171875
1066,0.0078125,-0.84765625,-0.15234375
1067,0.0234375,-0.83203125,-0.14453125
1068,0.0234375,-0.828125,-0.15234375
1069,0.04296875,-0.83984375,-0.13671875
1070,0.015625,-0.83984375,-0.15625
1071,0.0390625,-0.80078125,-0.1328125
1072,0.0390625,-0.78515625,-0.1328125
1073,0.0546875,-0.78515625,-0.14453125
1074,0.0703125,-0.77734375,-0.15234375
1075,0.078125,-0.7578125,-0.16015625
1076,0.09375,-0.7421875,-0.1640625
1077,0.0703125,-0.734375,-0.17578125
1078,0.078125,-0.72265625,-0.1640625
1079,0.0625,-0.69140625,-0.1796875
1080,0.03515625,-0.6796875,-0.1953125
1081,0.03515625,-0.66796875,-0.18359375
1082,0.03125,-0.65234375,-0.22265625
1083,0.02734375,-0.63671875,-0.2421875
1084,0.03125,-0.625,-0.23046875
1085,0.03515625,-0.6171875,-0.2421875
1086,0.03515625,-0.6171875,-0.23046875
1087,0.04296875,-0.60546875,-0.2265625
1088,0.05859375,-0.6171875,-0.21484375
1089,0.08203125,-0.63671875,-0.18359375
1090,0.09375,-0.65625,-0.1640625
1091,0.13671875,-0.6796875,-0.15625
1092,0.16015625,-0.69140625,-0.13671875
1093,0.18359375,-0.71875,-0.140625
1094,0.1640625,-0.7265625,-0.140625
1095,0.16796875,-0.7421875,-0.140625
1096,0.171875,-0.7578125,-0.12890625
1097,0.15625,-0.75390625,-0.11328125
1098,0.140625,-0.765625,-0.15625
1099,0.125,-0.765625,-0.18359375
1100,0.10546875,-0.76171875,-0.1953125
1101,0.07421875,-0.7421875,-0.21484375
1102,0.04296875,-0.7578125,-0.23828125
1103,0.046875,-0.75390625,-0.20703125
1104,0.03515625,-0.75390625,-0.2109375
1105,0.015625,-0.75,-0.20703125
1106,0.0234375,-0.75390625,-0.20703125
1107,0.0078125,-0.76171875,-0.17578125
1108,0.015625,-0.7734375,-0.16796875
1109,0.01953125,-0.8046875,-0.140625
1110,0.0234375,-0.8125,-0.12890625
1111,0.02734375,-0.84375,-0.109375
1112,0.046875,-0.859375,-0.109375
1113,0.046875,-0.91015625,-0.1015625
1114,0.0859375,-0.91015625,-0.1171875
1115,0.1015625,-0.9296875,-0.1328125
1116,0.125,-0.9296875,-0.1484375
1117,0.1328125,-0.9453125,-0.1640625
1118,0.14453125,-0.94140625,-0.16015625
1119,0.140625,-0.94140625,-0.18359375
1120,0.1328125,-0.91796875,-0.1875
1121,0.13671875,-0.921875,-0.1796875
1122,0.15625,-0.9140625,-0.16015625
1123,0.1640625,-0.90234375,-0.1796875
1124,0.15234375,-0.90625,-0.140625
1125,0.1328125,-0.90234375,-0.14453125
1126,0.1328125,-0.90625,-0.1484375
1127,0.12109375,-0.9140625,-0.14453125
1128,0.12890625,-0.92578125,-0.1171875
1129,0.08984375,-0.9140625,-0.1171875
1130,0.10546875,-0.91796875,-0.1328125
1131,0.09765625,-0.91796875,-0.1171875
1132,0.09375,-0.94140625,-0.125
1133,0.08984375,-0.9296875,-0.11328125
1134,0.0859375,-0.9375,-0.1171875
1135,0.078125,-0.95703125,-0.0859375
1136,0.1015625,-0.953125,-0.09375
1137,0.11328125,-0.953125,-0.06640625
1138,0.1171875,-0.94140625,-0.07421875
1139,0.12890625,-0.94921875,-0.06640625
1140,0.140625,-0.9453125,-0.0546875
1141,0.171875,-0.9453125,-0.06640625
1142,0.1796875,-0.94921875,-0.05859375
1143,0.1953125,-0.91796875,-0.046875
1144,0.21484375,-0.9296875,-0.05859375
1145,0.234375,-0.91796875,-0.0703125
1146,0.234375,-0.953125,-0.0625
1147,0.25,-0.90625,-0.06640625
1148,0.25,-0.90625,-0.04296875
1149,0.23046875,-0.90234375,-0.0625
1150,0.23046875,-0.90234375,-0.0078125
1151,0.20703125,-0.90234375,-0.03125
1152,0.171875,-0.90625,-0.03125
1153,0.1484375,-0.91015625,-0.02734375
1154,0.15625,-0.91796875,0.00390625
1155,0.14453125,-0.953125,0.0
1156,0.1328125,-0.9375,0.0078125
1157,0.12109375,-0.94140625,0.0078125
1158,0.109375,-0.94140625,0.01953125
1159,0.109375,-0.92578125,0.00390625
1160,0.08984375,-0.90625,0.0
1161,0.09375,-0.91015625,-0.01953125
1162,0.078125,-0.90234375,-0.01953125
1163,0.06640625,-0.8828125,-0.03515625
1164,0.0703125,-0.88671875,-0.03515625
1165,0.07421875,-0.87890625,-0.015625
1166,0.0859375,-0.88671875,-0.00390625
1167,0.0859375,-0.86328125,0.00390625
1168,0.0859375,-0.890625,0.0234375
1169,0.12109375,-0.8671875,0.02734375
1170,0.140625,-0.8671875,0.02734375
1171,0.15234375,-0.8828125,0.046875
1172,0.16015625,-0.875,0.05859375
1173,0.17578125,-0.91015625,0.05078125
1174,0.17578125,-0.93359375,0.0625
1175,0.20703125,-0.91796875,0.05078125
1176,0.21875,-0.94921875,0.0625
1177,0.234375,-0.94140625,0.0703125
1178,0.23828125,-0.94921875,0.0859375
1179,0.22265625,-0.9375,0.03125
1180,0.21484375,-0.94921875,0.01953125
1181,0.21484375,-0.96875,0.0078125
1182,0.203125,-0.96875,-0.00390625
1183,0.21875,-0.97265625,-0.015625
1184,0.2265625,-0.98046875,-0.02734375
1185,0.203125,-0.9921875,-0.01953125
1186,0.21484375,-1.01953125,-0.05078125
1187,0.1875,-1.015625,-0.0546875
1188,0.19140625,-1.01953125,-0.07421875
1189,0.17578125,-1.0546875,-0.05078125
1190,0.17578125,-1.0390625,-0.06640625
1191,0.1484375,-1.01953125,-0.08984375
1192,0.16015625,-1.015625,-0.08203125
1193,0.140625,-1.0,-0.08203125
1194,0.1484375,-1.0078125,-0.08984375
1195,0.1484375,-0.99609375,-0.09375
1196,0.140625,-1.0,-0.09765625
1197,0.1640625,-1.0078125,-0.1015625
1198,0.1640625,-1.0078125,-0.09765625
1199,0.17578125,-1.03515625,-0.11328125
1200,0.1796875,-1.0390625,-0.12109375
1201,0.2109375,-1.0859375,-0.11328125
1202,0.2265625,-1.11328125,-0.1015625
1203,0.2421875,-1.140625,-0.125
1204,0.27734375,-1.18359375,-0.12109375
1205,0.29296875,-1.23046875,-0.11328125
1206,0.28125,-1.265625,-0.10546875
1207,0.26171875,-1.296875,-0.09375
1208,0.234375,-1.296875,-0.08203125
1209,0.21875,-1.3046875,-0.078125
1210,0.21484375,-1.3125,-0.078125
1211,0.21484375,-1.33203125,-0.0546875
1212,0.2421875,-1.296875,-0.08203125
1213,0.25390625,-1.28125,-0.1171875
1214,0.26953125,-1.25,-0.140625
1215,0.296875,-1.23828125,-0.16015625
1216,0.30859375,-1.23828125,-0.171875
1217,0.3203125,-1.2421875,-0.17578125
1218,0.31640625,-1.2578125,-0.17578125
1219,0.30078125,-1.265625,-0.1484375
1220,0.28515625,-1.2734375,-0.13671875
1221,0.2578125,-1.2734375,-0.1484375
1222,0.22265625,-1.29296875,-0.1328125
1223,0.1875,-1.2890625,-0.15234375
1224,0.15234375,-1.2890625,-0.1640625
1225,0.11328125,-1.265625,-0.17578125
1226,0.08203125,-1.23828125,-0.18359375
1227,0.0625,-1.1875,-0.21484375
1228,0.02734375,-1.1328125,-0.23828125
1229,0.04296875,-1.0859375,-0.23828125
1230,0.03125,-1.046875,-0.234375
1231,0.02734375,-1.00390625,-0.2421875
1232,0.03125,-0.97265625,-0.25
1233,0.04296875,-0.9453125,-0.2421875
1234,0.0546875,-0.9375,-0.23828125
1235,0.07421875,-0.921875,-0.234375
1236,0.0625,-0.92578125,-0.24609375
1237,0.02734375,-0.921875,-0.24609375
1238,0.02734375,-0.953125,-0.25
1239,0.015625,-0.9765625,-0.2578125
1240,0.0234375,-0.984375,-0.23828125
1241,0.01953125,-0.99609375,-0.26953125
1242,0.0234375,-1.03515625,-0.27734375
1243,0.01171875,-1.046875,-0.28515625
1244,0.04296875,-1.04296875,-0.2890625
1245,0.046875,-1.046875,-0.2734375
1246,0.0625,-1.04296875,-0.30859375
1247,0.0625,-1.0390625,-0.3125
1248,0.078125,-1.0390625,-0.30859375
1249,0.08984375,-1.0625,-0.3046875
1250,0.07421875,-1.05078125,-0.3125
1251,0.07421875,-1.03125,-0.30859375
1252,0.07421875,-1.03515625,-0.3203125
1253,0.06640625,-1.03125,-0.34375
1254,0.05078125,-1.0234375,-0.328125
1255,0.0390625,-1.01171875,-0.33984375
1256,0.02734375,-1.0,-0.3203125
1257,0.00390625,-0.98046875,-0.3203125
1258,0.00390625,-0.98046875,-0.28515625
1259,0.0,-0.98046875,-0.26171875
1260,-0.0234375,-0.96875,-0.2578125
1261,-0.015625,-0.9765625,-0.23046875
1262,-0.03125,-0.953125,-0.203125
1263,-0.0390625,-0.9296875,-0.22265625
1264,-0.03125,-0.9609375,-0.203125
1265,-0.03515625,-0.9140625,-0.19921875
1266,-0.015625,-0.90234375,-0.23828125
1267,-0.01953125,-0.8828125,-0.234375
1268,-0.00390625,-0.8671875,-0.23046875
1269,-0.00390625,-0.85546875,-0.24609375
1270,-0.0078125,-0.828125,-0.24609375
1271,0.00390625,-0.828125,-0.23046875
1272,0.00390625,-0.80078125,-0.22265625
1273,0.0,-0.796875,-0.2109375
1274,0.0078125,-0.77734375,-0.171875
1275,0.0078125,-0.75390625,-0.171875
1276,0.0234375,-0.7421875,-0.1640625
1277,0.0078125,-0.73046875,-0.15625
1278,0.015625,-0.71484375,-0.15234375
1279,0.01171875,-0.703125,-0.16015625
1280,0.0078125,-0.6796875,-0.16015625
1281,0.0078125,-0.6796875,-0.1484375
1282,0.0078125,-0.66015625,-0.1484375
1283,0.0078125,-0.64453125,-0.14453125
1284,0.015625,-0.640625,-0.14453125
1285,0.00390625,-0.6171875,-0.15234375
1286,0.01171875,-0.6484375,-0.1328125
1287,0.0,-0.6171875,-0.171875
1288,0.0,-0.625,-0.16796875
1289,0.0078125,-0.63671875,-0.19921875
1290,-0.015625,-0.62109375,-0.203125
1291,-0.01953125,-0.6328125,-0.21484375
1292,-0.0390625,-0.6328125,-0.21875
1293,-0.03515625,-0.64453125,-0.22265625
1294,-0.05078125,-0.6328125,-0.234375
1295,-0.06640625,-0.62890625,-0.25
1296,-0.08203125,-0.640625,-0.25
1297,-0.09375,-0.640625,-0.27734375
1298,-0.05859375,-0.69921875,-0.24609375
1299,-0.0703125,-0.68359375,-0.234375
1300,-0.05078125,-0.71484375,-0.23046875
1301,-0.0546875,-0.734375,-0.2109375
1302,-0.05078125,-0.75390625,-0.203125
1303,-0.0546875,-0.765625,-0.17578125
1304,-0.05078125,-0.7890625,-0.1875
1305,-0.05859375,-0.80859375,-0.1796875
1306,-0.04296875,-0.83984375,-0.15625
1307,-0.046875,-0.8671875,-0.16015625
1308,-0.0390625,-0.8671875,-0.17578125
1309,-0.046875,-0.890625,-0.18359375
1310,-0.0625,-0.890625,-0.18359375
1311,-0.07421875,-0.8984375,-0.1875
1312,-0.07421875,-0.91015625,-0.2109375
1313,-0.0859375,-0.91796875,-0.203125
1314,-0.0859375,-0.94140625,-0.1953125
1315,-0.10546875,-0.92578125,-0.19140625
1316,-0.12109375,-0.9296875,-0.20703125
1317,-0.140625,-0.94140625,-0.21875
1318,-0.1640625,-0.9453125,-0.20703125
1319,-0.16796875,-0.92578125,-0.20703125
1320,-0.16015625,-0.9296875,-0.21484375
1321,-0.1640625,-0.92578125,-0.19140625
1322,-0.14453125,-0.92578125,-0.1953125
1323,-0.13671875,-0.921875,-0.19140625
1324,-0.125,-0.90234375,-0.1953125
1325,-0.12109375,-0.890625,-0.18359375
1326,-0.1015625,-0.87109375,-0.18359375
1327,-0.09375,-0.87890625,-0.15625
1328,-0.109375,-0.8671875,-0.15625
1329,-0.09765625,-0.86328125,-0.15234375
1330,-0.08984375,-0.87109375,-0.1484375
1331,-0.0859375,-0.875,-0.1484375
1332,-0.08984375,-0.8828125,-0.14453125
1333,-0.0703125,-0.87109375,-0.15625
1334,-0.0625,-0.90625,-0.16796875
1335,-0.08203125,-0.890625,-0.15625
1336,-0.07421875,-0.91015625,-0.1484375
1337,-0.078125,-0.90625,-0.15234375
1338,-0.09765625,-0.90234375,-0.125
1339,-0.09765625,-0.91796875,-0.125
1340,-0.07421875,-0.91015625,-0.14453125
1341,-0.10546875,-0.92578125,-0.109375
1342,-0.109375,-0.9453125,-0.1015625
1343,-0.13671875,-0.92578125,-0.10546875
1344,-0.125,-0.92578125,-0.078125
1345,-0.140625,-0.93359375,-0.08984375
1346,-0.140625,-0.9296875,-0.08984375
1347,-0.15234375,-0.9375,-0.08203125
1348,-0.1640625,-0.9453125,-0.09375
1349,-0.1875,-0.94140625,-0.09375
1350,-0.18359375,-0.953125,-0.109375
1351,-0.2109375,-0.9765625,-0.12109375
1352,-0.20703125,-0.9765625,-0.12109375
1353,-0.2109375,-0.98046875,-0.09765625
1354,-0.19140625,-0.98046875,-0.109375
1355,-0.18359375,-0.98828125,-0.109375
1356,-0.1796875,-0.9609375,-0.09765625
1357,-0.1484375,-0.95703125,-0.10546875
1358,-0.15234375,-0.94921875,-0.078125
1359,-0.12109375,-0.921875,-0.0703125
1360,-0.12109375,-0.8984375,-0.06640625
1361,-0.09765625,-0.87890625,-0.0546875
1362,-0.0859375,-0.87109375,-0.046875
1363,-0.08203125,-0.875,-0.02734375
1364,-0.08203125,-0.875,-0.015625
1365,-0.0859375,-0.890625,-0.01953125
1366,-0.09375,-0.88671875,-0.03515625
1367,-0.09765625,-0.90625,-0.015625
1368,-0.09765625,-0.9375,-0.0078125
1369,-0.10546875,-0.921875,-0.015625
1370,-0.1015625,-0.9375,-0.00390625
1371,-0.125,-0.94140625,-0.03515625
1372,-0.13671875,-0.9375,-0.015625
1373,-0.15234375,-0.9296875,-0.04296875
1374,-0.1640625,-0.94140625,-0.03125
1375,-0.16796875,-0.953125,-0.03515625
1376,-0.19921875,-0.94921875,-0.03515625
1377,-0.21484375,-0.94921875,-0.04296875
1378,-0.234375,-0.953125,-0.04296875
1379,-0.2421875,-0.9609375,-0.0625
1380,-0.25,-0.95703125,-0.05859375
1381,-0.26171875,-0.96875,-0.06640625
1382,-0.25,-0.96875,-0.0546875
1383,-0.265625,-0.9375,-0.0859375
1384,-0.25390625,-0.94140625,-0.07421875
1385,-0.25390625,-0.93359375,-0.06640625
1386,-0.24609375,-0.90625,-0.07421875
1387,-0.23046875,-0.91796875,-0.0859375
1388,-0.21875,-0.90234375,-0.1015625
1389,-0.1953125,-0.92578125,-0.08203125
1390,-0.19921875,-0.92578125,-0.09765625
1391,-0.17578125,-0.9453125,-0.12109375
1392,-0.171875,-0.9609375,-0.1015625
1393,-0.140625,-0.98046875,-0.12109375
1394,-0.140625,-1.01171875,-0.15625
1395,-0.14453125,-1.0,-0.10546875
1396,-0.12890625,-1.01953125,-0.140625
1397,-0.1171875,-1.03515625,-0.1484375
1398,-0.12109375,-1.05078125,-0.171875
1399,-0.13671875,-1.04296875,-0.16015625
1400,-0.1328125,-1.046875,-0.1796875
1401,-0.15625,-1.046875,-0.1875
1402,-0.17578125,-1.08984375,-0.17578125
1403,-0.203125,-1.11328125,-0.17578125
1404,-0.24609375,-1.13671875,-0.14453125
1405,-0.23828125,-1.171875,-0.171875
1406,-0.28125,-1.203125,-0.16015625
1407,-0.3203125,-1.234375,-0.171875
1408,-0.359375,-1.24609375,-0.1875
1409,-0.40234375,-1.24609375,-0.21875
1410,-0.4296875,-1.25,-0.2265625
1411,-0.4609375,-1.25390625,-0.234375
1412,-0.44140625,-1.25,-0.23828125
1413,-0.38671875,-1.25,-0.24609375
1414,-0.32421875,-1.25,-0.26171875
1415,-0.28515625,-1.25390625,-0.2734375
1416,-0.234375,-1.25390625,-0.28515625
1417,-0.203125,-1.24609375,-0.27734375
1418,-0.17578125,-1.25390625,-0.2734375
1419,-0.140625,-1.25,-0.26953125
1420,-0.13671875,-1.265625,-0.26953125
1421,-0.12109375,-1.26171875,-0.25390625
1422,-0.1015625,-1.2578125,-0.25
1423,-0.10546875,-1.2734375,-0.26171875
1424,-0.1015625,-1.26953125,-0.26171875
1425,-0.09375,-1.25,-0.25390625
1426,-0.09375,-1.25390625,-0.25
1427,-0.0859375,-1.22265625,-0.26171875
1428,-0.08984375,-1.1875,-0.265625
1429,-0.078125,-1.14453125,-0.26171875
1430,-0.0703125,-1.12109375,-0.26171875
1431,-0.04296875,-1.09765625,-0.25390625
1432,-0.046875,-1.0625,-0.25
1433,-0.046875,-1.0390625,-0.23046875
1434,-0.05078125,-1.0234375,-0.234375
1435,-0.03515625,-1.00390625,-0.2265625
1436,-0.01953125,-0.9921875,-0.21875
1437,-0.015625,-1.0,-0.1953125
1438,-0.0234375,-0.9765625,-0.2265625
1439,-0.015625,-0.95703125,-0.234375
1440,-0.00390625,-0.97265625,-0.2421875
1441,-0.015625,-0.953125,-0.25
1442,-0.015625,-0.96875,-0.23828125
1443,-0.03515625,-0.98046875,-0.24609375
1444,-0.03515625,-0.98828125,-0.26171875
1445,-0.03125,-1.0078125,-0.2578125
1446,-0.046875,-1.01171875,-0.2578125
1447,-0.06640625,-1.02734375,-0.265625
1448,-0.0625,-1.04296875,-0.24609375
1449,-0.0703125,-1.04296875,-0.26171875
1450,-0.08984375,-1.0390625,-0.25
1451,-0.08984375,-1.0234375,-0.2421875
1452,-0.0859375,-1.015625,-0.24609375
1453,-0.078125,-0.99609375,-0.23046875
1454,-0.05078125,-0.97265625,-0.25
1455,-0.05078125,-0.953125,-0.23828125
1456,-0.05859375,-0.9375,-0.2578125
1457,-0.0390625,-0.921875,-0.25390625
1458,-0.04296875,-0.9140625,-0.2421875
1459,-0.0390625,-0.91015625,-0.24609375
1460,-0.0390625,-0.90625,-0.2421875
1461,-0.0234375,-0.90625,-0.23828125
1462,-0.01171875,-0.90625,-0.24609375
1463,0.0,-0.890625,-0.2421875
1464,0.00390625,-0.90625,-0.24609375
1465,0.00390625,-0.8828125,-0.24609375
1466,0.015625,-0.8984375,-0.23828125
1467,0.0234375,-0.890625,-0.21875
1468,0.0234375,-0.890625,-0.171875
1469,0.00390625,-0.89453125,-0.16015625
1470,0.0078125,-0.8671875,-0.16015625
1471,0.0078125,-0.86328125,-0.15625
1472,0.0078125,-0.83984375,-0.1640625
1473,-0.01953125,-0.82421875,-0.15234375
1474,-0.0234375,-0.796875,-0.17578125
1475,-0.02734375,-0.7890625,-0.171875
1476,-0.0390625,-0.76171875,-0.1796875
1477,-0.0390625,-0.74609375,-0.2109375
1478,-0.04296875,-0.7421875,-0.21875
1479,-0.03515625,-0.734375,-0.23046875
1480,-0.05859375,-0.73046875,-0.23828125
1481,-0.04296875,-0.71484375,-0.23828125
1482,-0.0390625,-0.7109375,-0.234375
1483,-0.0234375,-0.703125,-0.19921875
1484,0.01171875,-0.71875,-0.203125
1485,0.02734375,-0.69921875,-0.1640625
1486,0.05859375,-0.703125,-0.1484375
1487,0.1171875,-0.70703125,-0.12890625
1488,0.16796875,-0.71875,-0.0859375
1489,0.19921875,-0.71484375,-0.078125
1490,0.203125,-0.69140625,-0.08203125
1491,0.203125,-0.671875,-0.05859375
1492,0.21875,-0.6953125,-0.08203125
1493,0.20703125,-0.68359375,-0.0859375
1494,0.19921875,-0.671875,-0.12109375
1495,0.18359375,-0.671875,-0.12890625
1496,0.1796875,-0.671875,-0.140625
1497,0.15625,-0.6796875,-0.14453125
1498,0.12890625,-0.6953125,-0.12890625
1499,0.09375,-0.70703125,-0.109375
1500,0.05859375,-0.71875,-0.1015625
1501,0.0390625,-0.734375,-0.12890625
1502,0.01953125,-0.765625,-0.0859375
1503,0.0078125,-0.76953125,-0.109375
1504,-0.015625,-0.79296875,-0.1015625
1505,-0.02734375,-0.81640625,-0.1171875
1506,-0.015625,-0.83984375,-0.12109375
1507,-0.046875,-0.84765625,-0.1328125
1508,-0.04296875,-0.87109375,-0.12890625
1509,-0.03515625,-0.890625,-0.140625
1510,-0.0078125,-0.90234375,-0.1484375
1511,0.0078125,-0.9140625,-0.16015625
1512,0.01171875,-0.91796875,-0.13671875
1513,0.03125,-0.9453125,-0.1328125
1514,0.05859375,-0.93359375,-0.13671875
1515,0.0859375,-0.93359375,-0.125
1516,0.09765625,-0.9296875,-0.140625
1517,0.1171875,-0.92578125,-0.140625
1518,0.12109375,-0.9140625,-0.13671875
1519,0.140625,-0.92578125,-0.15625
1520,0.12890625,-0.9453125,-0.13671875
1521,0.1328125,-0.92578125,-0.12109375
1522,0.1328125,-0.8984375,-0.1328125
1523,0.13671875,-0.91796875,-0.14453125
1524,0.14453125,-0.93359375,-0.125
1525,0.12890625,-0.92578125,-0.125
1526,0.109375,-0.93359375,-0.1171875
1527,0.109375,-0.94921875,-0.12109375
1528,0.1015625,-0.97265625,-0.11328125
1529,0.09375,-0.9765625,-0.1171875
1530,0.08203125,-0.9921875,-0.12109375
1531,0.0859375,-0.99609375,-0.125
1532,0.08984375,-1.00390625,-0.12109375
1533,0.0859375,-0.98046875,-0.12109375
1534,0.08984375,-0.984375,-0.109375
1535,0.06640625,-0.96484375,-0.078125
1536,0.09375,-0.95703125,-0.08984375
1537,0.09375,-0.9453125,-0.078125
1538,0.109375,-0.9453125,-0.0625
1539,0.109375,-0.92578125,-0.046875
1540,0.109375,-0.921875,-0.04296875
1541,0.11328125,-0.921875,-0.05859375
1542,0.1171875,-0.91796875,-0.05078125
1543,0.12109375,-0.90234375,-0.0390625
1544,0.1328125,-0.88671875,-0.04296875
1545,0.12890625,-0.90234375,-0.0234375
1546,0.17578125,-0.87890625,-0.03125
1547,0.171875,-0.8828125,-0.03125
1548,0.1640625,-0.88671875,-0.015625
1549,0.171875,-0.890625,-0.01953125
1550,0.16796875,-0.90234375,-0.015625
1551,0.13671875,-0.8984375,-0.0234375
1552,0.1328125,-0.89453125,-0.01953125
1553,0.1171875,-0.90625,-0.04296875
1554,0.11328125,-0.88671875,-0.046875
1555,0.1015625,-0.90625,-0.015625
1556,0.06640625,-0.91015625,-0.05078125
1557,0.06640625,-0.890625,-0.0390625
1558,0.046875,-0.890625,-0.0390625
1559,0.046875,-0.90625,-0.03125
1560,0.05078125,-0.91015625,-0.04296875
1561,0.03515625,-0.921875,-0.01171875
1562,0.02734375,-0.93359375,-0.0234375
1563,0.02734375,-0.94921875,-0.01953125
1564,0.046875,-0.95703125,-0.04296875
1565,0.05859375,-0.95703125,0.00390625
1566,0.08984375,-0.9765625,0.0
1567,0.09375,-0.97265625,-0.02734375
1568,0.12109375,-0.97265625,0.00390625
1569,0.140625,-0.9765625,-0.00390625
1570,0.1484375,-0.9765625,-0.00390625
1571,0.171875,-0.96875,-0.0078125
1572,0.171875,-0.96484375,0.0
1573,0.16796875,-0.9609375,-0.0078125
1574,0.15234375,-0.9609375,0.0
1575,0.1484375,-0.94921875,0.01171875
1576,0.140625,-0.95703125,0.0234375
1577,0.13671875,-0.95703125,0.02734375
1578,0.1328125,-0.94921875,0.0078125
1579,0.11328125,-0.93359375,0.00390625
1580,0.11328125,-0.90234375,0.0
1581,0.09765625,-0.890625,-0.00390625
1582,0.08984375,-0.87109375,-0.03125
1583,0.10546875,-0.87109375,-0.01953125
1584,0.10546875,-0.88671875,-0.03125
1585,0.1171875,-0.8828125,-0.03125
1586,0.125,-0.875,-0.03515625
1587,0.1171875,-0.890625,-0.05078125
1588,0.15234375,-0.91015625,-0.0234375
1589,0.18359375,-0.91796875,-0.03125
1590,0.17578125,-0.90625,-0.01953125
1591,0.203125,-0.921875,-0.03515625
1592,0.1953125,-0.93359375,-0.03125
1593,0.20703125,-0.9453125,-0.03125
1594,0.21484375,-0.96484375,-0.0234375
1595,0.19921875,-0.96484375,-0.0234375
1596,0.20703125,-0.98828125,-0.03515625
1597,0.1875,-0.99609375,-0.05859375
1598,0.1953125,-1.0,-0.0703125
1599,0.1875,-1.02734375,-0.06640625
1600,0.17578125,-1.0390625,-0.078125
1601,0.15234375,-1.05859375,-0.078125
1602,0.1328125,-1.0703125,-0.1015625
1603,0.14453125,-1.08984375,-0.10546875
1604,0.1328125,-1.078125,-0.12109375
1605,0.1015625,-1.0859375,-0.1484375
1606,0.12109375,-1.09765625,-0.16015625
1607,0.125,-1.09375,-0.17578125
1608,0.1171875,-1.09765625,-0.17578125
1609,0.125,-1.09765625,-0.15625
1610,0.16015625,-1.1015625,-0.1875
1611,0.1640625,-1.078125,-0.12890625
1612,0.1796875,-1.0859375,-0.1171875
1613,0.1796875,-1.06640625,-0.11328125
1614,0.1953125,-1.06640625,-0.08984375
1615,0.1953125,-1.046875,-0.08984375
1616,0.19921875,-1.03515625,-0.08203125
1617,0.1796875,-1.05078125,-0.0703125
1618,0.2109375,-1.0390625,-0.08984375
1619,0.20703125,-1.046875,-0.09375
1620,0.2265625,-1.0625,-0.1015625
1621,0.21875,-1.0703125,-0.1171875
1622,0.23828125,-1.07421875,-0.1484375
1623,0.25,-1.08984375,-0.140625
1624,0.25390625,-1.11328125,-0.17578125
1625,0.25390625,-1.15625,-0.17578125
1626,0.25,-1.17578125,-0.19921875
1627,0.24609375,-1.21875,-0.203125
1628,0.25,-1.25390625,-0.18359375
1629,0.234375,-1.28515625,-0.19921875
1630,0.1953125,-1.3515625,-0.203125
1631,0.17578125,-1.3828125,-0.2109375
1632,0.171875,-1.4296875,-0.2265625
1633,0.16796875,-1.47265625,-0.25
1634,0.17578125,-1.5,-0.25
1635,0.2109375,-1.5,-0.2578125
1636,0.21875,-1.46875,-0.24609375
1637,0.2421875,-1.45703125,-0.2265625
1638,0.234375,-1.41796875,-0.22265625
1639,0.21484375,-1.37109375,-0.2109375
1640,0.1953125,-1.30859375,-0.23046875
1641,0.203125,-1.25390625,-0.21484375
1642,0.18359375,-1.203125,-0.234375
1643,0.16796875,-1.1640625,-0.21484375
1644,0.1328125,-1.12109375,-0.2421875
1645,0.11328125,-1.0625,-0.2578125
1646,0.08984375,-1.02734375,-0.26171875
1647,0.0703125,-1.0078125,-0.265625
1648,0.046875,-0.98828125,-0.265625
1649,0.0390625,-0.9609375,-0.25
1650,0.00390625,-0.9375,-0.25390625
1651,-0.03125,-0.9296875,-0.24609375
1652,-0.0546875,-0.9140625,-0.20703125
1653,-0.06640625,-0.90625,-0.203125
1654,-0.0703125,-0.90234375,-0.203125
1655,-0.0859375,-0.8984375,-0.19921875
1656,-0.0625,-0.90234375,-0.203125
1657,-0.06640625,-0.91015625,-0.203125
1658,-0.0625,-0.92578125,-0.19921875
1659,-0.05078125,-0.9375,-0.21875
1660,-0.0234375,-0.9609375,-0.203125
1661,-0.0078125,-0.9765625,-0.20703125
1662,0.0,-0.9921875,-0.23046875
1663,0.015625,-1.0,-0.2421875
1664,0.0546875,-1.01953125,-0.203125
1665,0.0859375,-1.03515625,-0.2421875
1666,0.11328125,-1.05078125,-0.24609375
1667,0.12109375,-1.03125,-0.2421875
1668,0.1484375,-1.0390625,-0.23828125
1669,0.16796875,-1.04296875,-0.265625
1670,0.15234375,-1.015625,-0.25390625
1671,0.16015625,-0.98828125,-0.26171875
1672,0.15234375,-0.984375,-0.26171875
1673,0.1328125,-0.9609375,-0.24609375
1674,0.1015625,-0.94921875,-0.23046875
1675,0.08984375,-0.90234375,-0.25
1676,0.0703125,-0.88671875,-0.23046875
1677,0.0390625,-0.87109375,-0.234375
1678,0.02734375,-0.86328125,-0.23046875
1679,0.0078125,-0.859375,-0.21875
1680,0.0,-0.84765625,-0.2109375
1681,-0.03125,-0.83203125,-0.19140625
1682,-0.02734375,-0.82421875,-0.17578125
1683,-0.05078125,-0.8046875,-0.1796875
1684,-0.0703125,-0.79296875,-0.1953125
1685,-0.06640625,-0.78515625,-0.19921875
1686,-0.046875,-0.75390625,-0.22265625
1687,-0.06640625,-0.7421875,-0.23046875
1688,-0.0703125,-0.72265625,-0.24609375
1689,-0.078125,-0.6953125,-0.25
1690,-0.07421875,-0.69140625,-0.2578125
1691,-0.06640625,-0.68359375,-0.26171875
1692,-0.05859375,-0.66796875,-0.26953125
1693,-0.0546875,-0.65625,-0.265625
1694,-0.06640625,-0.65625,-0.265625
1695,-0.06640625,-0.63671875,-0.25390625
1696,-0.0390625,-0.65625,-0.23046875
1697,-0.0625,-0.64453125,-0.21484375
1698,-0.0625,-0.65234375,-0.20703125
1699,-0.046875,-0.6640625,-0.21484375
1700,-0.02734375,-0.671875,-0.203125
1701,-0.0234375,-0.68359375,-0.1953125
1702,-0.03515625,-0.69921875,-0.20703125
1703,-0.015625,-0.7265625,-0.2265625
1704,-0.01171875,-0.734375,-0.23828125
1705,-0.0078125,-0.74609375,-0.21484375
1706,0.0,-0.75390625,-0.22265625
1707,-0.01171875,-0.765625,-0.2265625
1708,-0.00390625,-0.76953125,-0.203125
1709,-0.01953125,-0.77734375,-0.203125
1710,-0.02734375,-0.76953125,-0.19921875
1711,-0.03515625,-0.78515625,-0.18359375
1712,-0.05078125,-0.7890625,-0.17578125
1713,-0.046875,-0.78125,-0.16015625
1714,-0.04296875,-0.76953125,-0.171875
1715,-0.04296875,-0.80078125,-0.13671875
1716,-0.06640625,-0.77734375,-0.171875
1717,-0.06640625,-0.76953125,-0.1875
1718,-0.07421875,-0.7578125,-0.1953125
1719,-0.06640625,-0.7734375,-0.1875
1720,-0.05859375,-0.76171875,-0.21484375
1721,-0.0546875,-0.765625,-0.2109375
1722,-0.03125,-0.79296875,-0.203125
1723,-0.02734375,-0.80078125,-0.203125
1724,-0.01171875,-0.80859375,-0.203125
1725,-0.0078125,-0.828125,-0.17578125
1726,-0.00390625,-0.83984375,-0.1875
1727,-0.00390625,-0.859375,-0.17578125
1728,-0.00390625,-0.8671875,-0.16796875
1729,-0.015625,-0.87890625,-0.15234375
1730,-0.03515625,-0.88671875,-0.15625
1731,-0.03125,-0.90234375,-0.1640625
1732,-0.05078125,-0.89453125,-0.14453125
1733,-0.0625,-0.90234375,-0.16796875
1734,-0.0859375,-0.890625,-0.14453125
1735,-0.09375,-0.8984375,-0.15625
1736,-0.109375,-0.90234375,-0.1484375
1737,-0.12890625,-0.890625,-0.15625
1738,-0.15625,-0.875,-0.16796875
1739,-0.1640625,-0.890625,-0.1640625
1740,-0.19921875,-0.88671875,-0.16015625
1741,-0.19921875,-0.91015625,-0.16796875
1742,-0.21875,-0.89453125,-0.16796875
1743,-0.234375,-0.91015625,-0.18359375
1744,-0.24609375,-0.91796875,-0.16015625
1745,-0.2578125,-0.92578125,-0.15625
1746,-0.2578125,-0.953125,-0.1484375
1747,-0.24609375,-0.96875,-0.12890625
1748,-0.2734375,-0.9609375,-0.12890625
1749,-0.2578125,-0.9765625,-0.125
1750,-0.23046875,-0.9375,-0.1328125
1751,-0.22265625,-0.96484375,-0.15234375
1752,-0.203125,-0.94921875,-0.14453125
1753,-0.203125,-0.94921875,-0.14453125
1754,-0.1953125,-0.92578125,-0.1484375
1755,-0.1953125,-0.921875,-0.1484375
1756,-0.1640625,-0.9296875,-0.140625
1757,-0.13671875,-0.91015625,-0.1328125
1758,-0.14453125,-0.890625,-0.140625
1759,-0.15234375,-0.890625,-0.125
1760,-0.15625,-0.890625,-0.08984375
1761,-0.1640625,-0.88671875,-0.08984375
1762,-0.1484375,-0.89453125,-0.08984375
1763,-0.15234375,-0.9140625,-0.08203125
1764,-0.15625,-0.921875,-0.0859375
1765,-0.15625,-0.9375,-0.06640625
1766,-0.16015625,-0.9375,-0.0625
1767,-0.16015625,-0.94140625,-0.046875
1768,-0.14453125,-0.9375,-0.05078125
1769,-0.15234375,-0.94140625,-0.0546875
1770,-0.1484375,-0.93359375,-0.03515625
1771,-0.14453125,-0.921875,-0.0546875
1772,-0.15234375,-0.875,-0.06640625
1773,-0.1640625,-0.8828125,-0.04296875
1774,-0.1640625,-0.87109375,-0.05859375
1775,-0.17578125,-0.8671875,-0.04296875
1776,-0.1796875,-0.8671875,-0.046875
1777,-0.16015625,-0.87109375,-0.046875
1778,-0.16796875,-0.875,-0.04296875
1779,-0.16015625,-0.88671875,-0.03515625
1780,-0.1484375,-0.875,-0.01953125
1781,-0.1484375,-0.890625,-0.0234375
1782,-0.14453125,-0.9140625,-0.0078125
1783,-0.16015625,-0.93359375,-0.04296875
1784,-0.140625,-0.91796875,-0.015625
1785,-0.1640625,-0.921875,-0.0078125
1786,-0.14453125,-0.93359375,-0.03515625
1787,-0.15234375,-0.9296875,-0.01171875
1788,-0.15625,-0.9375,-0.0390625
1789,-0.16015625,-0.9375,-0.046875
1790,-0.16015625,-0.92578125,-0.05078125
1791,-0.1640625,-0.93359375,-0.07421875
1792,-0.15234375,-0.9453125,-0.06640625
1793,-0.1484375,-0.9375,-0.08203125
1794,-0.16015625,-0.93359375,-0.078125
1795,-0.1640625,-0.921875,-0.09375
1796,-0.16015625,-0.9296875,-0.0859375
1797,-0.1484375,-0.9296875,-0.09375
1798,-0.14453125,-0.9140625,-0.11328125
1799,-0.1328125,-0.91015625,-0.1171875
1800,-0.140625,-0.9140625,-0.12109375
1801,-0.140625,-0.91015625,-0.10546875
1802,-0.1484375,-0.921875,-0.0859375
1803,-0.15625,-0.921875,-0.0859375
1804,-0.15625,-0.94921875,-0.09375
1805,-0.13671875,-0.9375,-0.109375
1806,-0.140625,-0.96484375,-0.0859375
1807,-0.1328125,-0.9765625,-0.0703125
1808,-0.13671875,-0.98046875,-0.078125
1809,-0.13671875,-1.0078125,-0.08984375
1810,-0.1484375,-1.0078125,-0.09375
1811,-0.15234375,-1.015625,-0.12109375
1812,-0.1796875,-1.04296875,-0.140625
1813,-0.17578125,-1.078125,-0.15625
1814,-0.1953125,-1.09765625,-0.1640625
1815,-0.19921875,-1.10546875,-0.18359375
1816,-0.1796875,-1.13671875,-0.20703125
1817,-0.19921875,-1.13671875,-0.21484375
1818,-0.18359375,-1.15625,-0.1953125
1819,-0.1640625,-1.16015625,-0.21484375
1820,-0.17578125,-1.1640625,-0.21875
1821,-0.15234375,-1.16796875,-0.19140625
1822,-0.16796875,-1.1796875,-0.18359375
1823,-0.171875,-1.17578125,-0.19140625
1824,-0.1640625,-1.16796875,-0.1484375
1825,-0.16015625,-1.17578125,-0.171875
1826,-0.14453125,-1.203125,-0.19140625
1827,-0.15625,-1.2109375,-0.1796875
1828,-0.140625,-1.23828125,-0.203125
1829,-0.15234375,-1.25390625,-0.19140625
1830,-0.14453125,-1.26953125,-0.21875
1831,-0.15625,-1.28125,-0.23046875
1832,-0.1640625,-1.30078125,-0.234375
1833,-0.1640625,-1.3046875,-0.23046875
1834,-0.1953125,-1.296875,-0.24609375
1835,-0.21875,-1.28515625,-0.25390625
1836,-0.23046875,-1.265625,-0.25390625
1837,-0.24609375,-1.24609375,-0.2578125
1838,-0.24609375,-1.24609375,-0.25
1839,-0.265625,-1.23046875,-0.2734375
1840,-0.25,-1.23046875,-0.2890625
1841,-0.24609375,-1.23046875,-0.29296875
1842,-0.24609375,-1.23046875,-0.296875
1843,-0.2421875,-1.2421875,-0.29296875
1844,-0.2265625,-1.2421875,-0.2890625
1845,-0.23046875,-1.26953125,-0.2734375
1846,-0.22265625,-1.2578125,-0.2734375
1847,-0.21484375,-1.265625,-0.265625
1848,-0.203125,-1.26171875,-0.2734375
1849,-0.15234375,-1.2421875,-0.26953125
1850,-0.125,-1.203125,-0.2890625
1851,-0.07421875,-1.16015625,-0.3046875
1852,-0.046875,-1.12109375,-0.3203125
1853,0.0,-1.0859375,-0.3046875
1854,0.0078125,-1.00390625,-0.29296875
1855,0.02734375,-0.98828125,-0.28515625
1856,0.06640625,-0.93359375,-0.26171875
1857,0.04296875,-0.890625,-0.24609375
1858,0.05078125,-0.859375,-0.2578125
1859,0.03125,-0.84375,-0.2421875
1860,0.02734375,-0.83984375,-0.234375
1861,0.015625,-0.84765625,-0.22265625
1862,0.00390625,-0.859375,-0.21484375
1863,-0.0078125,-0.8984375,-0.234375
1864,-0.04296875,-0.93359375,-0.234375
1865,-0.0390625,-0.9765625,-0.25
1866,-0.07421875,-1.0,-0.265625
1867,-0.08203125,-1.03125,-0.265625
1868,-0.08984375,-1.046875,-0.2890625
1869,-0.07421875,-1.07421875,-0.3125
1870,-0.10546875,-1.05859375,-0.31640625
1871,-0.12890625,-1.0625,-0.328125
1872,-0.1328125,-1.05078125,-0.3046875
1873,-0.1328125,-1.0390625,-0.2890625
1874,-0.14453125,-1.0234375,-0.2734375
1875,-0.140625,-1.015625,-0.2734375
1876,-0.1328125,-0.99609375,-0.2734375
1877,-0.109375,-0.98828125,-0.2734375
1878,-0.08984375,-0.97265625,-0.27734375
1879,-0.08203125,-0.94140625,-0.28515625
1880,-0.05859375,-0.9375,-0.28515625
1881,-0.03515625,-0.90625,-0.26953125
1882,0.00390625,-0.88671875,-0.2578125
1883,0.03125,-0.87890625,-0.2421875
1884,0.05859375,-0.8671875,-0.2265625
1885,0.08984375,-0.84765625,-0.21484375
1886,0.09375,-0.83984375,-0.1875
1887,0.12109375,-0.82421875,-0.15625
1888,0.12890625,-0.81640625,-0.13671875
1889,0.11328125,-0.8125,-0.12109375
1890,0.109375,-0.8046875,-0.140625
1891,0.07421875,-0.78125,-0.1328125
1892,0.0703125,-0.74609375,-0.18359375
1893,0.0546875,-0.703125,-0.20703125
1894,0.02734375,-0.66796875,-0.22265625
1895,0.015625,-0.62109375,-0.25390625
1896,-0.04296875,-0.578125,-0.25390625
1897,-0.0546875,-0.53515625,-0.28125
1898,-0.0703125,-0.52734375,-0.26953125
1899,-0.06640625,-0.5234375,-0.2578125
1900,-0.109375,-0.4921875,-0.25
1901,-0.12890625,-0.5,-0.24609375
1902,-0.11328125,-0.484375,-0.21484375
1903,-0.0859375,-0.49609375,-0.21484375
1904,-0.05859375,-0.5,-0.20703125
1905,-0.015625,-0.51171875,-0.19921875
1906,0.015625,-0.54296875,-0.20703125
1907,0.0625,-0.55859375,-0.19921875
1908,0.09375,-0.5625,-0.18359375
1909,0.1171875,-0.6015625,-0.203125
1910,0.1640625,-0.6171875,-0.17578125
1911,0.1640625,-0.65625,-0.16796875
1912,0.1796875,-0.69921875,-0.1953125
1913,0.1875,-0.7109375,-0.1875
1914,0.19140625,-0.74609375,-0.1875
1915,0.1953125,-0.76171875,-0.19921875
1916,0.19921875,-0.765625,-0.21875
1917,0.19140625,-0.78515625,-0.21875
1918,0.15234375,-0.78515625,-0.22265625
1919,0.12890625,-0.796875,-0.23828125
1920,0.10546875,-0.80859375,-0.2265625
1921,0.0859375,-0.81640625,-0.25
1922,0.06640625,-0.8203125,-0.25
1923,0.0703125,-0.8359375,-0.21484375
1924,0.03515625,-0.83984375,-0.2421875
1925,0.04296875,-0.87109375,-0.2421875
1926,0.03515625,-0.8828125,-0.23828125
1927,0.0390625,-0.89453125,-0.2109375
1928,0.046875,-0.92578125,-0.18359375
1929,0.08203125,-0.953125,-0.17578125
1930,0.0859375,-0.984375,-0.16796875
1931,0.09765625,-1.00390625,-0.17578125
1932,0.1015625,-1.03125,-0.1484375
1933,0.1171875,-1.0390625,-0.15625
1934,0.109375,-1.04296875,-0.1875
1935,0.11328125,-1.04296875,-0.140625
1936,0.125,-1.0390625,-0.125
1937,0.1171875,-1.046875,-0.12890625
1938,0.1171875,-1.0234375,-0.1171875
1939,0.11328125,-1.0234375,-0.1171875
1940,0.1171875,-1.015625,-0.1015625
1941,0.11328125,-0.99609375,-0.11328125
1942,0.125,-0.984375,-0.12109375
1943,0.13671875,-0.9453125,-0.12109375
1944,0.13671875,-0.9375,-0.1328125
1945,0.13671875,-0.9375,-0.1328125
1946,0.140625,-0.90625,-0.13671875
1947,0.14453125,-0.90234375,-0.125
1948,0.13671875,-0.87890625,-0.1171875
1949,0.1328125,-0.875,-0.12890625
1950,0.12109375,-0.86328125,-0.12109375
1951,0.10546875,-0.87109375,-0.109375
1952,0.12890625,-0.8671875,-0.109375
1953,0.09765625,-0.87109375,-0.125
1954,0.08984375,-0.890625,-0.09375
1955,0.06640625,-0.890625,-0.08203125
1956,0.0859375,-0.90234375,-0.09765625
1957,0.09375,-0.8984375,-0.09375
1958,0.1171875,-0.91015625,-0.10546875
1959,0.12109375,-0.91796875,-0.09375
1960,0.12890625,-0.9140625,-0.1015625
1961,0.1484375,-0.91015625,-0.08203125
1962,0.14453125,-0.9140625,-0.0859375
1963,0.1640625,-0.90625,-0.0859375
1964,0.19921875,-0.92578125,-0.09375
1965,0.2109375,-0.92578125,-0.04296875
1966,0.18359375,-0.91015625,-0.07421875
1967,0.203125,-0.90234375,-0.0546875
1968,0.2109375,-0.8984375,-0.04296875
1969,0.2109375,-0.92578125,-0.03125
1970,0.21484375,-0.90625,-0.02734375
1971,0.2109375,-0.91796875,-0.01953125
1972,0.20703125,-0.92578125,-0.0234375
1973,0.203125,-0.9296875,-0.0234375
1974,0.18359375,-0.9296875,-0.01953125
1975,0.17578125,-0.9296875,-0.0078125
1976,0.16015625,-0.93359375,-0.01171875
1977,0.14453125,-0.90234375,-0.046875
1978,0.1328125,-0.8984375,-0.02734375
1979,0.11328125,-0.87890625,-0.01953125
1980,0.09765625,-0.87890625,-0.03515625
1981,0.08203125,-0.87109375,-0.01171875
1982,0.0859375,-0.8828125,0.0
1983,0.0703125,-0.890625,0.0
1984,0.05078125,-0.875,0.0
1985,0.0703125,-0.90234375,0.0078125
1986,0.0703125,-0.90625,0.0078125
1987,0.05078125,-0.890625,0.0
1988,0.08203125,-0.87890625,-0.00390625
1989,0.0859375,-0.89453125,-0.0078125
1990,0.10546875,-0.90625,-0.02734375
1991,0.1171875,-0.91015625,-0.03125
1992,0.1328125,-0.92578125,-0.04296875
1993,0.15234375,-0.93359375,-0.02734375
1994,0.16015625,-0.94921875,-0.03125
1995,0.15625,-0.96875,-0.00390625
1996,0.16796875,-0.9921875,-0.02734375
1997,0.1484375,-1.0,-0.015625
1998,0.16015625,-0.99609375,-0.05078125
1999,0.13671875,-0.9921875,-0.07421875
2000,0.15625,-1.0078125,-0.08203125
2001,0.1640625,-0.9921875,-0.0859375
2002,0.16015625,-0.98828125,-0.09375
2003,0.16015625,-0.9921875,-0.11328125
2004,0.16796875,-0.984375,-0.09375
2005,0.171875,-0.98046875,-0.1015625
2006,0.1796875,-0.97265625,-0.09375
2007,0.1875,-0.98046875,-0.0859375
2008,0.21484375,-0.98828125,-0.07421875
2009,0.23046875,-0.99609375,-0.09765625
2010,0.24609375,-1.01953125,-0.09375
2011,0.25,-1.01953125,-0.11328125
2012,0.265625,-1.015625,-0.12890625
2013,0.2890625,-1.03515625,-0.140625
2014,0.3046875,-1.046875,-0.16015625
2015,0.32421875,-1.0703125,-0.17578125
2016,0.3359375,-1.09765625,-0.15625
2017,0.3125,-1.11328125,-0.15625
2018,0.29296875,-1.140625,-0.1484375
2019,0.28125,-1.1640625,-0.1328125
2020,0.25390625,-1.1953125,-0.14453125
2021,0.25,-1.2109375,-0.15625
2022,0.2109375,-1.22265625,-0.1484375
2023,0.14453125,-1.2421875,-0.15234375
2024,0.07421875,-1.24609375,-0.1328125
2025,0.0390625,-1.234375,-0.12109375
2026,0.00390625,-1.21484375,-0.1015625
2027,-0.0078125,-1.16796875,-0.0859375
2028,0.0234375,-1.14453125,-0.07421875
2029,0.05859375,-1.12890625,-0.0546875
2030,0.0234375,-1.07421875,-0.08984375
2031,0.0234375,-1.05859375,-0.12109375
2032,0.04296875,-1.0390625,-0.109375
2033,0.06640625,-1.03125,-0.14453125
2034,0.1171875,-1.04296875,-0.1484375
2035,0.15625,-1.046875,-0.14453125
2036,0.171875,-1.078125,-0.1640625
2037,0.21484375,-1.10546875,-0.16796875
2038,0.2578125,-1.16796875,-0.19921875
2039,0.26171875,-1.19140625,-0.25390625
2040,0.2734375,-1.2265625,-0.26171875
2041,0.2890625,-1.24609375,-0.2578125
2042,0.29296875,-1.25390625,-0.25
2043,0.296875,-1.25390625,-0.27734375
2044,0.3125,-1.24609375,-0.296875
2045,0.32421875,-1.23828125,-0.28515625
2046,0.32421875,-1.21875,-0.28515625
2047,0.3203125,-1.2109375,-0.29296875
2048,0.30859375,-1.19921875,-0.28125
2049,0.30859375,-1.19140625,-0.2890625
2050,0.28125,-1.19140625,-0.28515625
2051,0.25390625,-1.1875,-0.26953125
2052,0.2265625,-1.15625,-0.25390625
2053,0.2109375,-1.15625,-0.2421875
2054,0.1796875,-1.12890625,-0.234375
2055,0.15234375,-1.09375,-0.2421875
2056,0.140625,-1.05078125,-0.25390625
2057,0.12890625,-1.0234375,-0.2421875
2058,0.12890625,-1.0,-0.24609375
2059,0.14453125,-0.9765625,-0.24609375
2060,0.1640625,-0.96484375,-0.2421875
2061,0.19921875,-0.984375,-0.23046875
2062,0.21875,-0.984375,-0.19921875
2063,0.28515625,-0.99609375,-0.18359375
2064,0.26953125,-1.02734375,-0.16015625
2065,0.3046875,-1.07421875,-0.16015625
2066,0.3046875,-1.08984375,-0.171875
2067,0.3203125,-1.09765625,-0.17578125
2068,0.30078125,-1.109375,-0.22265625
2069,0.26171875,-1.11328125,-0.25
2070,0.22265625,-1.078125,-0.28515625
2071,0.16015625,-1.0703125,-0.3125
2072,0.11328125,-1.078125,-0.3125
2073,0.06640625,-1.05078125,-0.2890625
2074,0.0234375,-1.0234375,-0.28515625
2075,0.0078125,-1.01171875,-0.26953125
2076,-0.00390625,-1.0,-0.23828125
2077,-0.0234375,-0.98046875,-0.234375
2078,-0.01953125,-0.96484375,-0.2265625
2079,-0.03125,-0.96875,-0.20703125
2080,-0.03515625,-0.95703125,-0.1875
2081,0.0,-0.953125,-0.171875
2082,0.0078125,-0.9375,-0.1640625
2083,0.01953125,-0.9296875,-0.16796875
2084,0.07421875,-0.9375,-0.1484375
2085,0.08203125,-0.91796875,-0.1953125
2086,0.10546875,-0.88671875,-0.20703125
2087,0.1171875,-0.875,-0.2109375
2088,0.12890625,-0.859375,-0.21875
2089,0.140625,-0.83203125,-0.21484375
2090,0.12890625,-0.8046875,-0.2109375
2091,0.12109375,-0.765625,-0.21484375
2092,0.1015625,-0.74609375,-0.19140625
2093,0.1015625,-0.74609375,-0.19140625
2094,0.10546875,-0.7265625,-0.1875
2095,0.12890625,-0.7109375,-0.1484375
2096,0.09375,-0.69140625,-0.1484375
2097,0.09375,-0.68359375,-0.1484375
2098,0.10546875,-0.67578125,-0.12109375
2099,0.08984375,-0.65625,-0.1171875
2100,0.10546875,-0.6640625,-0.1015625
2101,0.09765625,-0.6484375,-0.09765625
2102,0.09765625,-0.640625,-0.09765625
2103,0.0625,-0.625,-0.09765625
2104,0.05078125,-0.609375,-0.125
2105,0.05078125,-0.60546875,-0.13671875
2106,0.0390625,-0.625,-0.1484375
2107,0.04296875,-0.6171875,-0.19140625
2108,0.046875,-0.609375,-0.2109375
2109,0.0546875,-0.6171875,-0.2265625
2110,0.0390625,-0.625,-0.2265625
2111,0.03125,-0.640625,-0.2265625
2112,0.01171875,-0.640625,-0.21484375
2113,-0.01171875,-0.65234375,-0.21484375
2114,-0.01171875,-0.6640625,-0.1953125
2115,-0.05078125,-0.6640625,-0.22265625
2116,-0.06640625,-0.6875,-0.2109375
2117,-0.1171875,-0.6796875,-0.22265625
2118,-0.1171875,-0.6953125,-0.203125
2119,-0.125,-0.7109375,-0.2109375
2120,-0.1328125,-0.734375,-0.2265625
2121,-0.15234375,-0.74609375,-0.21484375
2122,-0.16796875,-0.76171875,-0.2109375
2123,-0.18359375,-0.765625,-0.2265625
2124,-0.19921875,-0.78125,-0.20703125
2125,-0.20703125,-0.79296875,-0.20703125
2126,-0.2421875,-0.81640625,-0.1953125
2127,-0.265625,-0.80859375,-0.171875
2128,-0.2890625,-0.83203125,-0.16015625
2129,-0.29296875,-0.8203125,-0.17578125
2130,-0.31640625,-0.8203125,-0.15625
2131,-0.31640625,-0.82421875,-0.15625
2132,-0.328125,-0.8359375,-0.16015625
2133,-0.34375,-0.84375,-0.1796875
2134,-0.3203125,-0.859375,-0.16796875
2135,-0.3046875,-0.875,-0.15625
2136,-0.2890625,-0.91796875,-0.15625
2137,-0.29296875,-0.91015625,-0.1875
2138,-0.26953125,-0.94140625,-0.19921875
2139,-0.23828125,-0.984375,-0.19921875
2140,-0.21484375,-0.9921875,-0.18359375
2141,-0.1875,-1.00390625,-0.1796875
2142,-0.13671875,-1.03125,-0.20703125
2143,-0.08984375,-1.03125,-0.18359375
2144,-0.04296875,-1.0234375,-0.1875
2145,0.04296875,-1.046875,-0.171875
2146,0.08984375,-1.0546875,-0.15625
2147,0.125,-1.0234375,-0.16015625
2148,0.1484375,-1.03125,-0.15234375
2149,0.18359375,-1.01953125,-0.1328125
2150,0.2109375,-0.9921875,-0.140625
2151,0.1953125,-0.984375,-0.109375
2152,0.203125,-0.96875,-0.1015625
2153,0.203125,-0.95703125,-0.09765625
2154,0.171875,-0.9375,-0.08984375
2155,0.1328125,-0.9140625,-0.07421875
2156,0.09765625,-0.90625,-0.078125
2157,0.05078125,-0.90234375,-0.03125
2158,0.0078125,-0.890625,-0.03515625
2159,-0.05859375,-0.88671875,-0.0234375
2160,-0.08203125,-0.90234375,-0.04296875
2161,-0.140625,-0.890625,-0.03125
2162,-0.1484375,-0.9140625,-0.05859375
2163,-0.171875,-0.9296875,-0.05078125
2164,-0.203125,-0.9296875,-0.0703125
2165,-0.22265625,-0.94140625,-0.09375
2166,-0.2421875,-0.9453125,-0.1015625
2167,-0.25,-0.94921875,-0.10546875
2168,-0.26953125,-0.953125,-0.10546875
2169,-0.27734375,-0.953125,-0.125
2170,-0.2734375,-0.9296875,-0.08984375
2171,-0.25390625,-0.90625,-0.06640625
2172,-0.24609375,-0.88671875,-0.07421875
2173,-0.25,-0.84765625,-0.07421875
2174,-0.21484375,-0.81640625,-0.05859375
2175,-0.234375,-0.7734375,-0.0625
2176,-0.21875,-0.75390625,-0.0625
2177,-0.1875,-0.73828125,-0.04296875
2178,-0.1953125,-0.7421875,-0.0625
2179,-0.16796875,-0.73046875,-0.06640625
2180,-0.18359375,-0.75,-0.07421875
2181,-0.171875,-0.76953125,-0.0625
2182,-0.1796875,-0.8125,-0.0546875
2183,-0.1796875,-0.83203125,-0.0390625
2184,-0.1796875,-0.87890625,-0.0390625
2185,-0.19921875,-0.91796875,-0.00390625
2186,-0.21875,-0.94140625,-0.01171875
2187,-0.2265625,-0.97265625,-0.01171875
2188,-0.23046875,-0.98046875,-0.01171875
2189,-0.2421875,-1.00390625,-0.015625
2190,-0.2578125,-1.03125,-0.0625
2191,-0.2734375,-1.03515625,-0.06640625
2192,-0.265625,-1.0546875,-0.0859375
2193,-0.2578125,-1.06640625,-0.11328125
2194,-0.25,-1.0703125,-0.11328125
2195,-0.24609375,-1.0625,-0.140625
2196,-0.234375,-1.04296875,-0.15234375
2197,-0.203125,-1.0390625,-0.15625
2198,-0.18359375,-1.02734375,-0.1796875
2199,-0.140625,-1.00390625,-0.1796875
2200,-0.109375,-0.9921875,-0.203125
2201,-0.0703125,-0.97265625,-0.16796875
2202,-0.06640625,-0.97265625,-0.16015625
2203,-0.0703125,-0.96484375,-0.1328125
2204,-0.08203125,-0.96484375,-0.11328125
2205,-0.1171875,-0.94140625,-0.11328125
2206,-0.1640625,-0.9296875,-0.12109375
2207,-0.19140625,-0.90625,-0.10546875
2208,-0.21484375,-0.89453125,-0.14453125
2209,-0.2421875,-0.8671875,-0.15234375
2210,-0.27734375,-0.84375,-0.1796875
2211,-0.28515625,-0.84375,-0.203125
2212,-0.28125,-0.84765625,-0.19921875
2213,-0.28125,-0.828125,-0.19921875
2214,-0.296875,-0.828125,-0.21484375
2215,-0.28515625,-0.83984375,-0.19921875
2216,-0.28515625,-0.84765625,-0.203125
2217,-0.3046875,-0.86328125,-0.203125
2218,-0.296875,-0.90234375,-0.22265625
2219,-0.3046875,-0.91796875,-0.203125
2220,-0.30859375,-0.9375,-0.23828125
2221,-0.31640625,-0.95703125,-0.23828125
2222,-0.33984375,-0.9765625,-0.23046875
2223,-0.3359375,-1.00390625,-0.25
2224,-0.359375,-1.0078125,-0.25390625
2225,-0.359375,-1.01953125,-0.26953125
2226,-0.3828125,-1.0078125,-0.30078125
2227,-0.375,-1.00390625,-0.34765625
2228,-0.37109375,-0.984375,-0.37109375
2229,-0.3671875,-0.984375,-0.3984375
2230,-0.3515625,-0.9453125,-0.4296875
2231,-0.359375,-0.91796875,-0.44921875
2232,-0.36328125,-0.8984375,-0.4453125
2233,-0.38671875,-0.89453125,-0.4296875
2234,-0.41015625,-0.90625,-0.421875
2235,-0.4453125,-0.90625,-0.37890625
2236,-0.4609375,-0.97265625,-0.35546875
2237,-0.46484375,-0.9765625,-0.328125
2238,-0.4609375,-1.0,-0.3125
2239,-0.4609375,-1.0234375,-0.3203125
2240,-0.44921875,-1.05078125,-0.32421875
2241,-0.41015625,-1.0703125,-0.328125
2242,-0.37109375,-1.09765625,-0.33203125
2243,-0.3203125,-1.125,-0.33203125
2244,-0.28515625,-1.12890625,-0.33984375
2245,-0.25390625,-1.1484375,-0.35546875
2246,-0.21875,-1.14453125,-0.35546875
2247,-0.203125,-1.1796875,-0.390625
2248,-0.1640625,-1.15234375,-0.37109375
2249,-0.15625,-1.1484375,-0.375
2250,-0.140625,-1.15234375,-0.38671875
2251,-0.125,-1.1640625,-0.40625
2252,-0.125,-1.171875,-0.43359375
2253,-0.1484375,-1.1484375,-0.46484375
2254,-0.15234375,-1.14453125,-0.4765625
2255,-0.17578125,-1.125,-0.47265625
2256,-0.19921875,-1.08203125,-0.5234375
2257,-0.1953125,-1.0625,-0.546875
2258,-0.1875,-1.01953125,-0.55859375
2259,-0.17578125,-1.0078125,-0.5703125
2260,-0.12890625,-1.015625,-0.54296875
2261,-0.1015625,-1.04296875,-0.5078125
2262,-0.07421875,-1.0703125,-0.4375
2263,-0.0703125,-1.0859375,-0.37890625
2264,-0.0546875,-1.125,-0.36328125
2265,-0.07421875,-1.11328125,-0.3125
2266,-0.06640625,-1.09375,-0.328125
2267,-0.0625,-1.0703125,-0.32421875
2268,-0.06640625,-1.01171875,-0.34765625
2269,-0.04296875,-0.9921875,-0.359375
2270,-0.0234375,-0.94921875,-0.375
2271,-0.03125,-0.8984375,-0.375
2272,0.00390625,-0.8828125,-0.3984375
2273,0.01953125,-0.8515625,-0.390625
2274,0.05859375,-0.875,-0.3984375
2275,0.109375,-0.88671875,-0.375
2276,0.1171875,-0.8984375,-0.37109375
2277,0.11328125,-0.92578125,-0.35546875
2278,0.08984375,-0.96484375,-0.328125
2279,0.08203125,-0.97265625,-0.31640625
2280,0.109375,-0.984375,-0.3359375
2281,0.12890625,-0.98828125,-0.33984375
2282,0.15625,-0.99609375,-0.328125
2283,0.16796875,-0.98046875,-0.30078125
2284,0.171875,-0.9609375,-0.33984375
2285,0.15234375,-0.921875,-0.31640625
2286,0.140625,-0.8984375,-0.3203125
2287,0.12890625,-0.8828125,-0.296875
2288,0.09765625,-0.85546875,-0.30859375
2289,0.08203125,-0.81640625,-0.3125
2290,0.08984375,-0.80078125,-0.3125
2291,0.03125,-0.78515625,-0.3125
2292,0.01953125,-0.7734375,-0.31640625
2293,0.0,-0.765625,-0.34765625
2294,-0.0078125,-0.765625,-0.3515625
2295,-0.015625,-0.76953125,-0.35546875
2296,-0.0234375,-0.79296875,-0.359375
2297,-0.02734375,-0.8125,-0.35546875
2298,-0.05078125,-0.83984375,-0.375
2299,-0.0546875,-0.87109375,-0.37109375
2300,-0.08203125,-0.8671875,-0.35546875
2301,-0.07421875,-0.91796875,-0.34765625
2302,-0.06640625,-0.9375,-0.3203125
2303,-0.0625,-0.93359375,-0.328125
2304,-0.01953125,-0.95703125,-0.3515625
2305,-0.00390625,-0.94921875,-0.3515625
2306,0.0,-0.9296875,-0.35546875
2307,0.01171875,-0.921875,-0.36328125
2308,0.0234375,-0.8984375,-0.36328125
2309,0.05859375,-0.87890625,-0.3515625
2310,0.09375,-0.859375,-0.3515625
2311,0.12890625,-0.8125,-0.33984375
2312,0.16015625,-0.81640625,-0.3203125
2313,0.1875,-0.80859375,-0.30859375
2314,0.203125,-0.7890625,-0.30078125
2315,0.21875,-0.7734375,-0.27734375
2316,0.234375,-0.77734375,-0.2734375
2317,0.2265625,-0.77734375,-0.296875
2318,0.23046875,-0.79296875,-0.296875
2319,0.234375,-0.79296875,-0.31640625
2320,0.23828125,-0.8125,-0.3046875
2321,0.25,-0.8359375,-0.3125
2322,0.23828125,-0.85546875,-0.2890625
2323,0.23046875,-0.87109375,-0.2890625
2324,0.21875,-0.875,-0.296875
2325,0.20703125,-0.875,-0.296875
2326,0.19921875,-0.85546875,-0.3125
2327,0.18359375,-0.83984375,-0.31640625
2328,0.15625,-0.80859375,-0.32421875
2329,0.1328125,-0.79296875,-0.31640625
2330,0.10546875,-0.7578125,-0.31640625
2331,0.09765625,-0.7421875,-0.3359375
2332,0.09765625,-0.73046875,-0.33203125
2333,0.09375,-0.73046875,-0.359375
2334,0.1015625,-0.6953125,-0.328125
2335,0.109375,-0.703125,-0.3359375
2336,0.14453125,-0.7109375,-0.33203125
2337,0.1328125,-0.6953125,-0.31640625
2338,0.14453125,-0.703125,-0.296875
2339,0.15234375,-0.7109375,-0.296875
2340,0.171875,-0.71484375,-0.296875
2341,0.16796875,-0.7421875,-0.28125
2342,0.19140625,-0.75,-0.2734375
2343,0.18359375,-0.75,-0.28125
2344,0.18359375,-0.765625,-0.26953125
2345,0.1953125,-0.76953125,-0.28125
2346,0.19140625,-0.7890625,-0.27734375
2347,0.1875,-0.80078125,-0.265625
2348,0.17578125,-0.8046875,-0.2578125
2349,0.17578125,-0.82421875,-0.25
2350,0.15625,-0.82421875,-0.25390625
2351,0.16015625,-0.8515625,-0.25390625
2352,0.15625,-0.859375,-0.24609375
2353,0.1640625,-0.859375,-0.2578125
2354,0.13671875,-0.8515625,-0.25
2355,0.14453125,-0.88671875,-0.24609375
2356,0.1328125,-0.875,-0.2421875
2357,0.125,-0.890625,-0.25390625
2358,0.13671875,-0.91015625,-0.2578125
2359,0.13671875,-0.91015625,-0.25390625
2360,0.1171875,-0.90234375,-0.234375
2361,0.12890625,-0.921875,-0.24609375
2362,0.1328125,-0.9140625,-0.24609375
2363,0.12890625,-0.93359375,-0.23828125
2364,0.125,-0.9375,-0.23046875
2365,0.12109375,-0.921875,-0.21875
2366,0.11328125,-0.9453125,-0.21484375
2367,0.11328125,-0.93359375,-0.19921875
2368,0.109375,-0.9453125,-0.1875
2369,0.125,-0.95703125,-0.17578125
2370,0.1171875,-0.9453125,-0.17578125
2371,0.1171875,-0.9375,-0.15625
2372,0.12890625,-0.94140625,-0.16796875
2373,0.140625,-0.9140625,-0.1484375
2374,0.14453125,-0.9296875,-0.16796875
2375,0.1484375,-0.9140625,-0.1640625
2376,0.13671875,-0.91015625,-0.13671875
2377,0.1640625,-0.9296875,-0.125
2378,0.1640625,-0.91796875,-0.13671875
2379,0.1484375,-0.9140625,-0.125
2380,0.16015625,-0.921875,-0.12890625
2381,0.16015625,-0.91796875,-0.12109375
2382,0.15234375,-0.921875,-0.1171875
2383,0.140625,-0.9140625,-0.09765625
2384,0.1328125,-0.90234375,-0.10546875
2385,0.12890625,-0.90625,-0.0859375
2386,0.12109375,-0.9140625,-0.0859375
2387,0.08984375,-0.90234375,-0.078125
2388,0.05859375,-0.890625,-0.07421875
2389,0.04296875,-0.88671875,-0.06640625
2390,0.0078125,-0.875,-0.08984375
2391,0.01171875,-0.88671875,-0.08203125
2392,0.00390625,-0.88671875,-0.09765625
2393,0.00390625,-0.90234375,-0.09765625
2394,-0.015625,-0.89453125,-0.109375
2395,0.0,-0.9140625,-0.1171875
2396,0.00390625,-0.9296875,-0.140625
2397,0.01953125,-0.9296875,-0.14453125
2398,0.05078125,-0.94921875,-0.1328125
2399,0.0859375,-0.953125,-0.1484375
2400,0.13671875,-0.9453125,-0.13671875
2401,0.16796875,-0.94921875,-0.12109375
2402,0.21875,-0.95703125,-0.12890625
2403,0.24609375,-0.94140625,-0.10546875
2404,0.2578125,-0.9453125,-0.09765625
2405,0.27734375,-0.94140625,-0.09375
2406,0.28125,-0.93359375,-0.1015625
2407,0.27734375,-0.94921875,-0.09765625
2408,0.2578125,-0.96875,-0.09765625
2409,0.24609375,-1.0078125,-0.109375
2410,0.2109375,-1.02734375,-0.13671875
2411,0.1796875,-1.04296875,-0.16015625
2412,0.15234375,-1.09765625,-0.17578125
2413,0.1171875,-1.13671875,-0.2109375
2414,0.07421875,-1.17578125,-0.23046875
2415,0.03125,-1.17578125,-0.23046875
2416,0.015625,-1.20703125,-0.234375
2417,0.0,-1.1796875,-0.19140625
2418,-0.0078125,-1.1484375,-0.19140625
2419,-0.0078125,-1.11328125,-0.14453125
2420,0.0078125,-1.0390625,-0.14453125
2421,0.01953125,-0.99609375,-0.140625
2422,0.03125,-0.94140625,-0.11328125
2423,0.03125,-0.890625,-0.0859375
2424,0.03125,-0.85546875,-0.05859375
2425,0.01953125,-0.828125,-0.05859375
2426,0.01953125,-0.8203125,-0.0234375
2427,0.03125,-0.8359375,-0.0234375
2428,0.03125,-0.8125,-0.015625
2429,0.0546875,-0.80078125,0.0
2430,0.05859375,-0.8203125,-0.00390625
2431,0.06640625,-0.81640625,-0.0234375
2432,0.046875,-0.82421875,-0.015625
2433,0.05078125,-0.8359375,-0.01953125
2434,0.02734375,-0.84375,-0.0390625
2435,0.0234375,-0.87109375,-0.046875
2436,0.0234375,-0.88671875,-0.05078125
2437,0.02734375,-0.91796875,-0.046875
2438,0.03515625,-0.94140625,-0.08203125
2439,0.04296875,-0.97265625,-0.06640625
2440,0.05859375,-0.99609375,-0.05859375
2441,0.06640625,-1.01171875,-0.0390625
2442,0.0703125,-1.0390625,-0.02734375
2443,0.078125,-1.03515625,-0.04296875
2444,0.078125,-1.03125,-0.046875
2445,0.0859375,-1.0390625,-0.0390625
2446,0.09375,-1.0390625,-0.0390625
2447,0.1015625,-1.03515625,-0.01953125
2448,0.10546875,-1.00390625,-0.02734375
2449,0.09765625,-0.984375,0.015625
2450,0.09375,-0.97265625,0.01953125
2451,0.078125,-0.953125,0.015625
2452,0.06640625,-0.9140625,-0.00390625
2453,0.078125,-0.91015625,0.01171875
2454,0.05078125,-0.90234375,0.01171875
2455,0.02734375,-0.875,0.0078125
2456,0.01953125,-0.890625,0.0078125
2457,0.01171875,-0.90234375,0.00390625
2458,0.0,-0.921875,0.0078125
2459,0.00390625,-0.9140625,0.01171875
2460,0.01953125,-0.93359375,0.0078125
2461,0.01953125,-0.95703125,-0.01171875
2462,0.0390625,-0.95703125,-0.015625
2463,0.02734375,-0.91796875,-0.01171875
2464,0.05859375,-0.9375,-0.02734375
2465,0.05859375,-0.9296875,-0.05859375
2466,0.0625,-0.9375,-0.05078125
2467,0.0625,-0.9375,-0.04296875
2468,0.0625,-0.9375,-0.05859375
2469,0.046875,-0.9453125,-0.03515625
2470,0.04296875,-0.94921875,-0.046875
2471,0.03125,-0.9375,-0.0078125
2472,0.03125,-0.9453125,-0.01953125
2473,0.02734375,-0.92578125,-0.04296875
2474,0.00390625,-0.96484375,-0.07421875
2475,0.0,-0.93359375,-0.05859375
2476,0.0,-0.9453125,-0.05859375
2477,0.0,-0.94140625,-0.078125
2478,-0.03125,-0.93359375,-0.05859375
2479,-0.03515625,-0.92578125,-0.0546875
2480,-0.06640625,-0.91796875,-0.0546875
2481,-0.07421875,-0.90625,-0.046875
2482,-0.09375,-0.91015625,-0.05859375
2483,-0.09375,-0.91796875,-0.04296875
2484,-0.09765625,-0.9140625,-0.046875
2485,-0.109375,-0.95703125,-0.0390625
2486,-0.10546875,-0.9609375,-0.0390625
2487,-0.0859375,-0.98046875,-0.046875
2488,-0.08984375,-1.0,-0.02734375
2489,-0.078125,-1.03515625,-0.0390625
2490,-0.078125,-1.06640625,-0.01953125
2491,-0.07421875,-1.0859375,-0.02734375
2492,-0.0625,-1.09375,-0.04296875
2493,-0.06640625,-1.125,-0.04296875
2494,-0.07421875,-1.125,-0.046875
2495,-0.08203125,-1.1171875,-0.0390625
2496,-0.08984375,-1.1015625,-0.05859375
2497,-0.09375,-1.1015625,-0.03125
2498,-0.08984375,-1.0859375,-0.03125
2499,-0.10546875,-1.0625,-0.03125
2500,-0.09375,-1.0546875,-0.00390625
2501,-0.1171875,-1.015625,-0.0234375
2502,-0.1015625,-1.03515625,0.00390625
2503,-0.1171875,-0.99609375,0.01171875
2504,-0.12109375,-0.98828125,0.0234375
2505,-0.1171875,-0.9921875,0.01953125
2506,-0.1015625,-0.97265625,0.01953125
2507,-0.09375,-0.96875,0.02734375
2508,-0.109375,-0.94140625,0.015625
2509,-0.125,-0.9140625,0.0078125
2510,-0.11328125,-0.90625,0.0
2511,-0.140625,-0.91015625,0.01171875
2512,-0.13671875,-0.8984375,0.00390625
2513,-0.1484375,-0.90234375,0.0078125
2514,-0.15234375,-0.87890625,0.0
2515,-0.16796875,-0.875,0.0078125
2516,-0.16796875,-0.8671875,0.015625
2517,-0.15625,-0.89453125,0.03515625
2518,-0.171875,-0.89453125,0.00390625
2519,-0.1875,-0.89453125,0.00390625
2520,-0.1875,-0.8984375,0.0
2521,-0.1875,-0.8984375,0.00390625
2522,-0.19921875,-0.91015625,0.0078125
2523,-0.19140625,-0.9296875,0.0234375
2524,-0.19921875,-0.9375,0.03125
2525,-0.19140625,-0.94140625,0.015625
2526,-0.19140625,-0.94140625,0.015625
2527,-0.1953125,-0.94921875,0.02734375
2528,-0.1875,-0.94140625,0.01171875
2529,-0.18359375,-0.95703125,0.01953125
2530,-0.171875,-0.95703125,0.0078125
2531,-0.15234375,-0.96484375,0.01953125
2532,-0.1640625,-0.95703125,0.015625
2533,-0.16015625,-0.94921875,0.0078125
2534,-0.17578125,-0.92578125,0.01953125
2535,-0.18359375,-0.921875,-0.00390625
2536,-0.18359375,-0.91796875,0.0
2537,-0.20703125,-0.9140625,-0.00390625
2538,-0.17578125,-0.9140625,0.0
2539,-0.09375,-0.921875,0.0
2540,-0.04296875,-0.9375,-0.00390625
2541,0.0,-0.95703125,-0.0078125
2542,0.0,-0.97265625,0.0
2543,0.00390625,-0.99609375,0.02734375
2544,-0.01953125,-1.0,0.01171875
2545,-0.05078125,-1.0,0.01171875
2546,-0.0859375,-0.984375,0.01171875
2547,-0.0703125,-0.99609375,0.0234375
2548,-0.08203125,-0.9765625,0.00390625
2549,-0.07421875,-0.9765625,0.00390625
2550,-0.09375,-0.9765625,0.0234375
2551,-0.08984375,-0.96484375,0.0078125
2552,-0.078125,-0.96484375,0.00390625
2553,-0.07421875,-0.95703125,0.01953125
2554,-0.06640625,-0.953125,0.0234375
2555,-0.04296875,-0.9375,0.00390625
2556,-0.04296875,-0.94921875,0.0078125
2557,-0.03125,-0.9453125,0.0
2558,-0.046875,-0.92578125,0.0078125
2559,-0.0625,-0.921875,0.015625
2560,-0.09375,-0.93359375,0.01171875
2561,-0.08984375,-0.921875,0.0078125
2562,-0.08984375,-0.921875,0.01953125
2563,-0.08984375,-0.9375,0.0234375
2564,-0.109375,-0.92578125,0.03125
2565,-0.109375,-0.9453125,0.05078125
2566,-0.1171875,-0.93359375,0.046875
2567,-0.12890625,-0.94140625,0.05859375
2568,-0.11328125,-0.9375,0.03125
2569,-0.12890625,-0.92578125,0.046875
2570,-0.1328125,-0.94140625,0.04296875
2571,-0.12890625,-0.9453125,0.01953125
2572,-0.1484375,-0.94140625,0.03515625
2573,-0.14453125,-0.9375,0.0234375
2574,-0.15625,-0.94921875,0.02734375
2575,-0.16015625,-0.94921875,0.0078125
2576,-0.1484375,-0.953125,0.0078125
2577,-0.1484375,-0.984375,0.00390625
2578,-0.125,-1.0,-0.015625
2579,-0.1328125,-0.99609375,-0.03515625
2580,-0.109375,-1.0234375,-0.06640625
2581,-0.0859375,-1.03125,-0.08203125
2582,-0.05078125,-1.05078125,-0.09375
2583,-0.015625,-1.0546875,-0.0859375
2584,0.01171875,-1.06640625,-0.08984375
2585,0.0390625,-1.0859375,-0.07421875
2586,0.0703125,-1.09375,-0.06640625
2587,0.1015625,-1.08984375,-0.04296875
2588,0.1171875,-1.0859375,-0.02734375
2589,0.12890625,-1.07421875,-0.03515625
2590,0.1171875,-1.05078125,-0.03515625
2591,0.109375,-1.02734375,-0.0390625
2592,0.09375,-0.99609375,-0.0390625
2593,0.04296875,-0.97265625,-0.04296875
2594,0.0234375,-0.94921875,-0.015625
2595,0.0,-0.921875,-0.02734375
2596,-0.02734375,-0.90234375,-0.0546875
2597,-0.03515625,-0.90234375,-0.08203125
2598,-0.03125,-0.9140625,-0.08203125
2599,-0.03515625,-0.90625,-0.09765625
2600,-0.05078125,-0.9140625,-0.11328125
2601,-0.0703125,-0.91015625,-0.09375
2602,-0.0546875,-0.9375,-0.078125
2603,-0.05859375,-0.9296875,-0.06640625
2604,-0.046875,-0.96875,-0.046875
2605,-0.05078125,-0.9453125,-0.0546875
2606,-0.046875,-0.9453125,-0.0546875
2607,-0.0546875,-0.94140625,-0.04296875
2608,-0.05859375,-0.9375,-0.0390625
2609,-0.05078125,-0.94140625,-0.03515625
2610,-0.05078125,-0.92578125,-0.0390625
2611,-0.046875,-0.9453125,-0.04296875
2612,-0.0234375,-0.94140625,-0.015625
2613,-0.015625,-0.94140625,-0.0234375
2614,-0.00390625,-0.953125,-0.046875
2615,-0.00390625,-0.9609375,-0.02734375
2616,0.0078125,-0.98046875,-0.046875
2617,0.01953125,-0.984375,-0.04296875
2618,0.03125,-0.9921875,-0.05078125
2619,0.02734375,-0.98046875,-0.05078125
2620,0.01953125,-0.97265625,-0.0625
2621,0.01171875,-0.98828125,-0.0546875
2622,0.0,-0.984375,-0.06640625
2623,0.00390625,-0.98046875,-0.07421875
2624,-0.00390625,-0.97265625,-0.0859375
2625,-0.0234375,-0.9765625,-0.1015625
2626,-0.01171875,-0.97265625,-0.08984375
2627,-0.03125,-0.9609375,-0.07421875
2628,-0.0390625,-0.95703125,-0.07421875
2629,-0.046875,-0.9375,-0.0703125
2630,-0.03515625,-0.94140625,-0.0859375
2631,-0.0390625,-0.95703125,-0.0859375
2632,-0.02734375,-0.95703125,-0.0703125
2633,-0.0234375,-0.95703125,-0.06640625
2634,-0.01953125,-0.9609375,-0.07421875
2635,-0.0234375,-0.96484375,-0.08203125
2636,0.0,-0.99609375,-0.09375
2637,0.00390625,-0.98828125,-0.06640625
2638,0.0,-0.97265625,-0.0703125
2639,0.01171875,-0.98828125,-0.0703125
2640,0.01171875,-0.96875,-0.078125
2641,0.0,-0.96484375,-0.09375
2642,0.0,-0.9609375,-0.0859375
2643,0.0,-0.95703125,-0.1171875
2644,0.0,-0.9609375,-0.11328125
2645,-0.01171875,-0.9453125,-0.10546875
2646,0.00390625,-0.953125,-0.109375
2647,-0.015625,-0.9453125,-0.13671875
2648,-0.01171875,-0.9375,-0.12109375
2649,-0.015625,-0.9453125,-0.1171875
2650,-0.015625,-0.9453125,-0.125
2651,-0.01171875,-0.953125,-0.12890625
2652,-0.0234375,-0.9609375,-0.10546875
2653,-0.00390625,-0.97265625,-0.12890625
2654,-0.0234375,-0.98046875,-0.10546875
2655,-0.01171875,-0.99609375,-0.0859375
2656,-0.00390625,-0.9921875,-0.10546875
2657,0.00390625,-1.0078125,-0.04296875
2658,0.01171875,-0.99609375,-0.08203125
2659,0.0234375,-1.01171875,-0.0703125
2660,0.01953125,-1.0,-0.0859375
2661,0.03125,-0.99609375,-0.08203125
2662,0.01953125,-1.0,-0.07421875
2663,0.02734375,-0.99609375,-0.0859375
2664,0.03125,-0.98828125,-0.08203125
2665,0.04296875,-0.9921875,-0.0546875
2666,0.02734375,-0.9921875,-0.078125
2667,0.02734375,-0.98828125,-0.08984375
2668,0.03125,-0.9765625,-0.1015625
2669,0.02734375,-0.98828125,-0.09375
2670,0.03125,-0.98828125,-0.09375
2671,0.03515625,-0.99609375,-0.078125
2672,0.03515625,-0.9921875,-0.08984375
2673,0.03125,-0.984375,-0.08984375
2674,0.03515625,-0.98828125,-0.0703125
2675,0.03515625,-1.0,-0.0703125
2676,0.02734375,-1.0,-0.06640625
2677,0.0390625,-1.0,-0.07421875
2678,0.03515625,-1.0,-0.0390625
2679,0.03515625,-1.01171875,-0.05078125
2680,0.03125,-1.01171875,-0.046875
2681,0.02734375,-1.00390625,-0.05859375
2682,0.02734375,-1.015625,-0.04296875
2683,0.02734375,-1.0234375,-0.04296875
2684,0.03515625,-1.015625,-0.03125
2685,0.0234375,-1.00390625,-0.03125
2686,0.03515625,-1.0,-0.03125
2687,0.015625,-0.97265625,-0.03125
2688,0.04296875,-0.98046875,-0.01953125
2689,0.0234375,-0.984375,-0.0078125
2690,0.03515625,-0.95703125,-0.0234375
2691,0.015625,-0.953125,-0.015625
2692,0.02734375,-0.9453125,-0.01171875
2693,0.03125,-0.9453125,-0.00390625
2694,0.02734375,-0.94140625,0.0
2695,0.02734375,-0.9453125,0.0078125
2696,0.02734375,-0.9453125,-0.00390625
2697,0.02734375,-0.93359375,0.0
2698,0.03515625,-0.94140625,0.01953125
2699,0.06640625,-0.9375,0.01171875
2700,0.05078125,-0.92578125,0.02734375
2701,0.0546875,-0.9375,0.0078125
2702,0.05859375,-0.94921875,0.01953125
2703,0.06640625,-0.93359375,0.0
2704,0.06640625,-0.92578125,0.0
2705,0.0859375,-0.94140625,0.00390625
2706,0.08984375,-0.92578125,0.0
2707,0.09375,-0.94140625,0.0078125
2708,0.09375,-0.92578125,0.01171875
2709,0.1171875,-0.94140625,0.015625
2710,0.1171875,-0.953125,0.00390625
2711,0.09765625,-0.953125,0.0234375
2712,0.12109375,-0.95703125,0.0234375
2713,0.1328125,-0.9609375,0.03515625
2714,0.14453125,-0.97265625,0.02734375
2715,0.14453125,-0.97265625,0.0234375
2716,0.15625,-0.9765625,0.0234375
2717,0.1484375,-0.96484375,0.015625
2718,0.1484375,-0.96875,0.0078125
2719,0.140625,-0.9609375,0.03125
2720,0.1484375,-0.94921875,0.03125
2721,0.12890625,-0.953125,0.02734375
2722,0.12890625,-0.96484375,0.046875
2723,0.11328125,-0.96875,0.05078125
2724,0.12109375,-0.96484375,0.0234375
2725,0.125,-0.984375,0.03125
2726,0.125,-0.98828125,0.0234375
2727,0.125,-0.9921875,0.015625
2728,0.12890625,-0.984375,0.00390625
2729,0.1328125,-0.9921875,0.0234375
2730,0.12890625,-0.98828125,0.015625
2731,0.140625,-0.984375,0.01171875
2732,0.14453125,-0.97265625,0.015625
2733,0.16015625,-0.98046875,0.015625
2734,0.15625,-0.9765625,0.0234375
2735,0.16015625,-0.95703125,0.01953125
2736,0.1328125,-0.94140625,0.02734375
2737,0.13671875,-0.9375,0.0390625
2738,0.1484375,-0.94921875,0.0390625
2739,0.12109375,-0.9375,0.03515625
2740,0.1484375,-0.953125,0.03515625
2741,0.1328125,-0.95703125,0.03125
2742,0.14453125,-0.9609375,0.0390625
2743,0.13671875,-0.98046875,0.0234375
2744,0.14453125,-0.96875,0.03125
2745,0.125,-0.98046875,0.0390625
2746,0.12890625,-0.98828125,0.02734375
2747,0.12890625,-0.97265625,0.02734375
2748,0.12109375,-0.9765625,0.0078125
2749,0.1328125,-0.98828125,0.015625
2750,0.12890625,-0.97265625,0.015625
2751,0.12109375,-0.9609375,0.015625
2752,0.12109375,-0.94140625,0.04296875
2753,0.125,-0.9453125,0.0234375
2754,0.125,-0.9375,0.03125
2755,0.12109375,-0.94140625,0.03515625
2756,0.13671875,-0.9453125,0.046875
2757,0.11328125,-0.9453125,0.05078125
2758,0.1171875,-0.9609375,0.0546875
2759,0.11328125,-0.96875,0.07421875
2760,0.11328125,-0.984375,0.06640625
2761,0.12109375,-0.98828125,0.0703125
2762,0.125,-1.0,0.0625
2763,0.1328125,-1.0,0.0625
2764,0.15234375,-1.00390625,0.078125
2765,0.14453125,-1.0,0.05859375
2766,0.1640625,-0.984375,0.05859375
2767,0.1640625,-0.97265625,0.05859375
2768,0.16796875,-0.9609375,0.0625
2769,0.17578125,-0.94140625,0.0390625
2770,0.16796875,-0.9296875,0.05078125
2771,0.17578125,-0.91796875,0.05078125
2772,0.171875,-0.90625,0.05859375
2773,0.16796875,-0.8828125,0.0546875
2774,0.17578125,-0.890625,0.07421875
2775,0.1796875,-0.88671875,0.08203125
2776,0.18359375,-0.8984375,0.12109375
2777,0.16796875,-0.890625,0.09375
2778,0.1640625,-0.8984375,0.09375
2779,0.17578125,-0.890625,0.1015625
2780,0.17578125,-0.90234375,0.09375
2781,0.16015625,-0.88671875,0.08203125
2782,0.1640625,-0.89453125,0.08984375
2783,0.16015625,-0.8984375,0.09375
2784,0.171875,-0.90234375,0.08984375
2785,0.15625,-0.89453125,0.09375
2786,0.1328125,-0.921875,0.046875
2787,0.15234375,-0.8984375,0.08203125
2788,0.15234375,-0.8984375,0.08984375
2789,0.15234375,-0.9140625,0.07421875
2790,0.14453125,-0.8984375,0.078125
2791,0.140625,-0.9140625,0.0703125
2792,0.13671875,-0.89453125,0.05859375
2793,0.125,-0.89453125,0.06640625
2794,0.14453125,-0.90625,0.08203125
2795,0.140625,-0.9140625,0.07421875
2796,0.1484375,-0.90625,0.08203125
2797,0.140625,-0.8828125,0.0546875
2798,0.14453125,-0.90625,0.07421875
2799,0.1328125,-0.90234375,0.07421875
2800,0.125,-0.8984375,0.078125
2801,0.08984375,-0.9140625,0.0546875
2802,0.078125,-0.90625,0.07421875
2803,0.1015625,-0.90625,0.0859375
2804,0.1171875,-0.91015625,0.109375
2805,0.125,-0.88671875,0.09765625
2806,0.125,-0.87109375,0.12109375
2807,0.13671875,-0.83984375,0.1328125
2808,0.13671875,-0.79296875,0.1640625
2809,0.140625,-0.765625,0.13671875
2810,0.15234375,-0.7578125,0.13671875
2811,0.1640625,-0.73046875,0.109375
2812,0.16796875,-0.70703125,0.109375
2813,0.18359375,-0.6953125,0.125
2814,0.2109375,-0.71484375,0.1484375
2815,0.2109375,-0.7265625,0.16796875
2816,0.23046875,-0.77734375,0.19140625
2817,0.23046875,-0.8203125,0.19921875
2818,0.25,-0.8515625,0.22265625
2819,0.23828125,-0.8828125,0.203125
2820,0.2265625,-0.890625,0.1953125
2821,0.19140625,-0.8828125,0.1796875
2822,0.16796875,-0.8828125,0.15234375
2823,0.12890625,-0.87109375,0.11328125
2824,0.10546875,-0.86328125,0.08984375
2825,0.07421875,-0.84375,0.046875
2826,0.03125,-0.8203125,0.02734375
2827,0.01171875,-0.79296875,0.00390625
2828,0.0,-0.80078125,-0.00390625
2829,-0.01953125,-0.80078125,-0.015625
2830,-0.015625,-0.80078125,0.01953125
2831,-0.02734375,-0.796875,0.05078125
2832,-0.00390625,-0.828125,0.08203125
2833,0.00390625,-0.828125,0.12890625
2834,0.0234375,-0.84375,0.16015625
2835,0.03515625,-0.84375,0.19921875
2836,0.03515625,-0.83203125,0.203125
2837,0.0625,-0.8125,0.22265625
2838,0.08984375,-0.80859375,0.21875
2839,0.12109375,-0.78125,0.22265625
2840,0.1171875,-0.75,0.18359375
2841,0.15234375,-0.74609375,0.2421875
2842,0.12109375,-0.734375,0.18359375
2843,0.12890625,-0.72265625,0.17578125
2844,0.1171875,-0.71484375,0.171875
2845,0.1171875,-0.72265625,0.16015625
2846,0.1171875,-0.7265625,0.16015625
2847,0.109375,-0.73828125,0.18359375
2848,0.109375,-0.75,0.19140625
2849,0.125,-0.75390625,0.1875
2850,0.12109375,-0.7734375,0.19921875
2851,0.12109375,-0.75390625,0.18359375
2852,0.13671875,-0.75390625,0.11328125
2853,0.14453125,-0.73046875,0.10546875
2854,0.15234375,-0.71484375,0.1015625
2855,0.16796875,-0.69921875,0.07421875
2856,0.1640625,-0.6953125,0.07421875
2857,0.19140625,-0.69140625,0.05859375
2858,0.1953125,-0.703125,0.08984375
2859,0.21484375,-0.703125,0.0859375
2860,0.2265625,-0.69921875,0.08203125
2861,0.23046875,-0.70703125,0.109375
2862,0.22265625,-0.69921875,0.10546875
2863,0.234375,-0.71484375,0.1328125
2864,0.21484375,-0.7265625,0.15234375
2865,0.21875,-0.734375,0.1640625
2866,0.1953125,-0.74609375,0.16015625
2867,0.203125,-0.7265625,0.14453125
2868,0.2109375,-0.72265625,0.16015625
2869,0.23046875,-0.6953125,0.16796875
2870,0.20703125,-0.66796875,0.2109375
2871,0.1640625,-0.66015625,0.25390625
2872,0.09765625,-0.6875,0.32421875
2873,0.03515625,-0.75390625,0.3671875
2874,-0.04296875,-0.79296875,0.27734375
2875,-0.0703125,-0.87890625,0.11328125
2876,-0.046875,-0.9375,-0.0390625
2877,-0.01171875,-1.05859375,-0.15234375
2878,0.00390625,-1.23046875,-0.16796875
2879,-0.0078125,-1.41796875,-0.1328125
2880,-0.0390625,-1.6171875,-0.05859375
2881,-0.0625,-1.73046875,-0.0625
2882,-0.1328125,-1.85546875,-0.09765625
2883,-0.203125,-1.90234375,-0.19921875
2884,-0.21484375,-1.91796875,-0.29296875
2885,-0.23828125,-1.875,-0.328125
2886,-0.24609375,-1.80859375,-0.31640625
2887,-0.2890625,-1.69921875,-0.26953125
2888,-0.33984375,-1.55078125,-0.18359375
2889,-0.3671875,-1.4296875,-0.04296875
2890,-0.3671875,-1.3203125,0.02734375
2891,-0.37890625,-1.25,0.08984375
2892,-0.40234375,-1.1796875,0.140625
2893,-0.42578125,-1.10546875,0.15234375
2894,-0.421875,-1.04296875,0.14453125
2895,-0.41796875,-1.00390625,0.11328125
2896,-0.41796875,-0.99609375,0.08203125
2897,-0.41796875,-0.984375,0.0546875
2898,-0.40625,-1.015625,0.0703125
2899,-0.4296875,-1.046875,0.078125
2900,-0.45703125,-1.11328125,0.09765625
2901,-0.46875,-1.16796875,0.11328125
2902,-0.4609375,-1.23828125,0.12890625
2903,-0.44140625,-1.27734375,0.1015625
2904,-0.40625,-1.296875,0.09765625
2905,-0.390625,-1.29296875,0.05859375
2906,-0.33984375,-1.29296875,0.08203125
2907,-0.3046875,-1.28125,0.09375
2908,-0.2421875,-1.25,0.125
2909,-0.203125,-1.20703125,0.14453125
2910,-0.12890625,-1.1484375,0.1484375
2911,-0.078125,-1.0859375,0.18359375
2912,-0.07421875,-1.05078125,0.1953125
2913,-0.046875,-1.0078125,0.19921875
2914,-0.09375,-1.0,0.19921875
2915,-0.16015625,-1.0234375,0.16796875
2916,-0.1875,-1.0703125,0.07421875
2917,-0.20703125,-1.1015625,0.0078125
2918,-0.26171875,-1.16796875,-0.0546875
2919,-0.2890625,-1.23828125,-0.09375
2920,-0.27734375,-1.28515625,-0.046875
2921,-0.25390625,-1.30859375,0.01953125
2922,-0.234375,-1.296875,0.07421875
2923,-0.19921875,-1.24609375,0.125
2924,-0.171875,-1.18359375,0.125
2925,-0.15625,-1.0625,0.125
2926,-0.109375,-0.98046875,0.15625
2927,-0.10546875,-0.8984375,0.13671875
2928,-0.08203125,-0.83984375,0.140625
2929,-0.09375,-0.796875,0.1328125
2930,-0.10546875,-0.77734375,0.13671875
2931,-0.12109375,-0.78515625,0.12109375
2932,-0.125,-0.796875,0.1171875
2933,-0.1328125,-0.84375,0.125
2934,-0.125,-0.87890625,0.09765625
2935,-0.09375,-0.9375,0.11328125
2936,-0.09765625,-0.9765625,0.08203125
2937,-0.07421875,-1.00390625,0.09375
2938,-0.0625,-1.01171875,0.078125
2939,-0.06640625,-1.0234375,0.07421875
2940,-0.07421875,-1.02734375,0.07421875
2941,-0.09375,-1.0078125,0.05859375
2942,-0.10546875,-1.00390625,0.07421875
2943,-0.12890625,-0.96875,0.0859375
2944,-0.17578125,-0.9453125,0.08203125
2945,-0.1875,-0.9375,0.06640625
2946,-0.22265625,-0.9140625,0.05859375
2947,-0.21875,-0.9140625,0.0703125
2948,-0.21875,-0.87890625,0.03515625
2949,-0.22265625,-0.89453125,0.05859375
2950,-0.22265625,-0.87890625,0.04296875
2951,-0.18359375,-0.87890625,0.0390625
2952,-0.16796875,-0.8515625,0.046875
2953,-0.14453125,-0.8515625,0.02734375
2954,-0.125,-0.84375,0.03515625
2955,-0.109375,-0.85546875,0.04296875
2956,-0.10546875,-0.83984375,0.0625
2957,-0.1015625,-0.83984375,0.08984375
2958,-0.11328125,-0.84375,0.0859375
2959,-0.13671875,-0.83984375,0.08203125
2960,-0.1328125,-0.8515625,0.13671875
2961,-0.16015625,-0.859375,0.12890625
2962,-0.1796875,-0.8359375,0.125
2963,-0.1796875,-0.8359375,0.0859375
2964,-0.19921875,-0.828125,0.05078125
2965,-0.21875,-0.81640625,0.0390625
2966,-0.2109375,-0.82421875,0.0078125
2967,-0.2265625,-0.8359375,0.0
2968,-0.234375,-0.83984375,0.0
2969,-0.21875,-0.828125,-0.01171875
2970,-0.18359375,-0.8671875,-0.05078125
2971,-0.19140625,-0.8671875,-0.046875
2972,-0.1875,-0.8515625,-0.04296875
2973,-0.17578125,-0.84765625,-0.0625
2974,-0.16796875,-0.87890625,-0.0546875
2975,-0.1640625,-0.8828125,-0.03125
2976,-0.16015625,-0.9140625,-0.0078125
2977,-0.15234375,-0.921875,0.01953125
2978,-0.1484375,-0.94140625,0.01953125
2979,-0.1484375,-0.94140625,0.0390625
2980,-0.11328125,-0.94921875,0.0546875
2981,-0.140625,-0.95703125,0.0546875
2982,-0.12109375,-0.9375,0.06640625
2983,-0.1328125,-0.921875,0.0546875
2984,-0.125,-0.8984375,0.05859375
2985,-0.1171875,-0.859375,0.07421875
2986,-0.1015625,-0.83984375,0.06640625
2987,-0.1015625,-0.80078125,0.0859375
2988,-0.1015625,-0.78515625,0.09765625
2989,-0.11328125,-0.7421875,0.078125
2990,-0.125,-0.71875,0.0859375
2991,-0.125,-0.69140625,0.0859375
2992,-0.109375,-0.6875,0.09375
2993,-0.12109375,-0.6796875,0.0859375
2994,-0.125,-0.6640625,0.0859375
2995,-0.10546875,-0.6640625,0.0859375
2996,-0.08984375,-0.6640625,0.09375
2997,-0.10546875,-0.66796875,0.078125
2998,-0.078125,-0.6796875,0.0703125
2999,-0.08203125,-0.70703125,0.046875
3000,-0.0625,-0.71484375,0.0234375
3001,-0.05859375,-0.7265625,0.015625
3002,-0.0078125,-0.75390625,0.02734375
3003,-0.03125,-0.75,0.05859375
3004,-0.015625,-0.7578125,0.05859375
3005,-0.00390625,-0.765625,0.078125
3006,-0.03125,-0.7578125,0.09375
3007,-0.02734375,-0.77734375,0.1171875
3008,-0.0234375,-0.76953125,0.1328125
3009,-0.046875,-0.77734375,0.12109375
3010,-0.05859375,-0.78515625,0.12890625
3011,-0.0625,-0.7890625,0.1328125
3012,-0.08984375,-0.7890625,0.125
3013,-0.11328125,-0.78515625,0.1015625
3014,-0.12890625,-0.80859375,0.109375
3015,-0.15234375,-0.8046875,0.078125
3016,-0.1953125,-0.80078125,0.0546875
3017,-0.21484375,-0.8125,0.04296875
3018,-0.2109375,-0.81640625,0.03515625
3019,-0.203125,-0.82421875,0.0234375
3020,-0.2265625,-0.8359375,0.05078125
3021,-0.21875,-0.85546875,0.078125
3022,-0.234375,-0.87890625,0.078125
3023,-0.25390625,-0.87890625,0.10546875
3024,-0.2734375,-0.89453125,0.12109375
3025,-0.31640625,-0.8671875,0.09375
3026,-0.32421875,-0.88671875,0.09765625
3027,-0.33203125,-0.890625,0.078125
3028,-0.3359375,-0.89453125,0.078125
3029,-0.3203125,-0.89453125,0.0546875
3030,-0.30078125,-0.8828125,0.07421875
3031,-0.27734375,-0.875,0.11328125
3032,-0.25390625,-0.8671875,0.16015625
3033,-0.2421875,-0.87890625,0.20703125
3034,-0.21875,-0.875,0.24609375
3035,-0.20703125,-0.8671875,0.25
3036,-0.171875,-0.8671875,0.25
3037,-0.14453125,-0.8671875,0.21484375
3038,-0.12890625,-0.86328125,0.203125
3039,-0.109375,-0.875,0.140625
3040,-0.08203125,-0.875,0.109375
3041,-0.0625,-0.86328125,0.0546875
3042,-0.06640625,-0.8671875,0.01953125
3043,-0.05078125,-0.87890625,0.0
3044,-0.03515625,-0.88671875,0.0078125
3045,-0.03515625,-0.8671875,0.01171875
3046,-0.0234375,-0.84765625,0.00390625
3047,-0.046875,-0.8515625,0.05078125
3048,-0.0546875,-0.84375,0.05078125
3049,-0.046875,-0.85546875,0.09375
3050,-0.046875,-0.86328125,0.1015625
3051,-0.05078125,-0.88671875,0.1171875
3052,-0.05859375,-0.921875,0.09765625
3053,-0.06640625,-0.9453125,0.11328125
3054,-0.07421875,-0.9921875,0.10546875
3055,-0.07421875,-1.03515625,0.0625
3056,-0.09375,-1.10546875,0.0234375
3057,-0.0859375,-1.16015625,0.0078125
3058,-0.06640625,-1.2265625,-0.02734375
3059,-0.01171875,-1.30078125,-0.046875
3060,0.00390625,-1.3671875,-0.0390625
3061,0.0234375,-1.41796875,-0.0234375
3062,0.0703125,-1.453125,-0.02734375
3063,0.0859375,-1.453125,-0.05859375
3064,0.08203125,-1.4140625,-0.11328125
3065,0.10546875,-1.35546875,-0.14453125
3066,0.125,-1.28515625,-0.17578125
3067,0.125,-1.21875,-0.1328125
3068,0.12890625,-1.20703125,-0.1328125
3069,0.171875,-1.15625,-0.109375
3070,0.19921875,-1.15234375,-0.08984375
3071,0.22265625,-1.16796875,-0.1015625
3072,0.25,-1.19921875,-0.09375
3073,0.24609375,-1.2265625,-0.09765625
3074,0.265625,-1.26953125,-0.0859375
3075,0.2734375,-1.33203125,-0.05859375
3076,0.28125,-1.36328125,-0.03515625
3077,0.30859375,-1.40625,-0.01953125
3078,0.30078125,-1.41796875,0.00390625
3079,0.3203125,-1.421875,0.0
3080,0.29296875,-1.38671875,0.03515625
3081,0.2890625,-1.34375,0.0390625
3082,0.26171875,-1.2734375,0.03515625
3083,0.25,-1.23828125,0.0078125
3084,0.21484375,-1.16796875,0.00390625
3085,0.16015625,-1.08984375,0.0078125
3086,0.08984375,-1.0234375,0.078125
3087,0.0390625,-0.96484375,0.109375
3088,0.01953125,-0.93359375,0.1640625
3089,-0.0390625,-0.875,0.23046875
3090,-0.078125,-0.8125,0.2421875
3091,-0.10546875,-0.77734375,0.21875
3092,-0.07421875,-0.765625,0.140625
3093,-0.00390625,-0.7734375,0.046875
3094,0.06640625,-0.84375,-0.01953125
3095,0.125,-0.9375,-0.125
3096,0.1953125,-1.03515625,-0.203125
3097,0.2421875,-1.17578125,-0.14453125
3098,0.28125,-1.3359375,-0.05859375
3099,0.27734375,-1.42578125,0.01953125
3100,0.31640625,-1.54296875,0.0859375
3101,0.2578125,-1.578125,0.1484375
3102,0.19921875,-1.54296875,0.14453125
3103,0.13671875,-1.46875,0.1171875
3104,0.1328125,-1.40234375,0.08984375
3105,0.1171875,-1.28125,0.05859375
3106,0.10546875,-1.19140625,0.0390625
3107,0.09375,-1.11328125,0.04296875
3108,0.078125,-1.05859375,0.0546875
3109,0.05859375,-1.0390625,0.06640625
3110,0.03515625,-1.015625,0.0859375
3111,-0.00390625,-0.99609375,0.09765625
3112,-0.0234375,-1.0,0.09765625
3113,-0.02734375,-1.01171875,0.10546875
3114,-0.0625,-1.01953125,0.0859375
3115,-0.08203125,-1.02734375,0.07421875
3116,-0.09375,-1.0546875,0.0703125
3117,-0.09765625,-1.06640625,0.05859375
3118,-0.109375,-1.0703125,0.078125
3119,-0.08203125,-1.0859375,0.0546875
3120,-0.0703125,-1.0703125,0.07421875
3121,-0.0390625,-1.07421875,0.08203125
3122,-0.02734375,-1.04296875,0.0703125
3123,0.01953125,-1.05078125,0.0859375
3124,0.05078125,-1.03515625,0.078125
3125,0.1015625,-1.01953125,0.07421875
3126,0.1484375,-1.0,0.078125
3127,0.1640625,-0.9765625,0.0859375
3128,0.22265625,-0.96484375,0.07421875
3129,0.22265625,-0.9296875,0.0625
3130,0.2265625,-0.90625,0.046875
3131,0.2265625,-0.85546875,0.02734375
3132,0.2421875,-0.83984375,-0.01171875
3133,0.2109375,-0.81640625,-0.0078125
3134,0.20703125,-0.8125,-0.015625
3135,0.1875,-0.80859375,-0.02734375
3136,0.17578125,-0.78515625,-0.0234375
3137,0.16015625,-0.79296875,0.0
3138,0.14453125,-0.79296875,0.00390625
3139,0.140625,-0.79296875,-0.01171875
3140,0.1328125,-0.81640625,0.02734375
3141,0.1171875,-0.828125,0.03515625
3142,0.09765625,-0.84375,0.0390625
3143,0.06640625,-0.85546875,0.0546875
3144,0.09375,-0.84765625,0.0703125
3145,0.0859375,-0.859375,0.09765625
3146,0.06640625,-0.84765625,0.06640625
3147,0.05859375,-0.8203125,0.078125
3148,0.046875,-0.796875,0.05078125
3149,0.04296875,-0.77734375,0.04296875
3150,0.0703125,-0.76171875,0.02734375
3151,0.02734375,-0.734375,0.015625
3152,0.0234375,-0.71875,0.015625
3153,0.03515625,-0.71875,0.03515625
3154,0.01953125,-0.73046875,0.015625
3155,0.03125,-0.73828125,0.02734375
3156,0.0390625,-0.74609375,0.046875
3157,0.05078125,-0.7734375,0.02734375
3158,0.04296875,-0.7890625,0.0390625
3159,0.0546875,-0.79296875,0.0390625
3160,0.07421875,-0.828125,0.05078125
3161,0.0703125,-0.84765625,0.04296875
3162,0.0703125,-0.875,0.07421875
3163,0.0859375,-0.87890625,0.05859375
3164,0.09375,-0.8984375,0.08203125
3165,0.1015625,-0.8984375,0.05078125
3166,0.109375,-0.94140625,0.078125
3167,0.1015625,-0.93359375,0.1015625
3168,0.109375,-0.94140625,0.11328125
3169,0.1015625,-0.93359375,0.10546875
3170,0.11328125,-0.9375,0.1171875
3171,0.09375,-0.90625,0.08984375
3172,0.0859375,-0.89453125,0.0859375
3173,0.109375,-0.875,0.09765625
3174,0.109375,-0.875,0.08203125
3175,0.09765625,-0.83984375,0.0703125
3176,0.10546875,-0.83984375,0.0859375
3177,0.08984375,-0.7890625,0.08203125
3178,0.09375,-0.78125,0.08203125
3179,0.09375,-0.76953125,0.1015625
3180,0.08203125,-0.75390625,0.09765625
3181,0.06640625,-0.75,0.109375
3182,0.0703125,-0.74609375,0.14453125
3183,0.05859375,-0.7421875,0.1328125
3184,0.046875,-0.7421875,0.13671875
3185,0.0703125,-0.75390625,0.125
3186,0.05859375,-0.765625,0.12109375
3187,0.09765625,-0.7890625,0.1171875
3188,0.04296875,-0.79296875,0.09765625
3189,0.046875,-0.8125,0.09765625
3190,0.0390625,-0.81640625,0.10546875
3191,0.03515625,-0.828125,0.10546875
3192,0.03125,-0.859375,0.125
3193,0.00390625,-0.87109375,0.1796875
3194,0.0,-0.87109375,0.1796875
3195,-0.015625,-0.87109375,0.2109375
3196,-0.046875,-0.875,0.2109375
3197,-0.0390625,-0.89453125,0.20703125
3198,-0.04296875,-0.87890625,0.2109375
3199,-0.0390625,-0.88671875,0.20703125
3200,-0.00390625,-0.90234375,0.18359375
3201,-0.015625,-0.9140625,0.171875
3202,0.0,-0.9140625,0.16015625
3203,0.01953125,-0.92578125,0.1484375
3204,0.02734375,-0.9140625,0.14453125
3205,0.0546875,-0.91796875,0.125
3206,0.07421875,-0.9140625,0.10546875
3207,0.08984375,-0.8984375,0.125
3208,0.09765625,-0.87890625,0.125
3209,0.109375,-0.875,0.12109375
3210,0.1171875,-0.8671875,0.11328125
3211,0.10546875,-0.859375,0.109375
3212,0.1015625,-0.8515625,0.08984375
3213,0.1015625,-0.84765625,0.09375
3214,0.11328125,-0.84375,0.07421875
3215,0.1015625,-0.83203125,0.10546875
3216,0.0859375,-0.828125,0.078125
3217,0.07421875,-0.8125,0.078125
3218,0.05859375,-0.8046875,0.0703125
3219,0.046875,-0.828125,0.07421875
3220,0.015625,-0.8203125,0.05078125
3221,0.00390625,-0.82421875,0.0859375
3222,-0.0078125,-0.83203125,0.08984375
3223,-0.0234375,-0.8203125,0.1015625
3224,-0.015625,-0.8203125,0.12109375
3225,-0.015625,-0.81640625,0.13671875
3226,-0.00390625,-0.81640625,0.1484375
3227,0.0078125,-0.828125,0.15625
3228,0.0234375,-0.8203125,0.1484375
3229,0.0390625,-0.83203125,0.15234375
3230,0.06640625,-0.84375,0.14453125
3231,0.09765625,-0.859375,0.13671875
3232,0.1015625,-0.86328125,0.13671875
3233,0.13671875,-0.875,0.11328125
3234,0.16015625,-0.88671875,0.1015625
3235,0.1796875,-0.90234375,0.109375
3236,0.1953125,-0.91796875,0.109375
3237,0.19921875,-0.9453125,0.08203125
3238,0.2109375,-1.0,0.03515625
3239,0.203125,-1.015625,-0.03515625
3240,0.19140625,-1.09375,-0.1640625
3241,0.23046875,-1.1640625,-0.21484375
3242,0.171875,-1.28515625,-0.2421875
3243,0.1171875,-1.3984375,-0.23046875
3244,0.08203125,-1.4921875,-0.2265625
3245,0.0546875,-1.5625,-0.2265625
3246,0.00390625,-1.609375,-0.25
3247,-0.0390625,-1.625,-0.3203125
3248,-0.0546875,-1.609375,-0.34765625
3249,-0.09375,-1.53515625,-0.359375
3250,-0.109375,-1.4453125,-0.34375
3251,-0.11328125,-1.31640625,-0.2734375
3252,-0.1328125,-1.18359375,-0.203125
3253,-0.15625,-1.04296875,-0.125
3254,-0.171875,-0.9453125,-0.03125
3255,-0.18359375,-0.85546875,0.03125
3256,-0.19921875,-0.77734375,0.078125
3257,-0.20703125,-0.734375,0.08203125
3258,-0.21875,-0.69140625,0.07421875
3259,-0.19140625,-0.69921875,0.05859375
3260,-0.20703125,-0.69921875,0.06640625
3261,-0.21875,-0.71875,0.05859375
3262,-0.234375,-0.79296875,0.078125
3263,-0.1875,-0.8828125,0.14453125
3264,-0.1875,-0.96875,0.1953125
3265,-0.1953125,-1.046875,0.23046875
3266,-0.1953125,-1.16015625,0.26171875
3267,-0.21484375,-1.265625,0.22265625
3268,-0.24609375,-1.40625,0.09375
3269,-0.27734375,-1.546875,-0.1015625
3270,-0.3046875,-1.64453125,-0.25
3271,-0.3359375,-1.78125,-0.390625
