,accelerometerAccelerationX(G),accelerometerAccelerationY(G),accelerometerAccelerationZ(G)
0,0.01953125,-0.81640625,0.5078125
1,0.0234375,-0.8203125,0.515625
2,0.01953125,-0.8203125,0.50390625
3,0.01171875,-0.796875,0.51171875
4,0.0078125,-0.82421875,0.50390625
5,0.0234375,-0.828125,0.51171875
6,0.02734375,-0.8359375,0.5
7,0.00390625,-0.81640625,0.50390625
8,0.01953125,-0.81640625,0.49609375
9,0.01171875,-0.7890625,0.5078125
10,0.0234375,-0.83203125,0.5078125
11,0.015625,-0.8046875,0.50390625
12,0.015625,-0.8046875,0.5078125
13,0.0234375,-0.8203125,0.52734375
14,0.01953125,-0.8125,0.51953125
15,0.02734375,-0.82421875,0.5234375
16,0.015625,-0.8203125,0.49609375
17,0.02734375,-0.81640625,0.50390625
18,0.01953125,-0.8125,0.5078125
19,0.01171875,-0.82421875,0.51171875
20,0.02734375,-0.81640625,0.5078125
21,0.01953125,-0.8203125,0.51171875
22,0.01171875,-0.80859375,0.5
23,0.01953125,-0.8203125,0.50390625
24,0.02734375,-0.8203125,0.51171875
25,0.01953125,-0.82421875,0.51171875
26,0.00390625,-0.80859375,0.50390625
27,0.01171875,-0.80859375,0.51171875
28,0.01171875,-0.8125,0.5078125
29,0.015625,-0.8125,0.50390625
30,0.01171875,-0.8125,0.5078125
31,0.01953125,-0.80859375,0.5
32,0.015625,-0.8046875,0.5
33,0.01171875,-0.81640625,0.51953125
34,0.01953125,-0.82421875,0.50390625
35,0.0078125,-0.81640625,0.51171875
36,0.01953125,-0.828125,0.50390625
37,0.0390625,-0.81640625,0.5546875
38,0.015625,-0.80859375,0.5078125
39,0.01171875,-0.8125,0.5
40,0.03125,-0.82421875,0.5
41,0.015625,-0.80859375,0.515625
42,0.03125,-0.82421875,0.5234375
43,0.01953125,-0.81640625,0.5
44,0.01953125,-0.8125,0.515625
45,0.03125,-0.8203125,0.51953125
46,0.01953125,-0.81640625,0.5
47,0.0234375,-0.8125,0.50390625
48,0.015625,-0.83203125,0.53125
49,0.01171875,-0.80859375,0.515625
50,0.015625,-0.81640625,0.5078125
51,0.01171875,-0.8046875,0.51171875
52,0.01953125,-0.8359375,0.53515625
53,0.02734375,-0.8046875,0.52734375
54,-0.00390625,-0.81640625,0.49609375
55,0.03125,-0.80859375,0.52734375
56,0.015625,-0.796875,0.53125
57,0.0703125,-0.796875,0.4921875
58,0.046875,-0.85546875,0.5078125
59,0.0390625,-0.8203125,0.5234375
60,0.0390625,-0.81640625,0.52734375
61,0.02734375,-0.81640625,0.5078125
62,0.02734375,-0.79296875,0.515625
63,0.05078125,-0.8125,0.484375
64,0.02734375,-0.828125,0.52734375
65,0.0234375,-0.80078125,0.52734375
66,0.03125,-0.828125,0.5078125
67,0.0234375,-0.81640625,0.4921875
68,0.0390625,-0.8046875,0.5
69,0.0078125,-0.83203125,0.5078125
70,0.015625,-0.8046875,0.484375
71,0.01953125,-0.796875,0.53125
72,0.01953125,-0.8125,0.5078125
73,0.01171875,-0.8359375,0.484375
74,0.01953125,-0.80859375,0.4921875
75,0.02734375,-0.81640625,0.4921875
76,0.01171875,-0.81640625,0.5
77,0.01953125,-0.80859375,0.5
78,0.015625,-0.80859375,0.48046875
79,0.015625,-0.8125,0.50390625
80,0.01171875,-0.81640625,0.5078125
81,0.0078125,-0.796875,0.5078125
82,0.015625,-0.828125,0.50390625
83,0.0078125,-0.8046875,0.50390625
84,0.01171875,-0.80859375,0.49609375
85,0.01171875,-0.8203125,0.5
86,0.01953125,-0.84765625,0.53125
87,0.0234375,-0.83203125,0.5
88,0.0078125,-0.82421875,0.51171875
89,0.015625,-0.8203125,0.515625
90,0.015625,-0.83984375,0.50390625
91,0.015625,-0.84375,0.49609375
92,0.01171875,-0.8125,0.5234375
93,0.01953125,-0.8125,0.51171875
94,0.01171875,-0.81640625,0.4921875
95,0.01171875,-0.8203125,0.5234375
96,0.02734375,-0.83203125,0.49609375
97,0.015625,-0.81640625,0.5
98,0.01953125,-0.80859375,0.515625
99,0.015625,-0.80078125,0.5078125
100,0.01953125,-0.81640625,0.5
101,0.03125,-0.828125,0.5
102,0.0078125,-0.8046875,0.50390625
103,0.01171875,-0.82421875,0.53125
104,0.015625,-0.8125,0.50390625
105,0.01953125,-0.80859375,0.50390625
106,0.015625,-0.80859375,0.5
107,0.0078125,-0.81640625,0.50390625
108,0.0078125,-0.81640625,0.51171875
109,0.0234375,-0.8125,0.51171875
110,0.015625,-0.81640625,0.5078125
111,0.0078125,-0.8203125,0.50390625
112,0.01171875,-0.80859375,0.51953125
113,0.015625,-0.828125,0.5
114,0.01953125,-0.8125,0.50390625
115,0.0234375,-0.80859375,0.49609375
116,0.01171875,-0.8125,0.51171875
117,0.01953125,-0.80859375,0.50390625
118,0.01953125,-0.8125,0.50390625
119,0.015625,-0.80078125,0.49609375
120,0.01953125,-0.82421875,0.515625
121,0.0234375,-0.80859375,0.49609375
122,0.01953125,-0.8046875,0.515625
123,0.0234375,-0.82421875,0.51171875
124,0.0078125,-0.83203125,0.52734375
125,0.015625,-0.828125,0.51171875
126,0.015625,-0.8125,0.50390625
127,0.0234375,-0.82421875,0.515625
128,0.0234375,-0.8125,0.51953125
129,0.01953125,-0.81640625,0.4921875
130,0.01953125,-0.81640625,0.51171875
131,0.0234375,-0.81640625,0.5078125
132,0.0234375,-0.8125,0.5078125
133,0.02734375,-0.8203125,0.51171875
134,0.015625,-0.83203125,0.5
135,0.015625,-0.8359375,0.48828125
136,0.0234375,-0.80859375,0.50390625
137,0.01953125,-0.8203125,0.50390625
138,0.0234375,-0.8125,0.5
139,0.015625,-0.8125,0.51953125
140,0.01953125,-0.80078125,0.50390625
141,0.0078125,-0.796875,0.50390625
142,0.015625,-0.8046875,0.50390625
143,0.02734375,-0.8203125,0.515625
144,0.0078125,-0.80078125,0.515625
145,0.0234375,-0.8125,0.51171875
146,0.0,-0.78125,0.5078125
147,0.01953125,-0.8125,0.515625
148,0.0234375,-0.8125,0.50390625
149,0.03125,-0.8125,0.5078125
150,0.015625,-0.8125,0.51171875
151,0.01171875,-0.796875,0.5078125
152,0.02734375,-0.81640625,0.50390625
153,0.015625,-0.8125,0.48828125
154,0.0234375,-0.8125,0.5234375
155,0.015625,-0.80859375,0.50390625
156,0.00390625,-0.828125,0.53125
157,0.015625,-0.83203125,0.54296875
158,0.01953125,-0.81640625,0.515625
159,0.015625,-0.8046875,0.51953125
160,0.015625,-0.8203125,0.50390625
161,0.02734375,-0.8203125,0.5
162,0.01171875,-0.81640625,0.5234375
163,0.015625,-0.8203125,0.50390625
164,0.015625,-0.828125,0.5078125
165,0.01171875,-0.8203125,0.51171875
166,0.0234375,-0.8203125,0.515625
167,0.015625,-0.8125,0.5078125
168,0.0234375,-0.8203125,0.51171875
169,0.0234375,-0.82421875,0.5
170,0.01953125,-0.81640625,0.5078125
171,0.01953125,-0.8046875,0.51171875
172,0.01953125,-0.80859375,0.50390625
173,0.01953125,-0.8203125,0.5078125
174,0.0390625,-0.82421875,0.51953125
175,0.0234375,-0.8203125,0.51171875
176,0.02734375,-0.82421875,0.50390625
177,0.01953125,-0.81640625,0.5
178,0.01171875,-0.8203125,0.5078125
179,0.01171875,-0.82421875,0.51171875
180,0.01171875,-0.8125,0.51171875
181,0.01953125,-0.8203125,0.5234375
182,0.01171875,-0.80859375,0.51171875
183,0.02734375,-0.82421875,0.50390625
184,0.01171875,-0.81640625,0.50390625
185,0.0078125,-0.8125,0.515625
186,0.0234375,-0.80859375,0.515625
187,0.01171875,-0.828125,0.5078125
188,0.01171875,-0.80859375,0.5078125
189,0.01171875,-0.80859375,0.50390625
190,0.00390625,-0.80859375,0.5078125
191,0.015625,-0.8125,0.5234375
192,0.01953125,-0.8203125,0.5078125
193,0.015625,-0.8046875,0.5078125
194,0.0234375,-0.828125,0.51171875
195,0.0234375,-0.8125,0.51171875
196,0.01953125,-0.8203125,0.5078125
197,0.015625,-0.828125,0.50390625
198,0.0234375,-0.81640625,0.50390625
199,0.03125,-0.81640625,0.50390625
200,0.01953125,-0.81640625,0.515625
201,0.015625,-0.8046875,0.49609375
202,0.01171875,-0.8046875,0.51953125
203,0.01953125,-0.828125,0.50390625
204,0.01953125,-0.80078125,0.5078125
205,0.01953125,-0.8125,0.51171875
206,0.01171875,-0.80859375,0.49609375
207,0.01171875,-0.8046875,0.5234375
208,0.015625,-0.81640625,0.51953125
209,0.015625,-0.8046875,0.51171875
210,0.0078125,-0.80859375,0.51171875
211,0.04296875,-0.8203125,0.50390625
212,0.0078125,-0.7890625,0.51171875
213,0.0234375,-0.81640625,0.51171875
214,0.01171875,-0.81640625,0.5078125
215,0.01171875,-0.8046875,0.50390625
216,0.01171875,-0.828125,0.51171875
217,0.01953125,-0.8125,0.515625
218,0.01171875,-0.8125,0.50390625
219,0.0234375,-0.80859375,0.51171875
220,0.01171875,-0.80078125,0.49609375
221,0.01953125,-0.8125,0.51171875
222,0.00390625,-0.8203125,0.5078125
223,0.01953125,-0.8125,0.51171875
224,0.01953125,-0.8203125,0.515625
225,0.015625,-0.8203125,0.5
226,0.01953125,-0.80859375,0.5078125
227,0.0234375,-0.8046875,0.50390625
228,0.02734375,-0.82421875,0.50390625
229,0.015625,-0.8203125,0.52734375
230,0.01953125,-0.8125,0.5078125
231,0.01171875,-0.8125,0.51171875
232,0.0234375,-0.80859375,0.52734375
233,0.015625,-0.82421875,0.52734375
234,0.02734375,-0.8203125,0.50390625
235,0.01953125,-0.81640625,0.50390625
236,0.015625,-0.8125,0.50390625
237,0.01171875,-0.81640625,0.50390625
238,0.01171875,-0.81640625,0.5078125
239,0.01953125,-0.80859375,0.5078125
240,0.015625,-0.8203125,0.50390625
241,0.015625,-0.80859375,0.51953125
242,0.01953125,-0.828125,0.50390625
243,0.01953125,-0.81640625,0.51953125
244,0.0078125,-0.82421875,0.48828125
245,0.015625,-0.80859375,0.51171875
246,0.015625,-0.8125,0.515625
247,0.01953125,-0.80859375,0.51171875
248,0.01953125,-0.81640625,0.50390625
249,0.01953125,-0.81640625,0.5078125
250,0.01171875,-0.8125,0.51171875
251,0.01953125,-0.81640625,0.51171875
252,0.02734375,-0.8359375,0.50390625
253,0.01171875,-0.80859375,0.5
254,0.01171875,-0.8203125,0.5
255,0.0078125,-0.84375,0.5078125
256,0.0234375,-0.82421875,0.50390625
257,0.0234375,-0.82421875,0.50390625
258,0.01171875,-0.8125,0.515625
259,0.015625,-0.81640625,0.51171875
260,0.015625,-0.80859375,0.5
261,0.015625,-0.81640625,0.51171875
262,0.01171875,-0.796875,0.49609375
263,0.015625,-0.81640625,0.5078125
264,0.0078125,-0.796875,0.4921875
265,0.01171875,-0.80078125,0.5078125
266,0.01171875,-0.8203125,0.515625
267,0.0234375,-0.8203125,0.50390625
268,0.02734375,-0.8203125,0.5
269,0.01953125,-0.81640625,0.51171875
270,0.0234375,-0.82421875,0.50390625
271,0.03125,-0.83203125,0.50390625
272,0.0234375,-0.828125,0.515625
273,0.015625,-0.81640625,0.50390625
274,0.02734375,-0.828125,0.515625
275,0.00390625,-0.82421875,0.515625
276,0.01171875,-0.8203125,0.515625
277,0.015625,-0.828125,0.49609375
278,0.02734375,-0.8203125,0.5078125
279,0.01953125,-0.82421875,0.4921875
280,0.01171875,-0.8203125,0.4921875
281,0.0078125,-0.8125,0.5
282,0.03515625,-0.81640625,0.51171875
283,0.01171875,-0.81640625,0.50390625
284,0.01171875,-0.8046875,0.4921875
285,0.015625,-0.80859375,0.5078125
286,0.015625,-0.80859375,0.5
287,0.015625,-0.8046875,0.50390625
288,0.03515625,-0.796875,0.5234375
289,0.01953125,-0.80078125,0.5078125
290,0.015625,-0.8203125,0.5234375
291,0.01953125,-0.8046875,0.51171875
292,0.0234375,-0.80078125,0.5078125
293,0.015625,-0.80078125,0.50390625
294,0.01171875,-0.80859375,0.51171875
295,0.0234375,-0.828125,0.5078125
296,0.03125,-0.82421875,0.515625
297,0.01953125,-0.8125,0.49609375
298,0.015625,-0.82421875,0.515625
299,0.02734375,-0.84375,0.53125
300,0.01171875,-0.80078125,0.51171875
301,0.015625,-0.8203125,0.515625
302,0.01171875,-0.8203125,0.52734375
303,0.01171875,-0.8125,0.5078125
304,0.01171875,-0.8203125,0.50390625
305,0.015625,-0.828125,0.5078125
306,0.01171875,-0.8046875,0.5
307,0.0234375,-0.8203125,0.50390625
308,0.01171875,-0.8203125,0.50390625
309,0.03125,-0.8046875,0.5234375
310,0.015625,-0.81640625,0.4921875
311,0.015625,-0.796875,0.51171875
312,0.0234375,-0.8046875,0.515625
313,0.01171875,-0.8046875,0.515625
314,0.0078125,-0.8046875,0.50390625
315,0.01171875,-0.8125,0.5078125
316,0.02734375,-0.81640625,0.51171875
317,0.03125,-0.81640625,0.51171875
318,0.03125,-0.80078125,0.515625
319,0.015625,-0.81640625,0.50390625
320,0.00390625,-0.80078125,0.49609375
321,0.01953125,-0.81640625,0.515625
322,0.015625,-0.81640625,0.51171875
323,0.01171875,-0.81640625,0.5078125
324,0.015625,-0.81640625,0.51171875
325,0.0234375,-0.82421875,0.5
326,0.01171875,-0.8125,0.49609375
327,0.01953125,-0.81640625,0.51171875
328,0.02734375,-0.8203125,0.51171875
329,0.01171875,-0.8125,0.51171875
330,0.01171875,-0.8203125,0.5390625
331,0.0234375,-0.8203125,0.5078125
332,0.015625,-0.81640625,0.5078125
333,0.02734375,-0.82421875,0.5234375
334,0.01953125,-0.81640625,0.5078125
335,0.01953125,-0.8125,0.515625
336,0.015625,-0.81640625,0.5078125
337,0.0078125,-0.80859375,0.51171875
338,0.01953125,-0.8203125,0.5234375
339,0.0,-0.80078125,0.50390625
340,0.01953125,-0.828125,0.51953125
341,0.0078125,-0.81640625,0.51953125
342,0.015625,-0.8046875,0.5234375
343,0.01953125,-0.8125,0.51953125
344,0.0078125,-0.81640625,0.51171875
345,0.01171875,-0.796875,0.5078125
346,0.01953125,-0.8046875,0.51953125
347,0.02734375,-0.80859375,0.515625
348,0.01953125,-0.82421875,0.50390625
349,0.0234375,-0.8203125,0.49609375
350,0.01953125,-0.8046875,0.51171875
351,0.01171875,-0.8125,0.50390625
352,0.0234375,-0.828125,0.51171875
353,0.01953125,-0.80859375,0.5078125
354,0.01953125,-0.80859375,0.5078125
355,0.0078125,-0.8125,0.50390625
356,0.01171875,-0.8125,0.5
357,0.01171875,-0.81640625,0.50390625
358,0.015625,-0.8125,0.51171875
359,0.01953125,-0.81640625,0.51953125
360,0.0234375,-0.80859375,0.5
361,0.0078125,-0.8046875,0.49609375
362,0.01171875,-0.8046875,0.5
363,0.01171875,-0.83203125,0.5
364,0.015625,-0.8359375,0.51171875
365,0.02734375,-0.828125,0.51953125
366,0.015625,-0.80859375,0.51171875
367,0.0078125,-0.81640625,0.5
368,0.015625,-0.80859375,0.5078125
369,0.01953125,-0.8125,0.5078125
370,0.01953125,-0.828125,0.50390625
371,0.01953125,-0.80859375,0.515625
372,0.01953125,-0.8125,0.515625
373,0.03515625,-0.81640625,0.49609375
374,0.01953125,-0.80859375,0.51953125
375,0.04296875,-0.80859375,0.51171875
376,0.02734375,-0.8125,0.50390625
377,0.0234375,-0.81640625,0.51171875
378,0.015625,-0.8203125,0.5
379,0.02734375,-0.82421875,0.50390625
380,0.015625,-0.80859375,0.4921875
381,0.0078125,-0.82421875,0.5078125
382,0.0234375,-0.83203125,0.5
383,0.02734375,-0.8359375,0.49609375
384,0.01953125,-0.828125,0.51171875
385,0.0234375,-0.828125,0.5
386,0.03515625,-0.80859375,0.5
387,0.02734375,-0.8203125,0.50390625
388,0.01953125,-0.8203125,0.50390625
389,0.0234375,-0.82421875,0.5078125
390,0.01953125,-0.8203125,0.5078125
391,0.015625,-0.8203125,0.49609375
392,0.02734375,-0.81640625,0.515625
393,0.01953125,-0.81640625,0.515625
394,0.015625,-0.82421875,0.49609375
395,0.01171875,-0.8125,0.51953125
396,0.01953125,-0.8046875,0.50390625
397,0.0,-0.8125,0.4921875
398,0.01171875,-0.81640625,0.515625
399,0.0234375,-0.80859375,0.50390625
400,0.01171875,-0.81640625,0.5
401,0.01953125,-0.81640625,0.5078125
402,0.0234375,-0.81640625,0.5
403,0.015625,-0.80859375,0.5
404,0.02734375,-0.8203125,0.51171875
405,0.01171875,-0.81640625,0.50390625
406,0.01953125,-0.8125,0.51171875
407,0.02734375,-0.8203125,0.50390625
408,0.00390625,-0.83984375,0.50390625
409,0.01953125,-0.83203125,0.50390625
410,0.01171875,-0.8203125,0.50390625
411,0.01171875,-0.82421875,0.484375
412,0.01171875,-0.8203125,0.51171875
413,0.01953125,-0.8125,0.50390625
414,0.015625,-0.8046875,0.5078125
415,0.04296875,-0.8359375,0.49609375
416,0.02734375,-0.828125,0.49609375
417,0.01953125,-0.828125,0.4921875
418,0.03515625,-0.80859375,0.50390625
419,0.015625,-0.82421875,0.51171875
420,0.015625,-0.82421875,0.5078125
421,0.0078125,-0.81640625,0.50390625
422,0.01953125,-0.81640625,0.515625
423,0.01171875,-0.8203125,0.49609375
424,0.01953125,-0.8203125,0.50390625
425,0.0234375,-0.83984375,0.5
426,0.0234375,-0.83203125,0.50390625
427,0.01171875,-0.828125,0.48828125
428,0.00390625,-0.8125,0.48828125
429,0.00390625,-0.8125,0.47265625
430,0.015625,-0.8203125,0.5
431,0.0,-0.80859375,0.49609375
432,0.015625,-0.81640625,0.5
433,0.0078125,-0.8203125,0.50390625
434,0.01171875,-0.8046875,0.5
435,0.01171875,-0.8203125,0.50390625
436,0.03125,-0.81640625,0.51953125
437,0.015625,-0.828125,0.5078125
438,0.02734375,-0.8203125,0.49609375
439,0.0234375,-0.80859375,0.49609375
440,0.01953125,-0.796875,0.5078125
441,0.015625,-0.8203125,0.50390625
442,0.0234375,-0.81640625,0.5078125
443,0.01171875,-0.8125,0.50390625
444,0.015625,-0.8203125,0.49609375
445,0.0234375,-0.81640625,0.50390625
446,0.03125,-0.82421875,0.50390625
447,0.0234375,-0.8203125,0.50390625
448,0.03125,-0.83984375,0.5
449,0.01171875,-0.828125,0.5078125
450,0.015625,-0.82421875,0.48828125
451,0.01171875,-0.828125,0.484375
452,0.0234375,-0.828125,0.5
453,0.0234375,-0.8203125,0.48828125
454,0.0234375,-0.8203125,0.5
455,0.04296875,-0.8203125,0.50390625
456,0.01953125,-0.828125,0.4921875
457,0.03125,-0.828125,0.5
458,0.03515625,-0.83203125,0.49609375
459,0.02734375,-0.828125,0.4921875
460,0.01171875,-0.828125,0.50390625
461,0.02734375,-0.8359375,0.4921875
462,0.01953125,-0.8359375,0.484375
463,0.015625,-0.81640625,0.50390625
464,0.015625,-0.81640625,0.48828125
465,0.0234375,-0.8203125,0.49609375
466,0.01953125,-0.81640625,0.484375
467,0.01953125,-0.828125,0.49609375
468,0.03515625,-0.828125,0.49609375
469,0.01953125,-0.82421875,0.5
470,0.03125,-0.8359375,0.49609375
471,0.0234375,-0.8125,0.4765625
472,0.02734375,-0.8359375,0.50390625
473,0.02734375,-0.83203125,0.515625
474,0.01171875,-0.8203125,0.49609375
475,0.01953125,-0.8203125,0.49609375
476,0.03125,-0.82421875,0.49609375
477,0.03125,-0.8359375,0.49609375
478,0.01953125,-0.82421875,0.50390625
479,0.01171875,-0.828125,0.4921875
480,0.01953125,-0.8359375,0.50390625
481,0.015625,-0.81640625,0.50390625
482,0.01171875,-0.8203125,0.4921875
483,0.01171875,-0.81640625,0.48828125
484,0.0078125,-0.80859375,0.5078125
485,0.015625,-0.8203125,0.5
486,0.0234375,-0.82421875,0.5078125
487,0.01953125,-0.81640625,0.50390625
488,0.0234375,-0.828125,0.5
489,0.0234375,-0.828125,0.5
490,0.01953125,-0.82421875,0.5
491,0.015625,-0.8125,0.5078125
492,0.015625,-0.8125,0.5
493,0.01953125,-0.8203125,0.48828125
494,0.0234375,-0.82421875,0.5
495,0.00390625,-0.8203125,0.5
496,0.02734375,-0.82421875,0.4921875
497,0.0234375,-0.81640625,0.5
498,0.03125,-0.83984375,0.4921875
499,0.03515625,-0.828125,0.50390625
500,0.015625,-0.828125,0.484375
501,0.0234375,-0.83203125,0.48828125
502,0.01953125,-0.83984375,0.4921875
503,0.02734375,-0.8359375,0.4765625
504,0.015625,-0.8125,0.50390625
505,0.03125,-0.8203125,0.48828125
506,0.02734375,-0.81640625,0.4765625
507,0.0234375,-0.83203125,0.49609375
508,0.01953125,-0.8359375,0.484375
509,0.03515625,-0.83203125,0.49609375
510,0.02734375,-0.828125,0.49609375
511,0.0234375,-0.8203125,0.5
512,0.015625,-0.83203125,0.49609375
513,0.01953125,-0.8203125,0.4921875
514,0.0234375,-0.8125,0.484375
515,0.03125,-0.8125,0.50390625
516,0.01953125,-0.8203125,0.49609375
517,0.0078125,-0.82421875,0.48828125
518,0.015625,-0.81640625,0.48828125
519,0.02734375,-0.8203125,0.4921875
520,0.015625,-0.8125,0.48828125
521,0.03125,-0.82421875,0.4921875
522,0.0234375,-0.82421875,0.49609375
523,0.03125,-0.82421875,0.48046875
524,0.0390625,-0.83203125,0.49609375
525,0.015625,-0.828125,0.49609375
526,0.01953125,-0.81640625,0.50390625
527,0.03125,-0.84375,0.48828125
528,0.02734375,-0.8203125,0.4921875
529,0.0234375,-0.82421875,0.49609375
530,0.01953125,-0.83203125,0.484375
531,0.015625,-0.82421875,0.4921875
532,0.0234375,-0.81640625,0.48828125
533,0.015625,-0.82421875,0.5078125
534,0.0234375,-0.8203125,0.4921875
535,0.0234375,-0.8203125,0.48046875
536,0.0078125,-0.82421875,0.484375
537,0.00390625,-0.8125,0.5
538,0.01171875,-0.81640625,0.50390625
539,0.01171875,-0.828125,0.49609375
540,0.0234375,-0.828125,0.5078125
541,0.01171875,-0.828125,0.49609375
542,0.015625,-0.82421875,0.5
543,0.01953125,-0.828125,0.49609375
544,0.0234375,-0.82421875,0.49609375
545,0.0234375,-0.8125,0.48828125
546,0.015625,-0.828125,0.49609375
547,0.0234375,-0.82421875,0.48046875
548,0.015625,-0.8125,0.49609375
549,0.0390625,-0.80859375,0.47265625
550,0.03125,-0.8203125,0.48828125
551,0.03125,-0.8203125,0.50390625
552,0.02734375,-0.82421875,0.50390625
553,0.01953125,-0.828125,0.5
554,0.01953125,-0.81640625,0.5
555,0.015625,-0.81640625,0.484375
556,0.03125,-0.828125,0.5078125
557,0.01953125,-0.828125,0.49609375
558,0.0234375,-0.8359375,0.4921875
559,0.01171875,-0.8203125,0.50390625
560,0.0078125,-0.859375,0.5
561,0.01953125,-0.83984375,0.5
562,0.01953125,-0.828125,0.51171875
563,0.01953125,-0.828125,0.50390625
564,0.0234375,-0.82421875,0.5
565,0.01953125,-0.8203125,0.5
566,0.01171875,-0.828125,0.49609375
567,0.01953125,-0.83203125,0.48828125
568,0.0234375,-0.8203125,0.51953125
569,0.015625,-0.8359375,0.4921875
570,0.01953125,-0.83203125,0.5078125
571,0.02734375,-0.82421875,0.49609375
572,0.01171875,-0.8203125,0.49609375
573,0.0234375,-0.82421875,0.49609375
574,0.01953125,-0.828125,0.5
575,0.02734375,-0.83203125,0.4921875
576,0.0078125,-0.8125,0.5
577,0.01953125,-0.82421875,0.49609375
578,0.01171875,-0.80859375,0.515625
579,0.03125,-0.83203125,0.5078125
580,0.0078125,-0.8125,0.50390625
581,0.02734375,-0.8203125,0.48828125
582,0.0390625,-0.83984375,0.52734375
583,0.046875,-0.8203125,0.48828125
584,0.0234375,-0.82421875,0.5
585,0.01953125,-0.8203125,0.50390625
586,0.0078125,-0.8125,0.49609375
587,0.01953125,-0.828125,0.5
588,0.01171875,-0.8125,0.49609375
589,0.02734375,-0.828125,0.49609375
590,0.02734375,-0.8203125,0.5078125
591,0.01953125,-0.828125,0.49609375
592,0.02734375,-0.8125,0.5234375
593,0.0078125,-0.8046875,0.50390625
594,0.01171875,-0.81640625,0.50390625
595,0.0234375,-0.8203125,0.5078125
596,0.015625,-0.83203125,0.49609375
597,0.0234375,-0.8359375,0.50390625
598,0.015625,-0.82421875,0.4921875
599,0.01953125,-0.82421875,0.49609375
600,0.01171875,-0.81640625,0.5
601,0.01171875,-0.80859375,0.48828125
602,0.01953125,-0.8125,0.5
603,0.015625,-0.8125,0.4921875
604,0.01953125,-0.83203125,0.48046875
605,0.015625,-0.8125,0.50390625
606,0.01953125,-0.83203125,0.50390625
607,0.0234375,-0.81640625,0.50390625
608,0.015625,-0.81640625,0.50390625
609,0.01953125,-0.8125,0.49609375
610,0.03125,-0.81640625,0.5
611,0.03125,-0.82421875,0.515625
612,0.03125,-0.82421875,0.4921875
613,0.015625,-0.82421875,0.50390625
614,0.04296875,-0.828125,0.48828125
615,0.015625,-0.80859375,0.51953125
616,0.02734375,-0.81640625,0.515625
617,0.01171875,-0.81640625,0.48828125
618,0.01171875,-0.8203125,0.5
619,0.015625,-0.81640625,0.5
620,0.015625,-0.81640625,0.5078125
621,0.00390625,-0.81640625,0.5078125
622,0.01953125,-0.828125,0.49609375
623,0.01171875,-0.828125,0.50390625
624,0.015625,-0.83203125,0.50390625
625,0.015625,-0.8046875,0.484375
626,0.0078125,-0.8203125,0.5
627,0.015625,-0.80859375,0.5
628,0.02734375,-0.82421875,0.4921875
629,0.0234375,-0.82421875,0.49609375
630,0.01953125,-0.82421875,0.50390625
631,0.015625,-0.8125,0.5
632,0.0390625,-0.8203125,0.5078125
633,0.01953125,-0.828125,0.5
634,0.01171875,-0.83203125,0.5078125
635,0.0234375,-0.83203125,0.49609375
636,0.01953125,-0.80859375,0.50390625
637,0.02734375,-0.82421875,0.50390625
638,0.0234375,-0.828125,0.51953125
639,0.02734375,-0.828125,0.50390625
640,0.015625,-0.81640625,0.5
641,0.01171875,-0.82421875,0.49609375
642,0.015625,-0.81640625,0.5
643,0.0078125,-0.8125,0.48828125
644,0.01953125,-0.82421875,0.5
645,0.015625,-0.82421875,0.50390625
646,0.0234375,-0.80859375,0.50390625
647,0.02734375,-0.8125,0.5078125
648,0.015625,-0.8203125,0.5
649,0.01953125,-0.82421875,0.5
650,0.015625,-0.82421875,0.5
651,0.02734375,-0.82421875,0.49609375
652,0.0234375,-0.8046875,0.5
653,0.01953125,-0.82421875,0.49609375
654,0.015625,-0.828125,0.4921875
655,0.015625,-0.8203125,0.4921875
656,0.01953125,-0.8125,0.4921875
657,0.015625,-0.8203125,0.4921875
658,0.02734375,-0.81640625,0.48828125
659,0.01171875,-0.81640625,0.5
660,0.02734375,-0.8125,0.484375
661,0.015625,-0.82421875,0.48828125
662,0.01953125,-0.82421875,0.5
663,0.02734375,-0.82421875,0.50390625
664,0.02734375,-0.8203125,0.5
665,0.03125,-0.83203125,0.5
666,0.03125,-0.8203125,0.484375
667,0.015625,-0.828125,0.5
668,0.01171875,-0.8203125,0.5
669,0.0234375,-0.82421875,0.54296875
670,0.0234375,-0.81640625,0.5
671,0.02734375,-0.81640625,0.5078125
672,0.0078125,-0.80859375,0.48828125
673,0.01953125,-0.8203125,0.50390625
674,0.0234375,-0.8203125,0.5078125
675,0.0234375,-0.81640625,0.5078125
676,0.015625,-0.8125,0.5
677,0.0078125,-0.8203125,0.4765625
678,0.0078125,-0.80859375,0.50390625
679,0.01953125,-0.8125,0.50390625
680,0.015625,-0.81640625,0.5
681,0.015625,-0.828125,0.49609375
682,0.01953125,-0.82421875,0.4921875
683,0.015625,-0.828125,0.5078125
684,0.0234375,-0.8125,0.5
685,0.0234375,-0.81640625,0.49609375
686,0.015625,-0.8203125,0.50390625
687,0.015625,-0.80859375,0.50390625
688,0.015625,-0.8203125,0.49609375
689,0.03515625,-0.8125,0.5
690,0.0078125,-0.828125,0.5
691,0.01953125,-0.8125,0.51953125
692,0.01953125,-0.82421875,0.5
693,0.0234375,-0.83203125,0.5
694,0.01953125,-0.83203125,0.5
695,0.02734375,-0.82421875,0.49609375
696,0.01171875,-0.8203125,0.51171875
697,0.01171875,-0.8203125,0.5078125
698,0.01171875,-0.8125,0.5
699,0.01953125,-0.82421875,0.515625
700,0.015625,-0.8359375,0.5078125
701,0.01171875,-0.8203125,0.5234375
702,0.015625,-0.8203125,0.51171875
703,0.01953125,-0.8125,0.5
704,0.0234375,-0.8125,0.5
705,0.015625,-0.82421875,0.5
706,0.015625,-0.81640625,0.50390625
707,0.015625,-0.80859375,0.5078125
708,0.015625,-0.8125,0.5078125
709,0.01953125,-0.80859375,0.5
710,0.0078125,-0.8125,0.51171875
711,0.0234375,-0.82421875,0.5
712,0.015625,-0.8125,0.50390625
713,0.0078125,-0.81640625,0.48046875
714,0.0078125,-0.80859375,0.5
715,0.01953125,-0.81640625,0.49609375
716,0.01171875,-0.8125,0.50390625
717,0.01953125,-0.8203125,0.5078125
718,0.01171875,-0.80078125,0.51171875
719,0.02734375,-0.81640625,0.51171875
720,0.01171875,-0.8046875,0.5078125
721,0.01953125,-0.8046875,0.515625
722,0.0078125,-0.8125,0.51171875
723,0.03515625,-0.81640625,0.51953125
724,0.01953125,-0.8125,0.51171875
725,0.0234375,-0.82421875,0.5
726,0.01171875,-0.81640625,0.515625
727,0.015625,-0.81640625,0.515625
728,0.0234375,-0.82421875,0.5078125
729,0.01953125,-0.82421875,0.51171875
730,0.01953125,-0.828125,0.51171875
731,0.03125,-0.81640625,0.51953125
732,0.01171875,-0.81640625,0.50390625
733,0.0234375,-0.8125,0.48828125
734,0.015625,-0.80078125,0.50390625
735,0.01953125,-0.81640625,0.50390625
736,0.0234375,-0.80859375,0.5078125
737,0.015625,-0.8046875,0.49609375
738,0.015625,-0.81640625,0.50390625
739,0.01171875,-0.81640625,0.50390625
740,0.01171875,-0.80859375,0.50390625
741,0.015625,-0.8046875,0.4921875
742,0.02734375,-0.8125,0.5234375
743,0.015625,-0.81640625,0.49609375
744,0.03515625,-0.8046875,0.49609375
745,0.01171875,-0.8125,0.51171875
746,0.0234375,-0.81640625,0.5
747,0.015625,-0.8203125,0.51953125
748,0.01953125,-0.8125,0.50390625
749,0.0234375,-0.81640625,0.5078125
750,0.0078125,-0.8125,0.5078125
751,0.01953125,-0.8203125,0.515625
752,0.015625,-0.80078125,0.5078125
753,0.01171875,-0.8125,0.5078125
754,0.0234375,-0.83203125,0.5234375
755,0.01171875,-0.8203125,0.53125
756,0.03125,-0.8359375,0.51171875
757,0.01953125,-0.8125,0.5078125
758,0.01953125,-0.82421875,0.50390625
759,0.015625,-0.82421875,0.51171875
760,0.02734375,-0.81640625,0.51171875
761,0.0078125,-0.81640625,0.51953125
762,0.01953125,-0.8046875,0.5078125
763,0.0234375,-0.81640625,0.51171875
764,0.015625,-0.83203125,0.5
765,0.03125,-0.80859375,0.515625
766,0.01953125,-0.80859375,0.51171875
767,0.0234375,-0.8046875,0.515625
768,0.0078125,-0.80859375,0.51171875
769,0.015625,-0.8125,0.51953125
770,0.0078125,-0.80078125,0.52734375
771,0.01171875,-0.8125,0.515625
772,0.00390625,-0.8203125,0.51953125
773,0.0234375,-0.81640625,0.52734375
774,0.01171875,-0.8203125,0.5234375
775,0.0078125,-0.8125,0.5078125
776,0.01171875,-0.8125,0.515625
777,0.0078125,-0.80078125,0.5078125
778,0.0234375,-0.8203125,0.55078125
779,0.0234375,-0.8203125,0.515625
780,0.01953125,-0.8203125,0.51171875
781,0.01953125,-0.8203125,0.515625
782,0.01171875,-0.828125,0.5234375
783,0.015625,-0.8203125,0.50390625
784,0.015625,-0.8125,0.515625
785,0.01953125,-0.8125,0.515625
786,0.01953125,-0.8203125,0.51953125
787,0.01171875,-0.81640625,0.515625
788,0.03515625,-0.8125,0.515625
789,0.03125,-0.7734375,0.50390625
790,0.0234375,-0.8125,0.5078125
791,0.015625,-0.80078125,0.5
792,0.01171875,-0.8046875,0.5
793,0.01953125,-0.8125,0.50390625
794,0.015625,-0.8046875,0.5078125
795,0.015625,-0.80078125,0.5
796,0.015625,-0.8046875,0.5078125
797,0.015625,-0.81640625,0.515625
798,0.0234375,-0.80078125,0.515625
799,0.0390625,-0.81640625,0.51953125
800,0.02734375,-0.8203125,0.4921875
801,0.01953125,-0.80859375,0.5
802,0.00390625,-0.80859375,0.51953125
803,0.02734375,-0.8125,0.51171875
804,0.0234375,-0.8203125,0.50390625
805,0.0234375,-0.81640625,0.5078125
806,0.015625,-0.8203125,0.5078125
807,0.015625,-0.81640625,0.51171875
808,0.0078125,-0.8046875,0.5078125
809,0.02734375,-0.80859375,0.5
810,0.015625,-0.80078125,0.5
811,0.01171875,-0.8203125,0.5234375
812,0.01953125,-0.8125,0.5078125
813,0.01171875,-0.81640625,0.515625
814,0.0234375,-0.81640625,0.5078125
815,0.0234375,-0.8203125,0.51171875
816,0.01953125,-0.8046875,0.51171875
817,0.02734375,-0.8203125,0.52734375
818,0.01953125,-0.8125,0.5234375
819,0.015625,-0.796875,0.51953125
820,0.02734375,-0.8046875,0.51953125
821,0.01953125,-0.7734375,0.515625
822,0.01953125,-0.796875,0.484375
823,0.01171875,-0.796875,0.50390625
824,0.015625,-0.8125,0.50390625
825,0.01953125,-0.8125,0.5234375
826,0.01171875,-0.8125,0.5234375
827,0.0234375,-0.81640625,0.5078125
828,0.015625,-0.8046875,0.5078125
829,0.01953125,-0.828125,0.5078125
830,0.015625,-0.8046875,0.51171875
831,0.03515625,-0.8125,0.54296875
832,0.01953125,-0.83203125,0.51171875
833,0.01171875,-0.8125,0.51953125
834,0.01953125,-0.8125,0.51171875
835,0.01171875,-0.81640625,0.51953125
836,0.00390625,-0.8046875,0.50390625
837,0.0078125,-0.8046875,0.515625
838,0.015625,-0.8125,0.515625
839,0.0234375,-0.8125,0.53125
840,0.01171875,-0.80859375,0.53125
841,0.01953125,-0.8046875,0.51171875
842,0.01953125,-0.80859375,0.5234375
843,0.01953125,-0.81640625,0.53515625
844,0.015625,-0.81640625,0.53515625
845,0.0234375,-0.82421875,0.51171875
846,0.01953125,-0.8125,0.515625
847,0.01953125,-0.8203125,0.51953125
848,0.01953125,-0.8203125,0.51953125
849,0.01953125,-0.8125,0.51953125
850,0.015625,-0.8203125,0.52734375
851,0.03515625,-0.828125,0.5234375
852,0.03515625,-0.81640625,0.50390625
853,0.03125,-0.82421875,0.53515625
854,0.01171875,-0.83984375,0.51953125
855,0.02734375,-0.8125,0.5234375
856,0.0078125,-0.8046875,0.51953125
857,0.0234375,-0.80859375,0.5078125
858,0.01171875,-0.8046875,0.51171875
859,0.015625,-0.8046875,0.51171875
860,0.01953125,-0.8046875,0.51953125
861,0.015625,-0.796875,0.51953125
862,0.0234375,-0.80859375,0.51171875
863,0.0234375,-0.8125,0.53125
864,0.0234375,-0.8046875,0.515625
865,0.03125,-0.8203125,0.5
866,0.02734375,-0.81640625,0.51953125
867,0.02734375,-0.8125,0.51171875
868,0.01953125,-0.80859375,0.50390625
869,0.0390625,-0.81640625,0.5078125
870,0.05078125,-0.8046875,0.5234375
871,0.0625,-0.82421875,0.51171875
872,0.0546875,-0.8125,0.52734375
873,0.04296875,-0.80859375,0.5078125
874,0.02734375,-0.77734375,0.48828125
875,0.02734375,-0.78515625,0.4921875
876,0.0234375,-0.8125,0.5234375
877,0.0078125,-0.79296875,0.49609375
878,0.0078125,-0.83203125,0.49609375
879,0.0078125,-0.83203125,0.51171875
880,0.015625,-0.84375,0.515625
881,0.015625,-0.83984375,0.49609375
882,0.01953125,-0.84765625,0.50390625
883,0.02734375,-0.83984375,0.5078125
884,0.0390625,-0.84765625,0.5
885,0.04296875,-0.8359375,0.5
886,0.03125,-0.84765625,0.515625
887,0.0390625,-0.859375,0.51953125
888,0.03515625,-0.83203125,0.51171875
889,0.0234375,-0.81640625,0.5078125
890,0.0390625,-0.8203125,0.5234375
891,0.02734375,-0.82421875,0.515625
892,0.03125,-0.80078125,0.51953125
893,0.0234375,-0.796875,0.50390625
894,0.01171875,-0.78125,0.5234375
895,0.02734375,-0.7890625,0.50390625
896,0.00390625,-0.76953125,0.4921875
897,0.00390625,-0.78515625,0.49609375
898,0.0,-0.7734375,0.48046875
899,0.0,-0.796875,0.4765625
900,0.015625,-0.79296875,0.5
901,0.0234375,-0.80859375,0.4921875
902,0.02734375,-0.80859375,0.4921875
903,0.03515625,-0.80078125,0.50390625
904,0.046875,-0.8125,0.5
905,0.03125,-0.80859375,0.5078125
906,0.02734375,-0.8203125,0.50390625
907,0.0390625,-0.828125,0.4921875
908,0.05078125,-0.83984375,0.51171875
909,0.02734375,-0.80859375,0.5
910,0.04296875,-0.8359375,0.50390625
911,0.03515625,-0.83203125,0.50390625
912,0.03515625,-0.828125,0.50390625
913,0.0390625,-0.82421875,0.51953125
914,0.046875,-0.81640625,0.5234375
915,0.046875,-0.80859375,0.51953125
916,0.0390625,-0.80859375,0.515625
917,0.02734375,-0.8125,0.52734375
918,0.02734375,-0.8125,0.515625
919,0.03515625,-0.79296875,0.5078125
920,0.00390625,-0.796875,0.51171875
921,0.0234375,-0.79296875,0.52734375
922,0.0234375,-0.796875,0.51171875
923,0.0078125,-0.78125,0.515625
924,0.01171875,-0.796875,0.5
925,0.0078125,-0.7890625,0.5
926,0.01953125,-0.80859375,0.50390625
927,0.02734375,-0.80859375,0.5078125
928,0.0078125,-0.82421875,0.51171875
929,0.0,-0.80078125,0.49609375
930,0.00390625,-0.83203125,0.5
931,0.00390625,-0.81640625,0.5
932,0.0078125,-0.8203125,0.50390625
933,0.01171875,-0.83984375,0.5078125
934,0.01171875,-0.8125,0.50390625
935,0.01171875,-0.82421875,0.5078125
936,0.01171875,-0.8203125,0.51171875
937,0.01171875,-0.81640625,0.51953125
938,0.0234375,-0.81640625,0.51171875
939,0.0078125,-0.8125,0.50390625
940,0.01171875,-0.8125,0.5234375
941,0.0234375,-0.8046875,0.5078125
942,0.015625,-0.80078125,0.51171875
943,0.01953125,-0.8125,0.51171875
944,0.01171875,-0.80859375,0.51171875
945,0.00390625,-0.8046875,0.515625
946,0.0078125,-0.8046875,0.5234375
947,0.01953125,-0.81640625,0.515625
948,0.01953125,-0.8203125,0.51953125
949,0.01953125,-0.8203125,0.52734375
950,0.0,-0.8046875,0.51171875
951,0.01953125,-0.8203125,0.515625
952,-0.00390625,-0.8046875,0.4765625
953,0.0,-0.80859375,0.50390625
954,0.015625,-0.8125,0.5078125
955,0.01953125,-0.8125,0.5
956,0.015625,-0.8203125,0.5
957,0.03515625,-0.8125,0.50390625
958,0.0390625,-0.82421875,0.5078125
959,0.04296875,-0.828125,0.49609375
960,0.04296875,-0.82421875,0.48828125
961,0.046875,-0.8359375,0.51171875
962,0.046875,-0.8125,0.515625
963,0.0546875,-0.78125,0.484375
964,0.0546875,-0.82421875,0.5078125
965,0.0546875,-0.8203125,0.50390625
966,0.0625,-0.82421875,0.51171875
967,0.05078125,-0.81640625,0.50390625
968,0.04296875,-0.81640625,0.51171875
969,0.04296875,-0.8125,0.5078125
970,0.03125,-0.82421875,0.515625
971,0.03515625,-0.80859375,0.51171875
972,0.046875,-0.80859375,0.5234375
973,0.05859375,-0.82421875,0.52734375
974,0.01171875,-0.8125,0.515625
975,0.02734375,-0.8046875,0.51953125
976,0.03515625,-0.8125,0.51953125
977,0.03125,-0.80859375,0.515625
978,0.03125,-0.8203125,0.51953125
979,0.0390625,-0.8125,0.51953125
980,0.046875,-0.8203125,0.51171875
981,0.0625,-0.828125,0.51953125
982,0.05859375,-0.8359375,0.51953125
983,0.05859375,-0.82421875,0.51171875
984,0.03125,-0.828125,0.4921875
985,0.02734375,-0.8203125,0.50390625
986,0.0546875,-0.83203125,0.49609375
987,0.03125,-0.828125,0.48828125
988,0.02734375,-0.83984375,0.484375
989,0.03125,-0.8515625,0.45703125
990,0.046875,-0.85546875,0.484375
991,0.01953125,-0.84765625,0.46875
992,0.01953125,-0.83203125,0.4375
993,0.03125,-0.85546875,0.44140625
994,0.03515625,-0.85546875,0.43359375
995,0.03125,-0.83984375,0.44921875
996,0.02734375,-0.8203125,0.4375
997,0.0390625,-0.82421875,0.453125
998,0.0390625,-0.8046875,0.44921875
999,0.0390625,-0.80078125,0.4609375
1000,0.05078125,-0.796875,0.484375
1001,0.04296875,-0.8046875,0.484375
1002,0.0390625,-0.7890625,0.48828125
1003,0.046875,-0.7890625,0.4921875
1004,0.03515625,-0.78515625,0.50390625
1005,0.03515625,-0.78515625,0.5
1006,0.0234375,-0.78515625,0.5
1007,0.02734375,-0.7890625,0.49609375
1008,-0.0078125,-0.796875,0.49609375
1009,0.0,-0.8046875,0.51171875
1010,-0.0234375,-0.80078125,0.50390625
1011,-0.046875,-0.80859375,0.49609375
1012,-0.02734375,-0.80859375,0.4921875
1013,-0.0390625,-0.80859375,0.47265625
1014,-0.0234375,-0.8203125,0.44921875
1015,-0.0078125,-0.81640625,0.4609375
1016,0.0078125,-0.828125,0.4453125
1017,0.015625,-0.828125,0.46484375
1018,0.02734375,-0.83984375,0.45703125
1019,0.03515625,-0.84375,0.4375
1020,0.046875,-0.84375,0.4375
1021,0.0625,-0.85546875,0.4296875
1022,0.0703125,-0.8515625,0.453125
1023,0.08203125,-0.859375,0.4453125
1024,0.0859375,-0.8671875,0.45703125
1025,0.07421875,-0.8671875,0.4453125
1026,0.0703125,-0.86328125,0.46484375
1027,0.0703125,-0.86328125,0.44921875
1028,0.06640625,-0.86328125,0.453125
1029,0.0625,-0.84765625,0.43359375
1030,0.04296875,-0.83203125,0.44140625
1031,0.03125,-0.82421875,0.4453125
1032,0.0390625,-0.80859375,0.44140625
1033,0.0234375,-0.8046875,0.4453125
1034,0.0078125,-0.79296875,0.4375
1035,0.015625,-0.78515625,0.4609375
1036,0.01953125,-0.8046875,0.4453125
1037,0.03125,-0.7890625,0.46875
1038,0.05078125,-0.80859375,0.4453125
1039,0.04296875,-0.796875,0.44140625
1040,0.0390625,-0.8046875,0.46875
1041,0.0546875,-0.828125,0.4765625
1042,0.0625,-0.83984375,0.46875
1043,0.046875,-0.8515625,0.484375
1044,0.0625,-0.87890625,0.4921875
1045,0.05859375,-0.89453125,0.4765625
1046,0.0546875,-0.90234375,0.48828125
1047,0.03515625,-0.890625,0.484375
1048,0.03125,-0.8984375,0.4765625
1049,0.0625,-0.90234375,0.46875
1050,0.04296875,-0.88671875,0.45703125
1051,0.05859375,-0.875,0.4765625
1052,0.0546875,-0.8671875,0.4765625
1053,0.05859375,-0.8671875,0.46875
1054,0.05859375,-0.84765625,0.4609375
1055,0.06640625,-0.859375,0.45703125
1056,0.05078125,-0.83984375,0.453125
1057,0.06640625,-0.83203125,0.43359375
1058,0.0546875,-0.83203125,0.40625
1059,0.04296875,-0.83984375,0.421875
1060,0.05859375,-0.85546875,0.4140625
1061,0.0546875,-0.86328125,0.38671875
1062,0.03515625,-0.84765625,0.39453125
1063,0.04296875,-0.8671875,0.3984375
1064,0.0546875,-0.87109375,0.40234375
1065,0.04296875,-0.87109375,0.3984375
1066,0.046875,-0.875,0.41796875
1067,0.046875,-0.87109375,0.390625
1068,0.046875,-0.87890625,0.40234375
1069,0.05078125,-0.8671875,0.4140625
1070,0.0625,-0.8828125,0.41015625
1071,0.078125,-0.8671875,0.38671875
1072,0.078125,-0.88671875,0.4375
1073,0.078125,-0.8671875,0.4140625
1074,0.1015625,-0.87890625,0.41796875
1075,0.0859375,-0.87109375,0.42578125
1076,0.09375,-0.87109375,0.42578125
1077,0.09375,-0.8671875,0.42578125
1078,0.09375,-0.86328125,0.41015625
1079,0.09375,-0.85546875,0.39453125
1080,0.10546875,-0.86328125,0.3828125
1081,0.08203125,-0.84765625,0.36328125
1082,0.08203125,-0.859375,0.375
1083,0.078125,-0.8515625,0.35546875
1084,0.07421875,-0.859375,0.375
1085,0.06640625,-0.8671875,0.36328125
1086,0.0546875,-0.85546875,0.3671875
1087,0.0625,-0.8671875,0.359375
1088,0.0546875,-0.87109375,0.3515625
1089,0.0546875,-0.87890625,0.375
1090,0.05078125,-0.8828125,0.35546875
1091,0.05859375,-0.88671875,0.375
1092,0.0625,-0.89453125,0.34765625
1093,0.05859375,-0.88671875,0.35546875
1094,0.0390625,-0.87109375,0.34765625
1095,0.07421875,-0.875,0.34375
1096,0.05078125,-0.86328125,0.34765625
1097,0.0625,-0.875,0.35546875
1098,0.0703125,-0.87890625,0.35546875
1099,0.07421875,-0.875,0.35546875
1100,0.0625,-0.87890625,0.34765625
1101,0.0546875,-0.87890625,0.35546875
1102,0.078125,-0.875,0.36328125
1103,0.04296875,-0.87109375,0.359375
1104,0.05859375,-0.88671875,0.36328125
1105,0.07421875,-0.88671875,0.34765625
1106,0.0546875,-0.8359375,0.33203125
1107,0.05078125,-0.82421875,0.30859375
1108,0.02734375,-0.7890625,0.27734375
1109,0.03125,-0.7734375,0.2421875
1110,0.04296875,-0.78515625,0.23828125
1111,0.046875,-0.79296875,0.26171875
1112,0.03125,-0.82421875,0.2421875
1113,0.0546875,-0.85546875,0.265625
1114,0.0703125,-0.92578125,0.3203125
1115,0.0859375,-0.94921875,0.30078125
1116,0.08984375,-0.98828125,0.33203125
1117,0.078125,-1.0234375,0.3125
1118,0.09765625,-1.05078125,0.31640625
1119,0.09765625,-1.06640625,0.29296875
1120,0.09765625,-1.0703125,0.26953125
1121,0.09765625,-1.05859375,0.25390625
1122,0.0859375,-1.0546875,0.25
1123,0.08984375,-1.02734375,0.21875
1124,0.0859375,-1.01953125,0.22265625
1125,0.0859375,-0.99609375,0.21875
1126,0.08984375,-0.98828125,0.21484375
1127,0.0859375,-0.9609375,0.22265625
1128,0.08203125,-0.94921875,0.21875
1129,0.0859375,-0.94140625,0.2421875
1130,0.07421875,-0.92578125,0.23828125
1131,0.07421875,-0.921875,0.22265625
1132,0.0546875,-0.921875,0.234375
1133,0.0546875,-0.93359375,0.22265625
1134,0.0390625,-0.94921875,0.2265625
1135,0.05078125,-0.9296875,0.23046875
1136,0.03125,-0.92578125,0.234375
1137,0.03515625,-0.93359375,0.20703125
1138,0.015625,-0.9375,0.2265625
1139,0.01171875,-0.9296875,0.21484375
1140,0.015625,-0.94140625,0.2109375
1141,0.02734375,-0.9375,0.20703125
1142,0.0234375,-0.9140625,0.1953125
1143,0.03125,-0.921875,0.18359375
1144,0.046875,-0.91796875,0.15234375
1145,0.05859375,-0.93359375,0.1953125
1146,0.05859375,-0.921875,0.20703125
1147,0.0703125,-0.9375,0.19921875
1148,0.06640625,-0.921875,0.1875
1149,0.0859375,-0.921875,0.18359375
1150,0.08984375,-0.91796875,0.17578125
1151,0.09375,-0.91015625,0.1796875
1152,0.09375,-0.921875,0.16796875
1153,0.08984375,-0.90625,0.15234375
1154,0.078125,-0.91796875,0.16015625
1155,0.0625,-0.90234375,0.1484375
1156,0.05859375,-0.93359375,0.1640625
1157,0.04296875,-0.9375,0.16796875
1158,0.0390625,-0.94140625,0.15234375
1159,0.06640625,-0.94140625,0.125
1160,0.04296875,-0.9453125,0.1484375
1161,0.0390625,-0.9375,0.12890625
1162,0.0390625,-0.94140625,0.125
1163,0.04296875,-0.9296875,0.11328125
1164,0.05859375,-0.94140625,0.08984375
1165,0.0625,-0.953125,0.10546875
1166,0.0546875,-0.95703125,0.07421875
1167,0.0390625,-0.96484375,0.0859375
1168,0.0625,-0.98046875,0.09765625
1169,0.05859375,-0.98046875,0.0859375
1170,0.03125,-0.97265625,0.078125
1171,0.05859375,-0.9765625,0.06640625
1172,0.05859375,-0.96875,0.06640625
1173,0.04296875,-0.9609375,0.078125
1174,0.046875,-0.953125,0.08203125
1175,0.046875,-0.94921875,0.08984375
1176,0.03515625,-0.94140625,0.0703125
1177,0.03515625,-0.96875,0.046875
1178,0.046875,-0.9765625,0.0625
1179,0.0390625,-0.97265625,0.046875
1180,0.0390625,-1.0,0.0234375
1181,0.0390625,-0.99609375,0.00390625
1182,0.0234375,-1.0,-0.0078125
1183,0.046875,-1.03125,-0.015625
1184,0.046875,-1.03125,-0.0625
1185,0.06640625,-1.0390625,-0.08203125
1186,0.0703125,-1.03515625,-0.1015625
1187,0.078125,-1.03515625,-0.11328125
1188,0.08203125,-1.03125,-0.109375
1189,0.08203125,-1.0078125,-0.109375
1190,0.07421875,-1.0,-0.1015625
1191,0.11328125,-1.00390625,-0.08203125
1192,0.0859375,-0.98828125,-0.05859375
1193,0.08203125,-1.00390625,-0.04296875
1194,0.0859375,-1.0234375,-0.0390625
1195,0.0703125,-1.01953125,-0.0390625
1196,0.05859375,-1.02734375,-0.046875
1197,0.06640625,-1.03125,-0.07421875
1198,0.0625,-1.0390625,-0.12109375
1199,0.0625,-1.05078125,-0.13671875
1200,0.06640625,-1.04296875,-0.17578125
1201,0.07421875,-1.0390625,-0.1796875
1202,0.0625,-1.0234375,-0.21484375
1203,0.04296875,-1.01171875,-0.203125
1204,0.02734375,-0.99609375,-0.2109375
1205,0.02734375,-0.9921875,-0.20703125
1206,0.00390625,-0.97265625,-0.203125
1207,0.0,-0.984375,-0.19921875
1208,0.0078125,-0.9765625,-0.203125
1209,0.0,-0.9765625,-0.19140625
1210,0.0,-0.9453125,-0.20703125
1211,0.01171875,-0.97265625,-0.17578125
1212,0.03125,-0.96484375,-0.18359375
1213,0.00390625,-0.96484375,-0.1875
1214,0.0078125,-0.95703125,-0.1953125
1215,0.01171875,-0.96875,-0.21875
1216,0.03125,-0.97265625,-0.2265625
1217,0.0234375,-0.9765625,-0.22265625
1218,0.04296875,-0.9921875,-0.25
1219,0.01953125,-0.984375,-0.23828125
1220,0.04296875,-1.01953125,-0.25390625
1221,0.02734375,-1.0,-0.26171875
1222,0.03125,-1.0,-0.2421875
1223,0.00390625,-0.98046875,-0.26171875
1224,0.015625,-0.98828125,-0.23828125
1225,0.0234375,-0.9765625,-0.2578125
1226,0.0390625,-0.98828125,-0.25390625
1227,0.046875,-0.97265625,-0.24609375
1228,0.05859375,-0.98828125,-0.25
1229,0.09765625,-0.98828125,-0.265625
1230,0.09765625,-0.99609375,-0.25
1231,0.12109375,-1.0234375,-0.265625
1232,0.11328125,-1.0234375,-0.296875
1233,0.10546875,-1.0234375,-0.3671875
1234,0.125,-1.03125,-0.359375
1235,0.125,-1.0078125,-0.3671875
1236,0.1328125,-0.99609375,-0.34765625
1237,0.12890625,-0.984375,-0.31640625
1238,0.12109375,-1.0,-0.2890625
1239,0.11328125,-0.98828125,-0.28515625
1240,0.11328125,-1.00390625,-0.28515625
1241,0.09765625,-1.03125,-0.2734375
1242,0.08984375,-1.046875,-0.296875
1243,0.0859375,-1.0625,-0.30078125
1244,0.0625,-1.06640625,-0.30859375
1245,0.06640625,-1.08203125,-0.34375
1246,0.06640625,-1.0859375,-0.34375
1247,0.0546875,-1.08984375,-0.35546875
1248,0.0625,-1.10546875,-0.3671875
1249,0.07421875,-1.09765625,-0.390625
1250,0.06640625,-1.09375,-0.375
1251,0.05859375,-1.08203125,-0.37109375
1252,0.02734375,-1.0625,-0.35546875
1253,0.01953125,-1.0625,-0.36328125
1254,-0.015625,-1.04296875,-0.35546875
1255,0.0,-1.03515625,-0.3671875
1256,-0.0390625,-1.05859375,-0.3828125
1257,-0.0546875,-1.078125,-0.375
1258,-0.05078125,-1.0703125,-0.39453125
1259,-0.0625,-1.0625,-0.39453125
1260,-0.046875,-1.03515625,-0.41015625
1261,-0.046875,-1.0234375,-0.3984375
1262,-0.03515625,-1.015625,-0.38671875
1263,-0.03125,-1.01171875,-0.36328125
1264,-0.0234375,-1.0234375,-0.34375
1265,-0.02734375,-1.01171875,-0.3671875
1266,-0.02734375,-1.01953125,-0.35546875
1267,-0.02734375,-1.046875,-0.37109375
1268,-0.04296875,-1.03515625,-0.375
1269,-0.02734375,-1.03125,-0.3828125
1270,-0.0234375,-1.03125,-0.4140625
1271,-0.00390625,-1.03515625,-0.421875
1272,0.0078125,-1.0234375,-0.41015625
1273,0.03515625,-1.03125,-0.3828125
1274,0.05078125,-1.03125,-0.36328125
1275,0.07421875,-1.0234375,-0.35546875
1276,0.1015625,-1.03125,-0.36328125
1277,0.0859375,-1.046875,-0.34375
1278,0.078125,-1.0625,-0.359375
1279,0.05859375,-1.07421875,-0.375
1280,0.0390625,-1.07421875,-0.390625
1281,0.0078125,-1.07421875,-0.40234375
1282,0.0,-1.0546875,-0.375
1283,0.0,-1.04296875,-0.36328125
1284,0.0,-1.0,-0.35546875
1285,-0.0078125,-0.94140625,-0.3046875
1286,0.0078125,-0.90234375,-0.3203125
1287,0.015625,-0.86328125,-0.30859375
1288,0.0234375,-0.8515625,-0.28515625
1289,0.02734375,-0.8359375,-0.28515625
1290,0.03125,-0.828125,-0.3046875
1291,0.04296875,-0.80078125,-0.30078125
1292,0.05859375,-0.8125,-0.3203125
1293,0.0703125,-0.82421875,-0.328125
1294,0.06640625,-0.8515625,-0.33984375
1295,0.06640625,-0.8984375,-0.3671875
1296,0.06640625,-0.921875,-0.359375
1297,0.07421875,-0.91796875,-0.359375
1298,0.05078125,-0.8984375,-0.359375
1299,0.07421875,-0.89453125,-0.36328125
1300,0.07421875,-0.8515625,-0.3671875
1301,0.07421875,-0.8125,-0.34375
1302,0.08984375,-0.78515625,-0.35546875
1303,0.07421875,-0.73828125,-0.3515625
1304,0.05859375,-0.69140625,-0.36328125
1305,0.0625,-0.6953125,-0.36328125
1306,0.046875,-0.671875,-0.3515625
1307,0.03125,-0.6953125,-0.3828125
1308,0.02734375,-0.69921875,-0.38671875
1309,0.01953125,-0.71875,-0.3671875
1310,0.0234375,-0.72265625,-0.38671875
1311,0.03515625,-0.71484375,-0.375
1312,0.0390625,-0.69921875,-0.37109375
1313,0.04296875,-0.70703125,-0.3828125
1314,0.0234375,-0.6875,-0.390625
1315,-0.00390625,-0.6484375,-0.3984375
1316,-0.0078125,-0.65234375,-0.39453125
1317,0.00390625,-0.64453125,-0.39453125
1318,0.00390625,-0.63671875,-0.40625
1319,0.0,-0.6171875,-0.3984375
1320,0.0078125,-0.60546875,-0.390625
1321,0.02734375,-0.609375,-0.37890625
1322,0.05078125,-0.6328125,-0.37890625
1323,0.0703125,-0.62890625,-0.38671875
1324,0.078125,-0.6484375,-0.38671875
1325,0.08984375,-0.66015625,-0.39453125
1326,0.10546875,-0.671875,-0.36328125
1327,0.09765625,-0.671875,-0.38671875
1328,0.11328125,-0.68359375,-0.39453125
1329,0.125,-0.7109375,-0.40625
1330,0.1171875,-0.71484375,-0.3984375
1331,0.10546875,-0.7265625,-0.41796875
1332,0.1015625,-0.71484375,-0.421875
1333,0.09375,-0.71484375,-0.43359375
1334,0.078125,-0.71875,-0.43359375
1335,0.0625,-0.72265625,-0.4453125
1336,0.046875,-0.70703125,-0.44140625
1337,0.03515625,-0.6953125,-0.44140625
1338,0.02734375,-0.6796875,-0.44921875
1339,0.01953125,-0.66015625,-0.4453125
1340,0.015625,-0.671875,-0.45703125
1341,0.0234375,-0.66015625,-0.4453125
1342,0.01953125,-0.640625,-0.4453125
1343,0.00390625,-0.640625,-0.44140625
1344,0.01953125,-0.6328125,-0.4375
1345,0.0390625,-0.63671875,-0.4453125
1346,0.0390625,-0.64453125,-0.4453125
1347,0.04296875,-0.65234375,-0.4296875
1348,0.0546875,-0.65625,-0.453125
1349,0.07421875,-0.66015625,-0.4296875
1350,0.0625,-0.6640625,-0.4609375
1351,0.0703125,-0.6640625,-0.46484375
1352,0.0703125,-0.65625,-0.4609375
1353,0.07421875,-0.6796875,-0.47265625
1354,0.078125,-0.67578125,-0.4765625
1355,0.0703125,-0.6796875,-0.4765625
1356,0.0625,-0.66015625,-0.48828125
1357,0.07421875,-0.671875,-0.4921875
1358,0.08203125,-0.67578125,-0.484375
1359,0.10546875,-0.6484375,-0.48046875
1360,0.08984375,-0.6640625,-0.46875
1361,0.09375,-0.66015625,-0.4609375
1362,0.09765625,-0.671875,-0.46484375
1363,0.109375,-0.66796875,-0.49609375
1364,0.09765625,-0.6640625,-0.4609375
1365,0.09375,-0.67578125,-0.44921875
1366,0.09375,-0.671875,-0.46484375
1367,0.09375,-0.6875,-0.44921875
1368,0.0859375,-0.6796875,-0.46484375
1369,0.07421875,-0.6796875,-0.44921875
1370,0.0703125,-0.66796875,-0.4453125
1371,0.04296875,-0.66796875,-0.44140625
1372,0.04296875,-0.66796875,-0.43359375
1373,0.04296875,-0.6796875,-0.4296875
1374,0.04296875,-0.6953125,-0.43359375
1375,0.046875,-0.671875,-0.41796875
1376,0.0390625,-0.671875,-0.41796875
1377,0.03125,-0.66015625,-0.40234375
1378,0.03515625,-0.67578125,-0.40625
1379,0.03125,-0.68359375,-0.40234375
1380,0.03125,-0.68359375,-0.38671875
1381,0.05078125,-0.6875,-0.37890625
1382,0.02734375,-0.69921875,-0.37890625
1383,0.02734375,-0.7109375,-0.375
1384,0.03515625,-0.7265625,-0.35546875
1385,0.04296875,-0.7578125,-0.33203125
1386,0.015625,-0.74609375,-0.33203125
1387,0.02734375,-0.75390625,-0.328125
1388,0.01953125,-0.76171875,-0.33203125
1389,0.02734375,-0.78515625,-0.32421875
1390,0.0078125,-0.7890625,-0.31640625
1391,0.015625,-0.80859375,-0.30859375
1392,0.0078125,-0.82421875,-0.30078125
1393,0.0078125,-0.83203125,-0.296875
1394,0.0078125,-0.87109375,-0.27734375
1395,0.0234375,-0.89453125,-0.2578125
1396,0.05078125,-0.91015625,-0.26171875
1397,0.09765625,-0.91796875,-0.27734375
1398,0.12890625,-0.92578125,-0.2578125
1399,0.15625,-0.94921875,-0.2578125
1400,0.1875,-0.94921875,-0.28125
1401,0.23046875,-0.92578125,-0.29296875
1402,0.26953125,-0.8984375,-0.2890625
1403,0.27734375,-0.87890625,-0.28125
1404,0.27734375,-0.85546875,-0.25390625
1405,0.23828125,-0.8203125,-0.22265625
1406,0.203125,-0.79296875,-0.23828125
1407,0.13671875,-0.765625,-0.19921875
1408,0.12890625,-0.75390625,-0.17578125
1409,0.0625,-0.7421875,-0.1796875
1410,0.03125,-0.74609375,-0.171875
1411,-0.0078125,-0.74609375,-0.16796875
1412,-0.04296875,-0.75390625,-0.14453125
1413,-0.06640625,-0.75390625,-0.16015625
1414,-0.0859375,-0.75390625,-0.1640625
1415,-0.09765625,-0.75390625,-0.140625
1416,-0.1328125,-0.75,-0.1484375
1417,-0.16796875,-0.73828125,-0.13671875
1418,-0.15625,-0.72265625,-0.140625
1419,-0.171875,-0.71484375,-0.140625
1420,-0.17578125,-0.6796875,-0.13671875
1421,-0.17578125,-0.65234375,-0.12890625
1422,-0.1484375,-0.6328125,-0.14453125
1423,-0.140625,-0.59375,-0.1484375
1424,-0.140625,-0.56640625,-0.18359375
1425,-0.1484375,-0.53125,-0.18359375
1426,-0.171875,-0.5390625,-0.16796875
1427,-0.171875,-0.5234375,-0.1640625
1428,-0.1953125,-0.515625,-0.17578125
1429,-0.17578125,-0.48828125,-0.22265625
1430,-0.125,-0.4765625,-0.2265625
1431,-0.015625,-0.48828125,-0.26171875
1432,0.03515625,-0.48046875,-0.26953125
1433,0.13671875,-0.4921875,-0.26171875
1434,0.1796875,-0.4921875,-0.2734375
1435,0.171875,-0.49609375,-0.26953125
1436,0.1640625,-0.48828125,-0.3125
1437,0.125,-0.48828125,-0.29296875
1438,0.0859375,-0.4765625,-0.328125
1439,0.0390625,-0.46484375,-0.26953125
1440,0.00390625,-0.4765625,-0.296875
1441,0.0,-0.453125,-0.296875
1442,-0.015625,-0.4609375,-0.32421875
1443,-0.03515625,-0.4296875,-0.37890625
1444,-0.04296875,-0.39453125,-0.44140625
1445,-0.078125,-0.359375,-0.53515625
1446,-0.109375,-0.3203125,-0.59375
1447,-0.125,-0.29296875,-0.65234375
1448,-0.14453125,-0.28515625,-0.6796875
1449,-0.09765625,-0.30078125,-0.62109375
1450,-0.03515625,-0.34375,-0.5
1451,-0.02734375,-0.37890625,-0.43359375
1452,-0.046875,-0.4296875,-0.34765625
1453,-0.08203125,-0.52734375,-0.30078125
1454,-0.125,-0.59765625,-0.26171875
1455,-0.18359375,-0.6875,-0.24609375
1456,-0.19921875,-0.7265625,-0.2578125
1457,-0.25,-0.7578125,-0.24609375
1458,-0.3359375,-0.7578125,-0.2421875
1459,-0.3984375,-0.75,-0.2578125
1460,-0.421875,-0.6875,-0.31640625
1461,-0.41015625,-0.625,-0.36328125
1462,-0.4140625,-0.5078125,-0.3984375
1463,-0.390625,-0.4453125,-0.4375
1464,-0.328125,-0.4140625,-0.48828125
1465,-0.26953125,-0.390625,-0.52734375
1466,-0.16015625,-0.40234375,-0.5703125
1467,-0.08203125,-0.421875,-0.59375
1468,-0.05859375,-0.43359375,-0.578125
1469,-0.09375,-0.48828125,-0.55078125
1470,-0.1875,-0.5546875,-0.48828125
1471,-0.296875,-0.62890625,-0.40625
1472,-0.48046875,-0.73046875,-0.28515625
1473,-0.71484375,-0.84765625,-0.13671875
1474,-0.984375,-0.9296875,-0.01171875
1475,-1.16796875,-0.95703125,0.046875
1476,-1.37109375,-0.91796875,0.05859375
1477,-1.41796875,-0.8359375,0.01953125
1478,-1.36328125,-0.71484375,-0.01953125
1479,-1.296875,-0.640625,-0.12890625
1480,-1.25,-0.62109375,-0.19921875
1481,-1.18359375,-0.625,-0.26171875
1482,-1.1171875,-0.58984375,-0.31640625
1483,-0.9921875,-0.60546875,-0.40625
1484,-0.96484375,-0.6171875,-0.484375
1485,-1.0,-0.59765625,-0.546875
1486,-1.125,-0.5625,-0.66796875
1487,-1.18359375,-0.52734375,-0.75
1488,-1.265625,-0.52734375,-0.80859375
1489,-1.40625,-0.5546875,-0.828125
1490,-1.6171875,-0.6796875,-0.8515625
1491,-1.78515625,-0.80859375,-1.0703125
1492,-2.05859375,-0.9140625,-1.2109375
1493,-2.51171875,-0.9765625,-1.23046875
1494,-2.70703125,-0.9375,-1.1796875
1495,-3.046875,-0.921875,-1.09765625
1496,-3.4375,-0.765625,-0.875
1497,-3.75,-0.546875,-0.765625
1498,-3.84375,-0.4140625,-0.625
1499,-3.703125,-0.27734375,-0.453125
1500,-3.2578125,-0.26953125,-0.203125
1501,-2.74609375,-0.24609375,-0.05859375
1502,-2.5078125,-0.1796875,0.0
1503,-2.1796875,-0.12109375,0.0703125
1504,-1.98828125,-0.01953125,0.16015625
1505,-1.84375,0.23828125,0.11328125
1506,-1.68359375,0.34765625,0.11328125
1507,-1.4609375,0.34765625,0.04296875
1508,-1.3828125,0.18359375,0.08984375
1509,-1.359375,-0.015625,0.203125
1510,-1.11328125,-0.24609375,0.12109375
1511,-1.02734375,-0.38671875,0.015625
1512,-1.0546875,-0.5,-0.02734375
1513,-0.9921875,-0.61328125,0.046875
1514,-0.80859375,-0.6640625,0.03515625
1515,-0.69921875,-0.51953125,0.0703125
1516,-0.625,-0.421875,0.0
1517,-0.73828125,-0.3359375,0.0078125
1518,-0.8359375,-0.2265625,-0.046875
1519,-1.00390625,-0.1484375,-0.078125
1520,-1.05859375,-0.03515625,-0.1171875
1521,-1.1875,0.09375,-0.03515625
1522,-1.17578125,0.17578125,0.0625
1523,-1.125,0.24609375,0.07421875
1524,-1.015625,0.3203125,0.05859375
1525,-0.9375,0.40625,0.00390625
1526,-1.0,0.50390625,-0.0390625
1527,-1.0078125,0.62890625,-0.0859375
1528,-1.01953125,0.671875,-0.078125
1529,-1.125,0.6640625,-0.0234375
1530,-0.67578125,0.6484375,-0.15234375
1531,-0.4453125,0.5625,-0.171875
1532,-0.47265625,0.578125,-0.02734375
1533,-0.38671875,0.5078125,-0.06640625
1534,-0.4296875,0.46875,-0.0234375
1535,-0.3828125,0.3671875,0.0078125
1536,-0.2578125,0.4296875,0.171875
1537,-0.3203125,0.40625,0.25
1538,-0.50390625,0.34765625,0.328125
1539,-0.49609375,0.3203125,0.3671875
1540,-0.63671875,0.3203125,0.359375
1541,-0.7265625,0.32421875,0.34765625
1542,-0.71484375,0.30078125,0.33984375
1543,-0.78515625,0.31640625,0.24609375
1544,-0.796875,0.265625,0.265625
1545,-0.859375,0.23046875,0.33203125
1546,-0.9453125,0.2265625,0.34765625
1547,-0.96484375,0.23828125,0.35546875
1548,-0.99609375,0.21875,0.33984375
1549,-1.0234375,0.25390625,0.37890625
1550,-0.9921875,0.25,0.3671875
1551,-0.953125,0.3046875,0.34765625
1552,-1.0,0.375,0.30859375
1553,-0.91796875,0.48046875,0.2265625
1554,-0.86328125,0.58203125,0.171875
1555,-0.83203125,0.62890625,0.15234375
1556,-0.85546875,0.68359375,0.12109375
1557,-0.91015625,0.6875,0.12890625
1558,-0.91015625,0.671875,0.09765625
1559,-0.87109375,0.62109375,0.10546875
1560,-0.875,0.62109375,0.13671875
1561,-0.84765625,0.5546875,0.15234375
1562,-0.78515625,0.47265625,0.203125
1563,-0.7890625,0.40625,0.26171875
1564,-0.80859375,0.30078125,0.296875
1565,-0.828125,0.234375,0.34375
1566,-0.84765625,0.19140625,0.34765625
1567,-0.89453125,0.18359375,0.3125
1568,-0.96484375,0.21875,0.2890625
1569,-1.0234375,0.26953125,0.2578125
1570,-1.109375,0.33203125,0.265625
1571,-1.171875,0.37890625,0.2734375
1572,-1.21875,0.43359375,0.29296875
1573,-1.26171875,0.4609375,0.3125
1574,-1.32421875,0.48046875,0.3125
1575,-1.38671875,0.49609375,0.2890625
1576,-1.421875,0.47265625,0.29296875
1577,-1.43359375,0.4921875,0.29296875
1578,-1.4140625,0.48046875,0.26171875
1579,-1.40234375,0.4609375,0.23828125
1580,-1.37109375,0.4375,0.23046875
1581,-1.34375,0.4375,0.2421875
1582,-1.28125,0.4296875,0.20703125
1583,-1.21875,0.43359375,0.2109375
1584,-1.16796875,0.43359375,0.15625
1585,-1.15625,0.42578125,0.1640625
1586,-1.10546875,0.40234375,0.1171875
1587,-1.09375,0.35546875,0.0703125
1588,-1.09375,0.30078125,0.10546875
1589,-0.96484375,0.21484375,0.05078125
1590,-0.984375,0.18359375,0.06640625
1591,-1.015625,0.1484375,0.10546875
1592,-0.99609375,0.12890625,0.109375
1593,-0.93359375,0.1328125,0.13671875
1594,-0.8671875,0.13671875,0.12890625
1595,-0.8515625,0.1796875,0.0859375
1596,-0.83984375,0.22265625,0.09375
1597,-0.8359375,0.28515625,0.08203125
1598,-0.828125,0.328125,0.12890625
1599,-0.796875,0.3828125,0.10546875
1600,-0.76953125,0.4140625,0.12109375
1601,-0.74609375,0.42578125,0.125
1602,-0.703125,0.42578125,0.109375
1603,-0.69140625,0.38671875,0.09375
1604,-0.6875,0.3671875,0.0859375
1605,-0.671875,0.30859375,0.0703125
1606,-0.6953125,0.265625,0.0546875
1607,-0.6796875,0.21875,0.046875
1608,-0.68359375,0.1796875,0.02734375
1609,-0.671875,0.140625,0.0390625
1610,-0.75,0.125,0.0234375
1611,-0.76171875,0.09765625,0.0390625
1612,-0.80078125,0.08984375,0.0234375
1613,-0.84375,0.09375,0.015625
1614,-0.8828125,0.08203125,0.01171875
1615,-0.91796875,0.109375,0.00390625
1616,-0.95703125,0.1171875,-0.02734375
1617,-1.01171875,0.140625,-0.03515625
1618,-1.0390625,0.16015625,-0.0546875
1619,-1.0625,0.18359375,-0.07421875
1620,-1.0703125,0.203125,-0.12109375
1621,-1.10546875,0.2109375,-0.12109375
1622,-1.125,0.23828125,-0.16015625
1623,-1.15234375,0.24609375,-0.20703125
1624,-1.1484375,0.25,-0.22265625
1625,-1.171875,0.2421875,-0.2421875
1626,-1.19140625,0.25,-0.26171875
1627,-1.1796875,0.24609375,-0.29296875
1628,-1.17578125,0.2109375,-0.2890625
1629,-1.171875,0.2109375,-0.296875
1630,-1.17578125,0.18359375,-0.27734375
1631,-1.14453125,0.17578125,-0.29296875
1632,-1.12890625,0.16015625,-0.3125
1633,-1.125,0.15625,-0.3046875
1634,-1.08984375,0.14453125,-0.2734375
1635,-1.07421875,0.1484375,-0.2890625
1636,-1.0703125,0.140625,-0.27734375
1637,-1.03125,0.1171875,-0.2890625
1638,-1.0234375,0.12890625,-0.2578125
1639,-1.0078125,0.140625,-0.265625
1640,-0.98828125,0.13671875,-0.2578125
1641,-0.98046875,0.1484375,-0.265625
1642,-0.9453125,0.11328125,-0.265625
1643,-0.9453125,0.1171875,-0.24609375
1644,-0.9375,0.10546875,-0.23046875
1645,-0.91015625,0.08984375,-0.21875
1646,-0.91015625,0.0859375,-0.203125
1647,-0.90625,0.05859375,-0.21484375
1648,-0.890625,0.05859375,-0.2109375
1649,-0.87890625,0.0234375,-0.21484375
1650,-0.8828125,0.01171875,-0.20703125
1651,-0.859375,0.0,-0.20703125
1652,-0.85546875,-0.0078125,-0.1875
1653,-0.859375,-0.01953125,-0.19921875
1654,-0.89453125,-0.01171875,-0.1953125
1655,-0.9140625,0.01953125,-0.1953125
1656,-1.0,0.0703125,-0.2109375
1657,-0.9296875,0.0390625,-0.19921875
1658,-0.8125,-0.0078125,-0.2421875
1659,-0.90234375,0.0,-0.22265625
1660,-0.93359375,0.015625,-0.19921875
1661,-0.97265625,0.0390625,-0.21875
1662,-0.9921875,0.03125,-0.1953125
1663,-1.0,0.03125,-0.2265625
1664,-1.00390625,0.0234375,-0.19921875
1665,-1.03125,0.03515625,-0.203125
1666,-1.02734375,0.03515625,-0.22265625
1667,-1.04296875,0.015625,-0.21484375
1668,-1.0546875,0.015625,-0.20703125
1669,-1.0625,0.015625,-0.2109375
1670,-1.0625,0.015625,-0.234375
1671,-1.07421875,0.04296875,-0.24609375
1672,-1.08203125,0.03125,-0.2421875
1673,-1.05078125,0.01953125,-0.2421875
1674,-1.0703125,0.02734375,-0.2421875
1675,-1.0625,0.03515625,-0.23828125
1676,-1.0546875,0.03125,-0.2421875
1677,-1.046875,0.03515625,-0.234375
1678,-1.046875,0.03125,-0.2109375
1679,-1.13671875,0.09765625,-0.171875
1680,-0.9375,0.0078125,-0.24609375
1681,-0.98828125,-0.00390625,-0.24609375
1682,-1.015625,0.01953125,-0.203125
1683,-1.0078125,0.0234375,-0.1875
1684,-1.0234375,0.03125,-0.19921875
1685,-1.0234375,0.0390625,-0.2109375
1686,-1.015625,0.04296875,-0.1796875
1687,-1.01171875,0.046875,-0.2109375
1688,-1.0234375,0.05859375,-0.17578125
1689,-1.01953125,0.046875,-0.171875
1690,-1.0078125,0.0703125,-0.1796875
1691,-1.0,0.0625,-0.15234375
1692,-1.0,0.06640625,-0.14453125
1693,-1.0078125,0.07421875,-0.15625
1694,-0.984375,0.078125,-0.16796875
1695,-0.984375,0.07421875,-0.125
1696,-0.98046875,0.09765625,-0.1328125
1697,-0.97265625,0.08203125,-0.1328125
1698,-0.95703125,0.0859375,-0.109375
1699,-0.95703125,0.0859375,-0.1171875
1700,-0.95703125,0.08984375,-0.12109375
1701,-0.96484375,0.09375,-0.10546875
1702,-0.94921875,0.09765625,-0.09765625
1703,-0.95703125,0.12109375,-0.08203125
1704,-0.94140625,0.10546875,-0.109375
1705,-0.9453125,0.09765625,-0.10546875
1706,-0.9296875,0.1171875,-0.1015625
1707,-0.94140625,0.125,-0.08203125
1708,-0.94921875,0.125,-0.09375
1709,-0.94140625,0.1328125,-0.08203125
1710,-0.93359375,0.12890625,-0.07421875
1711,-0.9375,0.13671875,-0.078125
1712,-0.9453125,0.13671875,-0.0703125
1713,-0.9453125,0.1328125,-0.0703125
1714,-0.95703125,0.1328125,-0.09765625
1715,-0.95703125,0.1171875,-0.09765625
1716,-0.953125,0.09375,-0.0859375
1717,-0.9921875,0.109375,-0.1171875
1718,-0.99609375,0.1015625,-0.109375
1719,-1.00390625,0.109375,-0.10546875
1720,-1.0078125,0.10546875,-0.10546875
1721,-1.0078125,0.109375,-0.1171875
1722,-1.01953125,0.1171875,-0.1328125
1723,-1.0078125,0.10546875,-0.12890625
1724,-1.0078125,0.09375,-0.125
1725,-1.01953125,0.11328125,-0.12890625
1726,-1.01953125,0.1171875,-0.140625
1727,-0.984375,0.11328125,-0.15234375
1728,-1.0078125,0.11328125,-0.125
1729,-1.0,0.109375,-0.140625
1730,-0.98828125,0.09765625,-0.140625
1731,-0.9921875,0.11328125,-0.1328125
1732,-0.98828125,0.09765625,-0.13671875
1733,-0.98828125,0.09375,-0.1328125
1734,-0.9921875,0.10546875,-0.14453125
1735,-0.99609375,0.10546875,-0.15625
1736,-0.9765625,0.09375,-0.12890625
1737,-0.98828125,0.109375,-0.140625
1738,-0.9765625,0.10546875,-0.14453125
1739,-0.98828125,0.1015625,-0.15625
1740,-0.98828125,0.1015625,-0.15625
1741,-0.9921875,0.109375,-0.15234375
1742,-0.9921875,0.1015625,-0.13671875
1743,-0.984375,0.11328125,-0.1484375
1744,-0.984375,0.10546875,-0.1484375
1745,-0.9921875,0.10546875,-0.1484375
1746,-0.98828125,0.109375,-0.140625
1747,-0.98828125,0.1171875,-0.140625
1748,-0.98828125,0.1015625,-0.140625
1749,-0.98828125,0.1015625,-0.14453125
1750,-0.98828125,0.10546875,-0.13671875
1751,-0.99609375,0.11328125,-0.1328125
1752,-0.9921875,0.1015625,-0.1328125
1753,-0.9921875,0.10546875,-0.12890625
1754,-0.984375,0.1171875,-0.1171875
1755,-0.98046875,0.1171875,-0.1484375
1756,-0.98828125,0.09765625,-0.12890625
1757,-0.98046875,0.109375,-0.140625
1758,-0.98046875,0.1015625,-0.14453125
1759,-0.98828125,0.09375,-0.1171875
1760,-0.9921875,0.109375,-0.1171875
1761,-0.98828125,0.09375,-0.1171875
1762,-0.984375,0.109375,-0.125
1763,-0.99609375,0.1015625,-0.11328125
1764,-0.9921875,0.10546875,-0.125
1765,-0.9765625,0.08984375,-0.1171875
1766,-0.98046875,0.08984375,-0.125
1767,-0.9921875,0.08203125,-0.12109375
1768,-0.98046875,0.09765625,-0.12890625
1769,-0.99609375,0.08984375,-0.14453125
1770,-0.9921875,0.08984375,-0.1328125
1771,-0.9921875,0.09765625,-0.12109375
1772,-0.9921875,0.0859375,-0.1171875
1773,-0.9921875,0.09765625,-0.12890625
1774,-0.984375,0.09375,-0.12890625
1775,-0.9921875,0.1015625,-0.13671875
1776,-0.99609375,0.1171875,-0.109375
1777,-0.98046875,0.0859375,-0.140625
1778,-0.98046875,0.09765625,-0.12109375
1779,-0.98046875,0.09375,-0.1484375
1780,-0.9765625,0.08984375,-0.109375
1781,-0.98828125,0.1015625,-0.15234375
1782,-0.984375,0.1015625,-0.12890625
1783,-1.0,0.10546875,-0.1328125
1784,-0.98828125,0.09375,-0.12890625
1785,-0.984375,0.10546875,-0.1328125
1786,-0.98046875,0.09765625,-0.1328125
1787,-0.984375,0.10546875,-0.12109375
1788,-0.9921875,0.09375,-0.1328125
1789,-1.0,0.08984375,-0.1328125
1790,-0.99609375,0.10546875,-0.12890625
1791,-0.984375,0.09375,-0.14453125
1792,-0.99609375,0.10546875,-0.12890625
1793,-0.99609375,0.10546875,-0.140625
1794,-0.99609375,0.1171875,-0.13671875
1795,-0.98828125,0.09375,-0.14453125
1796,-0.98828125,0.08984375,-0.14453125
1797,-0.9921875,0.1015625,-0.13671875
1798,-0.9765625,0.09375,-0.12890625
1799,-0.98828125,0.09375,-0.1484375
1800,-0.984375,0.1015625,-0.14453125
1801,-0.95703125,0.10546875,-0.140625
1802,-0.98828125,0.09765625,-0.125
1803,-0.984375,0.1015625,-0.14453125
1804,-0.98828125,0.09375,-0.1484375
1805,-0.98828125,0.09765625,-0.1484375
1806,-0.984375,0.09765625,-0.125
1807,-0.98046875,0.09375,-0.12890625
1808,-0.99609375,0.109375,-0.15234375
1809,-0.98828125,0.09765625,-0.140625
1810,-0.984375,0.109375,-0.125
1811,-0.984375,0.1015625,-0.1484375
1812,-0.984375,0.11328125,-0.1328125
1813,-0.9921875,0.10546875,-0.15625
1814,-0.9921875,0.109375,-0.15625
1815,-0.99609375,0.1015625,-0.13671875
1816,-0.984375,0.09765625,-0.140625
1817,-0.98828125,0.1015625,-0.1484375
1818,-0.98828125,0.09765625,-0.14453125
1819,-0.97265625,0.0859375,-0.13671875
1820,-0.9921875,0.09765625,-0.16015625
1821,-0.99609375,0.09765625,-0.14453125
1822,-0.98828125,0.1015625,-0.1328125
1823,-0.984375,0.09765625,-0.14453125
1824,-0.9921875,0.1015625,-0.125
1825,-0.98046875,0.09765625,-0.140625
1826,-0.9921875,0.09765625,-0.15234375
1827,-0.984375,0.1015625,-0.140625
1828,-0.99609375,0.109375,-0.14453125
1829,-0.99609375,0.109375,-0.15234375
1830,-0.98828125,0.09765625,-0.15625
1831,-0.9921875,0.09765625,-0.13671875
1832,-0.98828125,0.1015625,-0.1484375
1833,-1.0078125,0.09375,-0.171875
1834,-0.99609375,0.10546875,-0.14453125
1835,-0.9921875,0.109375,-0.140625
1836,-0.98828125,0.09765625,-0.16015625
1837,-0.98828125,0.09375,-0.14453125
1838,-0.98828125,0.10546875,-0.13671875
1839,-1.0,0.1171875,-0.16015625
1840,-0.9765625,0.08984375,-0.14453125
1841,-0.9921875,0.10546875,-0.12890625
1842,-0.98828125,0.1015625,-0.14453125
1843,-0.984375,0.109375,-0.12890625
1844,-0.99609375,0.1015625,-0.09765625
1845,-0.98828125,0.1015625,-0.140625
1846,-0.98046875,0.109375,-0.15625
1847,-0.98828125,0.10546875,-0.13671875
1848,-0.9765625,0.09765625,-0.15625
1849,-0.984375,0.11328125,-0.15625
1850,-0.98046875,0.09765625,-0.1484375
1851,-0.98828125,0.109375,-0.140625
1852,-0.984375,0.09765625,-0.1484375
1853,-0.9765625,0.0859375,-0.15234375
1854,-0.98046875,0.10546875,-0.1484375
1855,-0.96875,0.109375,-0.12890625
1856,-0.984375,0.109375,-0.140625
1857,-0.9765625,0.09765625,-0.14453125
1858,-0.98828125,0.109375,-0.15234375
1859,-0.98046875,0.09765625,-0.14453125
1860,-0.9765625,0.0859375,-0.16796875
1861,-0.984375,0.09375,-0.15625
1862,-0.984375,0.09375,-0.1640625
1863,-0.97265625,0.09375,-0.16015625
1864,-0.98828125,0.10546875,-0.16796875
1865,-0.984375,0.08203125,-0.17578125
1866,-0.984375,0.08984375,-0.1796875
1867,-0.98046875,0.09375,-0.16796875
1868,-0.98046875,0.08984375,-0.171875
1869,-0.99609375,0.1171875,-0.1875
1870,-0.9921875,0.10546875,-0.16796875
1871,-0.984375,0.09765625,-0.18359375
1872,-0.984375,0.09765625,-0.15234375
1873,-0.9921875,0.1015625,-0.171875
1874,-0.99609375,0.10546875,-0.14453125
1875,-0.96484375,0.0859375,-0.1640625
1876,-0.9921875,0.08984375,-0.171875
1877,-0.984375,0.1015625,-0.15234375
1878,-0.98828125,0.08984375,-0.1640625
1879,-0.9765625,0.0859375,-0.1640625
1880,-0.98828125,0.1015625,-0.16015625
1881,-0.984375,0.0859375,-0.1640625
1882,-0.99609375,0.08984375,-0.16015625
1883,-0.97265625,0.09375,-0.17578125
1884,-0.9765625,0.0859375,-0.15234375
1885,-0.98046875,0.0859375,-0.16015625
1886,-0.98828125,0.10546875,-0.17578125
1887,-0.98828125,0.1328125,-0.18359375
1888,-0.984375,0.10546875,-0.16015625
1889,-0.984375,0.08984375,-0.16015625
1890,-0.98828125,0.10546875,-0.15625
1891,-0.98828125,0.09375,-0.17578125
1892,-0.9921875,0.09765625,-0.16796875
1893,-0.9921875,0.09765625,-0.16796875
1894,-0.98046875,0.09765625,-0.1796875
1895,-0.9765625,0.09375,-0.19140625
1896,-0.984375,0.109375,-0.17578125
1897,-0.9765625,0.09375,-0.15625
1898,-0.98828125,0.109375,-0.1796875
1899,-0.984375,0.10546875,-0.16015625
1900,-0.984375,0.08984375,-0.16796875
1901,-0.984375,0.11328125,-0.16796875
1902,-0.9921875,0.11328125,-0.1875
1903,-0.98046875,0.09375,-0.18359375
1904,-0.984375,0.1015625,-0.1953125
1905,-0.98046875,0.11328125,-0.18359375
1906,-0.97265625,0.08203125,-0.1796875
1907,-0.98046875,0.11328125,-0.16796875
1908,-0.96875,0.08984375,-0.1953125
1909,-0.99609375,0.09375,-0.20703125
1910,-0.98046875,0.09765625,-0.171875
1911,-0.984375,0.10546875,-0.16796875
1912,-0.98828125,0.10546875,-0.16796875
1913,-0.98828125,0.109375,-0.17578125
1914,-0.984375,0.10546875,-0.1640625
1915,-0.9765625,0.09765625,-0.16796875
1916,-1.00390625,0.1015625,-0.171875
1917,-0.96484375,0.09765625,-0.171875
1918,-0.984375,0.10546875,-0.15625
1919,-0.9765625,0.08984375,-0.1484375
1920,-0.98046875,0.11328125,-0.16796875
1921,-0.98828125,0.11328125,-0.1640625
1922,-0.984375,0.08984375,-0.17578125
1923,-0.98828125,0.1015625,-0.1796875
1924,-0.984375,0.10546875,-0.18359375
1925,-0.98046875,0.09765625,-0.1640625
1926,-0.97265625,0.07421875,-0.19140625
1927,-0.9765625,0.09375,-0.16015625
1928,-0.98828125,0.109375,-0.17578125
1929,-0.96484375,0.08203125,-0.171875
1930,-0.9921875,0.1015625,-0.16015625
1931,-0.98828125,0.09375,-0.17578125
1932,-0.97265625,0.1015625,-0.16796875
1933,-0.97265625,0.0859375,-0.16015625
1934,-0.9765625,0.1015625,-0.16796875
1935,-0.9765625,0.10546875,-0.16796875
1936,-0.98046875,0.10546875,-0.14453125
1937,-0.98046875,0.09375,-0.16015625
1938,-0.984375,0.09765625,-0.171875
1939,-0.98046875,0.0859375,-0.16796875
1940,-1.0,0.08984375,-0.18359375
1941,-0.98046875,0.09765625,-0.1640625
1942,-0.99609375,0.09765625,-0.16015625
1943,-0.9921875,0.1015625,-0.16015625
1944,-0.98828125,0.09375,-0.16796875
1945,-0.9921875,0.1015625,-0.14453125
1946,-0.9921875,0.10546875,-0.16796875
1947,-0.984375,0.08203125,-0.171875
1948,-0.98828125,0.09375,-0.15234375
1949,-0.98828125,0.09375,-0.171875
1950,-0.98828125,0.08984375,-0.16015625
1951,-0.99609375,0.0859375,-0.16796875
1952,-0.98828125,0.08984375,-0.15625
1953,-0.99609375,0.09765625,-0.15234375
1954,-0.9921875,0.10546875,-0.15625
1955,-0.984375,0.1015625,-0.16015625
1956,-0.98828125,0.109375,-0.14453125
1957,-0.984375,0.10546875,-0.140625
1958,-0.984375,0.08984375,-0.15625
1959,-0.984375,0.10546875,-0.140625
1960,-0.984375,0.08984375,-0.15625
1961,-0.984375,0.0859375,-0.140625
1962,-0.9765625,0.09765625,-0.16796875
1963,-0.9921875,0.08984375,-0.14453125
1964,-0.9921875,0.08984375,-0.140625
1965,-0.98828125,0.09765625,-0.140625
1966,-0.984375,0.1015625,-0.15234375
1967,-0.98828125,0.109375,-0.15625
1968,-0.97265625,0.109375,-0.14453125
1969,-0.984375,0.09765625,-0.15234375
1970,-0.98046875,0.109375,-0.140625
1971,-0.96875,0.09375,-0.1484375
1972,-0.9765625,0.09375,-0.1796875
1973,-0.9765625,0.08984375,-0.1484375
1974,-0.99609375,0.109375,-0.16015625
1975,-0.9921875,0.09765625,-0.1484375
1976,-0.99609375,0.09765625,-0.13671875
1977,-0.9921875,0.08984375,-0.15625
1978,-0.9921875,0.0859375,-0.15625
1979,-0.9921875,0.08984375,-0.13671875
1980,-0.98046875,0.1015625,-0.1484375
1981,-0.9921875,0.09375,-0.1484375
1982,-0.96875,0.09375,-0.16015625
1983,-0.99609375,0.10546875,-0.171875
1984,-0.9921875,0.09765625,-0.140625
1985,-0.98828125,0.09375,-0.14453125
1986,-0.98828125,0.09375,-0.1484375
1987,-0.98828125,0.1015625,-0.1484375
1988,-0.984375,0.09375,-0.15234375
1989,-0.9921875,0.09375,-0.13671875
1990,-0.99609375,0.1171875,-0.15234375
1991,-0.984375,0.08984375,-0.12890625
1992,-1.0,0.109375,-0.14453125
1993,-0.984375,0.08203125,-0.13671875
1994,-0.98046875,0.09375,-0.15234375
1995,-0.98828125,0.09765625,-0.13671875
1996,-0.9921875,0.09375,-0.140625
1997,-0.98828125,0.09375,-0.13671875
1998,-0.98046875,0.09375,-0.15234375
1999,-0.98046875,0.08984375,-0.140625
2000,-0.99609375,0.08203125,-0.16015625
2001,-0.9921875,0.0859375,-0.13671875
2002,-0.9765625,0.0859375,-0.15625
2003,-0.98828125,0.08984375,-0.1328125
2004,-0.99609375,0.109375,-0.1328125
2005,-0.99609375,0.10546875,-0.15625
2006,-0.9921875,0.10546875,-0.16015625
2007,-0.98828125,0.10546875,-0.13671875
2008,-0.98828125,0.10546875,-0.15234375
2009,-0.98828125,0.109375,-0.15625
2010,-0.9921875,0.1171875,-0.15625
2011,-0.99609375,0.109375,-0.13671875
2012,-0.98046875,0.08984375,-0.1484375
2013,-0.98046875,0.09765625,-0.1484375
2014,-0.984375,0.09375,-0.1328125
2015,-0.9921875,0.0859375,-0.140625
2016,-0.9921875,0.09765625,-0.13671875
2017,-0.99609375,0.08984375,-0.1484375
2018,-0.9921875,0.12109375,-0.140625
2019,-0.984375,0.09765625,-0.1328125
2020,-0.984375,0.09375,-0.140625
2021,-0.9921875,0.109375,-0.1640625
2022,-0.99609375,0.109375,-0.13671875
2023,-1.00390625,0.10546875,-0.1328125
2024,-0.9765625,0.10546875,-0.14453125
2025,-0.99609375,0.10546875,-0.1484375
2026,-0.9921875,0.109375,-0.13671875
2027,-0.98828125,0.109375,-0.140625
2028,-0.984375,0.10546875,-0.140625
2029,-0.99609375,0.10546875,-0.1328125
2030,-0.984375,0.10546875,-0.12890625
2031,-0.9921875,0.1015625,-0.140625
2032,-0.98828125,0.1015625,-0.13671875
2033,-0.9921875,0.1015625,-0.13671875
2034,-0.99609375,0.10546875,-0.140625
2035,-0.9921875,0.109375,-0.125
2036,-0.99609375,0.1171875,-0.1328125
2037,-0.9921875,0.10546875,-0.14453125
2038,-0.98828125,0.08984375,-0.13671875
2039,-0.984375,0.08984375,-0.1484375
2040,-0.98828125,0.10546875,-0.1484375
2041,-0.98828125,0.09765625,-0.140625
2042,-0.98828125,0.10546875,-0.14453125
2043,-0.98046875,0.09765625,-0.140625
2044,-0.99609375,0.09765625,-0.12890625
2045,-0.9765625,0.1015625,-0.140625
2046,-0.984375,0.11328125,-0.140625
2047,-1.0,0.109375,-0.10546875
2048,-0.984375,0.09765625,-0.1484375
2049,-0.99609375,0.109375,-0.13671875
2050,-0.984375,0.09375,-0.125
2051,-0.99609375,0.1015625,-0.140625
2052,-0.9921875,0.08984375,-0.140625
2053,-0.97265625,0.09765625,-0.12890625
2054,-0.9921875,0.109375,-0.1171875
2055,-0.98046875,0.08984375,-0.140625
2056,-0.98046875,0.08984375,-0.140625
2057,-1.00390625,0.11328125,-0.1640625
2058,-0.99609375,0.09765625,-0.13671875
2059,-0.9921875,0.10546875,-0.12890625
2060,-0.99609375,0.109375,-0.140625
2061,-0.98828125,0.09765625,-0.12890625
2062,-0.9921875,0.109375,-0.14453125
2063,-0.9921875,0.1015625,-0.1328125
2064,-0.98828125,0.109375,-0.13671875
2065,-0.99609375,0.109375,-0.12890625
2066,-0.984375,0.1015625,-0.13671875
2067,-0.98828125,0.1015625,-0.140625
2068,-0.97265625,0.10546875,-0.13671875
2069,-0.98828125,0.10546875,-0.11328125
2070,-0.984375,0.09765625,-0.125
2071,-0.984375,0.109375,-0.1328125
2072,-0.99609375,0.109375,-0.1171875
2073,-0.98828125,0.09765625,-0.125
2074,-0.98828125,0.09765625,-0.12890625
2075,-0.99609375,0.125,-0.140625
2076,-0.984375,0.10546875,-0.1328125
2077,-0.99609375,0.09375,-0.12890625
2078,-0.96484375,0.09375,-0.10546875
2079,-0.984375,0.08984375,-0.12890625
2080,-0.98828125,0.1015625,-0.13671875
2081,-0.984375,0.09765625,-0.12890625
2082,-0.98828125,0.09765625,-0.12890625
2083,-0.99609375,0.1015625,-0.12890625
2084,-0.984375,0.08984375,-0.13671875
2085,-0.98828125,0.11328125,-0.1171875
2086,-0.984375,0.109375,-0.1328125
2087,-1.0,0.1171875,-0.140625
2088,-0.99609375,0.1015625,-0.12109375
2089,-1.00390625,0.10546875,-0.1171875
2090,-0.99609375,0.12109375,-0.12109375
2091,-0.984375,0.11328125,-0.12890625
2092,-0.98828125,0.11328125,-0.125
2093,-1.0,0.10546875,-0.13671875
2094,-0.99609375,0.1015625,-0.1328125
2095,-0.9921875,0.10546875,-0.1171875
2096,-0.98046875,0.10546875,-0.1171875
2097,-0.99609375,0.109375,-0.1328125
2098,-0.98828125,0.1015625,-0.125
2099,-0.98828125,0.09375,-0.12109375
2100,-0.9765625,0.09765625,-0.1015625
2101,-0.9921875,0.09765625,-0.13671875
2102,-0.98828125,0.1015625,-0.13671875
2103,-0.9921875,0.109375,-0.1328125
2104,-0.984375,0.109375,-0.11328125
2105,-0.984375,0.09375,-0.140625
2106,-0.984375,0.08984375,-0.1328125
2107,-0.98046875,0.10546875,-0.140625
2108,-0.99609375,0.1015625,-0.12890625
2109,-0.9921875,0.10546875,-0.1328125
2110,-0.9765625,0.0859375,-0.1328125
2111,-0.99609375,0.11328125,-0.1484375
2112,-0.984375,0.1015625,-0.12109375
2113,-0.98828125,0.09765625,-0.12890625
2114,-0.98828125,0.0859375,-0.1328125
2115,-0.9921875,0.10546875,-0.12109375
2116,-0.9921875,0.10546875,-0.12890625
2117,-0.98828125,0.1015625,-0.1328125
2118,-0.9765625,0.1171875,-0.12890625
2119,-0.98046875,0.1015625,-0.1171875
2120,-0.9765625,0.09765625,-0.125
2121,-1.00390625,0.08203125,-0.12109375
2122,-0.984375,0.09375,-0.11328125
2123,-0.9921875,0.109375,-0.125
2124,-0.9921875,0.0859375,-0.140625
2125,-0.98828125,0.1015625,-0.13671875
2126,-0.9921875,0.09375,-0.12890625
2127,-1.0,0.11328125,-0.1171875
2128,-0.9921875,0.11328125,-0.12890625
2129,-0.98046875,0.11328125,-0.125
2130,-0.98828125,0.1015625,-0.12109375
2131,-1.00390625,0.10546875,-0.15234375
2132,-0.984375,0.12109375,-0.1484375
2133,-0.98828125,0.08984375,-0.12109375
2134,-0.9921875,0.11328125,-0.13671875
2135,-0.9921875,0.09765625,-0.12890625
2136,-0.99609375,0.1015625,-0.14453125
2137,-0.9921875,0.09765625,-0.12890625
2138,-0.98046875,0.09375,-0.13671875
2139,-0.984375,0.09765625,-0.1171875
2140,-0.9921875,0.10546875,-0.13671875
2141,-0.98046875,0.11328125,-0.12890625
2142,-0.98828125,0.10546875,-0.12890625
2143,-0.97265625,0.08984375,-0.140625
2144,-0.98828125,0.1015625,-0.12890625
2145,-0.98046875,0.109375,-0.12109375
2146,-0.9921875,0.1015625,-0.125
2147,-0.98828125,0.1015625,-0.1171875
2148,-0.9921875,0.1015625,-0.12890625
2149,-0.9921875,0.0859375,-0.1015625
2150,-0.99609375,0.10546875,-0.1328125
2151,-0.98828125,0.109375,-0.1328125
2152,-0.98828125,0.109375,-0.12890625
2153,-1.00390625,0.12109375,-0.1484375
2154,-0.99609375,0.10546875,-0.125
2155,-0.98828125,0.109375,-0.11328125
2156,-0.99609375,0.10546875,-0.1328125
2157,-0.99609375,0.11328125,-0.12890625
2158,-0.9921875,0.1015625,-0.125
2159,-0.9921875,0.10546875,-0.12890625
2160,-0.98046875,0.08984375,-0.11328125
2161,-0.984375,0.0859375,-0.12890625
2162,-0.98046875,0.09375,-0.12890625
2163,-0.98828125,0.1015625,-0.12890625
2164,-0.98828125,0.09765625,-0.140625
2165,-0.9921875,0.10546875,-0.125
2166,-0.984375,0.08984375,-0.125
2167,-0.99609375,0.109375,-0.125
2168,-0.99609375,0.109375,-0.13671875
2169,-0.984375,0.1015625,-0.1484375
2170,-0.9921875,0.11328125,-0.1328125
2171,-0.98046875,0.10546875,-0.140625
2172,-0.984375,0.09375,-0.12890625
2173,-0.99609375,0.12109375,-0.12890625
2174,-0.984375,0.10546875,-0.13671875
2175,-1.01171875,0.09765625,-0.125
2176,-0.9921875,0.09375,-0.125
2177,-0.99609375,0.109375,-0.125
2178,-0.984375,0.1015625,-0.1171875
2179,-0.9921875,0.10546875,-0.12109375
2180,-0.99609375,0.11328125,-0.109375
2181,-0.98828125,0.09765625,-0.10546875
2182,-1.0,0.09765625,-0.13671875
2183,-0.98046875,0.09765625,-0.11328125
2184,-0.99609375,0.109375,-0.125
2185,-0.96875,0.1015625,-0.12890625
2186,-0.98828125,0.1015625,-0.10546875
2187,-0.98828125,0.10546875,-0.125
2188,-0.984375,0.10546875,-0.125
2189,-0.9921875,0.11328125,-0.1328125
2190,-0.98828125,0.1015625,-0.125
2191,-0.9921875,0.10546875,-0.12890625
2192,-0.98828125,0.11328125,-0.140625
2193,-0.9921875,0.10546875,-0.1171875
2194,-0.99609375,0.10546875,-0.1328125
2195,-1.00390625,0.12109375,-0.125
2196,-0.984375,0.1015625,-0.14453125
2197,-0.9765625,0.09765625,-0.125
2198,-0.98828125,0.09765625,-0.140625
2199,-0.9921875,0.1171875,-0.125
2200,-0.9921875,0.09765625,-0.1328125
2201,-0.984375,0.1015625,-0.12890625
2202,-0.99609375,0.109375,-0.140625
2203,-0.98046875,0.09765625,-0.109375
2204,-0.98828125,0.11328125,-0.125
2205,-0.98046875,0.109375,-0.12890625
2206,-0.9765625,0.10546875,-0.125
2207,-0.98828125,0.09375,-0.11328125
2208,-0.98828125,0.10546875,-0.09765625
2209,-0.9765625,0.109375,-0.1328125
2210,-0.98828125,0.08984375,-0.13671875
2211,-0.9921875,0.12890625,-0.14453125
2212,-1.0,0.109375,-0.13671875
2213,-0.9765625,0.0859375,-0.11328125
2214,-0.98828125,0.1015625,-0.109375
2215,-1.0,0.125,-0.0859375
2216,-0.984375,0.140625,-0.1484375
2217,-1.0,0.1015625,-0.13671875
2218,-0.984375,0.08984375,-0.109375
2219,-0.984375,0.11328125,-0.109375
2220,-0.984375,0.109375,-0.125
2221,-0.99609375,0.15234375,-0.1328125
2222,-0.98046875,0.09765625,-0.1171875
2223,-0.99609375,0.1015625,-0.13671875
2224,-0.9921875,0.11328125,-0.0859375
2225,-0.9921875,0.0859375,-0.14453125
2226,-0.96875,0.09765625,-0.11328125
2227,-0.99609375,0.10546875,-0.12109375
2228,-0.98046875,0.09375,-0.125
2229,-0.9921875,0.0859375,-0.1015625
2230,-0.96875,0.1015625,-0.1171875
2231,-0.984375,0.1015625,-0.11328125
2232,-1.0,0.1015625,-0.1015625
2233,-0.9765625,0.1015625,-0.1171875
2234,-0.9921875,0.12109375,-0.1328125
2235,-0.98828125,0.1171875,-0.1328125
2236,-1.0,0.09765625,-0.10546875
2237,-0.98046875,0.10546875,-0.1171875
2238,-0.984375,0.09765625,-0.1015625
2239,-0.98046875,0.09375,-0.109375
2240,-1.0,0.12890625,-0.140625
2241,-0.99609375,0.1171875,-0.13671875
2242,-0.98828125,0.09375,-0.125
2243,-0.98828125,0.08984375,-0.12890625
2244,-0.984375,0.1171875,-0.125
2245,-0.9921875,0.09765625,-0.1171875
2246,-0.99609375,0.1171875,-0.12109375
2247,-0.9921875,0.11328125,-0.125
2248,-0.98828125,0.1171875,-0.12890625
2249,-0.99609375,0.1015625,-0.1171875
2250,-0.984375,0.1171875,-0.1015625
2251,-0.984375,0.109375,-0.1015625
2252,-0.98828125,0.09765625,-0.1328125
2253,-0.9921875,0.09765625,-0.12890625
2254,-0.98046875,0.08203125,-0.13671875
2255,-0.984375,0.10546875,-0.109375
2256,-1.0,0.11328125,-0.1171875
2257,-0.98046875,0.1171875,-0.10546875
2258,-0.9921875,0.09765625,-0.11328125
2259,-0.9921875,0.1171875,-0.109375
2260,-1.0,0.11328125,-0.109375
2261,-0.99609375,0.109375,-0.11328125
2262,-0.9921875,0.10546875,-0.12109375
2263,-0.98828125,0.11328125,-0.13671875
2264,-0.9921875,0.09765625,-0.125
2265,-0.9921875,0.1015625,-0.1171875
2266,-0.98828125,0.1015625,-0.125
2267,-1.0,0.125,-0.13671875
2268,-0.9921875,0.109375,-0.1171875
2269,-0.984375,0.08203125,-0.11328125
2270,-0.9921875,0.109375,-0.125
2271,-0.95703125,0.09765625,-0.125
2272,-0.9921875,0.11328125,-0.1171875
2273,-0.99609375,0.109375,-0.125
2274,-0.99609375,0.109375,-0.1328125
2275,-0.9921875,0.10546875,-0.12890625
2276,-0.9921875,0.10546875,-0.1328125
2277,-0.99609375,0.08984375,-0.11328125
2278,-0.984375,0.1015625,-0.12890625
2279,-0.9921875,0.1015625,-0.125
2280,-0.9921875,0.0859375,-0.12109375
2281,-0.99609375,0.109375,-0.1171875
2282,-0.98046875,0.1015625,-0.11328125
2283,-1.00390625,0.09765625,-0.1171875
2284,-0.98828125,0.10546875,-0.12109375
2285,-0.98046875,0.10546875,-0.11328125
2286,-0.98828125,0.1015625,-0.09375
2287,-1.0,0.10546875,-0.125
2288,-0.98828125,0.09375,-0.109375
2289,-0.98046875,0.10546875,-0.109375
2290,-0.99609375,0.11328125,-0.12890625
2291,-0.98828125,0.09765625,-0.12890625
2292,-1.0,0.1015625,-0.1328125
2293,-0.9921875,0.09375,-0.11328125
2294,-0.99609375,0.109375,-0.1328125
2295,-0.984375,0.1015625,-0.1171875
2296,-0.9921875,0.109375,-0.13671875
2297,-0.984375,0.11328125,-0.11328125
2298,-0.98828125,0.1015625,-0.14453125
2299,-0.99609375,0.11328125,-0.125
2300,-1.0,0.109375,-0.1171875
2301,-1.0,0.109375,-0.109375
2302,-0.9921875,0.10546875,-0.1328125
2303,-0.984375,0.09765625,-0.109375
2304,-0.99609375,0.09765625,-0.12890625
2305,-0.99609375,0.09375,-0.1171875
2306,-1.00390625,0.109375,-0.12890625
2307,-1.0,0.1015625,-0.125
2308,-0.984375,0.0859375,-0.13671875
2309,-0.9921875,0.109375,-0.14453125
2310,-0.984375,0.10546875,-0.1484375
2311,-0.99609375,0.1171875,-0.14453125
2312,-0.984375,0.10546875,-0.1015625
2313,-0.98828125,0.0859375,-0.11328125
2314,-1.0,0.109375,-0.12109375
2315,-0.99609375,0.10546875,-0.12109375
2316,-0.984375,0.09375,-0.12890625
2317,-0.9921875,0.10546875,-0.12109375
2318,-0.9921875,0.109375,-0.1171875
2319,-0.99609375,0.10546875,-0.109375
2320,-0.99609375,0.09765625,-0.12890625
2321,-0.9921875,0.1015625,-0.1328125
2322,-0.9921875,0.08984375,-0.12109375
2323,-0.98828125,0.09375,-0.11328125
2324,-0.96875,0.06640625,-0.10546875
2325,-0.984375,0.09375,-0.11328125
2326,-0.98828125,0.09375,-0.125
2327,-0.98828125,0.08203125,-0.109375
2328,-0.97265625,0.08984375,-0.1171875
2329,-0.984375,0.09375,-0.11328125
2330,-0.984375,0.09765625,-0.1171875
2331,-0.984375,0.09375,-0.11328125
2332,-0.98828125,0.08984375,-0.140625
2333,-1.0,0.09765625,-0.1484375
2334,-0.98828125,0.09375,-0.125
2335,-0.984375,0.1015625,-0.1328125
2336,-0.98828125,0.10546875,-0.12890625
2337,-0.98046875,0.1015625,-0.12890625
2338,-0.98046875,0.10546875,-0.1171875
2339,-0.9921875,0.109375,-0.1328125
2340,-0.98046875,0.1015625,-0.1328125
2341,-0.98828125,0.09765625,-0.140625
2342,-0.98828125,0.1015625,-0.140625
2343,-0.99609375,0.109375,-0.12890625
2344,-0.97265625,0.08203125,-0.12109375
2345,-1.01171875,0.08984375,-0.1328125
2346,-0.984375,0.09375,-0.125
2347,-0.98828125,0.09765625,-0.125
2348,-0.984375,0.09375,-0.14453125
2349,-0.9921875,0.109375,-0.1328125
2350,-0.9921875,0.1015625,-0.13671875
2351,-0.9921875,0.1015625,-0.14453125
2352,-0.9921875,0.09375,-0.14453125
2353,-0.98828125,0.10546875,-0.15234375
2354,-0.9921875,0.0859375,-0.1328125
2355,-0.99609375,0.1171875,-0.12109375
2356,-0.98828125,0.09765625,-0.1484375
2357,-0.9921875,0.09765625,-0.1484375
2358,-0.99609375,0.109375,-0.125
2359,-0.98828125,0.10546875,-0.1328125
2360,-0.99609375,0.09765625,-0.12109375
2361,-0.984375,0.09765625,-0.1328125
2362,-0.98828125,0.10546875,-0.14453125
2363,-0.98828125,0.09765625,-0.140625
2364,-0.96875,0.078125,-0.1484375
2365,-1.0,0.109375,-0.1484375
2366,-0.98046875,0.09375,-0.1484375
2367,-0.9765625,0.09765625,-0.1328125
2368,-0.99609375,0.09765625,-0.125
2369,-0.984375,0.09375,-0.1328125
2370,-0.98046875,0.09765625,-0.14453125
2371,-0.99609375,0.10546875,-0.15625
2372,-0.984375,0.09765625,-0.15625
2373,-0.97265625,0.09765625,-0.140625
2374,-0.9921875,0.09765625,-0.1640625
2375,-0.9765625,0.09765625,-0.15625
2376,-0.9765625,0.09765625,-0.15625
2377,-0.98046875,0.09375,-0.11328125
2378,-0.98046875,0.09375,-0.15234375
2379,-0.98828125,0.09765625,-0.15234375
2380,-0.9765625,0.08984375,-0.14453125
2381,-0.98828125,0.08984375,-0.1484375
2382,-0.98828125,0.109375,-0.15234375
2383,-0.9765625,0.08984375,-0.15625
2384,-0.9765625,0.1015625,-0.12890625
2385,-0.984375,0.0859375,-0.140625
2386,-0.9921875,0.11328125,-0.13671875
2387,-0.984375,0.1015625,-0.140625
2388,-0.9921875,0.09375,-0.140625
2389,-0.98828125,0.09375,-0.14453125
2390,-0.98046875,0.09765625,-0.15625
2391,-0.984375,0.09375,-0.1640625
2392,-0.99609375,0.09765625,-0.14453125
2393,-0.98828125,0.09375,-0.14453125
2394,-0.984375,0.08984375,-0.14453125
2395,-0.98046875,0.09765625,-0.12890625
2396,-0.98046875,0.09765625,-0.171875
2397,-0.9921875,0.08203125,-0.15625
2398,-0.98828125,0.1015625,-0.171875
2399,-0.98828125,0.109375,-0.15625
2400,-0.98828125,0.1015625,-0.14453125
2401,-0.984375,0.09375,-0.15625
2402,-0.984375,0.08984375,-0.15625
2403,-0.98828125,0.1015625,-0.16015625
2404,-0.98046875,0.10546875,-0.15625
2405,-0.99609375,0.1171875,-0.14453125
2406,-0.9765625,0.08984375,-0.16796875
2407,-0.99609375,0.109375,-0.1484375
2408,-0.984375,0.08984375,-0.16015625
2409,-1.0,0.11328125,-0.16796875
2410,-0.984375,0.10546875,-0.15234375
2411,-0.98046875,0.09765625,-0.14453125
2412,-0.98046875,0.09765625,-0.15625
2413,-0.984375,0.08984375,-0.15234375
2414,-0.9765625,0.09765625,-0.1484375
2415,-0.984375,0.08984375,-0.1484375
2416,-0.984375,0.09765625,-0.125
2417,-0.99609375,0.09765625,-0.1484375
2418,-0.984375,0.09765625,-0.14453125
2419,-0.9921875,0.109375,-0.15625
2420,-0.984375,0.1015625,-0.1484375
2421,-0.99609375,0.09765625,-0.15234375
2422,-0.9765625,0.09765625,-0.1484375
2423,-0.98828125,0.09375,-0.16015625
2424,-0.99609375,0.09765625,-0.14453125
2425,-0.9921875,0.109375,-0.12890625
2426,-0.98828125,0.09765625,-0.15234375
2427,-0.98828125,0.1015625,-0.1484375
2428,-0.98828125,0.10546875,-0.171875
2429,-0.99609375,0.1015625,-0.1484375
2430,-0.9921875,0.10546875,-0.140625
2431,-0.98828125,0.078125,-0.14453125
2432,-0.984375,0.09375,-0.15234375
2433,-0.984375,0.09765625,-0.14453125
2434,-0.98828125,0.09375,-0.1484375
2435,-0.98828125,0.11328125,-0.14453125
2436,-0.98046875,0.1015625,-0.15234375
2437,-0.9921875,0.08984375,-0.1796875
2438,-0.98828125,0.1171875,-0.15625
2439,-0.984375,0.09765625,-0.15234375
2440,-0.99609375,0.1171875,-0.16796875
2441,-0.96875,0.11328125,-0.11328125
2442,-0.9921875,0.11328125,-0.16015625
2443,-0.98828125,0.1015625,-0.1640625
2444,-0.98828125,0.08984375,-0.16015625
2445,-0.98828125,0.09765625,-0.15234375
2446,-0.9921875,0.09765625,-0.15625
2447,-0.9921875,0.08984375,-0.140625
2448,-0.98828125,0.1015625,-0.14453125
2449,-0.984375,0.09375,-0.1640625
2450,-0.98828125,0.09375,-0.14453125
2451,-0.98046875,0.10546875,-0.140625
2452,-0.99609375,0.09765625,-0.15234375
2453,-0.9921875,0.0859375,-0.15234375
2454,-0.98046875,0.09765625,-0.1484375
2455,-0.98828125,0.09375,-0.15234375
2456,-0.98046875,0.09765625,-0.15625
2457,-0.984375,0.1015625,-0.13671875
2458,-0.9921875,0.08984375,-0.15234375
2459,-0.98828125,0.09375,-0.140625
2460,-0.98046875,0.078125,-0.16015625
2461,-1.00390625,0.10546875,-0.14453125
2462,-0.99609375,0.08203125,-0.12890625
2463,-0.984375,0.0625,-0.18359375
2464,-0.984375,0.0859375,-0.13671875
2465,-0.98828125,0.09765625,-0.15234375
2466,-0.9921875,0.09765625,-0.15625
2467,-0.9921875,0.09375,-0.15234375
2468,-0.9921875,0.1015625,-0.15234375
2469,-0.9921875,0.109375,-0.1640625
2470,-0.984375,0.11328125,-0.16015625
2471,-0.9765625,0.08984375,-0.1484375
2472,-0.9921875,0.1015625,-0.17578125
2473,-1.0078125,0.0859375,-0.15625
2474,-0.98046875,0.09375,-0.1484375
2475,-0.984375,0.08984375,-0.1484375
2476,-0.96875,0.08203125,-0.13671875
2477,-0.98828125,0.1015625,-0.13671875
2478,-0.98828125,0.0859375,-0.140625
2479,-0.984375,0.08984375,-0.12890625
2480,-0.984375,0.0859375,-0.125
2481,-0.98828125,0.08984375,-0.15234375
2482,-0.97265625,0.09765625,-0.125
2483,-0.9921875,0.09765625,-0.1484375
2484,-0.9921875,0.13671875,-0.16015625
2485,-0.98828125,0.09375,-0.14453125
2486,-0.984375,0.109375,-0.140625
2487,-0.98046875,0.09765625,-0.15234375
2488,-0.98828125,0.1015625,-0.15234375
2489,-0.98828125,0.09765625,-0.15234375
2490,-0.98828125,0.1015625,-0.1328125
2491,-0.9765625,0.1015625,-0.140625
2492,-0.98046875,0.08984375,-0.14453125
2493,-0.9921875,0.08984375,-0.1484375
2494,-0.984375,0.09765625,-0.1484375
2495,-0.96875,0.0859375,-0.13671875
2496,-0.9765625,0.10546875,-0.140625
2497,-0.98828125,0.10546875,-0.140625
2498,-0.9921875,0.109375,-0.14453125
2499,-0.984375,0.1015625,-0.13671875
2500,-0.98046875,0.1015625,-0.15625
2501,-0.99609375,0.10546875,-0.16015625
2502,-0.98828125,0.1171875,-0.15234375
2503,-0.98828125,0.0859375,-0.1328125
2504,-0.98828125,0.09375,-0.125
2505,-0.984375,0.11328125,-0.15234375
2506,-0.99609375,0.10546875,-0.13671875
2507,-0.99609375,0.1015625,-0.1484375
2508,-0.984375,0.09765625,-0.125
2509,-0.99609375,0.10546875,-0.1484375
2510,-0.98828125,0.109375,-0.13671875
2511,-0.9921875,0.09375,-0.13671875
2512,-0.984375,0.09765625,-0.1484375
2513,-0.98828125,0.10546875,-0.14453125
2514,-0.9765625,0.09375,-0.1171875
2515,-0.984375,0.09765625,-0.12890625
2516,-0.984375,0.0859375,-0.15625
2517,-0.9765625,0.09765625,-0.14453125
2518,-0.984375,0.08984375,-0.14453125
2519,-0.96875,0.09765625,-0.15625
2520,-0.98828125,0.09765625,-0.1484375
2521,-0.98828125,0.10546875,-0.140625
2522,-0.984375,0.09765625,-0.15234375
2523,-0.98828125,0.09765625,-0.12890625
2524,-0.984375,0.08984375,-0.1328125
2525,-0.9921875,0.09765625,-0.140625
2526,-0.9765625,0.09375,-0.15234375
2527,-0.99609375,0.13671875,-0.14453125
2528,-1.0,0.09765625,-0.15234375
2529,-0.9921875,0.09765625,-0.12890625
2530,-0.98046875,0.09765625,-0.13671875
2531,-0.99609375,0.09375,-0.1484375
2532,-0.98828125,0.09375,-0.1328125
2533,-0.98828125,0.0859375,-0.125
2534,-0.984375,0.10546875,-0.13671875
2535,-0.984375,0.08984375,-0.125
2536,-0.98046875,0.109375,-0.14453125
2537,-0.984375,0.09765625,-0.12890625
2538,-0.99609375,0.1171875,-0.12890625
2539,-0.984375,0.10546875,-0.1328125
2540,-0.9921875,0.09765625,-0.1171875
2541,-0.9921875,0.1015625,-0.13671875
2542,-0.9921875,0.09375,-0.12890625
2543,-0.9921875,0.1015625,-0.14453125
2544,-0.984375,0.09375,-0.13671875
2545,-0.98828125,0.109375,-0.12109375
2546,-0.98046875,0.08984375,-0.1328125
2547,-0.9921875,0.109375,-0.140625
2548,-1.0,0.109375,-0.12109375
2549,-0.984375,0.08984375,-0.12890625
2550,-0.99609375,0.10546875,-0.1171875
2551,-0.9921875,0.09375,-0.10546875
2552,-0.9921875,0.09765625,-0.11328125
2553,-0.984375,0.10546875,-0.125
2554,-0.98828125,0.09765625,-0.12109375
2555,-0.9921875,0.109375,-0.11328125
2556,-0.98828125,0.1015625,-0.12890625
2557,-0.98046875,0.1015625,-0.12109375
2558,-1.00390625,0.09375,-0.12890625
2559,-0.98046875,0.1015625,-0.15625
2560,-0.984375,0.09375,-0.125
2561,-0.984375,0.10546875,-0.12890625
2562,-0.98828125,0.09765625,-0.125
2563,-0.98828125,0.10546875,-0.1328125
2564,-0.98046875,0.1015625,-0.12109375
2565,-0.98046875,0.1015625,-0.1171875
2566,-0.984375,0.12109375,-0.1328125
2567,-0.9921875,0.09375,-0.11328125
2568,-0.98828125,0.10546875,-0.140625
2569,-0.984375,0.10546875,-0.11328125
2570,-0.99609375,0.08984375,-0.14453125
2571,-0.984375,0.0859375,-0.125
2572,-0.98828125,0.09765625,-0.125
2573,-0.984375,0.09765625,-0.12890625
2574,-0.98828125,0.0859375,-0.12890625
2575,-0.99609375,0.1015625,-0.1328125
2576,-0.99609375,0.09375,-0.1328125
2577,-0.984375,0.10546875,-0.1171875
2578,-0.98046875,0.09375,-0.125
2579,-0.98046875,0.1015625,-0.1171875
2580,-1.0,0.1015625,-0.12890625
2581,-0.9921875,0.1015625,-0.140625
2582,-0.9921875,0.10546875,-0.13671875
2583,-0.98828125,0.109375,-0.12890625
2584,-0.9921875,0.09765625,-0.12109375
2585,-0.9921875,0.1015625,-0.12890625
2586,-0.98828125,0.10546875,-0.1328125
2587,-0.9921875,0.10546875,-0.1171875
2588,-0.9765625,0.09765625,-0.12890625
2589,-0.99609375,0.08984375,-0.13671875
2590,-0.9765625,0.09375,-0.13671875
2591,-0.9921875,0.08984375,-0.12890625
2592,-0.99609375,0.1015625,-0.125
2593,-0.984375,0.09765625,-0.125
2594,-0.98828125,0.09765625,-0.12109375
2595,-0.9921875,0.1015625,-0.125
2596,-0.9921875,0.10546875,-0.12109375
2597,-0.984375,0.09375,-0.1171875
2598,-0.9765625,0.09375,-0.1328125
2599,-0.9921875,0.109375,-0.109375
2600,-0.98046875,0.125,-0.13671875
2601,-0.95703125,0.0859375,-0.1328125
2602,-0.9921875,0.1015625,-0.1171875
2603,-0.98828125,0.1015625,-0.12890625
2604,-0.9765625,0.09765625,-0.12109375
2605,-0.9765625,0.1015625,-0.12109375
2606,-0.9921875,0.109375,-0.1171875
2607,-0.98828125,0.09765625,-0.1171875
2608,-0.9921875,0.11328125,-0.11328125
2609,-0.98828125,0.1015625,-0.11328125
2610,-1.0,0.109375,-0.12109375
2611,-0.9765625,0.10546875,-0.125
2612,-1.0,0.0859375,-0.1328125
2613,-0.98046875,0.1015625,-0.11328125
2614,-0.99609375,0.109375,-0.13671875
2615,-0.98828125,0.10546875,-0.12109375
2616,-1.0,0.10546875,-0.1171875
2617,-0.98828125,0.08984375,-0.109375
2618,-1.0,0.09375,-0.12109375
2619,-0.98046875,0.1015625,-0.109375
2620,-0.98828125,0.1015625,-0.10546875
2621,-0.984375,0.07421875,-0.12109375
2622,-0.97265625,0.109375,-0.12109375
2623,-1.01171875,0.1015625,-0.109375
2624,-0.99609375,0.09765625,-0.109375
2625,-1.00390625,0.09765625,-0.12890625
2626,-1.0,0.11328125,-0.12109375
2627,-0.9921875,0.1015625,-0.1171875
2628,-0.98828125,0.09375,-0.125
2629,-0.99609375,0.10546875,-0.140625
2630,-0.98828125,0.10546875,-0.11328125
2631,-0.98828125,0.08984375,-0.125
2632,-0.98046875,0.0859375,-0.109375
2633,-0.98828125,0.09765625,-0.11328125
2634,-1.0,0.09765625,-0.125
2635,-0.9921875,0.1015625,-0.13671875
2636,-0.99609375,0.08984375,-0.125
2637,-0.98828125,0.1171875,-0.12109375
2638,-0.99609375,0.08984375,-0.1015625
2639,-0.9921875,0.1015625,-0.125
2640,-0.98828125,0.09375,-0.09765625
2641,-0.99609375,0.109375,-0.1171875
2642,-0.9921875,0.1015625,-0.13671875
2643,-0.98828125,0.1015625,-0.125
2644,-0.98046875,0.0625,-0.14453125
2645,-0.9921875,0.11328125,-0.125
2646,-0.9765625,0.1015625,-0.125
2647,-0.9921875,0.10546875,-0.1171875
2648,-0.9921875,0.1015625,-0.1171875
2649,-0.9921875,0.10546875,-0.11328125
2650,-0.984375,0.109375,-0.109375
2651,-0.98828125,0.08984375,-0.1171875
2652,-0.9765625,0.109375,-0.1015625
2653,-0.98828125,0.1015625,-0.12109375
2654,-0.9765625,0.09375,-0.10546875
2655,-1.0,0.09765625,-0.109375
2656,-0.9921875,0.10546875,-0.11328125
2657,-0.984375,0.09765625,-0.1328125
2658,-0.99609375,0.1015625,-0.109375
2659,-1.0,0.1015625,-0.12890625
2660,-0.99609375,0.1015625,-0.1171875
2661,-0.99609375,0.1015625,-0.140625
2662,-0.984375,0.1015625,-0.125
2663,-0.9921875,0.1015625,-0.12890625
2664,-0.9921875,0.09765625,-0.1171875
2665,-0.98046875,0.09375,-0.1171875
2666,-0.98828125,0.10546875,-0.11328125
2667,-0.9921875,0.08984375,-0.12109375
2668,-0.98828125,0.10546875,-0.11328125
2669,-0.9921875,0.09375,-0.1015625
2670,-0.98828125,0.109375,-0.12109375
2671,-0.9921875,0.10546875,-0.109375
2672,-0.9921875,0.1015625,-0.1015625
2673,-0.9921875,0.10546875,-0.12109375
2674,-0.98828125,0.109375,-0.10546875
2675,-0.9921875,0.10546875,-0.109375
2676,-0.99609375,0.11328125,-0.1328125
2677,-0.984375,0.10546875,-0.1171875
2678,-0.9921875,0.11328125,-0.11328125
2679,-0.984375,0.1015625,-0.09765625
2680,-0.98046875,0.09765625,-0.1171875
2681,-0.99609375,0.10546875,-0.1171875
2682,-0.99609375,0.1015625,-0.10546875
2683,-0.9921875,0.11328125,-0.10546875
2684,-1.0,0.11328125,-0.1171875
2685,-0.98046875,0.09375,-0.11328125
2686,-0.98046875,0.1015625,-0.10546875
2687,-0.99609375,0.11328125,-0.1015625
2688,-0.98046875,0.1015625,-0.109375
2689,-0.99609375,0.10546875,-0.10546875
2690,-1.0,0.109375,-0.1171875
2691,-0.98828125,0.1015625,-0.12109375
2692,-0.98828125,0.09765625,-0.1171875
2693,-0.984375,0.09375,-0.1015625
2694,-0.99609375,0.125,-0.109375
2695,-0.9921875,0.09765625,-0.109375
2696,-0.984375,0.11328125,-0.09765625
2697,-0.984375,0.09765625,-0.0625
2698,-0.984375,0.1171875,-0.109375
2699,-0.9921875,0.1015625,-0.11328125
2700,-0.98828125,0.1171875,-0.10546875
2701,-0.99609375,0.1015625,-0.109375
2702,-0.9765625,0.09765625,-0.109375
2703,-0.99609375,0.109375,-0.1015625
2704,-0.9921875,0.1015625,-0.125
2705,-0.98828125,0.1015625,-0.1015625
2706,-1.0,0.109375,-0.10546875
2707,-0.9765625,0.09765625,-0.1171875
2708,-0.99609375,0.0859375,-0.12109375
2709,-0.9921875,0.1015625,-0.09765625
2710,-0.9921875,0.09765625,-0.109375
2711,-0.9921875,0.10546875,-0.109375
2712,-0.9921875,0.10546875,-0.109375
2713,-0.9921875,0.09765625,-0.10546875
2714,-0.9921875,0.09765625,-0.10546875
2715,-0.9921875,0.0859375,-0.12109375
2716,-0.98046875,0.09765625,-0.1015625
2717,-0.9921875,0.09765625,-0.1171875
2718,-0.98828125,0.1015625,-0.1015625
2719,-1.0,0.1015625,-0.12109375
2720,-0.9921875,0.11328125,-0.11328125
2721,-0.98828125,0.09375,-0.1015625
2722,-1.0,0.109375,-0.1171875
2723,-0.98046875,0.109375,-0.11328125
2724,-0.99609375,0.10546875,-0.11328125
2725,-0.99609375,0.12109375,-0.10546875
2726,-0.9921875,0.109375,-0.125
2727,-0.98046875,0.09765625,-0.09765625
2728,-1.0,0.109375,-0.1171875
2729,-0.99609375,0.1015625,-0.1171875
2730,-0.9921875,0.09765625,-0.11328125
2731,-0.9921875,0.109375,-0.125
2732,-0.99609375,0.11328125,-0.125
2733,-0.99609375,0.109375,-0.10546875
2734,-0.99609375,0.1015625,-0.09765625
2735,-0.98828125,0.1015625,-0.09765625
2736,-0.98828125,0.1015625,-0.109375
2737,-0.99609375,0.12109375,-0.1171875
2738,-0.984375,0.0859375,-0.10546875
2739,-0.98828125,0.12109375,-0.1171875
2740,-0.99609375,0.08203125,-0.1015625
2741,-0.9921875,0.08984375,-0.11328125
2742,-0.98828125,0.10546875,-0.10546875
2743,-0.984375,0.09375,-0.10546875
2744,-0.984375,0.09765625,-0.1171875
2745,-0.984375,0.1015625,-0.11328125
2746,-0.99609375,0.11328125,-0.11328125
2747,-0.9921875,0.09375,-0.1015625
2748,-0.98828125,0.09765625,-0.1015625
2749,-0.984375,0.11328125,-0.12109375
2750,-0.98828125,0.10546875,-0.09765625
2751,-1.0078125,0.09765625,-0.1171875
2752,-0.9921875,0.1171875,-0.1171875
2753,-0.98046875,0.1015625,-0.10546875
2754,-0.9921875,0.10546875,-0.109375
2755,-0.98828125,0.109375,-0.125
2756,-0.98828125,0.1015625,-0.12109375
2757,-1.00390625,0.11328125,-0.11328125
2758,-0.9765625,0.10546875,-0.1328125
2759,-0.9921875,0.09765625,-0.11328125
2760,-0.984375,0.1015625,-0.10546875
2761,-0.98828125,0.09765625,-0.12890625
2762,-0.99609375,0.1015625,-0.109375
2763,-0.9921875,0.11328125,-0.1171875
2764,-0.984375,0.11328125,-0.1171875
2765,-0.984375,0.09765625,-0.11328125
2766,-0.9921875,0.11328125,-0.12109375
2767,-0.98828125,0.109375,-0.109375
2768,-0.98828125,0.08984375,-0.10546875
2769,-0.96875,0.08984375,-0.109375
2770,-0.98828125,0.09765625,-0.109375
2771,-0.984375,0.10546875,-0.1015625
2772,-0.98828125,0.11328125,-0.11328125
2773,-0.984375,0.12890625,-0.125
2774,-1.0,0.10546875,-0.1171875
2775,-0.9921875,0.09375,-0.109375
2776,-0.984375,0.10546875,-0.125
2777,-0.9921875,0.109375,-0.12109375
2778,-0.98828125,0.1015625,-0.109375
2779,-1.00390625,0.09765625,-0.1171875
2780,-0.99609375,0.10546875,-0.09765625
2781,-0.98046875,0.10546875,-0.10546875
2782,-0.9921875,0.109375,-0.109375
2783,-0.98828125,0.09765625,-0.12109375
2784,-0.98828125,0.10546875,-0.11328125
2785,-0.9921875,0.1015625,-0.125
2786,-0.99609375,0.109375,-0.109375
2787,-0.9921875,0.10546875,-0.1015625
2788,-0.9921875,0.1015625,-0.125
2789,-0.98828125,0.109375,-0.125
2790,-0.98828125,0.09375,-0.1171875
2791,-0.98828125,0.109375,-0.11328125
2792,-1.0,0.109375,-0.11328125
2793,-0.984375,0.07421875,-0.12109375
2794,-0.984375,0.10546875,-0.11328125
2795,-0.9921875,0.1015625,-0.109375
2796,-0.99609375,0.1015625,-0.125
2797,-0.98828125,0.11328125,-0.12109375
2798,-0.98828125,0.11328125,-0.125
2799,-0.9921875,0.10546875,-0.1171875
2800,-0.99609375,0.11328125,-0.12109375
2801,-0.98828125,0.10546875,-0.125
2802,-0.984375,0.1015625,-0.125
2803,-0.99609375,0.10546875,-0.14453125
2804,-1.0,0.1015625,-0.12890625
2805,-0.9921875,0.1171875,-0.12890625
2806,-0.9921875,0.1015625,-0.1328125
2807,-0.984375,0.08984375,-0.12109375
2808,-0.98828125,0.08984375,-0.1171875
2809,-0.98828125,0.08984375,-0.125
2810,-0.99609375,0.109375,-0.12109375
2811,-0.9921875,0.09765625,-0.140625
2812,-0.98046875,0.1015625,-0.12109375
2813,-0.99609375,0.1015625,-0.12109375
2814,-0.98828125,0.109375,-0.12890625
2815,-0.99609375,0.109375,-0.1484375
2816,-0.984375,0.11328125,-0.1171875
2817,-1.0,0.11328125,-0.12890625
2818,-0.9921875,0.109375,-0.1328125
2819,-0.9921875,0.1171875,-0.1328125
2820,-0.98046875,0.10546875,-0.1171875
2821,-0.9921875,0.1171875,-0.12109375
2822,-0.98828125,0.09765625,-0.10546875
2823,-0.9921875,0.1171875,-0.12109375
2824,-0.984375,0.125,-0.12890625
2825,-0.99609375,0.1015625,-0.13671875
2826,-0.984375,0.1015625,-0.125
2827,-0.98828125,0.1015625,-0.125
2828,-0.99609375,0.10546875,-0.12890625
2829,-0.98828125,0.109375,-0.1328125
2830,-0.98828125,0.109375,-0.13671875
2831,-0.9921875,0.09375,-0.140625
2832,-0.984375,0.1171875,-0.125
2833,-0.9921875,0.109375,-0.12890625
2834,-0.98828125,0.109375,-0.14453125
2835,-0.99609375,0.09765625,-0.1328125
2836,-0.98046875,0.12109375,-0.15625
2837,-0.99609375,0.10546875,-0.1640625
2838,-0.97265625,0.09765625,-0.13671875
2839,-0.984375,0.11328125,-0.1328125
2840,-0.98828125,0.1015625,-0.12890625
2841,-0.98046875,0.109375,-0.12109375
2842,-0.984375,0.10546875,-0.12890625
2843,-0.9765625,0.09375,-0.14453125
2844,-0.9765625,0.09765625,-0.140625
2845,-0.99609375,0.10546875,-0.12890625
2846,-0.98828125,0.109375,-0.12890625
2847,-0.9609375,0.109375,-0.1640625
2848,-0.9921875,0.10546875,-0.12890625
2849,-1.0,0.109375,-0.14453125
2850,-0.98046875,0.1015625,-0.140625
2851,-0.9921875,0.10546875,-0.125
2852,-0.9921875,0.09375,-0.14453125
2853,-1.00390625,0.1171875,-0.16015625
2854,-1.0,0.1171875,-0.14453125
2855,-0.99609375,0.08984375,-0.12890625
2856,-1.0,0.09375,-0.15234375
2857,-1.01171875,0.09765625,-0.1640625
2858,-1.0,0.08203125,-0.14453125
2859,-1.01171875,0.08203125,-0.1484375
2860,-0.99609375,0.08984375,-0.16015625
2861,-0.984375,0.0859375,-0.1484375
2862,-0.98828125,0.10546875,-0.13671875
2863,-0.98828125,0.109375,-0.14453125
2864,-0.9765625,0.1015625,-0.12890625
2865,-0.98046875,0.10546875,-0.1328125
2866,-0.95703125,0.09375,-0.140625
2867,-0.9765625,0.12109375,-0.13671875
2868,-0.98046875,0.11328125,-0.13671875
2869,-0.96875,0.09765625,-0.12890625
2870,-0.9765625,0.09375,-0.13671875
2871,-0.97265625,0.109375,-0.13671875
2872,-0.984375,0.10546875,-0.15234375
2873,-0.9921875,0.09765625,-0.16015625
2874,-0.9921875,0.10546875,-0.14453125
2875,-0.9921875,0.12890625,-0.16015625
2876,-0.98828125,0.10546875,-0.17578125
2877,-0.99609375,0.1015625,-0.1640625
2878,-0.98828125,0.10546875,-0.16796875
2879,-0.95703125,0.09765625,-0.16796875
2880,-0.98828125,0.11328125,-0.17578125
2881,-0.984375,0.09765625,-0.1640625
2882,-0.98828125,0.10546875,-0.1640625
2883,-0.984375,0.109375,-0.17578125
2884,-0.97265625,0.10546875,-0.171875
2885,-0.98046875,0.09375,-0.171875
2886,-0.96484375,0.09765625,-0.171875
2887,-0.98046875,0.125,-0.18359375
2888,-0.96875,0.10546875,-0.16015625
2889,-0.9609375,0.0859375,-0.19921875
2890,-0.96875,0.1015625,-0.1640625
2891,-0.9765625,0.09375,-0.15625
2892,-0.96484375,0.09375,-0.15625
2893,-0.97265625,0.08984375,-0.16796875
2894,-0.984375,0.09765625,-0.15625
2895,-0.984375,0.08203125,-0.16015625
2896,-0.9765625,0.0859375,-0.17578125
2897,-0.984375,0.09765625,-0.171875
2898,-0.96875,0.09375,-0.15625
2899,-0.97265625,0.078125,-0.1640625
2900,-0.9765625,0.08203125,-0.1328125
2901,-0.984375,0.09375,-0.13671875
2902,-0.984375,0.1015625,-0.1640625
2903,-0.9921875,0.09375,-0.17578125
2904,-0.9921875,0.1015625,-0.16015625
2905,-0.9921875,0.1015625,-0.16015625
2906,-0.9921875,0.09375,-0.17578125
2907,-0.98046875,0.0859375,-0.1640625
2908,-0.98046875,0.09375,-0.16015625
2909,-0.96875,0.07421875,-0.171875
2910,-0.9921875,0.09765625,-0.15625
2911,-0.98046875,0.09375,-0.18359375
2912,-0.98046875,0.09765625,-0.17578125
2913,-0.984375,0.09375,-0.17578125
2914,-0.98828125,0.10546875,-0.171875
2915,-0.98828125,0.09765625,-0.171875
2916,-0.984375,0.10546875,-0.1640625
2917,-0.97265625,0.09375,-0.17578125
2918,-0.9765625,0.08984375,-0.18359375
2919,-0.9921875,0.09765625,-0.171875
2920,-0.98046875,0.078125,-0.15234375
2921,-0.9765625,0.08203125,-0.18359375
2922,-0.98828125,0.08203125,-0.16796875
2923,-0.984375,0.08984375,-0.17578125
2924,-0.9765625,0.10546875,-0.1796875
2925,-0.98046875,0.09765625,-0.17578125
2926,-0.9765625,0.10546875,-0.1796875
2927,-0.98828125,0.10546875,-0.18359375
2928,-0.984375,0.10546875,-0.16796875
2929,-0.9765625,0.08984375,-0.19140625
2930,-0.9921875,0.1171875,-0.18359375
2931,-0.98828125,0.109375,-0.19140625
2932,-0.98046875,0.109375,-0.14453125
2933,-0.98046875,0.109375,-0.17578125
2934,-0.98046875,0.08984375,-0.1796875
2935,-0.98046875,0.09765625,-0.17578125
2936,-0.9765625,0.1015625,-0.171875
2937,-0.98828125,0.09765625,-0.17578125
2938,-0.98046875,0.1015625,-0.1796875
2939,-0.98828125,0.1015625,-0.15625
2940,-0.98046875,0.09375,-0.17578125
2941,-0.984375,0.09375,-0.16015625
2942,-0.984375,0.09375,-0.16796875
2943,-0.98046875,0.10546875,-0.14453125
2944,-0.984375,0.10546875,-0.171875
2945,-0.98046875,0.10546875,-0.17578125
2946,-0.984375,0.09375,-0.16796875
2947,-0.98828125,0.1015625,-0.1640625
2948,-0.98046875,0.08203125,-0.17578125
2949,-0.98046875,0.08984375,-0.171875
2950,-0.98828125,0.1015625,-0.16015625
2951,-0.984375,0.0859375,-0.17578125
2952,-0.98828125,0.0859375,-0.15625
2953,-0.9921875,0.09765625,-0.15234375
2954,-0.97265625,0.09765625,-0.171875
2955,-0.9921875,0.09375,-0.16796875
2956,-0.98046875,0.109375,-0.17578125
2957,-0.98046875,0.09765625,-0.171875
2958,-0.97265625,0.09375,-0.18359375
2959,-0.98046875,0.10546875,-0.16015625
2960,-0.98046875,0.11328125,-0.15234375
2961,-0.9921875,0.12109375,-0.17578125
2962,-0.96875,0.09375,-0.18359375
2963,-0.984375,0.0859375,-0.16015625
2964,-0.984375,0.09375,-0.16015625
2965,-0.98046875,0.08984375,-0.1484375
2966,-1.0,0.09765625,-0.1640625
2967,-0.98828125,0.08984375,-0.15234375
2968,-0.98046875,0.08984375,-0.15234375
2969,-0.9921875,0.09765625,-0.140625
2970,-0.98828125,0.1015625,-0.14453125
2971,-0.98828125,0.1015625,-0.16015625
2972,-0.99609375,0.09375,-0.15625
2973,-0.98046875,0.1015625,-0.15625
2974,-0.984375,0.09765625,-0.16796875
2975,-0.984375,0.1015625,-0.16796875
2976,-0.98046875,0.1015625,-0.16015625
2977,-0.98828125,0.10546875,-0.15234375
2978,-0.98828125,0.1015625,-0.16796875
2979,-0.98828125,0.09375,-0.171875
2980,-0.98046875,0.09375,-0.18359375
2981,-0.96484375,0.09375,-0.1640625
2982,-0.9765625,0.09375,-0.171875
2983,-0.9921875,0.1015625,-0.14453125
2984,-0.9921875,0.1015625,-0.16796875
2985,-0.98046875,0.1171875,-0.1953125
2986,-0.9765625,0.08984375,-0.1640625
2987,-0.98828125,0.10546875,-0.1640625
2988,-0.98828125,0.09375,-0.1640625
2989,-0.98046875,0.09765625,-0.16015625
2990,-0.9921875,0.109375,-0.1640625
2991,-0.97265625,0.1015625,-0.16796875
2992,-0.984375,0.1015625,-0.14453125
2993,-0.984375,0.11328125,-0.1484375
2994,-0.99609375,0.109375,-0.16015625
2995,-0.98046875,0.10546875,-0.15234375
2996,-1.00390625,0.08203125,-0.19140625
2997,-0.9921875,0.1171875,-0.16796875
2998,-0.984375,0.1015625,-0.1640625
2999,-0.984375,0.09375,-0.15625
