,accelerometerAccelerationX(G),accelerometerAccelerationY(G),accelerometerAccelerationZ(G)
0,-0.0322265625,-0.96484375,-0.1357421875
1,-0.029296875,-0.9638671875,-0.1357421875
2,-0.02734375,-0.966796875,-0.1396484375
3,-0.025390625,-0.96875,-0.138671875
4,-0.0263671875,-0.96484375,-0.1376953125
5,-0.02734375,-0.9677734375,-0.1357421875
6,-0.03125,-0.96484375,-0.138671875
7,-0.03125,-0.962890625,-0.1337890625
8,-0.0341796875,-0.96484375,-0.134765625
9,-0.029296875,-0.970703125,-0.1357421875
10,-0.0283203125,-0.9638671875,-0.140625
11,-0.0302734375,-0.96484375,-0.1376953125
12,-0.02734375,-0.96875,-0.140625
13,-0.0302734375,-0.970703125,-0.1376953125
14,-0.025390625,-0.966796875,-0.1376953125
15,-0.029296875,-0.96484375,-0.1416015625
16,-0.029296875,-0.9619140625,-0.140625
17,-0.0302734375,-0.9638671875,-0.140625
18,-0.0302734375,-0.966796875,-0.140625
19,-0.029296875,-0.9658203125,-0.138671875
20,-0.0302734375,-0.966796875,-0.1416015625
21,-0.0283203125,-0.96875,-0.1328125
22,-0.029296875,-0.9658203125,-0.13671875
23,-0.025390625,-0.9736328125,-0.13671875
24,-0.029296875,-0.966796875,-0.1435546875
25,-0.02734375,-0.9677734375,-0.138671875
26,-0.025390625,-0.9677734375,-0.1416015625
27,-0.0234375,-0.962890625,-0.14453125
28,-0.02734375,-0.970703125,-0.140625
29,-0.0263671875,-0.9677734375,-0.1376953125
30,-0.029296875,-0.9658203125,-0.1435546875
31,-0.0263671875,-0.9638671875,-0.1416015625
32,-0.029296875,-0.962890625,-0.1435546875
33,-0.0263671875,-0.9677734375,-0.14453125
34,-0.0263671875,-0.9609375,-0.1396484375
35,-0.0263671875,-0.96875,-0.1376953125
36,-0.02734375,-0.9658203125,-0.142578125
37,-0.0283203125,-0.9697265625,-0.140625
38,-0.02734375,-0.9697265625,-0.1396484375
39,-0.029296875,-0.9697265625,-0.1416015625
40,-0.0244140625,-0.9599609375,-0.14453125
41,-0.0263671875,-0.966796875,-0.140625
42,-0.02734375,-0.9609375,-0.1396484375
43,-0.0302734375,-0.9677734375,-0.140625
44,-0.0302734375,-0.96875,-0.14453125
45,-0.03125,-0.970703125,-0.138671875
46,-0.0322265625,-0.966796875,-0.1396484375
47,-0.03125,-0.9638671875,-0.1416015625
48,-0.03125,-0.96875,-0.1455078125
49,-0.0322265625,-0.9697265625,-0.14453125
50,-0.0341796875,-0.9658203125,-0.1376953125
51,-0.033203125,-0.966796875,-0.1396484375
52,-0.033203125,-0.9658203125,-0.140625
53,-0.029296875,-0.9697265625,-0.138671875
54,-0.0322265625,-0.962890625,-0.146484375
55,-0.029296875,-0.9677734375,-0.1416015625
56,-0.0283203125,-0.9658203125,-0.140625
57,-0.0263671875,-0.96484375,-0.1396484375
58,-0.03125,-0.962890625,-0.1455078125
59,-0.0322265625,-0.9677734375,-0.1376953125
60,-0.033203125,-0.962890625,-0.1416015625
61,-0.0302734375,-0.9638671875,-0.140625
62,-0.0302734375,-0.9658203125,-0.1376953125
63,-0.03125,-0.962890625,-0.1416015625
64,-0.033203125,-0.9658203125,-0.1416015625
65,-0.03125,-0.96875,-0.1416015625
66,-0.029296875,-0.9619140625,-0.1435546875
67,-0.0263671875,-0.966796875,-0.140625
68,-0.02734375,-0.9677734375,-0.138671875
69,-0.03125,-0.9638671875,-0.1396484375
70,-0.0302734375,-0.9658203125,-0.140625
71,-0.03125,-0.9677734375,-0.1435546875
72,-0.0283203125,-0.9658203125,-0.138671875
73,-0.0302734375,-0.96484375,-0.134765625
74,-0.02734375,-0.96484375,-0.138671875
75,-0.0322265625,-0.9619140625,-0.140625
76,-0.0283203125,-0.966796875,-0.140625
77,-0.0283203125,-0.9609375,-0.1416015625
78,-0.0322265625,-0.966796875,-0.1435546875
79,-0.0322265625,-0.9609375,-0.1435546875
80,-0.0302734375,-0.9609375,-0.146484375
81,-0.029296875,-0.96484375,-0.1416015625
82,-0.0263671875,-0.962890625,-0.1435546875
83,-0.02734375,-0.96484375,-0.1416015625
84,-0.02734375,-0.9609375,-0.142578125
85,-0.0302734375,-0.9609375,-0.14453125
86,-0.0302734375,-0.9599609375,-0.1396484375
87,-0.0341796875,-0.9697265625,-0.142578125
88,-0.0263671875,-0.9638671875,-0.1376953125
89,-0.03125,-0.9609375,-0.140625
90,-0.029296875,-0.962890625,-0.142578125
91,-0.0263671875,-0.9609375,-0.142578125
92,-0.0283203125,-0.966796875,-0.13671875
93,-0.025390625,-0.9599609375,-0.138671875
94,-0.0263671875,-0.9609375,-0.138671875
95,-0.0244140625,-0.9580078125,-0.1357421875
96,-0.0263671875,-0.9609375,-0.138671875
97,-0.0283203125,-0.962890625,-0.1357421875
98,-0.01953125,-0.9609375,-0.1337890625
99,-0.025390625,-0.962890625,-0.13671875
100,-0.02734375,-0.9677734375,-0.1357421875
101,-0.0205078125,-0.97265625,-0.134765625
102,-0.025390625,-0.97265625,-0.1376953125
103,-0.0244140625,-0.9736328125,-0.130859375
104,-0.025390625,-0.97265625,-0.1328125
105,-0.01953125,-0.9736328125,-0.1357421875
106,-0.021484375,-0.9736328125,-0.1318359375
107,-0.0205078125,-0.9736328125,-0.130859375
108,-0.013671875,-0.9716796875,-0.126953125
109,-0.0166015625,-0.9736328125,-0.1279296875
110,-0.0146484375,-0.9755859375,-0.126953125
111,-0.0126953125,-0.9716796875,-0.123046875
112,-0.017578125,-0.97265625,-0.1259765625
113,-0.0068359375,-0.96875,-0.126953125
114,-0.0087890625,-0.9677734375,-0.125
115,-0.015625,-0.9599609375,-0.1298828125
116,-0.0205078125,-0.9638671875,-0.1337890625
117,-0.0166015625,-0.962890625,-0.134765625
118,-0.0234375,-0.9609375,-0.138671875
119,-0.017578125,-0.9580078125,-0.140625
120,-0.01171875,-0.9609375,-0.1435546875
121,-0.0234375,-0.958984375,-0.14453125
122,-0.021484375,-0.9609375,-0.140625
123,-0.0224609375,-0.9619140625,-0.146484375
124,-0.0224609375,-0.9638671875,-0.142578125
125,-0.025390625,-0.96484375,-0.1484375
126,-0.0263671875,-0.9619140625,-0.1455078125
127,-0.02734375,-0.9609375,-0.1474609375
128,-0.0263671875,-0.966796875,-0.1474609375
129,-0.02734375,-0.9697265625,-0.146484375
130,-0.0302734375,-0.9677734375,-0.1455078125
131,-0.0302734375,-0.9638671875,-0.142578125
132,-0.02734375,-0.96484375,-0.150390625
133,-0.029296875,-0.96875,-0.1484375
134,-0.03125,-0.96484375,-0.14453125
135,-0.029296875,-0.9716796875,-0.1494140625
136,-0.02734375,-0.97265625,-0.1455078125
137,-0.029296875,-0.9697265625,-0.146484375
138,-0.0322265625,-0.966796875,-0.1455078125
139,-0.0283203125,-0.96484375,-0.146484375
140,-0.0283203125,-0.96875,-0.1474609375
141,-0.02734375,-0.9638671875,-0.1455078125
142,-0.0283203125,-0.9609375,-0.150390625
143,-0.03125,-0.966796875,-0.14453125
144,-0.029296875,-0.9609375,-0.1455078125
145,-0.0302734375,-0.962890625,-0.1484375
146,-0.03125,-0.962890625,-0.1455078125
147,-0.0283203125,-0.9599609375,-0.14453125
148,-0.03125,-0.958984375,-0.1484375
149,-0.0283203125,-0.95703125,-0.14453125
150,-0.0322265625,-0.9599609375,-0.1435546875
151,-0.03125,-0.9580078125,-0.1474609375
152,-0.0283203125,-0.955078125,-0.134765625
153,-0.0302734375,-0.9580078125,-0.13671875
154,-0.029296875,-0.9580078125,-0.1435546875
155,-0.0322265625,-0.955078125,-0.13671875
156,-0.03125,-0.9580078125,-0.140625
157,-0.03125,-0.9609375,-0.138671875
158,-0.029296875,-0.9609375,-0.138671875
159,-0.02734375,-0.962890625,-0.1318359375
160,-0.02734375,-0.9580078125,-0.12890625
161,-0.02734375,-0.962890625,-0.125
162,-0.0234375,-0.96484375,-0.123046875
163,-0.029296875,-0.9697265625,-0.1201171875
164,-0.0302734375,-0.96875,-0.1220703125
165,-0.029296875,-0.97265625,-0.12109375
166,-0.0302734375,-0.9716796875,-0.1220703125
167,-0.0302734375,-0.970703125,-0.1201171875
168,-0.0322265625,-0.970703125,-0.12109375
169,-0.0341796875,-0.9697265625,-0.1171875
170,-0.0341796875,-0.9736328125,-0.1162109375
171,-0.0361328125,-0.9736328125,-0.1259765625
172,-0.0341796875,-0.9775390625,-0.12109375
173,-0.02734375,-0.9765625,-0.119140625
174,-0.029296875,-0.9775390625,-0.11328125
175,-0.0302734375,-0.9755859375,-0.1142578125
176,-0.0224609375,-0.9794921875,-0.1083984375
177,-0.0234375,-0.9775390625,-0.1064453125
178,-0.01953125,-0.978515625,-0.10546875
179,-0.021484375,-0.97265625,-0.09765625
180,-0.0146484375,-0.9775390625,-0.1025390625
181,-0.005859375,-0.9755859375,-0.103515625
182,-0.0078125,-0.9697265625,-0.0986328125
183,-0.00390625,-0.96875,-0.0986328125
184,0.0009765625,-0.962890625,-0.1044921875
185,0.0009765625,-0.958984375,-0.1103515625
186,0.0048828125,-0.9521484375,-0.1201171875
187,0.0068359375,-0.9482421875,-0.1162109375
188,0.005859375,-0.951171875,-0.1279296875
189,0.013671875,-0.939453125,-0.1318359375
190,0.0107421875,-0.9453125,-0.1318359375
191,0.0126953125,-0.9404296875,-0.1357421875
192,0.0068359375,-0.9482421875,-0.1376953125
193,0.0068359375,-0.9443359375,-0.1435546875
194,0.0048828125,-0.947265625,-0.1455078125
195,-0.001953125,-0.951171875,-0.1416015625
196,0.0,-0.951171875,-0.1494140625
197,-0.00390625,-0.9619140625,-0.1494140625
198,0.0,-0.95703125,-0.154296875
199,-0.01171875,-0.9619140625,-0.1474609375
200,-0.009765625,-0.9638671875,-0.146484375
201,-0.009765625,-0.96484375,-0.15625
202,-0.0185546875,-0.966796875,-0.1650390625
203,-0.017578125,-0.9599609375,-0.1650390625
204,-0.01171875,-0.966796875,-0.1669921875
205,-0.015625,-0.958984375,-0.166015625
206,-0.015625,-0.953125,-0.169921875
207,-0.01171875,-0.9501953125,-0.1611328125
208,-0.0166015625,-0.9541015625,-0.1650390625
209,-0.0126953125,-0.9541015625,-0.1640625
210,-0.0205078125,-0.958984375,-0.1650390625
211,-0.0283203125,-0.9560546875,-0.1640625
212,-0.025390625,-0.962890625,-0.166015625
213,-0.03125,-0.9580078125,-0.158203125
214,-0.0322265625,-0.9609375,-0.16015625
215,-0.0322265625,-0.9677734375,-0.142578125
216,-0.0390625,-0.95703125,-0.1650390625
217,-0.0400390625,-0.9453125,-0.1650390625
218,-0.0478515625,-0.9423828125,-0.16015625
219,-0.05078125,-0.9287109375,-0.1611328125
220,-0.0595703125,-0.927734375,-0.1474609375
221,-0.060546875,-0.9248046875,-0.1455078125
222,-0.060546875,-0.9169921875,-0.138671875
223,-0.068359375,-0.9072265625,-0.134765625
224,-0.0712890625,-0.8974609375,-0.1357421875
225,-0.046875,-0.7998046875,-0.193359375
226,-0.05078125,-0.853515625,-0.1640625
227,-0.107421875,-0.857421875,-0.150390625
228,-0.1240234375,-0.89453125,-0.162109375
229,-0.126953125,-0.9189453125,-0.1611328125
230,-0.119140625,-0.931640625,-0.1435546875
231,-0.12890625,-0.9619140625,-0.1318359375
232,-0.1025390625,-0.9541015625,-0.1201171875
233,-0.09375,-0.951171875,-0.1259765625
234,-0.0712890625,-0.9541015625,-0.1279296875
235,-0.064453125,-0.9462890625,-0.1259765625
236,-0.04296875,-0.9404296875,-0.1298828125
237,-0.0341796875,-0.9443359375,-0.1279296875
238,-0.025390625,-0.95703125,-0.123046875
239,-0.0205078125,-0.9677734375,-0.126953125
240,-0.0166015625,-0.9794921875,-0.1337890625
241,-0.005859375,-0.9931640625,-0.1416015625
242,-0.0078125,-1.0087890625,-0.1494140625
243,-0.0029296875,-1.0185546875,-0.16015625
244,0.0048828125,-1.029296875,-0.15234375
245,0.0,-1.03125,-0.1455078125
246,0.009765625,-1.037109375,-0.1337890625
247,0.01171875,-1.037109375,-0.12109375
248,0.029296875,-1.033203125,-0.1064453125
249,0.0419921875,-1.021484375,-0.09375
250,0.046875,-1.0048828125,-0.09375
251,0.056640625,-0.98828125,-0.0947265625
252,0.068359375,-0.9794921875,-0.09765625
253,0.06640625,-0.962890625,-0.1044921875
254,0.0712890625,-0.9501953125,-0.1025390625
255,0.0625,-0.9404296875,-0.111328125
256,0.05859375,-0.935546875,-0.11328125
257,0.0556640625,-0.9306640625,-0.115234375
258,0.0478515625,-0.9287109375,-0.115234375
259,0.046875,-0.9296875,-0.1171875
260,0.0380859375,-0.9306640625,-0.125
261,0.0263671875,-0.9306640625,-0.1318359375
262,0.025390625,-0.9287109375,-0.12890625
263,0.0302734375,-0.93359375,-0.1328125
264,0.025390625,-0.931640625,-0.1376953125
265,0.02734375,-0.9326171875,-0.126953125
266,0.025390625,-0.9375,-0.12109375
267,0.0234375,-0.943359375,-0.11328125
268,0.01953125,-0.9443359375,-0.1083984375
269,0.01953125,-0.9482421875,-0.103515625
270,0.0146484375,-0.953125,-0.099609375
271,0.0,-0.9609375,-0.099609375
272,0.0009765625,-0.9521484375,-0.099609375
273,-0.00390625,-0.94921875,-0.09765625
274,-0.0048828125,-0.9423828125,-0.09375
275,-0.01953125,-0.94140625,-0.09765625
276,-0.0244140625,-0.92578125,-0.09765625
277,-0.0263671875,-0.9267578125,-0.109375
278,-0.03125,-0.9189453125,-0.1044921875
279,-0.03125,-0.916015625,-0.103515625
280,-0.03125,-0.9111328125,-0.09375
281,-0.03125,-0.9140625,-0.0947265625
282,-0.025390625,-0.916015625,-0.09375
283,-0.01953125,-0.9111328125,-0.0966796875
284,-0.0126953125,-0.9130859375,-0.1005859375
285,-0.0126953125,-0.91796875,-0.0927734375
286,-0.017578125,-0.9189453125,-0.091796875
287,-0.0126953125,-0.9248046875,-0.083984375
288,-0.0126953125,-0.9248046875,-0.0869140625
289,-0.0048828125,-0.927734375,-0.0810546875
290,-0.01171875,-0.931640625,-0.0810546875
291,-0.0087890625,-0.927734375,-0.0751953125
292,-0.015625,-0.9296875,-0.076171875
293,-0.0185546875,-0.9267578125,-0.076171875
294,-0.0234375,-0.923828125,-0.0751953125
295,-0.0322265625,-0.9208984375,-0.0771484375
296,-0.03515625,-0.9169921875,-0.0751953125
297,-0.048828125,-0.90625,-0.080078125
298,-0.0576171875,-0.904296875,-0.078125
299,-0.0634765625,-0.90234375,-0.072265625
300,-0.06640625,-0.900390625,-0.0654296875
301,-0.078125,-0.900390625,-0.06640625
302,-0.08984375,-0.9033203125,-0.0595703125
303,-0.1005859375,-0.91015625,-0.056640625
304,-0.1044921875,-0.9189453125,-0.052734375
305,-0.1181640625,-0.9228515625,-0.05078125
306,-0.12109375,-0.935546875,-0.046875
307,-0.126953125,-0.94140625,-0.0390625
308,-0.1328125,-0.951171875,-0.03515625
309,-0.1328125,-0.9560546875,-0.0322265625
310,-0.1416015625,-0.958984375,-0.02734375
311,-0.1455078125,-0.9599609375,-0.0283203125
312,-0.150390625,-0.953125,-0.03515625
313,-0.15625,-0.9541015625,-0.037109375
314,-0.1533203125,-0.955078125,-0.0419921875
315,-0.1552734375,-0.951171875,-0.0537109375
316,-0.150390625,-0.9404296875,-0.0693359375
317,-0.1396484375,-0.9345703125,-0.0791015625
318,-0.1337890625,-0.923828125,-0.095703125
319,-0.1240234375,-0.9228515625,-0.109375
320,-0.12109375,-0.9130859375,-0.12109375
321,-0.119140625,-0.9150390625,-0.1220703125
322,-0.1240234375,-0.923828125,-0.119140625
323,-0.130859375,-0.9267578125,-0.12109375
324,-0.130859375,-0.939453125,-0.123046875
325,-0.140625,-0.947265625,-0.12109375
326,-0.142578125,-0.966796875,-0.123046875
327,-0.15234375,-0.978515625,-0.1396484375
328,-0.162109375,-0.9951171875,-0.166015625
329,-0.1552734375,-1.005859375,-0.1865234375
330,-0.1484375,-1.01953125,-0.208984375
331,-0.1376953125,-1.0458984375,-0.2236328125
332,-0.1328125,-1.0751953125,-0.208984375
333,-0.1376953125,-1.1123046875,-0.177734375
334,-0.1640625,-1.1650390625,-0.13671875
335,-0.19921875,-1.248046875,-0.1005859375
336,-0.25,-1.3134765625,-0.0673828125
337,-0.298828125,-1.3740234375,-0.03515625
338,-0.3369140625,-1.423828125,-0.0087890625
339,-0.3720703125,-1.458984375,-0.0009765625
340,-0.4189453125,-1.4716796875,0.005859375
341,-0.4599609375,-1.4638671875,0.00390625
342,-0.50390625,-1.4326171875,0.0009765625
343,-0.53125,-1.392578125,-0.009765625
344,-0.541015625,-1.359375,-0.0166015625
345,-0.5439453125,-1.322265625,-0.015625
346,-0.5029296875,-1.2890625,-0.02734375
347,-0.4501953125,-1.2734375,-0.060546875
348,-0.390625,-1.28125,-0.1298828125
349,-0.33984375,-1.3017578125,-0.224609375
350,-0.326171875,-1.33203125,-0.3154296875
351,-0.3193359375,-1.36328125,-0.37890625
352,-0.2978515625,-1.3896484375,-0.4072265625
353,-0.255859375,-1.4248046875,-0.3974609375
354,-0.193359375,-1.4619140625,-0.376953125
355,-0.1611328125,-1.484375,-0.3740234375
356,-0.125,-1.484375,-0.4267578125
357,-0.0849609375,-1.4580078125,-0.578125
358,-0.0546875,-1.3857421875,-0.6865234375
359,-0.0166015625,-1.294921875,-0.7451171875
360,-0.013671875,-1.1875,-0.765625
361,-0.01953125,-1.1025390625,-0.7734375
362,-0.0234375,-1.0244140625,-0.7529296875
363,-0.029296875,-0.94921875,-0.7353515625
364,-0.0322265625,-0.90234375,-0.7294921875
365,-0.03125,-0.8505859375,-0.7294921875
366,-0.0283203125,-0.80859375,-0.6982421875
367,-0.0224609375,-0.7783203125,-0.6669921875
368,0.001953125,-0.759765625,-0.6162109375
369,0.01171875,-0.75390625,-0.5546875
370,0.0068359375,-0.7568359375,-0.4853515625
371,0.0048828125,-0.7919921875,-0.4404296875
372,-0.009765625,-0.8388671875,-0.4052734375
373,0.0107421875,-0.8974609375,-0.3720703125
374,0.0322265625,-0.9384765625,-0.3662109375
375,0.0517578125,-0.9775390625,-0.3671875
376,0.0673828125,-1.0078125,-0.359375
377,0.107421875,-1.0205078125,-0.32421875
378,0.1298828125,-1.0361328125,-0.2978515625
379,0.154296875,-1.044921875,-0.28125
380,0.17578125,-1.048828125,-0.2724609375
381,0.181640625,-1.0380859375,-0.2900390625
382,0.1513671875,-1.0029296875,-0.298828125
383,0.111328125,-0.96484375,-0.306640625
384,0.0859375,-0.9072265625,-0.3173828125
385,0.078125,-0.8447265625,-0.3232421875
386,0.0673828125,-0.7880859375,-0.322265625
387,0.052734375,-0.73046875,-0.310546875
388,0.0361328125,-0.6923828125,-0.291015625
389,0.0322265625,-0.6533203125,-0.275390625
390,0.0146484375,-0.6298828125,-0.2783203125
391,-0.0009765625,-0.599609375,-0.2744140625
392,-0.009765625,-0.5751953125,-0.2744140625
393,-0.0419921875,-0.5576171875,-0.2734375
394,-0.0615234375,-0.544921875,-0.2626953125
395,-0.080078125,-0.521484375,-0.244140625
396,-0.0947265625,-0.513671875,-0.228515625
397,-0.1025390625,-0.5009765625,-0.2158203125
398,-0.1025390625,-0.494140625,-0.20703125
399,-0.107421875,-0.486328125,-0.2080078125
400,-0.111328125,-0.4736328125,-0.205078125
401,-0.10546875,-0.462890625,-0.208984375
402,-0.1162109375,-0.451171875,-0.216796875
403,-0.1337890625,-0.4423828125,-0.2275390625
404,-0.140625,-0.443359375,-0.2333984375
405,-0.1357421875,-0.46484375,-0.23046875
406,-0.126953125,-0.486328125,-0.21875
407,-0.115234375,-0.5205078125,-0.19921875
408,-0.1064453125,-0.5634765625,-0.17578125
409,-0.109375,-0.60546875,-0.1474609375
410,-0.0966796875,-0.6552734375,-0.1103515625
411,-0.0888671875,-0.697265625,-0.080078125
412,-0.0712890625,-0.7412109375,-0.0546875
413,-0.0625,-0.7802734375,-0.0341796875
414,-0.0498046875,-0.8154296875,-0.017578125
415,-0.0341796875,-0.84765625,-0.0126953125
416,-0.01953125,-0.8720703125,0.0009765625
417,-0.0009765625,-0.88671875,-0.005859375
418,0.001953125,-0.896484375,-0.021484375
419,0.009765625,-0.900390625,-0.0380859375
420,0.0166015625,-0.9013671875,-0.0673828125
421,0.017578125,-0.90234375,-0.1044921875
422,0.0302734375,-0.9169921875,-0.138671875
423,0.0458984375,-0.9560546875,-0.1650390625
424,0.0498046875,-1.0,-0.197265625
425,0.0537109375,-1.0576171875,-0.2353515625
426,0.052734375,-1.115234375,-0.2568359375
427,0.044921875,-1.169921875,-0.28515625
428,0.04296875,-1.25,-0.32421875
429,0.0419921875,-1.3017578125,-0.3603515625
430,0.00390625,-1.3681640625,-0.3681640625
431,-0.0146484375,-1.4296875,-0.298828125
432,-0.0185546875,-1.4970703125,-0.18359375
433,-0.0205078125,-1.5751953125,-0.0537109375
434,-0.00390625,-1.6455078125,0.0625
435,0.013671875,-1.7119140625,0.1474609375
436,0.044921875,-1.7529296875,0.2001953125
437,0.0888671875,-1.759765625,0.2255859375
438,0.1298828125,-1.7255859375,0.234375
439,0.15234375,-1.669921875,0.234375
440,0.1630859375,-1.599609375,0.19921875
441,0.1513671875,-1.50390625,0.1650390625
442,0.12890625,-1.3984375,0.0703125
443,0.0830078125,-1.2548828125,-0.1845703125
444,0.1484375,-1.0849609375,-0.630859375
445,0.2998046875,-0.921875,-0.9970703125
446,0.447265625,-0.79296875,-1.244140625
447,0.5068359375,-0.7109375,-1.4990234375
448,0.4296875,-0.65625,-1.71875
449,0.345703125,-0.6474609375,-1.65234375
450,0.3828125,-0.775390625,-1.3125
451,0.5693359375,-1.0146484375,-0.88671875
452,0.6591796875,-1.3193359375,-0.5029296875
453,0.5859375,-1.5625,-0.423828125
454,0.4365234375,-1.64453125,-0.5302734375
455,0.3515625,-1.60546875,-0.6796875
456,0.271484375,-1.4931640625,-0.822265625
457,0.1943359375,-1.3603515625,-0.9296875
458,0.12109375,-1.208984375,-0.97265625
459,0.046875,-1.0751953125,-0.9365234375
460,-0.01953125,-0.970703125,-0.849609375
461,-0.046875,-0.904296875,-0.744140625
462,-0.0517578125,-0.8681640625,-0.6337890625
463,-0.0458984375,-0.8505859375,-0.53515625
464,-0.029296875,-0.8447265625,-0.46484375
465,-0.0068359375,-0.857421875,-0.4189453125
466,-0.0068359375,-0.8798828125,-0.3720703125
467,-0.01953125,-0.923828125,-0.3515625
468,-0.0458984375,-0.962890625,-0.359375
469,-0.0595703125,-0.9736328125,-0.404296875
470,-0.0595703125,-0.9599609375,-0.4423828125
471,-0.0439453125,-0.91796875,-0.4833984375
472,-0.0439453125,-0.8603515625,-0.5
473,-0.033203125,-0.7841796875,-0.5048828125
474,-0.001953125,-0.7158203125,-0.4921875
475,0.02734375,-0.6640625,-0.48046875
476,0.0517578125,-0.6123046875,-0.4521484375
477,0.08203125,-0.5673828125,-0.4169921875
478,0.11328125,-0.533203125,-0.3779296875
479,0.138671875,-0.5107421875,-0.3359375
480,0.150390625,-0.5107421875,-0.2998046875
481,0.15234375,-0.5126953125,-0.263671875
482,0.1396484375,-0.5107421875,-0.2275390625
483,0.1025390625,-0.509765625,-0.201171875
484,0.0458984375,-0.4853515625,-0.1669921875
485,0.005859375,-0.46875,-0.1650390625
486,0.0048828125,-0.42578125,-0.171875
487,0.0009765625,-0.3720703125,-0.1767578125
488,-0.041015625,-0.3251953125,-0.1748046875
489,-0.0830078125,-0.2783203125,-0.1669921875
490,-0.12890625,-0.2314453125,-0.162109375
491,-0.1513671875,-0.19140625,-0.162109375
492,-0.162109375,-0.1669921875,-0.1728515625
493,-0.1494140625,-0.1787109375,-0.1865234375
494,-0.12890625,-0.2158203125,-0.2001953125
495,-0.1064453125,-0.2548828125,-0.1943359375
496,-0.072265625,-0.298828125,-0.17578125
497,-0.029296875,-0.37109375,-0.1650390625
498,-0.0126953125,-0.4375,-0.130859375
499,0.013671875,-0.5009765625,-0.091796875
500,0.0322265625,-0.5634765625,-0.0615234375
501,0.0478515625,-0.60546875,-0.0380859375
502,0.0498046875,-0.640625,-0.0224609375
503,0.0537109375,-0.6572265625,-0.0283203125
504,0.0595703125,-0.65625,-0.046875
505,0.0595703125,-0.6513671875,-0.0693359375
506,0.05859375,-0.642578125,-0.0986328125
507,0.0556640625,-0.6611328125,-0.119140625
508,0.0595703125,-0.6669921875,-0.1318359375
509,0.05859375,-0.6923828125,-0.146484375
510,0.0546875,-0.736328125,-0.14453125
511,0.037109375,-0.8154296875,-0.1396484375
512,0.0322265625,-0.9169921875,-0.125
513,0.0283203125,-1.0390625,-0.125
514,0.01953125,-1.1669921875,-0.1103515625
515,-0.03515625,-1.3125,-0.078125
516,-0.11328125,-1.4677734375,-0.076171875
517,-0.2080078125,-1.57421875,-0.11328125
518,-0.3330078125,-1.6484375,-0.15625
519,-0.416015625,-1.6787109375,-0.1884765625
520,-0.4736328125,-1.6875,-0.193359375
521,-0.4873046875,-1.66796875,-0.16015625
522,-0.4697265625,-1.6455078125,-0.08984375
523,-0.4287109375,-1.6162109375,0.0302734375
524,-0.384765625,-1.5888671875,0.158203125
525,-0.34765625,-1.5595703125,0.25
526,-0.33203125,-1.5205078125,0.302734375
527,-0.2978515625,-1.4677734375,0.328125
528,-0.27734375,-1.4140625,0.3359375
529,-0.2421875,-1.3603515625,0.3125
530,-0.14453125,-1.3232421875,0.2548828125
531,-0.064453125,-1.2919921875,0.1875
532,-0.033203125,-1.2587890625,0.041015625
533,0.0166015625,-1.267578125,-0.349609375
534,-0.046875,-1.248046875,-0.7509765625
535,-0.2421875,-1.2109375,-0.9921875
536,-0.4033203125,-1.1904296875,-1.240234375
537,-0.462890625,-1.1513671875,-1.42578125
538,-0.40625,-1.140625,-1.3056640625
539,-0.3134765625,-1.1923828125,-0.9521484375
540,-0.25390625,-1.2998046875,-0.6484375
541,-0.201171875,-1.439453125,-0.5126953125
542,-0.1728515625,-1.5703125,-0.513671875
543,-0.126953125,-1.6123046875,-0.580078125
544,-0.0498046875,-1.568359375,-0.64453125
545,0.0,-1.470703125,-0.740234375
546,-0.013671875,-1.3408203125,-0.8212890625
547,-0.0732421875,-1.1845703125,-0.892578125
548,-0.1064453125,-1.0498046875,-0.8896484375
549,-0.099609375,-0.9462890625,-0.775390625
550,-0.052734375,-0.9013671875,-0.59765625
551,-0.0234375,-0.8935546875,-0.431640625
552,-0.0166015625,-0.904296875,-0.3232421875
553,-0.025390625,-0.9326171875,-0.279296875
554,-0.0478515625,-0.9677734375,-0.2861328125
555,-0.0673828125,-0.994140625,-0.302734375
556,-0.078125,-1.0087890625,-0.3173828125
557,-0.078125,-1.0029296875,-0.32421875
558,-0.07421875,-0.9814453125,-0.3291015625
559,-0.0712890625,-0.96484375,-0.35546875
560,-0.0712890625,-0.9208984375,-0.376953125
561,-0.0634765625,-0.8642578125,-0.384765625
562,-0.056640625,-0.822265625,-0.373046875
563,-0.060546875,-0.775390625,-0.337890625
564,-0.0615234375,-0.740234375,-0.298828125
565,-0.0693359375,-0.6865234375,-0.2529296875
566,-0.078125,-0.634765625,-0.2177734375
567,-0.1015625,-0.578125,-0.189453125
568,-0.1181640625,-0.5546875,-0.1826171875
569,-0.1298828125,-0.515625,-0.17578125
570,-0.1201171875,-0.4873046875,-0.1845703125
571,-0.1083984375,-0.4443359375,-0.1875
572,-0.1005859375,-0.3974609375,-0.1962890625
573,-0.07421875,-0.3349609375,-0.203125
574,-0.056640625,-0.27734375,-0.2119140625
575,-0.021484375,-0.2236328125,-0.220703125
576,0.029296875,-0.173828125,-0.2080078125
577,0.0615234375,-0.1171875,-0.1982421875
578,0.0869140625,-0.076171875,-0.19921875
579,0.1279296875,-0.044921875,-0.212890625
580,0.154296875,-0.0341796875,-0.2119140625
581,0.1669921875,-0.0322265625,-0.208984375
582,0.185546875,-0.06640625,-0.201171875
583,0.177734375,-0.1376953125,-0.1865234375
584,0.158203125,-0.2216796875,-0.1513671875
585,0.1240234375,-0.3173828125,-0.1171875
586,0.0947265625,-0.41015625,-0.083984375
587,0.0625,-0.498046875,-0.0498046875
588,0.044921875,-0.5771484375,-0.005859375
589,0.0361328125,-0.63671875,0.03125
590,0.0185546875,-0.697265625,0.0546875
591,0.0107421875,-0.732421875,0.0712890625
592,-0.00390625,-0.7548828125,0.072265625
593,-0.0517578125,-0.7705078125,0.076171875
594,-0.1103515625,-0.783203125,0.056640625
595,-0.1689453125,-0.8125,0.0302734375
596,-0.2158203125,-0.85546875,-0.013671875
597,-0.265625,-0.8994140625,-0.0791015625
598,-0.2802734375,-0.9658203125,-0.1591796875
599,-0.2705078125,-1.048828125,-0.24609375
600,-0.1923828125,-1.13671875,-0.3134765625
601,-0.0478515625,-1.2197265625,-0.3193359375
602,0.1572265625,-1.3251953125,-0.2958984375
603,0.35546875,-1.421875,-0.2509765625
604,0.4990234375,-1.5009765625,-0.205078125
605,0.587890625,-1.58203125,-0.1630859375
606,0.6318359375,-1.6357421875,-0.1123046875
607,0.642578125,-1.65234375,-0.0615234375
608,0.615234375,-1.650390625,-0.00390625
609,0.5849609375,-1.6396484375,0.046875
610,0.560546875,-1.6201171875,0.119140625
611,0.5400390625,-1.5791015625,0.1708984375
612,0.53515625,-1.568359375,0.1904296875
613,0.515625,-1.5537109375,0.2119140625
614,0.4638671875,-1.54296875,0.2373046875
615,0.3935546875,-1.509765625,0.283203125
616,0.302734375,-1.4873046875,0.291015625
617,0.1865234375,-1.45703125,0.27734375
618,0.0673828125,-1.412109375,0.1708984375
619,-0.0419921875,-1.373046875,-0.087890625
620,-0.115234375,-1.294921875,-0.4873046875
621,-0.0751953125,-1.1923828125,-0.8720703125
622,-0.033203125,-1.130859375,-1.23828125
623,-0.0380859375,-1.0849609375,-1.5185546875
624,-0.0859375,-1.09375,-1.576171875
625,-0.05859375,-1.189453125,-1.3203125
626,0.033203125,-1.3837890625,-0.9560546875
627,0.140625,-1.6181640625,-0.6552734375
628,0.1298828125,-1.818359375,-0.53515625
629,0.083984375,-1.94921875,-0.5595703125
630,0.03125,-1.9462890625,-0.662109375
631,0.0263671875,-1.8359375,-0.798828125
632,0.025390625,-1.6630859375,-0.9306640625
633,0.01171875,-1.451171875,-1.0283203125
634,0.01171875,-1.236328125,-1.0615234375
635,0.0126953125,-1.04296875,-1.025390625
636,0.013671875,-0.890625,-0.896484375
637,0.015625,-0.7900390625,-0.6865234375
638,0.013671875,-0.73828125,-0.5
639,0.005859375,-0.7177734375,-0.369140625
640,0.013671875,-0.7294921875,-0.30078125
641,-0.0009765625,-0.759765625,-0.2822265625
642,-0.0439453125,-0.8046875,-0.298828125
643,-0.09375,-0.8857421875,-0.3193359375
644,-0.140625,-0.9267578125,-0.3544921875
645,-0.1650390625,-0.9208984375,-0.3818359375
646,-0.1982421875,-0.890625,-0.4072265625
647,-0.216796875,-0.826171875,-0.416015625
648,-0.220703125,-0.7470703125,-0.41796875
649,-0.19140625,-0.662109375,-0.416015625
650,-0.1357421875,-0.5947265625,-0.4091796875
651,-0.060546875,-0.544921875,-0.3896484375
652,0.005859375,-0.4921875,-0.3662109375
653,0.0859375,-0.474609375,-0.3271484375
654,0.1728515625,-0.4716796875,-0.2783203125
655,0.228515625,-0.458984375,-0.2275390625
656,0.2392578125,-0.42578125,-0.181640625
657,0.248046875,-0.4033203125,-0.1484375
658,0.251953125,-0.3837890625,-0.1396484375
659,0.236328125,-0.3544921875,-0.126953125
660,0.240234375,-0.3564453125,-0.1181640625
661,0.20703125,-0.3359375,-0.1064453125
662,0.150390625,-0.291015625,-0.0830078125
663,0.1171875,-0.228515625,-0.07421875
664,0.1181640625,-0.19140625,-0.060546875
665,0.0986328125,-0.15625,-0.0556640625
666,0.0673828125,-0.1298828125,-0.0517578125
667,0.0224609375,-0.1103515625,-0.0400390625
668,0.0,-0.13671875,-0.025390625
669,-0.0380859375,-0.197265625,-0.0126953125
670,-0.078125,-0.2822265625,-0.0009765625
671,-0.1064453125,-0.3671875,0.0048828125
672,-0.1171875,-0.4638671875,0.0107421875
673,-0.1142578125,-0.5576171875,0.01953125
674,-0.1015625,-0.626953125,0.0166015625
675,-0.0732421875,-0.705078125,0.0048828125
676,-0.0361328125,-0.734375,-0.0146484375
677,0.0263671875,-0.744140625,-0.0576171875
678,0.109375,-0.771484375,-0.103515625
679,0.2021484375,-0.7861328125,-0.1572265625
680,0.30078125,-0.8359375,-0.1884765625
681,0.380859375,-0.919921875,-0.2021484375
682,0.4423828125,-1.0283203125,-0.208984375
683,0.4345703125,-1.1376953125,-0.169921875
684,0.37109375,-1.2587890625,-0.1201171875
685,0.27734375,-1.3671875,-0.078125
686,0.171875,-1.4423828125,-0.0703125
687,0.048828125,-1.4951171875,-0.044921875
688,-0.076171875,-1.5224609375,-0.0087890625
689,-0.220703125,-1.5400390625,0.021484375
690,-0.3984375,-1.5205078125,0.0390625
691,-0.578125,-1.5146484375,0.0537109375
692,-0.763671875,-1.4990234375,0.0703125
693,-0.9189453125,-1.458984375,0.0888671875
694,-1.037109375,-1.4111328125,0.10546875
695,-1.103515625,-1.3369140625,0.1201171875
696,-1.107421875,-1.2509765625,0.11328125
697,-1.0517578125,-1.1865234375,0.103515625
698,-0.9658203125,-1.1435546875,0.0966796875
699,-0.8154296875,-1.119140625,0.0771484375
700,-0.6640625,-1.1044921875,0.0517578125
701,-0.4853515625,-1.103515625,0.0283203125
702,-0.2861328125,-1.0908203125,0.021484375
703,-0.0810546875,-1.0830078125,-0.015625
704,0.193359375,-1.0732421875,-0.2724609375
705,0.5224609375,-1.064453125,-0.6884765625
706,0.5537109375,-1.044921875,-1.0029296875
707,0.2568359375,-0.9716796875,-1.265625
708,-0.0869140625,-0.9609375,-1.71484375
709,-0.234375,-1.0126953125,-1.9462890625
710,-0.22265625,-1.1474609375,-1.6015625
711,-0.21484375,-1.3642578125,-0.994140625
712,-0.296875,-1.650390625,-0.5048828125
713,-0.2861328125,-1.8935546875,-0.2158203125
714,-0.1708984375,-2.02734375,-0.0966796875
715,-0.00390625,-2.0556640625,-0.1259765625
716,0.10546875,-1.9423828125,-0.3271484375
717,0.1298828125,-1.76171875,-0.64453125
718,0.119140625,-1.5849609375,-0.9765625
719,0.1005859375,-1.4189453125,-1.1943359375
720,0.087890625,-1.2666015625,-1.20703125
721,0.11328125,-1.1171875,-1.025390625
722,0.1767578125,-1.009765625,-0.7021484375
723,0.2490234375,-0.935546875,-0.3525390625
724,0.2783203125,-0.8876953125,-0.1318359375
725,0.2451171875,-0.8154296875,-0.060546875
726,0.16796875,-0.7451171875,-0.10546875
727,0.0830078125,-0.66015625,-0.1865234375
728,-0.001953125,-0.59375,-0.2734375
729,-0.0439453125,-0.5654296875,-0.353515625
730,-0.0595703125,-0.5771484375,-0.4013671875
731,-0.0908203125,-0.59375,-0.416015625
732,-0.107421875,-0.6337890625,-0.3916015625
733,-0.1416015625,-0.69921875,-0.3486328125
734,-0.1669921875,-0.7421875,-0.27734375
735,-0.1796875,-0.7626953125,-0.2001953125
736,-0.193359375,-0.787109375,-0.1279296875
737,-0.2138671875,-0.787109375,-0.080078125
738,-0.240234375,-0.775390625,-0.05078125
739,-0.255859375,-0.7333984375,-0.0302734375
740,-0.271484375,-0.66796875,-0.0380859375
741,-0.259765625,-0.6171875,-0.0498046875
742,-0.236328125,-0.5390625,-0.0615234375
743,-0.2197265625,-0.46875,-0.0732421875
744,-0.193359375,-0.365234375,-0.076171875
745,-0.14453125,-0.2783203125,-0.0791015625
746,-0.107421875,-0.193359375,-0.1103515625
747,-0.0419921875,-0.1025390625,-0.12890625
748,0.0322265625,-0.04296875,-0.1748046875
749,0.10546875,0.009765625,-0.2060546875
750,0.1865234375,0.029296875,-0.2197265625
751,0.2490234375,0.037109375,-0.21484375
752,0.2900390625,0.017578125,-0.205078125
753,0.314453125,-0.0166015625,-0.1748046875
754,0.2998046875,-0.0625,-0.1259765625
755,0.26171875,-0.1611328125,-0.0810546875
756,0.1962890625,-0.2744140625,-0.0556640625
757,0.125,-0.40625,-0.0390625
758,0.0517578125,-0.5048828125,-0.03125
759,-0.0322265625,-0.587890625,-0.0244140625
760,-0.1015625,-0.6630859375,-0.0419921875
761,-0.1826171875,-0.7119140625,-0.07421875
762,-0.236328125,-0.75,-0.119140625
763,-0.294921875,-0.7939453125,-0.15625
764,-0.3466796875,-0.8603515625,-0.171875
765,-0.349609375,-0.9638671875,-0.13671875
766,-0.3125,-1.1025390625,-0.1240234375
767,-0.251953125,-1.259765625,-0.1044921875
768,-0.150390625,-1.3984375,-0.10546875
769,-0.01171875,-1.5263671875,-0.0986328125
770,0.158203125,-1.6171875,-0.138671875
771,0.333984375,-1.6689453125,-0.1845703125
772,0.50390625,-1.6865234375,-0.208984375
773,0.5859375,-1.6826171875,-0.166015625
774,0.6376953125,-1.7041015625,-0.060546875
775,0.65625,-1.720703125,0.0673828125
776,0.61328125,-1.71875,0.154296875
777,0.5419921875,-1.70703125,0.1630859375
778,0.49609375,-1.640625,0.1591796875
779,0.501953125,-1.5751953125,0.1591796875
780,0.525390625,-1.53125,0.1708984375
781,0.494140625,-1.494140625,0.185546875
782,0.4501953125,-1.486328125,0.1806640625
783,0.375,-1.4794921875,0.177734375
784,0.287109375,-1.458984375,0.1806640625
785,0.171875,-1.4462890625,0.2001953125
786,0.0537109375,-1.4296875,0.1748046875
787,-0.087890625,-1.3974609375,0.0634765625
788,-0.1845703125,-1.3310546875,-0.1689453125
789,-0.2138671875,-1.248046875,-0.560546875
790,-0.181640625,-1.10546875,-0.9384765625
791,-0.1103515625,-0.9716796875,-1.2998046875
792,-0.06640625,-0.875,-1.67578125
793,-0.0380859375,-0.837890625,-1.896484375
794,-0.0234375,-0.869140625,-1.79296875
795,0.0576171875,-1.0078125,-1.466796875
796,0.177734375,-1.2138671875,-1.03125
797,0.2724609375,-1.44921875,-0.6806640625
798,0.341796875,-1.6728515625,-0.43359375
799,0.4033203125,-1.8203125,-0.287109375
800,0.4521484375,-1.826171875,-0.298828125
801,0.46875,-1.755859375,-0.5107421875
802,0.408203125,-1.6201171875,-0.7021484375
803,0.2275390625,-1.3603515625,-0.875
804,-0.0205078125,-1.12109375,-0.9697265625
805,-0.154296875,-0.90234375,-0.9765625
806,-0.1650390625,-0.73828125,-0.8837890625
807,-0.1630859375,-0.6171875,-0.6611328125
808,-0.1923828125,-0.5458984375,-0.388671875
809,-0.2099609375,-0.5478515625,-0.1728515625
810,-0.2275390625,-0.6005859375,-0.072265625
811,-0.212890625,-0.6806640625,-0.0732421875
812,-0.1611328125,-0.75390625,-0.115234375
813,-0.09765625,-0.794921875,-0.1787109375
814,-0.0517578125,-0.8193359375,-0.2509765625
815,-0.0322265625,-0.8115234375,-0.3232421875
816,-0.017578125,-0.8017578125,-0.3896484375
817,-0.021484375,-0.7802734375,-0.427734375
818,-0.005859375,-0.740234375,-0.435546875
819,0.0166015625,-0.708984375,-0.4287109375
820,0.0546875,-0.6748046875,-0.41015625
821,0.099609375,-0.626953125,-0.3876953125
822,0.1494140625,-0.599609375,-0.3671875
823,0.193359375,-0.576171875,-0.3427734375
824,0.2060546875,-0.52734375,-0.314453125
825,0.2060546875,-0.501953125,-0.291015625
826,0.1845703125,-0.4638671875,-0.2626953125
827,0.15234375,-0.4072265625,-0.23828125
828,0.1259765625,-0.3583984375,-0.220703125
829,0.091796875,-0.2998046875,-0.2060546875
830,0.0615234375,-0.2666015625,-0.1982421875
831,0.0458984375,-0.2119140625,-0.181640625
832,0.02734375,-0.1572265625,-0.1611328125
833,0.015625,-0.1181640625,-0.1416015625
834,0.0029296875,-0.072265625,-0.1181640625
835,-0.0224609375,-0.0517578125,-0.099609375
836,-0.0537109375,-0.05859375,-0.0869140625
837,-0.0849609375,-0.0947265625,-0.0673828125
838,-0.09765625,-0.1552734375,-0.0595703125
839,-0.115234375,-0.248046875,-0.060546875
840,-0.1103515625,-0.3310546875,-0.05859375
841,-0.0966796875,-0.41796875,-0.0615234375
842,-0.060546875,-0.5029296875,-0.07421875
843,-0.0107421875,-0.576171875,-0.0869140625
844,0.048828125,-0.6455078125,-0.1025390625
845,0.111328125,-0.7119140625,-0.103515625
846,0.16015625,-0.78125,-0.1240234375
847,0.2021484375,-0.8583984375,-0.12890625
848,0.244140625,-0.9443359375,-0.1220703125
849,0.2685546875,-1.0478515625,-0.11328125
850,0.279296875,-1.13671875,-0.095703125
851,0.2490234375,-1.24609375,-0.078125
852,0.17578125,-1.3310546875,-0.0517578125
853,0.1025390625,-1.3955078125,-0.0517578125
854,0.0126953125,-1.4189453125,-0.05859375
855,-0.06640625,-1.421875,-0.0673828125
856,-0.16015625,-1.400390625,-0.068359375
857,-0.2548828125,-1.3642578125,-0.056640625
858,-0.3544921875,-1.3359375,-0.0546875
859,-0.47265625,-1.3212890625,-0.064453125
860,-0.607421875,-1.294921875,-0.06640625
861,-0.708984375,-1.275390625,-0.0537109375
862,-0.787109375,-1.244140625,-0.0224609375
863,-0.8251953125,-1.21875,0.0166015625
864,-0.8359375,-1.1982421875,0.052734375
865,-0.810546875,-1.19140625,0.134765625
866,-0.7626953125,-1.1884765625,0.1884765625
867,-0.6728515625,-1.2109375,0.2109375
868,-0.5068359375,-1.240234375,0.1845703125
869,-0.3623046875,-1.2265625,0.1669921875
870,-0.2236328125,-1.1962890625,0.1630859375
871,-0.0654296875,-1.15234375,0.115234375
872,0.1337890625,-1.109375,-0.0654296875
873,0.4833984375,-1.0703125,-0.6416015625
874,0.6748046875,-1.0390625,-1.0927734375
875,0.3818359375,-0.974609375,-1.2314453125
876,0.03515625,-0.9169921875,-1.4658203125
877,-0.216796875,-0.8994140625,-1.9560546875
878,-0.34375,-0.958984375,-2.08203125
879,-0.3095703125,-1.1533203125,-1.6416015625
880,-0.400390625,-1.4189453125,-1.017578125
881,-0.5361328125,-1.7314453125,-0.515625
882,-0.5517578125,-2.0244140625,-0.240234375
883,-0.4111328125,-2.2236328125,-0.11328125
884,-0.1767578125,-2.2822265625,-0.1552734375
885,0.0400390625,-2.1806640625,-0.4541015625
886,0.1181640625,-1.9609375,-0.8623046875
887,0.099609375,-1.734375,-1.1865234375
888,0.056640625,-1.572265625,-1.3408203125
889,0.072265625,-1.443359375,-1.28125
890,0.130859375,-1.35546875,-1.0302734375
891,0.19140625,-1.294921875,-0.697265625
892,0.248046875,-1.22265625,-0.392578125
893,0.2861328125,-1.16796875,-0.25390625
894,0.2529296875,-1.0625,-0.228515625
895,0.1826171875,-0.9111328125,-0.2626953125
896,0.1064453125,-0.7763671875,-0.3203125
897,0.033203125,-0.6767578125,-0.4052734375
898,-0.0302734375,-0.6044921875,-0.419921875
899,-0.08984375,-0.5859375,-0.419921875
900,-0.1494140625,-0.572265625,-0.39453125
901,-0.1796875,-0.5849609375,-0.365234375
902,-0.2236328125,-0.5859375,-0.328125
903,-0.2685546875,-0.6015625,-0.29296875
904,-0.2861328125,-0.6162109375,-0.24609375
905,-0.302734375,-0.6181640625,-0.2041015625
906,-0.3076171875,-0.6005859375,-0.181640625
907,-0.302734375,-0.5703125,-0.171875
908,-0.2919921875,-0.5107421875,-0.1669921875
909,-0.2353515625,-0.4833984375,-0.1904296875
910,-0.1884765625,-0.455078125,-0.2119140625
911,-0.1962890625,-0.419921875,-0.2119140625
912,-0.1279296875,-0.416015625,-0.2060546875
913,0.0185546875,-0.39453125,-0.2119140625
914,0.15625,-0.3193359375,-0.2158203125
915,0.2255859375,-0.267578125,-0.2294921875
916,0.146484375,-0.2060546875,-0.1962890625
917,-0.0078125,-0.123046875,-0.1396484375
918,0.03125,-0.0615234375,-0.17578125
919,-0.19140625,0.0,-0.091796875
920,-0.2470703125,-0.0029296875,-0.0615234375
921,0.0,-0.0048828125,-0.1416015625
922,0.0830078125,-0.001953125,-0.158203125
923,0.12890625,-0.044921875,-0.162109375
924,0.1865234375,-0.1474609375,-0.17578125
925,0.18359375,-0.251953125,-0.169921875
926,0.16015625,-0.3388671875,-0.1318359375
927,0.142578125,-0.43359375,-0.08984375
928,0.1318359375,-0.5185546875,-0.04296875
929,0.115234375,-0.5947265625,0.0009765625
930,0.091796875,-0.6669921875,0.01953125
931,0.080078125,-0.7021484375,0.0322265625
932,0.0400390625,-0.7470703125,0.0234375
933,-0.0166015625,-0.7822265625,-0.0009765625
934,-0.0810546875,-0.810546875,-0.046875
935,-0.1357421875,-0.8466796875,-0.06640625
936,-0.15234375,-0.90234375,-0.095703125
937,-0.17578125,-0.9521484375,-0.1318359375
938,-0.1728515625,-0.9912109375,-0.181640625
939,-0.1240234375,-1.05859375,-0.24609375
940,-0.0595703125,-1.1357421875,-0.2861328125
941,0.021484375,-1.2158203125,-0.2802734375
942,0.0986328125,-1.296875,-0.21484375
943,0.1611328125,-1.3681640625,-0.13671875
944,0.1943359375,-1.443359375,-0.0625
945,0.189453125,-1.513671875,-0.013671875
946,0.232421875,-1.5712890625,0.03125
947,0.2978515625,-1.5888671875,0.0673828125
948,0.3720703125,-1.5556640625,0.064453125
949,0.453125,-1.478515625,0.041015625
950,0.52734375,-1.396484375,0.033203125
951,0.59765625,-1.314453125,0.046875
952,0.6533203125,-1.26171875,0.08203125
953,0.677734375,-1.2607421875,0.1318359375
954,0.6689453125,-1.2861328125,0.201171875
955,0.623046875,-1.326171875,0.2548828125
956,0.5068359375,-1.3466796875,0.2880859375
957,0.3623046875,-1.3662109375,0.267578125
958,0.21875,-1.3662109375,0.208984375
959,0.0703125,-1.345703125,0.12109375
960,-0.0693359375,-1.306640625,-0.0546875
961,-0.1748046875,-1.2587890625,-0.43359375
962,-0.240234375,-1.16015625,-0.732421875
963,-0.228515625,-1.0654296875,-1.119140625
964,-0.224609375,-0.994140625,-1.59765625
965,-0.1982421875,-0.9501953125,-1.9580078125
966,-0.1572265625,-0.994140625,-2.02734375
967,-0.07421875,-1.111328125,-1.7958984375
968,0.05859375,-1.322265625,-1.3994140625
969,0.2021484375,-1.587890625,-1.091796875
970,0.32421875,-1.8203125,-0.8056640625
971,0.4765625,-1.9892578125,-0.5361328125
972,0.560546875,-2.06640625,-0.3681640625
973,0.5390625,-2.048828125,-0.419921875
974,0.427734375,-1.94140625,-0.6513671875
975,0.2578125,-1.7353515625,-0.900390625
976,0.1220703125,-1.4794921875,-1.087890625
977,-0.0107421875,-1.23046875,-1.130859375
978,-0.095703125,-1.05078125,-1.0712890625
979,-0.138671875,-0.9111328125,-0.8876953125
980,-0.205078125,-0.8203125,-0.638671875
981,-0.2783203125,-0.8154296875,-0.376953125
982,-0.3505859375,-0.85546875,-0.1962890625
983,-0.3955078125,-0.8974609375,-0.1171875
984,-0.3974609375,-0.9169921875,-0.09765625
985,-0.3603515625,-0.916015625,-0.134765625
986,-0.294921875,-0.9111328125,-0.2119140625
987,-0.236328125,-0.8876953125,-0.306640625
988,-0.2001953125,-0.8447265625,-0.3828125
989,-0.17578125,-0.8037109375,-0.453125
990,-0.146484375,-0.76953125,-0.50390625
991,-0.1064453125,-0.7333984375,-0.52734375
992,-0.0537109375,-0.689453125,-0.5166015625
993,0.0205078125,-0.642578125,-0.47265625
994,0.0947265625,-0.595703125,-0.439453125
995,0.1796875,-0.5673828125,-0.396484375
996,0.2470703125,-0.521484375,-0.33984375
997,0.2568359375,-0.498046875,-0.30859375
998,0.259765625,-0.4658203125,-0.283203125
999,0.26171875,-0.4384765625,-0.2568359375
1000,0.2607421875,-0.412109375,-0.2412109375
1001,0.2421875,-0.3681640625,-0.220703125
1002,0.21484375,-0.3359375,-0.20703125
1003,0.2158203125,-0.330078125,-0.18359375
1004,0.1943359375,-0.3046875,-0.1630859375
1005,0.1640625,-0.287109375,-0.134765625
1006,0.13671875,-0.240234375,-0.1103515625
1007,0.099609375,-0.1884765625,-0.111328125
1008,0.0830078125,-0.1484375,-0.119140625
1009,0.048828125,-0.1318359375,-0.1328125
1010,0.0439453125,-0.1328125,-0.126953125
1011,0.0234375,-0.1416015625,-0.1240234375
1012,-0.0009765625,-0.1767578125,-0.10546875
1013,-0.0283203125,-0.2431640625,-0.095703125
1014,-0.04296875,-0.31640625,-0.07421875
1015,-0.0615234375,-0.3984375,-0.0419921875
1016,-0.0634765625,-0.458984375,-0.01171875
1017,-0.068359375,-0.5126953125,0.0107421875
1018,-0.0712890625,-0.5654296875,0.025390625
1019,-0.0869140625,-0.59765625,0.044921875
1020,-0.0966796875,-0.6171875,0.0517578125
1021,-0.103515625,-0.6259765625,0.0556640625
1022,-0.0986328125,-0.6201171875,0.044921875
1023,-0.08984375,-0.6083984375,0.0166015625
1024,-0.078125,-0.6083984375,-0.013671875
1025,-0.06640625,-0.60546875,-0.0556640625
1026,-0.0517578125,-0.626953125,-0.111328125
1027,-0.0400390625,-0.6904296875,-0.1640625
1028,0.0,-0.7724609375,-0.2021484375
1029,0.0341796875,-0.8876953125,-0.224609375
1030,0.0625,-1.0283203125,-0.2236328125
1031,0.072265625,-1.17578125,-0.21484375
1032,0.0693359375,-1.3271484375,-0.1962890625
1033,0.033203125,-1.435546875,-0.1455078125
1034,-0.033203125,-1.5380859375,-0.0791015625
1035,-0.115234375,-1.6171875,-0.0166015625
1036,-0.240234375,-1.6728515625,0.0478515625
1037,-0.392578125,-1.701171875,0.0947265625
1038,-0.548828125,-1.701171875,0.1083984375
1039,-0.703125,-1.6796875,0.09765625
1040,-0.8203125,-1.630859375,0.0849609375
1041,-0.8720703125,-1.59375,0.123046875
1042,-0.90234375,-1.533203125,0.1865234375
1043,-0.873046875,-1.5009765625,0.23828125
1044,-0.7822265625,-1.4794921875,0.2705078125
1045,-0.6171875,-1.47265625,0.263671875
1046,-0.4130859375,-1.453125,0.2451171875
1047,-0.2236328125,-1.427734375,0.201171875
1048,-0.03125,-1.3798828125,0.0869140625
1049,0.1650390625,-1.326171875,-0.1162109375
1050,0.3583984375,-1.2666015625,-0.5625
1051,0.3671875,-1.1845703125,-0.9833984375
1052,0.154296875,-1.1064453125,-1.2998046875
1053,-0.0712890625,-1.0341796875,-1.63671875
1054,-0.1669921875,-0.9453125,-1.9052734375
1055,-0.16015625,-0.9287109375,-1.8115234375
1056,-0.126953125,-0.986328125,-1.37109375
1057,-0.1962890625,-1.134765625,-0.873046875
1058,-0.3330078125,-1.384765625,-0.4892578125
1059,-0.3984375,-1.71875,-0.3427734375
1060,-0.36328125,-1.853515625,-0.17578125
1061,-0.271484375,-1.853515625,-0.048828125
1062,-0.162109375,-1.802734375,-0.1025390625
1063,-0.1259765625,-1.6943359375,-0.35546875
1064,-0.1171875,-1.5263671875,-0.703125
1065,-0.119140625,-1.3203125,-1.041015625
1066,-0.14453125,-1.1328125,-1.17578125
1067,-0.1416015625,-1.0185546875,-1.107421875
1068,-0.0927734375,-0.97265625,-0.8759765625
1069,-0.048828125,-0.96875,-0.5693359375
1070,-0.0029296875,-1.0,-0.326171875
1071,0.0234375,-1.0302734375,-0.197265625
1072,0.03515625,-0.9912109375,-0.14453125
1073,-0.0009765625,-0.9111328125,-0.14453125
1074,-0.037109375,-0.8037109375,-0.1962890625
1075,-0.046875,-0.7294921875,-0.2705078125
1076,-0.04296875,-0.6943359375,-0.3330078125
1077,-0.0341796875,-0.673828125,-0.3759765625
1078,-0.0283203125,-0.6513671875,-0.3857421875
1079,-0.033203125,-0.6435546875,-0.3642578125
1080,-0.048828125,-0.66015625,-0.3330078125
1081,-0.0751953125,-0.6728515625,-0.2978515625
1082,-0.1103515625,-0.66796875,-0.2578125
1083,-0.1474609375,-0.6513671875,-0.232421875
1084,-0.1611328125,-0.6201171875,-0.2099609375
1085,-0.169921875,-0.5751953125,-0.1962890625
1086,-0.15625,-0.5517578125,-0.1953125
1087,-0.1318359375,-0.52734375,-0.203125
1088,-0.1259765625,-0.48828125,-0.1884765625
1089,-0.0791015625,-0.4453125,-0.1640625
1090,-0.0302734375,-0.3994140625,-0.126953125
1091,0.0029296875,-0.33203125,-0.1318359375
1092,0.021484375,-0.279296875,-0.1435546875
1093,0.0419921875,-0.2373046875,-0.140625
1094,0.0361328125,-0.1904296875,-0.140625
1095,0.029296875,-0.1533203125,-0.1513671875
1096,0.009765625,-0.11328125,-0.1728515625
1097,0.00390625,-0.0849609375,-0.1904296875
1098,0.013671875,-0.056640625,-0.2041015625
1099,0.0361328125,-0.076171875,-0.2119140625
1100,0.046875,-0.1279296875,-0.2197265625
1101,0.0673828125,-0.1982421875,-0.208984375
1102,0.0673828125,-0.2763671875,-0.1875
1103,0.05859375,-0.3623046875,-0.166015625
1104,0.0419921875,-0.4482421875,-0.12890625
1105,0.0439453125,-0.5302734375,-0.0888671875
1106,0.0361328125,-0.61328125,-0.052734375
1107,0.0380859375,-0.66796875,0.0
1108,0.0439453125,-0.7138671875,0.02734375
1109,0.044921875,-0.75,0.0390625
1110,0.0224609375,-0.76953125,0.0390625
1111,-0.0068359375,-0.775390625,0.021484375
1112,-0.0498046875,-0.759765625,-0.017578125
1113,-0.0712890625,-0.7548828125,-0.0576171875
1114,-0.09765625,-0.765625,-0.109375
1115,-0.1123046875,-0.802734375,-0.1630859375
1116,-0.0966796875,-0.875,-0.2041015625
1117,-0.0546875,-0.982421875,-0.228515625
1118,0.0126953125,-1.123046875,-0.2177734375
1119,0.087890625,-1.2705078125,-0.1826171875
1120,0.17578125,-1.388671875,-0.1396484375
1121,0.236328125,-1.49609375,-0.0849609375
1122,0.265625,-1.591796875,-0.0087890625
1123,0.2880859375,-1.666015625,0.0390625
1124,0.3125,-1.705078125,0.0478515625
1125,0.3486328125,-1.69921875,0.0185546875
1126,0.4013671875,-1.654296875,-0.0107421875
1127,0.4697265625,-1.583984375,-0.0244140625
1128,0.552734375,-1.5029296875,-0.0068359375
1129,0.623046875,-1.439453125,0.0166015625
1130,0.6728515625,-1.4013671875,0.052734375
1131,0.6865234375,-1.359375,0.12109375
1132,0.6748046875,-1.3642578125,0.166015625
1133,0.6123046875,-1.357421875,0.19921875
1134,0.49609375,-1.345703125,0.166015625
1135,0.3623046875,-1.3203125,0.0732421875
1136,0.21875,-1.287109375,-0.0888671875
1137,0.0849609375,-1.2763671875,-0.3544921875
1138,-0.041015625,-1.2294921875,-0.732421875
1139,-0.0888671875,-1.19140625,-1.048828125
1140,-0.142578125,-1.1806640625,-1.3447265625
1141,-0.2021484375,-1.1767578125,-1.626953125
1142,-0.2548828125,-1.2001953125,-1.6865234375
1143,-0.216796875,-1.27734375,-1.5009765625
1144,-0.12109375,-1.390625,-1.1337890625
1145,0.0107421875,-1.59765625,-0.751953125
1146,0.095703125,-1.802734375,-0.4873046875
1147,0.1748046875,-1.9580078125,-0.33984375
1148,0.205078125,-2.0498046875,-0.2529296875
1149,0.185546875,-2.0166015625,-0.279296875
1150,0.125,-1.89453125,-0.462890625
1151,0.037109375,-1.7001953125,-0.6982421875
1152,-0.0654296875,-1.4306640625,-0.921875
1153,-0.1455078125,-1.158203125,-1.0927734375
1154,-0.2021484375,-0.9111328125,-1.1494140625
1155,-0.201171875,-0.697265625,-1.0986328125
1156,-0.1591796875,-0.5966796875,-0.966796875
1157,-0.0908203125,-0.5888671875,-0.7578125
1158,-0.037109375,-0.62109375,-0.5166015625
1159,-0.0078125,-0.6904296875,-0.359375
1160,0.013671875,-0.736328125,-0.265625
1161,0.02734375,-0.77734375,-0.232421875
1162,0.021484375,-0.806640625,-0.2568359375
1163,0.01953125,-0.833984375,-0.3056640625
1164,0.0126953125,-0.83984375,-0.35546875
1165,0.0146484375,-0.8447265625,-0.380859375
1166,0.013671875,-0.828125,-0.40625
1167,0.02734375,-0.8095703125,-0.4052734375
1168,0.0576171875,-0.7919921875,-0.4052734375
1169,0.0830078125,-0.7646484375,-0.4013671875
1170,0.115234375,-0.73046875,-0.3818359375
1171,0.1376953125,-0.6826171875,-0.359375
1172,0.158203125,-0.62109375,-0.3330078125
1173,0.1572265625,-0.5517578125,-0.3125
1174,0.1669921875,-0.4736328125,-0.287109375
1175,0.15625,-0.3994140625,-0.2626953125
1176,0.1474609375,-0.3349609375,-0.251953125
1177,0.1259765625,-0.2861328125,-0.240234375
1178,0.1123046875,-0.2392578125,-0.2294921875
1179,0.0869140625,-0.19921875,-0.2109375
1180,0.064453125,-0.1826171875,-0.1904296875
1181,0.0693359375,-0.2041015625,-0.177734375
1182,0.0458984375,-0.2119140625,-0.1484375
1183,0.0205078125,-0.21875,-0.1318359375
1184,0.0087890625,-0.248046875,-0.119140625
1185,-0.0009765625,-0.2705078125,-0.0947265625
1186,-0.029296875,-0.30078125,-0.0849609375
1187,-0.0546875,-0.3154296875,-0.0771484375
1188,-0.1044921875,-0.328125,-0.0791015625
1189,-0.13671875,-0.3271484375,-0.0791015625
1190,-0.126953125,-0.35546875,-0.08984375
1191,-0.1103515625,-0.396484375,-0.1025390625
1192,-0.0966796875,-0.44140625,-0.1044921875
1193,-0.083984375,-0.4853515625,-0.103515625
1194,-0.064453125,-0.5087890625,-0.0810546875
1195,-0.04296875,-0.55078125,-0.064453125
1196,-0.0341796875,-0.5810546875,-0.048828125
1197,-0.03125,-0.619140625,-0.0302734375
1198,-0.01953125,-0.646484375,-0.017578125
1199,-0.0224609375,-0.6806640625,-0.0146484375
1200,-0.0146484375,-0.7080078125,-0.0224609375
1201,0.001953125,-0.7529296875,-0.0419921875
1202,0.0166015625,-0.79296875,-0.0654296875
1203,0.0234375,-0.8515625,-0.107421875
1204,0.00390625,-0.9267578125,-0.13671875
1205,-0.03125,-1.0234375,-0.1474609375
1206,-0.0625,-1.1240234375,-0.1669921875
1207,-0.087890625,-1.2578125,-0.193359375
1208,-0.099609375,-1.380859375,-0.212890625
1209,-0.1083984375,-1.509765625,-0.193359375
1210,-0.103515625,-1.625,-0.1318359375
1211,-0.08984375,-1.697265625,-0.0517578125
1212,-0.0859375,-1.732421875,0.001953125
1213,-0.1123046875,-1.7431640625,0.033203125
1214,-0.1904296875,-1.7216796875,0.052734375
1215,-0.31640625,-1.6845703125,0.0703125
1216,-0.4462890625,-1.6376953125,0.0673828125
1217,-0.5830078125,-1.556640625,0.064453125
1218,-0.6787109375,-1.4677734375,0.0693359375
1219,-0.7451171875,-1.33984375,0.087890625
1220,-0.7734375,-1.2294921875,0.123046875
1221,-0.74609375,-1.16796875,0.1728515625
1222,-0.669921875,-1.1484375,0.2158203125
1223,-0.55078125,-1.150390625,0.2431640625
1224,-0.431640625,-1.162109375,0.23046875
1225,-0.2998046875,-1.1904296875,0.2060546875
1226,-0.146484375,-1.201171875,0.1015625
1227,0.0078125,-1.1982421875,-0.091796875
1228,0.1884765625,-1.177734375,-0.591796875
1229,0.24609375,-1.1513671875,-1.015625
1230,0.03515625,-1.09765625,-1.2607421875
1231,-0.1630859375,-1.041015625,-1.5517578125
1232,-0.2802734375,-0.9814453125,-1.88671875
1233,-0.3046875,-0.935546875,-1.892578125
1234,-0.21875,-0.982421875,-1.484375
1235,-0.1552734375,-1.1376953125,-0.98046875
1236,-0.208984375,-1.3759765625,-0.615234375
1237,-0.3359375,-1.6279296875,-0.408203125
1238,-0.3701171875,-1.7802734375,-0.28125
1239,-0.2919921875,-1.798828125,-0.1572265625
1240,-0.1435546875,-1.78125,-0.0927734375
1241,-0.044921875,-1.7080078125,-0.19921875
1242,-0.0234375,-1.5810546875,-0.4599609375
1243,-0.001953125,-1.4052734375,-0.787109375
1244,0.013671875,-1.23046875,-1.0537109375
1245,0.0146484375,-1.08203125,-1.1435546875
1246,0.013671875,-0.9677734375,-1.0615234375
1247,0.033203125,-0.8984375,-0.8203125
1248,0.0771484375,-0.8720703125,-0.55078125
1249,0.1416015625,-0.8916015625,-0.3408203125
1250,0.1337890625,-0.8681640625,-0.203125
1251,0.0966796875,-0.8251953125,-0.171875
1252,0.05859375,-0.779296875,-0.1904296875
1253,0.0302734375,-0.740234375,-0.2421875
1254,0.0,-0.705078125,-0.302734375
1255,-0.0078125,-0.6630859375,-0.3603515625
1256,-0.025390625,-0.6298828125,-0.3916015625
1257,-0.048828125,-0.5986328125,-0.3974609375
1258,-0.0771484375,-0.5791015625,-0.38671875
1259,-0.1064453125,-0.5703125,-0.361328125
1260,-0.1337890625,-0.5654296875,-0.3173828125
1261,-0.16796875,-0.560546875,-0.2822265625
1262,-0.173828125,-0.5712890625,-0.2509765625
1263,-0.18359375,-0.5673828125,-0.228515625
1264,-0.173828125,-0.56640625,-0.205078125
1265,-0.1591796875,-0.55078125,-0.19921875
1266,-0.146484375,-0.533203125,-0.201171875
1267,-0.1025390625,-0.509765625,-0.1962890625
1268,-0.0400390625,-0.4765625,-0.1787109375
1269,-0.0107421875,-0.4296875,-0.171875
1270,0.0087890625,-0.3681640625,-0.1767578125
1271,0.0224609375,-0.326171875,-0.185546875
1272,0.046875,-0.275390625,-0.185546875
1273,0.0654296875,-0.2294921875,-0.171875
1274,0.0830078125,-0.15625,-0.162109375
1275,0.111328125,-0.0927734375,-0.16796875
1276,0.119140625,-0.0625,-0.1943359375
1277,0.1455078125,-0.064453125,-0.20703125
1278,0.1533203125,-0.064453125,-0.201171875
1279,0.162109375,-0.12109375,-0.201171875
1280,0.1318359375,-0.1787109375,-0.1923828125
1281,0.11328125,-0.2548828125,-0.181640625
1282,0.1142578125,-0.3291015625,-0.150390625
1283,0.0927734375,-0.435546875,-0.123046875
1284,0.076171875,-0.5009765625,-0.08984375
1285,0.0625,-0.572265625,-0.06640625
1286,0.041015625,-0.638671875,-0.0478515625
1287,0.0107421875,-0.701171875,-0.015625
1288,-0.03125,-0.7587890625,0.0048828125
1289,-0.072265625,-0.8154296875,0.0205078125
1290,-0.140625,-0.8828125,0.021484375
1291,-0.177734375,-0.939453125,-0.021484375
1292,-0.21875,-1.0029296875,-0.0322265625
1293,-0.1943359375,-1.076171875,-0.1064453125
1294,-0.146484375,-1.1533203125,-0.185546875
1295,-0.0771484375,-1.2431640625,-0.267578125
1296,-0.001953125,-1.3212890625,-0.2822265625
1297,0.0576171875,-1.3974609375,-0.2470703125
1298,0.091796875,-1.4775390625,-0.20703125
1299,0.1455078125,-1.5419921875,-0.1669921875
1300,0.1650390625,-1.5693359375,-0.142578125
1301,0.16796875,-1.5556640625,-0.142578125
1302,0.1796875,-1.5,-0.1787109375
1303,0.205078125,-1.451171875,-0.1884765625
1304,0.2314453125,-1.38671875,-0.1455078125
1305,0.2822265625,-1.328125,-0.0673828125
1306,0.3583984375,-1.2939453125,0.0283203125
1307,0.4326171875,-1.28515625,0.115234375
1308,0.4990234375,-1.3037109375,0.189453125
1309,0.5478515625,-1.318359375,0.267578125
1310,0.556640625,-1.3486328125,0.3134765625
1311,0.544921875,-1.365234375,0.3193359375
1312,0.4580078125,-1.3671875,0.2861328125
1313,0.3623046875,-1.3515625,0.2275390625
1314,0.2275390625,-1.32421875,0.0654296875
1315,0.0810546875,-1.267578125,-0.15234375
1316,-0.0166015625,-1.22265625,-0.486328125
1317,-0.0458984375,-1.1748046875,-0.8095703125
1318,-0.04296875,-1.115234375,-1.16796875
1319,-0.048828125,-1.03515625,-1.6005859375
1320,-0.0478515625,-0.94921875,-1.919921875
1321,-0.005859375,-0.9404296875,-2.0029296875
1322,0.052734375,-1.0029296875,-1.8212890625
1323,0.1298828125,-1.146484375,-1.4423828125
1324,0.2587890625,-1.3857421875,-1.1259765625
1325,0.380859375,-1.5986328125,-0.8798828125
1326,0.4931640625,-1.78125,-0.6591796875
1327,0.5791015625,-1.888671875,-0.4619140625
1328,0.58984375,-1.9130859375,-0.380859375
1329,0.51953125,-1.9033203125,-0.47265625
1330,0.3974609375,-1.8076171875,-0.681640625
1331,0.2607421875,-1.6259765625,-0.8798828125
1332,0.1220703125,-1.384765625,-1.0126953125
1333,0.005859375,-1.142578125,-1.0771484375
1334,-0.091796875,-0.943359375,-1.05859375
1335,-0.166015625,-0.8193359375,-0.9580078125
1336,-0.2578125,-0.7138671875,-0.794921875
1337,-0.2783203125,-0.681640625,-0.603515625
1338,-0.2744140625,-0.6884765625,-0.44921875
1339,-0.2646484375,-0.701171875,-0.3251953125
1340,-0.2529296875,-0.7255859375,-0.244140625
1341,-0.220703125,-0.7490234375,-0.189453125
1342,-0.2041015625,-0.76953125,-0.1826171875
1343,-0.193359375,-0.775390625,-0.236328125
1344,-0.193359375,-0.765625,-0.3017578125
1345,-0.1884765625,-0.7431640625,-0.3701171875
1346,-0.1787109375,-0.72265625,-0.4326171875
1347,-0.1474609375,-0.693359375,-0.44921875
1348,-0.0927734375,-0.6435546875,-0.443359375
1349,-0.0029296875,-0.6298828125,-0.4228515625
1350,0.056640625,-0.59765625,-0.3916015625
1351,0.1083984375,-0.58984375,-0.3603515625
1352,0.1279296875,-0.5732421875,-0.3359375
1353,0.142578125,-0.5625,-0.3203125
1354,0.15234375,-0.53125,-0.29296875
1355,0.150390625,-0.4833984375,-0.2646484375
1356,0.1435546875,-0.462890625,-0.2421875
1357,0.14453125,-0.4453125,-0.2236328125
1358,0.138671875,-0.4306640625,-0.2001953125
1359,0.126953125,-0.400390625,-0.1806640625
1360,0.1318359375,-0.3603515625,-0.1640625
1361,0.1044921875,-0.326171875,-0.138671875
1362,0.0869140625,-0.2880859375,-0.12109375
1363,0.068359375,-0.244140625,-0.107421875
1364,0.0322265625,-0.197265625,-0.1044921875
1365,0.013671875,-0.1689453125,-0.109375
1366,-0.0087890625,-0.16796875,-0.12109375
1367,-0.0341796875,-0.1923828125,-0.119140625
1368,-0.0263671875,-0.2353515625,-0.109375
1369,-0.015625,-0.3056640625,-0.0966796875
1370,-0.0126953125,-0.365234375,-0.0908203125
1371,-0.005859375,-0.4345703125,-0.087890625
1372,-0.0078125,-0.5,-0.08984375
1373,-0.0263671875,-0.5576171875,-0.0810546875
1374,-0.0380859375,-0.599609375,-0.080078125
1375,-0.0517578125,-0.6357421875,-0.0830078125
1376,-0.05078125,-0.673828125,-0.08984375
1377,-0.0576171875,-0.705078125,-0.107421875
1378,-0.0556640625,-0.7490234375,-0.1220703125
1379,-0.05078125,-0.7958984375,-0.1318359375
1380,-0.041015625,-0.865234375,-0.1376953125
1381,-0.0693359375,-0.931640625,-0.134765625
1382,-0.107421875,-1.0087890625,-0.125
1383,-0.1201171875,-1.09765625,-0.1220703125
1384,-0.1337890625,-1.203125,-0.1416015625
1385,-0.12890625,-1.3173828125,-0.1513671875
1386,-0.1240234375,-1.4052734375,-0.146484375
1387,-0.109375,-1.474609375,-0.1123046875
1388,-0.1171875,-1.501953125,-0.0654296875
1389,-0.1416015625,-1.50390625,-0.0087890625
1390,-0.181640625,-1.4912109375,0.0400390625
1391,-0.2568359375,-1.458984375,0.0498046875
1392,-0.3310546875,-1.408203125,0.0341796875
1393,-0.4208984375,-1.3583984375,0.017578125
1394,-0.494140625,-1.314453125,0.00390625
1395,-0.5419921875,-1.2783203125,0.0341796875
1396,-0.58984375,-1.251953125,0.1044921875
1397,-0.6005859375,-1.2470703125,0.1953125
1398,-0.572265625,-1.2626953125,0.2900390625
1399,-0.51953125,-1.2666015625,0.3447265625
1400,-0.416015625,-1.2705078125,0.3388671875
1401,-0.30078125,-1.2646484375,0.2919921875
1402,-0.1552734375,-1.255859375,0.15625
1403,0.0263671875,-1.2236328125,-0.0224609375
1404,0.2587890625,-1.1923828125,-0.39453125
1405,0.40625,-1.1630859375,-0.7568359375
1406,0.2861328125,-1.13671875,-1.0537109375
1407,0.01953125,-1.12109375,-1.3740234375
1408,-0.177734375,-1.0693359375,-1.8115234375
1409,-0.251953125,-1.0400390625,-2.0302734375
1410,-0.232421875,-1.0751953125,-1.8349609375
1411,-0.1923828125,-1.1884765625,-1.185546875
1412,-0.248046875,-1.435546875,-0.697265625
1413,-0.2890625,-1.6806640625,-0.392578125
1414,-0.2314453125,-1.8671875,-0.2607421875
1415,-0.1689453125,-1.9140625,-0.1611328125
1416,-0.0439453125,-1.87109375,-0.1318359375
1417,0.056640625,-1.7607421875,-0.2509765625
1418,0.07421875,-1.5966796875,-0.5283203125
1419,0.08203125,-1.3955078125,-0.8583984375
1420,0.0634765625,-1.1767578125,-1.1181640625
1421,0.017578125,-1.0166015625,-1.17578125
1422,0.0,-0.9111328125,-1.044921875
1423,0.0146484375,-0.896484375,-0.7646484375
1424,0.0537109375,-0.9150390625,-0.4716796875
1425,0.0673828125,-0.91796875,-0.2607421875
1426,0.08984375,-0.92578125,-0.1806640625
1427,0.05859375,-0.900390625,-0.173828125
1428,-0.0078125,-0.8525390625,-0.2041015625
1429,-0.0478515625,-0.798828125,-0.2412109375
1430,-0.064453125,-0.7529296875,-0.2919921875
1431,-0.0712890625,-0.728515625,-0.3369140625
1432,-0.068359375,-0.71484375,-0.3759765625
1433,-0.0673828125,-0.7001953125,-0.3984375
1434,-0.0791015625,-0.693359375,-0.3974609375
1435,-0.103515625,-0.6806640625,-0.3740234375
1436,-0.123046875,-0.6796875,-0.341796875
1437,-0.1513671875,-0.6796875,-0.3046875
1438,-0.1689453125,-0.666015625,-0.2705078125
1439,-0.1806640625,-0.6435546875,-0.248046875
1440,-0.1728515625,-0.6005859375,-0.228515625
1441,-0.162109375,-0.5673828125,-0.228515625
1442,-0.1328125,-0.513671875,-0.23046875
1443,-0.119140625,-0.462890625,-0.2470703125
1444,-0.0888671875,-0.412109375,-0.2529296875
1445,-0.03515625,-0.3994140625,-0.25
1446,0.0107421875,-0.3759765625,-0.236328125
1447,0.0556640625,-0.3271484375,-0.2060546875
1448,0.083984375,-0.2802734375,-0.185546875
1449,0.0947265625,-0.2451171875,-0.193359375
1450,0.119140625,-0.21875,-0.212890625
1451,0.107421875,-0.1796875,-0.2109375
1452,0.08203125,-0.166015625,-0.208984375
1453,0.07421875,-0.1708984375,-0.2109375
1454,0.0771484375,-0.189453125,-0.2080078125
1455,0.080078125,-0.220703125,-0.1982421875
1456,0.072265625,-0.255859375,-0.1806640625
1457,0.0546875,-0.3310546875,-0.16796875
1458,0.025390625,-0.4033203125,-0.158203125
1459,0.01171875,-0.46875,-0.126953125
1460,0.01171875,-0.5302734375,-0.0859375
1461,0.013671875,-0.58984375,-0.0439453125
1462,0.01953125,-0.634765625,0.0
1463,0.0361328125,-0.67578125,0.037109375
1464,0.056640625,-0.7080078125,0.05859375
1465,0.0654296875,-0.7373046875,0.068359375
1466,0.0537109375,-0.751953125,0.0703125
1467,0.021484375,-0.7626953125,0.044921875
1468,-0.0126953125,-0.779296875,-0.00390625
1469,-0.0546875,-0.7900390625,-0.1044921875
1470,-0.0986328125,-0.8046875,-0.181640625
1471,-0.1220703125,-0.8359375,-0.28125
1472,-0.095703125,-0.9033203125,-0.3603515625
1473,-0.0498046875,-0.98046875,-0.400390625
1474,0.029296875,-1.095703125,-0.3603515625
1475,0.12109375,-1.2275390625,-0.2080078125
1476,0.1845703125,-1.3837890625,-0.060546875
1477,0.2294921875,-1.486328125,0.0703125
1478,0.25390625,-1.591796875,0.16015625
1479,0.3056640625,-1.654296875,0.1923828125
1480,0.3916015625,-1.67578125,0.162109375
1481,0.478515625,-1.64453125,0.0908203125
1482,0.560546875,-1.572265625,0.037109375
1483,0.6005859375,-1.474609375,0.0107421875
1484,0.6337890625,-1.400390625,0.0224609375
1485,0.6376953125,-1.369140625,0.044921875
1486,0.65234375,-1.3701171875,0.0908203125
1487,0.62890625,-1.3818359375,0.1435546875
1488,0.5703125,-1.41015625,0.1806640625
1489,0.453125,-1.4345703125,0.19140625
1490,0.3076171875,-1.431640625,0.154296875
1491,0.1416015625,-1.4140625,0.060546875
1492,-0.0087890625,-1.3837890625,-0.125
1493,-0.134765625,-1.3408203125,-0.4931640625
1494,-0.2392578125,-1.2490234375,-0.8388671875
1495,-0.2841796875,-1.15625,-1.2138671875
1496,-0.30859375,-1.087890625,-1.6298828125
1497,-0.330078125,-1.033203125,-1.9072265625
1498,-0.2958984375,-1.041015625,-1.8671875
1499,-0.216796875,-1.1162109375,-1.55859375
1500,-0.107421875,-1.306640625,-1.1298828125
1501,0.05078125,-1.552734375,-0.791015625
1502,0.203125,-1.7578125,-0.5439453125
1503,0.3505859375,-1.9267578125,-0.345703125
1504,0.4140625,-2.0048828125,-0.2333984375
1505,0.408203125,-1.9814453125,-0.259765625
1506,0.322265625,-1.8544921875,-0.455078125
1507,0.1806640625,-1.6376953125,-0.78515625
1508,0.033203125,-1.298828125,-0.9814453125
1509,-0.06640625,-1.03515625,-1.0654296875
1510,-0.150390625,-0.81640625,-1.05859375
1511,-0.169921875,-0.6875,-0.955078125
1512,-0.1884765625,-0.607421875,-0.765625
1513,-0.20703125,-0.6005859375,-0.5302734375
1514,-0.208984375,-0.6455078125,-0.3388671875
1515,-0.2060546875,-0.6923828125,-0.2001953125
1516,-0.2060546875,-0.7158203125,-0.1240234375
1517,-0.1826171875,-0.7421875,-0.09375
1518,-0.13671875,-0.7724609375,-0.11328125
1519,-0.0791015625,-0.78515625,-0.1748046875
1520,-0.0380859375,-0.7880859375,-0.244140625
1521,-0.00390625,-0.77734375,-0.3076171875
1522,0.0234375,-0.767578125,-0.35546875
1523,0.07421875,-0.7578125,-0.392578125
1524,0.1298828125,-0.75,-0.4072265625
1525,0.18359375,-0.7275390625,-0.400390625
1526,0.2412109375,-0.6962890625,-0.37890625
1527,0.2861328125,-0.66015625,-0.3486328125
1528,0.3115234375,-0.60546875,-0.3154296875
1529,0.3154296875,-0.5546875,-0.2880859375
1530,0.3056640625,-0.4853515625,-0.2548828125
1531,0.279296875,-0.4375,-0.2353515625
1532,0.2412109375,-0.39453125,-0.2333984375
1533,0.2041015625,-0.3603515625,-0.23828125
1534,0.15625,-0.3330078125,-0.232421875
1535,0.1328125,-0.32421875,-0.21484375
1536,0.10546875,-0.3154296875,-0.193359375
1537,0.0419921875,-0.2919921875,-0.1787109375
1538,-0.021484375,-0.2763671875,-0.1640625
1539,-0.052734375,-0.265625,-0.1455078125
1540,-0.0751953125,-0.2578125,-0.140625
1541,-0.1064453125,-0.2724609375,-0.1416015625
1542,-0.1357421875,-0.275390625,-0.126953125
1543,-0.1513671875,-0.2734375,-0.125
1544,-0.15234375,-0.2763671875,-0.1103515625
1545,-0.1513671875,-0.296875,-0.1025390625
1546,-0.146484375,-0.3427734375,-0.0947265625
1547,-0.1318359375,-0.380859375,-0.0947265625
1548,-0.10546875,-0.4384765625,-0.0869140625
1549,-0.0966796875,-0.4892578125,-0.07421875
1550,-0.0712890625,-0.53515625,-0.0615234375
1551,-0.060546875,-0.58984375,-0.05078125
1552,-0.056640625,-0.6318359375,-0.0458984375
1553,-0.046875,-0.66796875,-0.0517578125
1554,-0.03515625,-0.697265625,-0.07421875
1555,-0.0185546875,-0.7275390625,-0.091796875
1556,-0.001953125,-0.7705078125,-0.107421875
1557,0.0166015625,-0.8193359375,-0.1376953125
1558,0.033203125,-0.8974609375,-0.15625
1559,0.041015625,-0.98828125,-0.1728515625
1560,0.05859375,-1.09765625,-0.1748046875
1561,0.076171875,-1.20703125,-0.171875
1562,0.1044921875,-1.330078125,-0.15625
1563,0.1064453125,-1.43359375,-0.1533203125
1564,0.0771484375,-1.5087890625,-0.154296875
1565,0.037109375,-1.5537109375,-0.1201171875
1566,-0.03515625,-1.5576171875,-0.05859375
1567,-0.123046875,-1.5478515625,0.00390625
1568,-0.2255859375,-1.5048828125,0.03515625
1569,-0.3642578125,-1.4658203125,0.05859375
1570,-0.5068359375,-1.4248046875,0.0634765625
1571,-0.6572265625,-1.3818359375,0.0634765625
1572,-0.7587890625,-1.357421875,0.0673828125
1573,-0.8154296875,-1.3369140625,0.12109375
1574,-0.8212890625,-1.3271484375,0.2119140625
1575,-0.7724609375,-1.337890625,0.2734375
1576,-0.6669921875,-1.3701171875,0.283203125
1577,-0.52734375,-1.3955078125,0.25
1578,-0.3828125,-1.421875,0.2021484375
1579,-0.24609375,-1.41015625,0.138671875
1580,-0.080078125,-1.388671875,0.0087890625
1581,0.107421875,-1.3408203125,-0.2412109375
1582,0.279296875,-1.279296875,-0.6904296875
1583,0.2373046875,-1.181640625,-1.1044921875
1584,0.01953125,-1.09375,-1.37109375
1585,-0.171875,-0.9990234375,-1.6640625
1586,-0.2412109375,-0.9287109375,-1.90234375
1587,-0.2705078125,-0.9072265625,-1.7685546875
1588,-0.220703125,-0.9609375,-1.2763671875
1589,-0.2275390625,-1.1435546875,-0.74609375
1590,-0.3388671875,-1.3828125,-0.41796875
1591,-0.416015625,-1.6455078125,-0.26953125
1592,-0.388671875,-1.7861328125,-0.1669921875
1593,-0.26171875,-1.796875,-0.0498046875
1594,-0.0927734375,-1.7578125,-0.009765625
1595,0.005859375,-1.6591796875,-0.181640625
1596,0.017578125,-1.498046875,-0.5556640625
1597,0.0146484375,-1.3056640625,-1.001953125
1598,0.015625,-1.1240234375,-1.283203125
1599,0.0322265625,-0.9765625,-1.3037109375
1600,0.0849609375,-0.9013671875,-1.0849609375
1601,0.1494140625,-0.8837890625,-0.7333984375
1602,0.197265625,-0.919921875,-0.408203125
1603,0.21875,-0.9658203125,-0.2138671875
1604,0.2109375,-0.9814453125,-0.1279296875
1605,0.15234375,-0.93359375,-0.1044921875
1606,0.0595703125,-0.873046875,-0.1279296875
1607,0.01171875,-0.80859375,-0.177734375
1608,-0.0322265625,-0.771484375,-0.2451171875
1609,-0.052734375,-0.734375,-0.2978515625
1610,-0.0703125,-0.6982421875,-0.3359375
1611,-0.1025390625,-0.6591796875,-0.3515625
1612,-0.134765625,-0.626953125,-0.3525390625
1613,-0.181640625,-0.6015625,-0.322265625
1614,-0.2158203125,-0.59765625,-0.2763671875
1615,-0.232421875,-0.58984375,-0.220703125
1616,-0.2529296875,-0.5830078125,-0.1591796875
1617,-0.236328125,-0.5732421875,-0.1142578125
1618,-0.2158203125,-0.5537109375,-0.0849609375
1619,-0.1943359375,-0.5263671875,-0.080078125
1620,-0.166015625,-0.490234375,-0.0791015625
1621,-0.126953125,-0.4345703125,-0.08984375
1622,-0.0712890625,-0.3974609375,-0.109375
1623,0.001953125,-0.36328125,-0.123046875
1624,0.048828125,-0.33984375,-0.1416015625
1625,0.0908203125,-0.3046875,-0.1552734375
1626,0.1171875,-0.2646484375,-0.1708984375
1627,0.1337890625,-0.22265625,-0.189453125
1628,0.1494140625,-0.2060546875,-0.2109375
1629,0.1767578125,-0.1875,-0.2294921875
1630,0.17578125,-0.1826171875,-0.2412109375
1631,0.1552734375,-0.2099609375,-0.2392578125
1632,0.12890625,-0.251953125,-0.21484375
1633,0.1005859375,-0.310546875,-0.197265625
1634,0.07421875,-0.4033203125,-0.1650390625
1635,0.0498046875,-0.4765625,-0.115234375
1636,0.021484375,-0.53515625,-0.0556640625
1637,0.01171875,-0.607421875,-0.0068359375
1638,0.00390625,-0.650390625,0.021484375
1639,0.0087890625,-0.685546875,0.041015625
1640,0.015625,-0.705078125,0.046875
1641,0.0146484375,-0.708984375,0.0458984375
1642,0.0087890625,-0.7265625,0.0361328125
1643,-0.01953125,-0.724609375,0.0185546875
1644,-0.0625,-0.7373046875,-0.0400390625
1645,-0.099609375,-0.751953125,-0.060546875
1646,-0.1318359375,-0.7705078125,-0.099609375
1647,-0.1611328125,-0.8017578125,-0.171875
1648,-0.181640625,-0.869140625,-0.24609375
1649,-0.17578125,-0.96484375,-0.30078125
1650,-0.130859375,-1.08984375,-0.2998046875
1651,-0.037109375,-1.228515625,-0.2333984375
1652,0.06640625,-1.361328125,-0.1318359375
1653,0.1552734375,-1.4833984375,-0.005859375
1654,0.19921875,-1.607421875,0.115234375
1655,0.2177734375,-1.685546875,0.208984375
1656,0.2744140625,-1.7412109375,0.251953125
1657,0.359375,-1.7490234375,0.2529296875
1658,0.45703125,-1.7041015625,0.205078125
1659,0.556640625,-1.6044921875,0.158203125
1660,0.6533203125,-1.4873046875,0.103515625
1661,0.720703125,-1.4013671875,0.046875
1662,0.7626953125,-1.3291015625,0.0234375
1663,0.7578125,-1.2861328125,0.0576171875
1664,0.69921875,-1.2890625,0.1162109375
1665,0.603515625,-1.3203125,0.15625
1666,0.4677734375,-1.3349609375,0.171875
1667,0.3330078125,-1.3466796875,0.1552734375
1668,0.1767578125,-1.3408203125,0.1044921875
1669,-0.0107421875,-1.2900390625,-0.015625
1670,-0.177734375,-1.244140625,-0.2802734375
1671,-0.3310546875,-1.146484375,-0.6650390625
1672,-0.2841796875,-1.05078125,-1.01953125
1673,-0.2314453125,-0.9443359375,-1.458984375
1674,-0.2119140625,-0.8642578125,-1.94140625
1675,-0.2236328125,-0.82421875,-2.2255859375
1676,-0.2412109375,-0.8818359375,-2.048828125
1677,-0.1591796875,-1.0498046875,-1.5927734375
1678,0.033203125,-1.3671875,-1.0751953125
1679,0.2158203125,-1.705078125,-0.677734375
1680,0.3798828125,-1.9921875,-0.3779296875
1681,0.5322265625,-2.1875,-0.1494140625
1682,0.6103515625,-2.25390625,-0.0693359375
1683,0.5693359375,-2.19921875,-0.2509765625
1684,0.4111328125,-2.037109375,-0.57421875
1685,0.18359375,-1.7548828125,-0.8916015625
1686,0.0029296875,-1.4453125,-1.09375
1687,-0.1455078125,-1.1337890625,-1.1943359375
1688,-0.26171875,-0.8759765625,-1.185546875
1689,-0.3134765625,-0.7041015625,-1.0810546875
1690,-0.3251953125,-0.61328125,-0.873046875
1691,-0.3173828125,-0.623046875,-0.59375
1692,-0.3125,-0.65234375,-0.3984375
1693,-0.298828125,-0.66796875,-0.2294921875
1694,-0.275390625,-0.69921875,-0.1298828125
1695,-0.2001953125,-0.71484375,-0.1044921875
1696,-0.123046875,-0.7275390625,-0.138671875
1697,-0.0537109375,-0.728515625,-0.193359375
1698,-0.0068359375,-0.73046875,-0.2666015625
1699,0.0380859375,-0.7275390625,-0.337890625
1700,0.0810546875,-0.73046875,-0.3974609375
1701,0.138671875,-0.7158203125,-0.421875
1702,0.2041015625,-0.6904296875,-0.4140625
1703,0.2763671875,-0.6640625,-0.4033203125
1704,0.3203125,-0.6298828125,-0.36328125
1705,0.35546875,-0.6025390625,-0.3271484375
1706,0.365234375,-0.560546875,-0.2939453125
1707,0.3544921875,-0.5224609375,-0.25
1708,0.3173828125,-0.4677734375,-0.23046875
1709,0.283203125,-0.431640625,-0.23046875
1710,0.234375,-0.375,-0.2294921875
1711,0.2080078125,-0.3486328125,-0.2333984375
1712,0.19921875,-0.349609375,-0.2373046875
1713,0.1552734375,-0.3349609375,-0.220703125
1714,0.0927734375,-0.314453125,-0.208984375
1715,0.044921875,-0.2939453125,-0.1953125
1716,-0.001953125,-0.271484375,-0.1767578125
1717,-0.044921875,-0.248046875,-0.1591796875
1718,-0.0888671875,-0.22265625,-0.1484375
1719,-0.111328125,-0.203125,-0.1455078125
1720,-0.146484375,-0.1923828125,-0.138671875
1721,-0.154296875,-0.2099609375,-0.1337890625
1722,-0.146484375,-0.2431640625,-0.1083984375
1723,-0.142578125,-0.294921875,-0.0849609375
1724,-0.1201171875,-0.3603515625,-0.06640625
1725,-0.115234375,-0.439453125,-0.0361328125
1726,-0.0986328125,-0.484375,-0.005859375
1727,-0.0732421875,-0.5302734375,0.0029296875
1728,-0.05859375,-0.5712890625,0.0166015625
1729,-0.041015625,-0.5966796875,0.025390625
1730,-0.0302734375,-0.615234375,0.013671875
1731,-0.00390625,-0.630859375,-0.00390625
1732,0.033203125,-0.6513671875,-0.03515625
1733,0.0712890625,-0.6748046875,-0.0830078125
1734,0.0966796875,-0.736328125,-0.1396484375
1735,0.09375,-0.77734375,-0.171875
1736,0.08203125,-0.8515625,-0.1982421875
1737,0.0625,-0.9541015625,-0.2236328125
1738,0.048828125,-1.0830078125,-0.2646484375
1739,0.029296875,-1.228515625,-0.263671875
1740,0.017578125,-1.3759765625,-0.224609375
1741,-0.015625,-1.505859375,-0.13671875
1742,-0.0263671875,-1.60546875,-0.0380859375
1743,-0.0390625,-1.6572265625,0.0244140625
1744,-0.095703125,-1.6650390625,0.068359375
1745,-0.166015625,-1.6533203125,0.0927734375
1746,-0.2802734375,-1.6162109375,0.09765625
1747,-0.4208984375,-1.568359375,0.0703125
1748,-0.5654296875,-1.5107421875,0.044921875
1749,-0.6923828125,-1.47265625,0.03125
1750,-0.783203125,-1.4365234375,0.0693359375
1751,-0.8349609375,-1.40625,0.1572265625
1752,-0.8564453125,-1.4072265625,0.2626953125
1753,-0.826171875,-1.423828125,0.33203125
1754,-0.7587890625,-1.4345703125,0.3466796875
1755,-0.62890625,-1.44140625,0.2978515625
1756,-0.4501953125,-1.4453125,0.216796875
1757,-0.28125,-1.4091796875,0.1171875
1758,-0.05859375,-1.3681640625,0.005859375
1759,0.115234375,-1.31640625,-0.296875
1760,0.2177734375,-1.2490234375,-0.7158203125
1761,0.142578125,-1.15625,-1.111328125
1762,-0.0498046875,-1.08984375,-1.466796875
1763,-0.1904296875,-1.0087890625,-1.779296875
1764,-0.193359375,-0.962890625,-1.8056640625
1765,-0.146484375,-0.9912109375,-1.328125
1766,-0.103515625,-1.1298828125,-0.8193359375
1767,-0.1796875,-1.3330078125,-0.4892578125
1768,-0.306640625,-1.5673828125,-0.361328125
1769,-0.3369140625,-1.7177734375,-0.259765625
1770,-0.2568359375,-1.79296875,-0.1103515625
1771,-0.1162109375,-1.7802734375,-0.0380859375
1772,-0.0400390625,-1.68359375,-0.2255859375
1773,-0.03125,-1.5068359375,-0.6298828125
1774,-0.029296875,-1.318359375,-1.0302734375
1775,-0.01953125,-1.13671875,-1.2109375
1776,-0.00390625,-0.9990234375,-1.1552734375
1777,0.041015625,-0.9287109375,-0.912109375
1778,0.0947265625,-0.8896484375,-0.5791015625
1779,0.158203125,-0.8857421875,-0.2861328125
1780,0.19140625,-0.8974609375,-0.1240234375
1781,0.16796875,-0.8974609375,-0.07421875
1782,0.0927734375,-0.84375,-0.0908203125
1783,0.01171875,-0.79296875,-0.15625
1784,-0.0654296875,-0.7470703125,-0.205078125
1785,-0.1064453125,-0.7119140625,-0.2587890625
1786,-0.126953125,-0.69921875,-0.3076171875
1787,-0.1435546875,-0.701171875,-0.3544921875
1788,-0.146484375,-0.6982421875,-0.3681640625
1789,-0.16015625,-0.681640625,-0.3720703125
1790,-0.173828125,-0.662109375,-0.3515625
1791,-0.1962890625,-0.638671875,-0.326171875
1792,-0.2060546875,-0.6220703125,-0.28515625
1793,-0.2177734375,-0.59765625,-0.23828125
1794,-0.2177734375,-0.5712890625,-0.1953125
1795,-0.2177734375,-0.5537109375,-0.1630859375
1796,-0.21484375,-0.509765625,-0.1328125
1797,-0.19140625,-0.48046875,-0.1259765625
1798,-0.134765625,-0.458984375,-0.1337890625
1799,-0.0751953125,-0.4609375,-0.1455078125
1800,0.001953125,-0.4501953125,-0.158203125
1801,0.0439453125,-0.4169921875,-0.171875
1802,0.0517578125,-0.3955078125,-0.197265625
1803,0.0654296875,-0.3837890625,-0.2158203125
1804,0.0751953125,-0.359375,-0.240234375
1805,0.109375,-0.3349609375,-0.248046875
1806,0.1494140625,-0.306640625,-0.2490234375
1807,0.201171875,-0.2939453125,-0.240234375
1808,0.2275390625,-0.294921875,-0.2060546875
1809,0.2421875,-0.3056640625,-0.166015625
1810,0.2490234375,-0.3349609375,-0.1181640625
1811,0.2470703125,-0.369140625,-0.0791015625
1812,0.21875,-0.419921875,-0.046875
1813,0.1806640625,-0.4697265625,-0.013671875
1814,0.146484375,-0.5263671875,0.0126953125
1815,0.115234375,-0.580078125,0.03515625
1816,0.083984375,-0.6376953125,0.0419921875
1817,0.044921875,-0.6962890625,0.0439453125
1818,0.0146484375,-0.734375,0.0458984375
1819,-0.0263671875,-0.7587890625,0.041015625
1820,-0.0576171875,-0.7646484375,0.0263671875
1821,-0.0771484375,-0.7646484375,0.0087890625
1822,-0.1015625,-0.751953125,-0.046875
1823,-0.1376953125,-0.7412109375,-0.1259765625
1824,-0.1708984375,-0.7470703125,-0.2568359375
1825,-0.203125,-0.7744140625,-0.3662109375
1826,-0.1787109375,-0.826171875,-0.4375
1827,-0.11328125,-0.9248046875,-0.4111328125
1828,-0.01171875,-1.0498046875,-0.3203125
1829,0.0771484375,-1.19140625,-0.1591796875
1830,0.1591796875,-1.361328125,0.1025390625
1831,0.21484375,-1.548828125,0.2529296875
1832,0.2841796875,-1.666015625,0.3310546875
1833,0.33203125,-1.7197265625,0.3271484375
1834,0.376953125,-1.7236328125,0.263671875
1835,0.3818359375,-1.671875,0.169921875
1836,0.3662109375,-1.5859375,0.1083984375
1837,0.345703125,-1.4814453125,0.0947265625
1838,0.3466796875,-1.3984375,0.103515625
1839,0.3583984375,-1.341796875,0.12890625
1840,0.3525390625,-1.310546875,0.1650390625
1841,0.310546875,-1.291015625,0.1943359375
1842,0.25390625,-1.263671875,0.208984375
1843,0.181640625,-1.2412109375,0.2080078125
1844,0.11328125,-1.205078125,0.201171875
1845,0.02734375,-1.1826171875,0.1611328125
1846,-0.0693359375,-1.1572265625,0.0107421875
1847,-0.1396484375,-1.126953125,-0.3271484375
1848,-0.146484375,-1.046875,-0.7626953125
1849,-0.025390625,-0.96484375,-1.134765625
1850,0.083984375,-0.9140625,-1.5712890625
1851,0.0791015625,-0.8896484375,-2.0205078125
1852,0.0302734375,-0.9228515625,-2.1005859375
1853,0.0556640625,-1.0556640625,-1.73046875
1854,0.21484375,-1.3232421875,-1.146484375
1855,0.3779296875,-1.650390625,-0.70703125
1856,0.4501953125,-1.947265625,-0.4111328125
1857,0.5732421875,-2.193359375,-0.1826171875
1858,0.6708984375,-2.2861328125,-0.06640625
1859,0.6748046875,-2.244140625,-0.318359375
1860,0.576171875,-2.0703125,-0.837890625
1861,0.396484375,-1.7509765625,-1.3203125
1862,0.1982421875,-1.412109375,-1.4765625
1863,0.0341796875,-1.0947265625,-1.326171875
1864,-0.076171875,-0.931640625,-1.044921875
1865,-0.138671875,-0.8330078125,-0.6826171875
1866,-0.12890625,-0.7958984375,-0.3583984375
1867,-0.111328125,-0.828125,-0.1787109375
1868,-0.1083984375,-0.833984375,-0.1435546875
1869,-0.109375,-0.80078125,-0.1357421875
1870,-0.0966796875,-0.759765625,-0.1572265625
1871,-0.0439453125,-0.7431640625,-0.201171875
1872,0.041015625,-0.7509765625,-0.25390625
1873,0.0791015625,-0.7548828125,-0.306640625
1874,0.0966796875,-0.7646484375,-0.3720703125
1875,0.0986328125,-0.7880859375,-0.4482421875
1876,0.0810546875,-0.8076171875,-0.5126953125
1877,0.072265625,-0.8095703125,-0.5390625
1878,0.0615234375,-0.7919921875,-0.517578125
1879,0.0693359375,-0.75390625,-0.4677734375
1880,0.0703125,-0.708984375,-0.421875
1881,0.0712890625,-0.6416015625,-0.3740234375
1882,0.080078125,-0.572265625,-0.328125
1883,0.0712890625,-0.517578125,-0.298828125
1884,0.0693359375,-0.4638671875,-0.2724609375
1885,0.064453125,-0.431640625,-0.26171875
1886,0.03515625,-0.4013671875,-0.244140625
1887,0.01953125,-0.39453125,-0.2470703125
1888,0.0009765625,-0.4013671875,-0.2333984375
1889,-0.0546875,-0.41015625,-0.236328125
1890,-0.0498046875,-0.4150390625,-0.2119140625
1891,-0.0771484375,-0.3974609375,-0.1728515625
1892,-0.111328125,-0.3896484375,-0.1328125
1893,-0.1650390625,-0.3671875,-0.1015625
1894,-0.2109375,-0.35546875,-0.078125
1895,-0.2421875,-0.33984375,-0.05078125
1896,-0.296875,-0.3115234375,-0.0244140625
1897,-0.3193359375,-0.314453125,-0.015625
1898,-0.29296875,-0.330078125,-0.0166015625
1899,-0.2373046875,-0.3154296875,-0.009765625
1900,-0.1826171875,-0.3134765625,-0.0126953125
1901,-0.138671875,-0.3466796875,-0.0283203125
1902,-0.1005859375,-0.3740234375,-0.0390625
1903,-0.0595703125,-0.3955078125,-0.0380859375
1904,-0.01171875,-0.4248046875,-0.041015625
1905,0.0341796875,-0.44921875,-0.0419921875
1906,0.0771484375,-0.4765625,-0.044921875
1907,0.1142578125,-0.50390625,-0.0478515625
1908,0.1513671875,-0.541015625,-0.0595703125
1909,0.189453125,-0.59375,-0.0693359375
1910,0.193359375,-0.67578125,-0.08203125
1911,0.1728515625,-0.7646484375,-0.080078125
1912,0.134765625,-0.8994140625,-0.083984375
1913,0.087890625,-1.0390625,-0.0517578125
1914,0.048828125,-1.181640625,-0.0126953125
1915,-0.029296875,-1.3251953125,0.017578125
1916,-0.1015625,-1.431640625,0.0
1917,-0.1787109375,-1.5126953125,-0.03515625
1918,-0.25,-1.568359375,-0.046875
1919,-0.2939453125,-1.5810546875,-0.021484375
1920,-0.3056640625,-1.58203125,-0.0224609375
1921,-0.3095703125,-1.5732421875,-0.025390625
1922,-0.3154296875,-1.548828125,0.0166015625
1923,-0.3486328125,-1.5087890625,0.05859375
1924,-0.40234375,-1.4677734375,0.083984375
1925,-0.4423828125,-1.396484375,0.091796875
1926,-0.4443359375,-1.3525390625,0.107421875
1927,-0.439453125,-1.2958984375,0.1748046875
1928,-0.431640625,-1.228515625,0.2412109375
1929,-0.404296875,-1.21484375,0.29296875
1930,-0.361328125,-1.19921875,0.32421875
1931,-0.291015625,-1.1796875,0.3134765625
1932,-0.2099609375,-1.1689453125,0.2470703125
1933,-0.0947265625,-1.154296875,0.130859375
1934,0.0546875,-1.150390625,-0.0703125
1935,0.212890625,-1.1767578125,-0.3935546875
1936,0.1943359375,-1.17578125,-0.69140625
1937,0.0556640625,-1.1669921875,-1.0009765625
1938,-0.107421875,-1.126953125,-1.4130859375
1939,-0.1748046875,-1.0888671875,-1.7548828125
1940,-0.14453125,-1.1328125,-1.7451171875
1941,-0.1591796875,-1.1640625,-1.373046875
1942,-0.1640625,-1.267578125,-0.908203125
1943,-0.1787109375,-1.435546875,-0.5361328125
1944,-0.2021484375,-1.6630859375,-0.3369140625
1945,-0.1875,-1.845703125,-0.2080078125
1946,-0.1611328125,-1.900390625,-0.0771484375
1947,-0.1220703125,-1.833984375,-0.0419921875
1948,-0.072265625,-1.7197265625,-0.1904296875
1949,-0.083984375,-1.5537109375,-0.474609375
1950,-0.140625,-1.359375,-0.7958984375
1951,-0.1953125,-1.1748046875,-0.9892578125
1952,-0.2109375,-1.03125,-1.033203125
1953,-0.1533203125,-0.90234375,-0.921875
1954,-0.04296875,-0.8125,-0.6787109375
1955,0.041015625,-0.748046875,-0.3916015625
1956,0.0869140625,-0.7353515625,-0.205078125
1957,0.091796875,-0.7509765625,-0.162109375
1958,0.0859375,-0.7646484375,-0.166015625
1959,0.0908203125,-0.751953125,-0.16015625
1960,0.111328125,-0.748046875,-0.1455078125
1961,0.1025390625,-0.751953125,-0.1669921875
1962,0.095703125,-0.7705078125,-0.2001953125
1963,0.0546875,-0.7861328125,-0.25390625
1964,-0.013671875,-0.783203125,-0.2958984375
1965,-0.0869140625,-0.7744140625,-0.3056640625
1966,-0.169921875,-0.7509765625,-0.2958984375
1967,-0.2890625,-0.732421875,-0.291015625
1968,-0.3994140625,-0.7060546875,-0.265625
1969,-0.4755859375,-0.6943359375,-0.244140625
1970,-0.4775390625,-0.6640625,-0.2216796875
1971,-0.4150390625,-0.615234375,-0.203125
1972,-0.36328125,-0.5595703125,-0.1962890625
1973,-0.28125,-0.5029296875,-0.19140625
1974,-0.142578125,-0.4677734375,-0.1904296875
1975,-0.04296875,-0.419921875,-0.1826171875
1976,-0.01171875,-0.4013671875,-0.171875
1977,0.0185546875,-0.3701171875,-0.1611328125
1978,0.0556640625,-0.3505859375,-0.1572265625
1979,0.1064453125,-0.3017578125,-0.1630859375
1980,0.1416015625,-0.234375,-0.1748046875
1981,0.14453125,-0.19140625,-0.2119140625
1982,0.1396484375,-0.1572265625,-0.25
1983,0.13671875,-0.125,-0.2607421875
1984,0.1640625,-0.1259765625,-0.2646484375
1985,0.1796875,-0.14453125,-0.2265625
1986,0.1689453125,-0.177734375,-0.171875
1987,0.1640625,-0.2451171875,-0.1240234375
1988,0.1455078125,-0.3193359375,-0.0791015625
1989,0.1337890625,-0.396484375,-0.052734375
1990,0.1318359375,-0.4873046875,-0.009765625
1991,0.130859375,-0.583984375,0.0341796875
1992,0.1435546875,-0.6787109375,0.0712890625
1993,0.1435546875,-0.7568359375,0.1064453125
1994,0.119140625,-0.8291015625,0.1376953125
1995,0.08203125,-0.896484375,0.162109375
1996,0.033203125,-0.962890625,0.1572265625
1997,-0.0087890625,-1.0302734375,0.1494140625
1998,-0.0439453125,-1.078125,0.08984375
1999,-0.0712890625,-1.1142578125,-0.0009765625
2000,-0.08203125,-1.142578125,-0.09765625
2001,-0.06640625,-1.17578125,-0.1669921875
2002,-0.0458984375,-1.2294921875,-0.1806640625
2003,-0.0048828125,-1.2822265625,-0.14453125
2004,0.0263671875,-1.3427734375,-0.064453125
2005,0.0478515625,-1.390625,0.015625
2006,0.08203125,-1.447265625,0.0712890625
2007,0.1357421875,-1.4853515625,0.111328125
2008,0.208984375,-1.4892578125,0.1220703125
2009,0.318359375,-1.466796875,0.1181640625
2010,0.41796875,-1.41796875,0.1044921875
2011,0.4833984375,-1.3603515625,0.0771484375
2012,0.544921875,-1.3076171875,0.068359375
2013,0.58203125,-1.2724609375,0.0859375
2014,0.59765625,-1.275390625,0.142578125
2015,0.6083984375,-1.3203125,0.208984375
2016,0.5703125,-1.3662109375,0.2666015625
2017,0.4931640625,-1.3994140625,0.279296875
2018,0.3720703125,-1.4111328125,0.23828125
2019,0.23046875,-1.3916015625,0.162109375
2020,0.056640625,-1.3427734375,0.0546875
2021,-0.087890625,-1.3056640625,-0.1435546875
2022,-0.2626953125,-1.2548828125,-0.4638671875
2023,-0.333984375,-1.1865234375,-0.859375
2024,-0.3154296875,-1.1416015625,-1.25
2025,-0.2841796875,-1.0908203125,-1.6357421875
2026,-0.2451171875,-1.083984375,-1.8671875
2027,-0.1875,-1.14453125,-1.8056640625
2028,-0.06640625,-1.2626953125,-1.5283203125
2029,0.09765625,-1.4599609375,-1.169921875
2030,0.2353515625,-1.6865234375,-0.8974609375
2031,0.30859375,-1.8759765625,-0.6396484375
2032,0.357421875,-1.970703125,-0.4677734375
2033,0.3818359375,-1.978515625,-0.390625
2034,0.3564453125,-1.8984375,-0.41796875
2035,0.2265625,-1.7724609375,-0.5380859375
2036,0.06640625,-1.5888671875,-0.6845703125
2037,-0.056640625,-1.3818359375,-0.826171875
2038,-0.177734375,-1.1728515625,-0.9345703125
2039,-0.3056640625,-0.9794921875,-1.0
2040,-0.423828125,-0.7978515625,-0.9716796875
2041,-0.501953125,-0.681640625,-0.8623046875
2042,-0.5205078125,-0.623046875,-0.67578125
2043,-0.4970703125,-0.6650390625,-0.4638671875
2044,-0.47265625,-0.69921875,-0.3037109375
2045,-0.4443359375,-0.7001953125,-0.1923828125
2046,-0.3828125,-0.6962890625,-0.134765625
2047,-0.298828125,-0.6982421875,-0.134765625
2048,-0.197265625,-0.703125,-0.1806640625
2049,-0.1044921875,-0.693359375,-0.2548828125
2050,-0.0263671875,-0.701171875,-0.3310546875
2051,0.046875,-0.7001953125,-0.392578125
2052,0.1279296875,-0.703125,-0.4306640625
2053,0.205078125,-0.70703125,-0.4296875
2054,0.28125,-0.712890625,-0.4033203125
2055,0.345703125,-0.716796875,-0.3564453125
2056,0.384765625,-0.7080078125,-0.27734375
2057,0.4052734375,-0.685546875,-0.23046875
2058,0.400390625,-0.654296875,-0.1982421875
2059,0.380859375,-0.60546875,-0.177734375
2060,0.3505859375,-0.544921875,-0.17578125
2061,0.31640625,-0.4638671875,-0.17578125
2062,0.279296875,-0.39453125,-0.1806640625
2063,0.2216796875,-0.3359375,-0.1923828125
2064,0.1669921875,-0.2958984375,-0.185546875
2065,0.130859375,-0.2705078125,-0.1728515625
2066,0.078125,-0.2705078125,-0.150390625
2067,-0.0283203125,-0.2509765625,-0.1455078125
2068,-0.033203125,-0.2314453125,-0.11328125
2069,-0.091796875,-0.2216796875,-0.0966796875
2070,-0.142578125,-0.2392578125,-0.0908203125
2071,-0.1865234375,-0.251953125,-0.0830078125
2072,-0.232421875,-0.2939453125,-0.078125
2073,-0.2587890625,-0.357421875,-0.0556640625
2074,-0.2724609375,-0.4326171875,-0.029296875
2075,-0.26953125,-0.494140625,-0.0087890625
2076,-0.2578125,-0.5654296875,0.0
2077,-0.22265625,-0.62109375,0.013671875
2078,-0.1845703125,-0.6806640625,0.0244140625
2079,-0.146484375,-0.7265625,0.03125
2080,-0.099609375,-0.7734375,0.0263671875
2081,-0.0556640625,-0.8046875,0.0224609375
2082,-0.025390625,-0.8310546875,0.013671875
2083,0.013671875,-0.8505859375,-0.00390625
2084,0.0439453125,-0.8662109375,-0.0419921875
2085,0.072265625,-0.8955078125,-0.0771484375
2086,0.0908203125,-0.9150390625,-0.123046875
2087,0.09375,-0.9423828125,-0.1640625
2088,0.09375,-0.9931640625,-0.201171875
2089,0.0830078125,-1.08203125,-0.1982421875
2090,0.0849609375,-1.1591796875,-0.1787109375
2091,0.0771484375,-1.2529296875,-0.1591796875
2092,0.0595703125,-1.33984375,-0.12109375
2093,0.0361328125,-1.4140625,-0.0810546875
2094,-0.013671875,-1.466796875,-0.0400390625
2095,-0.0810546875,-1.4794921875,0.0029296875
2096,-0.162109375,-1.48828125,0.0380859375
2097,-0.25390625,-1.4853515625,0.07421875
2098,-0.3681640625,-1.470703125,0.107421875
2099,-0.5224609375,-1.44921875,0.1416015625
2100,-0.6630859375,-1.4326171875,0.16796875
2101,-0.7685546875,-1.4013671875,0.181640625
2102,-0.8203125,-1.3544921875,0.1728515625
2103,-0.8251953125,-1.3046875,0.1669921875
2104,-0.787109375,-1.271484375,0.1630859375
2105,-0.6953125,-1.263671875,0.1630859375
2106,-0.5869140625,-1.2578125,0.1552734375
2107,-0.4697265625,-1.27734375,0.115234375
2108,-0.337890625,-1.296875,0.078125
2109,-0.2197265625,-1.306640625,0.0322265625
2110,-0.12109375,-1.28515625,-0.0322265625
2111,0.0185546875,-1.244140625,-0.3359375
2112,0.154296875,-1.1513671875,-0.7548828125
2113,0.1298828125,-1.0537109375,-1.1005859375
2114,0.005859375,-0.94921875,-1.2861328125
2115,-0.12109375,-0.849609375,-1.5205078125
2116,-0.1962890625,-0.7734375,-1.787109375
2117,-0.2138671875,-0.74609375,-1.75390625
2118,-0.1865234375,-0.81640625,-1.38671875
2119,-0.2255859375,-0.962890625,-0.94140625
2120,-0.353515625,-1.1875,-0.4658203125
2121,-0.439453125,-1.4921875,-0.193359375
2122,-0.3935546875,-1.6396484375,-0.0205078125
2123,-0.2373046875,-1.6728515625,0.0673828125
2124,-0.1142578125,-1.6669921875,0.0380859375
2125,-0.046875,-1.6142578125,-0.138671875
2126,-0.0244140625,-1.50390625,-0.447265625
2127,-0.0263671875,-1.3955078125,-0.7705078125
2128,-0.044921875,-1.2841796875,-0.984375
2129,-0.080078125,-1.1689453125,-1.0361328125
2130,-0.1142578125,-1.0869140625,-0.9248046875
2131,-0.1240234375,-1.0205078125,-0.724609375
2132,-0.11328125,-0.9814453125,-0.53515625
2133,-0.095703125,-0.9794921875,-0.4033203125
2134,-0.1005859375,-0.9423828125,-0.2744140625
2135,-0.1083984375,-0.89453125,-0.1865234375
2136,-0.111328125,-0.826171875,-0.1572265625
2137,-0.109375,-0.7841796875,-0.1806640625
2138,-0.115234375,-0.7265625,-0.23046875
2139,-0.115234375,-0.673828125,-0.2958984375
2140,-0.134765625,-0.642578125,-0.34765625
2141,-0.1435546875,-0.61328125,-0.3798828125
2142,-0.162109375,-0.6005859375,-0.37890625
2143,-0.1796875,-0.6015625,-0.36328125
2144,-0.1875,-0.6064453125,-0.3232421875
2145,-0.185546875,-0.625,-0.29296875
2146,-0.169921875,-0.6337890625,-0.271484375
2147,-0.1572265625,-0.640625,-0.26953125
2148,-0.1318359375,-0.640625,-0.279296875
2149,-0.09765625,-0.64453125,-0.275390625
2150,-0.0751953125,-0.640625,-0.2587890625
2151,-0.068359375,-0.599609375,-0.2578125
2152,-0.0595703125,-0.544921875,-0.2568359375
2153,-0.0458984375,-0.4560546875,-0.265625
2154,-0.02734375,-0.3955078125,-0.296875
2155,0.015625,-0.3359375,-0.306640625
2156,0.078125,-0.2578125,-0.3046875
2157,0.130859375,-0.1904296875,-0.2978515625
2158,0.177734375,-0.1513671875,-0.2978515625
2159,0.1962890625,-0.13671875,-0.279296875
2160,0.2138671875,-0.154296875,-0.2392578125
2161,0.2021484375,-0.185546875,-0.2041015625
2162,0.1787109375,-0.2392578125,-0.171875
2163,0.1494140625,-0.3095703125,-0.15234375
2164,0.123046875,-0.388671875,-0.1328125
2165,0.09765625,-0.455078125,-0.1064453125
2166,0.0830078125,-0.513671875,-0.0908203125
2167,0.0615234375,-0.5751953125,-0.083984375
2168,0.0478515625,-0.6181640625,-0.08203125
2169,0.041015625,-0.6416015625,-0.0732421875
2170,0.0302734375,-0.6669921875,-0.0703125
2171,0.029296875,-0.689453125,-0.072265625
2172,0.0224609375,-0.7138671875,-0.0751953125
2173,0.0126953125,-0.75,-0.0751953125
2174,0.01171875,-0.80078125,-0.0712890625
2175,0.041015625,-0.8779296875,-0.0966796875
2176,0.07421875,-0.97265625,-0.0751953125
2177,0.1259765625,-1.0791015625,-0.08203125
2178,0.1845703125,-1.1748046875,-0.0869140625
2179,0.24609375,-1.271484375,-0.10546875
2180,0.2783203125,-1.3544921875,-0.115234375
2181,0.3046875,-1.4130859375,-0.1318359375
2182,0.3466796875,-1.4580078125,-0.1259765625
2183,0.3837890625,-1.4833984375,-0.095703125
2184,0.4091796875,-1.490234375,-0.072265625
2185,0.419921875,-1.474609375,-0.0654296875
2186,0.3818359375,-1.4384765625,-0.0546875
2187,0.3623046875,-1.40234375,-0.01953125
2188,0.359375,-1.3662109375,0.0244140625
2189,0.369140625,-1.3330078125,0.0654296875
2190,0.3759765625,-1.298828125,0.1240234375
2191,0.365234375,-1.275390625,0.17578125
2192,0.3515625,-1.271484375,0.2255859375
2193,0.3037109375,-1.2607421875,0.2548828125
2194,0.2177734375,-1.255859375,0.265625
2195,0.091796875,-1.24609375,0.248046875
2196,-0.0302734375,-1.208984375,0.1728515625
2197,-0.181640625,-1.1806640625,0.0625
2198,-0.2841796875,-1.1591796875,-0.1220703125
2199,-0.3671875,-1.15234375,-0.439453125
2200,-0.4267578125,-1.119140625,-0.7265625
2201,-0.4296875,-1.1142578125,-1.0537109375
2202,-0.43359375,-1.12109375,-1.4345703125
2203,-0.4443359375,-1.1103515625,-1.6875
2204,-0.4091796875,-1.150390625,-1.638671875
2205,-0.3125,-1.2451171875,-1.3759765625
2206,-0.1533203125,-1.3916015625,-1.0634765625
2207,0.01953125,-1.6015625,-0.87890625
2208,0.1708984375,-1.77734375,-0.7822265625
2209,0.3134765625,-1.90234375,-0.7236328125
2210,0.369140625,-1.9482421875,-0.67578125
2211,0.37109375,-1.9130859375,-0.6884765625
2212,0.337890625,-1.830078125,-0.78515625
2213,0.2470703125,-1.6650390625,-0.919921875
2214,0.1396484375,-1.4609375,-1.0322265625
2215,0.0439453125,-1.2275390625,-1.0546875
2216,0.001953125,-1.0458984375,-0.9541015625
2217,-0.05859375,-0.86328125,-0.8203125
2218,-0.1318359375,-0.7880859375,-0.6787109375
2219,-0.2255859375,-0.73046875,-0.544921875
2220,-0.30078125,-0.720703125,-0.419921875
2221,-0.3564453125,-0.7314453125,-0.328125
2222,-0.419921875,-0.7490234375,-0.255859375
2223,-0.4462890625,-0.744140625,-0.224609375
2224,-0.41015625,-0.7685546875,-0.2548828125
2225,-0.328125,-0.76953125,-0.3046875
2226,-0.2451171875,-0.7705078125,-0.3583984375
2227,-0.16015625,-0.78125,-0.388671875
2228,-0.080078125,-0.7822265625,-0.4091796875
2229,0.0048828125,-0.7861328125,-0.4130859375
2230,0.0791015625,-0.7998046875,-0.408203125
2231,0.1552734375,-0.7919921875,-0.375
2232,0.2353515625,-0.7919921875,-0.333984375
2233,0.3046875,-0.779296875,-0.2978515625
2234,0.345703125,-0.7490234375,-0.265625
2235,0.357421875,-0.7109375,-0.255859375
2236,0.345703125,-0.6787109375,-0.24609375
2237,0.3359375,-0.6240234375,-0.2509765625
2238,0.3134765625,-0.5576171875,-0.25390625
2239,0.298828125,-0.4931640625,-0.2509765625
2240,0.255859375,-0.443359375,-0.2490234375
2241,0.193359375,-0.396484375,-0.24609375
2242,0.13671875,-0.3642578125,-0.22265625
2243,0.0869140625,-0.3369140625,-0.1962890625
2244,0.0576171875,-0.310546875,-0.1728515625
2245,0.0322265625,-0.294921875,-0.1455078125
2246,-0.00390625,-0.2802734375,-0.126953125
2247,-0.0615234375,-0.251953125,-0.0927734375
2248,-0.0966796875,-0.2314453125,-0.0791015625
2249,-0.115234375,-0.2265625,-0.076171875
2250,-0.1337890625,-0.2353515625,-0.07421875
2251,-0.146484375,-0.2607421875,-0.0654296875
2252,-0.1337890625,-0.3125,-0.0634765625
2253,-0.1220703125,-0.37890625,-0.072265625
2254,-0.1064453125,-0.443359375,-0.064453125
2255,-0.0869140625,-0.4892578125,-0.0576171875
2256,-0.0595703125,-0.5546875,-0.0498046875
2257,-0.033203125,-0.603515625,-0.041015625
2258,-0.01171875,-0.6552734375,-0.0302734375
2259,0.001953125,-0.697265625,-0.0244140625
2260,0.0234375,-0.7421875,-0.0263671875
2261,0.0380859375,-0.7734375,-0.03125
2262,0.05078125,-0.7958984375,-0.0361328125
2263,0.0634765625,-0.814453125,-0.0595703125
2264,0.076171875,-0.8232421875,-0.0830078125
2265,0.0859375,-0.83984375,-0.107421875
2266,0.0888671875,-0.869140625,-0.1357421875
2267,0.08984375,-0.9169921875,-0.173828125
2268,0.1005859375,-0.9736328125,-0.1943359375
2269,0.1005859375,-1.0439453125,-0.2060546875
2270,0.1181640625,-1.12109375,-0.1943359375
2271,0.1181640625,-1.2216796875,-0.1728515625
2272,0.1005859375,-1.328125,-0.119140625
2273,0.0791015625,-1.4091796875,-0.0380859375
2274,0.041015625,-1.482421875,0.0322265625
2275,-0.0380859375,-1.5380859375,0.0966796875
2276,-0.15234375,-1.56640625,0.138671875
2277,-0.298828125,-1.5859375,0.1650390625
2278,-0.4765625,-1.576171875,0.1611328125
2279,-0.6240234375,-1.5576171875,0.150390625
2280,-0.7333984375,-1.5126953125,0.1552734375
2281,-0.794921875,-1.4736328125,0.1875
2282,-0.8115234375,-1.443359375,0.23046875
2283,-0.75390625,-1.427734375,0.2587890625
2284,-0.646484375,-1.4228515625,0.28125
2285,-0.5185546875,-1.40234375,0.2578125
2286,-0.376953125,-1.396484375,0.16796875
2287,-0.2119140625,-1.369140625,0.01171875
2288,-0.083984375,-1.3203125,-0.2841796875
2289,-0.017578125,-1.2685546875,-0.6962890625
2290,-0.125,-1.2001953125,-1.0595703125
2291,-0.3310546875,-1.134765625,-1.4013671875
2292,-0.5048828125,-1.0625,-1.74609375
2293,-0.5673828125,-1.0,-1.943359375
2294,-0.49609375,-1.0048828125,-1.693359375
2295,-0.376953125,-1.080078125,-1.185546875
2296,-0.310546875,-1.224609375,-0.6865234375
2297,-0.3076171875,-1.431640625,-0.365234375
2298,-0.267578125,-1.6396484375,-0.2080078125
2299,-0.177734375,-1.7236328125,-0.1328125
2300,-0.0673828125,-1.7216796875,-0.115234375
2301,0.0224609375,-1.6298828125,-0.193359375
2302,0.0810546875,-1.513671875,-0.380859375
2303,0.095703125,-1.38671875,-0.638671875
2304,0.09375,-1.2216796875,-0.9033203125
2305,0.064453125,-1.0712890625,-1.060546875
2306,0.0322265625,-0.9375,-1.060546875
2307,0.0009765625,-0.8388671875,-0.892578125
2308,-0.0048828125,-0.775390625,-0.603515625
2309,-0.03125,-0.7724609375,-0.361328125
2310,-0.076171875,-0.7880859375,-0.2236328125
2311,-0.15625,-0.7919921875,-0.1630859375
2312,-0.2490234375,-0.7734375,-0.1376953125
2313,-0.33203125,-0.728515625,-0.1572265625
2314,-0.3955078125,-0.703125,-0.2041015625
2315,-0.427734375,-0.6923828125,-0.265625
2316,-0.408203125,-0.6904296875,-0.322265625
2317,-0.3779296875,-0.6826171875,-0.369140625
2318,-0.3447265625,-0.6767578125,-0.3916015625
2319,-0.3291015625,-0.6689453125,-0.3857421875
2320,-0.3056640625,-0.6708984375,-0.369140625
2321,-0.283203125,-0.6728515625,-0.328125
2322,-0.244140625,-0.681640625,-0.294921875
2323,-0.2109375,-0.6826171875,-0.2626953125
2324,-0.1787109375,-0.677734375,-0.248046875
2325,-0.1435546875,-0.66015625,-0.2412109375
2326,-0.0908203125,-0.638671875,-0.2607421875
2327,-0.02734375,-0.64453125,-0.2783203125
2328,0.0263671875,-0.6357421875,-0.2890625
2329,0.0595703125,-0.609375,-0.29296875
2330,0.064453125,-0.5751953125,-0.30859375
2331,0.126953125,-0.5341796875,-0.3359375
2332,0.2109375,-0.513671875,-0.3544921875
2333,0.201171875,-0.4677734375,-0.3369140625
2334,0.130859375,-0.4228515625,-0.330078125
2335,0.095703125,-0.3916015625,-0.333984375
2336,0.087890625,-0.3466796875,-0.3388671875
2337,0.09375,-0.3203125,-0.34375
2338,0.111328125,-0.3193359375,-0.328125
2339,0.146484375,-0.345703125,-0.3017578125
2340,0.1494140625,-0.3828125,-0.255859375
2341,0.1552734375,-0.421875,-0.2138671875
2342,0.1474609375,-0.4736328125,-0.189453125
2343,0.1416015625,-0.5126953125,-0.1552734375
2344,0.1279296875,-0.5556640625,-0.12109375
2345,0.1318359375,-0.587890625,-0.1005859375
2346,0.1259765625,-0.626953125,-0.107421875
2347,0.1328125,-0.630859375,-0.107421875
2348,0.1318359375,-0.6298828125,-0.1064453125
2349,0.14453125,-0.6279296875,-0.1103515625
2350,0.1455078125,-0.6455078125,-0.0947265625
2351,0.1533203125,-0.685546875,-0.0810546875
2352,0.150390625,-0.7529296875,-0.0517578125
2353,0.1298828125,-0.83203125,-0.015625
2354,0.115234375,-0.9150390625,0.0283203125
2355,0.1005859375,-0.9931640625,0.044921875
2356,0.1103515625,-1.0595703125,0.0166015625
2357,0.1484375,-1.1162109375,-0.0263671875
2358,0.2119140625,-1.15625,-0.0947265625
2359,0.2646484375,-1.189453125,-0.1650390625
2360,0.2939453125,-1.201171875,-0.18359375
2361,0.326171875,-1.23828125,-0.1708984375
2362,0.36328125,-1.263671875,-0.1259765625
2363,0.3916015625,-1.2919921875,-0.0908203125
2364,0.396484375,-1.3232421875,-0.068359375
2365,0.392578125,-1.3310546875,-0.072265625
2366,0.392578125,-1.326171875,-0.07421875
2367,0.3701171875,-1.3173828125,-0.0751953125
2368,0.3603515625,-1.2958984375,-0.0283203125
2369,0.34765625,-1.279296875,0.033203125
2370,0.33203125,-1.279296875,0.09375
2371,0.3173828125,-1.279296875,0.15625
2372,0.3037109375,-1.2861328125,0.205078125
2373,0.2822265625,-1.2939453125,0.23046875
2374,0.2587890625,-1.287109375,0.2490234375
2375,0.203125,-1.271484375,0.1962890625
2376,0.142578125,-1.2470703125,0.1064453125
2377,0.0771484375,-1.2216796875,-0.08203125
2378,0.0166015625,-1.2060546875,-0.3544921875
2379,-0.0517578125,-1.177734375,-0.62109375
2380,-0.0859375,-1.1787109375,-0.8759765625
2381,-0.166015625,-1.189453125,-1.1162109375
2382,-0.2666015625,-1.2041015625,-1.26953125
2383,-0.3076171875,-1.25390625,-1.2333984375
2384,-0.24609375,-1.3349609375,-1.068359375
2385,-0.14453125,-1.4677734375,-0.9052734375
2386,-0.0478515625,-1.626953125,-0.7744140625
2387,-0.013671875,-1.744140625,-0.69921875
2388,0.0419921875,-1.8447265625,-0.6279296875
2389,0.0732421875,-1.8779296875,-0.599609375
2390,0.080078125,-1.82421875,-0.6650390625
2391,0.0849609375,-1.7060546875,-0.8203125
2392,0.0908203125,-1.5615234375,-0.9873046875
2393,0.103515625,-1.40234375,-1.1123046875
2394,0.05859375,-1.2216796875,-1.130859375
2395,0.0126953125,-1.076171875,-1.044921875
2396,-0.0146484375,-0.9697265625,-0.890625
2397,-0.029296875,-0.9150390625,-0.6982421875
2398,-0.015625,-0.890625,-0.5361328125
2399,-0.0068359375,-0.8505859375,-0.431640625
2400,-0.0234375,-0.818359375,-0.3828125
2401,-0.05859375,-0.78515625,-0.3583984375
2402,-0.103515625,-0.751953125,-0.3408203125
2403,-0.1162109375,-0.7373046875,-0.341796875
2404,-0.0986328125,-0.734375,-0.3623046875
2405,-0.0537109375,-0.7275390625,-0.40234375
2406,0.0029296875,-0.7373046875,-0.43359375
2407,0.0537109375,-0.748046875,-0.4453125
2408,0.1044921875,-0.7685546875,-0.4375
2409,0.173828125,-0.783203125,-0.396484375
2410,0.234375,-0.796875,-0.35546875
2411,0.2998046875,-0.779296875,-0.30078125
2412,0.3544921875,-0.7724609375,-0.2626953125
2413,0.3857421875,-0.736328125,-0.2353515625
2414,0.396484375,-0.69921875,-0.2060546875
2415,0.37109375,-0.64453125,-0.1923828125
2416,0.3251953125,-0.5849609375,-0.1826171875
2417,0.2646484375,-0.5224609375,-0.1875
2418,0.189453125,-0.4609375,-0.2001953125
2419,0.1259765625,-0.408203125,-0.21484375
2420,0.060546875,-0.359375,-0.2255859375
2421,-0.017578125,-0.328125,-0.2265625
2422,-0.087890625,-0.30078125,-0.216796875
2423,-0.1494140625,-0.28125,-0.2041015625
2424,-0.1982421875,-0.255859375,-0.181640625
2425,-0.2412109375,-0.240234375,-0.1650390625
2426,-0.2646484375,-0.2353515625,-0.1513671875
2427,-0.2626953125,-0.232421875,-0.1513671875
2428,-0.236328125,-0.244140625,-0.1533203125
2429,-0.20703125,-0.2900390625,-0.1494140625
2430,-0.1884765625,-0.3154296875,-0.138671875
2431,-0.1826171875,-0.3486328125,-0.1181640625
2432,-0.15234375,-0.408203125,-0.1123046875
2433,-0.1171875,-0.47265625,-0.1015625
2434,-0.076171875,-0.5283203125,-0.0947265625
2435,-0.0341796875,-0.5869140625,-0.091796875
2436,0.001953125,-0.6279296875,-0.076171875
2437,0.02734375,-0.6640625,-0.0673828125
2438,0.07421875,-0.6884765625,-0.0634765625
2439,0.1220703125,-0.708984375,-0.060546875
2440,0.1640625,-0.73828125,-0.0625
2441,0.201171875,-0.7724609375,-0.0830078125
2442,0.2431640625,-0.8046875,-0.1064453125
2443,0.2724609375,-0.8740234375,-0.123046875
2444,0.2802734375,-0.94140625,-0.13671875
2445,0.2646484375,-1.0224609375,-0.1396484375
2446,0.2548828125,-1.103515625,-0.125
2447,0.2333984375,-1.1826171875,-0.0869140625
2448,0.2177734375,-1.2548828125,-0.0595703125
2449,0.1806640625,-1.306640625,-0.0419921875
2450,0.140625,-1.3271484375,-0.0166015625
2451,0.083984375,-1.326171875,0.0
2452,-0.01171875,-1.2919921875,0.0107421875
2453,-0.1015625,-1.265625,0.0283203125
2454,-0.1982421875,-1.2451171875,0.078125
2455,-0.306640625,-1.2275390625,0.1474609375
2456,-0.4326171875,-1.2490234375,0.21875
2457,-0.5556640625,-1.275390625,0.271484375
2458,-0.6689453125,-1.3056640625,0.29296875
2459,-0.7509765625,-1.33203125,0.3173828125
2460,-0.806640625,-1.33984375,0.3564453125
2461,-0.8134765625,-1.349609375,0.3818359375
2462,-0.78515625,-1.3525390625,0.376953125
2463,-0.6875,-1.3447265625,0.294921875
2464,-0.5458984375,-1.3193359375,0.185546875
2465,-0.4013671875,-1.314453125,0.0322265625
2466,-0.240234375,-1.302734375,-0.30859375
2467,-0.18359375,-1.26953125,-0.7373046875
2468,-0.361328125,-1.19140625,-1.064453125
2469,-0.58984375,-1.1025390625,-1.4287109375
2470,-0.75,-1.0498046875,-1.857421875
2471,-0.765625,-1.0498046875,-2.03515625
2472,-0.6298828125,-1.1357421875,-1.650390625
2473,-0.4365234375,-1.314453125,-1.03515625
2474,-0.2470703125,-1.580078125,-0.41015625
2475,-0.14453125,-1.9013671875,-0.1337890625
2476,-0.0654296875,-2.052734375,-0.041015625
2477,0.0048828125,-2.080078125,-0.115234375
2478,0.072265625,-1.9658203125,-0.3623046875
2479,0.1259765625,-1.767578125,-0.728515625
2480,0.1220703125,-1.52734375,-1.0634765625
2481,0.08203125,-1.3095703125,-1.2353515625
2482,0.048828125,-1.1298828125,-1.232421875
2483,0.0595703125,-1.0322265625,-1.10546875
2484,0.0732421875,-0.9716796875,-0.8779296875
2485,0.0859375,-0.9560546875,-0.6171875
2486,0.091796875,-0.962890625,-0.4287109375
2487,0.0703125,-0.9580078125,-0.3251953125
2488,0.03515625,-0.923828125,-0.2724609375
2489,0.01171875,-0.8740234375,-0.2578125
2490,-0.03515625,-0.8193359375,-0.2587890625
2491,-0.0625,-0.787109375,-0.267578125
2492,-0.0947265625,-0.7646484375,-0.3017578125
2493,-0.109375,-0.7490234375,-0.345703125
2494,-0.1220703125,-0.7353515625,-0.376953125
2495,-0.138671875,-0.71484375,-0.41015625
2496,-0.1494140625,-0.6962890625,-0.4267578125
2497,-0.1591796875,-0.67578125,-0.4130859375
2498,-0.15234375,-0.65625,-0.3798828125
2499,-0.1455078125,-0.6318359375,-0.3291015625
2500,-0.142578125,-0.603515625,-0.27734375
2501,-0.142578125,-0.57421875,-0.236328125
2502,-0.1318359375,-0.5390625,-0.2158203125
2503,-0.1240234375,-0.5048828125,-0.19921875
2504,-0.1103515625,-0.4677734375,-0.1865234375
2505,-0.0810546875,-0.455078125,-0.1796875
2506,-0.0556640625,-0.470703125,-0.1669921875
2507,-0.0419921875,-0.41015625,-0.1572265625
2508,0.0078125,-0.41015625,-0.166015625
2509,0.0390625,-0.3974609375,-0.1689453125
2510,0.060546875,-0.3671875,-0.1806640625
2511,0.080078125,-0.353515625,-0.2001953125
2512,0.0673828125,-0.3134765625,-0.2294921875
2513,0.041015625,-0.2666015625,-0.2646484375
2514,0.02734375,-0.248046875,-0.28515625
2515,0.0234375,-0.234375,-0.2900390625
2516,0.0244140625,-0.244140625,-0.267578125
2517,0.0341796875,-0.28125,-0.2255859375
2518,0.017578125,-0.328125,-0.1787109375
2519,-0.0009765625,-0.3984375,-0.15625
2520,-0.017578125,-0.4775390625,-0.1083984375
2521,-0.021484375,-0.55078125,-0.0654296875
2522,-0.017578125,-0.6123046875,-0.021484375
2523,-0.0068359375,-0.66796875,0.00390625
2524,0.00390625,-0.6953125,0.0166015625
2525,0.00390625,-0.716796875,0.0244140625
2526,-0.0029296875,-0.7353515625,0.0244140625
2527,-0.017578125,-0.7529296875,0.0205078125
2528,-0.0302734375,-0.771484375,0.0078125
2529,-0.05078125,-0.7861328125,0.0
2530,-0.072265625,-0.806640625,-0.0146484375
2531,-0.103515625,-0.841796875,-0.0322265625
2532,-0.09765625,-0.8779296875,-0.08203125
2533,-0.091796875,-0.9326171875,-0.091796875
2534,-0.0498046875,-0.9873046875,-0.1142578125
2535,0.00390625,-1.0634765625,-0.1259765625
2536,0.0517578125,-1.1171875,-0.126953125
2537,0.078125,-1.158203125,-0.1083984375
2538,0.125,-1.2216796875,-0.0712890625
2539,0.1708984375,-1.2890625,-0.046875
2540,0.236328125,-1.326171875,-0.0302734375
2541,0.306640625,-1.3525390625,-0.0302734375
2542,0.3681640625,-1.3310546875,-0.052734375
2543,0.4306640625,-1.30078125,-0.05859375
2544,0.482421875,-1.26171875,-0.0576171875
2545,0.5302734375,-1.23046875,-0.0390625
2546,0.5615234375,-1.2001953125,-0.0048828125
2547,0.583984375,-1.1904296875,0.048828125
2548,0.59765625,-1.2109375,0.107421875
2549,0.5830078125,-1.240234375,0.1611328125
2550,0.51953125,-1.2548828125,0.2099609375
2551,0.4326171875,-1.255859375,0.234375
2552,0.3095703125,-1.2333984375,0.208984375
2553,0.16796875,-1.197265625,0.150390625
2554,0.0234375,-1.171875,0.0703125
2555,-0.1025390625,-1.173828125,-0.08984375
2556,-0.267578125,-1.1611328125,-0.3828125
2557,-0.3701171875,-1.1337890625,-0.646484375
2558,-0.3935546875,-1.1171875,-0.9677734375
2559,-0.37890625,-1.0927734375,-1.3427734375
2560,-0.3564453125,-1.080078125,-1.5986328125
2561,-0.3193359375,-1.1064453125,-1.626953125
2562,-0.26171875,-1.201171875,-1.4462890625
2563,-0.146484375,-1.37109375,-1.1357421875
2564,0.0234375,-1.6044921875,-0.892578125
2565,0.1650390625,-1.83203125,-0.6572265625
2566,0.330078125,-2.0126953125,-0.4609375
2567,0.400390625,-2.09765625,-0.3642578125
2568,0.3818359375,-2.0625,-0.412109375
2569,0.3310546875,-1.943359375,-0.5791015625
2570,0.2158203125,-1.7529296875,-0.8662109375
2571,0.091796875,-1.447265625,-1.0537109375
2572,-0.03515625,-1.197265625,-1.1328125
2573,-0.1865234375,-0.9853515625,-1.111328125
2574,-0.259765625,-0.8330078125,-0.9921875
2575,-0.3115234375,-0.7490234375,-0.80078125
2576,-0.322265625,-0.7119140625,-0.6083984375
2577,-0.306640625,-0.7412109375,-0.451171875
2578,-0.306640625,-0.7822265625,-0.3623046875
2579,-0.3076171875,-0.7880859375,-0.306640625
2580,-0.2978515625,-0.783203125,-0.2646484375
2581,-0.2490234375,-0.7822265625,-0.2578125
2582,-0.166015625,-0.796875,-0.2666015625
2583,-0.068359375,-0.8271484375,-0.294921875
2584,0.0234375,-0.8544921875,-0.3154296875
2585,0.1220703125,-0.88671875,-0.3447265625
2586,0.1923828125,-0.9189453125,-0.3671875
2587,0.2568359375,-0.9365234375,-0.3740234375
2588,0.302734375,-0.939453125,-0.357421875
2589,0.3369140625,-0.9169921875,-0.3291015625
2590,0.3662109375,-0.8740234375,-0.2861328125
2591,0.373046875,-0.8037109375,-0.2490234375
2592,0.3740234375,-0.7275390625,-0.2216796875
2593,0.361328125,-0.642578125,-0.2109375
2594,0.328125,-0.560546875,-0.1953125
2595,0.28515625,-0.4794921875,-0.1875
2596,0.2177734375,-0.3935546875,-0.189453125
2597,0.1669921875,-0.345703125,-0.197265625
2598,0.1064453125,-0.30859375,-0.197265625
2599,0.0390625,-0.28125,-0.1982421875
2600,-0.025390625,-0.2626953125,-0.189453125
2601,-0.07421875,-0.2705078125,-0.171875
2602,-0.115234375,-0.2861328125,-0.1484375
2603,-0.15625,-0.3173828125,-0.130859375
2604,-0.18359375,-0.3515625,-0.123046875
2605,-0.2099609375,-0.392578125,-0.115234375
2606,-0.2099609375,-0.416015625,-0.11328125
2607,-0.1943359375,-0.4404296875,-0.111328125
2608,-0.1474609375,-0.486328125,-0.1103515625
2609,-0.125,-0.5283203125,-0.1015625
2610,-0.099609375,-0.5673828125,-0.0908203125
2611,-0.0771484375,-0.599609375,-0.0849609375
2612,-0.041015625,-0.6435546875,-0.076171875
2613,-0.0244140625,-0.654296875,-0.0654296875
2614,-0.0068359375,-0.666015625,-0.0517578125
2615,0.0048828125,-0.6796875,-0.0302734375
2616,0.0146484375,-0.685546875,-0.0166015625
2617,0.0048828125,-0.68359375,-0.0126953125
2618,0.0068359375,-0.673828125,-0.00390625
2619,0.0,-0.67578125,0.00390625
2620,0.0029296875,-0.6767578125,0.00390625
2621,-0.009765625,-0.6884765625,0.0029296875
2622,-0.0166015625,-0.708984375,-0.0205078125
2623,-0.0166015625,-0.7412109375,-0.0517578125
2624,-0.01171875,-0.7734375,-0.0830078125
2625,-0.0224609375,-0.822265625,-0.11328125
2626,-0.0224609375,-0.89453125,-0.1298828125
2627,0.0,-0.9619140625,-0.138671875
2628,0.0126953125,-1.044921875,-0.1337890625
2629,0.0283203125,-1.1220703125,-0.125
2630,0.0146484375,-1.1884765625,-0.0927734375
2631,-0.0146484375,-1.2529296875,-0.04296875
2632,-0.0634765625,-1.29296875,0.017578125
2633,-0.140625,-1.3271484375,0.0634765625
2634,-0.244140625,-1.3515625,0.107421875
2635,-0.380859375,-1.3642578125,0.1298828125
2636,-0.533203125,-1.375,0.1337890625
2637,-0.701171875,-1.384765625,0.1171875
2638,-0.7939453125,-1.37890625,0.1240234375
2639,-0.849609375,-1.384765625,0.1484375
2640,-0.8603515625,-1.3974609375,0.18359375
2641,-0.822265625,-1.419921875,0.2236328125
2642,-0.7255859375,-1.4443359375,0.21875
2643,-0.5712890625,-1.4658203125,0.169921875
2644,-0.37890625,-1.4609375,0.076171875
2645,-0.1787109375,-1.44140625,-0.0517578125
2646,0.044921875,-1.4111328125,-0.3056640625
2647,0.169921875,-1.3974609375,-0.583984375
2648,0.087890625,-1.3408203125,-0.8720703125
2649,-0.1259765625,-1.248046875,-1.23828125
2650,-0.30859375,-1.1455078125,-1.6328125
2651,-0.376953125,-1.0732421875,-1.7333984375
2652,-0.2958984375,-1.0546875,-1.447265625
2653,-0.1787109375,-1.119140625,-1.0341796875
2654,-0.1123046875,-1.244140625,-0.6044921875
2655,-0.099609375,-1.4013671875,-0.2607421875
2656,-0.095703125,-1.5595703125,-0.0859375
2657,-0.0498046875,-1.6376953125,-0.0498046875
2658,0.0390625,-1.6396484375,-0.09375
2659,0.1240234375,-1.58203125,-0.2138671875
2660,0.173828125,-1.4599609375,-0.390625
2661,0.193359375,-1.3115234375,-0.6015625
2662,0.1416015625,-1.1533203125,-0.7978515625
2663,0.0732421875,-1.029296875,-0.931640625
2664,0.033203125,-0.9306640625,-0.9697265625
2665,0.0048828125,-0.8583984375,-0.8642578125
2666,-0.0166015625,-0.822265625,-0.62890625
2667,-0.03515625,-0.8525390625,-0.359375
2668,-0.076171875,-0.9384765625,-0.25390625
2669,-0.1591796875,-0.9814453125,-0.2041015625
2670,-0.2177734375,-0.9990234375,-0.19140625
2671,-0.267578125,-0.986328125,-0.1962890625
2672,-0.2939453125,-0.97265625,-0.2265625
2673,-0.29296875,-0.9609375,-0.263671875
2674,-0.2841796875,-0.9560546875,-0.306640625
2675,-0.2626953125,-0.9541015625,-0.34765625
2676,-0.248046875,-0.94921875,-0.3759765625
2677,-0.220703125,-0.935546875,-0.388671875
2678,-0.203125,-0.9248046875,-0.390625
2679,-0.1884765625,-0.896484375,-0.37109375
2680,-0.166015625,-0.857421875,-0.357421875
2681,-0.14453125,-0.8203125,-0.3212890625
2682,-0.1171875,-0.783203125,-0.29296875
2683,-0.083984375,-0.72265625,-0.2646484375
2684,-0.0458984375,-0.66015625,-0.2548828125
2685,0.0068359375,-0.6015625,-0.2470703125
2686,0.0634765625,-0.544921875,-0.2509765625
2687,0.0986328125,-0.4814453125,-0.265625
2688,0.1376953125,-0.41796875,-0.2646484375
2689,0.171875,-0.3662109375,-0.265625
2690,0.1943359375,-0.298828125,-0.2587890625
2691,0.203125,-0.2490234375,-0.2509765625
2692,0.2041015625,-0.2197265625,-0.25
2693,0.1845703125,-0.2041015625,-0.2509765625
2694,0.169921875,-0.1865234375,-0.244140625
2695,0.1484375,-0.201171875,-0.224609375
2696,0.1201171875,-0.2255859375,-0.19921875
2697,0.0859375,-0.263671875,-0.154296875
2698,0.05859375,-0.314453125,-0.1201171875
2699,0.0361328125,-0.388671875,-0.0869140625
2700,0.0126953125,-0.4775390625,-0.05859375
2701,-0.0068359375,-0.5419921875,-0.0419921875
2702,-0.0185546875,-0.6123046875,-0.0224609375
2703,-0.01953125,-0.67578125,-0.0126953125
2704,-0.03125,-0.71875,0.001953125
2705,-0.013671875,-0.767578125,0.0087890625
2706,0.0,-0.787109375,0.01953125
2707,0.013671875,-0.8115234375,0.033203125
2708,0.0224609375,-0.822265625,0.0400390625
2709,0.015625,-0.8310546875,0.0400390625
2710,0.0078125,-0.849609375,0.037109375
2711,0.00390625,-0.875,0.0361328125
2712,-0.0087890625,-0.9091796875,0.0439453125
2713,-0.0205078125,-0.9453125,0.0458984375
2714,-0.0205078125,-0.994140625,0.01953125
2715,-0.001953125,-1.056640625,0.0009765625
2716,0.025390625,-1.11328125,-0.0458984375
2717,0.0732421875,-1.173828125,-0.060546875
2718,0.1162109375,-1.205078125,-0.060546875
2719,0.1298828125,-1.2412109375,-0.0537109375
2720,0.1337890625,-1.2529296875,-0.0380859375
2721,0.1484375,-1.2568359375,-0.0078125
2722,0.1669921875,-1.2568359375,0.0009765625
2723,0.19921875,-1.25,0.0048828125
2724,0.265625,-1.2255859375,-0.009765625
2725,0.3193359375,-1.1982421875,-0.0263671875
2726,0.3603515625,-1.1748046875,-0.0419921875
2727,0.3828125,-1.1689453125,-0.0302734375
2728,0.3984375,-1.173828125,0.0283203125
2729,0.40234375,-1.1884765625,0.107421875
2730,0.38671875,-1.232421875,0.1884765625
2731,0.34375,-1.2841796875,0.259765625
2732,0.279296875,-1.322265625,0.2783203125
2733,0.1572265625,-1.3515625,0.24609375
2734,0.056640625,-1.3583984375,0.1630859375
2735,-0.02734375,-1.3466796875,0.037109375
2736,-0.1162109375,-1.326171875,-0.173828125
2737,-0.166015625,-1.2919921875,-0.396484375
2738,-0.171875,-1.27734375,-0.650390625
2739,-0.162109375,-1.2685546875,-0.92578125
2740,-0.150390625,-1.2529296875,-1.1875
2741,-0.1357421875,-1.2509765625,-1.3544921875
2742,-0.111328125,-1.279296875,-1.35546875
2743,-0.06640625,-1.322265625,-1.1943359375
2744,-0.0009765625,-1.4033203125,-0.98046875
2745,0.0595703125,-1.5263671875,-0.767578125
2746,0.1591796875,-1.6171875,-0.552734375
2747,0.248046875,-1.6845703125,-0.3701171875
2748,0.25390625,-1.6640625,-0.2529296875
2749,0.1650390625,-1.607421875,-0.2646484375
2750,0.0673828125,-1.4873046875,-0.373046875
2751,-0.0390625,-1.34765625,-0.48828125
2752,-0.12890625,-1.1748046875,-0.5927734375
2753,-0.185546875,-1.0244140625,-0.646484375
2754,-0.2001953125,-0.90234375,-0.6357421875
2755,-0.2314453125,-0.80859375,-0.568359375
2756,-0.26953125,-0.7666015625,-0.4638671875
2757,-0.283203125,-0.765625,-0.3330078125
2758,-0.294921875,-0.779296875,-0.2109375
2759,-0.2802734375,-0.8369140625,-0.146484375
2760,-0.2236328125,-0.8740234375,-0.1416015625
2761,-0.1572265625,-0.9130859375,-0.1689453125
2762,-0.0625,-0.9296875,-0.197265625
2763,0.015625,-0.9462890625,-0.2314453125
2764,0.095703125,-0.9638671875,-0.265625
2765,0.181640625,-0.9736328125,-0.2958984375
2766,0.2255859375,-0.9814453125,-0.3095703125
2767,0.271484375,-0.9794921875,-0.3076171875
2768,0.2958984375,-0.9658203125,-0.2841796875
2769,0.3134765625,-0.9384765625,-0.2607421875
2770,0.32421875,-0.9130859375,-0.248046875
2771,0.3193359375,-0.857421875,-0.2314453125
2772,0.3046875,-0.7890625,-0.2158203125
2773,0.283203125,-0.7138671875,-0.212890625
2774,0.265625,-0.6337890625,-0.2109375
2775,0.22265625,-0.560546875,-0.2119140625
2776,0.150390625,-0.4619140625,-0.2236328125
2777,0.1064453125,-0.4033203125,-0.2255859375
2778,0.0302734375,-0.3349609375,-0.2265625
2779,-0.041015625,-0.2880859375,-0.2275390625
2780,-0.1044921875,-0.2578125,-0.2216796875
2781,-0.1533203125,-0.240234375,-0.2216796875
2782,-0.2099609375,-0.2412109375,-0.2119140625
2783,-0.2548828125,-0.25390625,-0.2080078125
2784,-0.271484375,-0.2841796875,-0.203125
2785,-0.2705078125,-0.318359375,-0.1875
2786,-0.2666015625,-0.3583984375,-0.169921875
2787,-0.2353515625,-0.4150390625,-0.1533203125
2788,-0.2138671875,-0.4677734375,-0.1298828125
2789,-0.18359375,-0.5146484375,-0.1083984375
