,accelerometerAccelerationX(G),accelerometerAccelerationY(G),accelerometerAccelerationZ(G)
0,0.009765625,-0.92578125,0.0078125
1,0.0146484375,-0.9296875,0.00390625
2,0.0146484375,-0.9287109375,0.0029296875
3,0.0146484375,-0.927734375,0.0009765625
4,0.013671875,-0.9287109375,0.0
5,0.01171875,-0.931640625,0.00390625
6,0.009765625,-0.93359375,0.001953125
7,0.0107421875,-0.9462890625,0.0009765625
8,0.0146484375,-0.935546875,0.0029296875
9,0.0166015625,-0.94140625,-0.0009765625
10,0.0205078125,-0.9326171875,-0.001953125
11,0.0166015625,-0.9404296875,-0.0068359375
12,0.013671875,-0.93359375,0.0
13,0.013671875,-0.931640625,-0.0009765625
14,0.015625,-0.93359375,0.001953125
15,0.015625,-0.931640625,0.00390625
16,0.013671875,-0.931640625,0.0029296875
17,0.013671875,-0.9326171875,-0.0029296875
18,0.0166015625,-0.93359375,0.001953125
19,0.01171875,-0.935546875,-0.001953125
20,0.0107421875,-0.93359375,0.00390625
21,0.013671875,-0.9375,0.0068359375
22,0.01171875,-0.939453125,0.0048828125
23,0.009765625,-0.9326171875,0.005859375
24,0.0126953125,-0.939453125,0.001953125
25,0.0126953125,-0.9365234375,0.0048828125
26,0.015625,-0.9287109375,0.005859375
27,0.015625,-0.9345703125,0.001953125
28,0.0166015625,-0.9287109375,0.0029296875
29,0.0185546875,-0.931640625,0.00390625
30,0.01953125,-0.935546875,0.001953125
31,0.0166015625,-0.94921875,0.0009765625
32,0.01953125,-0.9404296875,0.0
33,0.0244140625,-0.9501953125,-0.0029296875
34,0.0234375,-0.951171875,-0.005859375
35,0.01953125,-0.951171875,-0.0068359375
36,0.01953125,-0.9453125,-0.0068359375
37,0.01953125,-0.9453125,-0.0068359375
38,0.017578125,-0.9423828125,0.0009765625
39,0.0126953125,-0.9384765625,-0.0029296875
40,0.0126953125,-0.9443359375,0.001953125
41,0.009765625,-0.9365234375,-0.0009765625
42,0.0087890625,-0.931640625,0.0029296875
43,0.013671875,-0.9326171875,0.0029296875
44,0.015625,-0.927734375,0.00390625
45,0.0107421875,-0.9306640625,0.0068359375
46,0.009765625,-0.9267578125,0.0048828125
47,0.0087890625,-0.93359375,0.0068359375
48,0.01171875,-0.94140625,0.0087890625
49,0.01171875,-0.9375,0.0078125
50,0.015625,-0.9521484375,0.00390625
51,0.0166015625,-0.939453125,0.0068359375
52,0.01953125,-0.9404296875,0.0009765625
53,0.0244140625,-0.931640625,0.009765625
54,0.0205078125,-0.931640625,0.0087890625
55,0.01953125,-0.9248046875,0.00390625
56,0.0166015625,-0.927734375,0.005859375
57,0.01953125,-0.9287109375,0.0048828125
58,0.0126953125,-0.9306640625,-0.0009765625
59,0.0107421875,-0.94140625,0.0068359375
60,0.013671875,-0.9326171875,0.0048828125
61,0.0078125,-0.9306640625,0.00390625
62,0.009765625,-0.9326171875,0.0068359375
63,0.0087890625,-0.9287109375,0.0078125
64,0.0166015625,-0.9306640625,0.005859375
65,0.015625,-0.9384765625,0.0087890625
66,0.009765625,-0.9306640625,0.015625
67,0.013671875,-0.9306640625,0.0087890625
68,0.015625,-0.9404296875,0.0078125
69,0.01171875,-0.931640625,0.0068359375
70,0.0126953125,-0.9306640625,0.0048828125
71,0.013671875,-0.931640625,0.0029296875
72,0.0126953125,-0.931640625,-0.00390625
73,0.013671875,-0.9345703125,-0.009765625
74,0.0126953125,-0.93359375,-0.001953125
75,0.015625,-0.95703125,0.0009765625
76,0.01953125,-0.9453125,0.0009765625
77,0.0126953125,-0.9521484375,0.0029296875
78,0.01953125,-0.9462890625,0.0078125
79,0.0166015625,-0.9453125,0.0078125
80,0.0126953125,-0.939453125,0.005859375
81,0.0205078125,-0.9482421875,0.00390625
82,0.0166015625,-0.9423828125,0.0048828125
83,0.009765625,-0.939453125,0.0009765625
84,0.015625,-0.935546875,0.0048828125
85,0.009765625,-0.9404296875,0.0
86,0.01171875,-0.9482421875,0.0048828125
87,0.01171875,-0.931640625,0.0048828125
88,0.013671875,-0.94140625,0.001953125
89,0.013671875,-0.94921875,0.001953125
90,0.0146484375,-0.93359375,-0.0029296875
91,0.0185546875,-0.9345703125,-0.0029296875
92,0.0185546875,-0.93359375,0.0
93,0.0166015625,-0.9306640625,0.0068359375
94,0.0126953125,-0.93359375,0.00390625
95,0.0234375,-0.93359375,0.0029296875
96,0.015625,-0.9453125,0.001953125
97,0.013671875,-0.931640625,0.005859375
98,0.01171875,-0.927734375,0.00390625
99,0.013671875,-0.9287109375,0.0029296875
100,0.01171875,-0.93359375,0.0029296875
101,0.0087890625,-0.9287109375,0.00390625
102,0.013671875,-0.9384765625,0.0
103,0.01171875,-0.939453125,0.0
104,0.01171875,-0.939453125,0.001953125
105,0.0087890625,-0.9365234375,0.001953125
106,0.01171875,-0.9404296875,0.005859375
107,0.0126953125,-0.943359375,0.0068359375
108,0.015625,-0.9384765625,0.0068359375
109,0.0087890625,-0.9384765625,0.0068359375
110,0.01171875,-0.935546875,0.0048828125
111,0.0068359375,-0.939453125,0.001953125
112,0.0068359375,-0.9375,0.0048828125
113,0.0068359375,-0.9326171875,-0.001953125
114,0.0107421875,-0.931640625,0.0029296875
115,0.0166015625,-0.931640625,-0.001953125
116,0.0126953125,-0.927734375,-0.0029296875
117,0.0107421875,-0.935546875,0.0009765625
118,0.017578125,-0.9306640625,0.001953125
119,0.01953125,-0.927734375,-0.0009765625
120,0.013671875,-0.9375,0.001953125
121,0.015625,-0.9326171875,0.001953125
122,0.015625,-0.9404296875,0.0107421875
123,0.017578125,-0.9345703125,0.0087890625
124,0.013671875,-0.931640625,0.0087890625
125,0.01171875,-0.9306640625,0.0078125
126,0.0185546875,-0.931640625,0.009765625
127,0.0107421875,-0.9296875,0.0126953125
128,0.0087890625,-0.9365234375,0.013671875
129,0.0107421875,-0.9296875,0.015625
130,0.0126953125,-0.93359375,0.013671875
131,0.013671875,-0.927734375,0.015625
132,0.0166015625,-0.931640625,0.0087890625
133,0.0078125,-0.939453125,0.013671875
134,0.0126953125,-0.9462890625,0.0107421875
135,0.0126953125,-0.94140625,0.0078125
136,0.0078125,-0.9482421875,-0.001953125
137,0.0078125,-0.9404296875,-0.005859375
138,0.0068359375,-0.943359375,-0.01171875
139,0.009765625,-0.92578125,-0.0205078125
140,0.015625,-0.9462890625,-0.0205078125
141,0.0087890625,-0.9423828125,-0.0166015625
142,0.0126953125,-0.94921875,-0.0166015625
143,0.013671875,-0.939453125,-0.0126953125
144,0.0185546875,-0.953125,-0.0146484375
145,0.01171875,-0.943359375,-0.0166015625
146,0.0234375,-0.9404296875,-0.01171875
147,0.0224609375,-0.9453125,-0.015625
148,0.013671875,-0.9443359375,-0.009765625
149,0.0166015625,-0.9462890625,-0.009765625
150,0.025390625,-0.931640625,-0.005859375
151,0.01953125,-0.931640625,-0.0078125
152,0.0244140625,-0.9287109375,0.0009765625
153,0.0244140625,-0.92578125,-0.009765625
154,0.025390625,-0.92578125,0.0009765625
155,0.0234375,-0.9296875,0.0
156,0.0234375,-0.9296875,-0.0009765625
157,0.017578125,-0.93359375,-0.0029296875
158,0.021484375,-0.939453125,-0.001953125
159,0.0205078125,-0.94921875,0.0
160,0.0234375,-0.931640625,-0.0029296875
161,0.0185546875,-0.935546875,-0.00390625
162,0.01953125,-0.931640625,-0.0048828125
163,0.0205078125,-0.9326171875,-0.0009765625
164,0.017578125,-0.931640625,0.0068359375
165,0.0185546875,-0.9296875,0.001953125
166,0.0146484375,-0.9443359375,0.00390625
167,0.0146484375,-0.9404296875,-0.0078125
168,0.0126953125,-0.9482421875,-0.00390625
169,0.015625,-0.9453125,-0.0087890625
170,0.01171875,-0.9296875,-0.0146484375
171,0.0146484375,-0.939453125,-0.015625
172,0.0107421875,-0.9267578125,-0.013671875
173,0.0146484375,-0.9375,-0.009765625
174,0.013671875,-0.9453125,-0.005859375
175,0.015625,-0.9404296875,-0.0078125
176,0.01171875,-0.9443359375,-0.0009765625
177,0.009765625,-0.94140625,-0.0009765625
178,0.01171875,-0.9365234375,-0.001953125
179,0.0107421875,-0.93359375,-0.0048828125
180,0.0068359375,-0.931640625,-0.0078125
181,0.01171875,-0.93359375,-0.0126953125
182,0.0087890625,-0.9404296875,-0.01171875
183,0.0087890625,-0.9453125,-0.01171875
184,0.0107421875,-0.9521484375,-0.0048828125
185,0.005859375,-0.9521484375,-0.015625
186,0.0068359375,-0.9541015625,-0.01171875
187,0.0078125,-0.955078125,-0.0107421875
188,0.0068359375,-0.953125,-0.0078125
189,0.0107421875,-0.9521484375,-0.0029296875
190,0.015625,-0.9462890625,-0.0068359375
191,0.017578125,-0.9482421875,-0.00390625
192,0.0087890625,-0.953125,-0.0107421875
193,0.0166015625,-0.9462890625,-0.01171875
194,0.01171875,-0.9306640625,-0.0126953125
195,0.0068359375,-0.9345703125,-0.0087890625
196,0.009765625,-0.931640625,-0.0107421875
197,0.0087890625,-0.9326171875,-0.0087890625
198,0.0087890625,-0.9345703125,-0.0078125
199,0.01171875,-0.9404296875,-0.0107421875
200,0.0126953125,-0.943359375,-0.0068359375
201,0.01171875,-0.9501953125,-0.0009765625
202,0.013671875,-0.951171875,-0.0048828125
203,0.0107421875,-0.9501953125,-0.005859375
204,0.0107421875,-0.951171875,0.0009765625
205,0.0185546875,-0.9365234375,0.0009765625
206,0.01171875,-0.9443359375,0.0
207,0.0126953125,-0.939453125,0.005859375
208,0.0166015625,-0.9423828125,0.009765625
209,0.015625,-0.935546875,0.01171875
210,0.017578125,-0.94921875,0.0087890625
211,0.0166015625,-0.9443359375,0.0048828125
212,0.0126953125,-0.9384765625,0.0126953125
213,0.0166015625,-0.9287109375,0.00390625
214,0.01953125,-0.92578125,0.0078125
215,0.01953125,-0.9345703125,0.005859375
216,0.0205078125,-0.9248046875,0.009765625
217,0.017578125,-0.9306640625,0.017578125
218,0.0166015625,-0.9287109375,0.0166015625
219,0.0166015625,-0.9267578125,0.021484375
220,0.0205078125,-0.927734375,0.0244140625
221,0.013671875,-0.92578125,0.0224609375
222,0.0205078125,-0.9287109375,0.0234375
223,0.0244140625,-0.9296875,0.029296875
224,0.01953125,-0.9296875,0.0263671875
225,0.0126953125,-0.939453125,0.02734375
226,0.0224609375,-0.931640625,0.0263671875
227,0.0126953125,-0.9296875,0.0224609375
228,0.0205078125,-0.9306640625,0.01953125
229,0.025390625,-0.9306640625,0.0244140625
230,0.021484375,-0.939453125,0.0234375
231,0.013671875,-0.94140625,0.0224609375
232,0.017578125,-0.939453125,0.021484375
233,0.0146484375,-0.939453125,0.0224609375
234,0.015625,-0.9326171875,0.0224609375
235,0.0224609375,-0.9326171875,0.0185546875
236,0.0234375,-0.931640625,0.01953125
237,0.01953125,-0.9326171875,0.0224609375
238,0.013671875,-0.9296875,0.021484375
239,0.0146484375,-0.935546875,0.021484375
240,0.0205078125,-0.9296875,0.0244140625
241,0.01953125,-0.931640625,0.0205078125
242,0.01953125,-0.92578125,0.0244140625
243,0.01953125,-0.9296875,0.0244140625
244,0.017578125,-0.9326171875,0.0263671875
245,0.015625,-0.9345703125,0.0302734375
246,0.015625,-0.9326171875,0.033203125
247,0.01953125,-0.93359375,0.0302734375
248,0.0185546875,-0.939453125,0.0244140625
249,0.015625,-0.9345703125,0.0234375
250,0.015625,-0.9345703125,0.0224609375
251,0.017578125,-0.9326171875,0.0224609375
252,0.0166015625,-0.9306640625,0.0224609375
253,0.01953125,-0.9287109375,0.0244140625
254,0.0126953125,-0.9287109375,0.0244140625
255,0.013671875,-0.943359375,0.01953125
256,0.0126953125,-0.947265625,0.0234375
257,0.0068359375,-0.9462890625,0.0263671875
258,0.0126953125,-0.94140625,0.02734375
259,0.0107421875,-0.9345703125,0.03125
260,0.0126953125,-0.9365234375,0.029296875
261,0.0126953125,-0.9345703125,0.03125
262,0.0146484375,-0.9296875,0.029296875
263,0.0166015625,-0.9296875,0.02734375
264,0.013671875,-0.9296875,0.0263671875
265,0.01953125,-0.9326171875,0.0244140625
266,0.0244140625,-0.9287109375,0.025390625
267,0.0263671875,-0.9287109375,0.0205078125
268,0.0234375,-0.9287109375,0.013671875
269,0.0185546875,-0.9267578125,0.01171875
270,0.0205078125,-0.9267578125,0.009765625
271,0.0234375,-0.9296875,0.0107421875
272,0.0205078125,-0.93359375,0.01953125
273,0.0166015625,-0.9404296875,0.0205078125
274,0.0146484375,-0.943359375,0.01953125
275,0.0107421875,-0.951171875,0.01953125
276,0.0126953125,-0.9521484375,0.021484375
277,0.013671875,-0.9482421875,0.0244140625
278,0.01171875,-0.951171875,0.0234375
279,0.021484375,-0.935546875,0.0234375
280,0.0126953125,-0.947265625,0.01953125
281,0.021484375,-0.9404296875,0.0224609375
282,0.0107421875,-0.9443359375,0.0234375
283,0.0205078125,-0.9501953125,0.0205078125
284,0.0234375,-0.939453125,0.0234375
285,0.01953125,-0.953125,0.0205078125
286,0.01953125,-0.9482421875,0.021484375
287,0.0107421875,-0.93359375,0.0205078125
288,0.0126953125,-0.9462890625,0.0185546875
289,0.01171875,-0.9404296875,0.0234375
290,0.0078125,-0.9296875,0.01953125
291,0.009765625,-0.931640625,0.0185546875
292,0.009765625,-0.93359375,0.0185546875
293,0.009765625,-0.9326171875,0.0244140625
294,0.0107421875,-0.9345703125,0.0205078125
295,0.01171875,-0.93359375,0.0224609375
296,0.0087890625,-0.931640625,0.0205078125
297,0.009765625,-0.9306640625,0.025390625
298,0.0146484375,-0.9306640625,0.025390625
299,0.0107421875,-0.9287109375,0.0234375
300,0.0146484375,-0.9384765625,0.021484375
301,0.015625,-0.9404296875,0.0224609375
302,0.0234375,-0.9375,0.0234375
303,0.01953125,-0.9287109375,0.02734375
304,0.0166015625,-0.9306640625,0.0244140625
305,0.0185546875,-0.9404296875,0.02734375
306,0.021484375,-0.9375,0.0234375
307,0.0224609375,-0.9306640625,0.025390625
308,0.017578125,-0.9384765625,0.02734375
309,0.0166015625,-0.9345703125,0.025390625
310,0.013671875,-0.935546875,0.0283203125
311,0.0166015625,-0.9306640625,0.0234375
312,0.0166015625,-0.93359375,0.025390625
313,0.0234375,-0.9296875,0.0263671875
314,0.015625,-0.9345703125,0.029296875
315,0.01171875,-0.927734375,0.029296875
316,0.01953125,-0.931640625,0.0322265625
317,0.017578125,-0.9365234375,0.0302734375
318,0.0244140625,-0.9345703125,0.0322265625
319,0.0234375,-0.939453125,0.0302734375
320,0.0234375,-0.9326171875,0.03125
321,0.0205078125,-0.9345703125,0.029296875
322,0.025390625,-0.939453125,0.0322265625
323,0.025390625,-0.9326171875,0.029296875
324,0.025390625,-0.935546875,0.0322265625
325,0.0234375,-0.9443359375,0.02734375
326,0.0224609375,-0.93359375,0.0283203125
327,0.0205078125,-0.9404296875,0.0283203125
328,0.01171875,-0.9404296875,0.0322265625
329,0.017578125,-0.935546875,0.03125
330,0.01953125,-0.9384765625,0.03515625
331,0.0234375,-0.939453125,0.0341796875
332,0.0205078125,-0.9345703125,0.029296875
333,0.0166015625,-0.9345703125,0.0322265625
334,0.0166015625,-0.931640625,0.029296875
335,0.015625,-0.9404296875,0.0380859375
336,0.0166015625,-0.93359375,0.0341796875
337,0.0185546875,-0.931640625,0.033203125
338,0.01953125,-0.9306640625,0.0322265625
339,0.017578125,-0.931640625,0.033203125
340,0.017578125,-0.9375,0.0302734375
341,0.0166015625,-0.9287109375,0.029296875
342,0.01953125,-0.93359375,0.0322265625
343,0.01171875,-0.935546875,0.0322265625
344,0.0205078125,-0.9404296875,0.0361328125
345,0.015625,-0.935546875,0.0400390625
346,0.01953125,-0.94140625,0.0380859375
347,0.0146484375,-0.9345703125,0.0322265625
348,0.0146484375,-0.9375,0.0341796875
349,0.017578125,-0.9404296875,0.0244140625
350,0.0166015625,-0.931640625,0.03125
351,0.0205078125,-0.9326171875,0.029296875
352,0.015625,-0.927734375,0.0302734375
353,0.015625,-0.9287109375,0.0283203125
354,0.01953125,-0.931640625,0.0234375
355,0.0107421875,-0.9326171875,0.0302734375
356,0.0205078125,-0.9404296875,0.033203125
357,0.0126953125,-0.9375,0.02734375
358,0.015625,-0.951171875,0.0322265625
359,0.013671875,-0.94921875,0.0390625
360,0.015625,-0.94140625,0.0361328125
361,0.0224609375,-0.9267578125,0.0400390625
362,0.025390625,-0.927734375,0.037109375
363,0.0166015625,-0.927734375,0.03125
364,0.021484375,-0.927734375,0.033203125
365,0.0234375,-0.9287109375,0.0341796875
366,0.0224609375,-0.9287109375,0.0322265625
367,0.01953125,-0.931640625,0.03125
368,0.0205078125,-0.9306640625,0.0234375
369,0.0244140625,-0.9306640625,0.025390625
370,0.017578125,-0.9306640625,0.02734375
371,0.0107421875,-0.931640625,0.0263671875
372,0.0166015625,-0.9462890625,0.029296875
373,0.015625,-0.9423828125,0.0322265625
374,0.0107421875,-0.9521484375,0.0400390625
375,0.0126953125,-0.9462890625,0.0361328125
376,0.021484375,-0.9453125,0.0361328125
377,0.0107421875,-0.9404296875,0.0380859375
378,0.0185546875,-0.9345703125,0.03515625
379,0.0205078125,-0.9384765625,0.037109375
380,0.0205078125,-0.9326171875,0.0380859375
381,0.01953125,-0.9384765625,0.037109375
382,0.0205078125,-0.9384765625,0.0361328125
383,0.01953125,-0.9423828125,0.0322265625
384,0.017578125,-0.931640625,0.033203125
385,0.0205078125,-0.9345703125,0.0322265625
386,0.0185546875,-0.93359375,0.0322265625
387,0.017578125,-0.9375,0.033203125
388,0.01953125,-0.9326171875,0.0302734375
389,0.0166015625,-0.9326171875,0.0302734375
390,0.021484375,-0.9306640625,0.0263671875
391,0.01953125,-0.939453125,0.029296875
392,0.0166015625,-0.9404296875,0.02734375
393,0.0205078125,-0.9404296875,0.0302734375
394,0.0126953125,-0.94140625,0.029296875
395,0.0185546875,-0.9404296875,0.0322265625
396,0.025390625,-0.935546875,0.029296875
397,0.01953125,-0.9404296875,0.029296875
398,0.01953125,-0.9345703125,0.0283203125
399,0.01953125,-0.931640625,0.0263671875
400,0.021484375,-0.9306640625,0.025390625
401,0.0234375,-0.9306640625,0.029296875
402,0.0205078125,-0.9404296875,0.0244140625
403,0.0244140625,-0.9326171875,0.025390625
404,0.0234375,-0.9326171875,0.02734375
405,0.017578125,-0.9326171875,0.02734375
406,0.0244140625,-0.9345703125,0.03125
407,0.0205078125,-0.939453125,0.02734375
408,0.021484375,-0.9345703125,0.03125
409,0.0166015625,-0.9306640625,0.03125
410,0.0205078125,-0.93359375,0.0302734375
411,0.017578125,-0.9345703125,0.0361328125
412,0.0185546875,-0.9345703125,0.0361328125
413,0.0166015625,-0.931640625,0.0341796875
414,0.015625,-0.9267578125,0.0361328125
415,0.0224609375,-0.9326171875,0.037109375
416,0.0126953125,-0.9326171875,0.0361328125
417,0.0205078125,-0.9384765625,0.03125
418,0.0126953125,-0.9345703125,0.03125
419,0.0205078125,-0.93359375,0.033203125
420,0.0244140625,-0.9404296875,0.02734375
421,0.015625,-0.9375,0.0322265625
422,0.015625,-0.9453125,0.0263671875
423,0.013671875,-0.93359375,0.0322265625
424,0.0166015625,-0.94921875,0.033203125
425,0.0146484375,-0.9365234375,0.03125
426,0.015625,-0.9345703125,0.03125
427,0.01953125,-0.931640625,0.033203125
428,0.013671875,-0.935546875,0.033203125
429,0.015625,-0.9326171875,0.0322265625
430,0.0126953125,-0.9404296875,0.0283203125
431,0.0234375,-0.931640625,0.03515625
432,0.013671875,-0.9306640625,0.03125
433,0.021484375,-0.935546875,0.0322265625
434,0.0166015625,-0.9326171875,0.033203125
435,0.0146484375,-0.9375,0.029296875
436,0.0146484375,-0.9423828125,0.0322265625
437,0.015625,-0.939453125,0.0361328125
438,0.0205078125,-0.9384765625,0.0341796875
439,0.021484375,-0.939453125,0.0400390625
440,0.0166015625,-0.939453125,0.033203125
441,0.0234375,-0.9306640625,0.03515625
442,0.0146484375,-0.9404296875,0.0341796875
443,0.0166015625,-0.93359375,0.03125
444,0.01953125,-0.9306640625,0.037109375
445,0.0185546875,-0.9365234375,0.0341796875
446,0.0146484375,-0.939453125,0.03125
447,0.013671875,-0.9345703125,0.0302734375
448,0.0146484375,-0.9296875,0.0302734375
449,0.013671875,-0.94140625,0.0263671875
450,0.0244140625,-0.931640625,0.02734375
451,0.025390625,-0.9326171875,0.0263671875
452,0.01953125,-0.9287109375,0.02734375
453,0.0205078125,-0.9287109375,0.02734375
454,0.0234375,-0.93359375,0.033203125
455,0.0234375,-0.939453125,0.0341796875
456,0.01953125,-0.94921875,0.02734375
457,0.0205078125,-0.9482421875,0.0341796875
458,0.0166015625,-0.9453125,0.0283203125
459,0.0205078125,-0.9404296875,0.03125
460,0.0205078125,-0.9462890625,0.0322265625
461,0.01953125,-0.9345703125,0.0380859375
462,0.017578125,-0.939453125,0.03515625
463,0.017578125,-0.92578125,0.0361328125
464,0.0234375,-0.927734375,0.0361328125
465,0.017578125,-0.9306640625,0.033203125
466,0.01953125,-0.927734375,0.0322265625
467,0.0205078125,-0.931640625,0.033203125
468,0.0244140625,-0.92578125,0.0263671875
469,0.021484375,-0.939453125,0.029296875
470,0.0244140625,-0.93359375,0.02734375
471,0.02734375,-0.92578125,0.0263671875
472,0.0205078125,-0.9365234375,0.0263671875
473,0.0205078125,-0.93359375,0.0361328125
474,0.017578125,-0.93359375,0.0341796875
475,0.01171875,-0.9443359375,0.033203125
476,0.01171875,-0.9501953125,0.041015625
477,0.01171875,-0.9423828125,0.0361328125
478,0.017578125,-0.9384765625,0.033203125
479,0.0126953125,-0.93359375,0.0361328125
480,0.021484375,-0.935546875,0.037109375
481,0.025390625,-0.9365234375,0.0361328125
482,0.0234375,-0.9345703125,0.03125
483,0.0224609375,-0.9345703125,0.03125
484,0.0185546875,-0.931640625,0.0302734375
485,0.01953125,-0.931640625,0.033203125
486,0.0166015625,-0.93359375,0.0283203125
487,0.017578125,-0.9296875,0.0302734375
488,0.01953125,-0.93359375,0.0322265625
489,0.0205078125,-0.9267578125,0.033203125
490,0.021484375,-0.927734375,0.0341796875
491,0.015625,-0.935546875,0.0380859375
492,0.0166015625,-0.9404296875,0.0341796875
493,0.013671875,-0.9326171875,0.033203125
494,0.0146484375,-0.9375,0.03515625
495,0.013671875,-0.9306640625,0.03515625
496,0.021484375,-0.939453125,0.0302734375
497,0.0205078125,-0.9296875,0.0263671875
498,0.0234375,-0.9345703125,0.02734375
499,0.0244140625,-0.935546875,0.025390625
500,0.021484375,-0.935546875,0.0302734375
501,0.0244140625,-0.9287109375,0.03125
502,0.0185546875,-0.9326171875,0.0341796875
503,0.01953125,-0.935546875,0.0341796875
504,0.0234375,-0.927734375,0.0341796875
505,0.0205078125,-0.9296875,0.0341796875
506,0.0205078125,-0.9404296875,0.0341796875
507,0.0166015625,-0.9365234375,0.0322265625
508,0.0166015625,-0.9443359375,0.0361328125
509,0.01953125,-0.94140625,0.0341796875
510,0.017578125,-0.9365234375,0.0361328125
511,0.0205078125,-0.943359375,0.0322265625
512,0.0234375,-0.935546875,0.0263671875
513,0.0185546875,-0.9404296875,0.0302734375
514,0.017578125,-0.94140625,0.03125
515,0.01953125,-0.9462890625,0.03515625
516,0.0205078125,-0.9345703125,0.0302734375
517,0.0166015625,-0.9384765625,0.033203125
518,0.0146484375,-0.9384765625,0.029296875
519,0.0205078125,-0.93359375,0.03125
520,0.015625,-0.931640625,0.03125
521,0.0166015625,-0.9287109375,0.0263671875
522,0.015625,-0.935546875,0.025390625
523,0.0146484375,-0.9326171875,0.0244140625
524,0.015625,-0.9404296875,0.0244140625
525,0.0166015625,-0.9306640625,0.0166015625
526,0.0205078125,-0.9462890625,0.0185546875
527,0.0166015625,-0.953125,0.0166015625
528,0.0166015625,-0.9541015625,0.013671875
529,0.0166015625,-0.95703125,0.009765625
530,0.0146484375,-0.9580078125,0.009765625
531,0.01171875,-0.9609375,0.0068359375
532,0.01953125,-0.96484375,0.0146484375
533,0.0205078125,-0.962890625,0.01171875
534,0.01953125,-0.9677734375,0.013671875
535,0.02734375,-0.962890625,0.0107421875
536,0.0263671875,-0.9638671875,0.0146484375
537,0.0224609375,-0.9599609375,0.015625
538,0.0263671875,-0.9541015625,0.015625
539,0.02734375,-0.951171875,0.015625
540,0.02734375,-0.94140625,0.0205078125
541,0.0283203125,-0.93359375,0.0205078125
542,0.0302734375,-0.9306640625,0.0146484375
543,0.0322265625,-0.923828125,0.021484375
544,0.0322265625,-0.9208984375,0.0224609375
545,0.0341796875,-0.919921875,0.025390625
546,0.0283203125,-0.916015625,0.03125
547,0.0244140625,-0.912109375,0.0283203125
548,0.0224609375,-0.912109375,0.0263671875
549,0.0126953125,-0.908203125,0.025390625
550,0.009765625,-0.9052734375,0.0302734375
551,0.0107421875,-0.9169921875,0.033203125
552,0.0087890625,-0.9189453125,0.029296875
553,0.0087890625,-0.912109375,0.029296875
554,0.013671875,-0.912109375,0.029296875
555,0.01953125,-0.9091796875,0.029296875
556,0.017578125,-0.908203125,0.03125
557,0.0087890625,-0.91015625,0.0302734375
558,0.0126953125,-0.9169921875,0.0302734375
559,0.009765625,-0.916015625,0.021484375
560,0.005859375,-0.91796875,0.0185546875
561,0.0029296875,-0.916015625,0.0146484375
562,0.005859375,-0.91796875,0.0087890625
563,0.0,-0.9228515625,0.001953125
564,0.0029296875,-0.92578125,-0.0029296875
565,0.0009765625,-0.923828125,0.001953125
566,0.001953125,-0.923828125,0.0048828125
567,-0.00390625,-0.9267578125,-0.001953125
568,0.0,-0.9326171875,-0.0146484375
569,0.0029296875,-0.9287109375,-0.0224609375
570,0.0029296875,-0.927734375,-0.0244140625
571,0.0068359375,-0.9326171875,-0.03125
572,0.0048828125,-0.927734375,-0.03515625
573,0.0,-0.9287109375,-0.046875
574,0.0078125,-0.9306640625,-0.0537109375
575,0.00390625,-0.94921875,-0.0615234375
576,0.0078125,-0.94921875,-0.0654296875
577,0.0048828125,-0.95703125,-0.05859375
578,0.0009765625,-0.9599609375,-0.056640625
579,0.005859375,-0.9619140625,-0.060546875
580,0.0048828125,-0.958984375,-0.0625
581,0.0009765625,-0.955078125,-0.060546875
582,0.00390625,-0.9521484375,-0.0654296875
583,0.0009765625,-0.953125,-0.05859375
584,0.005859375,-0.9326171875,-0.060546875
585,0.001953125,-0.9345703125,-0.060546875
586,-0.00390625,-0.9306640625,-0.068359375
587,0.0009765625,-0.92578125,-0.07421875
588,0.0,-0.9267578125,-0.0732421875
589,0.00390625,-0.9228515625,-0.076171875
590,0.0029296875,-0.9208984375,-0.0751953125
591,0.001953125,-0.9169921875,-0.0771484375
592,0.005859375,-0.9091796875,-0.0751953125
593,0.0048828125,-0.908203125,-0.07421875
594,0.005859375,-0.904296875,-0.0810546875
595,0.0068359375,-0.90234375,-0.072265625
596,0.0087890625,-0.904296875,-0.068359375
597,0.0078125,-0.9033203125,-0.0751953125
598,0.0126953125,-0.8994140625,-0.0751953125
599,0.0078125,-0.9072265625,-0.0751953125
600,0.0087890625,-0.904296875,-0.0703125
601,0.0048828125,-0.9052734375,-0.0673828125
602,0.005859375,-0.8935546875,-0.0732421875
603,0.005859375,-0.9052734375,-0.072265625
604,-0.001953125,-0.9013671875,-0.07421875
605,0.0009765625,-0.9013671875,-0.0771484375
606,0.0029296875,-0.9013671875,-0.0810546875
607,0.0,-0.900390625,-0.080078125
608,0.0,-0.90625,-0.0859375
609,0.001953125,-0.9033203125,-0.08984375
610,0.005859375,-0.904296875,-0.0908203125
611,0.0087890625,-0.9013671875,-0.1005859375
612,0.015625,-0.904296875,-0.099609375
613,0.0029296875,-0.9052734375,-0.1123046875
614,0.009765625,-0.9091796875,-0.10546875
615,0.0078125,-0.9111328125,-0.1103515625
616,0.0087890625,-0.9111328125,-0.111328125
617,0.0087890625,-0.9189453125,-0.1220703125
618,0.0068359375,-0.916015625,-0.1259765625
619,0.0048828125,-0.9150390625,-0.1318359375
620,-0.0009765625,-0.9140625,-0.130859375
621,0.0048828125,-0.908203125,-0.134765625
622,0.0009765625,-0.900390625,-0.1396484375
623,0.0,-0.90234375,-0.140625
624,0.0048828125,-0.900390625,-0.1455078125
625,-0.00390625,-0.8984375,-0.146484375
626,-0.001953125,-0.89453125,-0.158203125
627,-0.0048828125,-0.8955078125,-0.1611328125
628,-0.0146484375,-0.8837890625,-0.1611328125
629,-0.0146484375,-0.8876953125,-0.1640625
630,-0.0185546875,-0.8876953125,-0.1591796875
631,-0.017578125,-0.8876953125,-0.162109375
632,-0.015625,-0.8857421875,-0.1630859375
633,-0.015625,-0.8857421875,-0.1640625
634,-0.01171875,-0.876953125,-0.1630859375
635,-0.0087890625,-0.8740234375,-0.16015625
636,-0.009765625,-0.8740234375,-0.1611328125
637,-0.0009765625,-0.875,-0.169921875
638,-0.001953125,-0.873046875,-0.1767578125
639,0.0048828125,-0.8671875,-0.185546875
640,0.00390625,-0.8642578125,-0.1962890625
641,0.0068359375,-0.861328125,-0.216796875
642,0.0087890625,-0.85546875,-0.22265625
643,0.00390625,-0.8583984375,-0.2197265625
644,0.001953125,-0.853515625,-0.2236328125
645,0.0068359375,-0.853515625,-0.2177734375
646,0.0048828125,-0.8486328125,-0.212890625
647,-0.001953125,-0.8564453125,-0.2177734375
648,-0.00390625,-0.837890625,-0.2177734375
649,-0.00390625,-0.837890625,-0.2197265625
650,-0.0146484375,-0.826171875,-0.2216796875
651,-0.0166015625,-0.830078125,-0.2275390625
652,-0.0224609375,-0.822265625,-0.22265625
653,-0.02734375,-0.8212890625,-0.224609375
654,-0.041015625,-0.82421875,-0.2236328125
655,-0.0400390625,-0.8251953125,-0.2255859375
656,-0.04296875,-0.83203125,-0.224609375
657,-0.0380859375,-0.837890625,-0.2431640625
658,-0.02734375,-0.8388671875,-0.2451171875
659,-0.0205078125,-0.8447265625,-0.25390625
660,-0.0126953125,-0.8486328125,-0.2626953125
661,0.001953125,-0.8515625,-0.26171875
662,0.009765625,-0.8583984375,-0.271484375
663,0.0205078125,-0.859375,-0.271484375
664,0.0263671875,-0.8623046875,-0.2763671875
665,0.02734375,-0.865234375,-0.275390625
666,0.0283203125,-0.8642578125,-0.28125
667,0.02734375,-0.853515625,-0.2783203125
668,0.02734375,-0.8408203125,-0.283203125
669,0.0224609375,-0.8388671875,-0.271484375
670,0.015625,-0.822265625,-0.2666015625
671,0.00390625,-0.814453125,-0.2587890625
672,-0.0009765625,-0.7998046875,-0.2548828125
673,-0.0087890625,-0.7939453125,-0.2607421875
674,-0.0224609375,-0.78515625,-0.2666015625
675,-0.0322265625,-0.7841796875,-0.2744140625
676,-0.0439453125,-0.78515625,-0.2763671875
677,-0.0556640625,-0.7998046875,-0.2802734375
678,-0.068359375,-0.8134765625,-0.287109375
679,-0.0732421875,-0.8291015625,-0.2880859375
680,-0.078125,-0.861328125,-0.2919921875
681,-0.0859375,-0.87890625,-0.298828125
682,-0.0966796875,-0.896484375,-0.30078125
683,-0.091796875,-0.9169921875,-0.3115234375
684,-0.0791015625,-0.931640625,-0.32421875
685,-0.072265625,-0.9521484375,-0.3330078125
686,-0.060546875,-0.9609375,-0.3369140625
687,-0.0556640625,-0.970703125,-0.337890625
688,-0.052734375,-0.9716796875,-0.328125
689,-0.0458984375,-0.9599609375,-0.3212890625
690,-0.0546875,-0.9521484375,-0.3271484375
691,-0.060546875,-0.9580078125,-0.337890625
692,-0.0546875,-0.943359375,-0.3408203125
693,-0.064453125,-0.9111328125,-0.34375
694,-0.0673828125,-0.8974609375,-0.3486328125
695,-0.072265625,-0.8837890625,-0.3681640625
696,-0.060546875,-0.8701171875,-0.3642578125
697,-0.060546875,-0.8623046875,-0.3603515625
698,-0.060546875,-0.8564453125,-0.3525390625
699,-0.056640625,-0.8447265625,-0.34375
700,-0.044921875,-0.845703125,-0.3466796875
701,-0.0439453125,-0.8447265625,-0.3564453125
702,-0.037109375,-0.83984375,-0.3671875
703,-0.0283203125,-0.8330078125,-0.3720703125
704,-0.0302734375,-0.837890625,-0.3671875
705,-0.0234375,-0.830078125,-0.3671875
706,-0.0166015625,-0.8203125,-0.3544921875
707,-0.017578125,-0.81640625,-0.3447265625
708,-0.013671875,-0.8232421875,-0.3515625
709,-0.0205078125,-0.828125,-0.3525390625
710,-0.01171875,-0.82421875,-0.3466796875
711,-0.0087890625,-0.8203125,-0.3662109375
712,-0.0234375,-0.8134765625,-0.3818359375
713,-0.0146484375,-0.814453125,-0.4091796875
714,-0.015625,-0.8173828125,-0.421875
715,-0.0126953125,-0.8134765625,-0.427734375
716,-0.01171875,-0.8076171875,-0.4365234375
717,-0.0068359375,-0.810546875,-0.4345703125
718,0.0,-0.8095703125,-0.439453125
719,0.001953125,-0.8125,-0.4443359375
720,0.0048828125,-0.798828125,-0.4462890625
721,-0.001953125,-0.7998046875,-0.4404296875
722,-0.0048828125,-0.8056640625,-0.4453125
723,-0.0048828125,-0.796875,-0.4365234375
724,-0.0048828125,-0.7861328125,-0.4375
725,-0.0166015625,-0.771484375,-0.421875
726,-0.0224609375,-0.7880859375,-0.4296875
727,-0.0263671875,-0.7822265625,-0.41796875
728,-0.0390625,-0.7734375,-0.4267578125
729,-0.044921875,-0.7666015625,-0.4306640625
730,-0.0537109375,-0.751953125,-0.427734375
731,-0.0537109375,-0.755859375,-0.4384765625
732,-0.0673828125,-0.75,-0.439453125
733,-0.0712890625,-0.7568359375,-0.4580078125
734,-0.0712890625,-0.765625,-0.4814453125
735,-0.07421875,-0.779296875,-0.4912109375
736,-0.0791015625,-0.767578125,-0.4990234375
737,-0.072265625,-0.7666015625,-0.51171875
738,-0.0537109375,-0.78125,-0.517578125
739,-0.0380859375,-0.783203125,-0.5146484375
740,-0.0361328125,-0.7783203125,-0.505859375
741,-0.0361328125,-0.7958984375,-0.5185546875
742,-0.048828125,-0.7919921875,-0.509765625
743,-0.0517578125,-0.7861328125,-0.4970703125
744,-0.0537109375,-0.7783203125,-0.5009765625
745,-0.0556640625,-0.765625,-0.48828125
746,-0.0654296875,-0.755859375,-0.4833984375
747,-0.0703125,-0.7421875,-0.4658203125
748,-0.0849609375,-0.716796875,-0.4580078125
749,-0.0927734375,-0.6953125,-0.4619140625
750,-0.095703125,-0.6865234375,-0.4765625
751,-0.109375,-0.6787109375,-0.4970703125
752,-0.111328125,-0.671875,-0.4931640625
753,-0.1162109375,-0.6708984375,-0.505859375
754,-0.12109375,-0.681640625,-0.5166015625
755,-0.1220703125,-0.681640625,-0.5224609375
756,-0.1064453125,-0.69921875,-0.552734375
757,-0.09375,-0.705078125,-0.5390625
758,-0.083984375,-0.7197265625,-0.546875
759,-0.0595703125,-0.7333984375,-0.5439453125
760,-0.0517578125,-0.7431640625,-0.55078125
761,-0.05078125,-0.7607421875,-0.560546875
762,-0.052734375,-0.765625,-0.5595703125
763,-0.0341796875,-0.763671875,-0.55078125
764,-0.0478515625,-0.75,-0.5263671875
765,-0.0615234375,-0.7314453125,-0.52734375
766,-0.0615234375,-0.734375,-0.53515625
767,-0.06640625,-0.7353515625,-0.5390625
768,-0.076171875,-0.728515625,-0.541015625
769,-0.103515625,-0.701171875,-0.53125
770,-0.09765625,-0.6982421875,-0.5419921875
771,-0.1005859375,-0.6845703125,-0.548828125
772,-0.1064453125,-0.6650390625,-0.5400390625
773,-0.119140625,-0.6767578125,-0.5478515625
774,-0.130859375,-0.634765625,-0.5283203125
775,-0.0888671875,-0.7109375,-0.5654296875
776,-0.0986328125,-0.68359375,-0.53515625
777,-0.1025390625,-0.673828125,-0.552734375
778,-0.1083984375,-0.677734375,-0.5703125
779,-0.1396484375,-0.6572265625,-0.5546875
780,-0.087890625,-0.7197265625,-0.5634765625
781,-0.1015625,-0.7119140625,-0.5546875
782,-0.1220703125,-0.6787109375,-0.5263671875
783,-0.12890625,-0.673828125,-0.5283203125
784,-0.140625,-0.6669921875,-0.525390625
785,-0.1396484375,-0.6640625,-0.5185546875
786,-0.177734375,-0.6005859375,-0.509765625
787,-0.119140625,-0.685546875,-0.548828125
788,-0.1318359375,-0.6669921875,-0.55078125
789,-0.1474609375,-0.642578125,-0.55078125
790,-0.1435546875,-0.6474609375,-0.548828125
791,-0.13671875,-0.6416015625,-0.5673828125
792,-0.1328125,-0.6435546875,-0.5849609375
793,-0.1708984375,-0.544921875,-0.5244140625
794,-0.1103515625,-0.6640625,-0.6044921875
795,-0.0908203125,-0.6796875,-0.6083984375
796,-0.0927734375,-0.6689453125,-0.5888671875
797,-0.0947265625,-0.6455078125,-0.5830078125
798,-0.1220703125,-0.640625,-0.5830078125
799,-0.09375,-0.6982421875,-0.5771484375
800,-0.1181640625,-0.6865234375,-0.5625
801,-0.13671875,-0.6728515625,-0.5341796875
802,-0.1787109375,-0.6474609375,-0.515625
803,-0.2109375,-0.6044921875,-0.48828125
804,-0.212890625,-0.640625,-0.51171875
805,-0.2265625,-0.6357421875,-0.4921875
806,-0.240234375,-0.615234375,-0.498046875
807,-0.2431640625,-0.6064453125,-0.51953125
808,-0.23828125,-0.576171875,-0.517578125
809,-0.22265625,-0.5615234375,-0.548828125
810,-0.19140625,-0.5947265625,-0.587890625
811,-0.193359375,-0.5478515625,-0.5712890625
812,-0.134765625,-0.671875,-0.6435546875
813,-0.109375,-0.6708984375,-0.666015625
814,-0.11328125,-0.66015625,-0.6611328125
815,-0.0986328125,-0.6572265625,-0.6640625
816,-0.0810546875,-0.681640625,-0.67578125
817,-0.064453125,-0.7216796875,-0.6826171875
818,-0.0849609375,-0.716796875,-0.673828125
819,-0.09375,-0.720703125,-0.6572265625
820,-0.1298828125,-0.71875,-0.642578125
821,-0.15234375,-0.703125,-0.6298828125
822,-0.19140625,-0.7373046875,-0.6396484375
823,-0.212890625,-0.7275390625,-0.646484375
824,-0.23828125,-0.7099609375,-0.6513671875
825,-0.23046875,-0.6962890625,-0.669921875
826,-0.23828125,-0.671875,-0.66796875
827,-0.23828125,-0.66015625,-0.6787109375
828,-0.1953125,-0.6904296875,-0.705078125
829,-0.1826171875,-0.68359375,-0.716796875
830,-0.16796875,-0.6767578125,-0.7197265625
831,-0.15234375,-0.66796875,-0.7177734375
832,-0.126953125,-0.6845703125,-0.7294921875
833,-0.103515625,-0.6943359375,-0.7275390625
834,-0.0966796875,-0.6982421875,-0.71484375
835,-0.09765625,-0.6982421875,-0.71875
836,-0.1181640625,-0.6845703125,-0.7138671875
837,-0.1220703125,-0.71875,-0.73828125
838,-0.1328125,-0.73046875,-0.744140625
839,-0.1630859375,-0.7158203125,-0.7431640625
840,-0.2001953125,-0.7099609375,-0.7451171875
841,-0.22265625,-0.6982421875,-0.7392578125
842,-0.2373046875,-0.6904296875,-0.7421875
843,-0.2431640625,-0.69921875,-0.740234375
844,-0.2421875,-0.70703125,-0.7412109375
845,-0.2431640625,-0.7041015625,-0.73828125
846,-0.2392578125,-0.6845703125,-0.7255859375
847,-0.2265625,-0.67578125,-0.7333984375
848,-0.2255859375,-0.6728515625,-0.744140625
849,-0.216796875,-0.66796875,-0.7392578125
850,-0.2001953125,-0.666015625,-0.744140625
851,-0.1865234375,-0.6650390625,-0.74609375
852,-0.1796875,-0.67578125,-0.7607421875
853,-0.1630859375,-0.677734375,-0.7509765625
854,-0.169921875,-0.6748046875,-0.7587890625
855,-0.1611328125,-0.67578125,-0.7392578125
856,-0.1708984375,-0.6689453125,-0.7431640625
857,-0.1796875,-0.673828125,-0.732421875
858,-0.1943359375,-0.671875,-0.7216796875
859,-0.197265625,-0.6640625,-0.7080078125
860,-0.21484375,-0.6611328125,-0.7109375
861,-0.2158203125,-0.65625,-0.705078125
862,-0.21484375,-0.671875,-0.7099609375
863,-0.2158203125,-0.658203125,-0.705078125
864,-0.1943359375,-0.66015625,-0.712890625
865,-0.2041015625,-0.6591796875,-0.7177734375
866,-0.193359375,-0.6689453125,-0.7236328125
867,-0.1923828125,-0.669921875,-0.7197265625
868,-0.1806640625,-0.6708984375,-0.728515625
869,-0.1845703125,-0.697265625,-0.7314453125
870,-0.181640625,-0.689453125,-0.7265625
871,-0.1728515625,-0.6923828125,-0.7392578125
872,-0.166015625,-0.6962890625,-0.732421875
873,-0.1865234375,-0.6689453125,-0.7236328125
874,-0.16796875,-0.6728515625,-0.7333984375
875,-0.1728515625,-0.669921875,-0.7294921875
876,-0.185546875,-0.681640625,-0.7255859375
877,-0.18359375,-0.67578125,-0.734375
878,-0.1953125,-0.6826171875,-0.744140625
879,-0.162109375,-0.6806640625,-0.75
880,-0.162109375,-0.7177734375,-0.734375
881,-0.1689453125,-0.671875,-0.7333984375
882,-0.1455078125,-0.6796875,-0.736328125
883,-0.1591796875,-0.669921875,-0.734375
884,-0.162109375,-0.662109375,-0.7412109375
885,-0.16796875,-0.6689453125,-0.7333984375
886,-0.166015625,-0.673828125,-0.7353515625
887,-0.162109375,-0.6650390625,-0.7470703125
888,-0.1533203125,-0.6689453125,-0.7548828125
889,-0.158203125,-0.6630859375,-0.763671875
890,-0.15625,-0.662109375,-0.7685546875
891,-0.185546875,-0.6513671875,-0.7666015625
892,-0.12890625,-0.6240234375,-0.7646484375
893,-0.142578125,-0.6240234375,-0.76171875
894,-0.1533203125,-0.619140625,-0.7646484375
895,-0.150390625,-0.619140625,-0.751953125
896,-0.146484375,-0.6318359375,-0.7470703125
897,-0.146484375,-0.650390625,-0.7353515625
898,-0.1435546875,-0.6689453125,-0.732421875
899,-0.140625,-0.6748046875,-0.7314453125
900,-0.1572265625,-0.6689453125,-0.7275390625
901,-0.15234375,-0.689453125,-0.7216796875
902,-0.177734375,-0.6796875,-0.71875
903,-0.2001953125,-0.6728515625,-0.7255859375
904,-0.240234375,-0.640625,-0.7177734375
905,-0.2021484375,-0.66015625,-0.73046875
906,-0.2314453125,-0.6640625,-0.7353515625
907,-0.2216796875,-0.68359375,-0.732421875
908,-0.2177734375,-0.685546875,-0.734375
909,-0.2138671875,-0.6806640625,-0.75
910,-0.2119140625,-0.6728515625,-0.7490234375
911,-0.201171875,-0.6650390625,-0.759765625
912,-0.1884765625,-0.6767578125,-0.759765625
913,-0.1669921875,-0.689453125,-0.7509765625
914,-0.12890625,-0.7041015625,-0.7392578125
915,-0.130859375,-0.724609375,-0.73828125
916,-0.115234375,-0.744140625,-0.7333984375
917,-0.0966796875,-0.7490234375,-0.7255859375
918,-0.0947265625,-0.7451171875,-0.72265625
919,-0.109375,-0.7451171875,-0.7158203125
920,-0.1337890625,-0.7412109375,-0.689453125
921,-0.15234375,-0.748046875,-0.6826171875
922,-0.171875,-0.7607421875,-0.689453125
923,-0.1875,-0.7685546875,-0.6845703125
924,-0.1923828125,-0.7822265625,-0.703125
925,-0.1865234375,-0.7978515625,-0.71875
926,-0.18359375,-0.8037109375,-0.7177734375
927,-0.173828125,-0.796875,-0.71484375
928,-0.16015625,-0.7958984375,-0.708984375
929,-0.154296875,-0.79296875,-0.6982421875
930,-0.140625,-0.80078125,-0.705078125
931,-0.130859375,-0.80078125,-0.6962890625
932,-0.1171875,-0.794921875,-0.7021484375
933,-0.11328125,-0.8017578125,-0.7041015625
934,-0.1181640625,-0.802734375,-0.7080078125
935,-0.1181640625,-0.7998046875,-0.7138671875
936,-0.1220703125,-0.7939453125,-0.7021484375
937,-0.126953125,-0.7890625,-0.6884765625
938,-0.130859375,-0.7919921875,-0.693359375
939,-0.1337890625,-0.79296875,-0.69921875
940,-0.1435546875,-0.7998046875,-0.70703125
941,-0.1533203125,-0.8076171875,-0.716796875
942,-0.1650390625,-0.8134765625,-0.7177734375
943,-0.173828125,-0.8173828125,-0.7216796875
944,-0.1650390625,-0.826171875,-0.720703125
945,-0.1513671875,-0.830078125,-0.724609375
946,-0.1474609375,-0.8310546875,-0.7275390625
947,-0.1357421875,-0.8369140625,-0.724609375
948,-0.1220703125,-0.841796875,-0.7216796875
949,-0.1181640625,-0.8427734375,-0.716796875
950,-0.1044921875,-0.8369140625,-0.7109375
951,-0.09375,-0.8291015625,-0.71484375
952,-0.087890625,-0.828125,-0.7138671875
953,-0.0830078125,-0.826171875,-0.7109375
954,-0.0859375,-0.826171875,-0.7001953125
955,-0.0947265625,-0.830078125,-0.69921875
956,-0.0986328125,-0.833984375,-0.6953125
957,-0.09765625,-0.8330078125,-0.701171875
958,-0.0947265625,-0.845703125,-0.7001953125
959,-0.10546875,-0.8447265625,-0.7060546875
960,-0.1162109375,-0.845703125,-0.7099609375
961,-0.130859375,-0.84765625,-0.7099609375
962,-0.1279296875,-0.8466796875,-0.705078125
963,-0.1181640625,-0.8359375,-0.69921875
964,-0.1171875,-0.828125,-0.6904296875
965,-0.10546875,-0.8193359375,-0.6845703125
966,-0.1044921875,-0.8125,-0.6767578125
967,-0.0888671875,-0.8056640625,-0.669921875
968,-0.0791015625,-0.80078125,-0.658203125
969,-0.07421875,-0.802734375,-0.6416015625
970,-0.0859375,-0.796875,-0.6240234375
971,-0.08984375,-0.8037109375,-0.611328125
972,-0.09765625,-0.814453125,-0.595703125
973,-0.1064453125,-0.8349609375,-0.5810546875
974,-0.09765625,-0.857421875,-0.5712890625
975,-0.0908203125,-0.8818359375,-0.55859375
976,-0.087890625,-0.9052734375,-0.5439453125
977,-0.08984375,-0.9169921875,-0.5439453125
978,-0.0947265625,-0.927734375,-0.5400390625
979,-0.09375,-0.958984375,-0.5322265625
980,-0.103515625,-0.9736328125,-0.525390625
981,-0.099609375,-0.9990234375,-0.515625
982,-0.091796875,-1.0107421875,-0.5
983,-0.091796875,-1.0302734375,-0.484375
984,-0.09765625,-1.0400390625,-0.46484375
985,-0.0869140625,-1.0439453125,-0.4599609375
986,-0.083984375,-1.0361328125,-0.4462890625
987,-0.0771484375,-1.0263671875,-0.4423828125
988,-0.0615234375,-1.0087890625,-0.435546875
989,-0.0400390625,-0.9921875,-0.4169921875
990,-0.0302734375,-0.9638671875,-0.4052734375
991,-0.03515625,-0.9208984375,-0.390625
992,-0.0263671875,-0.8857421875,-0.3818359375
993,-0.025390625,-0.86328125,-0.3642578125
994,-0.0361328125,-0.845703125,-0.333984375
995,-0.0419921875,-0.8271484375,-0.3056640625
996,-0.0546875,-0.8369140625,-0.28125
997,-0.0654296875,-0.833984375,-0.259765625
998,-0.0712890625,-0.833984375,-0.236328125
999,-0.07421875,-0.8330078125,-0.22265625
1000,-0.083984375,-0.8408203125,-0.2099609375
1001,-0.0859375,-0.845703125,-0.2158203125
1002,-0.0947265625,-0.8623046875,-0.212890625
1003,-0.08203125,-0.8759765625,-0.2138671875
1004,-0.064453125,-0.9052734375,-0.2119140625
1005,-0.0341796875,-0.931640625,-0.2021484375
1006,-0.025390625,-0.96484375,-0.19921875
1007,-0.0068359375,-0.98828125,-0.20703125
1008,-0.0146484375,-1.0,-0.2060546875
1009,-0.01953125,-1.0068359375,-0.2001953125
1010,-0.021484375,-1.0146484375,-0.2080078125
1011,-0.025390625,-1.0009765625,-0.2099609375
1012,-0.03125,-0.998046875,-0.216796875
1013,-0.0302734375,-0.9677734375,-0.2158203125
1014,-0.0380859375,-0.9443359375,-0.2080078125
1015,-0.0390625,-0.9189453125,-0.2158203125
1016,-0.0390625,-0.8974609375,-0.212890625
1017,-0.0439453125,-0.8701171875,-0.2158203125
1018,-0.05078125,-0.8623046875,-0.22265625
1019,-0.037109375,-0.8564453125,-0.232421875
1020,-0.0400390625,-0.849609375,-0.23828125
1021,-0.029296875,-0.841796875,-0.2373046875
1022,-0.0185546875,-0.8505859375,-0.2392578125
1023,-0.013671875,-0.8525390625,-0.24609375
1024,-0.009765625,-0.861328125,-0.2470703125
1025,-0.0078125,-0.87109375,-0.23828125
1026,-0.001953125,-0.8798828125,-0.23828125
1027,-0.005859375,-0.8935546875,-0.2314453125
1028,-0.0107421875,-0.890625,-0.228515625
1029,-0.0107421875,-0.8837890625,-0.212890625
1030,-0.009765625,-0.904296875,-0.2109375
1031,-0.005859375,-0.92578125,-0.2060546875
1032,-0.001953125,-0.931640625,-0.1904296875
1033,0.0078125,-0.9384765625,-0.1796875
1034,0.0234375,-0.9306640625,-0.1708984375
1035,0.0205078125,-0.9267578125,-0.1650390625
1036,0.0185546875,-0.9306640625,-0.16015625
1037,0.017578125,-0.9296875,-0.1611328125
1038,0.0107421875,-0.927734375,-0.158203125
1039,0.0078125,-0.9189453125,-0.1494140625
1040,0.0078125,-0.9169921875,-0.138671875
1041,0.013671875,-0.91015625,-0.1318359375
1042,0.017578125,-0.91015625,-0.125
1043,0.0068359375,-0.908203125,-0.1181640625
1044,-0.0029296875,-0.90625,-0.109375
1045,0.0048828125,-0.90625,-0.1044921875
1046,0.0048828125,-0.9033203125,-0.1015625
1047,-0.00390625,-0.904296875,-0.0947265625
1048,-0.0048828125,-0.908203125,-0.095703125
1049,-0.0048828125,-0.9052734375,-0.0869140625
1050,-0.0126953125,-0.9072265625,-0.0810546875
1051,-0.0146484375,-0.90625,-0.078125
1052,-0.021484375,-0.9111328125,-0.078125
1053,-0.0166015625,-0.9072265625,-0.0791015625
1054,-0.0234375,-0.9208984375,-0.0830078125
1055,-0.0244140625,-0.9189453125,-0.080078125
1056,-0.03125,-0.92578125,-0.0859375
1057,-0.025390625,-0.9326171875,-0.0869140625
1058,-0.025390625,-0.9345703125,-0.07421875
1059,-0.0302734375,-0.9423828125,-0.0703125
1060,-0.03125,-0.9453125,-0.0654296875
1061,-0.0283203125,-0.9365234375,-0.0576171875
1062,-0.029296875,-0.9287109375,-0.0546875
1063,-0.0283203125,-0.9169921875,-0.048828125
1064,-0.0341796875,-0.908203125,-0.0537109375
1065,-0.029296875,-0.9013671875,-0.046875
1066,-0.0302734375,-0.89453125,-0.0537109375
1067,-0.025390625,-0.8984375,-0.052734375
1068,-0.0224609375,-0.8994140625,-0.0556640625
1069,-0.0263671875,-0.90234375,-0.0537109375
1070,-0.025390625,-0.9140625,-0.05859375
1071,-0.0244140625,-0.927734375,-0.064453125
1072,-0.0185546875,-0.9423828125,-0.06640625
1073,-0.0146484375,-0.953125,-0.072265625
1074,-0.0126953125,-0.962890625,-0.0791015625
1075,-0.0146484375,-0.9619140625,-0.0732421875
1076,-0.021484375,-0.9599609375,-0.0732421875
1077,-0.021484375,-0.953125,-0.0751953125
1078,-0.0205078125,-0.9296875,-0.0751953125
1079,-0.0234375,-0.92578125,-0.07421875
1080,-0.017578125,-0.9228515625,-0.0751953125
1081,-0.017578125,-0.919921875,-0.0703125
1082,-0.0283203125,-0.927734375,-0.06640625
1083,-0.0283203125,-0.9287109375,-0.0693359375
1084,-0.0341796875,-0.9306640625,-0.064453125
1085,-0.033203125,-0.9306640625,-0.0625
1086,-0.0380859375,-0.9326171875,-0.0576171875
1087,-0.0390625,-0.9326171875,-0.05859375
1088,-0.0419921875,-0.931640625,-0.05859375
1089,-0.0400390625,-0.927734375,-0.05859375
1090,-0.0361328125,-0.9306640625,-0.05078125
1091,-0.037109375,-0.94140625,-0.029296875
1092,-0.037109375,-0.9267578125,-0.0234375
1093,-0.0341796875,-0.927734375,-0.0078125
1094,-0.02734375,-0.92578125,0.0068359375
1095,-0.025390625,-0.9248046875,0.0146484375
1096,-0.0283203125,-0.9189453125,0.0146484375
1097,-0.0244140625,-0.912109375,0.013671875
1098,-0.021484375,-0.8984375,0.025390625
1099,-0.0166015625,-0.8935546875,0.0185546875
1100,-0.0205078125,-0.8935546875,0.021484375
1101,-0.0205078125,-0.8896484375,0.0302734375
1102,-0.017578125,-0.900390625,0.021484375
1103,-0.015625,-0.9091796875,0.017578125
1104,-0.0166015625,-0.919921875,0.0146484375
1105,-0.017578125,-0.9267578125,0.0048828125
1106,-0.0205078125,-0.9404296875,-0.0048828125
1107,-0.0126953125,-0.94921875,-0.015625
1108,-0.017578125,-0.9501953125,-0.029296875
1109,-0.021484375,-0.9541015625,-0.0498046875
1110,-0.0185546875,-0.94921875,-0.0703125
1111,-0.02734375,-0.9296875,-0.08984375
1112,-0.03125,-0.9267578125,-0.0927734375
1113,-0.0380859375,-0.955078125,-0.0966796875
1114,-0.033203125,-0.974609375,-0.0869140625
1115,-0.013671875,-0.994140625,-0.0751953125
1116,-0.0048828125,-1.00390625,-0.060546875
1117,0.0009765625,-1.0185546875,-0.052734375
1118,0.005859375,-1.0107421875,-0.0419921875
1119,0.0048828125,-1.001953125,-0.0361328125
1120,0.0078125,-0.9765625,-0.0322265625
1121,0.0078125,-0.9619140625,-0.0439453125
1122,0.0087890625,-0.9404296875,-0.048828125
1123,0.0078125,-0.9228515625,-0.052734375
1124,0.0087890625,-0.9150390625,-0.0517578125
1125,0.0087890625,-0.9150390625,-0.0517578125
1126,0.0068359375,-0.923828125,-0.048828125
1127,0.0048828125,-0.927734375,-0.0400390625
1128,-0.0009765625,-0.931640625,-0.0322265625
1129,-0.0029296875,-0.9296875,-0.03515625
1130,-0.00390625,-0.9306640625,-0.0283203125
1131,-0.0048828125,-0.9306640625,-0.025390625
1132,0.0029296875,-0.9248046875,-0.029296875
1133,-0.0029296875,-0.9208984375,-0.0283203125
1134,-0.005859375,-0.91796875,-0.0244140625
1135,-0.0146484375,-0.91015625,-0.01953125
1136,-0.021484375,-0.9111328125,-0.0205078125
1137,-0.02734375,-0.9052734375,-0.0185546875
1138,-0.0283203125,-0.908203125,-0.0166015625
1139,-0.0341796875,-0.9150390625,-0.0107421875
1140,-0.037109375,-0.916015625,0.001953125
1141,-0.0390625,-0.91796875,0.001953125
1142,-0.0458984375,-0.9140625,0.0048828125
1143,-0.0458984375,-0.92578125,0.009765625
1144,-0.046875,-0.931640625,0.0029296875
1145,-0.0419921875,-0.9345703125,0.0029296875
1146,-0.0478515625,-0.9521484375,0.0
1147,-0.0400390625,-0.9541015625,0.0029296875
1148,-0.037109375,-0.9580078125,0.0
1149,-0.037109375,-0.955078125,0.005859375
1150,-0.037109375,-0.9541015625,0.0078125
1151,-0.0341796875,-0.9560546875,0.0048828125
1152,-0.0283203125,-0.9541015625,0.0048828125
1153,-0.0302734375,-0.9521484375,0.00390625
1154,-0.0263671875,-0.9443359375,0.0048828125
1155,-0.025390625,-0.94140625,0.005859375
1156,-0.0166015625,-0.9306640625,0.00390625
1157,-0.015625,-0.9306640625,0.005859375
1158,-0.009765625,-0.9326171875,0.0009765625
1159,-0.0029296875,-0.9326171875,0.001953125
1160,-0.0009765625,-0.9296875,0.0029296875
1161,0.0009765625,-0.9306640625,0.0009765625
1162,0.00390625,-0.927734375,-0.0029296875
1163,0.00390625,-0.93359375,-0.0078125
1164,0.0078125,-0.935546875,-0.005859375
1165,-0.001953125,-0.951171875,-0.0107421875
1166,0.001953125,-0.947265625,-0.01171875
1167,-0.0029296875,-0.9521484375,-0.0068359375
1168,-0.00390625,-0.9453125,-0.0078125
1169,-0.00390625,-0.9404296875,-0.0107421875
1170,-0.00390625,-0.9365234375,-0.009765625
1171,-0.0078125,-0.9306640625,-0.0107421875
1172,-0.0029296875,-0.93359375,-0.0048828125
1173,-0.0078125,-0.9296875,-0.0126953125
1174,-0.01171875,-0.927734375,-0.009765625
1175,-0.0087890625,-0.939453125,-0.005859375
1176,-0.01171875,-0.9404296875,-0.0087890625
1177,-0.0078125,-0.935546875,-0.0087890625
1178,-0.0107421875,-0.947265625,-0.001953125
1179,-0.0146484375,-0.9404296875,-0.0107421875
1180,-0.013671875,-0.9443359375,0.0
1181,-0.015625,-0.9482421875,-0.0068359375
1182,-0.015625,-0.9453125,-0.0078125
1183,-0.015625,-0.9345703125,-0.0078125
1184,-0.0146484375,-0.9423828125,-0.0068359375
1185,-0.015625,-0.94921875,-0.0068359375
1186,-0.017578125,-0.9443359375,-0.0048828125
1187,-0.015625,-0.9423828125,-0.0146484375
1188,-0.01953125,-0.9462890625,-0.0126953125
1189,-0.0166015625,-0.9453125,-0.0009765625
1190,-0.0205078125,-0.951171875,0.0009765625
1191,-0.0185546875,-0.9501953125,0.0
1192,-0.0205078125,-0.955078125,0.0009765625
1193,-0.0185546875,-0.9541015625,-0.009765625
1194,-0.017578125,-0.958984375,-0.0048828125
1195,-0.017578125,-0.955078125,-0.001953125
1196,-0.013671875,-0.9443359375,-0.0009765625
1197,-0.0224609375,-0.931640625,-0.0068359375
1198,-0.013671875,-0.927734375,0.0
1199,-0.0146484375,-0.9267578125,-0.0009765625
1200,-0.0146484375,-0.91796875,-0.005859375
1201,-0.0146484375,-0.9287109375,-0.0029296875
1202,-0.013671875,-0.9267578125,0.0009765625
1203,-0.013671875,-0.923828125,0.0078125
1204,-0.013671875,-0.9287109375,0.0048828125
1205,-0.0126953125,-0.9345703125,0.0068359375
1206,-0.013671875,-0.9423828125,0.015625
1207,-0.0146484375,-0.9462890625,0.0078125
1208,-0.0166015625,-0.939453125,0.005859375
1209,-0.0146484375,-0.9462890625,0.00390625
1210,-0.0146484375,-0.9462890625,0.0009765625
1211,-0.015625,-0.9453125,-0.0087890625
1212,-0.017578125,-0.9453125,-0.0068359375
1213,-0.0126953125,-0.94921875,-0.0185546875
1214,-0.0146484375,-0.947265625,-0.015625
1215,-0.0146484375,-0.951171875,-0.017578125
1216,-0.017578125,-0.9541015625,-0.0107421875
1217,-0.0166015625,-0.9541015625,-0.0107421875
1218,-0.01171875,-0.9521484375,-0.009765625
1219,-0.0146484375,-0.9638671875,-0.0107421875
1220,-0.0166015625,-0.955078125,-0.00390625
1221,-0.013671875,-0.9375,-0.00390625
1222,-0.017578125,-0.9443359375,0.0009765625
1223,-0.021484375,-0.9287109375,0.0029296875
1224,-0.013671875,-0.9267578125,0.0087890625
1225,-0.01171875,-0.919921875,0.0068359375
1226,-0.013671875,-0.9169921875,0.0078125
1227,-0.009765625,-0.9072265625,0.0166015625
1228,-0.0146484375,-0.904296875,0.0166015625
1229,-0.017578125,-0.900390625,0.0185546875
1230,-0.0166015625,-0.9072265625,0.01953125
1231,-0.0146484375,-0.916015625,0.025390625
1232,-0.0166015625,-0.9111328125,0.021484375
1233,-0.0166015625,-0.92578125,0.0185546875
1234,-0.0146484375,-0.9248046875,0.0185546875
1235,-0.013671875,-0.9375,0.021484375
1236,-0.01171875,-0.9404296875,0.0205078125
1237,-0.0107421875,-0.9482421875,0.0224609375
1238,-0.01171875,-0.951171875,0.0126953125
1239,-0.0068359375,-0.955078125,0.0166015625
1240,-0.01171875,-0.9501953125,0.01953125
1241,-0.01171875,-0.94921875,0.015625
1242,-0.0107421875,-0.947265625,0.01171875
1243,-0.013671875,-0.951171875,0.0107421875
1244,-0.013671875,-0.9404296875,0.013671875
1245,-0.0126953125,-0.9443359375,0.0078125
1246,-0.0107421875,-0.9501953125,0.0087890625
1247,-0.0087890625,-0.935546875,0.0078125
1248,-0.009765625,-0.9345703125,0.005859375
1249,-0.01171875,-0.9384765625,0.0078125
1250,-0.009765625,-0.9482421875,0.005859375
1251,-0.013671875,-0.9345703125,0.005859375
1252,-0.01171875,-0.9306640625,0.0009765625
1253,-0.0126953125,-0.9326171875,0.0029296875
1254,-0.0166015625,-0.9404296875,0.0029296875
1255,-0.013671875,-0.939453125,-0.005859375
1256,-0.013671875,-0.931640625,-0.0078125
1257,-0.0107421875,-0.931640625,-0.0087890625
1258,-0.013671875,-0.9296875,-0.00390625
1259,-0.0146484375,-0.939453125,-0.005859375
1260,-0.0126953125,-0.9423828125,-0.0107421875
1261,-0.0107421875,-0.931640625,-0.0166015625
1262,-0.0087890625,-0.94140625,-0.0087890625
1263,-0.0068359375,-0.939453125,-0.013671875
1264,-0.0068359375,-0.9345703125,-0.005859375
1265,-0.01171875,-0.94921875,-0.005859375
1266,-0.0078125,-0.939453125,-0.01171875
1267,-0.01171875,-0.94921875,-0.005859375
1268,-0.0087890625,-0.9521484375,-0.0107421875
1269,-0.013671875,-0.947265625,-0.01171875
1270,-0.0107421875,-0.9482421875,-0.0029296875
1271,-0.013671875,-0.9384765625,-0.0029296875
1272,-0.01171875,-0.93359375,-0.00390625
1273,-0.0107421875,-0.9404296875,-0.0078125
1274,-0.0146484375,-0.9384765625,-0.00390625
1275,-0.013671875,-0.93359375,-0.001953125
1276,-0.013671875,-0.9365234375,0.001953125
1277,-0.013671875,-0.947265625,0.0009765625
1278,-0.013671875,-0.94140625,0.0048828125
1279,-0.0126953125,-0.935546875,0.0048828125
1280,-0.0078125,-0.9384765625,0.00390625
1281,-0.013671875,-0.947265625,0.0009765625
1282,-0.01171875,-0.943359375,0.0
1283,-0.0126953125,-0.939453125,-0.0009765625
1284,-0.0146484375,-0.9462890625,-0.0029296875
1285,-0.01171875,-0.9541015625,0.0
1286,-0.01171875,-0.9521484375,-0.0068359375
1287,-0.009765625,-0.94921875,-0.0009765625
1288,-0.01171875,-0.939453125,0.0009765625
1289,-0.0078125,-0.9453125,-0.0048828125
1290,-0.013671875,-0.9375,-0.005859375
1291,-0.013671875,-0.9375,-0.00390625
1292,-0.013671875,-0.9326171875,-0.005859375
1293,-0.0146484375,-0.93359375,0.0009765625
1294,-0.015625,-0.9375,0.0029296875
1295,-0.009765625,-0.935546875,-0.001953125
1296,-0.0107421875,-0.9423828125,0.0
1297,-0.0166015625,-0.951171875,0.0029296875
1298,-0.021484375,-0.9541015625,0.005859375
1299,-0.0126953125,-0.955078125,0.005859375
1300,-0.0146484375,-0.953125,0.0029296875
1301,-0.0146484375,-0.947265625,0.001953125
1302,-0.013671875,-0.9267578125,0.00390625
1303,-0.009765625,-0.927734375,0.001953125
1304,-0.013671875,-0.9208984375,0.0009765625
1305,-0.0166015625,-0.923828125,0.0029296875
1306,-0.021484375,-0.9228515625,0.0
1307,-0.0146484375,-0.927734375,-0.0009765625
1308,-0.0146484375,-0.9345703125,0.0009765625
1309,-0.017578125,-0.9462890625,0.0009765625
1310,-0.0185546875,-0.9453125,0.00390625
1311,-0.015625,-0.955078125,0.005859375
1312,-0.01171875,-0.9453125,0.009765625
1313,-0.01171875,-0.9521484375,0.005859375
1314,-0.0107421875,-0.951171875,0.0009765625
1315,-0.0068359375,-0.94921875,0.0009765625
1316,-0.0078125,-0.9443359375,0.001953125
1317,-0.009765625,-0.9326171875,-0.0029296875
1318,-0.0078125,-0.931640625,-0.0087890625
1319,-0.0087890625,-0.9306640625,-0.0009765625
1320,-0.0048828125,-0.9287109375,-0.0068359375
1321,-0.0048828125,-0.9287109375,-0.00390625
1322,-0.009765625,-0.9443359375,-0.005859375
1323,-0.01171875,-0.94140625,-0.0048828125
1324,-0.009765625,-0.94140625,-0.00390625
1325,-0.0107421875,-0.939453125,-0.0029296875
1326,-0.01171875,-0.93359375,-0.0029296875
1327,-0.0087890625,-0.9306640625,0.0029296875
1328,-0.01171875,-0.9306640625,0.0009765625
1329,-0.0126953125,-0.9296875,0.0
1330,-0.0107421875,-0.935546875,-0.00390625
1331,-0.01171875,-0.93359375,-0.00390625
1332,-0.013671875,-0.93359375,-0.005859375
1333,-0.0126953125,-0.9306640625,-0.0029296875
1334,-0.013671875,-0.9326171875,-0.0009765625
1335,-0.013671875,-0.9365234375,0.00390625
1336,-0.015625,-0.927734375,0.0029296875
1337,-0.0126953125,-0.931640625,0.00390625
1338,-0.0146484375,-0.93359375,0.0068359375
1339,-0.0107421875,-0.94921875,0.001953125
1340,-0.009765625,-0.935546875,0.0068359375
1341,-0.0087890625,-0.9365234375,0.0029296875
1342,-0.009765625,-0.9453125,0.0048828125
1343,-0.0087890625,-0.94921875,0.0029296875
1344,-0.0107421875,-0.9501953125,0.0009765625
1345,-0.009765625,-0.9521484375,-0.001953125
1346,-0.0107421875,-0.9453125,0.00390625
1347,-0.0087890625,-0.939453125,0.0009765625
1348,-0.0107421875,-0.939453125,0.0048828125
1349,-0.01171875,-0.9326171875,0.0068359375
1350,-0.01171875,-0.9326171875,0.0087890625
1351,-0.013671875,-0.9287109375,0.0087890625
1352,-0.0087890625,-0.92578125,0.0078125
1353,-0.0087890625,-0.935546875,0.0048828125
1354,-0.013671875,-0.9306640625,0.0087890625
1355,-0.013671875,-0.931640625,0.005859375
1356,-0.013671875,-0.9345703125,0.00390625
1357,-0.01171875,-0.93359375,0.001953125
1358,-0.013671875,-0.9375,0.0068359375
1359,-0.0107421875,-0.94140625,0.00390625
1360,-0.01171875,-0.9404296875,0.001953125
1361,-0.0068359375,-0.939453125,0.0009765625
1362,-0.013671875,-0.9423828125,0.001953125
1363,-0.01171875,-0.931640625,0.0009765625
1364,-0.0126953125,-0.935546875,0.0048828125
1365,-0.0107421875,-0.9296875,0.00390625
1366,-0.0078125,-0.9345703125,0.001953125
1367,-0.0107421875,-0.9296875,0.0029296875
1368,-0.0146484375,-0.9306640625,0.0029296875
1369,-0.009765625,-0.9462890625,0.0029296875
1370,-0.0126953125,-0.943359375,0.00390625
1371,-0.0107421875,-0.9521484375,0.0
1372,-0.0107421875,-0.9521484375,0.00390625
1373,-0.0107421875,-0.9541015625,0.0068359375
1374,-0.013671875,-0.9521484375,-0.001953125
1375,-0.0078125,-0.9501953125,0.0009765625
1376,-0.009765625,-0.939453125,0.0
1377,-0.009765625,-0.9404296875,0.0009765625
1378,-0.0087890625,-0.931640625,0.0029296875
1379,-0.0087890625,-0.9287109375,0.0048828125
1380,-0.0107421875,-0.919921875,0.0
1381,-0.0087890625,-0.923828125,0.0
1382,-0.013671875,-0.9267578125,0.005859375
1383,-0.0107421875,-0.927734375,0.001953125
1384,-0.0126953125,-0.9326171875,0.00390625
1385,-0.0126953125,-0.9326171875,0.001953125
1386,-0.015625,-0.943359375,0.0048828125
1387,-0.013671875,-0.951171875,0.0068359375
1388,-0.0146484375,-0.9521484375,0.001953125
1389,-0.013671875,-0.9521484375,0.0029296875
1390,-0.01171875,-0.9521484375,0.00390625
1391,-0.01171875,-0.9501953125,0.001953125
1392,-0.01171875,-0.94140625,0.00390625
1393,-0.0107421875,-0.931640625,0.0048828125
1394,-0.0107421875,-0.939453125,0.0
1395,-0.01171875,-0.931640625,-0.00390625
1396,-0.01171875,-0.9482421875,0.0009765625
1397,-0.009765625,-0.9345703125,0.0029296875
1398,-0.01171875,-0.94921875,0.0048828125
1399,-0.01171875,-0.951171875,0.001953125
1400,-0.01171875,-0.9521484375,0.013671875
1401,-0.01171875,-0.94921875,0.0048828125
1402,-0.013671875,-0.9462890625,0.0029296875
1403,-0.01171875,-0.9541015625,0.0078125
1404,-0.0126953125,-0.9501953125,0.0078125
1405,-0.0107421875,-0.931640625,0.0078125
1406,-0.01171875,-0.9306640625,0.00390625
1407,-0.009765625,-0.921875,0.0029296875
1408,-0.01171875,-0.9208984375,0.0048828125
1409,-0.01171875,-0.91796875,-0.001953125
1410,-0.013671875,-0.919921875,0.00390625
1411,-0.009765625,-0.927734375,0.00390625
1412,-0.0087890625,-0.927734375,0.0126953125
1413,-0.0146484375,-0.9404296875,0.005859375
1414,-0.01171875,-0.9423828125,0.00390625
1415,-0.0078125,-0.9521484375,0.0068359375
1416,-0.0146484375,-0.9404296875,0.009765625
1417,-0.0107421875,-0.9521484375,0.005859375
1418,-0.01171875,-0.939453125,0.005859375
1419,-0.0107421875,-0.9462890625,0.0068359375
1420,-0.0107421875,-0.94140625,0.0029296875
1421,-0.01171875,-0.939453125,0.0
1422,-0.009765625,-0.9423828125,0.0029296875
1423,-0.0078125,-0.935546875,0.0
1424,-0.0146484375,-0.9453125,0.0
1425,-0.0166015625,-0.951171875,0.0009765625
1426,-0.009765625,-0.93359375,0.0009765625
1427,-0.0087890625,-0.9326171875,-0.001953125
1428,-0.0107421875,-0.9384765625,-0.0009765625
1429,-0.015625,-0.939453125,0.0029296875
1430,-0.0146484375,-0.9384765625,0.0
1431,-0.01171875,-0.9287109375,0.00390625
1432,-0.0107421875,-0.931640625,0.0
1433,-0.0146484375,-0.9296875,0.0068359375
1434,-0.0126953125,-0.931640625,0.0009765625
1435,-0.0126953125,-0.93359375,0.00390625
1436,-0.009765625,-0.93359375,0.001953125
1437,-0.009765625,-0.935546875,0.0029296875
1438,-0.009765625,-0.9404296875,0.0068359375
1439,-0.01171875,-0.939453125,0.0078125
1440,-0.015625,-0.9345703125,0.0068359375
1441,-0.01171875,-0.93359375,0.0048828125
1442,-0.0185546875,-0.9326171875,0.00390625
1443,-0.013671875,-0.931640625,0.013671875
1444,-0.0146484375,-0.93359375,0.009765625
1445,-0.0107421875,-0.931640625,0.01171875
1446,-0.009765625,-0.9521484375,0.0107421875
1447,-0.005859375,-0.9423828125,0.0107421875
1448,-0.01171875,-0.9453125,0.017578125
1449,-0.009765625,-0.94921875,0.0078125
1450,-0.0087890625,-0.953125,0.01171875
1451,-0.009765625,-0.9453125,0.005859375
1452,-0.009765625,-0.9443359375,0.0068359375
1453,-0.0126953125,-0.9345703125,0.0078125
1454,-0.01171875,-0.93359375,0.0078125
1455,-0.0068359375,-0.9267578125,0.005859375
1456,-0.013671875,-0.923828125,0.0078125
1457,-0.009765625,-0.9287109375,0.0068359375
1458,-0.01171875,-0.9287109375,0.0087890625
1459,-0.009765625,-0.931640625,0.0107421875
1460,-0.0078125,-0.931640625,0.0087890625
1461,-0.009765625,-0.9404296875,0.005859375
1462,-0.0107421875,-0.9443359375,0.0068359375
1463,-0.013671875,-0.939453125,0.0068359375
1464,-0.009765625,-0.9443359375,0.0068359375
1465,-0.0126953125,-0.94921875,0.0068359375
1466,-0.0107421875,-0.9462890625,0.0048828125
1467,-0.0107421875,-0.9384765625,0.001953125
1468,-0.0087890625,-0.9453125,0.0029296875
1469,-0.0068359375,-0.931640625,0.0078125
1470,-0.009765625,-0.9443359375,0.00390625
1471,-0.0107421875,-0.93359375,-0.0009765625
1472,-0.009765625,-0.927734375,0.005859375
1473,-0.0126953125,-0.9306640625,0.0087890625
1474,-0.013671875,-0.9306640625,0.0078125
1475,-0.01171875,-0.9306640625,0.0107421875
1476,-0.01171875,-0.9443359375,0.005859375
1477,-0.0107421875,-0.93359375,0.0029296875
1478,-0.0126953125,-0.9296875,0.0068359375
1479,-0.0107421875,-0.9384765625,0.005859375
1480,-0.013671875,-0.9443359375,0.009765625
1481,-0.0068359375,-0.9453125,0.0087890625
1482,-0.009765625,-0.94921875,0.0048828125
1483,-0.0107421875,-0.9443359375,0.009765625
1484,-0.0107421875,-0.94140625,0.0087890625
1485,-0.01171875,-0.9306640625,0.001953125
1486,-0.0126953125,-0.939453125,0.0029296875
1487,-0.009765625,-0.94140625,0.0078125
1488,-0.0126953125,-0.939453125,0.0048828125
1489,-0.013671875,-0.9287109375,0.0048828125
1490,-0.0126953125,-0.935546875,0.0048828125
1491,-0.009765625,-0.931640625,0.0068359375
1492,-0.0166015625,-0.9384765625,0.0009765625
1493,-0.009765625,-0.9365234375,0.005859375
1494,-0.0107421875,-0.9345703125,0.0078125
1495,-0.0107421875,-0.9287109375,0.0068359375
1496,-0.01171875,-0.9306640625,0.0068359375
1497,-0.013671875,-0.931640625,0.0087890625
1498,-0.0107421875,-0.939453125,0.0078125
1499,-0.01171875,-0.9296875,0.009765625
1500,-0.0146484375,-0.939453125,0.0068359375
1501,-0.013671875,-0.931640625,0.009765625
1502,-0.0107421875,-0.9345703125,0.0107421875
1503,-0.01171875,-0.951171875,0.0048828125
1504,-0.01171875,-0.9462890625,0.0078125
1505,-0.015625,-0.9541015625,0.0048828125
1506,-0.0205078125,-0.9521484375,0.001953125
1507,-0.0146484375,-0.951171875,0.0068359375
1508,-0.01953125,-0.953125,0.0048828125
1509,-0.01953125,-0.935546875,0.00390625
1510,-0.01171875,-0.9423828125,0.0068359375
1511,-0.015625,-0.9326171875,0.0048828125
1512,-0.0146484375,-0.953125,0.001953125
1513,-0.0146484375,-0.951171875,0.00390625
1514,-0.015625,-0.9560546875,0.009765625
1515,-0.015625,-0.958984375,0.0126953125
1516,-0.0185546875,-0.958984375,0.0126953125
1517,-0.0146484375,-0.9609375,0.0126953125
1518,-0.01953125,-0.9609375,0.0107421875
1519,-0.0166015625,-0.9609375,0.01171875
1520,-0.017578125,-0.9619140625,0.0068359375
1521,-0.015625,-0.9580078125,0.00390625
1522,-0.015625,-0.94140625,0.0
1523,-0.017578125,-0.939453125,0.001953125
1524,-0.0234375,-0.9296875,-0.0009765625
1525,-0.0244140625,-0.9326171875,-0.0009765625
1526,-0.01953125,-0.9345703125,-0.0029296875
1527,-0.02734375,-0.9375,-0.0009765625
1528,-0.025390625,-0.955078125,-0.001953125
1529,-0.0263671875,-0.9599609375,-0.0029296875
1530,-0.02734375,-0.96484375,0.0009765625
1531,-0.0322265625,-0.9658203125,-0.0029296875
1532,-0.0263671875,-0.962890625,0.001953125
1533,-0.0244140625,-0.958984375,0.0
1534,-0.025390625,-0.9521484375,0.001953125
1535,-0.0146484375,-0.94921875,-0.0068359375
1536,-0.01171875,-0.9345703125,-0.0009765625
1537,-0.009765625,-0.9228515625,-0.0048828125
1538,-0.005859375,-0.9208984375,0.0
1539,-0.0107421875,-0.91796875,0.0009765625
1540,-0.009765625,-0.9130859375,0.0048828125
1541,-0.0107421875,-0.908203125,0.0087890625
1542,-0.013671875,-0.9072265625,0.0166015625
1543,-0.015625,-0.91015625,0.017578125
1544,-0.0146484375,-0.91796875,0.0185546875
1545,-0.021484375,-0.9189453125,0.017578125
1546,-0.0224609375,-0.9111328125,0.0205078125
1547,-0.0205078125,-0.912109375,0.025390625
1548,-0.017578125,-0.9111328125,0.0234375
1549,-0.0107421875,-0.9072265625,0.025390625
1550,-0.0126953125,-0.91015625,0.021484375
1551,-0.001953125,-0.90625,0.0244140625
1552,0.0048828125,-0.9072265625,0.0234375
1553,0.0029296875,-0.90234375,0.0205078125
1554,0.0048828125,-0.908203125,0.017578125
1555,0.0029296875,-0.9111328125,0.015625
1556,0.0048828125,-0.912109375,0.015625
1557,0.0048828125,-0.9189453125,0.013671875
1558,-0.0009765625,-0.919921875,0.0185546875
1559,-0.005859375,-0.91796875,0.0185546875
1560,-0.005859375,-0.9248046875,0.0126953125
1561,-0.01171875,-0.9228515625,0.0166015625
1562,-0.0107421875,-0.9248046875,0.021484375
1563,-0.0087890625,-0.9228515625,0.0185546875
1564,-0.0107421875,-0.9228515625,0.01953125
1565,-0.0068359375,-0.91796875,0.0205078125
1566,-0.0068359375,-0.919921875,0.017578125
1567,-0.0166015625,-0.9150390625,0.0146484375
1568,-0.0087890625,-0.9140625,0.009765625
1569,-0.01171875,-0.91015625,0.009765625
1570,-0.0087890625,-0.90625,0.00390625
1571,-0.0068359375,-0.9052734375,0.0009765625
1572,-0.00390625,-0.90234375,0.0009765625
1573,-0.0048828125,-0.9052734375,-0.0009765625
1574,-0.0048828125,-0.900390625,-0.0068359375
1575,-0.00390625,-0.90234375,-0.017578125
1576,0.0048828125,-0.90234375,-0.01171875
1577,-0.0048828125,-0.896484375,-0.01953125
1578,0.001953125,-0.900390625,-0.0205078125
1579,-0.0009765625,-0.9033203125,-0.025390625
1580,0.005859375,-0.908203125,-0.03515625
1581,0.005859375,-0.919921875,-0.0361328125
1582,0.0107421875,-0.923828125,-0.04296875
1583,0.0078125,-0.9208984375,-0.0556640625
1584,-0.001953125,-0.9208984375,-0.0615234375
1585,-0.001953125,-0.92578125,-0.068359375
1586,-0.0009765625,-0.91796875,-0.0751953125
1587,-0.013671875,-0.9208984375,-0.080078125
1588,-0.01171875,-0.9228515625,-0.087890625
1589,-0.0166015625,-0.9228515625,-0.09375
1590,-0.0224609375,-0.919921875,-0.1015625
1591,-0.0263671875,-0.919921875,-0.1171875
1592,-0.0283203125,-0.9091796875,-0.1337890625
1593,-0.03125,-0.9052734375,-0.14453125
1594,-0.0419921875,-0.8994140625,-0.16015625
1595,-0.052734375,-0.880859375,-0.189453125
1596,-0.0517578125,-0.8798828125,-0.2119140625
1597,-0.0546875,-0.869140625,-0.2255859375
1598,-0.0546875,-0.8662109375,-0.234375
1599,-0.0458984375,-0.875,-0.2353515625
1600,-0.0390625,-0.8857421875,-0.2314453125
1601,-0.041015625,-0.9052734375,-0.2294921875
1602,-0.037109375,-0.904296875,-0.228515625
1603,-0.041015625,-0.9228515625,-0.2265625
1604,-0.029296875,-0.921875,-0.2255859375
1605,-0.0419921875,-0.9228515625,-0.2099609375
1606,-0.041015625,-0.921875,-0.2138671875
1607,-0.0458984375,-0.9267578125,-0.220703125
1608,-0.0595703125,-0.921875,-0.21484375
1609,-0.0595703125,-0.921875,-0.2314453125
1610,-0.0537109375,-0.9189453125,-0.23046875
1611,-0.068359375,-0.912109375,-0.2421875
1612,-0.05078125,-0.8994140625,-0.25390625
1613,-0.0498046875,-0.8994140625,-0.2578125
1614,-0.044921875,-0.8984375,-0.26171875
1615,-0.03515625,-0.8955078125,-0.26171875
1616,-0.041015625,-0.888671875,-0.267578125
1617,-0.029296875,-0.90234375,-0.2685546875
1618,-0.0390625,-0.91015625,-0.26171875
1619,-0.03125,-0.8994140625,-0.2705078125
1620,-0.0400390625,-0.9052734375,-0.2744140625
1621,-0.0361328125,-0.927734375,-0.2900390625
1622,-0.0390625,-0.9091796875,-0.2822265625
1623,-0.0419921875,-0.9111328125,-0.2880859375
1624,-0.037109375,-0.9130859375,-0.2880859375
1625,-0.041015625,-0.9072265625,-0.2939453125
1626,-0.0478515625,-0.9013671875,-0.3056640625
1627,-0.04296875,-0.8935546875,-0.31640625
1628,-0.0341796875,-0.8955078125,-0.3076171875
1629,-0.037109375,-0.8876953125,-0.326171875
1630,-0.0419921875,-0.89453125,-0.33203125
1631,-0.025390625,-0.888671875,-0.353515625
1632,-0.017578125,-0.892578125,-0.3662109375
1633,-0.0087890625,-0.8798828125,-0.3916015625
1634,0.0107421875,-0.888671875,-0.384765625
1635,0.00390625,-0.87109375,-0.4072265625
1636,-0.0048828125,-0.86328125,-0.4072265625
1637,-0.005859375,-0.86328125,-0.408203125
1638,-0.0166015625,-0.85546875,-0.39453125
1639,-0.0263671875,-0.85546875,-0.3828125
1640,-0.0390625,-0.849609375,-0.3779296875
1641,-0.0556640625,-0.861328125,-0.359375
1642,-0.0576171875,-0.8583984375,-0.341796875
1643,-0.06640625,-0.880859375,-0.3544921875
1644,-0.0751953125,-0.8671875,-0.36328125
1645,-0.076171875,-0.8818359375,-0.3798828125
1646,-0.0791015625,-0.8720703125,-0.4052734375
1647,-0.0751953125,-0.8759765625,-0.4287109375
1648,-0.0751953125,-0.875,-0.4326171875
1649,-0.072265625,-0.8779296875,-0.4287109375
1650,-0.0595703125,-0.8857421875,-0.42578125
1651,-0.0595703125,-0.890625,-0.4189453125
1652,-0.0625,-0.9013671875,-0.41796875
1653,-0.0693359375,-0.904296875,-0.4140625
1654,-0.072265625,-0.890625,-0.3994140625
1655,-0.072265625,-0.87890625,-0.388671875
1656,-0.0791015625,-0.8603515625,-0.3681640625
1657,-0.0849609375,-0.8515625,-0.375
1658,-0.0859375,-0.853515625,-0.392578125
1659,-0.0869140625,-0.841796875,-0.388671875
1660,-0.0869140625,-0.833984375,-0.3974609375
1661,-0.0869140625,-0.83203125,-0.390625
1662,-0.091796875,-0.8505859375,-0.3994140625
1663,-0.10546875,-0.859375,-0.416015625
1664,-0.109375,-0.86328125,-0.4296875
1665,-0.109375,-0.8681640625,-0.435546875
1666,-0.1103515625,-0.8583984375,-0.4375
1667,-0.1181640625,-0.857421875,-0.4443359375
1668,-0.12109375,-0.857421875,-0.4453125
1669,-0.1328125,-0.8466796875,-0.431640625
1670,-0.1435546875,-0.8486328125,-0.4287109375
1671,-0.1533203125,-0.8515625,-0.4306640625
1672,-0.1533203125,-0.83984375,-0.4306640625
1673,-0.1630859375,-0.8388671875,-0.421875
1674,-0.154296875,-0.8349609375,-0.421875
1675,-0.1494140625,-0.8330078125,-0.4169921875
1676,-0.13671875,-0.83203125,-0.4287109375
1677,-0.130859375,-0.841796875,-0.439453125
1678,-0.1181640625,-0.8525390625,-0.4609375
1679,-0.107421875,-0.876953125,-0.4853515625
1680,-0.099609375,-0.88671875,-0.5087890625
1681,-0.0732421875,-0.9013671875,-0.5361328125
1682,-0.064453125,-0.892578125,-0.55078125
1683,-0.0537109375,-0.8857421875,-0.5673828125
1684,-0.060546875,-0.88671875,-0.5654296875
1685,-0.0869140625,-0.8740234375,-0.5537109375
1686,-0.0947265625,-0.8720703125,-0.546875
1687,-0.111328125,-0.8623046875,-0.5283203125
1688,-0.12890625,-0.87109375,-0.515625
1689,-0.134765625,-0.861328125,-0.521484375
1690,-0.1328125,-0.8642578125,-0.5205078125
1691,-0.1298828125,-0.876953125,-0.533203125
1692,-0.1337890625,-0.8837890625,-0.533203125
1693,-0.1298828125,-0.8857421875,-0.544921875
1694,-0.1240234375,-0.890625,-0.5634765625
1695,-0.1181640625,-0.8984375,-0.5810546875
1696,-0.125,-0.892578125,-0.59765625
1697,-0.1259765625,-0.8876953125,-0.6083984375
1698,-0.1201171875,-0.884765625,-0.6201171875
1699,-0.1220703125,-0.88671875,-0.625
1700,-0.125,-0.8935546875,-0.6337890625
1701,-0.1240234375,-0.90234375,-0.650390625
1702,-0.1279296875,-0.91015625,-0.66796875
1703,-0.1328125,-0.9111328125,-0.6796875
1704,-0.134765625,-0.904296875,-0.69921875
1705,-0.142578125,-0.900390625,-0.70703125
1706,-0.1416015625,-0.8916015625,-0.7138671875
1707,-0.14453125,-0.876953125,-0.732421875
1708,-0.1474609375,-0.8740234375,-0.728515625
1709,-0.140625,-0.87109375,-0.728515625
1710,-0.1484375,-0.8671875,-0.728515625
1711,-0.1416015625,-0.8701171875,-0.736328125
1712,-0.1484375,-0.8623046875,-0.7421875
1713,-0.1513671875,-0.8505859375,-0.75
1714,-0.1474609375,-0.83984375,-0.7529296875
1715,-0.146484375,-0.8369140625,-0.7509765625
1716,-0.138671875,-0.8271484375,-0.7587890625
1717,-0.1396484375,-0.8291015625,-0.7607421875
1718,-0.138671875,-0.828125,-0.7685546875
1719,-0.1455078125,-0.8388671875,-0.7685546875
1720,-0.1513671875,-0.8349609375,-0.7744140625
1721,-0.146484375,-0.837890625,-0.7666015625
1722,-0.130859375,-0.8427734375,-0.759765625
1723,-0.1201171875,-0.833984375,-0.75
1724,-0.1142578125,-0.826171875,-0.7529296875
1725,-0.109375,-0.8232421875,-0.751953125
1726,-0.111328125,-0.81640625,-0.7529296875
1727,-0.10546875,-0.8125,-0.76171875
1728,-0.1044921875,-0.80859375,-0.767578125
1729,-0.1025390625,-0.810546875,-0.76171875
1730,-0.09765625,-0.814453125,-0.771484375
1731,-0.103515625,-0.830078125,-0.7685546875
1732,-0.1142578125,-0.8427734375,-0.755859375
1733,-0.1171875,-0.8544921875,-0.75390625
1734,-0.123046875,-0.8525390625,-0.7490234375
1735,-0.1181640625,-0.849609375,-0.748046875
1736,-0.123046875,-0.84375,-0.7578125
1737,-0.1279296875,-0.83984375,-0.76171875
1738,-0.1171875,-0.84375,-0.765625
1739,-0.1181640625,-0.8447265625,-0.7626953125
1740,-0.1064453125,-0.84765625,-0.759765625
1741,-0.0966796875,-0.8583984375,-0.7490234375
1742,-0.0908203125,-0.8623046875,-0.740234375
1743,-0.0888671875,-0.865234375,-0.736328125
1744,-0.0830078125,-0.8662109375,-0.7314453125
1745,-0.083984375,-0.8681640625,-0.720703125
1746,-0.091796875,-0.8701171875,-0.7138671875
1747,-0.09375,-0.8701171875,-0.712890625
1748,-0.0908203125,-0.8671875,-0.7119140625
1749,-0.1015625,-0.8642578125,-0.7158203125
1750,-0.1025390625,-0.8603515625,-0.7138671875
1751,-0.1044921875,-0.859375,-0.7138671875
1752,-0.0986328125,-0.865234375,-0.71484375
1753,-0.0849609375,-0.8642578125,-0.708984375
1754,-0.0849609375,-0.8662109375,-0.6962890625
1755,-0.076171875,-0.8642578125,-0.68359375
1756,-0.0703125,-0.865234375,-0.6748046875
1757,-0.0712890625,-0.8642578125,-0.662109375
1758,-0.0693359375,-0.8583984375,-0.654296875
1759,-0.0771484375,-0.8427734375,-0.650390625
1760,-0.078125,-0.83984375,-0.6484375
1761,-0.07421875,-0.8330078125,-0.642578125
1762,-0.08203125,-0.8212890625,-0.6396484375
1763,-0.0791015625,-0.8232421875,-0.634765625
1764,-0.0791015625,-0.8173828125,-0.6328125
1765,-0.0791015625,-0.822265625,-0.634765625
1766,-0.0830078125,-0.8271484375,-0.6357421875
1767,-0.080078125,-0.8310546875,-0.63671875
1768,-0.0869140625,-0.8369140625,-0.6357421875
1769,-0.0869140625,-0.8447265625,-0.6328125
1770,-0.0869140625,-0.8564453125,-0.6259765625
1771,-0.0908203125,-0.8623046875,-0.6171875
1772,-0.09375,-0.876953125,-0.615234375
1773,-0.087890625,-0.880859375,-0.6123046875
1774,-0.09375,-0.8779296875,-0.6005859375
1775,-0.0908203125,-0.875,-0.599609375
1776,-0.095703125,-0.8779296875,-0.58984375
1777,-0.09765625,-0.86328125,-0.58984375
1778,-0.0908203125,-0.8603515625,-0.5859375
1779,-0.1064453125,-0.8447265625,-0.5830078125
1780,-0.1025390625,-0.8427734375,-0.576171875
1781,-0.09765625,-0.8251953125,-0.5703125
1782,-0.1005859375,-0.818359375,-0.5634765625
1783,-0.0859375,-0.814453125,-0.552734375
1784,-0.0859375,-0.8046875,-0.5458984375
1785,-0.0927734375,-0.80078125,-0.5322265625
1786,-0.087890625,-0.7998046875,-0.5224609375
1787,-0.0888671875,-0.7978515625,-0.5146484375
1788,-0.0888671875,-0.8037109375,-0.5068359375
1789,-0.0869140625,-0.8076171875,-0.4990234375
1790,-0.0869140625,-0.81640625,-0.5029296875
1791,-0.0908203125,-0.8154296875,-0.5078125
1792,-0.083984375,-0.8193359375,-0.4990234375
1793,-0.0859375,-0.8251953125,-0.5029296875
1794,-0.087890625,-0.8271484375,-0.498046875
1795,-0.091796875,-0.826171875,-0.494140625
1796,-0.0986328125,-0.82421875,-0.484375
1797,-0.08984375,-0.8173828125,-0.462890625
1798,-0.0986328125,-0.80859375,-0.4638671875
1799,-0.103515625,-0.7939453125,-0.44921875
1800,-0.0966796875,-0.787109375,-0.4443359375
1801,-0.0986328125,-0.7744140625,-0.4404296875
1802,-0.091796875,-0.7646484375,-0.4306640625
1803,-0.091796875,-0.7578125,-0.421875
1804,-0.0888671875,-0.7548828125,-0.4228515625
1805,-0.083984375,-0.7578125,-0.4140625
1806,-0.0830078125,-0.7587890625,-0.41796875
1807,-0.0859375,-0.763671875,-0.416015625
1808,-0.083984375,-0.765625,-0.4189453125
1809,-0.0869140625,-0.7802734375,-0.4111328125
1810,-0.0888671875,-0.7822265625,-0.4169921875
1811,-0.0927734375,-0.7841796875,-0.4169921875
1812,-0.1005859375,-0.7822265625,-0.416015625
1813,-0.09375,-0.783203125,-0.421875
1814,-0.1025390625,-0.7724609375,-0.421875
1815,-0.1015625,-0.7734375,-0.4306640625
1816,-0.087890625,-0.7568359375,-0.427734375
1817,-0.0869140625,-0.7587890625,-0.41796875
1818,-0.080078125,-0.751953125,-0.4248046875
1819,-0.0751953125,-0.75,-0.4208984375
1820,-0.07421875,-0.755859375,-0.4130859375
1821,-0.0751953125,-0.763671875,-0.42578125
1822,-0.0771484375,-0.771484375,-0.4033203125
1823,-0.0712890625,-0.787109375,-0.4248046875
1824,-0.0634765625,-0.80859375,-0.4208984375
1825,-0.0703125,-0.8046875,-0.41796875
1826,-0.064453125,-0.8212890625,-0.4267578125
1827,-0.0634765625,-0.82421875,-0.427734375
1828,-0.0615234375,-0.8349609375,-0.42578125
1829,-0.0615234375,-0.8349609375,-0.4287109375
1830,-0.05859375,-0.822265625,-0.4150390625
1831,-0.060546875,-0.818359375,-0.4140625
1832,-0.0634765625,-0.8056640625,-0.4072265625
1833,-0.056640625,-0.7978515625,-0.396484375
1834,-0.06640625,-0.7880859375,-0.3984375
1835,-0.0625,-0.78515625,-0.400390625
1836,-0.0625,-0.77734375,-0.39453125
1837,-0.0703125,-0.771484375,-0.3876953125
1838,-0.076171875,-0.7705078125,-0.3896484375
1839,-0.078125,-0.763671875,-0.375
1840,-0.078125,-0.7841796875,-0.3671875
1841,-0.0869140625,-0.78515625,-0.3603515625
1842,-0.083984375,-0.7958984375,-0.361328125
1843,-0.083984375,-0.8095703125,-0.35546875
1844,-0.091796875,-0.83203125,-0.36328125
1845,-0.0927734375,-0.84765625,-0.3701171875
1846,-0.1025390625,-0.8564453125,-0.3662109375
1847,-0.091796875,-0.8603515625,-0.365234375
1848,-0.0771484375,-0.865234375,-0.36328125
1849,-0.080078125,-0.875,-0.3544921875
1850,-0.091796875,-0.876953125,-0.3525390625
1851,-0.0908203125,-0.8857421875,-0.3583984375
1852,-0.080078125,-0.8779296875,-0.3515625
1853,-0.07421875,-0.8740234375,-0.3505859375
1854,-0.0732421875,-0.876953125,-0.3427734375
1855,-0.0654296875,-0.869140625,-0.3486328125
1856,-0.068359375,-0.861328125,-0.345703125
1857,-0.0703125,-0.8564453125,-0.34375
1858,-0.068359375,-0.85546875,-0.3427734375
1859,-0.052734375,-0.853515625,-0.3369140625
1860,-0.0595703125,-0.8349609375,-0.326171875
1861,-0.052734375,-0.8310546875,-0.341796875
1862,-0.0498046875,-0.83203125,-0.337890625
1863,-0.0546875,-0.8251953125,-0.333984375
1864,-0.04296875,-0.826171875,-0.3330078125
1865,-0.0380859375,-0.8232421875,-0.328125
1866,-0.0322265625,-0.8134765625,-0.326171875
1867,-0.0302734375,-0.8076171875,-0.314453125
1868,-0.02734375,-0.814453125,-0.310546875
1869,-0.029296875,-0.8203125,-0.3046875
1870,-0.0263671875,-0.8359375,-0.302734375
1871,-0.029296875,-0.828125,-0.29296875
1872,-0.0244140625,-0.8359375,-0.2958984375
1873,-0.0302734375,-0.83203125,-0.287109375
1874,-0.0390625,-0.8349609375,-0.287109375
1875,-0.0517578125,-0.822265625,-0.2822265625
1876,-0.064453125,-0.82421875,-0.2822265625
1877,-0.0712890625,-0.81640625,-0.27734375
1878,-0.072265625,-0.8203125,-0.27734375
1879,-0.06640625,-0.81640625,-0.2734375
1880,-0.0615234375,-0.818359375,-0.271484375
1881,-0.0615234375,-0.798828125,-0.2607421875
1882,-0.0625,-0.78515625,-0.2470703125
1883,-0.0634765625,-0.78515625,-0.244140625
1884,-0.064453125,-0.794921875,-0.2412109375
1885,-0.0556640625,-0.7900390625,-0.236328125
1886,-0.052734375,-0.7890625,-0.2236328125
1887,-0.0517578125,-0.787109375,-0.2177734375
1888,-0.0673828125,-0.791015625,-0.2255859375
1889,-0.0732421875,-0.78515625,-0.224609375
1890,-0.0703125,-0.78515625,-0.21484375
1891,-0.072265625,-0.796875,-0.224609375
1892,-0.0810546875,-0.794921875,-0.220703125
1893,-0.0849609375,-0.8017578125,-0.2177734375
1894,-0.087890625,-0.8046875,-0.2080078125
1895,-0.0888671875,-0.806640625,-0.203125
1896,-0.0927734375,-0.8193359375,-0.2021484375
1897,-0.0947265625,-0.8330078125,-0.1943359375
1898,-0.0888671875,-0.849609375,-0.193359375
1899,-0.078125,-0.85546875,-0.1865234375
1900,-0.076171875,-0.859375,-0.181640625
1901,-0.06640625,-0.865234375,-0.1923828125
1902,-0.052734375,-0.865234375,-0.18359375
1903,-0.0419921875,-0.8740234375,-0.1884765625
1904,-0.0390625,-0.8837890625,-0.208984375
1905,-0.03125,-0.875,-0.205078125
1906,-0.021484375,-0.8681640625,-0.20703125
1907,-0.0146484375,-0.857421875,-0.1982421875
1908,-0.021484375,-0.8466796875,-0.1982421875
1909,-0.0283203125,-0.8515625,-0.201171875
1910,-0.033203125,-0.8203125,-0.1748046875
1911,-0.033203125,-0.8125,-0.1982421875
1912,-0.037109375,-0.8193359375,-0.2001953125
1913,-0.0517578125,-0.8134765625,-0.197265625
1914,-0.0498046875,-0.7939453125,-0.1943359375
1915,-0.0498046875,-0.7841796875,-0.1865234375
1916,-0.044921875,-0.796875,-0.1953125
1917,-0.0595703125,-0.7744140625,-0.16796875
1918,-0.064453125,-0.791015625,-0.1806640625
1919,-0.056640625,-0.7919921875,-0.171875
1920,-0.0556640625,-0.8037109375,-0.1689453125
1921,-0.0615234375,-0.8134765625,-0.1728515625
1922,-0.0537109375,-0.818359375,-0.1748046875
1923,-0.0537109375,-0.83203125,-0.17578125
1924,-0.0634765625,-0.8359375,-0.1875
1925,-0.0654296875,-0.8369140625,-0.185546875
1926,-0.068359375,-0.828125,-0.1767578125
1927,-0.0595703125,-0.828125,-0.1845703125
1928,-0.0498046875,-0.8291015625,-0.1875
1929,-0.0537109375,-0.8134765625,-0.1865234375
1930,-0.044921875,-0.8642578125,-0.2275390625
1931,-0.056640625,-0.7978515625,-0.1455078125
1932,-0.0498046875,-0.7890625,-0.162109375
1933,-0.044921875,-0.80078125,-0.1669921875
1934,-0.0341796875,-0.8076171875,-0.1689453125
1935,-0.041015625,-0.8037109375,-0.15625
1936,-0.041015625,-0.80859375,-0.1630859375
1937,-0.041015625,-0.810546875,-0.166015625
1938,-0.037109375,-0.8134765625,-0.1669921875
1939,-0.0244140625,-0.830078125,-0.1650390625
1940,-0.0341796875,-0.8359375,-0.16796875
1941,-0.0302734375,-0.8330078125,-0.1767578125
1942,-0.0087890625,-0.8955078125,-0.2294921875
1943,-0.021484375,-0.845703125,-0.1611328125
1944,-0.0419921875,-0.8291015625,-0.1728515625
1945,-0.0439453125,-0.8349609375,-0.193359375
1946,-0.05078125,-0.853515625,-0.2099609375
1947,-0.0634765625,-0.8359375,-0.18359375
1948,-0.0498046875,-0.84375,-0.181640625
1949,-0.052734375,-0.8330078125,-0.177734375
1950,-0.052734375,-0.8349609375,-0.193359375
1951,-0.021484375,-0.875,-0.1611328125
1952,-0.033203125,-0.8037109375,-0.119140625
1953,-0.0361328125,-0.794921875,-0.1494140625
1954,-0.029296875,-0.7880859375,-0.1708984375
1955,-0.0205078125,-0.779296875,-0.1845703125
1956,-0.0234375,-0.849609375,-0.2451171875
1957,-0.025390625,-0.7890625,-0.1552734375
1958,-0.02734375,-0.7548828125,-0.1552734375
1959,-0.0166015625,-0.7685546875,-0.1875
1960,0.0029296875,-0.7861328125,-0.2080078125
1961,0.0068359375,-0.7890625,-0.2060546875
1962,0.0107421875,-0.7802734375,-0.1806640625
1963,0.0361328125,-0.79296875,-0.19140625
1964,0.044921875,-0.8125,-0.2001953125
1965,0.0556640625,-0.810546875,-0.1923828125
1966,0.0458984375,-0.814453125,-0.1865234375
1967,0.044921875,-0.82421875,-0.1884765625
1968,0.03125,-0.8310546875,-0.185546875
1969,0.0400390625,-0.9423828125,-0.228515625
1970,0.0107421875,-0.8525390625,-0.1435546875
1971,0.0009765625,-0.845703125,-0.16796875
1972,-0.01171875,-0.8369140625,-0.1845703125
1973,-0.0126953125,-0.8408203125,-0.205078125
1974,-0.017578125,-0.8505859375,-0.2060546875
1975,-0.021484375,-0.8642578125,-0.1904296875
1976,-0.03515625,-0.8671875,-0.1650390625
1977,-0.0400390625,-0.876953125,-0.15234375
1978,-0.05078125,-0.890625,-0.146484375
1979,-0.0498046875,-0.90625,-0.1494140625
1980,-0.0517578125,-0.9130859375,-0.1416015625
1981,-0.0400390625,-0.92578125,-0.142578125
1982,-0.04296875,-0.9462890625,-0.1474609375
1983,-0.0263671875,-0.931640625,-0.1552734375
1984,-0.0234375,-0.939453125,-0.16796875
1985,-0.01953125,-0.9306640625,-0.1708984375
1986,-0.009765625,-0.9287109375,-0.1748046875
1987,-0.005859375,-0.916015625,-0.1728515625
1988,0.0126953125,-0.921875,-0.18359375
1989,0.0166015625,-0.9091796875,-0.1806640625
1990,0.0205078125,-0.8994140625,-0.1591796875
1991,0.00390625,-0.986328125,-0.212890625
1992,0.029296875,-0.953125,-0.107421875
1993,0.009765625,-0.9091796875,-0.09375
1994,-0.017578125,-0.8662109375,-0.08203125
1995,-0.0224609375,-0.8642578125,-0.1298828125
1996,-0.02734375,-0.86328125,-0.1474609375
1997,-0.017578125,-0.873046875,-0.1611328125
1998,-0.0078125,-0.8955078125,-0.193359375
1999,-0.001953125,-0.912109375,-0.2080078125
2000,0.0068359375,-0.923828125,-0.2119140625
2001,0.013671875,-0.939453125,-0.212890625
2002,0.0234375,-0.9677734375,-0.2119140625
2003,0.0205078125,-0.99609375,-0.201171875
2004,0.0244140625,-1.0185546875,-0.2119140625
2005,0.029296875,-1.029296875,-0.2119140625
2006,0.0302734375,-1.0283203125,-0.2099609375
2007,0.0263671875,-1.033203125,-0.2109375
2008,0.0263671875,-1.0302734375,-0.2080078125
2009,0.0283203125,-1.02734375,-0.1953125
2010,0.03515625,-1.0341796875,-0.177734375
2011,0.025390625,-1.025390625,-0.1689453125
2012,0.0068359375,-0.998046875,-0.1552734375
2013,-0.013671875,-0.98828125,-0.1630859375
2014,-0.02734375,-0.9814453125,-0.1513671875
2015,-0.0361328125,-0.9638671875,-0.158203125
2016,-0.0419921875,-0.953125,-0.15234375
2017,-0.0439453125,-0.9248046875,-0.1474609375
2018,-0.0439453125,-0.9130859375,-0.142578125
2019,-0.013671875,-1.091796875,-0.2666015625
2020,-0.0380859375,-0.9482421875,-0.0732421875
2021,-0.0361328125,-0.8974609375,-0.0419921875
2022,-0.052734375,-0.865234375,-0.052734375
2023,-0.060546875,-0.85546875,-0.087890625
2024,-0.0546875,-0.85546875,-0.111328125
2025,-0.0537109375,-0.849609375,-0.0986328125
2026,-0.0556640625,-0.8447265625,-0.0908203125
2027,-0.052734375,-0.8310546875,-0.0712890625
2028,-0.0498046875,-0.818359375,-0.06640625
2029,-0.0302734375,-0.853515625,-0.0732421875
2030,-0.0302734375,-0.8603515625,-0.0751953125
2031,-0.03125,-0.86328125,-0.076171875
2032,-0.0322265625,-0.875,-0.09375
2033,-0.029296875,-0.8818359375,-0.1083984375
2034,-0.021484375,-0.89453125,-0.1240234375
2035,-0.0302734375,-0.9052734375,-0.1455078125
2036,-0.0322265625,-0.916015625,-0.1494140625
2037,-0.0263671875,-0.9326171875,-0.162109375
2038,-0.0205078125,-0.94921875,-0.1748046875
2039,-0.0107421875,-0.9619140625,-0.173828125
2040,-0.0068359375,-0.962890625,-0.1787109375
2041,0.001953125,-0.966796875,-0.1728515625
2042,0.001953125,-0.9658203125,-0.173828125
2043,0.001953125,-0.9638671875,-0.177734375
2044,-0.0029296875,-0.95703125,-0.1748046875
2045,0.00390625,-0.9560546875,-0.171875
2046,0.00390625,-0.955078125,-0.177734375
2047,0.00390625,-0.9716796875,-0.1669921875
2048,0.0107421875,-0.9716796875,-0.15234375
2049,0.0048828125,-0.970703125,-0.154296875
2050,-0.00390625,-0.966796875,-0.1513671875
2051,-0.0146484375,-0.96484375,-0.1572265625
2052,-0.0234375,-0.955078125,-0.1552734375
2053,-0.0341796875,-0.9306640625,-0.1552734375
2054,-0.0361328125,-0.931640625,-0.16015625
2055,-0.0322265625,-0.98828125,-0.1865234375
2056,-0.0576171875,-0.9287109375,-0.140625
2057,-0.0517578125,-0.8779296875,-0.125
2058,-0.0498046875,-0.8837890625,-0.146484375
2059,-0.0419921875,-0.8818359375,-0.1494140625
2060,-0.041015625,-0.8740234375,-0.1435546875
2061,-0.0498046875,-0.869140625,-0.1318359375
2062,-0.048828125,-0.8701171875,-0.12890625
2063,-0.0517578125,-0.873046875,-0.1142578125
2064,-0.0390625,-0.8740234375,-0.1103515625
2065,-0.044921875,-0.8828125,-0.109375
2066,-0.0419921875,-0.88671875,-0.10546875
2067,-0.0380859375,-0.904296875,-0.0966796875
2068,-0.037109375,-0.916015625,-0.1064453125
2069,-0.0361328125,-0.919921875,-0.103515625
2070,-0.03125,-0.9326171875,-0.111328125
2071,-0.029296875,-0.9443359375,-0.115234375
2072,-0.0244140625,-0.9404296875,-0.1259765625
2073,-0.0244140625,-0.953125,-0.1318359375
2074,-0.0224609375,-0.955078125,-0.1357421875
2075,-0.01953125,-0.9580078125,-0.1396484375
2076,-0.0205078125,-0.95703125,-0.138671875
2077,-0.01953125,-0.955078125,-0.146484375
2078,-0.013671875,-0.953125,-0.142578125
2079,-0.0146484375,-0.9404296875,-0.1484375
2080,-0.0107421875,-0.9404296875,-0.1513671875
2081,-0.0048828125,-0.951171875,-0.146484375
2082,0.0,-0.9375,-0.1435546875
2083,-0.001953125,-0.943359375,-0.142578125
2084,-0.0029296875,-0.931640625,-0.1396484375
2085,-0.00390625,-0.94140625,-0.142578125
2086,0.00390625,-0.947265625,-0.142578125
2087,0.0,-0.95703125,-0.142578125
2088,-0.005859375,-0.9521484375,-0.130859375
2089,-0.00390625,-0.953125,-0.130859375
2090,-0.00390625,-0.9541015625,-0.1240234375
2091,-0.0087890625,-0.9443359375,-0.1259765625
2092,-0.0166015625,-0.939453125,-0.12890625
2093,-0.01953125,-0.9228515625,-0.1318359375
2094,-0.0244140625,-0.9130859375,-0.138671875
2095,-0.0283203125,-0.908203125,-0.1416015625
2096,-0.0244140625,-0.9013671875,-0.1435546875
2097,-0.0234375,-0.9033203125,-0.1416015625
2098,-0.0234375,-0.9013671875,-0.138671875
2099,-0.021484375,-0.90234375,-0.1337890625
2100,-0.0234375,-0.9091796875,-0.1328125
2101,-0.02734375,-0.9111328125,-0.12890625
2102,-0.0302734375,-0.9140625,-0.126953125
2103,-0.02734375,-0.919921875,-0.1298828125
2104,-0.0283203125,-0.9248046875,-0.1259765625
2105,-0.025390625,-0.923828125,-0.1357421875
2106,-0.0244140625,-0.9404296875,-0.130859375
2107,-0.0185546875,-0.94921875,-0.1396484375
2108,-0.0146484375,-0.953125,-0.1435546875
2109,-0.0146484375,-0.94921875,-0.1474609375
2110,-0.009765625,-0.9541015625,-0.150390625
2111,-0.015625,-0.955078125,-0.1494140625
2112,-0.0146484375,-0.9521484375,-0.1552734375
2113,-0.009765625,-0.9453125,-0.1572265625
2114,-0.01171875,-0.9443359375,-0.1484375
2115,-0.013671875,-0.9423828125,-0.1552734375
2116,-0.017578125,-0.931640625,-0.1591796875
2117,-0.0185546875,-0.9267578125,-0.1513671875
2118,-0.0185546875,-0.9228515625,-0.1572265625
2119,-0.0166015625,-0.9287109375,-0.1474609375
2120,-0.015625,-0.9267578125,-0.140625
2121,-0.015625,-0.9306640625,-0.134765625
2122,-0.013671875,-0.92578125,-0.1298828125
2123,-0.0146484375,-0.927734375,-0.12890625
2124,-0.0205078125,-0.9267578125,-0.1171875
2125,-0.013671875,-0.92578125,-0.123046875
2126,-0.013671875,-0.9208984375,-0.1279296875
2127,-0.0166015625,-0.9208984375,-0.130859375
2128,-0.0126953125,-0.916015625,-0.1328125
2129,-0.013671875,-0.9140625,-0.134765625
2130,-0.0126953125,-0.916015625,-0.1298828125
2131,-0.017578125,-0.9169921875,-0.1279296875
2132,-0.017578125,-0.9208984375,-0.1259765625
2133,-0.0244140625,-0.921875,-0.12890625
2134,-0.029296875,-0.931640625,-0.1220703125
2135,-0.025390625,-0.939453125,-0.1279296875
2136,-0.029296875,-0.931640625,-0.1220703125
2137,-0.03515625,-0.931640625,-0.130859375
2138,-0.037109375,-0.9306640625,-0.134765625
2139,-0.0380859375,-0.927734375,-0.1376953125
2140,-0.0400390625,-0.923828125,-0.138671875
2141,-0.041015625,-0.92578125,-0.140625
2142,-0.04296875,-0.9267578125,-0.1435546875
2143,-0.037109375,-0.9306640625,-0.1455078125
2144,-0.0458984375,-0.9228515625,-0.15234375
2145,-0.037109375,-0.92578125,-0.1455078125
2146,-0.037109375,-0.9208984375,-0.146484375
2147,-0.029296875,-0.9267578125,-0.142578125
2148,-0.029296875,-0.9287109375,-0.1396484375
2149,-0.02734375,-0.9306640625,-0.134765625
2150,-0.025390625,-0.9306640625,-0.1396484375
2151,-0.025390625,-0.931640625,-0.142578125
2152,-0.02734375,-0.9296875,-0.140625
2153,-0.0322265625,-0.9306640625,-0.1435546875
2154,-0.03515625,-0.927734375,-0.1416015625
2155,-0.03515625,-0.9287109375,-0.1396484375
2156,-0.0390625,-0.92578125,-0.1318359375
2157,-0.03515625,-0.92578125,-0.126953125
2158,-0.037109375,-0.9326171875,-0.12109375
2159,-0.0400390625,-0.9326171875,-0.12109375
2160,-0.037109375,-0.9306640625,-0.1279296875
2161,-0.0390625,-0.9326171875,-0.1259765625
2162,-0.04296875,-0.927734375,-0.125
2163,-0.0390625,-0.93359375,-0.130859375
2164,-0.0380859375,-0.9248046875,-0.1328125
2165,-0.0380859375,-0.9140625,-0.12890625
2166,-0.037109375,-0.919921875,-0.1259765625
2167,-0.03125,-0.9189453125,-0.126953125
2168,-0.03125,-0.91796875,-0.123046875
2169,-0.03125,-0.92578125,-0.1142578125
2170,-0.02734375,-0.94140625,-0.1103515625
2171,-0.02734375,-0.92578125,-0.111328125
2172,-0.0234375,-0.923828125,-0.1171875
2173,-0.0205078125,-0.9189453125,-0.123046875
2174,-0.01953125,-0.9208984375,-0.125
2175,-0.0234375,-0.916015625,-0.1259765625
2176,-0.0205078125,-0.921875,-0.12890625
2177,-0.0244140625,-0.9228515625,-0.1337890625
2178,-0.01953125,-0.923828125,-0.1328125
2179,-0.017578125,-0.92578125,-0.1328125
2180,-0.0234375,-0.9267578125,-0.1318359375
2181,-0.025390625,-0.9306640625,-0.1298828125
2182,-0.0234375,-0.9384765625,-0.1259765625
2183,-0.0263671875,-0.9365234375,-0.138671875
2184,-0.0224609375,-0.9326171875,-0.1337890625
2185,-0.0185546875,-0.9306640625,-0.138671875
2186,-0.0146484375,-0.9365234375,-0.13671875
2187,-0.013671875,-0.94140625,-0.13671875
2188,-0.0244140625,-0.9306640625,-0.134765625
2189,-0.0166015625,-0.9345703125,-0.134765625
2190,-0.017578125,-0.943359375,-0.12890625
2191,-0.013671875,-0.9326171875,-0.1298828125
2192,-0.0224609375,-0.93359375,-0.1318359375
2193,-0.017578125,-0.9345703125,-0.12890625
2194,-0.015625,-0.9423828125,-0.1318359375
2195,-0.0185546875,-0.9404296875,-0.1298828125
2196,-0.0166015625,-0.9423828125,-0.1259765625
2197,-0.015625,-0.9306640625,-0.1259765625
2198,-0.015625,-0.9306640625,-0.1240234375
2199,-0.01953125,-0.9287109375,-0.119140625
2200,-0.0185546875,-0.931640625,-0.1162109375
2201,-0.013671875,-0.9296875,-0.115234375
2202,-0.0185546875,-0.93359375,-0.12109375
2203,-0.013671875,-0.9287109375,-0.1123046875
2204,-0.017578125,-0.935546875,-0.115234375
2205,-0.0166015625,-0.9287109375,-0.1162109375
2206,-0.015625,-0.9267578125,-0.11328125
2207,-0.0146484375,-0.9248046875,-0.1123046875
2208,-0.015625,-0.92578125,-0.1103515625
2209,-0.0166015625,-0.923828125,-0.1103515625
2210,-0.0166015625,-0.9248046875,-0.1142578125
2211,-0.017578125,-0.923828125,-0.111328125
2212,-0.013671875,-0.921875,-0.1123046875
2213,-0.015625,-0.923828125,-0.11328125
2214,-0.0126953125,-0.9248046875,-0.10546875
2215,-0.013671875,-0.921875,-0.1123046875
2216,-0.0146484375,-0.923828125,-0.1103515625
2217,-0.015625,-0.919921875,-0.1123046875
2218,-0.0126953125,-0.9267578125,-0.11328125
2219,-0.015625,-0.919921875,-0.1103515625
2220,-0.0146484375,-0.919921875,-0.1103515625
2221,-0.0146484375,-0.9228515625,-0.11328125
2222,-0.013671875,-0.9267578125,-0.109375
2223,-0.0146484375,-0.931640625,-0.11328125
2224,-0.013671875,-0.935546875,-0.109375
2225,-0.017578125,-0.931640625,-0.1103515625
2226,-0.013671875,-0.93359375,-0.1142578125
2227,-0.017578125,-0.931640625,-0.1240234375
2228,-0.0234375,-0.927734375,-0.115234375
2229,-0.0224609375,-0.931640625,-0.1162109375
2230,-0.025390625,-0.9248046875,-0.115234375
2231,-0.02734375,-0.9296875,-0.1162109375
2232,-0.0224609375,-0.935546875,-0.1162109375
2233,-0.0234375,-0.9287109375,-0.1171875
2234,-0.025390625,-0.9296875,-0.1181640625
2235,-0.0166015625,-0.9384765625,-0.12109375
2236,-0.0185546875,-0.927734375,-0.11328125
2237,-0.01953125,-0.9306640625,-0.1181640625
2238,-0.0166015625,-0.931640625,-0.1220703125
2239,-0.0166015625,-0.931640625,-0.123046875
2240,-0.013671875,-0.9384765625,-0.115234375
2241,-0.013671875,-0.9296875,-0.1201171875
2242,-0.0146484375,-0.93359375,-0.1103515625
2243,-0.01171875,-0.9404296875,-0.1103515625
2244,-0.0146484375,-0.931640625,-0.10546875
2245,-0.013671875,-0.931640625,-0.103515625
2246,-0.0166015625,-0.9326171875,-0.10546875
2247,-0.017578125,-0.9345703125,-0.1015625
2248,-0.017578125,-0.9453125,-0.1005859375
2249,-0.0146484375,-0.927734375,-0.099609375
2250,-0.013671875,-0.9306640625,-0.107421875
2251,-0.017578125,-0.9287109375,-0.1083984375
2252,-0.017578125,-0.9296875,-0.1044921875
2253,-0.0126953125,-0.9296875,-0.1103515625
2254,-0.0126953125,-0.923828125,-0.1123046875
2255,-0.0107421875,-0.9267578125,-0.1103515625
2256,-0.013671875,-0.9248046875,-0.107421875
2257,-0.0126953125,-0.927734375,-0.10546875
2258,-0.0146484375,-0.9267578125,-0.1064453125
2259,-0.0126953125,-0.92578125,-0.1015625
2260,-0.0126953125,-0.9423828125,-0.107421875
2261,-0.0146484375,-0.9345703125,-0.1083984375
2262,-0.017578125,-0.93359375,-0.103515625
2263,-0.0166015625,-0.9404296875,-0.1044921875
2264,-0.0126953125,-0.93359375,-0.10546875
2265,-0.009765625,-0.9345703125,-0.1083984375
2266,-0.0087890625,-0.931640625,-0.1044921875
2267,-0.0126953125,-0.9296875,-0.1015625
2268,-0.009765625,-0.9287109375,-0.1044921875
2269,-0.005859375,-0.9287109375,-0.1005859375
2270,-0.005859375,-0.9306640625,-0.1005859375
2271,-0.005859375,-0.92578125,-0.1005859375
2272,-0.00390625,-0.9267578125,-0.1005859375
2273,-0.005859375,-0.9306640625,-0.10546875
2274,-0.0068359375,-0.9267578125,-0.103515625
2275,-0.005859375,-0.9326171875,-0.1103515625
2276,-0.009765625,-0.9296875,-0.1123046875
2277,-0.0068359375,-0.9267578125,-0.1015625
2278,-0.013671875,-0.927734375,-0.0986328125
2279,-0.01171875,-0.927734375,-0.0849609375
2280,-0.013671875,-0.93359375,-0.0966796875
2281,-0.013671875,-0.9375,-0.095703125
2282,-0.0185546875,-0.943359375,-0.1005859375
2283,-0.0166015625,-0.94921875,-0.109375
2284,-0.0166015625,-0.94921875,-0.111328125
2285,-0.0205078125,-0.9365234375,-0.123046875
2286,-0.0146484375,-0.9443359375,-0.12890625
2287,-0.017578125,-0.9326171875,-0.1279296875
2288,-0.017578125,-0.9296875,-0.125
2289,-0.017578125,-0.935546875,-0.1142578125
2290,-0.0166015625,-0.9453125,-0.1083984375
2291,-0.0126953125,-0.9345703125,-0.099609375
2292,-0.013671875,-0.943359375,-0.09375
2293,-0.01171875,-0.9404296875,-0.08984375
2294,-0.009765625,-0.9423828125,-0.0859375
2295,-0.0146484375,-0.9306640625,-0.08203125
2296,-0.01171875,-0.9404296875,-0.083984375
2297,-0.0185546875,-0.9287109375,-0.0927734375
2298,-0.0205078125,-0.927734375,-0.095703125
2299,-0.0185546875,-0.9296875,-0.095703125
2300,-0.021484375,-0.9296875,-0.0966796875
2301,-0.021484375,-0.9296875,-0.09375
2302,-0.025390625,-0.93359375,-0.0908203125
2303,-0.0244140625,-0.9384765625,-0.0888671875
2304,-0.0244140625,-0.9306640625,-0.0830078125
2305,-0.025390625,-0.93359375,-0.08203125
2306,-0.0263671875,-0.931640625,-0.078125
2307,-0.025390625,-0.9384765625,-0.078125
2308,-0.0244140625,-0.935546875,-0.0771484375
2309,-0.0224609375,-0.9296875,-0.083984375
2310,-0.0244140625,-0.9296875,-0.08203125
2311,-0.015625,-0.9287109375,-0.087890625
2312,-0.0166015625,-0.9296875,-0.0908203125
2313,-0.015625,-0.9267578125,-0.0888671875
2314,-0.0146484375,-0.9287109375,-0.08984375
2315,-0.015625,-0.931640625,-0.0830078125
2316,-0.0185546875,-0.927734375,-0.0830078125
2317,-0.021484375,-0.927734375,-0.083984375
2318,-0.02734375,-0.9296875,-0.0849609375
2319,-0.02734375,-0.931640625,-0.083984375
2320,-0.029296875,-0.9384765625,-0.08984375
2321,-0.0302734375,-0.9267578125,-0.0869140625
2322,-0.029296875,-0.9326171875,-0.08984375
2323,-0.0283203125,-0.927734375,-0.087890625
2324,-0.025390625,-0.9326171875,-0.091796875
2325,-0.0234375,-0.9326171875,-0.0908203125
2326,-0.0244140625,-0.9345703125,-0.0947265625
2327,-0.0234375,-0.9345703125,-0.08984375
2328,-0.02734375,-0.939453125,-0.0859375
2329,-0.021484375,-0.935546875,-0.0859375
2330,-0.0224609375,-0.9443359375,-0.0849609375
2331,-0.021484375,-0.9326171875,-0.08984375
2332,-0.0244140625,-0.931640625,-0.0830078125
2333,-0.021484375,-0.9306640625,-0.083984375
2334,-0.0224609375,-0.9248046875,-0.0888671875
2335,-0.021484375,-0.9267578125,-0.08984375
2336,-0.0224609375,-0.9248046875,-0.091796875
2337,-0.0234375,-0.923828125,-0.0869140625
2338,-0.0224609375,-0.9228515625,-0.083984375
2339,-0.01953125,-0.92578125,-0.0888671875
2340,-0.025390625,-0.9248046875,-0.087890625
2341,-0.01953125,-0.9365234375,-0.0859375
2342,-0.01953125,-0.939453125,-0.0859375
2343,-0.0185546875,-0.9326171875,-0.0859375
2344,-0.01953125,-0.931640625,-0.08984375
2345,-0.015625,-0.9296875,-0.087890625
2346,-0.015625,-0.9384765625,-0.0869140625
2347,-0.01953125,-0.939453125,-0.080078125
2348,-0.0185546875,-0.92578125,-0.083984375
2349,-0.0146484375,-0.9267578125,-0.0888671875
2350,-0.015625,-0.931640625,-0.0888671875
2351,-0.013671875,-0.9228515625,-0.0859375
2352,-0.013671875,-0.9267578125,-0.087890625
2353,-0.0166015625,-0.9248046875,-0.08984375
2354,-0.013671875,-0.9296875,-0.0869140625
2355,-0.013671875,-0.931640625,-0.0927734375
2356,-0.017578125,-0.935546875,-0.0908203125
2357,-0.015625,-0.9326171875,-0.091796875
2358,-0.0185546875,-0.943359375,-0.0908203125
2359,-0.01953125,-0.947265625,-0.0947265625
2360,-0.015625,-0.953125,-0.0986328125
2361,-0.013671875,-0.951171875,-0.0966796875
2362,-0.0224609375,-0.9521484375,-0.0966796875
2363,-0.0166015625,-0.953125,-0.1015625
2364,-0.021484375,-0.9501953125,-0.09375
2365,-0.0224609375,-0.94140625,-0.0947265625
2366,-0.0224609375,-0.9423828125,-0.0888671875
2367,-0.025390625,-0.9453125,-0.091796875
2368,-0.0166015625,-0.9296875,-0.091796875
2369,-0.0185546875,-0.9267578125,-0.0908203125
2370,-0.015625,-0.92578125,-0.087890625
2371,-0.015625,-0.92578125,-0.0888671875
2372,-0.013671875,-0.9208984375,-0.087890625
2373,-0.013671875,-0.921875,-0.0849609375
2374,-0.0087890625,-0.921875,-0.0869140625
2375,-0.0087890625,-0.9228515625,-0.0810546875
2376,-0.009765625,-0.9306640625,-0.08203125
2377,-0.009765625,-0.9296875,-0.0869140625
2378,-0.0107421875,-0.931640625,-0.0849609375
2379,-0.0107421875,-0.931640625,-0.0859375
2380,-0.009765625,-0.9443359375,-0.0859375
2381,-0.01171875,-0.9443359375,-0.0830078125
2382,-0.009765625,-0.9501953125,-0.0810546875
2383,-0.0107421875,-0.935546875,-0.083984375
2384,-0.0126953125,-0.9345703125,-0.0859375
2385,-0.0087890625,-0.93359375,-0.083984375
2386,-0.01171875,-0.9345703125,-0.0849609375
2387,-0.0126953125,-0.931640625,-0.0849609375
2388,-0.0146484375,-0.9287109375,-0.083984375
2389,-0.013671875,-0.9296875,-0.07421875
2390,-0.013671875,-0.9287109375,-0.0751953125
2391,-0.013671875,-0.92578125,-0.07421875
2392,-0.0146484375,-0.927734375,-0.0751953125
2393,-0.015625,-0.9267578125,-0.0751953125
2394,-0.0205078125,-0.9306640625,-0.0771484375
2395,-0.0146484375,-0.94140625,-0.076171875
2396,-0.0205078125,-0.927734375,-0.07421875
2397,-0.0166015625,-0.9365234375,-0.0576171875
2398,-0.0146484375,-0.93359375,-0.05859375
2399,-0.013671875,-0.9443359375,-0.0576171875
