,accelerometerAccelerationX(G),accelerometerAccelerationY(G),accelerometerAccelerationZ(G)
0,-0.0068359375,-0.9609375,-0.16015625
1,-0.013671875,-0.962890625,-0.1591796875
2,-0.0068359375,-0.95703125,-0.158203125
3,-0.009765625,-0.9619140625,-0.1611328125
4,-0.0048828125,-0.9609375,-0.1611328125
5,-0.0087890625,-0.9580078125,-0.166015625
6,-0.0107421875,-0.953125,-0.1630859375
7,-0.01171875,-0.958984375,-0.154296875
8,-0.005859375,-0.9580078125,-0.1611328125
9,-0.0078125,-0.95703125,-0.1669921875
10,-0.0048828125,-0.962890625,-0.16015625
11,-0.0068359375,-0.9560546875,-0.158203125
12,-0.0087890625,-0.9609375,-0.1611328125
13,-0.009765625,-0.958984375,-0.1650390625
14,-0.0107421875,-0.962890625,-0.162109375
15,-0.0048828125,-0.955078125,-0.1650390625
16,-0.0087890625,-0.9580078125,-0.154296875
17,-0.0068359375,-0.9638671875,-0.154296875
18,-0.0087890625,-0.9638671875,-0.1591796875
19,-0.0107421875,-0.9677734375,-0.16015625
20,-0.0068359375,-0.9599609375,-0.15625
21,-0.005859375,-0.95703125,-0.1591796875
22,-0.0078125,-0.9580078125,-0.16796875
23,-0.01171875,-0.95703125,-0.1572265625
24,-0.0078125,-0.96875,-0.158203125
25,-0.009765625,-0.958984375,-0.1640625
26,-0.0087890625,-0.95703125,-0.1572265625
27,-0.009765625,-0.9541015625,-0.1640625
28,-0.0078125,-0.966796875,-0.158203125
29,-0.005859375,-0.9599609375,-0.1630859375
30,-0.0107421875,-0.958984375,-0.16015625
31,-0.0087890625,-0.9638671875,-0.1630859375
32,-0.0048828125,-0.958984375,-0.158203125
33,-0.0078125,-0.9677734375,-0.1611328125
34,-0.0078125,-0.962890625,-0.15625
35,-0.001953125,-0.9580078125,-0.1533203125
36,-0.0068359375,-0.9619140625,-0.15234375
37,-0.0107421875,-0.95703125,-0.1572265625
38,-0.0048828125,-0.95703125,-0.154296875
39,-0.0087890625,-0.9599609375,-0.1572265625
40,-0.0068359375,-0.9599609375,-0.154296875
41,-0.0068359375,-0.95703125,-0.1572265625
42,-0.01171875,-0.9580078125,-0.15625
43,-0.0087890625,-0.9609375,-0.1552734375
44,-0.009765625,-0.9609375,-0.1533203125
45,-0.013671875,-0.958984375,-0.15625
46,-0.0078125,-0.9609375,-0.15234375
47,-0.009765625,-0.9638671875,-0.1533203125
48,-0.005859375,-0.97265625,-0.15234375
49,-0.0087890625,-0.958984375,-0.150390625
50,-0.0068359375,-0.9619140625,-0.1533203125
51,0.0,-0.9599609375,-0.154296875
52,-0.0029296875,-0.9638671875,-0.15234375
53,-0.0029296875,-0.9560546875,-0.16015625
54,-0.001953125,-0.958984375,-0.1533203125
55,-0.0048828125,-0.96875,-0.1513671875
56,-0.00390625,-0.958984375,-0.1484375
57,-0.0029296875,-0.962890625,-0.1513671875
58,-0.0048828125,-0.958984375,-0.1484375
59,-0.005859375,-0.955078125,-0.154296875
60,-0.005859375,-0.958984375,-0.154296875
61,-0.0078125,-0.9619140625,-0.1533203125
62,-0.00390625,-0.958984375,-0.15234375
63,-0.00390625,-0.96875,-0.150390625
64,-0.0068359375,-0.962890625,-0.1494140625
65,-0.0068359375,-0.96484375,-0.1484375
66,-0.0087890625,-0.9638671875,-0.1474609375
67,-0.005859375,-0.9619140625,-0.1484375
68,-0.0068359375,-0.9619140625,-0.1494140625
69,-0.005859375,-0.9619140625,-0.150390625
70,-0.0068359375,-0.9560546875,-0.1494140625
71,-0.009765625,-0.962890625,-0.15234375
72,-0.0048828125,-0.9609375,-0.15234375
73,-0.0078125,-0.9619140625,-0.1484375
74,-0.0009765625,-0.9619140625,-0.1494140625
75,-0.01171875,-0.9599609375,-0.1513671875
76,-0.001953125,-0.96484375,-0.1513671875
77,-0.0048828125,-0.95703125,-0.150390625
78,-0.0068359375,-0.958984375,-0.1494140625
79,-0.009765625,-0.9599609375,-0.1533203125
80,-0.005859375,-0.958984375,-0.1533203125
81,-0.0068359375,-0.9619140625,-0.1494140625
82,-0.0087890625,-0.9609375,-0.150390625
83,-0.005859375,-0.9560546875,-0.15234375
84,-0.0087890625,-0.9560546875,-0.1494140625
85,-0.0087890625,-0.958984375,-0.154296875
86,-0.0146484375,-0.962890625,-0.1484375
87,-0.0146484375,-0.96484375,-0.1474609375
88,-0.0087890625,-0.9599609375,-0.1455078125
89,-0.0078125,-0.966796875,-0.1484375
90,-0.0068359375,-0.96875,-0.140625
91,-0.0078125,-0.9677734375,-0.146484375
92,-0.005859375,-0.9619140625,-0.1416015625
93,-0.0146484375,-0.95703125,-0.1484375
94,-0.01171875,-0.9599609375,-0.1416015625
95,-0.0078125,-0.9560546875,-0.1435546875
96,-0.0107421875,-0.95703125,-0.142578125
97,-0.0107421875,-0.9599609375,-0.1416015625
98,-0.015625,-0.9609375,-0.1416015625
99,-0.01171875,-0.958984375,-0.1396484375
100,-0.009765625,-0.9599609375,-0.138671875
101,-0.0146484375,-0.96875,-0.1435546875
102,-0.009765625,-0.9736328125,-0.140625
103,-0.013671875,-0.96875,-0.146484375
104,-0.009765625,-0.9619140625,-0.146484375
105,-0.0078125,-0.9638671875,-0.142578125
106,-0.0107421875,-0.9580078125,-0.1416015625
107,-0.015625,-0.96875,-0.1416015625
108,-0.009765625,-0.9658203125,-0.1435546875
109,-0.0107421875,-0.9609375,-0.142578125
110,-0.0087890625,-0.9580078125,-0.14453125
111,-0.0087890625,-0.9609375,-0.1474609375
112,-0.005859375,-0.962890625,-0.15234375
113,-0.0087890625,-0.95703125,-0.1474609375
114,-0.009765625,-0.9638671875,-0.1494140625
115,-0.005859375,-0.96875,-0.142578125
116,-0.009765625,-0.962890625,-0.1396484375
117,-0.0087890625,-0.9599609375,-0.140625
118,-0.0068359375,-0.9677734375,-0.1396484375
119,-0.0078125,-0.974609375,-0.138671875
120,-0.0068359375,-0.974609375,-0.138671875
121,-0.009765625,-0.974609375,-0.1416015625
122,-0.0107421875,-0.9619140625,-0.13671875
123,-0.01171875,-0.9609375,-0.138671875
124,-0.00390625,-0.9609375,-0.1396484375
125,-0.0087890625,-0.9697265625,-0.1357421875
126,-0.0087890625,-0.958984375,-0.13671875
127,-0.0078125,-0.9609375,-0.13671875
128,-0.0078125,-0.958984375,-0.138671875
129,-0.005859375,-0.9619140625,-0.138671875
130,-0.009765625,-0.962890625,-0.138671875
131,-0.0029296875,-0.96484375,-0.138671875
132,-0.0029296875,-0.9619140625,-0.140625
133,-0.005859375,-0.9609375,-0.142578125
134,-0.0048828125,-0.9580078125,-0.140625
135,-0.009765625,-0.95703125,-0.1455078125
136,-0.005859375,-0.9580078125,-0.142578125
137,-0.0078125,-0.9609375,-0.1474609375
138,-0.0087890625,-0.958984375,-0.13671875
139,-0.0048828125,-0.953125,-0.1396484375
140,-0.0078125,-0.9619140625,-0.1416015625
141,-0.0068359375,-0.962890625,-0.13671875
142,-0.0078125,-0.966796875,-0.1357421875
143,-0.0078125,-0.9736328125,-0.1396484375
144,-0.0048828125,-0.962890625,-0.1357421875
145,-0.0087890625,-0.9736328125,-0.1396484375
146,-0.0068359375,-0.96875,-0.1376953125
147,-0.005859375,-0.96484375,-0.138671875
148,-0.0068359375,-0.962890625,-0.140625
149,-0.005859375,-0.9638671875,-0.1376953125
150,-0.0048828125,-0.9619140625,-0.13671875
151,-0.005859375,-0.9599609375,-0.138671875
152,-0.0068359375,-0.962890625,-0.1357421875
153,-0.0078125,-0.962890625,-0.130859375
154,-0.005859375,-0.9580078125,-0.134765625
155,-0.009765625,-0.96875,-0.1337890625
156,-0.0087890625,-0.9599609375,-0.134765625
157,-0.005859375,-0.96484375,-0.130859375
158,-0.009765625,-0.9638671875,-0.12890625
159,-0.0029296875,-0.9697265625,-0.1357421875
160,-0.0048828125,-0.962890625,-0.1337890625
161,-0.0048828125,-0.9619140625,-0.1357421875
162,-0.01171875,-0.9677734375,-0.134765625
163,-0.0087890625,-0.9580078125,-0.1318359375
164,-0.0068359375,-0.9619140625,-0.1337890625
165,-0.0068359375,-0.9677734375,-0.13671875
166,-0.0078125,-0.9619140625,-0.1376953125
167,-0.005859375,-0.962890625,-0.1357421875
168,-0.0068359375,-0.96875,-0.1376953125
169,-0.0068359375,-0.9697265625,-0.1357421875
170,-0.00390625,-0.9716796875,-0.1318359375
171,-0.00390625,-0.9599609375,-0.1337890625
172,-0.009765625,-0.96484375,-0.1337890625
173,-0.01171875,-0.9697265625,-0.134765625
174,-0.0087890625,-0.9619140625,-0.1357421875
175,-0.0107421875,-0.962890625,-0.1376953125
176,-0.0107421875,-0.958984375,-0.1357421875
177,-0.0126953125,-0.9599609375,-0.1357421875
178,-0.0068359375,-0.9609375,-0.13671875
179,-0.0078125,-0.962890625,-0.134765625
180,-0.0068359375,-0.9619140625,-0.1328125
181,-0.0048828125,-0.96875,-0.1328125
182,-0.0087890625,-0.96875,-0.1337890625
183,-0.0048828125,-0.97265625,-0.134765625
184,0.0,-0.962890625,-0.1357421875
185,-0.009765625,-0.9609375,-0.1328125
186,-0.0107421875,-0.9638671875,-0.1328125
187,-0.009765625,-0.9658203125,-0.13671875
188,-0.0029296875,-0.9638671875,-0.130859375
189,-0.0068359375,-0.9619140625,-0.1357421875
190,-0.0048828125,-0.955078125,-0.1298828125
191,-0.0068359375,-0.9619140625,-0.12890625
192,-0.0068359375,-0.9609375,-0.1318359375
193,-0.00390625,-0.9677734375,-0.134765625
194,-0.0068359375,-0.9638671875,-0.1298828125
195,-0.0068359375,-0.96484375,-0.1318359375
196,-0.0068359375,-0.9619140625,-0.1328125
197,-0.0068359375,-0.9638671875,-0.1328125
198,-0.0087890625,-0.9599609375,-0.1318359375
199,-0.0009765625,-0.9658203125,-0.130859375
200,-0.0087890625,-0.9580078125,-0.12890625
201,-0.0029296875,-0.9560546875,-0.1279296875
202,-0.0068359375,-0.9580078125,-0.130859375
203,-0.0068359375,-0.9560546875,-0.1298828125
204,-0.0107421875,-0.9609375,-0.126953125
205,-0.009765625,-0.958984375,-0.130859375
206,-0.009765625,-0.9599609375,-0.1318359375
207,-0.0048828125,-0.9677734375,-0.1328125
208,-0.0048828125,-0.962890625,-0.1337890625
209,-0.0068359375,-0.9697265625,-0.126953125
210,-0.0029296875,-0.9638671875,-0.1318359375
211,-0.005859375,-0.9638671875,-0.1279296875
212,-0.005859375,-0.9609375,-0.1337890625
213,-0.0078125,-0.962890625,-0.126953125
214,-0.005859375,-0.9619140625,-0.12109375
215,-0.00390625,-0.958984375,-0.1298828125
216,-0.0048828125,-0.9619140625,-0.12109375
217,0.001953125,-0.9638671875,-0.12890625
218,-0.0078125,-0.958984375,-0.12890625
219,-0.0087890625,-0.9638671875,-0.123046875
220,-0.0087890625,-0.9619140625,-0.123046875
221,-0.005859375,-0.9638671875,-0.1279296875
222,-0.013671875,-0.95703125,-0.1298828125
223,-0.0078125,-0.9609375,-0.1259765625
224,-0.009765625,-0.9580078125,-0.1259765625
225,-0.0087890625,-0.9619140625,-0.1259765625
226,-0.001953125,-0.9619140625,-0.126953125
227,-0.0078125,-0.9697265625,-0.130859375
228,-0.0068359375,-0.9560546875,-0.130859375
229,-0.0087890625,-0.9677734375,-0.12890625
230,-0.0029296875,-0.9677734375,-0.12890625
231,-0.0078125,-0.97265625,-0.1298828125
232,-0.0078125,-0.9599609375,-0.130859375
233,-0.0078125,-0.9609375,-0.1318359375
234,-0.005859375,-0.958984375,-0.123046875
235,-0.0048828125,-0.955078125,-0.1259765625
236,-0.0078125,-0.9609375,-0.1240234375
237,-0.0048828125,-0.9609375,-0.1259765625
238,-0.0087890625,-0.962890625,-0.123046875
239,-0.0048828125,-0.96875,-0.130859375
240,-0.0068359375,-0.970703125,-0.126953125
241,-0.0068359375,-0.9736328125,-0.12890625
242,-0.009765625,-0.970703125,-0.1181640625
243,-0.0068359375,-0.9765625,-0.1240234375
244,-0.0087890625,-0.96484375,-0.123046875
245,-0.005859375,-0.978515625,-0.1298828125
246,-0.0068359375,-0.982421875,-0.125
247,-0.009765625,-0.9736328125,-0.1279296875
248,-0.0107421875,-0.9765625,-0.1220703125
249,-0.0087890625,-0.974609375,-0.123046875
250,-0.005859375,-0.970703125,-0.12890625
251,-0.00390625,-0.970703125,-0.1220703125
252,-0.005859375,-0.9638671875,-0.1279296875
253,-0.0048828125,-0.9716796875,-0.1298828125
254,-0.0029296875,-0.9638671875,-0.1220703125
255,-0.0068359375,-0.9599609375,-0.1259765625
256,-0.00390625,-0.9599609375,-0.1220703125
257,-0.0068359375,-0.9541015625,-0.125
258,-0.0048828125,-0.95703125,-0.1240234375
259,-0.009765625,-0.958984375,-0.12890625
260,-0.0048828125,-0.958984375,-0.123046875
261,-0.00390625,-0.95703125,-0.1201171875
262,-0.01171875,-0.9619140625,-0.119140625
263,-0.0078125,-0.96484375,-0.1201171875
264,-0.0068359375,-0.9638671875,-0.12109375
265,-0.0068359375,-0.9609375,-0.123046875
266,-0.0087890625,-0.9677734375,-0.1201171875
267,-0.0107421875,-0.96484375,-0.119140625
268,-0.01171875,-0.9619140625,-0.119140625
269,-0.0068359375,-0.962890625,-0.1181640625
270,-0.0078125,-0.96875,-0.119140625
271,-0.0078125,-0.95703125,-0.1181640625
272,-0.0068359375,-0.9609375,-0.119140625
273,-0.013671875,-0.9736328125,-0.1181640625
274,-0.009765625,-0.9716796875,-0.115234375
275,-0.0107421875,-0.9619140625,-0.1181640625
276,-0.0078125,-0.970703125,-0.1142578125
277,-0.0048828125,-0.9599609375,-0.1142578125
278,-0.0107421875,-0.9677734375,-0.119140625
279,-0.0068359375,-0.96875,-0.123046875
280,-0.005859375,-0.958984375,-0.1181640625
281,-0.01171875,-0.966796875,-0.1181640625
282,-0.009765625,-0.962890625,-0.119140625
283,-0.0078125,-0.9609375,-0.1171875
284,-0.0068359375,-0.9619140625,-0.11328125
285,-0.0078125,-0.9619140625,-0.1171875
286,-0.0146484375,-0.9619140625,-0.1220703125
287,-0.0078125,-0.9609375,-0.1201171875
288,-0.0078125,-0.9580078125,-0.1181640625
289,-0.0048828125,-0.9609375,-0.119140625
290,-0.0068359375,-0.9609375,-0.12109375
291,-0.0068359375,-0.962890625,-0.115234375
292,0.0,-0.9697265625,-0.1171875
293,-0.0068359375,-0.9697265625,-0.11328125
294,-0.0009765625,-0.96875,-0.115234375
295,-0.0048828125,-0.9638671875,-0.1123046875
296,-0.00390625,-0.962890625,-0.107421875
297,-0.0078125,-0.958984375,-0.1123046875
298,-0.0078125,-0.962890625,-0.1142578125
299,-0.0126953125,-0.96875,-0.1142578125
300,-0.0078125,-0.958984375,-0.1142578125
301,-0.01171875,-0.9697265625,-0.115234375
302,-0.0078125,-0.9619140625,-0.1171875
303,-0.0068359375,-0.96484375,-0.1171875
304,-0.005859375,-0.9697265625,-0.1201171875
305,-0.005859375,-0.970703125,-0.115234375
306,0.0,-0.970703125,-0.1162109375
307,-0.005859375,-0.97265625,-0.123046875
308,-0.009765625,-0.9658203125,-0.119140625
309,-0.005859375,-0.962890625,-0.1240234375
310,-0.001953125,-0.955078125,-0.1220703125
311,-0.0068359375,-0.953125,-0.1201171875
312,-0.0078125,-0.951171875,-0.1220703125
313,-0.0029296875,-0.95703125,-0.1162109375
314,-0.00390625,-0.94921875,-0.1240234375
315,-0.0048828125,-0.9541015625,-0.125
316,-0.0068359375,-0.9541015625,-0.1220703125
317,-0.0029296875,-0.955078125,-0.1259765625
318,-0.0009765625,-0.9599609375,-0.1259765625
319,-0.001953125,-0.953125,-0.123046875
320,-0.0048828125,-0.9599609375,-0.1220703125
321,-0.0048828125,-0.9580078125,-0.1220703125
322,-0.001953125,-0.9619140625,-0.1240234375
323,-0.0068359375,-0.9697265625,-0.12890625
324,-0.0048828125,-0.9638671875,-0.1279296875
325,-0.0029296875,-0.9619140625,-0.12109375
326,-0.0029296875,-0.9609375,-0.123046875
327,-0.005859375,-0.9619140625,-0.1279296875
328,-0.00390625,-0.958984375,-0.125
329,-0.0068359375,-0.9580078125,-0.1220703125
330,0.0,-0.958984375,-0.123046875
331,-0.0048828125,-0.9599609375,-0.1240234375
332,-0.0048828125,-0.9580078125,-0.125
333,0.0009765625,-0.9619140625,-0.1318359375
334,0.0009765625,-0.9580078125,-0.1337890625
335,0.001953125,-0.958984375,-0.130859375
336,-0.0068359375,-0.9521484375,-0.1318359375
337,-0.001953125,-0.966796875,-0.1337890625
338,0.0,-0.9619140625,-0.1396484375
339,-0.0009765625,-0.9580078125,-0.138671875
340,-0.0068359375,-0.9619140625,-0.1376953125
341,-0.005859375,-0.966796875,-0.1376953125
342,-0.01171875,-0.970703125,-0.14453125
343,-0.0087890625,-0.9736328125,-0.1416015625
344,-0.017578125,-0.96484375,-0.1396484375
345,-0.0126953125,-0.962890625,-0.138671875
346,-0.0205078125,-0.96484375,-0.138671875
347,-0.0205078125,-0.9638671875,-0.140625
348,-0.0166015625,-0.9619140625,-0.1474609375
349,-0.0205078125,-0.958984375,-0.154296875
350,-0.0263671875,-0.9697265625,-0.1533203125
351,-0.0361328125,-0.9609375,-0.158203125
352,-0.041015625,-0.9609375,-0.154296875
353,-0.0419921875,-0.9658203125,-0.16015625
354,-0.0322265625,-0.9716796875,-0.154296875
355,-0.0205078125,-0.9677734375,-0.1513671875
356,-0.01953125,-0.958984375,-0.150390625
357,-0.029296875,-0.953125,-0.1533203125
358,-0.02734375,-0.9482421875,-0.15234375
359,-0.02734375,-0.9501953125,-0.1533203125
360,-0.0224609375,-0.9453125,-0.154296875
361,-0.0205078125,-0.9501953125,-0.1611328125
362,-0.0263671875,-0.953125,-0.1533203125
363,-0.015625,-0.955078125,-0.150390625
364,-0.021484375,-0.9619140625,-0.1552734375
365,-0.0205078125,-0.9677734375,-0.1591796875
366,-0.0224609375,-0.9580078125,-0.16015625
367,-0.03125,-0.9609375,-0.16796875
368,-0.0302734375,-0.9580078125,-0.1630859375
369,-0.033203125,-0.95703125,-0.1650390625
370,-0.0322265625,-0.955078125,-0.1611328125
371,-0.0380859375,-0.951171875,-0.1533203125
372,-0.0380859375,-0.947265625,-0.1611328125
373,-0.0390625,-0.94921875,-0.16015625
374,-0.041015625,-0.9501953125,-0.162109375
375,-0.037109375,-0.9482421875,-0.171875
376,-0.037109375,-0.9521484375,-0.1650390625
377,-0.0361328125,-0.9541015625,-0.1669921875
378,-0.0341796875,-0.9541015625,-0.1669921875
379,-0.03515625,-0.95703125,-0.1572265625
380,-0.0361328125,-0.9697265625,-0.1650390625
381,-0.029296875,-0.9697265625,-0.1640625
382,-0.02734375,-0.9794921875,-0.1650390625
383,-0.0458984375,-0.97265625,-0.166015625
384,-0.0390625,-0.9697265625,-0.1611328125
385,-0.0322265625,-0.9609375,-0.1640625
386,-0.03515625,-0.9619140625,-0.16796875
387,-0.03125,-0.9609375,-0.1708984375
388,-0.0361328125,-0.953125,-0.17578125
389,-0.033203125,-0.95703125,-0.1787109375
390,-0.03125,-0.947265625,-0.1748046875
391,-0.037109375,-0.9541015625,-0.1826171875
392,-0.0380859375,-0.9501953125,-0.1796875
393,-0.0439453125,-0.9453125,-0.1806640625
394,-0.0400390625,-0.955078125,-0.1875
395,-0.0458984375,-0.9521484375,-0.185546875
396,-0.0439453125,-0.9521484375,-0.177734375
397,-0.0498046875,-0.9521484375,-0.1875
398,-0.0556640625,-0.9580078125,-0.1884765625
399,-0.0498046875,-0.9580078125,-0.189453125
400,-0.0546875,-0.958984375,-0.185546875
401,-0.0478515625,-0.9638671875,-0.18359375
402,-0.05859375,-0.958984375,-0.19140625
403,-0.0595703125,-0.95703125,-0.193359375
404,-0.0625,-0.9541015625,-0.193359375
405,-0.06640625,-0.9501953125,-0.197265625
406,-0.0654296875,-0.951171875,-0.19921875
407,-0.0673828125,-0.9541015625,-0.19921875
408,-0.072265625,-0.962890625,-0.1943359375
409,-0.07421875,-0.9619140625,-0.193359375
410,-0.0732421875,-0.9736328125,-0.1962890625
411,-0.078125,-0.966796875,-0.2001953125
412,-0.083984375,-0.9736328125,-0.19921875
413,-0.0830078125,-0.9677734375,-0.205078125
414,-0.078125,-0.9609375,-0.201171875
415,-0.0830078125,-0.9609375,-0.2109375
416,-0.0849609375,-0.9609375,-0.2119140625
417,-0.08203125,-0.9580078125,-0.21484375
418,-0.0869140625,-0.96484375,-0.21875
419,-0.080078125,-0.9609375,-0.21875
420,-0.0869140625,-0.96484375,-0.2265625
421,-0.0830078125,-0.9541015625,-0.2314453125
422,-0.0869140625,-0.9560546875,-0.2255859375
423,-0.0830078125,-0.9482421875,-0.2333984375
424,-0.0888671875,-0.94921875,-0.2373046875
425,-0.0927734375,-0.943359375,-0.2353515625
426,-0.0908203125,-0.9423828125,-0.2431640625
427,-0.08984375,-0.943359375,-0.23828125
428,-0.1064453125,-0.9453125,-0.2451171875
429,-0.11328125,-0.955078125,-0.25
430,-0.115234375,-0.958984375,-0.2587890625
431,-0.1240234375,-0.970703125,-0.2587890625
432,-0.12890625,-0.9736328125,-0.2568359375
433,-0.1240234375,-0.9814453125,-0.26171875
434,-0.1201171875,-0.9853515625,-0.255859375
435,-0.1240234375,-0.962890625,-0.2626953125
436,-0.1259765625,-0.955078125,-0.2607421875
437,-0.1318359375,-0.9482421875,-0.259765625
438,-0.13671875,-0.9453125,-0.2587890625
439,-0.138671875,-0.9462890625,-0.2578125
440,-0.142578125,-0.9453125,-0.259765625
441,-0.150390625,-0.9453125,-0.2607421875
442,-0.158203125,-0.9423828125,-0.2685546875
443,-0.158203125,-0.953125,-0.271484375
444,-0.1708984375,-0.951171875,-0.2802734375
445,-0.177734375,-0.9521484375,-0.2841796875
446,-0.18359375,-0.9521484375,-0.291015625
447,-0.1875,-0.943359375,-0.2939453125
448,-0.1904296875,-0.9462890625,-0.29296875
449,-0.201171875,-0.9384765625,-0.296875
450,-0.201171875,-0.9345703125,-0.2841796875
451,-0.203125,-0.9248046875,-0.2841796875
452,-0.2021484375,-0.921875,-0.283203125
453,-0.1953125,-0.9130859375,-0.2861328125
454,-0.1962890625,-0.9052734375,-0.291015625
455,-0.2001953125,-0.9130859375,-0.2939453125
456,-0.2021484375,-0.90234375,-0.2900390625
457,-0.20703125,-0.9033203125,-0.294921875
458,-0.2099609375,-0.9072265625,-0.2939453125
459,-0.2197265625,-0.90625,-0.2998046875
460,-0.23046875,-0.904296875,-0.302734375
461,-0.2431640625,-0.904296875,-0.3076171875
462,-0.248046875,-0.8994140625,-0.3056640625
463,-0.2490234375,-0.900390625,-0.30859375
464,-0.263671875,-0.90234375,-0.3115234375
465,-0.265625,-0.9013671875,-0.3115234375
466,-0.2685546875,-0.8984375,-0.318359375
467,-0.2705078125,-0.8984375,-0.318359375
468,-0.27734375,-0.9013671875,-0.318359375
469,-0.2841796875,-0.8994140625,-0.3203125
470,-0.2890625,-0.908203125,-0.318359375
471,-0.294921875,-0.90234375,-0.322265625
472,-0.29296875,-0.9072265625,-0.3193359375
473,-0.302734375,-0.8984375,-0.3154296875
474,-0.3076171875,-0.892578125,-0.314453125
475,-0.3125,-0.8896484375,-0.326171875
476,-0.3154296875,-0.8828125,-0.32421875
477,-0.32421875,-0.8759765625,-0.328125
478,-0.3271484375,-0.8720703125,-0.333984375
479,-0.3291015625,-0.873046875,-0.33984375
480,-0.3388671875,-0.8759765625,-0.349609375
481,-0.3369140625,-0.875,-0.3583984375
482,-0.33203125,-0.8759765625,-0.36328125
483,-0.330078125,-0.8759765625,-0.365234375
484,-0.3291015625,-0.8740234375,-0.3623046875
485,-0.3271484375,-0.8759765625,-0.3583984375
486,-0.318359375,-0.8720703125,-0.3515625
487,-0.3212890625,-0.869140625,-0.34375
488,-0.3212890625,-0.8681640625,-0.3447265625
489,-0.33203125,-0.85546875,-0.349609375
490,-0.3486328125,-0.85546875,-0.3583984375
491,-0.3583984375,-0.8427734375,-0.3623046875
492,-0.3662109375,-0.837890625,-0.3564453125
493,-0.3818359375,-0.8291015625,-0.3623046875
494,-0.3935546875,-0.8330078125,-0.3583984375
495,-0.41015625,-0.8291015625,-0.3564453125
496,-0.40625,-0.83203125,-0.3544921875
497,-0.412109375,-0.833984375,-0.3388671875
498,-0.412109375,-0.8369140625,-0.337890625
499,-0.4150390625,-0.8330078125,-0.3291015625
500,-0.41796875,-0.8369140625,-0.3291015625
501,-0.4189453125,-0.8388671875,-0.318359375
502,-0.4296875,-0.833984375,-0.322265625
503,-0.4345703125,-0.833984375,-0.318359375
504,-0.443359375,-0.837890625,-0.318359375
505,-0.4541015625,-0.8359375,-0.314453125
506,-0.46484375,-0.8388671875,-0.3134765625
507,-0.4765625,-0.8349609375,-0.3115234375
508,-0.482421875,-0.8369140625,-0.310546875
509,-0.4765625,-0.8330078125,-0.3076171875
510,-0.4794921875,-0.8388671875,-0.302734375
511,-0.4658203125,-0.8359375,-0.3017578125
512,-0.453125,-0.8330078125,-0.3134765625
513,-0.4453125,-0.8369140625,-0.3154296875
514,-0.435546875,-0.830078125,-0.328125
515,-0.4326171875,-0.8173828125,-0.337890625
516,-0.435546875,-0.814453125,-0.359375
517,-0.439453125,-0.8056640625,-0.353515625
518,-0.4384765625,-0.7998046875,-0.3505859375
519,-0.443359375,-0.796875,-0.3466796875
520,-0.4560546875,-0.796875,-0.3349609375
521,-0.4658203125,-0.79296875,-0.33203125
522,-0.484375,-0.7939453125,-0.328125
523,-0.4912109375,-0.79296875,-0.3203125
524,-0.4931640625,-0.7919921875,-0.3232421875
525,-0.5,-0.787109375,-0.32421875
526,-0.5068359375,-0.791015625,-0.3203125
527,-0.5166015625,-0.7841796875,-0.3154296875
528,-0.51953125,-0.7822265625,-0.30859375
529,-0.517578125,-0.7822265625,-0.298828125
530,-0.5244140625,-0.7822265625,-0.2998046875
531,-0.52734375,-0.7783203125,-0.3095703125
532,-0.5302734375,-0.765625,-0.3251953125
533,-0.5341796875,-0.751953125,-0.3388671875
534,-0.533203125,-0.7373046875,-0.3369140625
535,-0.5390625,-0.728515625,-0.326171875
536,-0.5537109375,-0.7294921875,-0.3056640625
537,-0.5498046875,-0.740234375,-0.2890625
538,-0.5595703125,-0.7373046875,-0.2841796875
539,-0.5751953125,-0.740234375,-0.28515625
540,-0.5830078125,-0.748046875,-0.28125
541,-0.583984375,-0.748046875,-0.28515625
542,-0.5751953125,-0.736328125,-0.2958984375
543,-0.578125,-0.73046875,-0.318359375
544,-0.58203125,-0.7197265625,-0.3359375
545,-0.591796875,-0.70703125,-0.3505859375
546,-0.5869140625,-0.703125,-0.3603515625
547,-0.5888671875,-0.705078125,-0.3583984375
548,-0.5908203125,-0.70703125,-0.345703125
549,-0.5947265625,-0.7177734375,-0.3427734375
550,-0.6123046875,-0.7197265625,-0.3330078125
551,-0.6279296875,-0.7216796875,-0.3251953125
552,-0.626953125,-0.7158203125,-0.322265625
553,-0.6416015625,-0.71484375,-0.31640625
554,-0.6455078125,-0.7099609375,-0.3046875
555,-0.6494140625,-0.705078125,-0.302734375
556,-0.6533203125,-0.6904296875,-0.2998046875
557,-0.6513671875,-0.6748046875,-0.298828125
558,-0.65625,-0.6640625,-0.298828125
559,-0.6572265625,-0.6630859375,-0.2880859375
560,-0.662109375,-0.662109375,-0.2734375
561,-0.671875,-0.662109375,-0.2578125
562,-0.681640625,-0.6669921875,-0.248046875
563,-0.6875,-0.6689453125,-0.2490234375
564,-0.69921875,-0.6630859375,-0.2578125
565,-0.7099609375,-0.6591796875,-0.259765625
566,-0.712890625,-0.6552734375,-0.2587890625
567,-0.7158203125,-0.6484375,-0.2626953125
568,-0.7138671875,-0.6474609375,-0.2568359375
569,-0.7119140625,-0.646484375,-0.2607421875
570,-0.705078125,-0.642578125,-0.2666015625
571,-0.70703125,-0.6455078125,-0.2802734375
572,-0.703125,-0.65625,-0.28515625
573,-0.70703125,-0.6552734375,-0.2890625
574,-0.6982421875,-0.6533203125,-0.2802734375
575,-0.705078125,-0.6435546875,-0.2646484375
576,-0.705078125,-0.6396484375,-0.255859375
577,-0.712890625,-0.6259765625,-0.2578125
578,-0.7158203125,-0.6171875,-0.2666015625
579,-0.7255859375,-0.5986328125,-0.2685546875
580,-0.72265625,-0.587890625,-0.279296875
581,-0.7392578125,-0.5703125,-0.28515625
582,-0.732421875,-0.5654296875,-0.287109375
583,-0.7431640625,-0.5615234375,-0.2822265625
584,-0.7431640625,-0.560546875,-0.2919921875
585,-0.75390625,-0.5625,-0.287109375
586,-0.751953125,-0.5732421875,-0.2919921875
587,-0.74609375,-0.58984375,-0.296875
588,-0.7490234375,-0.611328125,-0.302734375
589,-0.748046875,-0.619140625,-0.3017578125
590,-0.7470703125,-0.626953125,-0.3046875
591,-0.740234375,-0.6337890625,-0.296875
592,-0.7412109375,-0.611328125,-0.296875
593,-0.751953125,-0.591796875,-0.26953125
594,-0.75390625,-0.578125,-0.251953125
595,-0.755859375,-0.5634765625,-0.2451171875
596,-0.76171875,-0.5517578125,-0.234375
597,-0.763671875,-0.533203125,-0.2353515625
598,-0.76171875,-0.5224609375,-0.2353515625
599,-0.759765625,-0.5126953125,-0.251953125
600,-0.7607421875,-0.5068359375,-0.2607421875
601,-0.75390625,-0.4970703125,-0.2578125
602,-0.75390625,-0.4912109375,-0.259765625
603,-0.7451171875,-0.4970703125,-0.255859375
604,-0.740234375,-0.5029296875,-0.244140625
605,-0.7470703125,-0.5185546875,-0.232421875
606,-0.7587890625,-0.52734375,-0.23046875
607,-0.76953125,-0.52734375,-0.2373046875
608,-0.791015625,-0.53515625,-0.236328125
609,-0.796875,-0.544921875,-0.23828125
610,-0.814453125,-0.556640625,-0.23828125
611,-0.8115234375,-0.5576171875,-0.2392578125
612,-0.8203125,-0.5625,-0.236328125
613,-0.8388671875,-0.5537109375,-0.224609375
614,-0.8525390625,-0.5400390625,-0.216796875
615,-0.85546875,-0.533203125,-0.224609375
616,-0.8427734375,-0.5263671875,-0.21484375
617,-0.8408203125,-0.51171875,-0.236328125
618,-0.84765625,-0.4912109375,-0.2412109375
619,-0.8583984375,-0.48046875,-0.2490234375
620,-0.8603515625,-0.4814453125,-0.2412109375
621,-0.8720703125,-0.4794921875,-0.234375
622,-0.8779296875,-0.4775390625,-0.234375
623,-0.888671875,-0.4716796875,-0.240234375
624,-0.8740234375,-0.474609375,-0.251953125
625,-0.859375,-0.478515625,-0.2529296875
626,-0.8427734375,-0.48828125,-0.24609375
627,-0.8271484375,-0.48828125,-0.2412109375
628,-0.8056640625,-0.4970703125,-0.2470703125
629,-0.7958984375,-0.501953125,-0.248046875
630,-0.771484375,-0.5068359375,-0.2548828125
631,-0.779296875,-0.50390625,-0.259765625
632,-0.7919921875,-0.501953125,-0.263671875
633,-0.7978515625,-0.505859375,-0.265625
634,-0.810546875,-0.4970703125,-0.2548828125
635,-0.826171875,-0.494140625,-0.24609375
636,-0.8447265625,-0.4921875,-0.236328125
637,-0.869140625,-0.4775390625,-0.2197265625
638,-0.8759765625,-0.46875,-0.2216796875
639,-0.8916015625,-0.458984375,-0.2197265625
640,-0.892578125,-0.4521484375,-0.220703125
641,-0.892578125,-0.4375,-0.2197265625
642,-0.8759765625,-0.4375,-0.2353515625
643,-0.87890625,-0.4296875,-0.2431640625
644,-0.865234375,-0.4326171875,-0.255859375
645,-0.853515625,-0.42578125,-0.2607421875
646,-0.8486328125,-0.4365234375,-0.255859375
647,-0.8427734375,-0.443359375,-0.2529296875
648,-0.8427734375,-0.4599609375,-0.26171875
649,-0.8505859375,-0.4619140625,-0.2861328125
650,-0.845703125,-0.4619140625,-0.2958984375
651,-0.8515625,-0.458984375,-0.2998046875
652,-0.8544921875,-0.453125,-0.296875
653,-0.845703125,-0.4384765625,-0.2861328125
654,-0.8388671875,-0.4296875,-0.27734375
655,-0.8310546875,-0.431640625,-0.2734375
656,-0.8232421875,-0.4248046875,-0.2587890625
657,-0.8310546875,-0.4169921875,-0.25
658,-0.8330078125,-0.4130859375,-0.2353515625
659,-0.837890625,-0.3984375,-0.236328125
660,-0.84375,-0.3876953125,-0.23828125
661,-0.8505859375,-0.3759765625,-0.2412109375
662,-0.8603515625,-0.3662109375,-0.2451171875
663,-0.873046875,-0.3564453125,-0.2470703125
664,-0.8828125,-0.3505859375,-0.2421875
665,-0.88671875,-0.3544921875,-0.2353515625
666,-0.888671875,-0.3525390625,-0.2373046875
667,-0.8935546875,-0.349609375,-0.2373046875
668,-0.890625,-0.337890625,-0.2412109375
669,-0.884765625,-0.3330078125,-0.248046875
670,-0.8857421875,-0.3203125,-0.2451171875
671,-0.875,-0.30859375,-0.2412109375
672,-0.876953125,-0.298828125,-0.2333984375
673,-0.875,-0.2890625,-0.23046875
674,-0.8759765625,-0.287109375,-0.2314453125
675,-0.8798828125,-0.279296875,-0.2236328125
676,-0.880859375,-0.275390625,-0.21484375
677,-0.8876953125,-0.271484375,-0.1943359375
678,-0.904296875,-0.263671875,-0.1767578125
679,-0.9130859375,-0.2412109375,-0.1708984375
680,-0.9130859375,-0.2255859375,-0.18359375
681,-0.9130859375,-0.2041015625,-0.1943359375
682,-0.9052734375,-0.1796875,-0.2216796875
683,-0.904296875,-0.1650390625,-0.236328125
684,-0.900390625,-0.1591796875,-0.244140625
685,-0.89453125,-0.1591796875,-0.248046875
686,-0.89453125,-0.1591796875,-0.255859375
687,-0.904296875,-0.173828125,-0.2587890625
688,-0.9072265625,-0.173828125,-0.2607421875
689,-0.923828125,-0.1796875,-0.25
690,-0.9375,-0.1875,-0.259765625
691,-0.9541015625,-0.1962890625,-0.2685546875
692,-0.9697265625,-0.2138671875,-0.27734375
693,-0.9794921875,-0.2197265625,-0.287109375
694,-0.9921875,-0.2255859375,-0.2734375
695,-0.994140625,-0.2197265625,-0.271484375
696,-1.0029296875,-0.2119140625,-0.2626953125
697,-1.001953125,-0.1962890625,-0.25
698,-1.0078125,-0.1796875,-0.2353515625
699,-1.0,-0.150390625,-0.2158203125
700,-0.986328125,-0.1181640625,-0.216796875
701,-0.9921875,-0.107421875,-0.22265625
702,-0.986328125,-0.1015625,-0.240234375
703,-0.9794921875,-0.0966796875,-0.236328125
704,-0.974609375,-0.099609375,-0.236328125
705,-0.9755859375,-0.1005859375,-0.2373046875
706,-0.9716796875,-0.1103515625,-0.244140625
707,-0.96484375,-0.126953125,-0.25390625
708,-0.9580078125,-0.1494140625,-0.2578125
709,-0.94921875,-0.1796875,-0.2578125
710,-0.9404296875,-0.203125,-0.2568359375
711,-0.9345703125,-0.203125,-0.251953125
712,-0.9345703125,-0.19921875,-0.2470703125
713,-0.935546875,-0.1787109375,-0.232421875
714,-0.9375,-0.15625,-0.2255859375
715,-0.9443359375,-0.1328125,-0.23046875
716,-0.9501953125,-0.1044921875,-0.22265625
717,-0.94140625,-0.0732421875,-0.224609375
718,-0.94140625,-0.056640625,-0.2158203125
719,-0.9462890625,-0.0419921875,-0.205078125
720,-0.939453125,-0.0419921875,-0.181640625
721,-0.9365234375,-0.0439453125,-0.1689453125
722,-0.9375,-0.04296875,-0.169921875
723,-0.9482421875,-0.0439453125,-0.1611328125
724,-0.9580078125,-0.0390625,-0.1416015625
725,-0.9677734375,-0.0390625,-0.146484375
726,-0.9765625,-0.0498046875,-0.1552734375
727,-1.0078125,-0.0478515625,-0.1962890625
728,-0.99609375,-0.0458984375,-0.25
729,-0.9697265625,-0.0654296875,-0.248046875
730,-0.9306640625,-0.0947265625,-0.1962890625
731,-0.916015625,-0.1171875,-0.1279296875
732,-0.9267578125,-0.1103515625,-0.056640625
733,-0.97265625,-0.0791015625,-0.0185546875
734,-1.0244140625,-0.0380859375,-0.0029296875
735,-1.0634765625,0.015625,-0.0224609375
736,-1.0966796875,0.060546875,-0.037109375
737,-1.115234375,0.1044921875,-0.0390625
738,-1.1357421875,0.123046875,-0.044921875
739,-1.15234375,0.13671875,-0.060546875
740,-1.169921875,0.1357421875,-0.0830078125
741,-1.2041015625,0.13671875,-0.1298828125
742,-1.2177734375,0.1171875,-0.1767578125
743,-1.244140625,0.0908203125,-0.2138671875
744,-1.248046875,0.08203125,-0.220703125
745,-1.234375,0.0849609375,-0.19921875
746,-1.208984375,0.0791015625,-0.158203125
747,-1.173828125,0.0830078125,-0.083984375
748,-1.1455078125,0.08984375,-0.0068359375
749,-1.099609375,0.107421875,0.0302734375
750,-1.0595703125,0.125,0.041015625
751,-1.017578125,0.158203125,0.0439453125
752,-0.9716796875,0.1640625,0.0595703125
753,-0.9345703125,0.14453125,0.060546875
754,-0.927734375,0.087890625,0.04296875
755,-0.931640625,0.064453125,0.0126953125
756,-0.9267578125,0.068359375,-0.015625
757,-0.9130859375,0.076171875,-0.0126953125
758,-0.89453125,0.08984375,-0.001953125
759,-0.8740234375,0.099609375,-0.001953125
760,-0.857421875,0.107421875,0.0
761,-0.845703125,0.0966796875,0.0
762,-0.83984375,0.083984375,0.0107421875
763,-0.8505859375,0.068359375,0.00390625
764,-0.8896484375,0.060546875,-0.0068359375
765,-0.9365234375,0.03515625,-0.01953125
766,-0.970703125,0.017578125,-0.0078125
767,-1.0087890625,0.0087890625,0.0087890625
768,-1.0068359375,0.01171875,0.0205078125
769,-1.0126953125,0.0068359375,0.0263671875
770,-1.013671875,0.017578125,0.0224609375
771,-1.013671875,0.0224609375,0.0234375
772,-1.01171875,0.0283203125,0.025390625
773,-1.0029296875,0.0224609375,0.0283203125
774,-0.9794921875,0.0087890625,0.0498046875
775,-0.9619140625,0.0107421875,0.0751953125
776,-0.9619140625,0.0380859375,0.091796875
777,-0.9716796875,0.0654296875,0.0810546875
778,-1.0029296875,0.0908203125,0.0673828125
779,-1.0380859375,0.1064453125,0.0625
780,-1.0498046875,0.1162109375,0.052734375
781,-1.0556640625,0.115234375,0.04296875
782,-1.0390625,0.126953125,0.033203125
783,-1.0166015625,0.1240234375,0.02734375
784,-0.982421875,0.1201171875,0.03125
785,-0.9599609375,0.109375,0.0244140625
786,-0.94921875,0.1044921875,0.0185546875
787,-0.9443359375,0.0947265625,0.0166015625
788,-0.94921875,0.08984375,0.013671875
789,-0.9599609375,0.0888671875,0.01953125
790,-0.9794921875,0.0693359375,0.0185546875
791,-0.994140625,0.0517578125,0.015625
792,-1.0087890625,0.0322265625,0.021484375
793,-1.01171875,0.009765625,0.02734375
794,-1.009765625,0.0,0.037109375
795,-1.0068359375,-0.0009765625,0.0341796875
796,-1.00390625,0.01171875,0.03515625
797,-0.9921875,0.037109375,0.0390625
798,-0.974609375,0.0478515625,0.0458984375
799,-0.9609375,0.060546875,0.05078125
800,-0.953125,0.0615234375,0.0498046875
801,-0.9541015625,0.0615234375,0.0361328125
802,-0.9521484375,0.06640625,0.01953125
803,-0.962890625,0.064453125,0.01171875
804,-0.966796875,0.0634765625,0.0078125
805,-0.96875,0.0595703125,0.0048828125
806,-0.978515625,0.046875,0.0107421875
807,-0.9921875,0.0419921875,0.015625
808,-1.0009765625,0.0302734375,0.0244140625
809,-1.0048828125,0.0224609375,0.037109375
810,-1.009765625,0.01953125,0.0537109375
811,-1.015625,0.025390625,0.0556640625
812,-1.0126953125,0.0458984375,0.0498046875
813,-1.0244140625,0.0625,0.0498046875
814,-1.03125,0.07421875,0.0498046875
815,-1.03515625,0.0791015625,0.0478515625
816,-1.0361328125,0.0810546875,0.0478515625
817,-1.03125,0.0810546875,0.0419921875
818,-1.0205078125,0.0634765625,0.0400390625
819,-1.0166015625,0.052734375,0.052734375
820,-1.0126953125,0.044921875,0.05078125
821,-1.0078125,0.0380859375,0.05078125
822,-1.0078125,0.0302734375,0.05859375
823,-0.9990234375,0.0263671875,0.072265625
824,-0.99609375,0.0283203125,0.08203125
825,-0.9853515625,0.037109375,0.0830078125
826,-0.98046875,0.05859375,0.0732421875
827,-0.9853515625,0.068359375,0.0625
828,-0.9765625,0.0830078125,0.052734375
829,-0.9716796875,0.0830078125,0.041015625
830,-0.9609375,0.080078125,0.029296875
831,-0.9580078125,0.080078125,0.0263671875
832,-0.9599609375,0.0771484375,0.017578125
833,-0.9609375,0.0634765625,0.017578125
834,-0.970703125,0.052734375,0.0224609375
835,-0.9775390625,0.0478515625,0.02734375
836,-0.9873046875,0.0498046875,0.0263671875
837,-0.9912109375,0.052734375,0.033203125
838,-0.986328125,0.0419921875,0.029296875
839,-0.9775390625,0.0458984375,0.03125
840,-0.970703125,0.0439453125,0.0185546875
841,-0.9638671875,0.0517578125,0.01171875
842,-0.95703125,0.048828125,-0.0029296875
843,-0.962890625,0.0498046875,0.0
844,-0.962890625,0.0498046875,0.0166015625
845,-0.9697265625,0.0595703125,0.017578125
846,-0.974609375,0.0732421875,0.017578125
847,-0.998046875,0.078125,0.0078125
848,-1.01171875,0.0791015625,0.00390625
849,-1.0205078125,0.072265625,-0.0048828125
850,-1.0263671875,0.0634765625,-0.0087890625
851,-1.03125,0.0556640625,-0.015625
852,-1.04296875,0.0458984375,-0.015625
853,-1.03515625,0.0302734375,-0.013671875
854,-1.0341796875,0.0224609375,-0.0205078125
855,-1.02734375,0.025390625,-0.0185546875
856,-1.01171875,0.017578125,-0.03125
857,-1.0029296875,0.0283203125,-0.041015625
858,-0.984375,0.0234375,-0.041015625
859,-0.982421875,0.03125,-0.037109375
860,-0.978515625,0.0283203125,-0.0361328125
861,-0.998046875,0.0283203125,-0.0322265625
862,-1.0029296875,0.03515625,-0.0224609375
863,-1.009765625,0.0341796875,-0.0205078125
864,-1.017578125,0.044921875,-0.02734375
865,-1.0185546875,0.046875,-0.0361328125
866,-1.0224609375,0.0380859375,-0.0498046875
867,-1.0205078125,0.0380859375,-0.060546875
868,-1.0244140625,0.029296875,-0.0673828125
869,-1.0234375,0.03515625,-0.080078125
870,-1.0185546875,0.0322265625,-0.0927734375
871,-1.017578125,0.0322265625,-0.099609375
872,-1.015625,0.02734375,-0.0947265625
873,-1.00390625,0.0185546875,-0.0966796875
874,-0.984375,0.0029296875,-0.0830078125
875,-0.9765625,-0.0009765625,-0.0810546875
876,-0.9765625,-0.009765625,-0.078125
877,-0.9765625,-0.021484375,-0.0791015625
878,-0.9990234375,-0.0205078125,-0.08203125
879,-1.0009765625,-0.015625,-0.083984375
880,-1.0078125,-0.009765625,-0.08984375
881,-1.0078125,0.0,-0.09375
882,-1.0048828125,-0.0029296875,-0.095703125
883,-0.994140625,0.0048828125,-0.095703125
884,-0.9833984375,-0.0048828125,-0.0849609375
885,-0.9775390625,0.001953125,-0.0791015625
886,-0.9716796875,0.0029296875,-0.068359375
887,-0.9658203125,0.0029296875,-0.0615234375
888,-0.9658203125,0.0078125,-0.0576171875
889,-0.9677734375,0.0166015625,-0.0546875
890,-0.970703125,0.0205078125,-0.0546875
891,-0.9716796875,0.025390625,-0.0625
892,-0.9638671875,0.0302734375,-0.0732421875
893,-0.9677734375,0.0302734375,-0.083984375
894,-0.9716796875,0.0283203125,-0.0966796875
895,-0.9814453125,0.017578125,-0.09765625
896,-0.990234375,0.017578125,-0.099609375
897,-1.00390625,0.0107421875,-0.107421875
898,-1.01171875,0.0068359375,-0.10546875
899,-1.0146484375,0.00390625,-0.103515625
900,-1.025390625,0.0048828125,-0.10546875
901,-1.0283203125,0.00390625,-0.1005859375
902,-1.033203125,0.013671875,-0.0947265625
903,-1.0361328125,0.0146484375,-0.0908203125
904,-1.0390625,0.021484375,-0.0888671875
905,-1.03125,0.02734375,-0.0888671875
906,-1.0283203125,0.0302734375,-0.09765625
907,-1.0205078125,0.03515625,-0.0986328125
908,-1.0146484375,0.0400390625,-0.095703125
909,-1.013671875,0.048828125,-0.09765625
910,-1.005859375,0.037109375,-0.08984375
911,-1.0068359375,0.04296875,-0.091796875
912,-1.0087890625,0.04296875,-0.095703125
913,-1.01171875,0.041015625,-0.08984375
914,-1.01171875,0.0400390625,-0.0869140625
915,-1.0107421875,0.04296875,-0.09375
916,-1.01953125,0.0478515625,-0.095703125
917,-1.0126953125,0.04296875,-0.1015625
918,-1.0,0.0390625,-0.1015625
919,-0.9951171875,0.0390625,-0.1044921875
920,-0.9892578125,0.0400390625,-0.111328125
921,-0.9794921875,0.0361328125,-0.1162109375
922,-0.974609375,0.0439453125,-0.1123046875
923,-0.9765625,0.0419921875,-0.1181640625
924,-0.9765625,0.0400390625,-0.1171875
925,-0.9833984375,0.0390625,-0.12109375
926,-1.0048828125,0.0400390625,-0.1171875
927,-1.0185546875,0.033203125,-0.119140625
928,-1.0283203125,0.037109375,-0.119140625
929,-1.0380859375,0.03125,-0.1201171875
930,-1.0419921875,0.0400390625,-0.1142578125
931,-1.04296875,0.037109375,-0.115234375
932,-1.0380859375,0.0400390625,-0.11328125
933,-1.0283203125,0.04296875,-0.1181640625
934,-1.0224609375,0.0400390625,-0.12109375
935,-1.0087890625,0.0458984375,-0.125
936,-0.9970703125,0.037109375,-0.123046875
937,-0.9853515625,0.029296875,-0.123046875
938,-0.9716796875,0.017578125,-0.12890625
939,-0.9658203125,0.0126953125,-0.1259765625
940,-0.9658203125,0.0087890625,-0.1201171875
941,-0.9619140625,0.005859375,-0.1181640625
942,-0.9697265625,0.009765625,-0.1142578125
943,-0.966796875,0.01171875,-0.1123046875
944,-0.974609375,0.017578125,-0.103515625
945,-0.9833984375,0.03125,-0.109375
946,-0.98046875,0.037109375,-0.1044921875
947,-0.986328125,0.04296875,-0.119140625
948,-0.986328125,0.0400390625,-0.1259765625
949,-1.00390625,0.0439453125,-0.1318359375
950,-1.0048828125,0.03515625,-0.1298828125
951,-1.0048828125,0.0341796875,-0.134765625
952,-1.009765625,0.0244140625,-0.1337890625
953,-1.01171875,0.025390625,-0.1279296875
954,-1.01171875,0.0224609375,-0.125
955,-1.0107421875,0.0283203125,-0.119140625
956,-1.0078125,0.0322265625,-0.1201171875
957,-1.0009765625,0.033203125,-0.1123046875
958,-1.0009765625,0.0341796875,-0.111328125
959,-0.9912109375,0.03515625,-0.1103515625
960,-0.9951171875,0.0263671875,-0.1162109375
961,-0.998046875,0.01953125,-0.119140625
962,-0.986328125,0.017578125,-0.1181640625
963,-0.9931640625,0.0146484375,-0.1171875
964,-1.001953125,0.0048828125,-0.1201171875
965,-1.0,0.005859375,-0.119140625
966,-1.0009765625,0.0029296875,-0.1181640625
967,-1.001953125,0.005859375,-0.119140625
968,-1.0009765625,0.005859375,-0.115234375
969,-1.001953125,0.0068359375,-0.1171875
970,-1.0009765625,0.0166015625,-0.11328125
971,-1.001953125,0.0224609375,-0.119140625
972,-0.9873046875,0.029296875,-0.1279296875
973,-0.998046875,0.03125,-0.1220703125
974,-1.005859375,0.029296875,-0.1201171875
975,-1.01171875,0.03125,-0.12109375
976,-1.0126953125,0.029296875,-0.11328125
977,-1.0205078125,0.029296875,-0.1064453125
978,-1.0185546875,0.025390625,-0.1015625
979,-1.015625,0.0185546875,-0.09765625
980,-1.015625,0.0166015625,-0.087890625
981,-1.009765625,0.015625,-0.0751953125
982,-1.00390625,0.013671875,-0.0634765625
983,-0.9931640625,0.005859375,-0.052734375
984,-0.9853515625,0.0029296875,-0.04296875
985,-0.9755859375,0.0009765625,-0.0380859375
986,-0.97265625,0.0,-0.0419921875
987,-0.97265625,0.0048828125,-0.0576171875
988,-0.9794921875,-0.0048828125,-0.068359375
989,-0.982421875,0.0009765625,-0.0732421875
990,-0.9912109375,0.001953125,-0.0751953125
991,-1.0029296875,0.0126953125,-0.0791015625
992,-1.0068359375,0.0234375,-0.06640625
993,-1.00390625,0.033203125,-0.0673828125
994,-1.00390625,0.0341796875,-0.0625
995,-1.0078125,0.0400390625,-0.0625
996,-1.00390625,0.0400390625,-0.0576171875
997,-1.0029296875,0.0400390625,-0.0576171875
998,-1.0009765625,0.0361328125,-0.060546875
999,-0.9990234375,0.037109375,-0.0615234375
1000,-0.9951171875,0.033203125,-0.060546875
1001,-1.0078125,0.033203125,-0.0625
1002,-1.0029296875,0.0361328125,-0.0595703125
1003,-1.0048828125,0.03515625,-0.068359375
1004,-1.0078125,0.033203125,-0.0673828125
1005,-1.0087890625,0.0322265625,-0.0673828125
1006,-1.015625,0.0380859375,-0.0693359375
1007,-1.015625,0.041015625,-0.064453125
1008,-1.0146484375,0.0400390625,-0.0673828125
1009,-1.013671875,0.0458984375,-0.0654296875
1010,-1.0126953125,0.0478515625,-0.0654296875
1011,-1.0068359375,0.048828125,-0.0654296875
1012,-1.0107421875,0.0517578125,-0.0654296875
1013,-1.0048828125,0.0400390625,-0.0634765625
1014,-0.9990234375,0.037109375,-0.05859375
1015,-0.9990234375,0.0361328125,-0.0654296875
1016,-0.98828125,0.029296875,-0.064453125
1017,-0.9853515625,0.03125,-0.0595703125
1018,-0.994140625,0.0224609375,-0.056640625
1019,-0.9853515625,0.01171875,-0.0556640625
1020,-0.990234375,0.005859375,-0.05859375
1021,-0.9951171875,0.0029296875,-0.0654296875
1022,-0.9951171875,0.0,-0.0712890625
1023,-1.0009765625,0.005859375,-0.0732421875
1024,-1.0,0.0068359375,-0.0712890625
1025,-0.9990234375,0.0078125,-0.072265625
1026,-1.0029296875,0.0087890625,-0.0654296875
1027,-0.9873046875,0.01171875,-0.06640625
1028,-0.9921875,0.009765625,-0.0654296875
1029,-0.994140625,0.0107421875,-0.0634765625
1030,-0.99609375,0.01171875,-0.060546875
1031,-0.9931640625,0.0185546875,-0.060546875
1032,-0.9931640625,0.0146484375,-0.0595703125
1033,-1.0029296875,0.0146484375,-0.05859375
1034,-1.0087890625,0.0205078125,-0.0625
1035,-1.0087890625,0.0166015625,-0.0634765625
1036,-1.0087890625,0.017578125,-0.05859375
1037,-1.0068359375,0.0166015625,-0.0615234375
1038,-1.005859375,0.0126953125,-0.0634765625
1039,-1.005859375,0.0048828125,-0.0654296875
1040,-0.9931640625,0.0048828125,-0.064453125
1041,-0.98046875,0.0029296875,-0.0732421875
1042,-0.9765625,0.0009765625,-0.0732421875
1043,-0.9775390625,-0.0029296875,-0.064453125
1044,-0.9765625,0.001953125,-0.0673828125
1045,-0.9833984375,-0.001953125,-0.064453125
1046,-0.994140625,0.0029296875,-0.064453125
1047,-1.0009765625,0.00390625,-0.0693359375
1048,-1.00390625,0.0087890625,-0.068359375
1049,-1.00390625,0.0126953125,-0.07421875
1050,-0.994140625,0.0263671875,-0.0732421875
1051,-0.9873046875,0.021484375,-0.076171875
1052,-0.9951171875,0.0234375,-0.072265625
1053,-0.99609375,0.0224609375,-0.072265625
1054,-1.0029296875,0.0244140625,-0.0732421875
1055,-1.005859375,0.0224609375,-0.068359375
1056,-1.0029296875,0.01953125,-0.0712890625
1057,-1.0048828125,0.01953125,-0.0732421875
1058,-1.0078125,0.0146484375,-0.076171875
1059,-1.0068359375,0.015625,-0.0673828125
1060,-1.01171875,0.013671875,-0.072265625
1061,-1.015625,0.01171875,-0.0771484375
1062,-1.0146484375,0.0107421875,-0.0712890625
1063,-1.0146484375,0.017578125,-0.0771484375
1064,-1.0107421875,0.017578125,-0.0693359375
1065,-1.0087890625,0.0185546875,-0.0703125
1066,-1.009765625,0.015625,-0.076171875
1067,-1.00390625,0.017578125,-0.0791015625
1068,-0.998046875,0.015625,-0.0810546875
1069,-1.0029296875,0.013671875,-0.0791015625
1070,-0.99609375,0.015625,-0.08203125
1071,-1.0009765625,0.01171875,-0.0869140625
1072,-1.0107421875,0.0126953125,-0.083984375
1073,-1.0107421875,0.015625,-0.0810546875
1074,-1.0146484375,0.009765625,-0.0830078125
1075,-1.0126953125,0.021484375,-0.080078125
1076,-1.0107421875,0.02734375,-0.08203125
1077,-1.01171875,0.03515625,-0.0830078125
1078,-1.0029296875,0.0400390625,-0.0849609375
1079,-1.0,0.041015625,-0.08203125
1080,-0.994140625,0.0283203125,-0.083984375
1081,-0.990234375,0.03515625,-0.0859375
1082,-0.994140625,0.02734375,-0.091796875
1083,-0.9873046875,0.0302734375,-0.091796875
1084,-0.9931640625,0.0244140625,-0.0888671875
1085,-1.001953125,0.0185546875,-0.0888671875
1086,-1.00390625,0.029296875,-0.0888671875
1087,-0.9990234375,0.02734375,-0.0810546875
1088,-0.9951171875,0.0302734375,-0.0771484375
1089,-0.990234375,0.0283203125,-0.068359375
1090,-1.001953125,0.0205078125,-0.0712890625
1091,-1.0048828125,0.017578125,-0.076171875
1092,-1.0048828125,0.0185546875,-0.076171875
1093,-0.9990234375,0.0126953125,-0.07421875
1094,-1.001953125,0.017578125,-0.0771484375
1095,-1.001953125,0.0126953125,-0.0810546875
1096,-1.005859375,0.0107421875,-0.0810546875
1097,-1.0029296875,0.01171875,-0.076171875
1098,-1.005859375,0.0146484375,-0.0771484375
1099,-1.009765625,0.0185546875,-0.078125
1100,-1.009765625,0.0244140625,-0.0771484375
1101,-1.005859375,0.0185546875,-0.072265625
1102,-1.0078125,0.0185546875,-0.0712890625
1103,-1.0087890625,0.0224609375,-0.0703125
1104,-0.998046875,0.01953125,-0.064453125
1105,-0.9951171875,0.017578125,-0.0673828125
1106,-0.9990234375,0.0126953125,-0.064453125
1107,-1.0029296875,0.0146484375,-0.0625
1108,-1.0009765625,0.009765625,-0.0625
1109,-0.998046875,0.01171875,-0.0654296875
1110,-1.00390625,0.0068359375,-0.068359375
1111,-0.998046875,0.0048828125,-0.064453125
1112,-1.001953125,0.0068359375,-0.0703125
1113,-1.001953125,0.0126953125,-0.0703125
1114,-0.9990234375,0.01171875,-0.0693359375
1115,-0.9833984375,0.015625,-0.0673828125
1116,-0.994140625,0.013671875,-0.06640625
1117,-0.990234375,0.015625,-0.068359375
1118,-0.9990234375,0.0185546875,-0.068359375
1119,-1.0029296875,0.0166015625,-0.06640625
1120,-1.001953125,0.01171875,-0.0634765625
1121,-1.00390625,0.009765625,-0.0634765625
1122,-1.005859375,0.01171875,-0.0595703125
1123,-1.0068359375,0.0107421875,-0.0634765625
1124,-1.0107421875,0.009765625,-0.05859375
1125,-1.0078125,0.015625,-0.060546875
1126,-1.009765625,0.0146484375,-0.05859375
1127,-1.0048828125,0.0087890625,-0.0634765625
1128,-1.0068359375,0.013671875,-0.064453125
1129,-1.0068359375,0.009765625,-0.0634765625
1130,-1.00390625,0.0087890625,-0.0615234375
1131,-1.0068359375,0.0087890625,-0.060546875
1132,-1.0068359375,0.0078125,-0.060546875
1133,-1.0029296875,0.0146484375,-0.0615234375
1134,-1.0087890625,0.0087890625,-0.064453125
1135,-1.0068359375,0.013671875,-0.0625
1136,-1.005859375,0.0107421875,-0.060546875
1137,-1.0048828125,0.0166015625,-0.0615234375
1138,-0.9951171875,0.015625,-0.060546875
1139,-1.00390625,0.0166015625,-0.0625
1140,-0.9873046875,0.0146484375,-0.0673828125
1141,-0.99609375,0.017578125,-0.06640625
1142,-0.984375,0.0146484375,-0.0654296875
1143,-0.9951171875,0.0126953125,-0.0693359375
1144,-0.98046875,0.0068359375,-0.06640625
1145,-0.9814453125,0.0009765625,-0.0673828125
1146,-0.9833984375,0.0048828125,-0.0625
1147,-0.9833984375,0.0029296875,-0.0712890625
1148,-0.98828125,0.0078125,-0.0703125
1149,-0.9873046875,0.00390625,-0.0693359375
1150,-0.994140625,0.009765625,-0.0712890625
1151,-1.0009765625,0.017578125,-0.078125
1152,-1.0,0.0205078125,-0.08203125
1153,-0.9951171875,0.0263671875,-0.0751953125
1154,-1.0068359375,0.021484375,-0.0751953125
1155,-1.001953125,0.0263671875,-0.076171875
1156,-1.009765625,0.025390625,-0.078125
1157,-1.013671875,0.0185546875,-0.0732421875
1158,-1.0107421875,0.017578125,-0.0712890625
1159,-1.013671875,0.0146484375,-0.0732421875
1160,-1.0126953125,0.0185546875,-0.0771484375
1161,-1.009765625,0.0107421875,-0.068359375
1162,-1.0078125,0.0126953125,-0.0712890625
1163,-1.00390625,0.0146484375,-0.0693359375
1164,-1.0009765625,0.015625,-0.0712890625
1165,-1.0078125,0.013671875,-0.072265625
1166,-1.001953125,0.0205078125,-0.0732421875
1167,-1.00390625,0.025390625,-0.072265625
1168,-1.0,0.0244140625,-0.0732421875
1169,-0.9990234375,0.0224609375,-0.0703125
1170,-0.9951171875,0.021484375,-0.0771484375
1171,-0.99609375,0.0146484375,-0.0693359375
1172,-0.99609375,0.015625,-0.0703125
1173,-1.001953125,0.0146484375,-0.0693359375
1174,-0.994140625,0.017578125,-0.0712890625
1175,-1.00390625,0.0107421875,-0.0703125
1176,-1.001953125,0.0107421875,-0.06640625
1177,-1.0009765625,0.01171875,-0.072265625
1178,-0.9873046875,0.0048828125,-0.0693359375
1179,-1.0029296875,0.0029296875,-0.072265625
1180,-1.0009765625,0.005859375,-0.07421875
1181,-0.9990234375,0.0087890625,-0.080078125
1182,-1.0048828125,0.017578125,-0.0869140625
1183,-1.005859375,0.021484375,-0.0849609375
1184,-1.0029296875,0.021484375,-0.0830078125
1185,-1.0068359375,0.0263671875,-0.080078125
1186,-1.009765625,0.0263671875,-0.080078125
1187,-1.005859375,0.0244140625,-0.0791015625
1188,-1.0078125,0.021484375,-0.0791015625
1189,-1.0048828125,0.025390625,-0.0703125
1190,-1.0078125,0.0205078125,-0.0712890625
1191,-1.001953125,0.0205078125,-0.0732421875
1192,-1.0048828125,0.0166015625,-0.0791015625
1193,-1.005859375,0.0166015625,-0.078125
1194,-1.0029296875,0.0087890625,-0.078125
1195,-1.005859375,0.013671875,-0.0810546875
1196,-1.009765625,0.017578125,-0.080078125
1197,-1.0087890625,0.017578125,-0.078125
1198,-1.0078125,0.0185546875,-0.07421875
1199,-1.001953125,0.013671875,-0.0751953125
1200,-1.00390625,0.0166015625,-0.072265625
1201,-0.9970703125,0.0224609375,-0.0703125
1202,-1.0,0.0224609375,-0.0625
1203,-1.0009765625,0.017578125,-0.0654296875
1204,-1.00390625,0.013671875,-0.060546875
1205,-1.00390625,0.0146484375,-0.0634765625
1206,-0.9951171875,0.0107421875,-0.064453125
1207,-1.001953125,0.0087890625,-0.0615234375
1208,-1.0029296875,0.01171875,-0.0634765625
1209,-0.9990234375,0.013671875,-0.0654296875
1210,-0.998046875,0.013671875,-0.0654296875
1211,-0.9921875,0.0126953125,-0.0634765625
1212,-0.994140625,0.005859375,-0.064453125
1213,-0.994140625,0.0078125,-0.0654296875
1214,-0.984375,0.0068359375,-0.0693359375
1215,-0.9873046875,0.009765625,-0.0712890625
1216,-0.9951171875,0.0087890625,-0.068359375
1217,-0.9892578125,0.0068359375,-0.0693359375
1218,-1.0,0.0,-0.0693359375
1219,-1.0029296875,0.0068359375,-0.072265625
1220,-1.0087890625,0.0068359375,-0.0732421875
1221,-1.0126953125,0.0126953125,-0.0732421875
1222,-1.013671875,0.01171875,-0.0751953125
1223,-1.01171875,0.009765625,-0.0810546875
1224,-1.013671875,0.0126953125,-0.076171875
1225,-1.013671875,0.01953125,-0.07421875
1226,-1.009765625,0.017578125,-0.08203125
1227,-1.0048828125,0.017578125,-0.080078125
1228,-1.001953125,0.017578125,-0.0810546875
1229,-0.9951171875,0.0166015625,-0.0830078125
1230,-0.99609375,0.009765625,-0.08203125
1231,-0.9853515625,0.0126953125,-0.0810546875
1232,-0.9951171875,0.0107421875,-0.0791015625
1233,-0.986328125,0.00390625,-0.078125
1234,-0.998046875,0.0048828125,-0.0771484375
1235,-1.0009765625,0.005859375,-0.078125
1236,-1.0,0.0029296875,-0.078125
1237,-0.994140625,0.00390625,-0.0771484375
1238,-1.0048828125,0.0048828125,-0.0751953125
1239,-0.9931640625,0.009765625,-0.076171875
1240,-0.998046875,0.01171875,-0.0712890625
1241,-1.00390625,0.005859375,-0.072265625
1242,-1.00390625,0.0029296875,-0.0703125
1243,-1.001953125,0.0048828125,-0.0654296875
1244,-1.001953125,0.00390625,-0.068359375
1245,-1.0,0.0029296875,-0.064453125
1246,-1.0009765625,-0.001953125,-0.0615234375
1247,-0.9931640625,0.0,-0.05859375
1248,-0.9951171875,-0.0009765625,-0.05078125
1249,-1.0009765625,-0.005859375,-0.0517578125
1250,-0.9921875,-0.0029296875,-0.046875
1251,-1.0009765625,0.00390625,-0.04296875
1252,-1.00390625,0.0107421875,-0.0478515625
1253,-1.01171875,0.0166015625,-0.056640625
1254,-1.013671875,0.017578125,-0.064453125
1255,-1.0166015625,0.0283203125,-0.0634765625
1256,-1.0126953125,0.033203125,-0.068359375
1257,-1.013671875,0.03125,-0.078125
1258,-1.01171875,0.0400390625,-0.0751953125
1259,-1.009765625,0.0263671875,-0.07421875
1260,-1.0048828125,0.025390625,-0.07421875
1261,-1.0009765625,0.0244140625,-0.0751953125
1262,-0.984375,0.021484375,-0.0751953125
1263,-0.9833984375,0.0126953125,-0.0673828125
1264,-0.974609375,0.0126953125,-0.0673828125
1265,-0.9765625,0.0107421875,-0.064453125
1266,-0.9765625,0.0107421875,-0.064453125
1267,-0.9765625,0.0068359375,-0.0595703125
1268,-0.9873046875,0.01171875,-0.0654296875
1269,-0.986328125,0.01171875,-0.0615234375
1270,-0.998046875,0.0126953125,-0.068359375
1271,-1.00390625,0.017578125,-0.0703125
1272,-1.005859375,0.0146484375,-0.0712890625
1273,-1.0087890625,0.017578125,-0.080078125
1274,-1.00390625,0.0244140625,-0.0849609375
1275,-1.005859375,0.0234375,-0.0859375
1276,-1.00390625,0.025390625,-0.0791015625
1277,-0.9951171875,0.0205078125,-0.080078125
1278,-1.00390625,0.0185546875,-0.08203125
1279,-1.001953125,0.01953125,-0.078125
1280,-1.0048828125,0.0146484375,-0.078125
1281,-1.005859375,0.017578125,-0.0751953125
1282,-1.009765625,0.017578125,-0.0810546875
1283,-1.0048828125,0.0185546875,-0.08203125
1284,-1.0087890625,0.021484375,-0.0859375
1285,-1.009765625,0.025390625,-0.0869140625
1286,-1.009765625,0.0224609375,-0.08203125
1287,-1.0087890625,0.0224609375,-0.0869140625
1288,-1.0078125,0.0205078125,-0.08984375
1289,-1.0068359375,0.025390625,-0.0791015625
1290,-1.0087890625,0.0185546875,-0.083984375
1291,-1.0078125,0.0068359375,-0.0810546875
1292,-1.0068359375,0.0,-0.08203125
1293,-1.0078125,0.0009765625,-0.08203125
1294,-0.99609375,0.00390625,-0.0849609375
1295,-0.9951171875,0.0048828125,-0.0947265625
1296,-1.0009765625,0.0087890625,-0.091796875
1297,-1.0029296875,0.0126953125,-0.099609375
1298,-1.0078125,0.013671875,-0.09765625
1299,-1.0048828125,0.0263671875,-0.1025390625
1300,-1.0087890625,0.02734375,-0.0947265625
1301,-1.0166015625,0.025390625,-0.0908203125
1302,-1.0166015625,0.017578125,-0.083984375
1303,-1.0205078125,0.0078125,-0.080078125
1304,-1.021484375,-0.001953125,-0.08984375
1305,-1.0234375,-0.005859375,-0.095703125
1306,-1.029296875,-0.01953125,-0.103515625
1307,-1.02734375,-0.0244140625,-0.111328125
1308,-1.0166015625,-0.0244140625,-0.115234375
1309,-1.015625,-0.0244140625,-0.1162109375
1310,-1.0009765625,-0.0234375,-0.1337890625
1311,-0.9794921875,-0.017578125,-0.1474609375
1312,-0.9736328125,-0.0224609375,-0.1552734375
1313,-0.9794921875,-0.017578125,-0.15234375
1314,-0.9765625,-0.009765625,-0.1435546875
1315,-0.986328125,-0.00390625,-0.13671875
1316,-0.998046875,0.0068359375,-0.125
1317,-1.009765625,0.017578125,-0.11328125
1318,-1.0087890625,0.0263671875,-0.111328125
1319,-1.005859375,0.0341796875,-0.107421875
1320,-0.994140625,0.03125,-0.1083984375
1321,-0.9716796875,0.0390625,-0.1162109375
1322,-0.9658203125,0.0458984375,-0.1171875
1323,-0.9599609375,0.048828125,-0.11328125
1324,-0.9560546875,0.0390625,-0.1181640625
1325,-0.95703125,0.03125,-0.123046875
1326,-0.9580078125,0.0263671875,-0.1123046875
1327,-0.9619140625,0.0205078125,-0.1044921875
1328,-0.962890625,0.01171875,-0.0888671875
1329,-0.9677734375,0.0048828125,-0.0888671875
1330,-0.9765625,-0.005859375,-0.08984375
1331,-0.9765625,-0.015625,-0.0908203125
1332,-0.990234375,-0.0234375,-0.0908203125
1333,-0.994140625,-0.0341796875,-0.095703125
1334,-0.998046875,-0.03125,-0.09375
1335,-1.0048828125,-0.0205078125,-0.09375
1336,-1.01171875,-0.0146484375,-0.0927734375
1337,-1.017578125,-0.0087890625,-0.087890625
1338,-1.021484375,0.001953125,-0.0908203125
1339,-1.0263671875,0.0166015625,-0.095703125
1340,-1.02734375,0.033203125,-0.1005859375
1341,-1.0224609375,0.046875,-0.1015625
1342,-1.0234375,0.05078125,-0.1005859375
1343,-1.0244140625,0.052734375,-0.099609375
1344,-1.017578125,0.05078125,-0.09765625
1345,-1.0146484375,0.04296875,-0.091796875
1346,-1.0087890625,0.037109375,-0.083984375
1347,-1.0068359375,0.0302734375,-0.0771484375
1348,-1.0078125,0.029296875,-0.076171875
1349,-1.0029296875,0.025390625,-0.072265625
1350,-1.001953125,0.0283203125,-0.072265625
1351,-1.0029296875,0.0205078125,-0.080078125
1352,-1.0068359375,0.0263671875,-0.0791015625
1353,-1.005859375,0.029296875,-0.080078125
1354,-1.009765625,0.0419921875,-0.0732421875
1355,-1.0146484375,0.0400390625,-0.072265625
1356,-1.0126953125,0.037109375,-0.0732421875
1357,-1.013671875,0.04296875,-0.0732421875
1358,-1.0126953125,0.0478515625,-0.0732421875
1359,-1.009765625,0.0537109375,-0.078125
1360,-1.0087890625,0.0546875,-0.0830078125
1361,-1.0068359375,0.0615234375,-0.087890625
1362,-1.009765625,0.0517578125,-0.1015625
1363,-1.0087890625,0.048828125,-0.1123046875
1364,-1.0107421875,0.04296875,-0.1142578125
1365,-1.0087890625,0.0361328125,-0.1181640625
1366,-1.0107421875,0.0361328125,-0.1162109375
1367,-1.009765625,0.02734375,-0.107421875
1368,-1.01171875,0.0234375,-0.103515625
1369,-1.009765625,0.02734375,-0.09765625
1370,-1.00390625,0.021484375,-0.09375
1371,-1.001953125,0.01953125,-0.0908203125
1372,-0.994140625,0.02734375,-0.0908203125
1373,-0.9853515625,0.0224609375,-0.08984375
1374,-0.9970703125,0.0107421875,-0.0927734375
1375,-1.00390625,0.0048828125,-0.0986328125
1376,-0.99609375,-0.0029296875,-0.1044921875
1377,-1.0048828125,-0.0087890625,-0.111328125
1378,-1.01171875,-0.0068359375,-0.1083984375
1379,-1.0146484375,-0.00390625,-0.1015625
1380,-1.0146484375,0.0029296875,-0.103515625
1381,-1.0146484375,0.00390625,-0.1015625
1382,-1.009765625,0.0107421875,-0.103515625
1383,-0.998046875,0.021484375,-0.1044921875
1384,-0.9912109375,0.0224609375,-0.1025390625
1385,-0.986328125,0.025390625,-0.0947265625
1386,-0.9697265625,0.0234375,-0.099609375
1387,-0.9638671875,0.015625,-0.099609375
1388,-0.966796875,0.0087890625,-0.0908203125
1389,-0.9736328125,0.0048828125,-0.0859375
1390,-0.984375,-0.0029296875,-0.0791015625
1391,-1.0009765625,-0.00390625,-0.078125
1392,-1.01171875,-0.005859375,-0.072265625
1393,-1.0224609375,-0.0029296875,-0.076171875
1394,-1.021484375,0.0009765625,-0.080078125
1395,-1.0244140625,0.013671875,-0.0859375
1396,-1.0185546875,0.015625,-0.0888671875
1397,-1.009765625,0.0263671875,-0.0908203125
1398,-1.0029296875,0.03125,-0.0859375
1399,-0.9990234375,0.0302734375,-0.0859375
1400,-0.982421875,0.025390625,-0.0810546875
1401,-0.9951171875,0.017578125,-0.0751953125
1402,-0.9951171875,0.0146484375,-0.07421875
1403,-1.0029296875,0.0068359375,-0.076171875
1404,-1.0048828125,-0.0078125,-0.078125
1405,-1.005859375,-0.0146484375,-0.08203125
1406,-1.009765625,-0.01171875,-0.083984375
1407,-1.0107421875,-0.01171875,-0.0830078125
1408,-1.0107421875,-0.0078125,-0.0751953125
1409,-1.0029296875,-0.0029296875,-0.0771484375
1410,-1.0009765625,0.00390625,-0.072265625
1411,-0.9951171875,0.0126953125,-0.07421875
1412,-1.001953125,0.0205078125,-0.072265625
1413,-0.9814453125,0.0263671875,-0.07421875
1414,-0.9931640625,0.029296875,-0.076171875
1415,-0.994140625,0.0283203125,-0.080078125
1416,-1.0029296875,0.0361328125,-0.078125
1417,-0.99609375,0.0400390625,-0.0771484375
1418,-1.00390625,0.0419921875,-0.078125
1419,-0.9951171875,0.0361328125,-0.0751953125
1420,-0.9833984375,0.0439453125,-0.0654296875
1421,-0.9775390625,0.03515625,-0.0625
1422,-0.9658203125,0.0322265625,-0.0576171875
1423,-0.95703125,0.0283203125,-0.052734375
1424,-0.9443359375,0.01953125,-0.044921875
1425,-0.9462890625,0.0078125,-0.0478515625
1426,-0.9541015625,-0.0029296875,-0.04296875
1427,-0.97265625,-0.01171875,-0.0595703125
1428,-0.98828125,-0.0166015625,-0.0615234375
1429,-1.0048828125,-0.0234375,-0.0634765625
1430,-1.021484375,-0.0126953125,-0.06640625
1431,-1.025390625,-0.005859375,-0.07421875
1432,-1.0283203125,0.001953125,-0.0712890625
1433,-1.03125,0.0146484375,-0.0625
1434,-1.0205078125,0.01953125,-0.0576171875
1435,-1.009765625,0.037109375,-0.048828125
1436,-0.9990234375,0.037109375,-0.0400390625
1437,-0.9755859375,0.037109375,-0.03125
1438,-0.9638671875,0.041015625,-0.0234375
1439,-0.9560546875,0.0302734375,-0.01953125
1440,-0.9609375,0.0283203125,-0.025390625
1441,-0.962890625,0.0166015625,-0.03125
1442,-0.9677734375,0.013671875,-0.033203125
1443,-0.9775390625,0.00390625,-0.0283203125
1444,-0.9853515625,0.00390625,-0.01953125
1445,-1.0068359375,0.0107421875,-0.0224609375
1446,-1.0107421875,0.0185546875,-0.015625
1447,-1.0126953125,0.0283203125,-0.00390625
1448,-1.0166015625,0.0390625,-0.0078125
1449,-1.0146484375,0.0439453125,-0.0185546875
1450,-1.017578125,0.0439453125,-0.0205078125
1451,-1.009765625,0.0341796875,-0.0302734375
1452,-1.0068359375,0.02734375,-0.0361328125
1453,-1.005859375,0.0166015625,-0.03125
1454,-0.9951171875,0.0078125,-0.0244140625
1455,-1.0009765625,0.001953125,-0.0126953125
1456,-0.9990234375,0.005859375,-0.005859375
1457,-1.009765625,0.017578125,0.0
1458,-1.0087890625,0.0205078125,0.001953125
1459,-1.0224609375,0.0302734375,0.00390625
1460,-1.0263671875,0.037109375,0.009765625
1461,-1.02734375,0.0478515625,0.0185546875
1462,-1.025390625,0.0537109375,0.0224609375
1463,-1.0283203125,0.0537109375,0.01953125
1464,-1.0263671875,0.0537109375,0.0107421875
1465,-1.0166015625,0.05859375,0.001953125
1466,-1.005859375,0.0576171875,-0.009765625
1467,-0.98046875,0.0517578125,-0.0048828125
1468,-0.96875,0.0400390625,-0.0078125
1469,-0.962890625,0.0302734375,-0.013671875
1470,-0.9599609375,0.017578125,-0.01953125
1471,-0.97265625,0.01171875,-0.025390625
1472,-0.9912109375,0.01171875,-0.0458984375
1473,-1.0029296875,0.0078125,-0.0654296875
1474,-1.013671875,0.001953125,-0.0859375
1475,-1.0146484375,-0.005859375,-0.1171875
1476,-1.0126953125,-0.01953125,-0.1240234375
1477,-1.013671875,-0.0390625,-0.1298828125
1478,-1.0107421875,-0.0537109375,-0.123046875
1479,-1.009765625,-0.064453125,-0.119140625
1480,-1.0078125,-0.083984375,-0.1142578125
1481,-1.0068359375,-0.09765625,-0.1015625
1482,-1.005859375,-0.099609375,-0.10546875
1483,-1.0,-0.087890625,-0.1123046875
1484,-0.9873046875,-0.0673828125,-0.12890625
1485,-1.00390625,-0.037109375,-0.138671875
1486,-1.0087890625,-0.015625,-0.154296875
1487,-1.0087890625,0.0068359375,-0.171875
1488,-1.0107421875,0.0263671875,-0.1865234375
1489,-1.0107421875,0.0380859375,-0.1982421875
1490,-1.009765625,0.0458984375,-0.2080078125
1491,-0.9833984375,0.037109375,-0.2109375
1492,-0.9736328125,0.03125,-0.205078125
1493,-0.9619140625,0.0244140625,-0.197265625
1494,-0.9560546875,0.005859375,-0.1982421875
1495,-0.9521484375,-0.0068359375,-0.2060546875
1496,-0.951171875,-0.0244140625,-0.2099609375
1497,-0.9638671875,-0.0341796875,-0.2138671875
1498,-0.9765625,-0.052734375,-0.201171875
1499,-0.98828125,-0.0703125,-0.1875
1500,-1.0029296875,-0.0791015625,-0.1826171875
1501,-1.0029296875,-0.0908203125,-0.1904296875
1502,-0.998046875,-0.099609375,-0.1962890625
1503,-0.9794921875,-0.1025390625,-0.1943359375
1504,-0.9716796875,-0.10546875,-0.1923828125
1505,-0.955078125,-0.1025390625,-0.1865234375
1506,-0.9453125,-0.09375,-0.171875
1507,-0.94140625,-0.0693359375,-0.1630859375
1508,-0.9541015625,-0.0400390625,-0.1630859375
1509,-0.9677734375,-0.005859375,-0.1669921875
1510,-0.9775390625,0.029296875,-0.162109375
1511,-1.0068359375,0.0556640625,-0.1689453125
1512,-1.0107421875,0.068359375,-0.1796875
1513,-1.013671875,0.0634765625,-0.1875
1514,-1.01171875,0.0498046875,-0.1943359375
1515,-1.01171875,0.0234375,-0.212890625
1516,-1.013671875,-0.0068359375,-0.23046875
1517,-1.0,-0.0341796875,-0.2373046875
1518,-0.984375,-0.052734375,-0.240234375
1519,-0.9765625,-0.07421875,-0.240234375
1520,-0.96875,-0.0947265625,-0.2431640625
1521,-0.9677734375,-0.1083984375,-0.2490234375
1522,-0.9658203125,-0.1083984375,-0.2587890625
1523,-0.974609375,-0.119140625,-0.2744140625
1524,-1.001953125,-0.111328125,-0.291015625
1525,-1.009765625,-0.1142578125,-0.302734375
1526,-1.01171875,-0.11328125,-0.3173828125
1527,-1.0146484375,-0.1259765625,-0.3203125
1528,-1.0068359375,-0.1201171875,-0.3173828125
1529,-0.9794921875,-0.12109375,-0.3056640625
1530,-0.9599609375,-0.119140625,-0.3037109375
1531,-0.9443359375,-0.10546875,-0.28515625
1532,-0.9267578125,-0.10546875,-0.2724609375
1533,-0.908203125,-0.09375,-0.263671875
1534,-0.90234375,-0.078125,-0.2587890625
1535,-0.90625,-0.080078125,-0.2568359375
1536,-0.9169921875,-0.0888671875,-0.2587890625
1537,-0.9306640625,-0.099609375,-0.265625
1538,-0.9482421875,-0.1064453125,-0.283203125
1539,-0.96875,-0.123046875,-0.3037109375
1540,-1.005859375,-0.1376953125,-0.322265625
1541,-1.0322265625,-0.14453125,-0.3359375
1542,-1.05078125,-0.150390625,-0.333984375
1543,-1.0576171875,-0.150390625,-0.3212890625
1544,-1.056640625,-0.154296875,-0.302734375
1545,-1.046875,-0.146484375,-0.2998046875
1546,-1.02734375,-0.1337890625,-0.302734375
1547,-1.0107421875,-0.12109375,-0.2900390625
1548,-0.9873046875,-0.11328125,-0.27734375
1549,-0.974609375,-0.09765625,-0.2705078125
1550,-0.95703125,-0.0966796875,-0.2744140625
1551,-0.9501953125,-0.099609375,-0.275390625
1552,-0.9482421875,-0.1044921875,-0.294921875
1553,-0.953125,-0.115234375,-0.3203125
1554,-0.970703125,-0.1337890625,-0.3369140625
1555,-0.97265625,-0.1630859375,-0.34375
1556,-0.982421875,-0.1865234375,-0.3193359375
1557,-0.970703125,-0.208984375,-0.3017578125
1558,-0.9638671875,-0.2119140625,-0.271484375
1559,-0.943359375,-0.2060546875,-0.255859375
1560,-0.94140625,-0.1943359375,-0.2568359375
1561,-0.9248046875,-0.177734375,-0.2685546875
1562,-0.9091796875,-0.1728515625,-0.2802734375
1563,-0.90625,-0.173828125,-0.2978515625
1564,-0.9072265625,-0.169921875,-0.310546875
1565,-0.8984375,-0.169921875,-0.328125
1566,-0.912109375,-0.1728515625,-0.3427734375
1567,-0.9189453125,-0.171875,-0.3486328125
1568,-0.9404296875,-0.177734375,-0.3486328125
1569,-0.94921875,-0.177734375,-0.333984375
1570,-0.927734375,-0.1650390625,-0.3173828125
1571,-0.9287109375,-0.15234375,-0.298828125
1572,-0.921875,-0.146484375,-0.27734375
1573,-0.91796875,-0.1396484375,-0.2626953125
1574,-0.91796875,-0.138671875,-0.265625
1575,-0.91796875,-0.1484375,-0.2724609375
1576,-0.91796875,-0.1552734375,-0.2841796875
1577,-0.9248046875,-0.1669921875,-0.306640625
1578,-0.94921875,-0.1865234375,-0.3203125
1579,-0.9619140625,-0.193359375,-0.3427734375
1580,-0.96484375,-0.20703125,-0.3515625
1581,-0.9638671875,-0.2138671875,-0.3408203125
1582,-0.9638671875,-0.2041015625,-0.3271484375
1583,-0.953125,-0.193359375,-0.3173828125
1584,-0.951171875,-0.1806640625,-0.306640625
1585,-0.9541015625,-0.1630859375,-0.298828125
1586,-0.9521484375,-0.1484375,-0.2978515625
1587,-0.939453125,-0.1416015625,-0.298828125
1588,-0.935546875,-0.1357421875,-0.3046875
1589,-0.9296875,-0.142578125,-0.2998046875
1590,-0.9306640625,-0.1533203125,-0.3095703125
1591,-0.9326171875,-0.158203125,-0.3193359375
1592,-0.9326171875,-0.171875,-0.3310546875
1593,-0.9189453125,-0.177734375,-0.3359375
1594,-0.9169921875,-0.1953125,-0.3388671875
1595,-0.9150390625,-0.2138671875,-0.337890625
1596,-0.9140625,-0.2392578125,-0.3388671875
1597,-0.9189453125,-0.259765625,-0.337890625
1598,-0.9189453125,-0.2646484375,-0.34375
1599,-0.9169921875,-0.2666015625,-0.34375
1600,-0.91796875,-0.2470703125,-0.3447265625
1601,-0.9208984375,-0.240234375,-0.3388671875
1602,-0.9287109375,-0.228515625,-0.337890625
1603,-0.92578125,-0.21484375,-0.3291015625
1604,-0.9306640625,-0.19921875,-0.326171875
1605,-0.9326171875,-0.197265625,-0.3203125
1606,-0.9296875,-0.201171875,-0.3173828125
1607,-0.9326171875,-0.203125,-0.30078125
1608,-0.9306640625,-0.205078125,-0.2998046875
1609,-0.9267578125,-0.21875,-0.3046875
1610,-0.9228515625,-0.224609375,-0.3056640625
1611,-0.92578125,-0.240234375,-0.3046875
1612,-0.9267578125,-0.2470703125,-0.3046875
1613,-0.927734375,-0.248046875,-0.3046875
1614,-0.9296875,-0.2490234375,-0.3017578125
1615,-0.939453125,-0.232421875,-0.3037109375
1616,-0.9541015625,-0.2333984375,-0.3076171875
1617,-0.9599609375,-0.22265625,-0.3154296875
1618,-0.96484375,-0.2255859375,-0.32421875
1619,-0.9619140625,-0.224609375,-0.3388671875
1620,-0.9658203125,-0.2275390625,-0.3544921875
1621,-0.9677734375,-0.23828125,-0.34375
1622,-0.958984375,-0.2490234375,-0.33203125
1623,-0.943359375,-0.28125,-0.3212890625
1624,-0.9462890625,-0.298828125,-0.3017578125
1625,-0.92578125,-0.31640625,-0.2900390625
1626,-0.916015625,-0.328125,-0.279296875
1627,-0.904296875,-0.333984375,-0.26171875
1628,-0.8837890625,-0.3349609375,-0.2578125
1629,-0.8642578125,-0.3427734375,-0.2431640625
1630,-0.8583984375,-0.3544921875,-0.2333984375
1631,-0.8515625,-0.376953125,-0.212890625
1632,-0.8447265625,-0.3974609375,-0.2119140625
1633,-0.8505859375,-0.41015625,-0.2021484375
1634,-0.8505859375,-0.416015625,-0.197265625
1635,-0.8505859375,-0.412109375,-0.19140625
1636,-0.8544921875,-0.40625,-0.181640625
1637,-0.85546875,-0.3896484375,-0.1806640625
1638,-0.8564453125,-0.373046875,-0.1806640625
1639,-0.8525390625,-0.361328125,-0.193359375
1640,-0.85546875,-0.3564453125,-0.201171875
1641,-0.859375,-0.3515625,-0.2109375
1642,-0.8671875,-0.3642578125,-0.2275390625
1643,-0.888671875,-0.375,-0.2373046875
1644,-0.8955078125,-0.388671875,-0.25
1645,-0.9130859375,-0.396484375,-0.2626953125
1646,-0.9189453125,-0.4140625,-0.2646484375
1647,-0.916015625,-0.4267578125,-0.2666015625
1648,-0.916015625,-0.439453125,-0.265625
1649,-0.9140625,-0.4609375,-0.259765625
1650,-0.89453125,-0.462890625,-0.248046875
1651,-0.8759765625,-0.47265625,-0.236328125
1652,-0.8603515625,-0.462890625,-0.228515625
1653,-0.8369140625,-0.44921875,-0.220703125
1654,-0.8203125,-0.4345703125,-0.2236328125
1655,-0.8125,-0.4384765625,-0.2294921875
1656,-0.8134765625,-0.43359375,-0.2421875
1657,-0.8193359375,-0.439453125,-0.2568359375
1658,-0.8330078125,-0.43359375,-0.2724609375
1659,-0.8447265625,-0.431640625,-0.29296875
1660,-0.861328125,-0.4326171875,-0.3046875
1661,-0.8857421875,-0.4345703125,-0.31640625
1662,-0.876953125,-0.4345703125,-0.32421875
1663,-0.884765625,-0.4306640625,-0.322265625
1664,-0.88671875,-0.421875,-0.3056640625
1665,-0.857421875,-0.41796875,-0.2919921875
1666,-0.8525390625,-0.4208984375,-0.2822265625
1667,-0.830078125,-0.4306640625,-0.2734375
1668,-0.81640625,-0.44921875,-0.2646484375
1669,-0.806640625,-0.4677734375,-0.263671875
1670,-0.8046875,-0.482421875,-0.263671875
1671,-0.8017578125,-0.5,-0.2744140625
1672,-0.7958984375,-0.5087890625,-0.2900390625
1673,-0.8056640625,-0.513671875,-0.3037109375
1674,-0.8076171875,-0.51171875,-0.3115234375
1675,-0.796875,-0.509765625,-0.32421875
1676,-0.79296875,-0.501953125,-0.337890625
1677,-0.7890625,-0.5,-0.34375
1678,-0.7841796875,-0.4970703125,-0.345703125
1679,-0.7724609375,-0.498046875,-0.341796875
1680,-0.76171875,-0.4951171875,-0.3330078125
1681,-0.7548828125,-0.4892578125,-0.326171875
1682,-0.744140625,-0.490234375,-0.3203125
1683,-0.7314453125,-0.498046875,-0.314453125
1684,-0.724609375,-0.5087890625,-0.2998046875
1685,-0.71875,-0.53125,-0.2890625
1686,-0.7138671875,-0.5703125,-0.28515625
1687,-0.7119140625,-0.5947265625,-0.2919921875
1688,-0.712890625,-0.626953125,-0.3017578125
1689,-0.7158203125,-0.6474609375,-0.2998046875
1690,-0.708984375,-0.662109375,-0.3037109375
1691,-0.708984375,-0.6748046875,-0.3095703125
1692,-0.7041015625,-0.6904296875,-0.3046875
1693,-0.7021484375,-0.69921875,-0.30859375
1694,-0.6982421875,-0.6904296875,-0.302734375
1695,-0.6962890625,-0.6884765625,-0.302734375
1696,-0.6875,-0.6728515625,-0.2978515625
1697,-0.68359375,-0.646484375,-0.3046875
1698,-0.6748046875,-0.6298828125,-0.3134765625
1699,-0.6689453125,-0.619140625,-0.328125
1700,-0.6552734375,-0.607421875,-0.3310546875
1701,-0.6455078125,-0.619140625,-0.3212890625
1702,-0.6396484375,-0.626953125,-0.310546875
1703,-0.6259765625,-0.640625,-0.3037109375
1704,-0.61328125,-0.658203125,-0.3017578125
1705,-0.619140625,-0.6787109375,-0.3017578125
1706,-0.6162109375,-0.6962890625,-0.3056640625
1707,-0.61328125,-0.705078125,-0.302734375
1708,-0.6142578125,-0.7275390625,-0.3017578125
1709,-0.6171875,-0.73828125,-0.296875
1710,-0.619140625,-0.7646484375,-0.294921875
1711,-0.609375,-0.7705078125,-0.2861328125
1712,-0.6064453125,-0.7890625,-0.2822265625
1713,-0.5966796875,-0.7978515625,-0.2841796875
1714,-0.5810546875,-0.8095703125,-0.271484375
1715,-0.564453125,-0.8125,-0.2626953125
1716,-0.556640625,-0.8193359375,-0.2548828125
1717,-0.5400390625,-0.8173828125,-0.255859375
1718,-0.525390625,-0.81640625,-0.2421875
1719,-0.5009765625,-0.8076171875,-0.248046875
1720,-0.490234375,-0.80859375,-0.2451171875
1721,-0.48828125,-0.8017578125,-0.25
1722,-0.484375,-0.8046875,-0.2578125
1723,-0.482421875,-0.8046875,-0.2626953125
1724,-0.482421875,-0.7998046875,-0.2734375
1725,-0.48828125,-0.8076171875,-0.2880859375
1726,-0.478515625,-0.814453125,-0.2861328125
1727,-0.4736328125,-0.8212890625,-0.2861328125
1728,-0.4658203125,-0.83984375,-0.2744140625
1729,-0.455078125,-0.86328125,-0.26953125
1730,-0.44140625,-0.876953125,-0.26171875
1731,-0.427734375,-0.8857421875,-0.2646484375
1732,-0.4228515625,-0.8994140625,-0.2568359375
1733,-0.42578125,-0.9013671875,-0.255859375
1734,-0.4169921875,-0.896484375,-0.25390625
1735,-0.4140625,-0.8935546875,-0.2587890625
1736,-0.41796875,-0.875,-0.2587890625
1737,-0.4130859375,-0.8603515625,-0.2509765625
1738,-0.4130859375,-0.8388671875,-0.25390625
1739,-0.4140625,-0.822265625,-0.25390625
1740,-0.4130859375,-0.8076171875,-0.2490234375
1741,-0.4189453125,-0.7939453125,-0.24609375
1742,-0.4228515625,-0.796875,-0.2373046875
1743,-0.4384765625,-0.7919921875,-0.2333984375
1744,-0.4443359375,-0.798828125,-0.22265625
1745,-0.4453125,-0.80078125,-0.2158203125
1746,-0.4501953125,-0.8076171875,-0.1962890625
1747,-0.451171875,-0.8212890625,-0.1943359375
1748,-0.447265625,-0.83203125,-0.1904296875
1749,-0.439453125,-0.833984375,-0.1884765625
1750,-0.431640625,-0.8447265625,-0.18359375
1751,-0.4169921875,-0.849609375,-0.1826171875
1752,-0.4033203125,-0.8544921875,-0.185546875
1753,-0.3984375,-0.859375,-0.1826171875
1754,-0.3935546875,-0.865234375,-0.17578125
1755,-0.3876953125,-0.869140625,-0.166015625
1756,-0.3935546875,-0.865234375,-0.1689453125
1757,-0.39453125,-0.86328125,-0.1630859375
1758,-0.3916015625,-0.85546875,-0.150390625
1759,-0.3955078125,-0.853515625,-0.142578125
1760,-0.4052734375,-0.857421875,-0.1357421875
1761,-0.41015625,-0.86328125,-0.12109375
1762,-0.4150390625,-0.8779296875,-0.1123046875
1763,-0.4150390625,-0.8876953125,-0.1005859375
1764,-0.416015625,-0.896484375,-0.09375
1765,-0.4208984375,-0.9013671875,-0.0947265625
1766,-0.4296875,-0.90625,-0.0888671875
1767,-0.419921875,-0.9130859375,-0.095703125
1768,-0.4130859375,-0.912109375,-0.099609375
1769,-0.4140625,-0.904296875,-0.11328125
1770,-0.408203125,-0.90234375,-0.111328125
1771,-0.408203125,-0.89453125,-0.1162109375
1772,-0.3935546875,-0.8818359375,-0.1142578125
1773,-0.3857421875,-0.8837890625,-0.1123046875
1774,-0.3837890625,-0.87890625,-0.109375
1775,-0.3759765625,-0.880859375,-0.103515625
1776,-0.3681640625,-0.8818359375,-0.095703125
1777,-0.369140625,-0.8779296875,-0.08984375
1778,-0.369140625,-0.87890625,-0.08203125
1779,-0.369140625,-0.8759765625,-0.080078125
1780,-0.36328125,-0.8818359375,-0.080078125
1781,-0.369140625,-0.888671875,-0.0673828125
1782,-0.36328125,-0.896484375,-0.0712890625
1783,-0.3623046875,-0.9052734375,-0.0693359375
1784,-0.349609375,-0.91015625,-0.072265625
1785,-0.34375,-0.9248046875,-0.072265625
1786,-0.345703125,-0.9296875,-0.0771484375
1787,-0.3408203125,-0.927734375,-0.0751953125
1788,-0.3388671875,-0.923828125,-0.080078125
1789,-0.3359375,-0.923828125,-0.0849609375
1790,-0.3310546875,-0.9228515625,-0.0869140625
1791,-0.31640625,-0.9189453125,-0.087890625
1792,-0.3115234375,-0.9150390625,-0.0703125
1793,-0.30078125,-0.9150390625,-0.056640625
1794,-0.283203125,-0.92578125,-0.03515625
1795,-0.26953125,-0.93359375,-0.0224609375
1796,-0.2587890625,-0.9365234375,-0.015625
1797,-0.255859375,-0.9384765625,-0.0166015625
1798,-0.2470703125,-0.9375,-0.0205078125
1799,-0.248046875,-0.9287109375,-0.029296875
1800,-0.2490234375,-0.923828125,-0.03515625
1801,-0.2470703125,-0.912109375,-0.0439453125
1802,-0.248046875,-0.908203125,-0.0458984375
1803,-0.2490234375,-0.9033203125,-0.048828125
1804,-0.251953125,-0.8955078125,-0.0390625
1805,-0.259765625,-0.896484375,-0.0263671875
1806,-0.259765625,-0.896484375,-0.0205078125
1807,-0.2607421875,-0.8984375,-0.0126953125
1808,-0.2685546875,-0.9033203125,-0.00390625
1809,-0.2646484375,-0.90625,-0.0048828125
1810,-0.263671875,-0.91796875,-0.0009765625
1811,-0.2587890625,-0.9248046875,-0.0078125
1812,-0.251953125,-0.9296875,-0.009765625
1813,-0.232421875,-0.9404296875,-0.0029296875
1814,-0.232421875,-0.9521484375,-0.0048828125
1815,-0.2265625,-0.953125,0.0
1816,-0.21875,-0.9541015625,-0.005859375
1817,-0.2197265625,-0.9599609375,0.0
1818,-0.2158203125,-0.9677734375,0.005859375
1819,-0.216796875,-0.9638671875,0.009765625
1820,-0.2138671875,-0.962890625,0.01171875
1821,-0.2119140625,-0.9599609375,0.009765625
1822,-0.2138671875,-0.9599609375,0.013671875
1823,-0.21484375,-0.951171875,0.005859375
1824,-0.2080078125,-0.947265625,0.00390625
1825,-0.2109375,-0.939453125,-0.001953125
1826,-0.2041015625,-0.9375,-0.0078125
1827,-0.2001953125,-0.943359375,-0.0009765625
1828,-0.1904296875,-0.9453125,0.001953125
1829,-0.1845703125,-0.94140625,0.0
1830,-0.17578125,-0.9462890625,-0.001953125
1831,-0.1728515625,-0.9501953125,-0.0078125
1832,-0.162109375,-0.953125,-0.0048828125
1833,-0.1572265625,-0.955078125,-0.0068359375
1834,-0.1513671875,-0.953125,-0.0087890625
1835,-0.142578125,-0.9609375,-0.01171875
1836,-0.140625,-0.9609375,-0.0029296875
1837,-0.1376953125,-0.9736328125,-0.0048828125
1838,-0.1337890625,-0.9765625,-0.0126953125
1839,-0.1357421875,-0.9755859375,-0.0009765625
1840,-0.138671875,-0.9638671875,-0.009765625
1841,-0.1416015625,-0.95703125,-0.01171875
1842,-0.1396484375,-0.9580078125,-0.015625
1843,-0.138671875,-0.955078125,-0.0185546875
1844,-0.1416015625,-0.95703125,-0.01953125
1845,-0.1396484375,-0.9541015625,-0.0087890625
1846,-0.140625,-0.953125,-0.0087890625
1847,-0.140625,-0.9521484375,-0.0087890625
1848,-0.1416015625,-0.9521484375,-0.0087890625
1849,-0.138671875,-0.9541015625,-0.0068359375
1850,-0.1318359375,-0.9501953125,-0.0078125
1851,-0.126953125,-0.9560546875,-0.0068359375
1852,-0.125,-0.95703125,-0.0068359375
1853,-0.123046875,-0.953125,-0.005859375
1854,-0.111328125,-0.9560546875,-0.0126953125
1855,-0.1123046875,-0.9560546875,-0.013671875
1856,-0.10546875,-0.9658203125,-0.015625
1857,-0.1025390625,-0.96875,-0.0146484375
1858,-0.10546875,-0.9580078125,-0.0224609375
1859,-0.10546875,-0.962890625,-0.0263671875
1860,-0.1064453125,-0.9697265625,-0.0205078125
1861,-0.111328125,-0.9765625,-0.01953125
1862,-0.1103515625,-0.9716796875,-0.0166015625
1863,-0.11328125,-0.9755859375,-0.017578125
1864,-0.1171875,-0.9755859375,-0.01953125
1865,-0.1220703125,-0.982421875,-0.0146484375
1866,-0.1171875,-0.9833984375,-0.0205078125
1867,-0.107421875,-0.9814453125,-0.021484375
1868,-0.103515625,-0.962890625,-0.0234375
1869,-0.1044921875,-0.9716796875,-0.0205078125
1870,-0.1005859375,-0.9638671875,-0.0224609375
1871,-0.095703125,-0.974609375,-0.017578125
1872,-0.0986328125,-0.9619140625,-0.02734375
1873,-0.09375,-0.9736328125,-0.02734375
1874,-0.09375,-0.96484375,-0.025390625
1875,-0.0888671875,-0.9638671875,-0.0322265625
1876,-0.09375,-0.96875,-0.0361328125
1877,-0.0947265625,-0.9638671875,-0.0361328125
1878,-0.09375,-0.9638671875,-0.0341796875
1879,-0.0908203125,-0.9736328125,-0.0302734375
1880,-0.0810546875,-0.9794921875,-0.029296875
1881,-0.078125,-0.9833984375,-0.0205078125
1882,-0.0732421875,-0.982421875,-0.017578125
1883,-0.068359375,-0.9853515625,-0.015625
1884,-0.0625,-0.9833984375,-0.0068359375
1885,-0.0546875,-0.982421875,-0.0068359375
1886,-0.056640625,-0.984375,-0.0126953125
1887,-0.0439453125,-0.9814453125,-0.009765625
1888,-0.0458984375,-0.9853515625,-0.015625
1889,-0.0419921875,-0.9794921875,-0.017578125
1890,-0.0458984375,-0.974609375,-0.0126953125
1891,-0.0439453125,-0.9775390625,-0.0126953125
1892,-0.0439453125,-0.9609375,-0.0107421875
1893,-0.0517578125,-0.9619140625,-0.015625
1894,-0.048828125,-0.9638671875,-0.00390625
1895,-0.052734375,-0.9736328125,0.0009765625
1896,-0.052734375,-0.9697265625,0.005859375
1897,-0.052734375,-0.9736328125,0.0048828125
1898,-0.052734375,-0.9677734375,0.00390625
1899,-0.0439453125,-0.9658203125,0.0107421875
1900,-0.0458984375,-0.970703125,0.013671875
1901,-0.041015625,-0.96875,0.0185546875
1902,-0.041015625,-0.962890625,0.0166015625
1903,-0.0341796875,-0.955078125,0.01953125
1904,-0.0224609375,-0.958984375,0.0224609375
1905,-0.01953125,-0.958984375,0.0244140625
1906,-0.0087890625,-0.953125,0.02734375
1907,0.001953125,-0.9521484375,0.021484375
1908,0.0107421875,-0.9521484375,0.025390625
1909,0.0166015625,-0.951171875,0.0224609375
1910,0.0263671875,-0.943359375,0.033203125
1911,0.0283203125,-0.9462890625,0.0263671875
1912,0.0322265625,-0.939453125,0.029296875
1913,0.0234375,-0.9462890625,0.0322265625
1914,0.0146484375,-0.9482421875,0.0302734375
1915,0.00390625,-0.9462890625,0.0263671875
1916,-0.01171875,-0.9501953125,0.029296875
1917,-0.0234375,-0.955078125,0.0263671875
1918,-0.0400390625,-0.9560546875,0.02734375
1919,-0.0654296875,-0.9541015625,0.0263671875
1920,-0.0751953125,-0.9619140625,0.029296875
1921,-0.09375,-0.955078125,0.02734375
1922,-0.1025390625,-0.9609375,0.0244140625
1923,-0.11328125,-0.9765625,0.03515625
1924,-0.1142578125,-0.9833984375,0.0322265625
1925,-0.1171875,-0.986328125,0.0224609375
1926,-0.1181640625,-0.9931640625,0.0234375
1927,-0.1123046875,-0.9970703125,0.0166015625
1928,-0.099609375,-0.9970703125,0.013671875
1929,-0.0888671875,-1.0,0.0078125
1930,-0.072265625,-1.0078125,0.01171875
1931,-0.0576171875,-1.0087890625,0.0087890625
1932,-0.046875,-1.0087890625,0.0087890625
1933,-0.03515625,-1.0029296875,0.0078125
1934,-0.0283203125,-1.0029296875,0.005859375
1935,-0.0185546875,-0.9931640625,0.001953125
1936,-0.0087890625,-0.9853515625,0.0009765625
1937,0.0009765625,-0.96875,-0.0009765625
1938,0.0107421875,-0.95703125,-0.0029296875
1939,0.009765625,-0.95703125,-0.0029296875
1940,0.015625,-0.9501953125,-0.005859375
1941,0.021484375,-0.951171875,0.0009765625
1942,0.0224609375,-0.9482421875,0.0
1943,0.025390625,-0.951171875,-0.0009765625
1944,0.0283203125,-0.9560546875,-0.0048828125
1945,0.0283203125,-0.9560546875,-0.0048828125
1946,0.03125,-0.955078125,-0.001953125
1947,0.0302734375,-0.9521484375,-0.001953125
1948,0.03515625,-0.955078125,0.0029296875
1949,0.0302734375,-0.9521484375,0.001953125
1950,0.0302734375,-0.9521484375,0.0068359375
1951,0.0224609375,-0.9541015625,0.005859375
1952,0.015625,-0.9560546875,0.009765625
1953,0.0068359375,-0.9580078125,-0.0009765625
1954,-0.00390625,-0.9521484375,0.0009765625
1955,-0.0126953125,-0.96484375,0.0009765625
1956,-0.01953125,-0.9609375,-0.001953125
1957,-0.0283203125,-0.9609375,-0.001953125
1958,-0.0283203125,-0.9609375,0.0
1959,-0.0302734375,-0.9697265625,0.0048828125
1960,-0.03515625,-0.96875,0.0087890625
1961,-0.03515625,-0.9755859375,0.01171875
1962,-0.0283203125,-0.978515625,0.015625
1963,-0.0283203125,-0.98828125,0.021484375
1964,-0.0146484375,-0.990234375,0.0244140625
1965,-0.0166015625,-0.99609375,0.025390625
1966,-0.0078125,-0.9931640625,0.0244140625
1967,-0.00390625,-0.9892578125,0.02734375
1968,-0.001953125,-0.986328125,0.0224609375
1969,0.0009765625,-0.9833984375,0.0224609375
1970,0.0048828125,-0.9853515625,0.025390625
1971,0.017578125,-0.978515625,0.02734375
1972,0.0146484375,-0.974609375,0.0322265625
1973,0.017578125,-0.9658203125,0.0380859375
1974,0.0205078125,-0.9609375,0.0341796875
1975,0.0205078125,-0.958984375,0.0400390625
1976,0.021484375,-0.9560546875,0.0322265625
1977,0.017578125,-0.9521484375,0.0361328125
1978,0.021484375,-0.9521484375,0.0390625
1979,0.029296875,-0.951171875,0.03125
1980,0.0302734375,-0.9482421875,0.0322265625
1981,0.03125,-0.9482421875,0.0283203125
1982,0.0361328125,-0.9443359375,0.0283203125
1983,0.0361328125,-0.939453125,0.0302734375
1984,0.0419921875,-0.94140625,0.0380859375
1985,0.0390625,-0.94140625,0.0439453125
1986,0.04296875,-0.9453125,0.05078125
1987,0.0361328125,-0.943359375,0.0654296875
1988,0.037109375,-0.951171875,0.064453125
1989,0.0341796875,-0.951171875,0.0625
1990,0.025390625,-0.958984375,0.068359375
1991,0.021484375,-0.9560546875,0.06640625
1992,0.01171875,-0.9599609375,0.0595703125
1993,0.01171875,-0.9716796875,0.0615234375
1994,0.00390625,-0.9609375,0.0654296875
1995,0.00390625,-0.951171875,0.06640625
1996,-0.0029296875,-0.9560546875,0.072265625
1997,-0.0009765625,-0.9501953125,0.0673828125
1998,0.001953125,-0.94921875,0.0732421875
1999,0.0009765625,-0.9521484375,0.064453125
2000,0.0068359375,-0.943359375,0.06640625
2001,0.0078125,-0.9453125,0.060546875
2002,0.00390625,-0.9453125,0.0625
2003,0.005859375,-0.955078125,0.05859375
2004,0.005859375,-0.9560546875,0.05859375
2005,0.00390625,-0.9619140625,0.0615234375
2006,0.0068359375,-0.970703125,0.0625
2007,0.001953125,-0.9873046875,0.0595703125
2008,0.005859375,-0.9892578125,0.0595703125
2009,0.0068359375,-0.9912109375,0.0517578125
2010,0.005859375,-0.9912109375,0.0537109375
2011,0.0078125,-0.982421875,0.0517578125
2012,0.0107421875,-0.9755859375,0.0419921875
2013,0.0107421875,-0.96875,0.0419921875
2014,0.0048828125,-0.9775390625,0.0361328125
2015,0.00390625,-0.95703125,0.03515625
2016,0.0009765625,-0.9580078125,0.033203125
2017,-0.0029296875,-0.9580078125,0.029296875
2018,-0.0068359375,-0.9541015625,0.0361328125
2019,-0.005859375,-0.9541015625,0.037109375
2020,-0.01171875,-0.9560546875,0.0341796875
2021,-0.013671875,-0.9521484375,0.037109375
2022,-0.0107421875,-0.9501953125,0.03515625
2023,-0.01171875,-0.9541015625,0.033203125
2024,-0.0146484375,-0.9501953125,0.029296875
2025,-0.013671875,-0.951171875,0.0263671875
2026,-0.01171875,-0.9521484375,0.02734375
2027,-0.0146484375,-0.9521484375,0.02734375
2028,-0.0126953125,-0.9541015625,0.0244140625
2029,-0.009765625,-0.95703125,0.0234375
2030,-0.0263671875,-0.9599609375,0.01953125
2031,-0.01953125,-0.9736328125,0.01953125
2032,-0.021484375,-0.984375,0.0185546875
2033,-0.0126953125,-0.9833984375,0.015625
2034,-0.017578125,-0.9814453125,0.0166015625
2035,-0.015625,-0.9853515625,0.0146484375
2036,-0.01171875,-0.9814453125,0.0126953125
2037,-0.01171875,-0.9833984375,0.0185546875
2038,-0.0029296875,-0.98046875,0.0205078125
2039,-0.0029296875,-0.96875,0.0234375
2040,0.0068359375,-0.96875,0.0224609375
2041,0.005859375,-0.96484375,0.025390625
2042,0.009765625,-0.953125,0.021484375
2043,0.0107421875,-0.953125,0.0146484375
2044,0.0009765625,-0.943359375,0.01953125
2045,0.001953125,-0.94140625,0.0185546875
2046,0.0,-0.935546875,0.0107421875
2047,-0.0029296875,-0.9365234375,0.015625
2048,-0.009765625,-0.927734375,0.017578125
2049,-0.017578125,-0.9345703125,0.01171875
2050,-0.0224609375,-0.9287109375,0.017578125
2051,-0.021484375,-0.9375,0.0166015625
2052,-0.021484375,-0.943359375,0.0185546875
2053,-0.0205078125,-0.953125,0.025390625
2054,-0.0146484375,-0.9560546875,0.021484375
2055,-0.0205078125,-0.974609375,0.0244140625
2056,-0.0166015625,-0.984375,0.0234375
2057,-0.013671875,-0.9892578125,0.0263671875
2058,-0.0087890625,-0.998046875,0.01953125
2059,-0.005859375,-0.994140625,0.0205078125
2060,-0.0068359375,-0.9921875,0.0244140625
2061,-0.015625,-0.9970703125,0.01953125
2062,-0.015625,-0.986328125,0.021484375
2063,-0.021484375,-0.98046875,0.0205078125
2064,-0.017578125,-0.9775390625,0.01953125
2065,-0.0166015625,-0.962890625,0.0146484375
2066,-0.0078125,-0.966796875,0.0224609375
2067,-0.0078125,-0.9765625,0.025390625
2068,-0.0068359375,-0.9716796875,0.0283203125
2069,-0.00390625,-0.974609375,0.0322265625
2070,0.0,-0.9814453125,0.0361328125
2071,0.001953125,-0.990234375,0.0322265625
2072,0.005859375,-0.984375,0.0341796875
2073,0.0068359375,-0.9892578125,0.0283203125
2074,0.005859375,-0.990234375,0.029296875
2075,0.009765625,-0.9912109375,0.02734375
2076,0.00390625,-0.9921875,0.0283203125
2077,0.0068359375,-0.9970703125,0.0263671875
2078,-0.00390625,-0.998046875,0.033203125
2079,0.001953125,-1.0,0.03125
2080,0.0029296875,-0.9990234375,0.0263671875
2081,-0.0029296875,-0.9921875,0.0244140625
2082,0.001953125,-0.986328125,0.0244140625
2083,0.0029296875,-0.9814453125,0.025390625
2084,0.0009765625,-0.978515625,0.0283203125
2085,-0.005859375,-0.962890625,0.0283203125
2086,-0.005859375,-0.962890625,0.02734375
2087,-0.0078125,-0.9521484375,0.03125
2088,-0.0107421875,-0.9501953125,0.0283203125
2089,-0.01171875,-0.94921875,0.02734375
2090,-0.01171875,-0.9453125,0.03125
2091,-0.015625,-0.943359375,0.025390625
2092,-0.01953125,-0.94140625,0.029296875
2093,-0.0185546875,-0.9453125,0.029296875
2094,-0.009765625,-0.951171875,0.0341796875
2095,-0.0126953125,-0.94921875,0.044921875
2096,-0.005859375,-0.9541015625,0.048828125
2097,-0.0078125,-0.9638671875,0.052734375
2098,-0.001953125,-0.9599609375,0.0546875
2099,0.001953125,-0.970703125,0.05078125
2100,0.009765625,-0.9716796875,0.041015625
2101,0.013671875,-0.9599609375,0.0390625
2102,0.01953125,-0.9619140625,0.04296875
2103,0.0185546875,-0.96484375,0.0400390625
2104,0.0244140625,-0.9521484375,0.0380859375
2105,0.0224609375,-0.95703125,0.0390625
2106,0.021484375,-0.947265625,0.0380859375
2107,0.01953125,-0.9375,0.0400390625
2108,0.015625,-0.931640625,0.0400390625
2109,0.0126953125,-0.921875,0.04296875
2110,0.0068359375,-0.9208984375,0.0498046875
2111,0.0068359375,-0.91796875,0.046875
2112,0.013671875,-0.916015625,0.048828125
2113,0.0048828125,-0.919921875,0.046875
2114,0.005859375,-0.9189453125,0.044921875
2115,0.0068359375,-0.9267578125,0.0458984375
2116,0.00390625,-0.9287109375,0.0419921875
2117,-0.0009765625,-0.9345703125,0.0390625
2118,-0.0029296875,-0.943359375,0.0380859375
2119,-0.0009765625,-0.9541015625,0.0361328125
2120,-0.0029296875,-0.9619140625,0.029296875
2121,-0.005859375,-0.9697265625,0.033203125
2122,-0.0048828125,-0.9873046875,0.033203125
2123,-0.01171875,-0.9873046875,0.03125
2124,-0.015625,-0.9931640625,0.037109375
2125,-0.013671875,-0.9951171875,0.0400390625
2126,-0.0166015625,-0.99609375,0.0380859375
2127,-0.0185546875,-0.994140625,0.0380859375
2128,-0.015625,-0.994140625,0.0400390625
2129,-0.0146484375,-0.9814453125,0.0361328125
2130,-0.013671875,-0.9638671875,0.03515625
2131,0.0,-0.953125,0.025390625
2132,0.0068359375,-0.9453125,0.01953125
2133,0.013671875,-0.9404296875,0.0166015625
2134,0.0205078125,-0.94140625,0.0146484375
2135,0.0263671875,-0.9375,0.01171875
2136,0.037109375,-0.93359375,0.0068359375
2137,0.037109375,-0.9287109375,0.0048828125
2138,0.041015625,-0.9296875,0.005859375
2139,0.0380859375,-0.9365234375,0.0078125
2140,0.03515625,-0.943359375,0.01171875
2141,0.03515625,-0.94921875,0.015625
2142,0.0322265625,-0.95703125,0.015625
2143,0.033203125,-0.9619140625,0.017578125
2144,0.0185546875,-0.9765625,0.009765625
2145,0.0126953125,-0.9833984375,0.0107421875
2146,0.0068359375,-0.990234375,0.009765625
2147,0.0009765625,-0.9931640625,0.001953125
2148,-0.0087890625,-0.9921875,0.0078125
2149,-0.009765625,-0.99609375,0.00390625
2150,-0.0205078125,-0.994140625,0.0029296875
2151,-0.021484375,-0.9931640625,0.001953125
2152,-0.021484375,-0.9892578125,0.001953125
2153,-0.0234375,-0.9921875,0.0048828125
2154,-0.0302734375,-0.98828125,0.0048828125
2155,-0.0224609375,-0.9814453125,0.0078125
2156,-0.021484375,-0.982421875,0.005859375
2157,-0.0185546875,-0.9833984375,0.0029296875
2158,-0.0185546875,-0.9775390625,-0.0009765625
2159,-0.017578125,-0.97265625,-0.0048828125
2160,-0.0107421875,-0.9736328125,-0.0166015625
2161,-0.0166015625,-0.958984375,-0.0185546875
2162,-0.0166015625,-0.9619140625,-0.0224609375
2163,-0.0146484375,-0.9609375,-0.033203125
2164,-0.0126953125,-0.9599609375,-0.03125
2165,-0.015625,-0.9541015625,-0.037109375
2166,-0.017578125,-0.9638671875,-0.041015625
2167,-0.017578125,-0.9541015625,-0.0439453125
2168,-0.0126953125,-0.95703125,-0.0439453125
2169,-0.017578125,-0.9609375,-0.04296875
2170,-0.0107421875,-0.955078125,-0.0419921875
2171,-0.015625,-0.9609375,-0.044921875
2172,-0.0078125,-0.970703125,-0.052734375
2173,-0.0166015625,-0.962890625,-0.0517578125
2174,-0.0146484375,-0.9697265625,-0.056640625
2175,-0.0166015625,-0.9775390625,-0.0595703125
2176,-0.01171875,-0.9755859375,-0.05859375
2177,-0.0107421875,-0.9833984375,-0.0615234375
2178,-0.009765625,-0.984375,-0.0634765625
2179,-0.0126953125,-0.9873046875,-0.0615234375
2180,-0.0146484375,-0.986328125,-0.0625
2181,-0.017578125,-0.9921875,-0.060546875
2182,-0.01953125,-0.990234375,-0.0556640625
2183,-0.017578125,-0.986328125,-0.0556640625
2184,-0.01953125,-0.984375,-0.0576171875
2185,-0.017578125,-0.984375,-0.0546875
2186,-0.013671875,-0.982421875,-0.052734375
2187,-0.0087890625,-0.9833984375,-0.056640625
2188,-0.0087890625,-0.9736328125,-0.0546875
2189,-0.0029296875,-0.974609375,-0.05859375
2190,-0.00390625,-0.9755859375,-0.0556640625
2191,0.0,-0.970703125,-0.0576171875
2192,-0.0048828125,-0.9736328125,-0.0556640625
2193,-0.001953125,-0.962890625,-0.056640625
2194,-0.00390625,-0.978515625,-0.052734375
2195,-0.0068359375,-0.9775390625,-0.0625
2196,0.0009765625,-0.9775390625,-0.0498046875
2197,-0.001953125,-0.978515625,-0.0576171875
2198,0.0009765625,-0.9794921875,-0.05859375
2199,-0.001953125,-0.982421875,-0.0517578125
2200,-0.0029296875,-0.9775390625,-0.056640625
2201,0.005859375,-0.978515625,-0.0546875
2202,-0.0009765625,-0.9658203125,-0.0546875
2203,0.0009765625,-0.970703125,-0.056640625
2204,0.0048828125,-0.9775390625,-0.0576171875
2205,0.0078125,-0.9716796875,-0.052734375
2206,0.009765625,-0.9755859375,-0.0537109375
2207,0.0107421875,-0.9736328125,-0.0498046875
2208,0.0078125,-0.9814453125,-0.044921875
2209,0.0146484375,-0.974609375,-0.0390625
2210,0.0126953125,-0.978515625,-0.041015625
2211,0.0107421875,-0.984375,-0.041015625
2212,0.0126953125,-0.9833984375,-0.0390625
2213,0.0126953125,-0.9794921875,-0.04296875
2214,0.013671875,-0.9755859375,-0.044921875
2215,0.013671875,-0.984375,-0.0390625
2216,0.0087890625,-0.9775390625,-0.0478515625
2217,0.005859375,-0.978515625,-0.046875
2218,0.0068359375,-0.9775390625,-0.0478515625
2219,0.001953125,-0.978515625,-0.0478515625
2220,0.001953125,-0.9716796875,-0.0458984375
2221,0.00390625,-0.9638671875,-0.0458984375
2222,0.001953125,-0.9755859375,-0.0390625
2223,-0.001953125,-0.970703125,-0.044921875
2224,0.0,-0.970703125,-0.0380859375
2225,0.00390625,-0.970703125,-0.046875
2226,-0.001953125,-0.9599609375,-0.046875
2227,0.0009765625,-0.9716796875,-0.056640625
2228,-0.0009765625,-0.970703125,-0.0634765625
2229,0.0,-0.958984375,-0.0654296875
2230,-0.001953125,-0.9609375,-0.068359375
2231,-0.005859375,-0.962890625,-0.0693359375
2232,-0.0009765625,-0.95703125,-0.0673828125
2233,-0.0087890625,-0.958984375,-0.06640625
2234,-0.0068359375,-0.9580078125,-0.064453125
2235,-0.001953125,-0.9609375,-0.05859375
2236,-0.0029296875,-0.96875,-0.0595703125
2237,-0.00390625,-0.9697265625,-0.05859375
2238,-0.0048828125,-0.9794921875,-0.0625
2239,0.0009765625,-0.9755859375,-0.0654296875
2240,0.0,-0.978515625,-0.060546875
2241,0.00390625,-0.9814453125,-0.0615234375
2242,0.0087890625,-0.974609375,-0.0615234375
2243,0.0078125,-0.9833984375,-0.064453125
2244,0.00390625,-0.9814453125,-0.0654296875
2245,0.01171875,-0.982421875,-0.060546875
2246,0.0126953125,-0.974609375,-0.0634765625
2247,0.0107421875,-0.986328125,-0.0634765625
2248,0.00390625,-0.9814453125,-0.0595703125
2249,0.005859375,-0.9853515625,-0.0625
2250,0.001953125,-0.9814453125,-0.0595703125
2251,0.0048828125,-0.9794921875,-0.0625
2252,0.0048828125,-0.9765625,-0.0654296875
2253,-0.0048828125,-0.9765625,-0.0673828125
2254,-0.001953125,-0.9755859375,-0.0673828125
2255,-0.0048828125,-0.9716796875,-0.0654296875
2256,-0.0078125,-0.9755859375,-0.0693359375
2257,-0.0078125,-0.962890625,-0.0654296875
2258,-0.0078125,-0.966796875,-0.068359375
2259,-0.009765625,-0.9619140625,-0.064453125
2260,-0.0087890625,-0.9677734375,-0.0693359375
2261,-0.0068359375,-0.9619140625,-0.068359375
2262,-0.0107421875,-0.9619140625,-0.072265625
2263,-0.009765625,-0.9609375,-0.0712890625
2264,-0.0107421875,-0.9599609375,-0.0693359375
2265,-0.0107421875,-0.9736328125,-0.0712890625
2266,-0.0146484375,-0.962890625,-0.0703125
2267,-0.009765625,-0.9638671875,-0.0703125
2268,-0.013671875,-0.9736328125,-0.068359375
2269,-0.009765625,-0.96875,-0.0693359375
2270,-0.0107421875,-0.9794921875,-0.072265625
2271,-0.0078125,-0.9755859375,-0.06640625
2272,-0.0068359375,-0.982421875,-0.0673828125
2273,-0.0146484375,-0.970703125,-0.06640625
2274,-0.0068359375,-0.962890625,-0.06640625
2275,-0.0048828125,-0.970703125,-0.064453125
2276,-0.0048828125,-0.9775390625,-0.060546875
2277,0.0009765625,-0.9765625,-0.060546875
2278,-0.0009765625,-0.974609375,-0.05859375
2279,0.0,-0.9775390625,-0.0673828125
2280,0.00390625,-0.9697265625,-0.060546875
2281,0.001953125,-0.9658203125,-0.0634765625
2282,0.0068359375,-0.96875,-0.0634765625
2283,0.0068359375,-0.9755859375,-0.0634765625
2284,-0.0009765625,-0.9677734375,-0.064453125
2285,0.00390625,-0.97265625,-0.064453125
2286,0.0048828125,-0.9638671875,-0.06640625
2287,0.0029296875,-0.96484375,-0.0654296875
2288,-0.001953125,-0.966796875,-0.0625
2289,-0.001953125,-0.9619140625,-0.060546875
2290,-0.00390625,-0.9609375,-0.0615234375
2291,-0.0029296875,-0.962890625,-0.060546875
2292,0.00390625,-0.9697265625,-0.0615234375
2293,-0.00390625,-0.9697265625,-0.0673828125
2294,-0.001953125,-0.970703125,-0.0673828125
2295,-0.0009765625,-0.9755859375,-0.06640625
2296,-0.0029296875,-0.974609375,-0.0625
2297,-0.0048828125,-0.9794921875,-0.0615234375
2298,-0.0048828125,-0.974609375,-0.05859375
2299,0.0,-0.9736328125,-0.0615234375
2300,-0.0029296875,-0.978515625,-0.05859375
2301,-0.0009765625,-0.9765625,-0.0595703125
2302,-0.0068359375,-0.9755859375,-0.0576171875
2303,-0.0029296875,-0.978515625,-0.060546875
2304,-0.0009765625,-0.9765625,-0.0615234375
2305,-0.0048828125,-0.9765625,-0.060546875
2306,-0.005859375,-0.9697265625,-0.05859375
2307,-0.00390625,-0.9619140625,-0.0625
2308,-0.0009765625,-0.9638671875,-0.060546875
2309,-0.001953125,-0.9765625,-0.060546875
2310,-0.0078125,-0.970703125,-0.064453125
2311,-0.0029296875,-0.962890625,-0.064453125
2312,-0.00390625,-0.978515625,-0.0615234375
2313,0.001953125,-0.974609375,-0.06640625
2314,-0.005859375,-0.9775390625,-0.0634765625
2315,-0.001953125,-0.9697265625,-0.068359375
2316,-0.001953125,-0.96484375,-0.0693359375
2317,0.0,-0.9658203125,-0.0634765625
2318,0.001953125,-0.9736328125,-0.0673828125
2319,-0.0029296875,-0.97265625,-0.0634765625
2320,-0.0009765625,-0.9794921875,-0.0673828125
2321,0.001953125,-0.9765625,-0.0634765625
2322,0.0029296875,-0.970703125,-0.068359375
2323,-0.0029296875,-0.97265625,-0.0654296875
2324,-0.00390625,-0.9775390625,-0.0673828125
2325,0.0107421875,-0.982421875,-0.0634765625
2326,0.005859375,-0.98046875,-0.06640625
2327,0.00390625,-0.9697265625,-0.056640625
2328,0.005859375,-0.970703125,-0.0595703125
2329,0.005859375,-0.970703125,-0.0576171875
2330,0.0087890625,-0.96875,-0.056640625
2331,0.0087890625,-0.974609375,-0.056640625
2332,0.009765625,-0.9638671875,-0.0546875
2333,0.0068359375,-0.9638671875,-0.05859375
2334,0.009765625,-0.9677734375,-0.0634765625
2335,0.0068359375,-0.9580078125,-0.0673828125
2336,-0.0009765625,-0.9560546875,-0.0634765625
2337,0.00390625,-0.95703125,-0.0654296875
2338,-0.001953125,-0.9580078125,-0.06640625
2339,0.00390625,-0.9599609375,-0.060546875
2340,-0.0029296875,-0.966796875,-0.05859375
2341,-0.0029296875,-0.9619140625,-0.05859375
2342,-0.0048828125,-0.9775390625,-0.064453125
2343,-0.0009765625,-0.9765625,-0.060546875
2344,-0.0009765625,-0.9609375,-0.0625
2345,0.0009765625,-0.974609375,-0.05859375
2346,0.00390625,-0.9736328125,-0.0615234375
2347,0.0,-0.9775390625,-0.0634765625
2348,-0.001953125,-0.9775390625,-0.0625
2349,-0.00390625,-0.978515625,-0.0703125
2350,0.0009765625,-0.9716796875,-0.072265625
2351,-0.001953125,-0.96875,-0.0703125
2352,-0.00390625,-0.9619140625,-0.0703125
2353,-0.001953125,-0.9697265625,-0.0703125
2354,-0.0068359375,-0.9638671875,-0.0712890625
2355,-0.009765625,-0.9716796875,-0.0615234375
2356,-0.0078125,-0.966796875,-0.0654296875
2357,-0.0048828125,-0.962890625,-0.0625
2358,-0.00390625,-0.962890625,-0.0595703125
2359,0.0,-0.96875,-0.060546875
2360,-0.001953125,-0.9697265625,-0.05859375
2361,-0.009765625,-0.96875,-0.0615234375
2362,-0.0048828125,-0.9697265625,-0.0615234375
2363,-0.0029296875,-0.962890625,-0.0615234375
2364,-0.0048828125,-0.96875,-0.0625
2365,-0.009765625,-0.962890625,-0.064453125
2366,-0.0078125,-0.9677734375,-0.0673828125
2367,-0.005859375,-0.962890625,-0.0693359375
2368,-0.0107421875,-0.9599609375,-0.0673828125
2369,-0.0087890625,-0.966796875,-0.0673828125
2370,-0.0068359375,-0.962890625,-0.0615234375
2371,-0.0107421875,-0.9736328125,-0.060546875
2372,-0.0126953125,-0.9697265625,-0.0615234375
2373,-0.0078125,-0.9755859375,-0.060546875
2374,-0.0078125,-0.9755859375,-0.0576171875
2375,-0.009765625,-0.9833984375,-0.056640625
2376,-0.0048828125,-0.9794921875,-0.060546875
2377,-0.0087890625,-0.9833984375,-0.0576171875
2378,-0.0048828125,-0.9755859375,-0.05859375
2379,0.00390625,-0.970703125,-0.0625
2380,-0.0048828125,-0.974609375,-0.060546875
2381,-0.0029296875,-0.96484375,-0.0625
2382,-0.0029296875,-0.9755859375,-0.056640625
2383,-0.00390625,-0.9755859375,-0.0625
2384,0.0048828125,-0.96484375,-0.05859375
2385,0.001953125,-0.962890625,-0.060546875
2386,-0.001953125,-0.974609375,-0.0595703125
2387,-0.0029296875,-0.9697265625,-0.0576171875
2388,0.001953125,-0.970703125,-0.0595703125
2389,0.00390625,-0.96484375,-0.0615234375
2390,0.0029296875,-0.9736328125,-0.0595703125
2391,0.0048828125,-0.962890625,-0.060546875
2392,-0.0029296875,-0.962890625,-0.060546875
2393,0.0009765625,-0.9736328125,-0.0595703125
2394,0.0009765625,-0.970703125,-0.0625
2395,0.00390625,-0.9609375,-0.0625
2396,0.00390625,-0.970703125,-0.064453125
2397,0.0,-0.9599609375,-0.05859375
2398,0.0048828125,-0.962890625,-0.064453125
2399,0.00390625,-0.978515625,-0.0625
