,accelerometerAccelerationX(G),accelerometerAccelerationY(G),accelerometerAccelerationZ(G)
0,0.091796875,0.056640625,0.9990234375
1,0.09375,0.0546875,1.00390625
2,0.0966796875,0.052734375,0.998046875
3,0.0947265625,0.0537109375,0.9990234375
4,0.09375,0.0517578125,0.9990234375
5,0.09375,0.0537109375,0.9921875
6,0.095703125,0.0615234375,0.9970703125
7,0.0927734375,0.056640625,0.9921875
8,0.091796875,0.05859375,0.98828125
9,0.0947265625,0.0615234375,0.9853515625
10,0.0927734375,0.0634765625,0.9833984375
11,0.095703125,0.0615234375,0.9814453125
12,0.0927734375,0.06640625,0.9794921875
13,0.09375,0.0595703125,0.9794921875
14,0.0908203125,0.0615234375,0.9814453125
15,0.091796875,0.0576171875,0.98046875
16,0.095703125,0.0625,0.9853515625
17,0.099609375,0.0634765625,0.984375
18,0.1025390625,0.0576171875,0.994140625
19,0.1005859375,0.05859375,0.9951171875
20,0.1015625,0.0615234375,1.0009765625
21,0.1025390625,0.0615234375,1.0009765625
22,0.099609375,0.056640625,1.0009765625
23,0.1025390625,0.0537109375,1.001953125
24,0.1025390625,0.0576171875,1.0048828125
25,0.103515625,0.0546875,1.0029296875
26,0.0986328125,0.05078125,1.001953125
27,0.10546875,0.056640625,1.0078125
28,0.1015625,0.0595703125,1.001953125
29,0.1025390625,0.056640625,1.0126953125
30,0.1025390625,0.0498046875,0.9990234375
31,0.1103515625,0.052734375,1.0009765625
32,0.109375,0.0546875,1.0029296875
33,0.1044921875,0.0517578125,1.0048828125
34,0.1044921875,0.0498046875,1.005859375
35,0.1044921875,0.0556640625,1.0078125
36,0.10546875,0.0498046875,1.00390625
37,0.1025390625,0.0498046875,1.00390625
38,0.103515625,0.0546875,1.0078125
39,0.1064453125,0.0556640625,1.00390625
40,0.107421875,0.0537109375,1.0048828125
41,0.1064453125,0.0537109375,1.0029296875
42,0.1015625,0.052734375,1.0029296875
43,0.103515625,0.0517578125,1.005859375
44,0.099609375,0.0498046875,1.0048828125
45,0.1064453125,0.05078125,1.001953125
46,0.1005859375,0.0517578125,1.0009765625
47,0.099609375,0.0478515625,1.00390625
48,0.1005859375,0.05078125,1.0068359375
49,0.1005859375,0.048828125,1.0029296875
50,0.09765625,0.0498046875,1.0029296875
51,0.099609375,0.046875,1.001953125
52,0.09765625,0.048828125,0.994140625
53,0.0966796875,0.05078125,0.99609375
54,0.1015625,0.05078125,1.0
55,0.09375,0.05078125,0.9951171875
56,0.09375,0.0498046875,0.9853515625
57,0.0947265625,0.05078125,0.9931640625
58,0.0927734375,0.048828125,0.998046875
59,0.09375,0.0478515625,0.9990234375
60,0.0908203125,0.0458984375,1.001953125
61,0.09375,0.05078125,1.001953125
62,0.091796875,0.0498046875,1.001953125
63,0.0966796875,0.044921875,1.0029296875
64,0.091796875,0.044921875,1.0068359375
65,0.0927734375,0.0400390625,1.0029296875
66,0.09375,0.0458984375,0.998046875
67,0.095703125,0.0400390625,0.9970703125
68,0.091796875,0.0498046875,1.001953125
69,0.0947265625,0.04296875,0.994140625
70,0.09765625,0.0478515625,0.9990234375
71,0.099609375,0.044921875,0.998046875
72,0.0947265625,0.0439453125,0.99609375
73,0.09765625,0.04296875,0.9970703125
74,0.0966796875,0.041015625,0.9951171875
75,0.103515625,0.0498046875,0.9970703125
76,0.095703125,0.046875,1.001953125
77,0.0986328125,0.0419921875,1.0
78,0.0966796875,0.048828125,1.0
79,0.0966796875,0.0458984375,1.0009765625
80,0.099609375,0.046875,0.998046875
81,0.1025390625,0.0537109375,0.990234375
82,0.1025390625,0.052734375,0.99609375
83,0.0986328125,0.0537109375,0.98828125
84,0.09765625,0.0517578125,0.9912109375
85,0.0966796875,0.05078125,0.9951171875
86,0.1015625,0.044921875,0.9990234375
87,0.0986328125,0.04296875,0.9990234375
88,0.0986328125,0.0361328125,1.0
89,0.09375,0.029296875,1.0029296875
90,0.0986328125,0.0361328125,1.001953125
91,0.0966796875,0.02734375,1.0048828125
92,0.0927734375,0.0302734375,1.0087890625
93,0.0908203125,0.0302734375,1.009765625
94,0.0830078125,0.037109375,1.01171875
95,0.080078125,0.033203125,1.009765625
96,0.091796875,0.0302734375,1.009765625
97,0.09375,0.0234375,1.0048828125
98,0.095703125,0.0263671875,0.998046875
99,0.1005859375,0.03125,0.994140625
100,0.0986328125,0.0361328125,0.984375
101,0.099609375,0.0361328125,0.9853515625
102,0.099609375,0.0380859375,0.9873046875
103,0.1005859375,0.0439453125,0.9833984375
104,0.1025390625,0.044921875,0.9833984375
105,0.1083984375,0.0439453125,0.984375
106,0.107421875,0.0419921875,0.9873046875
107,0.1015625,0.0537109375,0.9912109375
108,0.1015625,0.0537109375,0.9970703125
109,0.09765625,0.05078125,0.9951171875
110,0.0966796875,0.0478515625,0.9951171875
111,0.09375,0.0478515625,1.0
112,0.099609375,0.0439453125,1.0029296875
113,0.09765625,0.0498046875,1.0
114,0.09765625,0.0517578125,1.001953125
115,0.0966796875,0.0498046875,1.0029296875
116,0.09765625,0.048828125,1.0009765625
117,0.099609375,0.044921875,1.0048828125
118,0.0986328125,0.046875,1.0009765625
119,0.1025390625,0.048828125,0.99609375
120,0.1025390625,0.0458984375,0.99609375
121,0.0986328125,0.0439453125,1.0
122,0.1015625,0.046875,0.994140625
123,0.1005859375,0.046875,1.0
124,0.1044921875,0.0498046875,1.0009765625
125,0.099609375,0.041015625,0.9970703125
126,0.1083984375,0.046875,0.99609375
127,0.0986328125,0.04296875,0.998046875
128,0.1015625,0.0439453125,1.0
129,0.1015625,0.0400390625,0.9970703125
130,0.1015625,0.0400390625,1.001953125
131,0.1015625,0.037109375,1.0
132,0.1025390625,0.0390625,0.9990234375
133,0.1025390625,0.0390625,1.001953125
134,0.1044921875,0.0380859375,1.00390625
135,0.1015625,0.037109375,0.998046875
136,0.103515625,0.041015625,1.0009765625
137,0.1025390625,0.0322265625,0.99609375
138,0.1083984375,0.0390625,0.9990234375
139,0.103515625,0.0380859375,0.994140625
140,0.1025390625,0.0400390625,0.9970703125
141,0.1015625,0.0419921875,0.98828125
142,0.1064453125,0.0400390625,0.98828125
143,0.10546875,0.0419921875,0.9853515625
144,0.1005859375,0.0439453125,0.9833984375
145,0.0986328125,0.04296875,0.986328125
146,0.0966796875,0.0400390625,0.9873046875
147,0.095703125,0.0439453125,0.9912109375
148,0.0966796875,0.0400390625,0.998046875
149,0.0966796875,0.0341796875,1.0009765625
150,0.0966796875,0.0380859375,1.0009765625
151,0.0966796875,0.03125,1.00390625
152,0.0966796875,0.0244140625,1.0029296875
153,0.095703125,0.0244140625,1.009765625
154,0.09765625,0.0244140625,1.00390625
155,0.1015625,0.029296875,1.0029296875
156,0.1025390625,0.0244140625,0.998046875
157,0.1025390625,0.0263671875,0.9921875
158,0.1015625,0.029296875,0.99609375
159,0.099609375,0.03125,0.9892578125
160,0.099609375,0.03515625,0.990234375
161,0.1025390625,0.0400390625,0.9873046875
162,0.1015625,0.0380859375,0.9892578125
163,0.09765625,0.041015625,0.984375
164,0.1044921875,0.048828125,0.98828125
165,0.09765625,0.041015625,0.990234375
166,0.1025390625,0.0439453125,0.9990234375
167,0.0947265625,0.037109375,0.994140625
168,0.1064453125,0.0400390625,0.99609375
169,0.0595703125,0.0126953125,0.9794921875
170,0.126953125,0.0390625,1.0029296875
171,0.109375,0.0517578125,1.0
172,0.1142578125,0.046875,0.9951171875
173,0.1083984375,0.0458984375,0.9912109375
174,0.1025390625,0.0478515625,0.994140625
175,0.10546875,0.0498046875,1.0029296875
176,0.1015625,0.0517578125,1.0009765625
177,0.1015625,0.048828125,1.0009765625
178,0.1025390625,0.048828125,0.9990234375
179,0.09765625,0.0517578125,1.0
180,0.095703125,0.0537109375,0.998046875
181,0.0986328125,0.0517578125,1.0
182,0.103515625,0.0537109375,1.00390625
183,0.1025390625,0.0517578125,1.001953125
184,0.1005859375,0.052734375,0.9990234375
185,0.099609375,0.0517578125,0.998046875
186,0.0986328125,0.056640625,0.9921875
187,0.0986328125,0.0546875,1.0
188,0.1015625,0.05078125,1.0
189,0.0986328125,0.052734375,1.001953125
190,0.103515625,0.0537109375,0.9921875
191,0.099609375,0.0546875,1.001953125
192,0.10546875,0.0517578125,1.0
193,0.09765625,0.0556640625,0.998046875
194,0.0966796875,0.0517578125,1.005859375
195,0.099609375,0.05078125,1.0
196,0.0986328125,0.048828125,0.9990234375
197,0.0986328125,0.0546875,1.0
198,0.099609375,0.05078125,0.9970703125
199,0.1015625,0.0546875,1.0009765625
200,0.0966796875,0.0498046875,0.994140625
201,0.0966796875,0.0546875,1.001953125
202,0.1005859375,0.05078125,1.0048828125
203,0.1025390625,0.0537109375,1.0029296875
204,0.107421875,0.0498046875,0.998046875
205,0.1025390625,0.0537109375,0.998046875
206,0.1015625,0.0537109375,0.998046875
207,0.0986328125,0.0498046875,0.9951171875
208,0.1005859375,0.0537109375,0.9951171875
209,0.095703125,0.0498046875,0.9951171875
210,0.09765625,0.0537109375,0.9970703125
211,0.0947265625,0.056640625,0.9912109375
212,0.095703125,0.0546875,1.0009765625
213,0.099609375,0.05078125,1.0
214,0.0966796875,0.052734375,1.0
215,0.099609375,0.0546875,0.99609375
216,0.0966796875,0.0546875,1.0
217,0.09375,0.0546875,1.0
218,0.0966796875,0.0517578125,1.0
219,0.0966796875,0.0517578125,0.998046875
220,0.09375,0.0537109375,0.9990234375
221,0.0966796875,0.0546875,0.998046875
222,0.09765625,0.0546875,0.9970703125
223,0.1015625,0.0546875,0.99609375
224,0.1005859375,0.0556640625,0.998046875
225,0.095703125,0.0556640625,0.9990234375
226,0.1025390625,0.060546875,0.9931640625
227,0.1015625,0.056640625,0.994140625
228,0.09765625,0.0634765625,0.9912109375
229,0.1025390625,0.0615234375,0.998046875
230,0.0986328125,0.060546875,0.99609375
231,0.1015625,0.0595703125,1.0009765625
232,0.0986328125,0.0615234375,1.005859375
233,0.0986328125,0.060546875,1.0
234,0.09765625,0.0546875,1.00390625
235,0.1005859375,0.056640625,1.00390625
236,0.0986328125,0.060546875,1.0
237,0.099609375,0.056640625,1.0009765625
238,0.103515625,0.056640625,1.0
239,0.09765625,0.0634765625,0.9990234375
240,0.1005859375,0.0625,0.9990234375
241,0.1044921875,0.0634765625,0.9931640625
242,0.099609375,0.0673828125,0.994140625
243,0.099609375,0.0673828125,0.9931640625
244,0.099609375,0.0673828125,0.9931640625
245,0.1005859375,0.0693359375,0.9951171875
246,0.099609375,0.068359375,0.990234375
247,0.09765625,0.076171875,0.99609375
248,0.0947265625,0.072265625,0.9951171875
249,0.099609375,0.072265625,0.9970703125
250,0.09765625,0.07421875,1.0
251,0.0947265625,0.0732421875,1.0
252,0.0966796875,0.0673828125,1.0009765625
253,0.095703125,0.0673828125,1.0
254,0.0947265625,0.068359375,1.0048828125
255,0.0947265625,0.06640625,1.00390625
256,0.0947265625,0.06640625,1.0048828125
257,0.095703125,0.0693359375,1.015625
258,0.095703125,0.056640625,1.005859375
259,0.095703125,0.0537109375,1.0126953125
260,0.0986328125,0.0576171875,1.0048828125
261,0.1015625,0.056640625,1.0
262,0.0966796875,0.0595703125,0.9951171875
263,0.103515625,0.05859375,0.9892578125
264,0.1025390625,0.0634765625,0.986328125
265,0.0986328125,0.064453125,0.9873046875
266,0.09765625,0.0673828125,0.9833984375
267,0.1015625,0.068359375,0.9931640625
268,0.1015625,0.0703125,0.990234375
269,0.09765625,0.07421875,0.9892578125
270,0.1005859375,0.080078125,0.9951171875
271,0.1015625,0.0791015625,0.998046875
272,0.1015625,0.0771484375,0.9931640625
273,0.1015625,0.0849609375,0.990234375
274,0.1015625,0.083984375,0.99609375
275,0.107421875,0.078125,0.9990234375
276,0.1015625,0.083984375,0.9931640625
277,0.09765625,0.0830078125,1.0
278,0.099609375,0.0771484375,0.9951171875
279,0.0966796875,0.0771484375,1.0
280,0.09375,0.078125,0.9970703125
281,0.09375,0.0771484375,1.001953125
282,0.0986328125,0.080078125,1.0009765625
283,0.09375,0.0791015625,1.001953125
284,0.09375,0.0771484375,1.0029296875
285,0.0927734375,0.083984375,1.0
286,0.091796875,0.0810546875,1.0009765625
287,0.095703125,0.0791015625,0.9990234375
288,0.095703125,0.083984375,0.9921875
289,0.1025390625,0.0810546875,0.994140625
290,0.095703125,0.0830078125,0.99609375
291,0.1005859375,0.0810546875,0.994140625
292,0.1015625,0.0869140625,0.9970703125
293,0.0986328125,0.0830078125,0.9970703125
294,0.0986328125,0.0859375,0.99609375
295,0.1005859375,0.0791015625,0.9921875
296,0.095703125,0.0830078125,0.9970703125
297,0.0947265625,0.078125,0.9921875
298,0.0966796875,0.08203125,0.998046875
299,0.0966796875,0.0830078125,1.0009765625
300,0.09375,0.078125,1.0009765625
301,0.099609375,0.080078125,1.0107421875
302,0.09765625,0.0810546875,1.0
303,0.095703125,0.08203125,0.9970703125
304,0.1005859375,0.0849609375,0.9951171875
305,0.09375,0.0859375,0.9990234375
306,0.0966796875,0.08203125,0.9951171875
307,0.1025390625,0.0908203125,0.9951171875
308,0.1005859375,0.091796875,1.0
309,0.1005859375,0.08984375,0.994140625
310,0.099609375,0.08984375,0.9912109375
311,0.0947265625,0.08984375,0.9921875
312,0.0947265625,0.08984375,0.98828125
313,0.095703125,0.0908203125,0.9990234375
314,0.099609375,0.087890625,0.998046875
315,0.0947265625,0.0859375,0.9990234375
316,0.0947265625,0.0859375,1.0
317,0.09375,0.0810546875,1.0029296875
318,0.091796875,0.0771484375,1.0029296875
319,0.091796875,0.0810546875,1.005859375
320,0.091796875,0.07421875,1.005859375
321,0.0947265625,0.0810546875,1.0068359375
322,0.0908203125,0.083984375,1.0048828125
323,0.091796875,0.083984375,1.00390625
324,0.09375,0.0869140625,0.9990234375
325,0.0947265625,0.08984375,0.9990234375
326,0.0966796875,0.09375,0.9990234375
327,0.09765625,0.091796875,0.9892578125
328,0.0966796875,0.0947265625,0.984375
329,0.095703125,0.09765625,0.98828125
330,0.09375,0.095703125,0.98828125
331,0.0966796875,0.0947265625,0.986328125
332,0.0947265625,0.091796875,0.9912109375
333,0.091796875,0.0966796875,0.9951171875
334,0.09375,0.0869140625,1.0
335,0.0927734375,0.091796875,0.9990234375
336,0.0927734375,0.08984375,0.998046875
337,0.0927734375,0.0888671875,1.0009765625
338,0.0947265625,0.09375,1.0
339,0.095703125,0.09375,0.99609375
340,0.091796875,0.0888671875,1.0
341,0.0966796875,0.09765625,0.9990234375
342,0.09765625,0.0986328125,1.0009765625
343,0.0966796875,0.09375,0.998046875
344,0.1005859375,0.095703125,0.9912109375
345,0.099609375,0.1005859375,0.994140625
346,0.091796875,0.0986328125,0.9931640625
347,0.0986328125,0.0947265625,0.9951171875
348,0.09765625,0.0947265625,0.9970703125
349,0.095703125,0.1005859375,0.9931640625
350,0.091796875,0.0966796875,0.9990234375
351,0.09375,0.0986328125,0.998046875
352,0.09765625,0.095703125,0.9970703125
353,0.091796875,0.09375,0.9931640625
354,0.08984375,0.0966796875,0.99609375
355,0.0927734375,0.0986328125,0.9970703125
356,0.0927734375,0.095703125,0.9990234375
357,0.0947265625,0.1015625,1.0
358,0.08984375,0.095703125,0.9990234375
359,0.091796875,0.0966796875,0.9990234375
360,0.0966796875,0.0986328125,0.998046875
361,0.09765625,0.0986328125,0.9970703125
362,0.0947265625,0.095703125,0.9931640625
363,0.09765625,0.09765625,0.99609375
364,0.0966796875,0.1025390625,0.9970703125
365,0.0947265625,0.09765625,1.0009765625
366,0.0927734375,0.1015625,0.994140625
367,0.0966796875,0.099609375,0.9951171875
368,0.0966796875,0.1083984375,0.9990234375
369,0.0986328125,0.099609375,0.9990234375
370,0.0947265625,0.1015625,0.9951171875
371,0.0986328125,0.1005859375,1.001953125
372,0.09765625,0.1015625,0.99609375
373,0.0966796875,0.099609375,0.9970703125
374,0.0947265625,0.1005859375,0.9990234375
375,0.09375,0.1005859375,0.9931640625
376,0.0927734375,0.1005859375,1.0
377,0.09765625,0.1025390625,0.998046875
378,0.0966796875,0.1025390625,0.994140625
379,0.09375,0.1025390625,1.0009765625
380,0.0927734375,0.1015625,0.998046875
381,0.095703125,0.099609375,0.998046875
382,0.0947265625,0.1064453125,0.9990234375
383,0.09765625,0.1005859375,0.9970703125
384,0.0986328125,0.103515625,0.994140625
385,0.0947265625,0.107421875,0.9970703125
386,0.09765625,0.099609375,0.9970703125
387,0.099609375,0.103515625,0.9931640625
388,0.1005859375,0.103515625,0.9970703125
389,0.099609375,0.10546875,1.0
390,0.099609375,0.0927734375,0.9892578125
391,0.09765625,0.09765625,0.9931640625
392,0.0986328125,0.099609375,0.998046875
393,0.095703125,0.1005859375,0.998046875
394,0.095703125,0.1044921875,0.994140625
395,0.09765625,0.0986328125,1.0
396,0.095703125,0.103515625,0.99609375
397,0.0947265625,0.103515625,0.9990234375
398,0.0927734375,0.099609375,0.994140625
399,0.1005859375,0.1005859375,1.0009765625
400,0.095703125,0.103515625,1.0
401,0.095703125,0.103515625,1.0
402,0.0947265625,0.1044921875,0.9990234375
403,0.09765625,0.1064453125,1.005859375
404,0.0966796875,0.103515625,0.9990234375
405,0.0966796875,0.1015625,0.99609375
406,0.09765625,0.103515625,0.9951171875
407,0.0986328125,0.1044921875,0.9951171875
408,0.0966796875,0.107421875,0.990234375
409,0.099609375,0.1083984375,0.9892578125
410,0.095703125,0.103515625,0.9921875
411,0.0986328125,0.109375,0.994140625
412,0.095703125,0.109375,0.99609375
413,0.09765625,0.1044921875,0.9990234375
414,0.0986328125,0.109375,0.9970703125
415,0.095703125,0.1025390625,1.0009765625
416,0.095703125,0.1044921875,0.9990234375
417,0.09375,0.1015625,1.001953125
418,0.091796875,0.1005859375,0.9990234375
419,0.0927734375,0.1064453125,0.9990234375
420,0.0908203125,0.1025390625,0.9970703125
421,0.0908203125,0.103515625,0.998046875
422,0.09375,0.103515625,0.9990234375
423,0.091796875,0.1064453125,1.0
424,0.09375,0.103515625,1.0
425,0.099609375,0.1044921875,1.0029296875
426,0.095703125,0.107421875,1.005859375
427,0.09765625,0.107421875,0.9990234375
428,0.099609375,0.111328125,0.998046875
429,0.0966796875,0.1103515625,0.9970703125
430,0.1005859375,0.10546875,0.99609375
431,0.09765625,0.111328125,0.9951171875
432,0.099609375,0.111328125,0.9970703125
433,0.1015625,0.103515625,0.9990234375
434,0.099609375,0.1025390625,0.9990234375
435,0.1005859375,0.1044921875,1.0009765625
436,0.095703125,0.103515625,0.9970703125
437,0.0947265625,0.10546875,0.998046875
438,0.09375,0.103515625,0.9990234375
439,0.0927734375,0.1064453125,1.0
440,0.0908203125,0.11328125,0.9990234375
441,0.09375,0.1064453125,1.0
442,0.1015625,0.115234375,1.0
443,0.0947265625,0.115234375,0.99609375
444,0.0908203125,0.1142578125,0.9990234375
445,0.0986328125,0.1123046875,0.99609375
446,0.09375,0.1171875,0.99609375
447,0.09375,0.1123046875,0.9970703125
448,0.0966796875,0.111328125,0.9970703125
449,0.0947265625,0.1064453125,0.9951171875
450,0.091796875,0.1025390625,0.9970703125
451,0.0927734375,0.10546875,0.9951171875
452,0.095703125,0.103515625,0.9951171875
453,0.0927734375,0.1044921875,1.0
454,0.091796875,0.1005859375,1.00390625
455,0.09375,0.0986328125,1.0048828125
456,0.0908203125,0.0966796875,1.005859375
457,0.0908203125,0.099609375,1.009765625
458,0.0859375,0.09765625,1.0048828125
459,0.091796875,0.0849609375,1.0087890625
460,0.095703125,0.0791015625,1.0029296875
461,0.0986328125,0.078125,0.9970703125
462,0.099609375,0.078125,0.9931640625
463,0.09765625,0.078125,0.9931640625
464,0.1015625,0.083984375,0.9921875
465,0.0966796875,0.083984375,0.9892578125
466,0.0986328125,0.091796875,0.9912109375
467,0.1005859375,0.09765625,0.9853515625
468,0.1025390625,0.099609375,0.9814453125
469,0.103515625,0.1044921875,0.984375
470,0.10546875,0.10546875,0.982421875
471,0.1083984375,0.099609375,0.98828125
472,0.1064453125,0.10546875,0.9853515625
473,0.1103515625,0.107421875,0.978515625
474,0.109375,0.103515625,0.9853515625
475,0.1103515625,0.1005859375,0.9892578125
476,0.1064453125,0.09765625,0.98828125
477,0.10546875,0.095703125,0.99609375
478,0.1025390625,0.0908203125,0.998046875
479,0.0986328125,0.0888671875,1.00390625
480,0.103515625,0.087890625,1.0029296875
481,0.099609375,0.0888671875,1.001953125
482,0.09765625,0.0869140625,1.00390625
483,0.1025390625,0.0869140625,1.0
484,0.10546875,0.091796875,1.0
485,0.1015625,0.09765625,1.001953125
486,0.10546875,0.0986328125,1.0
487,0.109375,0.1005859375,0.9970703125
488,0.1171875,0.1025390625,0.9921875
489,0.1162109375,0.0986328125,0.98828125
490,0.119140625,0.095703125,0.98828125
491,0.1162109375,0.095703125,0.9873046875
492,0.1181640625,0.0927734375,0.9921875
493,0.11328125,0.091796875,0.9951171875
494,0.1171875,0.087890625,0.9990234375
495,0.11328125,0.087890625,0.998046875
496,0.109375,0.0849609375,0.9951171875
497,0.1005859375,0.0810546875,0.9990234375
498,0.09375,0.0791015625,0.998046875
499,0.0888671875,0.078125,1.0048828125
500,0.08984375,0.0791015625,1.0009765625
501,0.078125,0.08203125,1.00390625
502,0.07421875,0.08203125,1.0009765625
503,0.0693359375,0.0849609375,1.0029296875
504,0.0703125,0.0849609375,1.0
505,0.0693359375,0.0908203125,0.9951171875
506,0.068359375,0.087890625,0.9921875
507,0.06640625,0.09375,0.994140625
508,0.0673828125,0.08984375,0.98828125
509,0.068359375,0.09375,0.9931640625
510,0.0673828125,0.087890625,0.9970703125
511,0.0703125,0.087890625,0.99609375
512,0.068359375,0.083984375,1.0
513,0.0703125,0.0849609375,1.0
514,0.07421875,0.0830078125,1.005859375
515,0.076171875,0.078125,1.0029296875
516,0.078125,0.0693359375,1.0009765625
517,0.0791015625,0.0712890625,1.00390625
518,0.083984375,0.064453125,1.0029296875
519,0.0830078125,0.06640625,0.99609375
520,0.0869140625,0.0703125,1.001953125
521,0.0869140625,0.0693359375,0.9990234375
522,0.0927734375,0.0673828125,1.0
523,0.0947265625,0.0712890625,0.9970703125
524,0.09375,0.072265625,0.9912109375
525,0.09375,0.0712890625,0.994140625
526,0.09375,0.076171875,0.986328125
527,0.0966796875,0.0712890625,0.9892578125
528,0.099609375,0.0791015625,0.9912109375
529,0.1025390625,0.080078125,0.98828125
530,0.1103515625,0.080078125,0.994140625
531,0.115234375,0.078125,0.9892578125
532,0.1201171875,0.078125,0.9951171875
533,0.12109375,0.0751953125,0.99609375
534,0.1240234375,0.072265625,0.9970703125
535,0.126953125,0.0771484375,0.9951171875
536,0.12890625,0.0751953125,0.994140625
537,0.130859375,0.076171875,0.9931640625
538,0.1318359375,0.076171875,0.9814453125
539,0.13671875,0.0732421875,0.9892578125
540,0.1337890625,0.0703125,0.9755859375
541,0.1455078125,0.0732421875,0.9892578125
542,0.142578125,0.0732421875,0.9853515625
543,0.1396484375,0.0712890625,0.9912109375
544,0.1357421875,0.0703125,0.986328125
545,0.12890625,0.0654296875,0.984375
546,0.12890625,0.0654296875,0.9853515625
547,0.126953125,0.0654296875,0.9912109375
548,0.1259765625,0.060546875,0.9892578125
549,0.126953125,0.056640625,0.9892578125
550,0.1279296875,0.0546875,1.001953125
551,0.1298828125,0.0546875,1.0068359375
552,0.1181640625,0.0556640625,1.005859375
553,0.1142578125,0.0576171875,1.00390625
554,0.12109375,0.0595703125,1.0009765625
555,0.0908203125,0.0810546875,0.9951171875
556,0.06640625,0.08203125,0.978515625
557,0.0673828125,0.072265625,0.99609375
558,0.0625,0.072265625,1.005859375
559,0.0732421875,0.056640625,1.0078125
560,0.0693359375,0.0556640625,1.013671875
561,0.0615234375,0.0517578125,1.017578125
562,0.0634765625,0.052734375,1.01171875
563,0.0654296875,0.05078125,1.013671875
564,0.052734375,0.0498046875,1.015625
565,0.044921875,0.0537109375,1.0087890625
566,0.03515625,0.0546875,1.00390625
567,0.033203125,0.0537109375,1.001953125
568,0.025390625,0.0537109375,0.9951171875
569,0.029296875,0.052734375,1.0009765625
570,0.0126953125,0.0556640625,1.0029296875
571,0.0126953125,0.0517578125,1.0029296875
572,0.0068359375,0.0498046875,0.99609375
573,0.0029296875,0.0517578125,1.0029296875
574,0.0029296875,0.0537109375,1.0048828125
575,0.00390625,0.048828125,1.0126953125
576,-0.0009765625,0.0439453125,1.0185546875
577,-0.01171875,0.048828125,1.0322265625
578,-0.0166015625,0.0400390625,1.029296875
579,-0.017578125,0.0498046875,1.041015625
580,-0.0078125,0.0517578125,1.0419921875
581,-0.0078125,0.0556640625,1.044921875
582,-0.0107421875,0.0673828125,1.044921875
583,-0.01171875,0.078125,1.03515625
584,-0.005859375,0.083984375,1.0224609375
585,0.001953125,0.09375,1.021484375
586,-0.001953125,0.099609375,1.0029296875
587,0.0009765625,0.1083984375,1.0009765625
588,0.0087890625,0.1171875,1.0029296875
589,0.017578125,0.1220703125,1.0068359375
590,0.0224609375,0.1142578125,1.009765625
591,0.0341796875,0.1103515625,1.015625
592,0.037109375,0.1044921875,1.01953125
593,0.064453125,0.1064453125,0.9853515625
594,0.0478515625,0.0830078125,1.015625
595,0.0673828125,0.0830078125,1.0224609375
596,0.0595703125,0.0771484375,1.041015625
597,0.060546875,0.0791015625,1.0615234375
598,0.0634765625,0.060546875,1.048828125
599,0.0576171875,0.0556640625,1.0498046875
600,0.0458984375,0.0400390625,1.033203125
601,0.0498046875,0.0263671875,1.0361328125
602,0.0556640625,0.0087890625,1.029296875
603,0.0625,0.015625,1.017578125
604,0.048828125,0.013671875,1.0302734375
605,0.0546875,0.0205078125,1.033203125
606,0.0791015625,0.005859375,1.025390625
607,0.0634765625,0.0048828125,1.0224609375
608,0.0859375,0.0,1.0283203125
609,0.0615234375,0.005859375,1.01953125
610,0.078125,0.0146484375,0.998046875
611,0.0810546875,0.0498046875,0.96484375
612,0.0908203125,0.06640625,0.9423828125
613,0.0859375,0.1025390625,0.919921875
614,0.09765625,0.0966796875,0.9384765625
615,0.10546875,0.12109375,0.9482421875
616,0.1240234375,0.1044921875,0.9609375
617,0.13671875,0.0908203125,0.9677734375
618,0.1484375,0.0751953125,0.9755859375
619,0.146484375,0.0654296875,1.0029296875
620,0.1689453125,0.0478515625,1.037109375
621,0.1826171875,0.0361328125,1.029296875
622,0.201171875,0.0263671875,1.0458984375
623,0.205078125,0.0048828125,1.0419921875
624,0.201171875,-0.00390625,1.0126953125
625,0.20703125,-0.0029296875,0.998046875
626,0.2197265625,-0.0087890625,0.9794921875
627,0.20703125,-0.0615234375,0.9443359375
628,0.201171875,0.0732421875,1.0341796875
629,0.2236328125,0.037109375,0.96484375
630,0.2373046875,0.029296875,0.92578125
631,0.2314453125,0.0341796875,0.9169921875
632,0.23828125,0.0537109375,0.8603515625
633,0.25,0.056640625,0.875
634,0.26171875,0.0546875,0.884765625
635,0.2744140625,0.0546875,0.892578125
636,0.29296875,0.044921875,0.9091796875
637,0.30078125,0.0029296875,0.8876953125
638,0.3291015625,0.060546875,0.9326171875
639,0.33203125,0.03515625,0.90625
640,0.357421875,0.029296875,0.904296875
641,0.3564453125,0.0341796875,0.9052734375
642,0.3583984375,0.03515625,0.900390625
643,0.359375,0.0458984375,0.900390625
644,0.3671875,0.041015625,0.91015625
645,0.3720703125,0.0400390625,0.9072265625
646,0.359375,0.029296875,0.9033203125
647,0.380859375,0.0185546875,0.8701171875
648,0.3935546875,0.0234375,0.8720703125
649,0.400390625,0.0283203125,0.8837890625
650,0.416015625,0.0439453125,0.8828125
651,0.4228515625,0.046875,0.876953125
652,0.4189453125,0.0498046875,0.88671875
653,0.443359375,0.0380859375,0.876953125
654,0.4619140625,0.0244140625,0.8720703125
655,0.4501953125,0.0703125,0.90625
656,0.4560546875,0.068359375,0.9013671875
657,0.48046875,0.0576171875,0.8564453125
658,0.4990234375,0.0595703125,0.8388671875
659,0.509765625,0.060546875,0.8369140625
660,0.515625,0.0576171875,0.8271484375
661,0.5302734375,0.068359375,0.828125
662,0.533203125,0.068359375,0.82421875
663,0.525390625,0.06640625,0.8232421875
664,0.52734375,0.0732421875,0.8359375
665,0.5224609375,0.080078125,0.8447265625
666,0.515625,0.0810546875,0.8486328125
667,0.51953125,0.076171875,0.83984375
668,0.5205078125,0.0703125,0.826171875
669,0.5234375,0.072265625,0.8232421875
670,0.5341796875,0.064453125,0.83203125
671,0.525390625,0.0732421875,0.8486328125
672,0.5166015625,0.072265625,0.8681640625
673,0.5068359375,0.0703125,0.8828125
674,0.5087890625,0.0576171875,0.880859375
675,0.5126953125,0.0419921875,0.86328125
676,0.5078125,0.0390625,0.84765625
677,0.5126953125,0.044921875,0.84765625
678,0.5166015625,0.0478515625,0.849609375
679,0.51953125,0.044921875,0.849609375
680,0.52734375,0.05078125,0.8486328125
681,0.53125,0.0478515625,0.841796875
682,0.5361328125,0.0537109375,0.8349609375
683,0.5517578125,0.0517578125,0.8359375
684,0.556640625,0.056640625,0.8427734375
685,0.5625,0.05859375,0.83984375
686,0.5712890625,0.0634765625,0.8330078125
687,0.5625,0.0625,0.82421875
688,0.5625,0.068359375,0.818359375
689,0.5595703125,0.0673828125,0.8154296875
690,0.5634765625,0.0673828125,0.81640625
691,0.572265625,0.0595703125,0.8173828125
692,0.552734375,0.0556640625,0.8193359375
693,0.560546875,0.0419921875,0.8154296875
694,0.54296875,0.0400390625,0.8291015625
695,0.5693359375,0.03515625,0.8330078125
696,0.5380859375,0.0419921875,0.8291015625
697,0.55859375,0.044921875,0.83203125
698,0.5625,0.0283203125,0.82421875
699,0.5419921875,0.0361328125,0.8232421875
700,0.560546875,0.03515625,0.8134765625
701,0.556640625,0.03125,0.8046875
702,0.55859375,0.03125,0.8134765625
703,0.5634765625,0.0302734375,0.8173828125
704,0.5615234375,0.0224609375,0.81640625
705,0.560546875,0.015625,0.818359375
706,0.5625,0.009765625,0.8154296875
707,0.541015625,0.0078125,0.814453125
708,0.552734375,0.0107421875,0.794921875
709,0.5615234375,0.01953125,0.7919921875
710,0.5625,0.02734375,0.7939453125
711,0.56640625,0.0283203125,0.79296875
712,0.568359375,0.025390625,0.7802734375
713,0.560546875,0.029296875,0.767578125
714,0.564453125,0.0361328125,0.7529296875
715,0.5732421875,0.0498046875,0.7431640625
716,0.572265625,0.0615234375,0.7333984375
717,0.5751953125,0.0732421875,0.732421875
718,0.583984375,0.0810546875,0.7275390625
719,0.59375,0.080078125,0.72265625
720,0.6591796875,0.0478515625,0.7421875
721,0.49609375,0.111328125,0.767578125
722,0.62890625,0.060546875,0.6884765625
723,0.6748046875,0.0341796875,0.7392578125
724,0.64453125,0.037109375,0.71875
725,0.6357421875,0.044921875,0.7099609375
726,0.6455078125,0.09375,0.712890625
727,0.677734375,0.052734375,0.6875
728,0.6796875,0.052734375,0.68359375
729,0.6845703125,0.048828125,0.68359375
730,0.7119140625,0.0439453125,0.673828125
731,0.7177734375,0.037109375,0.662109375
732,0.72265625,0.0283203125,0.6640625
733,0.7529296875,0.0224609375,0.669921875
734,0.75,0.0185546875,0.67578125
735,0.76171875,0.021484375,0.6708984375
736,0.759765625,0.0224609375,0.662109375
737,0.7685546875,0.029296875,0.6494140625
738,0.779296875,0.021484375,0.6357421875
739,0.771484375,0.0302734375,0.6259765625
740,0.7646484375,0.02734375,0.6142578125
741,0.7705078125,0.029296875,0.607421875
742,0.76171875,0.015625,0.60546875
743,0.7705078125,0.009765625,0.603515625
744,0.763671875,0.0146484375,0.6083984375
745,0.78515625,0.01171875,0.603515625
746,0.8017578125,0.0185546875,0.607421875
747,0.8125,0.0283203125,0.615234375
748,0.810546875,0.021484375,0.61328125
749,0.8125,0.0166015625,0.6103515625
750,0.8173828125,0.015625,0.6064453125
751,0.8125,0.0146484375,0.591796875
752,0.8115234375,0.01171875,0.5888671875
753,0.8115234375,0.01171875,0.5810546875
754,0.8134765625,0.0126953125,0.576171875
755,0.810546875,0.015625,0.58203125
756,0.798828125,0.017578125,0.578125
757,0.7890625,0.0166015625,0.5693359375
758,0.7734375,0.017578125,0.5654296875
759,0.78515625,0.0166015625,0.5673828125
760,0.7822265625,0.0087890625,0.5673828125
761,0.78515625,0.0029296875,0.5595703125
762,0.80078125,-0.013671875,0.5380859375
763,0.818359375,-0.0263671875,0.52734375
764,0.8291015625,-0.0283203125,0.513671875
765,0.8564453125,-0.0341796875,0.5
766,0.8740234375,-0.0361328125,0.4833984375
767,0.9169921875,-0.0185546875,0.4638671875
768,0.8486328125,-0.017578125,0.4736328125
769,0.8408203125,-0.0234375,0.4521484375
770,0.83203125,-0.029296875,0.4443359375
771,0.8251953125,-0.01953125,0.435546875
772,0.8203125,-0.021484375,0.4296875
773,0.8203125,-0.0205078125,0.4140625
774,0.8251953125,-0.0107421875,0.3994140625
775,0.8291015625,-0.0263671875,0.380859375
776,0.8486328125,0.005859375,0.384765625
777,0.873046875,0.0068359375,0.3603515625
778,0.8828125,0.013671875,0.3720703125
779,0.91796875,0.0078125,0.359375
780,0.935546875,0.0048828125,0.3740234375
781,0.9580078125,0.001953125,0.38671875
782,0.9794921875,-0.001953125,0.388671875
783,0.9765625,-0.005859375,0.3876953125
784,0.984375,-0.005859375,0.396484375
785,0.9970703125,0.001953125,0.392578125
786,0.98828125,0.00390625,0.3916015625
787,0.99609375,0.0126953125,0.3896484375
788,0.9970703125,0.02734375,0.3896484375
789,1.005859375,0.03515625,0.3779296875
790,0.9921875,0.03515625,0.369140625
791,0.994140625,0.0419921875,0.353515625
792,0.9755859375,0.0283203125,0.3427734375
793,0.9853515625,0.046875,0.3427734375
794,0.966796875,0.033203125,0.326171875
795,0.96484375,0.0283203125,0.3203125
796,0.9638671875,0.0263671875,0.3251953125
797,0.9248046875,0.0068359375,0.3515625
798,0.9873046875,0.0078125,0.31640625
799,0.951171875,0.013671875,0.330078125
800,0.93359375,0.0029296875,0.3271484375
801,0.91796875,0.005859375,0.3251953125
802,0.89453125,0.0048828125,0.31640625
803,0.869140625,-0.0107421875,0.3173828125
804,0.8544921875,-0.0029296875,0.318359375
805,0.857421875,-0.01171875,0.3212890625
806,0.8427734375,-0.0205078125,0.3203125
807,0.8427734375,-0.017578125,0.3251953125
808,0.8486328125,-0.013671875,0.3154296875
809,0.8408203125,-0.0107421875,0.3095703125
810,0.8623046875,-0.005859375,0.306640625
811,0.873046875,0.001953125,0.3046875
812,0.8896484375,0.005859375,0.294921875
813,0.912109375,0.009765625,0.291015625
814,0.9091796875,0.0107421875,0.2841796875
815,0.9453125,0.009765625,0.2900390625
816,0.9501953125,0.021484375,0.2919921875
817,0.96875,0.025390625,0.2841796875
818,0.9765625,0.0322265625,0.287109375
819,0.9765625,0.0322265625,0.2841796875
820,0.9775390625,0.025390625,0.28125
821,0.9765625,0.0302734375,0.2822265625
822,0.958984375,0.0224609375,0.2919921875
823,0.96484375,0.0244140625,0.283203125
824,0.958984375,0.0166015625,0.2900390625
825,0.9462890625,0.0126953125,0.291015625
826,0.9462890625,0.0205078125,0.2900390625
827,0.931640625,0.009765625,0.2900390625
828,0.923828125,0.0078125,0.2958984375
829,0.919921875,0.0068359375,0.29296875
830,0.919921875,0.0146484375,0.298828125
831,0.9169921875,0.0166015625,0.306640625
832,0.9189453125,0.02734375,0.30859375
833,0.9130859375,0.03125,0.3095703125
834,0.921875,0.037109375,0.298828125
835,0.9189453125,0.03125,0.3017578125
836,0.9208984375,0.02734375,0.296875
837,0.916015625,0.03515625,0.2939453125
838,0.9111328125,0.029296875,0.279296875
839,0.9189453125,0.0224609375,0.2880859375
840,0.921875,0.0205078125,0.2861328125
841,0.916015625,0.021484375,0.28125
842,0.9287109375,0.02734375,0.287109375
843,0.9326171875,0.0283203125,0.2783203125
844,0.927734375,0.0234375,0.2578125
845,0.9365234375,0.017578125,0.2490234375
846,0.9365234375,0.0107421875,0.234375
847,0.9482421875,0.001953125,0.2275390625
848,0.94140625,-0.0009765625,0.234375
849,0.92578125,-0.0087890625,0.2099609375
850,0.9716796875,0.0,0.224609375
851,0.9599609375,-0.0029296875,0.2109375
852,0.958984375,0.01953125,0.2119140625
853,0.9736328125,0.0029296875,0.189453125
854,0.98828125,-0.005859375,0.18359375
855,1.0068359375,-0.0185546875,0.1845703125
856,1.001953125,-0.01953125,0.1943359375
857,1.00390625,-0.0205078125,0.193359375
858,1.0146484375,-0.033203125,0.1826171875
859,1.01171875,-0.0400390625,0.17578125
860,1.0244140625,-0.0498046875,0.1630859375
861,1.0107421875,-0.0498046875,0.15234375
862,1.0,-0.0390625,0.1396484375
863,0.9990234375,-0.0283203125,0.130859375
864,0.9912109375,-0.0283203125,0.1171875
865,1.001953125,-0.0283203125,0.1015625
866,1.00390625,-0.025390625,0.095703125
867,1.0107421875,-0.0263671875,0.083984375
868,1.0068359375,-0.025390625,0.080078125
869,1.017578125,-0.025390625,0.0751953125
870,1.0166015625,-0.0234375,0.0712890625
871,1.015625,-0.0205078125,0.080078125
872,1.013671875,-0.0263671875,0.0830078125
873,1.0205078125,-0.0244140625,0.083984375
874,1.0244140625,-0.02734375,0.080078125
875,1.0224609375,-0.0283203125,0.0849609375
876,1.013671875,-0.0302734375,0.078125
877,1.001953125,-0.029296875,0.083984375
878,1.0234375,-0.0341796875,0.076171875
879,1.0,-0.03515625,0.083984375
880,1.0,-0.03515625,0.083984375
881,1.01171875,-0.03125,0.0791015625
882,1.0,-0.0341796875,0.083984375
883,0.9970703125,-0.029296875,0.08203125
884,0.9951171875,-0.0205078125,0.08203125
885,0.9921875,-0.015625,0.0830078125
886,1.001953125,-0.0087890625,0.0869140625
887,1.001953125,-0.0068359375,0.0927734375
888,1.0029296875,-0.005859375,0.0986328125
889,1.0146484375,-0.0029296875,0.1005859375
890,1.009765625,0.0029296875,0.1015625
891,1.0126953125,-0.0009765625,0.1044921875
892,1.00390625,0.00390625,0.10546875
893,1.0009765625,0.001953125,0.111328125
894,0.994140625,-0.00390625,0.1044921875
895,0.9951171875,-0.0029296875,0.1044921875
896,0.990234375,-0.0029296875,0.1064453125
897,0.9921875,-0.001953125,0.1064453125
898,0.98828125,0.0048828125,0.1123046875
899,0.986328125,0.00390625,0.11328125
900,0.984375,0.0068359375,0.1220703125
901,0.9853515625,0.005859375,0.1201171875
902,0.98046875,0.0078125,0.130859375
903,0.98046875,0.005859375,0.13671875
904,0.9775390625,0.0029296875,0.1396484375
905,0.9775390625,0.0,0.140625
906,0.982421875,0.00390625,0.1455078125
907,0.9775390625,0.0078125,0.1484375
908,0.9765625,0.0087890625,0.15234375
909,0.98046875,0.0087890625,0.1494140625
910,0.9755859375,0.0087890625,0.1552734375
911,0.96875,0.009765625,0.150390625
912,0.9736328125,0.0078125,0.1513671875
913,0.9716796875,0.0048828125,0.1533203125
914,0.9658203125,0.00390625,0.1552734375
915,0.962890625,-0.0009765625,0.1513671875
916,0.96484375,0.001953125,0.1494140625
917,0.9580078125,0.0068359375,0.158203125
918,0.9599609375,0.009765625,0.15625
919,0.95703125,0.009765625,0.158203125
920,0.9560546875,0.01953125,0.1591796875
921,0.9580078125,0.0205078125,0.1572265625
922,0.9580078125,0.0263671875,0.1669921875
923,0.9619140625,0.0244140625,0.1611328125
924,0.94921875,0.01953125,0.16796875
925,0.953125,0.025390625,0.1669921875
926,0.958984375,0.0185546875,0.1669921875
927,0.9599609375,0.0166015625,0.169921875
928,0.9599609375,0.0146484375,0.18359375
929,0.9609375,0.015625,0.177734375
930,0.95703125,0.017578125,0.1796875
931,0.9208984375,-0.015625,0.158203125
932,0.9501953125,0.0302734375,0.2080078125
933,0.927734375,0.0419921875,0.1796875
934,0.951171875,0.029296875,0.15234375
935,0.953125,0.0205078125,0.15625
936,0.943359375,0.013671875,0.169921875
937,0.939453125,0.0107421875,0.1865234375
938,0.9443359375,0.0048828125,0.1953125
939,0.927734375,0.005859375,0.1923828125
940,0.9228515625,0.0048828125,0.2138671875
941,0.966796875,0.0029296875,0.171875
942,0.9541015625,0.0126953125,0.2001953125
943,0.9453125,0.0166015625,0.1875
944,0.9501953125,0.0087890625,0.1796875
945,0.943359375,0.0078125,0.1806640625
946,0.9482421875,0.0087890625,0.1689453125
947,0.94921875,0.0,0.162109375
948,0.953125,-0.0009765625,0.16015625
949,0.9619140625,0.0,0.162109375
950,0.9521484375,-0.00390625,0.1611328125
951,0.9521484375,-0.0029296875,0.18359375
952,0.947265625,0.005859375,0.169921875
953,0.9580078125,0.0068359375,0.15625
954,0.966796875,0.0087890625,0.140625
955,0.96484375,0.00390625,0.1474609375
956,0.9619140625,-0.005859375,0.15234375
957,0.9638671875,-0.0107421875,0.1591796875
958,0.9638671875,-0.0087890625,0.15234375
959,0.966796875,-0.015625,0.1484375
960,0.9716796875,-0.0068359375,0.1376953125
961,0.9775390625,-0.0009765625,0.130859375
962,0.978515625,-0.0078125,0.1201171875
963,0.9814453125,-0.00390625,0.1162109375
964,0.9873046875,-0.001953125,0.1064453125
965,0.98828125,0.0029296875,0.1025390625
966,0.986328125,-0.005859375,0.0947265625
967,0.98828125,-0.001953125,0.09375
968,0.98046875,0.0029296875,0.099609375
969,0.9833984375,0.0009765625,0.0966796875
970,0.9833984375,-0.0029296875,0.0888671875
971,0.98046875,-0.00390625,0.0869140625
972,0.9775390625,-0.0068359375,0.087890625
973,0.982421875,-0.009765625,0.0908203125
974,0.9814453125,-0.0146484375,0.09765625
975,0.9814453125,-0.01171875,0.0986328125
976,0.9755859375,-0.009765625,0.0986328125
977,0.974609375,-0.017578125,0.0986328125
978,0.9755859375,-0.01171875,0.1005859375
979,0.9677734375,-0.0107421875,0.1005859375
980,0.9765625,-0.00390625,0.0947265625
981,0.974609375,-0.0068359375,0.095703125
982,0.9736328125,-0.0146484375,0.087890625
983,0.9794921875,-0.005859375,0.08984375
984,0.9736328125,-0.0009765625,0.0849609375
985,0.970703125,-0.00390625,0.0849609375
986,0.9765625,0.001953125,0.0888671875
987,0.984375,-0.0068359375,0.0810546875
988,0.9873046875,-0.005859375,0.0908203125
989,0.98046875,-0.0107421875,0.099609375
990,0.990234375,-0.009765625,0.1015625
991,0.986328125,-0.0205078125,0.1044921875
992,0.9921875,-0.025390625,0.1015625
993,0.9912109375,-0.0234375,0.10546875
994,0.9931640625,-0.01953125,0.0947265625
995,0.990234375,-0.029296875,0.087890625
996,0.998046875,-0.015625,0.09375
997,0.994140625,-0.013671875,0.087890625
998,0.990234375,-0.0048828125,0.0849609375
999,0.998046875,-0.01171875,0.08203125
1000,0.9892578125,-0.001953125,0.0732421875
1001,0.9892578125,-0.001953125,0.0712890625
1002,0.9873046875,-0.0009765625,0.0712890625
1003,0.982421875,-0.0009765625,0.0712890625
1004,0.98046875,-0.0068359375,0.064453125
1005,0.978515625,-0.0146484375,0.064453125
1006,0.982421875,-0.0185546875,0.0712890625
1007,0.9814453125,-0.025390625,0.078125
1008,0.974609375,-0.0244140625,0.080078125
1009,0.9716796875,-0.0185546875,0.0830078125
1010,0.9765625,-0.0166015625,0.0869140625
1011,0.9794921875,-0.0185546875,0.083984375
1012,0.9794921875,-0.0185546875,0.0869140625
1013,0.9755859375,-0.0048828125,0.087890625
1014,0.9794921875,-0.01171875,0.08984375
1015,0.978515625,-0.0126953125,0.0888671875
1016,0.978515625,-0.013671875,0.091796875
1017,0.9794921875,-0.0185546875,0.0927734375
1018,0.9814453125,-0.021484375,0.09765625
1019,0.9794921875,-0.015625,0.0947265625
1020,0.978515625,-0.0166015625,0.09765625
1021,0.98046875,-0.021484375,0.0966796875
1022,0.982421875,-0.015625,0.0927734375
1023,0.9755859375,-0.013671875,0.0927734375
1024,0.978515625,-0.005859375,0.08984375
1025,0.978515625,-0.0048828125,0.0927734375
1026,0.98046875,0.0,0.0927734375
1027,0.9775390625,0.00390625,0.09375
1028,0.9775390625,-0.0009765625,0.095703125
1029,0.9716796875,-0.0009765625,0.0859375
1030,0.9765625,0.001953125,0.08984375
1031,0.9755859375,-0.00390625,0.0947265625
1032,0.974609375,-0.005859375,0.09375
1033,0.978515625,-0.0087890625,0.0947265625
1034,0.9775390625,-0.0107421875,0.0927734375
1035,0.9794921875,-0.013671875,0.091796875
1036,0.9765625,-0.0185546875,0.08984375
1037,0.9775390625,-0.01171875,0.0869140625
1038,0.9755859375,-0.01171875,0.0888671875
1039,0.978515625,-0.0146484375,0.0888671875
1040,0.978515625,-0.021484375,0.0859375
1041,0.9794921875,-0.01953125,0.0849609375
1042,0.98046875,-0.01953125,0.0859375
1043,0.984375,-0.0224609375,0.0869140625
1044,0.9853515625,-0.0234375,0.087890625
1045,0.9853515625,-0.0263671875,0.0888671875
1046,0.9814453125,-0.025390625,0.0869140625
1047,0.9853515625,-0.02734375,0.0849609375
1048,0.982421875,-0.0224609375,0.087890625
1049,0.9775390625,-0.0283203125,0.0859375
1050,0.9794921875,-0.0302734375,0.0830078125
1051,0.9775390625,-0.02734375,0.083984375
1052,0.9736328125,-0.025390625,0.0859375
1053,0.9736328125,-0.0263671875,0.0869140625
1054,0.978515625,-0.01953125,0.087890625
1055,0.9765625,-0.0234375,0.087890625
1056,0.9716796875,-0.0185546875,0.0908203125
1057,0.9794921875,-0.0244140625,0.0859375
1058,0.9775390625,-0.015625,0.08984375
1059,0.9755859375,-0.013671875,0.091796875
1060,0.9716796875,-0.0126953125,0.0908203125
1061,0.9775390625,-0.0185546875,0.0927734375
1062,0.9765625,-0.0166015625,0.0966796875
1063,0.974609375,-0.021484375,0.0947265625
1064,0.9765625,-0.0146484375,0.09765625
1065,0.97265625,-0.015625,0.1005859375
1066,0.9755859375,-0.0087890625,0.1025390625
1067,0.970703125,-0.0107421875,0.1025390625
1068,0.9697265625,-0.0126953125,0.1015625
1069,0.970703125,-0.0087890625,0.1025390625
1070,0.970703125,-0.01171875,0.099609375
1071,0.97265625,-0.009765625,0.095703125
1072,0.9736328125,-0.0068359375,0.095703125
1073,0.96875,-0.01171875,0.09765625
1074,0.9736328125,-0.01171875,0.099609375
1075,0.9716796875,-0.01171875,0.099609375
1076,0.9736328125,-0.0107421875,0.1005859375
1077,0.966796875,-0.009765625,0.1025390625
1078,0.9716796875,-0.009765625,0.09765625
1079,0.9765625,-0.013671875,0.1005859375
1080,0.9794921875,-0.0126953125,0.0986328125
1081,0.9697265625,-0.0126953125,0.1025390625
1082,0.9765625,-0.0087890625,0.095703125
1083,0.974609375,-0.0078125,0.0947265625
1084,0.9775390625,-0.0107421875,0.0966796875
1085,0.9755859375,-0.00390625,0.0927734375
1086,0.9765625,-0.0068359375,0.0927734375
1087,0.9794921875,-0.005859375,0.09765625
1088,0.9765625,-0.0078125,0.0986328125
1089,0.9755859375,-0.005859375,0.1005859375
1090,0.97265625,-0.0087890625,0.0986328125
1091,0.9755859375,-0.0087890625,0.099609375
1092,0.9775390625,-0.0126953125,0.095703125
1093,0.974609375,-0.0029296875,0.095703125
1094,0.9765625,-0.0087890625,0.0947265625
1095,0.974609375,-0.0107421875,0.099609375
1096,0.974609375,-0.00390625,0.0986328125
1097,0.9736328125,-0.009765625,0.0947265625
1098,0.9765625,-0.0068359375,0.0927734375
1099,0.9755859375,-0.005859375,0.091796875
1100,0.978515625,-0.0078125,0.0947265625
1101,0.98046875,-0.005859375,0.0986328125
1102,0.9794921875,-0.0029296875,0.1005859375
1103,0.98046875,-0.0009765625,0.0986328125
1104,0.98046875,-0.005859375,0.0908203125
1105,0.9853515625,0.0009765625,0.09375
1106,0.978515625,0.0,0.09375
1107,0.9814453125,0.0009765625,0.0888671875
1108,0.9794921875,0.0,0.091796875
1109,0.98046875,-0.0029296875,0.08984375
1110,0.9814453125,0.001953125,0.09375
1111,0.9775390625,-0.0009765625,0.099609375
1112,0.97265625,-0.00390625,0.1025390625
1113,0.9755859375,-0.001953125,0.1025390625
1114,0.9755859375,0.0,0.10546875
1115,0.974609375,-0.0078125,0.1103515625
1116,0.9736328125,-0.005859375,0.1064453125
1117,0.9736328125,-0.0107421875,0.1123046875
1118,0.9716796875,-0.0087890625,0.1064453125
1119,0.97265625,-0.015625,0.1103515625
1120,0.9736328125,-0.013671875,0.1044921875
1121,0.9736328125,-0.021484375,0.103515625
1122,0.9736328125,-0.0185546875,0.099609375
1123,0.9697265625,-0.015625,0.0947265625
1124,0.970703125,-0.0146484375,0.0966796875
1125,0.96875,-0.021484375,0.1005859375
1126,0.9736328125,-0.01953125,0.103515625
1127,0.970703125,-0.015625,0.109375
1128,0.9755859375,-0.013671875,0.107421875
1129,0.97265625,-0.0166015625,0.1123046875
1130,0.97265625,-0.01953125,0.115234375
1131,0.974609375,-0.017578125,0.109375
1132,0.9716796875,-0.0009765625,0.1201171875
1133,0.9755859375,-0.01171875,0.107421875
1134,0.974609375,-0.0166015625,0.1044921875
1135,0.97265625,-0.0126953125,0.1025390625
1136,0.9814453125,-0.015625,0.099609375
1137,0.9775390625,-0.0126953125,0.1025390625
1138,0.9755859375,-0.0126953125,0.1025390625
1139,0.978515625,-0.0087890625,0.0966796875
1140,0.9775390625,-0.0068359375,0.09765625
1141,0.98046875,-0.0048828125,0.095703125
1142,0.9755859375,-0.001953125,0.091796875
1143,0.974609375,-0.00390625,0.0986328125
1144,0.9765625,0.0,0.0947265625
1145,0.98046875,-0.00390625,0.1005859375
1146,0.974609375,-0.00390625,0.1005859375
1147,0.9716796875,-0.001953125,0.0966796875
1148,0.9697265625,-0.0048828125,0.1025390625
1149,0.97265625,-0.00390625,0.099609375
1150,0.97265625,-0.0068359375,0.10546875
1151,0.9697265625,-0.005859375,0.1064453125
1152,0.9716796875,-0.009765625,0.1083984375
1153,0.978515625,-0.0107421875,0.1064453125
1154,0.970703125,-0.0107421875,0.103515625
1155,0.9755859375,-0.0205078125,0.107421875
1156,0.97265625,-0.013671875,0.1044921875
1157,0.966796875,-0.0087890625,0.1064453125
1158,0.97265625,-0.0087890625,0.111328125
1159,0.97265625,-0.0107421875,0.109375
1160,0.9677734375,-0.013671875,0.1044921875
1161,0.9638671875,-0.009765625,0.10546875
1162,0.974609375,-0.017578125,0.109375
1163,0.96875,-0.0078125,0.1025390625
1164,0.970703125,-0.01171875,0.10546875
1165,0.9736328125,-0.0146484375,0.1044921875
1166,0.974609375,-0.0146484375,0.1025390625
1167,0.97265625,-0.0107421875,0.1083984375
1168,0.97265625,-0.0126953125,0.1015625
1169,0.9697265625,-0.0107421875,0.1044921875
1170,0.974609375,-0.0087890625,0.103515625
1171,0.9677734375,-0.0087890625,0.10546875
1172,0.9775390625,-0.0166015625,0.1064453125
1173,0.9755859375,-0.0146484375,0.109375
1174,0.9755859375,-0.017578125,0.109375
1175,0.97265625,-0.0234375,0.1083984375
1176,0.978515625,-0.0244140625,0.1083984375
1177,0.974609375,-0.025390625,0.1123046875
1178,0.9794921875,-0.0185546875,0.1083984375
1179,0.9736328125,-0.01953125,0.107421875
1180,0.97265625,-0.015625,0.1064453125
1181,0.9755859375,-0.0126953125,0.111328125
1182,0.96875,-0.013671875,0.109375
1183,0.970703125,-0.0048828125,0.10546875
1184,0.9697265625,-0.0107421875,0.1103515625
1185,0.9716796875,-0.0087890625,0.1044921875
1186,0.970703125,-0.0068359375,0.10546875
1187,0.974609375,-0.00390625,0.103515625
1188,0.9716796875,-0.01171875,0.1044921875
1189,0.974609375,-0.0048828125,0.1025390625
1190,0.9736328125,-0.0068359375,0.103515625
1191,0.9716796875,-0.001953125,0.10546875
1192,0.9716796875,-0.009765625,0.1005859375
1193,0.9765625,-0.013671875,0.1005859375
1194,0.9755859375,-0.01171875,0.1005859375
1195,0.97265625,-0.0068359375,0.1025390625
1196,0.9765625,-0.015625,0.103515625
1197,0.9775390625,-0.0068359375,0.1025390625
1198,0.9755859375,-0.0078125,0.109375
1199,0.9765625,-0.0078125,0.10546875
1200,0.9775390625,-0.013671875,0.1064453125
1201,0.9755859375,-0.0029296875,0.1044921875
1202,0.9755859375,-0.005859375,0.107421875
1203,0.9765625,-0.0048828125,0.103515625
1204,0.9736328125,-0.0029296875,0.1025390625
1205,0.978515625,-0.0107421875,0.1064453125
1206,0.9697265625,-0.005859375,0.1103515625
1207,0.9794921875,-0.0068359375,0.103515625
1208,0.966796875,-0.0087890625,0.103515625
1209,0.9736328125,-0.0087890625,0.111328125
1210,0.9677734375,-0.015625,0.1025390625
1211,0.9755859375,-0.04296875,0.09375
1212,0.9716796875,0.0029296875,0.123046875
1213,0.9736328125,-0.0048828125,0.111328125
1214,0.982421875,-0.0087890625,0.107421875
1215,0.9775390625,-0.009765625,0.1064453125
1216,0.974609375,-0.01171875,0.109375
1217,0.9765625,-0.0107421875,0.10546875
1218,0.9775390625,-0.005859375,0.10546875
1219,0.9677734375,-0.0068359375,0.111328125
1220,0.9775390625,-0.0126953125,0.103515625
1221,0.9775390625,-0.0048828125,0.1005859375
1222,0.9775390625,-0.00390625,0.099609375
1223,0.9677734375,-0.009765625,0.1025390625
1224,0.9755859375,-0.0048828125,0.10546875
1225,0.9765625,-0.0068359375,0.10546875
1226,0.962890625,-0.0166015625,0.1064453125
1227,0.9765625,-0.01171875,0.107421875
1228,0.9658203125,-0.0126953125,0.1083984375
1229,0.9658203125,-0.015625,0.1103515625
1230,0.9677734375,-0.0087890625,0.1103515625
1231,0.9697265625,-0.013671875,0.1123046875
1232,0.96875,-0.017578125,0.11328125
1233,0.9658203125,-0.0126953125,0.109375
1234,0.9736328125,-0.009765625,0.1103515625
1235,0.9697265625,-0.0126953125,0.1064453125
1236,0.9765625,-0.0078125,0.1025390625
1237,0.9775390625,-0.009765625,0.1083984375
1238,0.9716796875,-0.0146484375,0.1025390625
1239,0.9794921875,-0.0146484375,0.109375
1240,0.9765625,-0.0146484375,0.103515625
1241,0.9814453125,-0.01171875,0.111328125
1242,0.9716796875,0.0,0.0966796875
1243,0.974609375,-0.0068359375,0.103515625
1244,0.9697265625,-0.00390625,0.1005859375
1245,0.9765625,-0.005859375,0.1044921875
1246,0.9775390625,-0.0078125,0.1025390625
1247,0.9794921875,-0.0048828125,0.1005859375
1248,0.9765625,-0.001953125,0.10546875
1249,0.966796875,-0.0029296875,0.099609375
1250,0.9775390625,-0.009765625,0.1015625
1251,0.9794921875,-0.0126953125,0.10546875
1252,0.9765625,-0.005859375,0.10546875
1253,0.9765625,0.0,0.099609375
1254,0.9765625,-0.0048828125,0.1044921875
1255,0.96484375,0.0029296875,0.099609375
1256,0.9755859375,-0.00390625,0.099609375
1257,0.978515625,-0.0078125,0.1005859375
1258,0.9794921875,-0.0048828125,0.0986328125
1259,0.9814453125,-0.0009765625,0.1005859375
1260,0.9716796875,-0.0068359375,0.1005859375
1261,0.9775390625,-0.0146484375,0.1025390625
1262,0.978515625,-0.0068359375,0.1044921875
1263,0.98046875,-0.0068359375,0.099609375
1264,0.9755859375,-0.015625,0.1044921875
1265,0.9873046875,-0.0107421875,0.1044921875
1266,0.98046875,-0.0087890625,0.1025390625
1267,0.9775390625,-0.017578125,0.1025390625
1268,0.9814453125,-0.0185546875,0.0966796875
1269,0.9853515625,-0.0166015625,0.1025390625
1270,0.98046875,-0.021484375,0.095703125
1271,0.986328125,-0.01953125,0.1015625
1272,0.98046875,-0.017578125,0.1015625
1273,0.9794921875,-0.017578125,0.1005859375
1274,0.9765625,-0.0185546875,0.099609375
1275,0.9775390625,-0.01953125,0.09765625
1276,0.974609375,-0.0126953125,0.099609375
1277,0.97265625,-0.0185546875,0.1005859375
1278,0.97265625,-0.017578125,0.1005859375
1279,0.9736328125,-0.01953125,0.099609375
1280,0.962890625,-0.017578125,0.1015625
1281,0.9697265625,-0.015625,0.1083984375
1282,0.966796875,-0.015625,0.111328125
1283,0.96484375,-0.0224609375,0.11328125
1284,0.96875,-0.0224609375,0.115234375
1285,0.9658203125,-0.029296875,0.1220703125
1286,0.9658203125,-0.0302734375,0.1201171875
1287,0.970703125,-0.0263671875,0.111328125
1288,0.974609375,-0.0234375,0.11328125
1289,0.97265625,-0.0234375,0.10546875
1290,0.9716796875,-0.0205078125,0.111328125
1291,0.96875,-0.015625,0.11328125
1292,0.9619140625,-0.0205078125,0.1142578125
1293,0.9677734375,-0.015625,0.1142578125
1294,0.9697265625,-0.0126953125,0.11328125
1295,0.9775390625,-0.005859375,0.11328125
1296,0.9736328125,-0.01171875,0.12109375
1297,0.9736328125,-0.005859375,0.1201171875
1298,0.97265625,-0.01171875,0.115234375
1299,0.970703125,-0.0068359375,0.119140625
1300,0.9716796875,-0.0078125,0.119140625
1301,0.974609375,-0.001953125,0.1142578125
1302,0.9697265625,-0.005859375,0.11328125
1303,0.970703125,-0.00390625,0.1162109375
1304,0.966796875,0.0,0.1103515625
1305,0.970703125,-0.001953125,0.119140625
1306,0.97265625,0.001953125,0.1142578125
1307,0.97265625,-0.0029296875,0.1123046875
1308,0.97265625,0.001953125,0.1103515625
1309,0.97265625,-0.0078125,0.1171875
1310,0.97265625,-0.001953125,0.115234375
1311,0.970703125,-0.0078125,0.1171875
1312,0.974609375,-0.0068359375,0.111328125
1313,0.970703125,-0.0087890625,0.1103515625
1314,0.97265625,-0.0068359375,0.1142578125
1315,0.9775390625,-0.015625,0.1142578125
1316,0.9736328125,-0.0126953125,0.1083984375
1317,0.9765625,-0.0107421875,0.109375
1318,0.9755859375,-0.01171875,0.109375
1319,0.978515625,-0.013671875,0.107421875
1320,0.9765625,-0.01171875,0.10546875
1321,0.9765625,-0.01171875,0.107421875
1322,0.9775390625,-0.015625,0.1044921875
1323,0.978515625,-0.0185546875,0.1015625
1324,0.9794921875,-0.015625,0.099609375
1325,0.9755859375,-0.0146484375,0.1005859375
1326,0.978515625,-0.017578125,0.1015625
1327,0.9794921875,-0.0205078125,0.1005859375
1328,0.9794921875,-0.0166015625,0.1044921875
1329,0.9775390625,-0.0205078125,0.0986328125
1330,0.978515625,-0.021484375,0.09765625
1331,0.9697265625,-0.0224609375,0.0966796875
1332,0.9775390625,-0.017578125,0.1015625
1333,0.978515625,-0.015625,0.0966796875
1334,0.9736328125,-0.017578125,0.1064453125
1335,0.97265625,-0.013671875,0.1044921875
1336,0.9736328125,-0.0146484375,0.103515625
1337,0.96875,-0.0126953125,0.1083984375
1338,0.978515625,-0.0146484375,0.1103515625
1339,0.9736328125,-0.0166015625,0.111328125
1340,0.9775390625,-0.0146484375,0.115234375
1341,0.9765625,-0.0185546875,0.1103515625
1342,0.9775390625,-0.01953125,0.1103515625
1343,0.9755859375,-0.0185546875,0.111328125
1344,0.9775390625,-0.01171875,0.1171875
1345,0.9765625,-0.009765625,0.111328125
1346,0.9775390625,-0.0078125,0.115234375
1347,0.9794921875,-0.01171875,0.1083984375
1348,0.9736328125,-0.0048828125,0.1103515625
1349,0.96875,-0.00390625,0.1171875
1350,0.9716796875,-0.0029296875,0.1181640625
1351,0.970703125,-0.00390625,0.1171875
1352,0.974609375,-0.0068359375,0.1181640625
1353,0.962890625,-0.0107421875,0.1201171875
1354,0.9716796875,-0.0068359375,0.119140625
1355,0.9697265625,-0.01171875,0.125
1356,0.9716796875,-0.0048828125,0.1240234375
1357,0.96875,-0.0087890625,0.1279296875
1358,0.966796875,-0.0048828125,0.126953125
1359,0.9697265625,-0.00390625,0.1240234375
1360,0.9697265625,-0.0029296875,0.1220703125
1361,0.974609375,-0.0009765625,0.1259765625
1362,0.962890625,-0.0029296875,0.1259765625
1363,0.96484375,-0.001953125,0.1240234375
1364,0.9716796875,-0.0009765625,0.1240234375
1365,0.966796875,0.0,0.125
1366,0.9775390625,0.0,0.119140625
1367,0.9677734375,-0.0048828125,0.1259765625
1368,0.9716796875,-0.0029296875,0.1240234375
1369,0.9677734375,0.0,0.1201171875
1370,0.96875,0.001953125,0.126953125
1371,0.974609375,-0.00390625,0.125
1372,0.9658203125,-0.0107421875,0.12890625
1373,0.9716796875,-0.0048828125,0.125
1374,0.97265625,-0.0068359375,0.1220703125
1375,0.970703125,-0.009765625,0.1220703125
1376,0.97265625,-0.009765625,0.123046875
1377,0.9716796875,-0.01171875,0.12109375
1378,0.96875,-0.0166015625,0.123046875
1379,0.970703125,-0.0166015625,0.1171875
1380,0.97265625,-0.0205078125,0.1171875
1381,0.9677734375,-0.017578125,0.12109375
1382,0.9677734375,-0.015625,0.1201171875
1383,0.96875,-0.01953125,0.1171875
1384,0.974609375,-0.01953125,0.1142578125
1385,0.978515625,-0.0205078125,0.1142578125
1386,0.97265625,-0.0185546875,0.109375
1387,0.9765625,-0.017578125,0.115234375
1388,0.9765625,-0.0166015625,0.111328125
1389,0.9736328125,-0.015625,0.1064453125
1390,0.9755859375,-0.015625,0.1064453125
1391,0.9765625,-0.0166015625,0.1015625
1392,0.9755859375,-0.015625,0.1044921875
1393,0.9853515625,-0.0185546875,0.1005859375
1394,0.9755859375,-0.017578125,0.1083984375
1395,0.9755859375,-0.017578125,0.1083984375
1396,0.9755859375,-0.021484375,0.107421875
1397,0.9814453125,-0.015625,0.1044921875
1398,0.9775390625,-0.015625,0.1083984375
1399,0.97265625,-0.015625,0.1083984375
1400,0.982421875,-0.0185546875,0.10546875
1401,0.9794921875,-0.0078125,0.111328125
1402,0.9794921875,-0.017578125,0.107421875
1403,0.9736328125,-0.017578125,0.111328125
1404,0.978515625,-0.0107421875,0.1123046875
1405,0.9755859375,-0.009765625,0.1103515625
1406,0.98046875,-0.0087890625,0.109375
1407,0.9775390625,-0.01171875,0.1103515625
1408,0.97265625,-0.001953125,0.11328125
1409,0.97265625,-0.0009765625,0.1171875
1410,0.974609375,-0.0068359375,0.115234375
1411,0.9755859375,-0.0029296875,0.12109375
1412,0.96875,-0.005859375,0.1201171875
1413,0.9697265625,-0.0048828125,0.1162109375
1414,0.9677734375,-0.0068359375,0.12109375
1415,0.970703125,-0.0068359375,0.12109375
1416,0.974609375,-0.0107421875,0.1240234375
1417,0.9716796875,-0.01171875,0.125
1418,0.9677734375,-0.005859375,0.1181640625
1419,0.966796875,-0.0068359375,0.1259765625
1420,0.974609375,-0.0146484375,0.12109375
1421,0.974609375,-0.013671875,0.1240234375
1422,0.9736328125,-0.01171875,0.1201171875
1423,0.97265625,-0.005859375,0.126953125
1424,0.9736328125,-0.0087890625,0.12109375
1425,0.9716796875,-0.0009765625,0.1240234375
1426,0.9658203125,-0.001953125,0.126953125
1427,0.9755859375,-0.0029296875,0.125
1428,0.96875,-0.001953125,0.1240234375
1429,0.974609375,-0.0048828125,0.1240234375
1430,0.966796875,0.0009765625,0.12890625
1431,0.9716796875,0.001953125,0.1328125
1432,0.9736328125,-0.001953125,0.126953125
1433,0.9736328125,-0.0068359375,0.12890625
1434,0.97265625,-0.0029296875,0.12890625
1435,0.96875,-0.0029296875,0.1279296875
1436,0.96875,-0.0068359375,0.1259765625
1437,0.96875,-0.0078125,0.125
1438,0.974609375,-0.0068359375,0.1279296875
1439,0.9697265625,-0.013671875,0.126953125
1440,0.966796875,-0.0107421875,0.1318359375
1441,0.9658203125,-0.015625,0.12890625
1442,0.96875,-0.0146484375,0.130859375
1443,0.9716796875,-0.021484375,0.12890625
1444,0.9736328125,-0.0205078125,0.1318359375
1445,0.9697265625,-0.0244140625,0.12890625
1446,0.9736328125,-0.0185546875,0.125
1447,0.97265625,-0.021484375,0.1201171875
1448,0.97265625,-0.0205078125,0.115234375
1449,0.9765625,-0.021484375,0.1142578125
1450,0.9765625,-0.013671875,0.111328125
1451,0.9736328125,-0.0146484375,0.1181640625
1452,0.9775390625,-0.0078125,0.11328125
1453,0.974609375,-0.0078125,0.1142578125
1454,0.97265625,-0.0068359375,0.1171875
1455,0.96875,-0.0087890625,0.12109375
1456,0.9736328125,-0.005859375,0.1181640625
1457,0.970703125,-0.0048828125,0.125
1458,0.96875,-0.0029296875,0.12109375
1459,0.974609375,-0.005859375,0.1259765625
1460,0.9736328125,-0.0068359375,0.1201171875
1461,0.9736328125,-0.0009765625,0.1181640625
1462,0.97265625,-0.0068359375,0.1240234375
1463,0.9736328125,-0.0048828125,0.125
1464,0.970703125,-0.0126953125,0.12109375
1465,0.9697265625,-0.01171875,0.1201171875
1466,0.9765625,-0.013671875,0.119140625
1467,0.970703125,-0.0078125,0.1171875
1468,0.9716796875,-0.001953125,0.125
1469,0.97265625,-0.01171875,0.1201171875
1470,0.970703125,-0.01171875,0.1220703125
1471,0.9765625,-0.0078125,0.1220703125
1472,0.970703125,-0.01171875,0.1240234375
1473,0.97265625,-0.01171875,0.123046875
1474,0.96875,-0.015625,0.1201171875
1475,0.97265625,-0.013671875,0.119140625
1476,0.9736328125,-0.01171875,0.119140625
1477,0.9697265625,-0.0107421875,0.1142578125
1478,0.9716796875,-0.0087890625,0.1142578125
1479,0.9765625,-0.0048828125,0.1142578125
1480,0.974609375,-0.00390625,0.1171875
1481,0.970703125,-0.005859375,0.1181640625
1482,0.974609375,-0.0078125,0.1171875
1483,0.9736328125,-0.005859375,0.1201171875
1484,0.978515625,-0.0078125,0.1181640625
1485,0.9736328125,-0.0087890625,0.1220703125
1486,0.9755859375,-0.0068359375,0.1220703125
1487,0.9697265625,-0.01171875,0.1201171875
1488,0.970703125,-0.015625,0.123046875
1489,0.97265625,-0.0068359375,0.1220703125
1490,0.9716796875,-0.0146484375,0.1240234375
1491,0.974609375,-0.0126953125,0.1220703125
1492,0.96875,-0.0146484375,0.12109375
1493,0.97265625,0.0009765625,0.125
1494,0.97265625,-0.0048828125,0.1201171875
1495,0.96875,-0.0029296875,0.123046875
1496,0.966796875,-0.0029296875,0.1240234375
1497,0.9697265625,-0.00390625,0.123046875
1498,0.9658203125,-0.00390625,0.125
1499,0.970703125,-0.0107421875,0.1328125
1500,0.966796875,-0.0068359375,0.1279296875
1501,0.974609375,-0.01953125,0.1240234375
1502,0.97265625,-0.015625,0.130859375
1503,0.9755859375,-0.015625,0.1181640625
1504,0.9697265625,-0.0166015625,0.1201171875
1505,0.9755859375,-0.015625,0.1220703125
1506,0.9755859375,-0.0068359375,0.1220703125
1507,0.9736328125,-0.0078125,0.119140625
1508,0.97265625,-0.0048828125,0.119140625
1509,0.974609375,-0.0068359375,0.1181640625
1510,0.9755859375,-0.0107421875,0.12109375
1511,0.974609375,-0.0087890625,0.1220703125
1512,0.974609375,-0.0078125,0.125
1513,0.9736328125,-0.0087890625,0.1240234375
1514,0.9736328125,-0.009765625,0.1259765625
1515,0.9697265625,-0.009765625,0.126953125
1516,0.97265625,-0.0078125,0.1240234375
1517,0.970703125,-0.0078125,0.125
1518,0.9736328125,-0.013671875,0.12109375
1519,0.97265625,-0.0078125,0.125
1520,0.97265625,-0.0068359375,0.1259765625
1521,0.97265625,-0.0087890625,0.123046875
1522,0.97265625,-0.001953125,0.1259765625
1523,0.9765625,-0.0048828125,0.123046875
1524,0.978515625,-0.005859375,0.123046875
1525,0.9716796875,-0.0029296875,0.1220703125
1526,0.9736328125,-0.0068359375,0.12109375
1527,0.974609375,-0.0078125,0.1220703125
1528,0.970703125,-0.0146484375,0.1220703125
1529,0.97265625,-0.0107421875,0.123046875
1530,0.9697265625,-0.013671875,0.1220703125
1531,0.966796875,-0.0126953125,0.1240234375
1532,0.9716796875,-0.0087890625,0.123046875
1533,0.97265625,-0.0068359375,0.123046875
1534,0.9736328125,-0.0078125,0.123046875
1535,0.9765625,-0.01171875,0.123046875
1536,0.9736328125,-0.013671875,0.1201171875
1537,0.9736328125,-0.0078125,0.1162109375
1538,0.9736328125,-0.01171875,0.123046875
1539,0.97265625,-0.0087890625,0.1220703125
1540,0.9736328125,-0.0078125,0.1240234375
1541,0.966796875,-0.0087890625,0.1220703125
1542,0.9755859375,-0.0078125,0.12109375
1543,0.9755859375,-0.0078125,0.123046875
1544,0.978515625,-0.015625,0.125
1545,0.9765625,-0.009765625,0.1220703125
1546,0.9736328125,-0.0146484375,0.1240234375
1547,0.974609375,-0.0126953125,0.1220703125
1548,0.9765625,-0.0078125,0.126953125
1549,0.974609375,-0.0126953125,0.125
1550,0.9736328125,-0.015625,0.123046875
1551,0.97265625,-0.0087890625,0.123046875
1552,0.9736328125,-0.0087890625,0.1181640625
1553,0.9716796875,-0.01171875,0.119140625
1554,0.966796875,-0.0087890625,0.1220703125
1555,0.9736328125,-0.009765625,0.1201171875
1556,0.97265625,-0.0087890625,0.126953125
1557,0.970703125,-0.0087890625,0.12109375
1558,0.974609375,-0.0068359375,0.1201171875
1559,0.9755859375,-0.0087890625,0.1220703125
1560,0.9716796875,-0.0048828125,0.125
1561,0.96875,-0.00390625,0.1240234375
1562,0.9736328125,-0.00390625,0.1220703125
1563,0.970703125,-0.01171875,0.119140625
1564,0.970703125,-0.009765625,0.12109375
1565,0.9658203125,-0.005859375,0.119140625
1566,0.9697265625,-0.0078125,0.1181640625
1567,0.974609375,-0.015625,0.1181640625
1568,0.98046875,-0.0078125,0.1181640625
1569,0.9775390625,-0.0087890625,0.115234375
1570,0.98046875,-0.0107421875,0.115234375
1571,0.978515625,-0.015625,0.1171875
1572,0.9794921875,-0.01953125,0.1201171875
1573,0.9794921875,-0.015625,0.1240234375
1574,0.9814453125,-0.015625,0.1201171875
1575,0.9833984375,-0.0146484375,0.119140625
1576,0.990234375,-0.0146484375,0.12109375
1577,0.990234375,-0.0087890625,0.111328125
1578,0.9970703125,-0.0126953125,0.1064453125
1579,0.9921875,-0.0107421875,0.0966796875
1580,0.98828125,-0.013671875,0.0927734375
1581,0.99609375,-0.0185546875,0.0908203125
1582,0.9990234375,-0.0224609375,0.1044921875
1583,1.0,-0.013671875,0.1171875
1584,0.9951171875,-0.017578125,0.1259765625
1585,0.994140625,-0.0126953125,0.1240234375
1586,0.9970703125,-0.0048828125,0.125
1587,0.994140625,-0.0078125,0.1162109375
1588,0.9921875,-0.0185546875,0.103515625
1589,0.9931640625,0.01171875,0.123046875
1590,0.9892578125,0.0078125,0.1044921875
1591,0.9853515625,0.00390625,0.1044921875
1592,0.984375,0.0048828125,0.111328125
1593,0.974609375,0.0078125,0.109375
1594,0.9716796875,0.0087890625,0.1142578125
1595,0.966796875,0.00390625,0.1142578125
1596,0.9716796875,0.0009765625,0.12109375
1597,0.970703125,0.0,0.12109375
1598,0.9755859375,-0.001953125,0.1220703125
1599,0.984375,-0.0166015625,0.12109375
1600,0.98828125,-0.0185546875,0.1279296875
1601,0.990234375,-0.017578125,0.1318359375
1602,1.0087890625,-0.0341796875,0.12109375
1603,1.009765625,0.0068359375,0.150390625
1604,1.0078125,-0.013671875,0.1435546875
1605,1.01171875,-0.0224609375,0.13671875
1606,1.0107421875,-0.0166015625,0.134765625
1607,1.01171875,-0.0068359375,0.134765625
1608,1.0048828125,-0.0048828125,0.125
1609,1.015625,-0.001953125,0.1318359375
1610,0.9814453125,-0.0205078125,0.1181640625
1611,1.1240234375,-0.0126953125,0.138671875
1612,1.0087890625,0.083984375,0.1494140625
1613,0.919921875,0.076171875,0.0654296875
1614,0.966796875,0.015625,0.08203125
1615,0.984375,-0.021484375,0.14453125
1616,0.9833984375,-0.0517578125,0.1826171875
1617,1.0,-0.0380859375,0.216796875
1618,0.953125,-0.0263671875,0.201171875
1619,0.9609375,-0.03125,0.1904296875
1620,0.97265625,-0.0302734375,0.185546875
1621,0.966796875,-0.0263671875,0.1806640625
1622,0.9599609375,-0.0263671875,0.173828125
1623,0.9658203125,-0.0244140625,0.169921875
1624,0.9658203125,-0.01953125,0.1748046875
1625,0.9755859375,-0.015625,0.1669921875
1626,0.970703125,-0.0078125,0.1728515625
1627,0.9794921875,-0.0078125,0.166015625
1628,0.9736328125,0.0,0.1708984375
1629,0.98828125,0.0087890625,0.171875
1630,0.978515625,0.01171875,0.171875
1631,0.98046875,0.013671875,0.1806640625
1632,0.9697265625,0.0107421875,0.185546875
1633,0.9765625,0.009765625,0.1953125
1634,0.9765625,0.0087890625,0.1953125
1635,0.9775390625,0.0078125,0.1943359375
1636,0.98046875,0.009765625,0.201171875
1637,0.978515625,0.0126953125,0.2041015625
1638,0.9736328125,0.0078125,0.197265625
1639,0.9765625,0.0068359375,0.1943359375
1640,0.9775390625,0.0048828125,0.203125
1641,0.986328125,0.0087890625,0.201171875
1642,0.9833984375,0.005859375,0.20703125
1643,0.984375,0.00390625,0.2109375
1644,0.990234375,0.0078125,0.2216796875
1645,0.9775390625,0.00390625,0.2197265625
1646,0.9833984375,0.005859375,0.23046875
1647,0.9912109375,0.0048828125,0.236328125
1648,0.98828125,0.01171875,0.2431640625
1649,0.966796875,0.0146484375,0.244140625
1650,0.96875,0.015625,0.2431640625
1651,0.962890625,0.017578125,0.240234375
1652,0.955078125,0.013671875,0.2431640625
1653,0.96484375,0.0166015625,0.2490234375
1654,0.939453125,0.0029296875,0.251953125
1655,0.9443359375,0.009765625,0.2578125
1656,0.9189453125,0.0107421875,0.2568359375
1657,0.916015625,0.0029296875,0.2685546875
1658,0.88671875,-0.0029296875,0.26171875
1659,0.9091796875,-0.005859375,0.275390625
1660,0.890625,0.001953125,0.2919921875
1661,0.9296875,-0.0068359375,0.3037109375
1662,0.9111328125,-0.017578125,0.3203125
1663,0.8974609375,-0.0009765625,0.3251953125
1664,0.912109375,0.0,0.3232421875
1665,0.908203125,-0.0068359375,0.328125
1666,0.9189453125,-0.0048828125,0.33203125
1667,0.9375,-0.0166015625,0.32421875
1668,0.9208984375,-0.013671875,0.3251953125
1669,0.90234375,-0.0166015625,0.3076171875
1670,0.9306640625,-0.02734375,0.318359375
1671,0.9169921875,-0.02734375,0.3203125
1672,0.9072265625,-0.03125,0.3251953125
1673,0.931640625,-0.041015625,0.341796875
1674,0.91796875,-0.0390625,0.3427734375
1675,0.9326171875,-0.0400390625,0.349609375
1676,0.9287109375,-0.0361328125,0.3525390625
1677,0.92578125,-0.0390625,0.3486328125
1678,0.919921875,-0.037109375,0.353515625
1679,0.9130859375,-0.0361328125,0.3447265625
1680,0.9248046875,-0.0458984375,0.3525390625
1681,0.908203125,-0.033203125,0.3603515625
1682,0.9150390625,-0.0263671875,0.369140625
1683,0.9033203125,-0.0185546875,0.369140625
1684,0.8154296875,0.0087890625,0.3984375
1685,0.9013671875,0.005859375,0.3818359375
1686,0.93359375,0.0263671875,0.3623046875
1687,0.9150390625,0.0439453125,0.3759765625
1688,0.896484375,0.056640625,0.39453125
1689,0.880859375,0.0546875,0.3994140625
1690,0.8623046875,0.064453125,0.408203125
1691,0.8515625,0.0478515625,0.421875
1692,0.896484375,0.044921875,0.4296875
1693,0.9072265625,0.04296875,0.4423828125
1694,0.90234375,0.0390625,0.4638671875
1695,0.8740234375,0.0390625,0.46484375
1696,0.8701171875,0.0380859375,0.455078125
1697,0.859375,0.03125,0.4443359375
1698,0.869140625,0.0390625,0.4541015625
1699,0.8681640625,0.0693359375,0.4833984375
1700,0.845703125,0.056640625,0.46484375
1701,0.8837890625,0.0595703125,0.4609375
1702,0.90625,0.064453125,0.47265625
1703,0.8994140625,0.0615234375,0.48828125
1704,0.900390625,0.0546875,0.4892578125
1705,0.9052734375,0.05859375,0.4873046875
1706,0.90625,0.0537109375,0.4990234375
1707,0.9091796875,0.0546875,0.513671875
1708,0.9072265625,0.056640625,0.5205078125
1709,0.8955078125,0.0498046875,0.5263671875
1710,0.86328125,0.0556640625,0.541015625
1711,0.8671875,0.037109375,0.541015625
1712,0.86328125,0.0380859375,0.54296875
1713,0.859375,0.044921875,0.5703125
1714,0.83984375,0.05078125,0.580078125
1715,0.806640625,0.0390625,0.5703125
1716,0.8056640625,0.0302734375,0.56640625
1717,0.8017578125,0.01953125,0.5693359375
1718,0.7958984375,0.0166015625,0.58203125
1719,0.7783203125,0.009765625,0.5859375
1720,0.779296875,0.005859375,0.591796875
1721,0.7841796875,0.0048828125,0.599609375
1722,0.7802734375,0.0078125,0.6103515625
1723,0.7734375,0.0244140625,0.6103515625
1724,0.751953125,0.029296875,0.583984375
1725,0.775390625,0.03515625,0.5927734375
1726,0.7646484375,0.0556640625,0.6005859375
1727,0.75,0.0625,0.58984375
1728,0.71875,0.0625,0.583984375
1729,0.732421875,0.064453125,0.587890625
1730,0.7353515625,0.060546875,0.595703125
1731,0.7119140625,0.05078125,0.609375
1732,0.70703125,0.0458984375,0.615234375
1733,0.7109375,0.029296875,0.615234375
1734,0.7119140625,0.021484375,0.6298828125
1735,0.693359375,0.01953125,0.623046875
1736,0.7080078125,0.0166015625,0.62890625
1737,0.6962890625,-0.00390625,0.626953125
1738,0.7109375,-0.001953125,0.6259765625
1739,0.712890625,0.0009765625,0.634765625
1740,0.7119140625,0.0107421875,0.6328125
1741,0.7060546875,0.0146484375,0.638671875
1742,0.7197265625,0.02734375,0.650390625
1743,0.705078125,0.03515625,0.6572265625
1744,0.7001953125,0.0439453125,0.6640625
1745,0.6865234375,0.0478515625,0.6591796875
1746,0.693359375,0.048828125,0.6591796875
1747,0.7021484375,0.0361328125,0.6611328125
1748,0.6875,0.025390625,0.681640625
1749,0.67578125,0.01953125,0.6923828125
1750,0.6728515625,0.01953125,0.6943359375
1751,0.673828125,0.03515625,0.697265625
1752,0.671875,0.0498046875,0.697265625
1753,0.6748046875,0.0576171875,0.693359375
1754,0.6728515625,0.05859375,0.6962890625
1755,0.6669921875,0.048828125,0.708984375
1756,0.65625,0.0400390625,0.7216796875
1757,0.6484375,0.037109375,0.73046875
1758,0.64453125,0.0322265625,0.734375
1759,0.6337890625,0.0361328125,0.74609375
1760,0.6669921875,0.0283203125,0.7509765625
1761,0.669921875,0.0234375,0.7392578125
1762,0.658203125,0.025390625,0.7431640625
1763,0.64453125,0.015625,0.7421875
1764,0.6416015625,0.017578125,0.7431640625
1765,0.6455078125,0.0263671875,0.759765625
1766,0.6416015625,0.03125,0.7705078125
1767,0.65234375,0.037109375,0.7822265625
1768,0.646484375,0.0517578125,0.787109375
1769,0.67578125,0.1171875,0.8564453125
1770,0.5791015625,0.0478515625,0.7763671875
1771,0.595703125,0.0537109375,0.7939453125
1772,0.59765625,0.05078125,0.8046875
1773,0.591796875,0.041015625,0.8173828125
1774,0.5859375,0.0341796875,0.818359375
1775,0.5751953125,0.0390625,0.826171875
1776,0.5732421875,0.037109375,0.8134765625
1777,0.5615234375,0.03515625,0.8095703125
1778,0.5556640625,0.0322265625,0.7998046875
1779,0.560546875,0.0400390625,0.794921875
1780,0.560546875,0.048828125,0.796875
1781,0.5625,0.05078125,0.79296875
1782,0.5615234375,0.0654296875,0.787109375
1783,0.5703125,0.0673828125,0.794921875
1784,0.5654296875,0.0791015625,0.8046875
1785,0.5546875,0.0810546875,0.814453125
1786,0.5419921875,0.0849609375,0.8203125
1787,0.517578125,0.0791015625,0.828125
1788,0.5283203125,0.0712890625,0.81640625
1789,0.5322265625,0.0654296875,0.80859375
1790,0.5166015625,0.056640625,0.8173828125
1791,0.5126953125,0.0537109375,0.8271484375
1792,0.517578125,0.056640625,0.8330078125
1793,0.529296875,0.05859375,0.8447265625
1794,0.5205078125,0.0634765625,0.8564453125
1795,0.5263671875,0.068359375,0.8525390625
1796,0.52734375,0.0693359375,0.8466796875
1797,0.5224609375,0.06640625,0.8466796875
1798,0.5234375,0.068359375,0.84765625
1799,0.525390625,0.068359375,0.84375
1800,0.5234375,0.06640625,0.84765625
1801,0.51953125,0.060546875,0.8515625
1802,0.5380859375,0.0693359375,0.84765625
1803,0.5322265625,0.0751953125,0.8505859375
1804,0.5205078125,0.0830078125,0.85546875
1805,0.51171875,0.08203125,0.8427734375
1806,0.50390625,0.076171875,0.8486328125
1807,0.513671875,0.076171875,0.8544921875
1808,0.4970703125,0.0751953125,0.859375
1809,0.5029296875,0.0634765625,0.8662109375
1810,0.4970703125,0.0654296875,0.8623046875
1811,0.48046875,0.0703125,0.859375
1812,0.4951171875,0.0771484375,0.86328125
1813,0.4775390625,0.083984375,0.8681640625
1814,0.47265625,0.0859375,0.8779296875
1815,0.466796875,0.0927734375,0.87109375
1816,0.453125,0.0966796875,0.8759765625
1817,0.44921875,0.0966796875,0.875
1818,0.447265625,0.1005859375,0.8955078125
1819,0.443359375,0.09765625,0.892578125
1820,0.4345703125,0.1015625,0.896484375
1821,0.4375,0.0986328125,0.8837890625
1822,0.4326171875,0.1015625,0.8759765625
1823,0.4453125,0.095703125,0.876953125
1824,0.44921875,0.0888671875,0.8828125
1825,0.4716796875,0.0849609375,0.8974609375
1826,0.4677734375,0.08203125,0.912109375
1827,0.4697265625,0.064453125,0.9169921875
1828,0.4541015625,0.0556640625,0.91015625
1829,0.4228515625,0.0546875,0.9091796875
1830,0.41796875,0.0458984375,0.9052734375
1831,0.388671875,0.0546875,0.90625
1832,0.3515625,0.0478515625,0.9033203125
1833,0.3330078125,0.046875,0.9033203125
1834,0.3134765625,0.0478515625,0.8994140625
1835,0.28125,0.056640625,0.9130859375
1836,0.265625,0.064453125,0.9296875
1837,0.23828125,0.0791015625,0.9345703125
1838,0.20703125,0.0830078125,0.935546875
1839,0.171875,0.0830078125,0.9443359375
1840,0.1376953125,0.083984375,0.9443359375
1841,0.134765625,0.08984375,0.955078125
1842,0.091796875,0.099609375,0.9541015625
1843,0.0888671875,0.1015625,0.9462890625
1844,0.109375,0.10546875,0.951171875
1845,0.1064453125,0.1015625,0.947265625
1846,0.1044921875,0.103515625,0.955078125
1847,0.091796875,0.0966796875,0.9599609375
1848,0.1025390625,0.091796875,0.9638671875
1849,0.109375,0.0908203125,0.962890625
1850,0.150390625,0.083984375,0.966796875
1851,0.1591796875,0.080078125,0.970703125
1852,0.1669921875,0.0830078125,0.974609375
1853,0.1708984375,0.0859375,0.9833984375
1854,0.158203125,0.0859375,0.9921875
1855,0.1376953125,0.087890625,0.9931640625
1856,0.119140625,0.0986328125,1.0048828125
1857,0.1044921875,0.09375,1.0224609375
1858,0.08984375,0.1025390625,1.0322265625
1859,0.091796875,0.1025390625,1.0439453125
1860,0.068359375,0.1005859375,1.04296875
1861,0.1533203125,0.1416015625,1.146484375
1862,0.05859375,0.1259765625,1.015625
1863,0.0341796875,0.1181640625,1.0087890625
1864,0.0205078125,0.1259765625,1.001953125
1865,0.0263671875,0.146484375,0.986328125
1866,0.017578125,0.15234375,0.9931640625
1867,0.0078125,0.1484375,0.9873046875
1868,-0.013671875,0.146484375,0.986328125
1869,-0.013671875,0.13671875,0.99609375
1870,-0.0224609375,0.138671875,1.013671875
1871,-0.0224609375,0.13671875,1.017578125
1872,-0.025390625,0.1318359375,1.0205078125
1873,-0.0703125,0.1328125,1.0302734375
1874,-0.0517578125,0.1328125,1.03515625
1875,-0.037109375,0.1357421875,1.03125
1876,-0.033203125,0.1318359375,1.0224609375
1877,-0.03515625,0.134765625,1.01953125
1878,-0.037109375,0.1376953125,1.0205078125
1879,-0.0380859375,0.13671875,1.0166015625
1880,-0.03125,0.13671875,1.0126953125
1881,-0.05078125,0.1357421875,1.0107421875
1882,-0.0341796875,0.1279296875,1.0
1883,-0.07421875,0.1376953125,1.001953125
1884,-0.0576171875,0.1376953125,1.01171875
1885,-0.0380859375,0.1435546875,1.0107421875
1886,-0.01953125,0.1435546875,1.01171875
1887,-0.0048828125,0.1494140625,1.0087890625
1888,-0.001953125,0.1552734375,1.0048828125
1889,0.0078125,0.16015625,0.9912109375
1890,-0.1181640625,0.0966796875,0.916015625
1891,0.0126953125,0.1455078125,0.9921875
1892,0.0478515625,0.1826171875,0.986328125
1893,0.017578125,0.1748046875,0.96875
1894,0.0302734375,0.162109375,0.9814453125
1895,0.033203125,0.16796875,0.994140625
1896,0.02734375,0.166015625,0.9931640625
1897,0.0361328125,0.154296875,1.0029296875
1898,0.037109375,0.1484375,0.9990234375
1899,0.04296875,0.1513671875,1.0087890625
1900,0.04296875,0.1494140625,1.0166015625
1901,0.03125,0.1435546875,1.01953125
1902,0.029296875,0.1435546875,1.0146484375
1903,0.052734375,0.1318359375,1.0205078125
1904,0.0751953125,0.1328125,1.0205078125
1905,0.0966796875,0.1328125,1.0166015625
1906,0.1025390625,0.1416015625,1.0087890625
1907,0.109375,0.140625,1.0048828125
1908,0.1103515625,0.1494140625,0.9833984375
1909,0.103515625,0.1552734375,0.9716796875
1910,0.115234375,0.154296875,0.9638671875
1911,0.109375,0.16015625,0.95703125
1912,0.119140625,0.15625,0.96875
1913,0.115234375,0.1552734375,0.9794921875
1914,0.1025390625,0.1484375,0.9814453125
1915,0.1005859375,0.14453125,0.9775390625
1916,0.095703125,0.13671875,0.984375
1917,0.09765625,0.130859375,0.990234375
1918,0.1025390625,0.115234375,0.9990234375
1919,0.1005859375,0.1142578125,1.01171875
1920,0.10546875,0.10546875,1.013671875
1921,0.1025390625,0.1142578125,1.0234375
1922,0.109375,0.111328125,1.0302734375
1923,0.1298828125,0.123046875,1.029296875
1924,0.1494140625,0.1318359375,1.0234375
1925,0.16015625,0.14453125,1.017578125
1926,0.1640625,0.1533203125,1.0068359375
1927,0.1640625,0.162109375,0.9951171875
1928,0.1533203125,0.1767578125,0.98046875
1929,0.1591796875,0.1796875,0.9697265625
1930,0.150390625,0.185546875,0.9638671875
1931,0.140625,0.1865234375,0.9609375
1932,0.1376953125,0.18359375,0.9501953125
1933,0.1318359375,0.177734375,0.94921875
1934,0.1259765625,0.1748046875,0.9599609375
1935,0.125,0.1708984375,0.97265625
1936,0.1162109375,0.14453125,0.9775390625
1937,0.1044921875,0.1416015625,0.9951171875
1938,0.09765625,0.130859375,1.005859375
1939,0.09375,0.126953125,1.015625
1940,0.0947265625,0.1259765625,1.017578125
1941,0.1005859375,0.1162109375,1.0166015625
1942,0.0927734375,0.12890625,1.025390625
1943,0.0810546875,0.12890625,1.02734375
1944,0.08984375,0.1279296875,1.0244140625
1945,0.0849609375,0.1416015625,1.015625
1946,0.0908203125,0.1455078125,1.013671875
1947,0.0927734375,0.146484375,1.005859375
1948,0.0869140625,0.16015625,1.0
1949,0.0908203125,0.1630859375,1.0009765625
1950,0.0888671875,0.1689453125,0.9931640625
1951,0.0771484375,0.171875,0.9833984375
1952,0.0791015625,0.1748046875,0.9931640625
1953,0.076171875,0.1728515625,0.9853515625
1954,0.0751953125,0.171875,0.9853515625
1955,0.0771484375,0.1708984375,0.984375
1956,0.072265625,0.1669921875,0.9892578125
1957,0.0751953125,0.1748046875,0.9970703125
1958,0.076171875,0.1640625,0.9931640625
1959,0.07421875,0.16796875,1.0
1960,0.07421875,0.16796875,0.9970703125
1961,0.07421875,0.171875,0.9970703125
1962,0.0712890625,0.166015625,0.998046875
1963,0.0615234375,0.1748046875,0.9951171875
1964,0.0537109375,0.173828125,0.998046875
1965,0.0517578125,0.177734375,1.0
1966,0.0498046875,0.1796875,0.9951171875
1967,0.046875,0.1806640625,1.005859375
1968,0.046875,0.1806640625,1.0029296875
1969,0.0517578125,0.1796875,1.0029296875
1970,0.048828125,0.1748046875,0.9921875
1971,0.0517578125,0.17578125,0.990234375
1972,0.0478515625,0.169921875,0.986328125
1973,0.0419921875,0.1689453125,0.984375
1974,0.0361328125,0.171875,0.974609375
1975,0.0341796875,0.1640625,0.9736328125
1976,0.0419921875,0.1689453125,0.9794921875
1977,0.0390625,0.1640625,0.98046875
1978,0.037109375,0.1640625,0.986328125
1979,0.037109375,0.1650390625,0.986328125
1980,0.0322265625,0.173828125,0.9873046875
1981,0.025390625,0.1748046875,0.9951171875
1982,0.021484375,0.1767578125,0.9912109375
1983,0.015625,0.1767578125,0.9892578125
1984,0.009765625,0.18359375,0.9912109375
1985,0.009765625,0.1845703125,1.0
1986,0.01953125,0.189453125,0.998046875
1987,0.0205078125,0.193359375,0.99609375
1988,0.0234375,0.1943359375,0.9912109375
1989,0.0390625,0.1953125,0.9990234375
1990,0.0263671875,0.1904296875,0.998046875
1991,0.029296875,0.1865234375,0.990234375
1992,0.0380859375,0.1845703125,0.994140625
1993,0.0478515625,0.185546875,0.986328125
1994,0.0556640625,0.1826171875,0.984375
1995,0.052734375,0.177734375,0.9833984375
1996,0.0595703125,0.1806640625,0.9814453125
1997,0.060546875,0.1767578125,0.984375
1998,0.056640625,0.1806640625,0.9833984375
1999,0.0595703125,0.1767578125,0.984375
2000,0.0595703125,0.1796875,0.9921875
2001,0.0576171875,0.17578125,0.9951171875
2002,0.060546875,0.177734375,1.001953125
2003,0.0654296875,0.1748046875,1.00390625
2004,0.0546875,0.1728515625,0.9990234375
2005,0.0537109375,0.1708984375,0.998046875
2006,0.0439453125,0.1669921875,0.9931640625
2007,0.0419921875,0.1728515625,0.9931640625
2008,0.0458984375,0.162109375,1.0
2009,0.0439453125,0.16796875,0.9990234375
2010,0.0439453125,0.1572265625,0.9951171875
2011,0.046875,0.1669921875,1.0009765625
2012,0.052734375,0.162109375,1.0
2013,0.0537109375,0.1591796875,1.0029296875
2014,0.0556640625,0.158203125,1.0048828125
2015,0.0576171875,0.1669921875,1.009765625
2016,0.060546875,0.16796875,1.009765625
2017,0.0546875,0.1669921875,1.0078125
2018,0.0537109375,0.1630859375,1.0029296875
2019,0.05078125,0.1708984375,0.9990234375
2020,0.0546875,0.166015625,0.9921875
2021,0.0556640625,0.16796875,0.9951171875
2022,0.0576171875,0.169921875,0.9853515625
2023,0.0546875,0.171875,0.9794921875
2024,0.05859375,0.173828125,0.9833984375
2025,0.060546875,0.1767578125,0.9853515625
2026,0.0625,0.177734375,0.986328125
2027,0.068359375,0.1767578125,0.98828125
2028,0.0732421875,0.1748046875,0.990234375
2029,0.0693359375,0.17578125,0.9921875
2030,0.0654296875,0.169921875,0.9853515625
2031,0.0625,0.1640625,0.9931640625
2032,0.0576171875,0.16796875,0.9931640625
2033,0.0634765625,0.1591796875,0.98828125
2034,0.0576171875,0.1611328125,0.9873046875
2035,0.05859375,0.1552734375,0.9931640625
2036,0.056640625,0.146484375,0.98828125
2037,0.0576171875,0.1484375,0.986328125
2038,0.0595703125,0.150390625,0.9951171875
2039,0.0625,0.1484375,0.9951171875
2040,0.0654296875,0.1455078125,1.0
2041,0.06640625,0.15234375,0.9921875
2042,0.0654296875,0.1474609375,0.9912109375
2043,0.06640625,0.158203125,0.9873046875
2044,0.068359375,0.15625,0.9873046875
2045,0.0703125,0.15234375,0.9931640625
2046,0.072265625,0.1552734375,0.990234375
2047,0.072265625,0.15625,0.9912109375
2048,0.07421875,0.1640625,1.0
2049,0.076171875,0.166015625,0.994140625
2050,0.087890625,0.1640625,1.0
2051,0.0908203125,0.1630859375,0.9921875
2052,0.09375,0.1640625,0.994140625
2053,0.091796875,0.1611328125,0.9912109375
2054,0.0908203125,0.15625,0.99609375
2055,0.091796875,0.1650390625,0.9892578125
2056,0.0927734375,0.16015625,0.9873046875
2057,0.0947265625,0.166015625,0.9853515625
2058,0.095703125,0.1650390625,0.984375
2059,0.099609375,0.1708984375,0.9853515625
2060,0.1005859375,0.1708984375,0.986328125
2061,0.099609375,0.171875,0.98828125
2062,0.1005859375,0.17578125,0.984375
2063,0.1025390625,0.171875,0.98046875
2064,0.107421875,0.1748046875,0.9833984375
2065,0.1064453125,0.173828125,0.986328125
2066,0.1044921875,0.1669921875,0.986328125
2067,0.107421875,0.169921875,0.9814453125
2068,0.109375,0.171875,0.9853515625
2069,0.1083984375,0.1611328125,0.9853515625
2070,0.1123046875,0.15625,0.9873046875
2071,0.11328125,0.162109375,0.9970703125
2072,0.1064453125,0.15625,0.9970703125
2073,0.109375,0.1552734375,0.9921875
2074,0.1083984375,0.15234375,0.9921875
2075,0.1064453125,0.15625,0.9970703125
2076,0.103515625,0.15625,0.998046875
2077,0.107421875,0.1591796875,0.99609375
2078,0.099609375,0.162109375,0.98828125
2079,0.0947265625,0.1650390625,0.986328125
2080,0.09765625,0.162109375,0.984375
2081,0.0966796875,0.1669921875,0.9873046875
2082,0.09765625,0.1640625,0.9814453125
2083,0.0927734375,0.158203125,0.98828125
2084,0.0830078125,0.1650390625,0.9873046875
2085,0.0771484375,0.1708984375,0.9892578125
2086,0.0791015625,0.1630859375,0.9853515625
2087,0.0771484375,0.1708984375,0.990234375
2088,0.083984375,0.169921875,0.990234375
2089,0.078125,0.1708984375,0.99609375
2090,0.078125,0.1640625,0.9892578125
2091,0.076171875,0.16796875,0.9970703125
2092,0.0810546875,0.1669921875,0.994140625
2093,0.0791015625,0.1611328125,0.986328125
2094,0.0830078125,0.16796875,0.9921875
2095,0.0869140625,0.158203125,0.99609375
2096,0.0927734375,0.1640625,0.9970703125
2097,0.091796875,0.158203125,0.9931640625
2098,0.0888671875,0.1572265625,0.99609375
2099,0.0908203125,0.158203125,0.9873046875
2100,0.0927734375,0.1611328125,0.9912109375
2101,0.0927734375,0.1572265625,0.9921875
2102,0.095703125,0.162109375,0.9912109375
2103,0.0947265625,0.158203125,0.9912109375
2104,0.099609375,0.16015625,0.99609375
2105,0.091796875,0.1552734375,0.986328125
2106,0.0947265625,0.1572265625,0.98828125
2107,0.0947265625,0.1572265625,0.98828125
2108,0.091796875,0.16015625,0.986328125
2109,0.091796875,0.158203125,0.98828125
2110,0.091796875,0.150390625,0.984375
2111,0.0830078125,0.15625,0.98828125
2112,0.08984375,0.1572265625,0.9912109375
2113,0.0869140625,0.15625,0.99609375
2114,0.0849609375,0.15625,0.9912109375
2115,0.0859375,0.15234375,0.9892578125
2116,0.078125,0.154296875,0.9921875
2117,0.0771484375,0.1513671875,0.9931640625
2118,0.0751953125,0.1513671875,0.986328125
2119,0.080078125,0.15234375,0.9931640625
2120,0.080078125,0.15234375,0.9873046875
2121,0.0810546875,0.1533203125,0.990234375
2122,0.0869140625,0.1533203125,0.9912109375
2123,0.0908203125,0.1533203125,0.998046875
2124,0.0869140625,0.1572265625,0.9833984375
2125,0.0908203125,0.1552734375,0.98828125
2126,0.0908203125,0.158203125,0.984375
2127,0.0927734375,0.154296875,0.9912109375
2128,0.091796875,0.1474609375,0.9873046875
2129,0.0908203125,0.1494140625,0.99609375
2130,0.0908203125,0.1435546875,0.998046875
2131,0.080078125,0.1455078125,1.0
2132,0.087890625,0.146484375,1.0029296875
2133,0.0849609375,0.14453125,1.00390625
2134,0.080078125,0.14453125,1.0029296875
2135,0.083984375,0.1435546875,1.005859375
2136,0.076171875,0.14453125,1.0
2137,0.072265625,0.1416015625,0.99609375
2138,0.0751953125,0.1357421875,0.9951171875
2139,0.0751953125,0.134765625,0.9951171875
2140,0.076171875,0.1318359375,0.982421875
2141,0.08203125,0.1376953125,0.9833984375
2142,0.0810546875,0.1376953125,0.98046875
2143,0.0791015625,0.1357421875,0.98046875
2144,0.0869140625,0.1416015625,0.98828125
2145,0.083984375,0.1455078125,0.990234375
2146,0.080078125,0.1435546875,0.9873046875
2147,0.08984375,0.1484375,0.9853515625
2148,0.0908203125,0.150390625,0.9892578125
2149,0.091796875,0.150390625,0.9853515625
2150,0.091796875,0.154296875,0.9814453125
2151,0.0908203125,0.158203125,0.9853515625
2152,0.09375,0.1552734375,0.984375
2153,0.09765625,0.154296875,0.9921875
2154,0.0927734375,0.1572265625,0.9970703125
2155,0.0966796875,0.15625,0.9931640625
2156,0.09375,0.15234375,0.9931640625
2157,0.091796875,0.1533203125,0.9892578125
2158,0.091796875,0.1552734375,0.9921875
2159,0.091796875,0.150390625,0.984375
2160,0.0869140625,0.15234375,0.982421875
2161,0.080078125,0.1494140625,0.9833984375
2162,0.0908203125,0.1513671875,0.98828125
2163,0.0908203125,0.15234375,0.984375
2164,0.091796875,0.14453125,0.9873046875
2165,0.0849609375,0.150390625,0.9873046875
2166,0.0859375,0.1455078125,0.9892578125
2167,0.0791015625,0.1513671875,0.9951171875
2168,0.0888671875,0.1484375,0.9873046875
2169,0.091796875,0.146484375,0.9853515625
2170,0.0927734375,0.142578125,0.9912109375
2171,0.0927734375,0.1435546875,0.9921875
2172,0.0908203125,0.146484375,0.9912109375
2173,0.091796875,0.142578125,0.9873046875
2174,0.0888671875,0.1396484375,0.9892578125
2175,0.0849609375,0.1484375,0.9873046875
2176,0.0888671875,0.150390625,0.9873046875
2177,0.0888671875,0.142578125,0.9892578125
2178,0.08203125,0.140625,0.986328125
2179,0.0849609375,0.1435546875,0.99609375
2180,0.0771484375,0.1474609375,0.998046875
2181,0.078125,0.1494140625,0.99609375
2182,0.0791015625,0.150390625,0.99609375
2183,0.080078125,0.154296875,0.998046875
2184,0.080078125,0.15234375,0.9921875
2185,0.0908203125,0.1552734375,0.9892578125
2186,0.0859375,0.15234375,0.984375
2187,0.0859375,0.154296875,0.9892578125
2188,0.087890625,0.15625,0.9873046875
2189,0.087890625,0.1552734375,0.9833984375
2190,0.0849609375,0.1572265625,0.9873046875
2191,0.0859375,0.15234375,0.98828125
2192,0.0810546875,0.1494140625,0.98828125
2193,0.08203125,0.1484375,0.98828125
2194,0.0869140625,0.1484375,0.98828125
2195,0.091796875,0.1416015625,0.9921875
2196,0.0888671875,0.1474609375,0.998046875
2197,0.0888671875,0.1474609375,0.994140625
2198,0.0849609375,0.150390625,0.9951171875
2199,0.09375,0.1455078125,0.9970703125
2200,0.0927734375,0.1484375,1.0029296875
2201,0.1005859375,0.1484375,1.0009765625
2202,0.0966796875,0.1513671875,0.99609375
2203,0.0986328125,0.1494140625,0.994140625
2204,0.09375,0.154296875,0.9892578125
2205,0.091796875,0.1611328125,0.9853515625
2206,0.0859375,0.1611328125,0.9833984375
2207,0.08984375,0.1689453125,0.98046875
2208,0.083984375,0.162109375,0.98046875
2209,0.0869140625,0.16015625,0.984375
2210,0.083984375,0.1650390625,0.984375
2211,0.0888671875,0.158203125,0.9873046875
2212,0.083984375,0.158203125,0.9873046875
2213,0.0791015625,0.158203125,0.9921875
2214,0.080078125,0.158203125,0.9990234375
2215,0.0791015625,0.154296875,1.0
2216,0.0869140625,0.15625,0.9990234375
2217,0.083984375,0.1669921875,1.001953125
2218,0.0859375,0.1630859375,0.9951171875
2219,0.0849609375,0.16796875,0.9951171875
2220,0.0908203125,0.1728515625,0.990234375
2221,0.0849609375,0.1669921875,0.98828125
2222,0.08984375,0.1748046875,0.9892578125
2223,0.08984375,0.17578125,0.9892578125
2224,0.0888671875,0.171875,0.98828125
2225,0.08203125,0.17578125,0.9873046875
2226,0.076171875,0.1669921875,0.9853515625
2227,0.0791015625,0.173828125,0.98828125
2228,0.078125,0.1689453125,0.9921875
2229,0.0791015625,0.1689453125,0.98828125
2230,0.0771484375,0.171875,0.9970703125
2231,0.0771484375,0.1669921875,0.99609375
2232,0.083984375,0.1630859375,0.9921875
2233,0.0849609375,0.169921875,0.9970703125
2234,0.091796875,0.173828125,0.9931640625
2235,0.0927734375,0.171875,0.9931640625
2236,0.0908203125,0.1708984375,0.9873046875
2237,0.091796875,0.16796875,0.9931640625
2238,0.08984375,0.1669921875,0.9853515625
2239,0.091796875,0.1728515625,0.9833984375
2240,0.0966796875,0.1640625,0.986328125
2241,0.095703125,0.1708984375,0.9892578125
2242,0.083984375,0.16796875,0.98046875
2243,0.0830078125,0.1513671875,1.0107421875
2244,0.111328125,0.1669921875,0.994140625
2245,0.0908203125,0.173828125,0.984375
2246,0.0927734375,0.1708984375,0.9873046875
2247,0.0830078125,0.1748046875,0.9873046875
2248,0.0791015625,0.1748046875,0.98828125
2249,0.0888671875,0.1767578125,0.9921875
2250,0.076171875,0.17578125,0.98828125
2251,0.08203125,0.177734375,0.9931640625
2252,0.08203125,0.1748046875,0.9912109375
2253,0.0888671875,0.1806640625,0.9873046875
2254,0.091796875,0.1787109375,0.9833984375
2255,0.0927734375,0.1767578125,0.9873046875
2256,0.0908203125,0.18359375,0.98828125
2257,0.0859375,0.1845703125,0.98046875
2258,0.08984375,0.181640625,0.984375
2259,0.0869140625,0.1787109375,0.986328125
2260,0.0791015625,0.177734375,0.9833984375
2261,0.078125,0.17578125,0.98828125
2262,0.0908203125,0.17578125,0.98828125
2263,0.083984375,0.1826171875,0.9873046875
2264,0.0791015625,0.1787109375,0.986328125
2265,0.080078125,0.1796875,0.9921875
2266,0.083984375,0.17578125,0.986328125
2267,0.0771484375,0.1806640625,0.98828125
2268,0.078125,0.18359375,0.98828125
2269,0.087890625,0.1865234375,0.9951171875
2270,0.0888671875,0.181640625,0.994140625
2271,0.091796875,0.189453125,0.984375
2272,0.0888671875,0.189453125,0.9873046875
2273,0.083984375,0.1875,0.9833984375
2274,0.087890625,0.1904296875,0.982421875
2275,0.0869140625,0.1943359375,0.98046875
2276,0.0869140625,0.193359375,0.982421875
2277,0.0888671875,0.1982421875,0.9833984375
2278,0.0830078125,0.1943359375,0.9833984375
2279,0.0908203125,0.1943359375,0.9892578125
2280,0.083984375,0.1962890625,0.986328125
2281,0.08984375,0.19140625,0.98828125
2282,0.0869140625,0.193359375,0.98828125
2283,0.091796875,0.193359375,0.9921875
2284,0.0859375,0.193359375,0.986328125
2285,0.08984375,0.193359375,0.9873046875
2286,0.08203125,0.1962890625,0.984375
2287,0.0791015625,0.19921875,0.982421875
2288,0.080078125,0.1953125,0.9853515625
2289,0.072265625,0.201171875,0.984375
2290,0.078125,0.1953125,0.984375
2291,0.076171875,0.201171875,0.98828125
2292,0.078125,0.1982421875,0.984375
2293,0.078125,0.19921875,0.9873046875
2294,0.072265625,0.201171875,0.9833984375
2295,0.0771484375,0.2041015625,0.9951171875
2296,0.0771484375,0.2080078125,0.9921875
2297,0.0810546875,0.2119140625,0.9951171875
2298,0.078125,0.212890625,0.9931640625
2299,0.07421875,0.203125,0.9912109375
2300,0.0771484375,0.19921875,0.984375
2301,0.08203125,0.19921875,0.978515625
2302,0.0908203125,0.1982421875,0.974609375
2303,0.087890625,0.1962890625,0.978515625
2304,0.08984375,0.1923828125,0.978515625
2305,0.0849609375,0.1953125,0.984375
2306,0.091796875,0.1962890625,0.9853515625
2307,0.0908203125,0.1982421875,0.986328125
2308,0.0927734375,0.2001953125,0.986328125
2309,0.0908203125,0.1982421875,0.9892578125
2310,0.09375,0.2001953125,0.986328125
2311,0.08984375,0.20703125,0.9794921875
2312,0.0849609375,0.203125,0.9775390625
2313,0.083984375,0.212890625,0.978515625
2314,0.083984375,0.2099609375,0.9765625
2315,0.087890625,0.2177734375,0.9775390625
2316,0.0849609375,0.2158203125,0.974609375
2317,0.0869140625,0.216796875,0.9853515625
2318,0.0791015625,0.21875,0.98046875
2319,0.0791015625,0.2197265625,0.9833984375
2320,0.0771484375,0.2236328125,0.984375
2321,0.07421875,0.2216796875,0.978515625
2322,0.0703125,0.224609375,0.9814453125
2323,0.0771484375,0.2294921875,0.984375
2324,0.0751953125,0.2236328125,0.9892578125
2325,0.0732421875,0.2216796875,0.9912109375
2326,0.0791015625,0.2236328125,0.982421875
2327,0.0771484375,0.2255859375,0.984375
2328,0.0791015625,0.2314453125,0.9794921875
2329,0.0751953125,0.2294921875,0.982421875
2330,0.078125,0.228515625,0.982421875
2331,0.0791015625,0.2265625,0.9814453125
2332,0.0849609375,0.2255859375,0.9736328125
2333,0.0810546875,0.228515625,0.9775390625
2334,0.0869140625,0.2255859375,0.9814453125
2335,0.0810546875,0.2314453125,0.9794921875
2336,0.083984375,0.2314453125,0.982421875
2337,0.078125,0.2294921875,0.9814453125
2338,0.078125,0.2294921875,0.9833984375
2339,0.080078125,0.23046875,0.9794921875
2340,0.0771484375,0.228515625,0.98046875
2341,0.0869140625,0.23046875,0.982421875
2342,0.080078125,0.2236328125,0.98046875
2343,0.0771484375,0.2333984375,0.9873046875
2344,0.076171875,0.23046875,0.98046875
2345,0.0751953125,0.2333984375,0.978515625
2346,0.07421875,0.2265625,0.9833984375
2347,0.0791015625,0.232421875,0.9765625
2348,0.078125,0.236328125,0.98046875
2349,0.0791015625,0.2333984375,0.9755859375
2350,0.0751953125,0.234375,0.98046875
2351,0.072265625,0.2353515625,0.978515625
2352,0.07421875,0.23828125,0.9736328125
2353,0.0791015625,0.2353515625,0.9755859375
2354,0.0791015625,0.2412109375,0.9755859375
2355,0.078125,0.2392578125,0.9775390625
2356,0.0830078125,0.2392578125,0.9794921875
2357,0.0771484375,0.2333984375,0.9833984375
2358,0.078125,0.2392578125,0.98046875
2359,0.0791015625,0.23828125,0.9814453125
2360,0.078125,0.2333984375,0.98046875
2361,0.07421875,0.2353515625,0.9814453125
2362,0.078125,0.234375,0.9814453125
2363,0.078125,0.23828125,0.98046875
2364,0.078125,0.2353515625,0.978515625
2365,0.076171875,0.2412109375,0.9853515625
2366,0.0732421875,0.23828125,0.982421875
2367,0.0751953125,0.2373046875,0.9736328125
2368,0.076171875,0.2412109375,0.9755859375
2369,0.0791015625,0.240234375,0.974609375
2370,0.08203125,0.2412109375,0.96875
2371,0.083984375,0.236328125,0.974609375
2372,0.080078125,0.2490234375,0.9716796875
2373,0.078125,0.2451171875,0.9716796875
2374,0.0771484375,0.2431640625,0.9736328125
2375,0.0771484375,0.244140625,0.9775390625
2376,0.0791015625,0.2421875,0.9755859375
2377,0.0771484375,0.240234375,0.984375
2378,0.0810546875,0.2392578125,0.982421875
2379,0.078125,0.2451171875,0.9814453125
2380,0.0791015625,0.244140625,0.978515625
2381,0.0771484375,0.2431640625,0.9765625
2382,0.076171875,0.2490234375,0.9794921875
2383,0.076171875,0.2509765625,0.98046875
2384,0.0751953125,0.2470703125,0.9755859375
2385,0.0791015625,0.25390625,0.9794921875
2386,0.076171875,0.251953125,0.974609375
2387,0.076171875,0.251953125,0.9755859375
2388,0.0732421875,0.2529296875,0.974609375
2389,0.0751953125,0.2490234375,0.978515625
2390,0.0791015625,0.25,0.970703125
2391,0.08203125,0.2509765625,0.9716796875
2392,0.078125,0.251953125,0.98046875
2393,0.078125,0.248046875,0.98046875
2394,0.0791015625,0.25,0.9765625
2395,0.0791015625,0.2451171875,0.978515625
2396,0.076171875,0.2451171875,0.978515625
2397,0.0791015625,0.248046875,0.974609375
2398,0.0791015625,0.2431640625,0.982421875
2399,0.0830078125,0.2470703125,0.9765625
