,accelerometerAccelerationX(G),accelerometerAccelerationY(G),accelerometerAccelerationZ(G)
0,0.056640625,-0.9599609375,0.0009765625
1,0.0546875,-0.958984375,0.001953125
2,0.0576171875,-0.9580078125,0.00390625
3,0.0576171875,-0.9580078125,0.0029296875
4,0.0595703125,-0.9599609375,0.005859375
5,0.05859375,-0.9599609375,0.005859375
6,0.05859375,-0.9599609375,0.0087890625
7,0.0615234375,-0.958984375,0.0078125
8,0.0625,-0.9619140625,0.0068359375
9,0.060546875,-0.9609375,0.0078125
10,0.0595703125,-0.962890625,0.0029296875
11,0.0556640625,-0.9580078125,0.00390625
12,0.0556640625,-0.958984375,0.0009765625
13,0.0625,-0.955078125,0.0078125
14,0.0595703125,-0.9619140625,0.013671875
15,0.0595703125,-0.9560546875,0.009765625
16,0.0595703125,-0.9521484375,0.0126953125
17,0.0546875,-0.9560546875,0.0078125
18,0.056640625,-0.953125,0.01171875
19,0.0546875,-0.958984375,0.013671875
20,0.0546875,-0.9541015625,0.0126953125
21,0.0498046875,-0.9599609375,0.0166015625
22,0.0576171875,-0.9619140625,0.013671875
23,0.0595703125,-0.95703125,0.013671875
24,0.0546875,-0.958984375,0.0126953125
25,0.0556640625,-0.9580078125,0.013671875
26,0.0625,-0.9609375,0.0146484375
27,0.056640625,-0.962890625,0.0166015625
28,0.056640625,-0.958984375,0.0126953125
29,0.0576171875,-0.9599609375,0.013671875
30,0.0615234375,-0.9619140625,0.013671875
31,0.0634765625,-0.9609375,0.017578125
32,0.05859375,-0.958984375,0.0166015625
33,0.0634765625,-0.9599609375,0.013671875
34,0.0595703125,-0.9580078125,0.013671875
35,0.064453125,-0.95703125,0.015625
36,0.0634765625,-0.962890625,0.013671875
37,0.064453125,-0.9541015625,0.009765625
38,0.064453125,-0.953125,0.0146484375
39,0.0625,-0.953125,0.009765625
40,0.060546875,-0.9560546875,0.0146484375
41,0.0576171875,-0.953125,0.0126953125
42,0.0537109375,-0.9541015625,0.0146484375
43,0.0556640625,-0.9580078125,0.0185546875
44,0.0576171875,-0.9609375,0.0166015625
45,0.0556640625,-0.95703125,0.017578125
46,0.0546875,-0.95703125,0.0146484375
47,0.0595703125,-0.95703125,0.013671875
48,0.0546875,-0.9541015625,0.0126953125
49,0.052734375,-0.9609375,0.01171875
50,0.060546875,-0.9560546875,0.0107421875
51,0.0556640625,-0.9599609375,0.01171875
52,0.0625,-0.9560546875,0.0126953125
53,0.05859375,-0.953125,0.0146484375
54,0.0654296875,-0.9580078125,0.0126953125
55,0.0625,-0.958984375,0.009765625
56,0.05859375,-0.9541015625,0.013671875
57,0.056640625,-0.9609375,0.017578125
58,0.0576171875,-0.962890625,0.0185546875
59,0.0576171875,-0.9609375,0.01953125
60,0.056640625,-0.9619140625,0.015625
61,0.0556640625,-0.9619140625,0.0234375
62,0.0556640625,-0.9599609375,0.0224609375
63,0.056640625,-0.958984375,0.0263671875
64,0.0517578125,-0.962890625,0.0205078125
65,0.0537109375,-0.9619140625,0.0166015625
66,0.056640625,-0.9677734375,0.0146484375
67,0.056640625,-0.9609375,0.0126953125
68,0.05859375,-0.9619140625,0.0078125
69,0.0615234375,-0.9580078125,0.0107421875
70,0.064453125,-0.9580078125,0.013671875
71,0.064453125,-0.9560546875,0.0107421875
72,0.0576171875,-0.95703125,0.0166015625
73,0.0625,-0.95703125,0.0087890625
74,0.0625,-0.95703125,0.0166015625
75,0.0673828125,-0.9560546875,0.0166015625
76,0.056640625,-0.9599609375,0.0205078125
77,0.0546875,-0.9619140625,0.017578125
78,0.056640625,-0.95703125,0.0166015625
79,0.0595703125,-0.962890625,0.017578125
80,0.0634765625,-0.9609375,0.0185546875
81,0.0615234375,-0.9619140625,0.0224609375
82,0.0576171875,-0.958984375,0.0244140625
83,0.0615234375,-0.96484375,0.01953125
84,0.05859375,-0.9619140625,0.01953125
85,0.0546875,-0.958984375,0.0205078125
86,0.0576171875,-0.9599609375,0.0185546875
87,0.05859375,-0.955078125,0.01953125
88,0.0556640625,-0.9638671875,0.0205078125
89,0.056640625,-0.9560546875,0.01953125
90,0.0595703125,-0.9580078125,0.0166015625
91,0.0556640625,-0.9599609375,0.01953125
92,0.056640625,-0.95703125,0.0185546875
93,0.0595703125,-0.9619140625,0.0126953125
94,0.0537109375,-0.9609375,0.0185546875
95,0.0576171875,-0.962890625,0.01171875
96,0.056640625,-0.9658203125,0.013671875
97,0.0595703125,-0.95703125,0.013671875
98,0.05078125,-0.9619140625,0.0146484375
99,0.056640625,-0.958984375,0.0205078125
100,0.0537109375,-0.9560546875,0.0185546875
101,0.0537109375,-0.958984375,0.0205078125
102,0.0576171875,-0.9599609375,0.0205078125
103,0.056640625,-0.962890625,0.021484375
104,0.0498046875,-0.9609375,0.0224609375
105,0.0517578125,-0.958984375,0.01953125
106,0.0556640625,-0.9619140625,0.01953125
107,0.056640625,-0.9609375,0.0234375
108,0.0546875,-0.958984375,0.021484375
109,0.0517578125,-0.9609375,0.01953125
110,0.0537109375,-0.958984375,0.025390625
111,0.0556640625,-0.958984375,0.0205078125
112,0.0556640625,-0.958984375,0.017578125
113,0.0556640625,-0.9619140625,0.0185546875
114,0.0517578125,-0.9560546875,0.0166015625
115,0.0595703125,-0.9609375,0.0205078125
116,0.060546875,-0.9599609375,0.015625
117,0.05859375,-0.9609375,0.013671875
118,0.056640625,-0.9599609375,0.01953125
119,0.0595703125,-0.962890625,0.017578125
120,0.0595703125,-0.9619140625,0.0166015625
121,0.052734375,-0.9619140625,0.0224609375
122,0.0546875,-0.9560546875,0.017578125
123,0.0595703125,-0.96484375,0.0146484375
124,0.0556640625,-0.9619140625,0.01953125
125,0.0556640625,-0.9619140625,0.01953125
126,0.0576171875,-0.9599609375,0.0166015625
127,0.0595703125,-0.9609375,0.01953125
128,0.05859375,-0.9541015625,0.0185546875
129,0.060546875,-0.9599609375,0.017578125
130,0.060546875,-0.95703125,0.021484375
131,0.0615234375,-0.9599609375,0.0205078125
132,0.060546875,-0.955078125,0.0166015625
133,0.05859375,-0.9541015625,0.0244140625
134,0.056640625,-0.9619140625,0.0224609375
135,0.05859375,-0.962890625,0.0205078125
136,0.0576171875,-0.9560546875,0.0224609375
137,0.0546875,-0.9560546875,0.0234375
138,0.0556640625,-0.9580078125,0.01953125
139,0.052734375,-0.9580078125,0.0234375
140,0.05859375,-0.9580078125,0.0166015625
141,0.056640625,-0.9619140625,0.0224609375
142,0.0537109375,-0.9599609375,0.0234375
143,0.0546875,-0.9599609375,0.0166015625
144,0.0546875,-0.958984375,0.01953125
145,0.052734375,-0.9638671875,0.0234375
146,0.0517578125,-0.958984375,0.0224609375
147,0.052734375,-0.9599609375,0.021484375
148,0.0576171875,-0.955078125,0.0224609375
149,0.0576171875,-0.9619140625,0.025390625
150,0.056640625,-0.958984375,0.0244140625
151,0.056640625,-0.9580078125,0.02734375
152,0.0556640625,-0.9560546875,0.0244140625
153,0.056640625,-0.9580078125,0.0263671875
154,0.0546875,-0.9560546875,0.0263671875
155,0.0556640625,-0.962890625,0.0234375
156,0.0556640625,-0.95703125,0.0234375
157,0.0537109375,-0.9619140625,0.0205078125
158,0.052734375,-0.9580078125,0.0185546875
159,0.0537109375,-0.9580078125,0.0205078125
160,0.052734375,-0.9580078125,0.0263671875
161,0.0537109375,-0.9619140625,0.0244140625
162,0.0556640625,-0.958984375,0.02734375
163,0.052734375,-0.958984375,0.0263671875
164,0.0546875,-0.9609375,0.0234375
165,0.0537109375,-0.962890625,0.0166015625
166,0.0517578125,-0.958984375,0.0185546875
167,0.0546875,-0.9560546875,0.0166015625
168,0.05859375,-0.95703125,0.01953125
169,0.05859375,-0.9560546875,0.021484375
170,0.060546875,-0.958984375,0.0244140625
171,0.0634765625,-0.958984375,0.02734375
172,0.05859375,-0.95703125,0.0283203125
173,0.0576171875,-0.958984375,0.0263671875
174,0.0615234375,-0.9560546875,0.0244140625
175,0.056640625,-0.9599609375,0.0283203125
176,0.0498046875,-0.9580078125,0.0302734375
177,0.0498046875,-0.9541015625,0.0283203125
178,0.05078125,-0.9609375,0.0263671875
179,0.048828125,-0.95703125,0.03125
180,0.0498046875,-0.955078125,0.0283203125
181,0.0537109375,-0.958984375,0.02734375
182,0.052734375,-0.9609375,0.025390625
183,0.0546875,-0.9599609375,0.0234375
184,0.056640625,-0.9599609375,0.025390625
185,0.0546875,-0.9541015625,0.0205078125
186,0.0546875,-0.9580078125,0.01953125
187,0.05859375,-0.958984375,0.0185546875
188,0.060546875,-0.958984375,0.0185546875
189,0.0595703125,-0.95703125,0.0185546875
190,0.060546875,-0.9580078125,0.017578125
191,0.0625,-0.962890625,0.0185546875
192,0.056640625,-0.9638671875,0.01953125
193,0.0634765625,-0.9580078125,0.0234375
194,0.0625,-0.962890625,0.0205078125
195,0.0625,-0.96484375,0.0263671875
196,0.060546875,-0.9609375,0.0263671875
197,0.05859375,-0.9599609375,0.0244140625
198,0.0546875,-0.962890625,0.0244140625
199,0.0615234375,-0.9609375,0.0224609375
200,0.0595703125,-0.9638671875,0.0244140625
201,0.0556640625,-0.9560546875,0.0283203125
202,0.052734375,-0.95703125,0.0234375
203,0.0576171875,-0.962890625,0.0234375
204,0.056640625,-0.9560546875,0.0224609375
205,0.056640625,-0.958984375,0.0302734375
206,0.060546875,-0.9609375,0.0244140625
207,0.0615234375,-0.962890625,0.0244140625
208,0.05859375,-0.9638671875,0.0322265625
209,0.0556640625,-0.9638671875,0.0302734375
210,0.0537109375,-0.9638671875,0.0283203125
211,0.0576171875,-0.9658203125,0.0263671875
212,0.05859375,-0.9638671875,0.025390625
213,0.0576171875,-0.9609375,0.025390625
214,0.056640625,-0.953125,0.021484375
215,0.0517578125,-0.9619140625,0.0244140625
216,0.0546875,-0.9560546875,0.0205078125
217,0.0537109375,-0.9541015625,0.0205078125
218,0.060546875,-0.9521484375,0.017578125
219,0.05859375,-0.9560546875,0.0166015625
220,0.0576171875,-0.958984375,0.0205078125
221,0.05859375,-0.9580078125,0.01953125
222,0.05859375,-0.958984375,0.021484375
223,0.0576171875,-0.9599609375,0.01953125
224,0.0576171875,-0.958984375,0.025390625
225,0.056640625,-0.9580078125,0.0166015625
226,0.056640625,-0.9619140625,0.0224609375
227,0.0576171875,-0.958984375,0.01953125
228,0.0576171875,-0.9619140625,0.01953125
229,0.0576171875,-0.95703125,0.0107421875
230,0.0595703125,-0.95703125,0.017578125
231,0.0556640625,-0.9560546875,0.0126953125
232,0.05859375,-0.9580078125,0.009765625
233,0.0546875,-0.9580078125,0.013671875
234,0.0546875,-0.9619140625,0.013671875
235,0.0556640625,-0.9560546875,0.0205078125
236,0.0556640625,-0.9599609375,0.01953125
237,0.0595703125,-0.958984375,0.01953125
238,0.0595703125,-0.9609375,0.021484375
239,0.0576171875,-0.9560546875,0.0205078125
240,0.0556640625,-0.955078125,0.017578125
241,0.0595703125,-0.95703125,0.021484375
242,0.05859375,-0.9580078125,0.0224609375
243,0.05859375,-0.9560546875,0.021484375
244,0.0556640625,-0.9599609375,0.01953125
245,0.060546875,-0.951171875,0.0205078125
246,0.0576171875,-0.9541015625,0.017578125
247,0.0634765625,-0.95703125,0.015625
248,0.060546875,-0.958984375,0.0205078125
249,0.0576171875,-0.955078125,0.025390625
250,0.056640625,-0.9580078125,0.01953125
251,0.052734375,-0.9580078125,0.0166015625
252,0.056640625,-0.9599609375,0.0146484375
253,0.0537109375,-0.955078125,0.013671875
254,0.052734375,-0.95703125,0.01171875
255,0.052734375,-0.95703125,0.01171875
256,0.0498046875,-0.95703125,0.0078125
257,0.0556640625,-0.9580078125,0.01171875
258,0.0537109375,-0.9580078125,0.0078125
259,0.05078125,-0.9599609375,0.009765625
260,0.0498046875,-0.9609375,0.005859375
261,0.0546875,-0.9541015625,0.009765625
262,0.0576171875,-0.95703125,0.0107421875
263,0.052734375,-0.9619140625,0.0126953125
264,0.0556640625,-0.9609375,0.0146484375
265,0.0595703125,-0.958984375,0.013671875
266,0.0576171875,-0.9580078125,0.013671875
267,0.0576171875,-0.9619140625,0.01953125
268,0.05859375,-0.96484375,0.0185546875
269,0.056640625,-0.9609375,0.01953125
270,0.056640625,-0.9619140625,0.013671875
271,0.0556640625,-0.96484375,0.0185546875
272,0.060546875,-0.9609375,0.0185546875
273,0.0556640625,-0.9609375,0.015625
274,0.056640625,-0.951171875,0.0166015625
275,0.052734375,-0.9541015625,0.0185546875
276,0.0517578125,-0.9580078125,0.0185546875
277,0.0556640625,-0.953125,0.017578125
278,0.0498046875,-0.9541015625,0.0126953125
279,0.052734375,-0.953125,0.0146484375
280,0.052734375,-0.955078125,0.0166015625
281,0.056640625,-0.953125,0.013671875
282,0.0546875,-0.9560546875,0.0126953125
283,0.0537109375,-0.9521484375,0.01953125
284,0.0556640625,-0.9560546875,0.0107421875
285,0.0556640625,-0.958984375,0.013671875
286,0.0546875,-0.955078125,0.013671875
287,0.0546875,-0.958984375,0.0107421875
288,0.056640625,-0.9638671875,0.01171875
289,0.0615234375,-0.9638671875,0.009765625
290,0.0634765625,-0.9619140625,0.015625
291,0.05859375,-0.9609375,0.0107421875
292,0.05859375,-0.9638671875,0.01171875
293,0.0576171875,-0.962890625,0.0126953125
294,0.0595703125,-0.9580078125,0.009765625
295,0.056640625,-0.9580078125,0.0107421875
296,0.0537109375,-0.95703125,0.0029296875
297,0.05859375,-0.962890625,0.009765625
298,0.0537109375,-0.9609375,0.0048828125
299,0.048828125,-0.95703125,0.0126953125
300,0.0517578125,-0.958984375,0.0087890625
301,0.056640625,-0.955078125,0.0146484375
302,0.056640625,-0.95703125,0.01171875
303,0.060546875,-0.9599609375,0.0126953125
304,0.0537109375,-0.955078125,0.0029296875
305,0.0634765625,-0.9638671875,0.0107421875
306,0.05859375,-0.9658203125,0.0029296875
307,0.0634765625,-0.96875,0.0048828125
308,0.060546875,-0.9658203125,-0.001953125
309,0.05859375,-0.970703125,-0.0029296875
310,0.05859375,-0.9736328125,-0.005859375
311,0.0615234375,-0.9716796875,0.0
312,0.0673828125,-0.974609375,0.005859375
313,0.056640625,-0.9814453125,0.0166015625
314,0.048828125,-0.9814453125,0.0107421875
315,0.0478515625,-0.982421875,0.0107421875
316,0.0595703125,-0.9892578125,0.0087890625
317,0.0458984375,-0.984375,0.0029296875
318,0.04296875,-0.982421875,0.005859375
319,0.0654296875,-0.97265625,0.0048828125
320,0.05859375,-0.9716796875,-0.0009765625
321,0.072265625,-0.958984375,0.0068359375
322,0.083984375,-0.9560546875,0.005859375
323,0.0791015625,-0.9599609375,0.0126953125
324,0.0615234375,-0.9638671875,0.017578125
325,0.060546875,-0.9462890625,0.0166015625
326,0.0654296875,-0.9443359375,0.00390625
327,0.0712890625,-0.94140625,0.00390625
328,0.0673828125,-0.9267578125,-0.0068359375
329,0.064453125,-0.9267578125,-0.0185546875
330,0.072265625,-0.9287109375,-0.017578125
331,0.0771484375,-0.9482421875,-0.017578125
332,0.0771484375,-0.9560546875,-0.01953125
333,0.0771484375,-0.9638671875,-0.0244140625
334,0.076171875,-0.970703125,-0.021484375
335,0.076171875,-0.9755859375,-0.0302734375
336,0.064453125,-0.98046875,-0.0244140625
337,0.0732421875,-1.0029296875,-0.037109375
338,0.0576171875,-0.9912109375,-0.0283203125
339,0.0556640625,-0.9814453125,-0.037109375
340,0.068359375,-0.9775390625,-0.0498046875
341,0.0537109375,-0.96875,-0.0537109375
342,0.033203125,-0.9609375,-0.0615234375
343,0.025390625,-0.9619140625,-0.06640625
344,0.0224609375,-0.9599609375,-0.0576171875
345,0.041015625,-0.96484375,-0.0595703125
346,0.0263671875,-0.95703125,-0.0595703125
347,0.0234375,-0.9560546875,-0.0615234375
348,0.0390625,-0.955078125,-0.06640625
349,0.03125,-0.9453125,-0.0625
350,0.0283203125,-0.95703125,-0.0712890625
351,0.037109375,-0.9580078125,-0.060546875
352,0.04296875,-0.951171875,-0.060546875
353,0.0576171875,-0.958984375,-0.0673828125
354,0.060546875,-0.9609375,-0.060546875
355,0.0576171875,-0.9599609375,-0.06640625
356,0.0576171875,-0.955078125,-0.0712890625
357,0.046875,-0.943359375,-0.0771484375
358,0.0556640625,-0.9365234375,-0.0966796875
359,0.052734375,-0.9462890625,-0.103515625
360,0.0380859375,-0.953125,-0.1044921875
361,0.03125,-0.947265625,-0.0966796875
362,0.029296875,-0.9521484375,-0.0947265625
363,0.03125,-0.9384765625,-0.0849609375
364,0.01953125,-0.923828125,-0.0849609375
365,0.0263671875,-0.9169921875,-0.0791015625
366,0.0078125,-0.9208984375,-0.083984375
367,0.0185546875,-0.9306640625,-0.0771484375
368,-0.00390625,-0.9228515625,-0.06640625
369,-0.0048828125,-0.904296875,-0.0546875
370,-0.0126953125,-0.884765625,-0.0537109375
371,-0.0146484375,-0.8642578125,-0.0595703125
372,0.01171875,-0.876953125,-0.068359375
373,0.017578125,-0.8857421875,-0.064453125
374,0.0126953125,-0.892578125,-0.064453125
375,0.021484375,-0.89453125,-0.0654296875
376,0.021484375,-0.90625,-0.068359375
377,0.0205078125,-0.8974609375,-0.072265625
378,0.0390625,-0.8994140625,-0.080078125
379,0.0419921875,-0.8916015625,-0.0830078125
380,0.048828125,-0.88671875,-0.08984375
381,0.05859375,-0.8876953125,-0.095703125
382,0.0751953125,-0.873046875,-0.1162109375
383,0.072265625,-0.8505859375,-0.1220703125
384,0.068359375,-0.8310546875,-0.1328125
385,0.0625,-0.8251953125,-0.138671875
386,0.0498046875,-0.818359375,-0.138671875
387,0.037109375,-0.80859375,-0.1396484375
388,0.01953125,-0.8037109375,-0.1376953125
389,0.0244140625,-0.8037109375,-0.1328125
390,0.046875,-0.775390625,-0.1337890625
391,0.0283203125,-0.7587890625,-0.1259765625
392,0.0166015625,-0.78515625,-0.107421875
393,0.0009765625,-0.806640625,-0.0888671875
394,0.0029296875,-0.8046875,-0.09375
395,0.009765625,-0.7978515625,-0.1083984375
396,0.009765625,-0.7900390625,-0.11328125
397,0.0068359375,-0.7783203125,-0.130859375
398,0.015625,-0.759765625,-0.1474609375
399,0.029296875,-0.744140625,-0.1533203125
400,0.0322265625,-0.7255859375,-0.1591796875
401,0.0224609375,-0.71875,-0.158203125
402,0.0234375,-0.7197265625,-0.138671875
403,0.0185546875,-0.7236328125,-0.12890625
404,0.0166015625,-0.7509765625,-0.125
405,0.01171875,-0.7626953125,-0.1142578125
406,0.00390625,-0.763671875,-0.1123046875
407,-0.00390625,-0.7724609375,-0.123046875
408,-0.001953125,-0.7734375,-0.130859375
409,0.0078125,-0.765625,-0.1416015625
410,0.0087890625,-0.759765625,-0.1611328125
411,0.0166015625,-0.763671875,-0.16796875
412,-0.00390625,-0.759765625,-0.171875
413,-0.009765625,-0.759765625,-0.169921875
414,-0.0078125,-0.767578125,-0.1650390625
415,-0.009765625,-0.7646484375,-0.150390625
416,-0.0341796875,-0.7734375,-0.1474609375
417,-0.0498046875,-0.7939453125,-0.1435546875
418,-0.0634765625,-0.826171875,-0.1376953125
419,-0.0576171875,-0.8642578125,-0.1640625
420,-0.0673828125,-0.8505859375,-0.181640625
421,-0.060546875,-0.8310546875,-0.19140625
422,-0.041015625,-0.80078125,-0.2021484375
423,-0.0146484375,-0.7841796875,-0.197265625
424,0.0224609375,-0.7607421875,-0.197265625
425,0.0458984375,-0.7294921875,-0.2060546875
426,0.0625,-0.6962890625,-0.2109375
427,0.09375,-0.654296875,-0.216796875
428,0.044921875,-0.6044921875,-0.2197265625
429,0.0576171875,-0.57421875,-0.2109375
430,0.0673828125,-0.5615234375,-0.20703125
431,0.0615234375,-0.541015625,-0.197265625
432,0.0537109375,-0.5283203125,-0.2001953125
433,0.0302734375,-0.53515625,-0.1923828125
434,-0.0087890625,-0.55078125,-0.1728515625
435,-0.029296875,-0.5810546875,-0.1513671875
436,-0.0390625,-0.6171875,-0.11328125
437,-0.0458984375,-0.650390625,-0.0791015625
438,-0.04296875,-0.7021484375,-0.06640625
439,-0.03515625,-0.75,-0.05859375
440,-0.0244140625,-0.7900390625,-0.0703125
441,-0.0166015625,-0.8115234375,-0.0966796875
442,0.0078125,-0.8173828125,-0.1455078125
443,0.0224609375,-0.8251953125,-0.1962890625
444,0.0439453125,-0.8154296875,-0.2431640625
445,0.0693359375,-0.8056640625,-0.27734375
446,0.076171875,-0.7900390625,-0.3203125
447,0.087890625,-0.78515625,-0.3564453125
448,0.099609375,-0.7900390625,-0.375
449,0.12109375,-0.794921875,-0.3828125
450,0.142578125,-0.8017578125,-0.3798828125
451,0.1689453125,-0.7822265625,-0.365234375
452,0.1806640625,-0.7724609375,-0.3515625
453,0.1806640625,-0.787109375,-0.3173828125
454,0.173828125,-0.7890625,-0.298828125
455,0.1572265625,-0.8095703125,-0.267578125
456,0.1494140625,-0.828125,-0.23828125
457,0.140625,-0.80859375,-0.2158203125
458,0.107421875,-0.8291015625,-0.20703125
459,0.0947265625,-0.8642578125,-0.205078125
460,0.087890625,-0.869140625,-0.203125
461,0.0908203125,-0.8740234375,-0.2099609375
462,0.0634765625,-0.8828125,-0.2099609375
463,0.05078125,-0.8876953125,-0.2138671875
464,0.0419921875,-0.888671875,-0.2177734375
465,0.005859375,-0.880859375,-0.224609375
466,0.001953125,-0.8681640625,-0.23046875
467,0.009765625,-0.87109375,-0.2373046875
468,0.0263671875,-0.8671875,-0.2353515625
469,0.0,-0.8681640625,-0.2431640625
470,0.0205078125,-0.8427734375,-0.2490234375
471,0.0400390625,-0.8330078125,-0.265625
472,0.0458984375,-0.8349609375,-0.287109375
473,0.0595703125,-0.845703125,-0.294921875
474,0.052734375,-0.84375,-0.302734375
475,0.033203125,-0.84765625,-0.2958984375
476,0.01171875,-0.8447265625,-0.2958984375
477,-0.005859375,-0.830078125,-0.29296875
478,-0.0263671875,-0.828125,-0.2861328125
479,-0.0341796875,-0.822265625,-0.2939453125
480,-0.0439453125,-0.8115234375,-0.28515625
481,-0.0634765625,-0.8017578125,-0.2763671875
482,-0.056640625,-0.78125,-0.275390625
483,-0.0771484375,-0.7783203125,-0.2734375
484,-0.09375,-0.771484375,-0.271484375
485,-0.0830078125,-0.7607421875,-0.2890625
486,-0.083984375,-0.763671875,-0.298828125
487,-0.064453125,-0.77734375,-0.3017578125
488,-0.0361328125,-0.79296875,-0.318359375
489,-0.0107421875,-0.8115234375,-0.3291015625
490,0.0244140625,-0.8408203125,-0.3564453125
491,0.0380859375,-0.87890625,-0.3837890625
492,0.033203125,-0.90625,-0.416015625
493,0.0361328125,-0.923828125,-0.453125
494,0.0361328125,-0.931640625,-0.474609375
495,0.033203125,-0.94140625,-0.5048828125
496,0.03515625,-0.94140625,-0.5390625
497,0.0439453125,-0.9326171875,-0.5576171875
498,0.044921875,-0.931640625,-0.568359375
499,0.0322265625,-0.921875,-0.5732421875
500,0.0205078125,-0.923828125,-0.5791015625
501,-0.009765625,-0.91796875,-0.58203125
502,-0.0322265625,-0.90625,-0.5859375
503,-0.046875,-0.8779296875,-0.6044921875
504,-0.07421875,-0.8486328125,-0.6162109375
505,-0.0751953125,-0.8330078125,-0.6259765625
506,-0.0615234375,-0.8251953125,-0.626953125
507,-0.06640625,-0.814453125,-0.6181640625
508,-0.0537109375,-0.8076171875,-0.6171875
509,-0.0341796875,-0.830078125,-0.611328125
510,-0.0234375,-0.826171875,-0.603515625
511,-0.005859375,-0.8466796875,-0.5849609375
512,0.0185546875,-0.869140625,-0.5986328125
513,0.056640625,-0.8876953125,-0.6044921875
514,0.064453125,-0.890625,-0.6162109375
515,0.109375,-0.90234375,-0.6220703125
516,0.119140625,-0.8994140625,-0.638671875
517,0.11328125,-0.9052734375,-0.6455078125
518,0.1162109375,-0.8994140625,-0.634765625
519,0.1083984375,-0.8984375,-0.623046875
520,0.064453125,-0.888671875,-0.6376953125
521,0.0390625,-0.8984375,-0.6220703125
522,0.013671875,-0.88671875,-0.607421875
523,-0.0048828125,-0.8837890625,-0.59765625
524,-0.0439453125,-0.8671875,-0.5849609375
525,-0.0537109375,-0.8583984375,-0.5849609375
526,-0.064453125,-0.8486328125,-0.587890625
527,-0.0576171875,-0.8671875,-0.595703125
528,-0.0537109375,-0.8671875,-0.607421875
529,-0.0498046875,-0.8798828125,-0.6142578125
530,-0.0556640625,-0.89453125,-0.6220703125
531,-0.0703125,-0.9130859375,-0.6435546875
532,-0.0595703125,-0.91796875,-0.6533203125
533,-0.0361328125,-0.9599609375,-0.671875
534,-0.029296875,-0.9052734375,-0.6796875
535,0.0009765625,-0.90625,-0.69921875
536,0.005859375,-0.8984375,-0.7080078125
537,0.015625,-0.875,-0.712890625
538,0.0361328125,-0.853515625,-0.728515625
539,0.0263671875,-0.828125,-0.71875
540,0.0234375,-0.8134765625,-0.720703125
541,0.03125,-0.794921875,-0.7255859375
542,0.021484375,-0.7685546875,-0.732421875
543,0.0048828125,-0.7685546875,-0.7275390625
544,0.0185546875,-0.7529296875,-0.7265625
545,0.0029296875,-0.7587890625,-0.728515625
546,0.0,-0.75,-0.7236328125
547,0.0087890625,-0.8115234375,-0.73046875
548,0.0087890625,-0.7451171875,-0.724609375
549,-0.001953125,-0.7568359375,-0.716796875
550,-0.0087890625,-0.763671875,-0.724609375
551,-0.0244140625,-0.7734375,-0.7373046875
552,-0.0302734375,-0.78125,-0.7509765625
553,-0.0400390625,-0.7890625,-0.763671875
554,-0.033203125,-0.7861328125,-0.7822265625
555,-0.03515625,-0.7880859375,-0.7900390625
556,-0.0341796875,-0.796875,-0.7978515625
557,-0.0322265625,-0.8642578125,-0.8232421875
558,-0.046875,-0.779296875,-0.826171875
559,-0.037109375,-0.7998046875,-0.8427734375
560,-0.029296875,-0.791015625,-0.845703125
561,-0.0205078125,-0.7919921875,-0.85546875
562,-0.029296875,-0.78125,-0.8701171875
563,-0.0185546875,-0.7783203125,-0.880859375
564,-0.0205078125,-0.7685546875,-0.8828125
565,-0.0078125,-0.7607421875,-0.9052734375
566,-0.005859375,-0.7578125,-0.896484375
567,-0.0166015625,-0.7763671875,-0.904296875
568,0.0107421875,-0.7412109375,-0.91015625
569,-0.0087890625,-0.7529296875,-0.9072265625
570,0.005859375,-0.748046875,-0.9033203125
571,-0.0078125,-0.7509765625,-0.900390625
572,-0.0068359375,-0.75390625,-0.90234375
573,-0.0234375,-0.75,-0.8857421875
574,-0.0224609375,-0.763671875,-0.8818359375
575,-0.0458984375,-0.7392578125,-0.861328125
576,-0.0283203125,-0.7490234375,-0.87109375
577,-0.0537109375,-0.7333984375,-0.873046875
578,-0.08203125,-0.7138671875,-0.8779296875
579,-0.087890625,-0.7138671875,-0.8720703125
580,-0.1083984375,-0.7021484375,-0.8603515625
581,-0.111328125,-0.7001953125,-0.8720703125
582,-0.1015625,-0.701171875,-0.8671875
583,-0.1142578125,-0.7041015625,-0.8701171875
584,-0.1162109375,-0.7880859375,-0.8896484375
585,-0.09765625,-0.6630859375,-0.8955078125
586,-0.1064453125,-0.6640625,-0.8955078125
587,-0.0966796875,-0.658203125,-0.884765625
588,-0.0791015625,-0.6640625,-0.87109375
589,-0.046875,-0.6708984375,-0.857421875
590,-0.0400390625,-0.6669921875,-0.853515625
591,-0.0107421875,-0.677734375,-0.845703125
592,0.009765625,-0.6708984375,-0.8515625
593,0.0390625,-0.6484375,-0.8525390625
594,-0.0107421875,-0.5966796875,-0.859375
595,0.0732421875,-0.6064453125,-0.8662109375
596,0.0537109375,-0.6162109375,-0.8720703125
597,0.03125,-0.63671875,-0.8623046875
598,0.0087890625,-0.6435546875,-0.875
599,-0.01171875,-0.6396484375,-0.876953125
600,-0.0166015625,-0.6376953125,-0.8671875
601,-0.0556640625,-0.6279296875,-0.8583984375
602,-0.0380859375,-0.623046875,-0.8720703125
603,-0.0458984375,-0.619140625,-0.849609375
604,-0.0478515625,-0.6298828125,-0.8447265625
605,-0.046875,-0.6240234375,-0.8525390625
606,-0.037109375,-0.6220703125,-0.8505859375
607,-0.0380859375,-0.6201171875,-0.857421875
608,-0.0400390625,-0.6142578125,-0.8603515625
609,-0.048828125,-0.611328125,-0.873046875
610,-0.048828125,-0.6123046875,-0.869140625
611,-0.05078125,-0.6064453125,-0.869140625
612,-0.1396484375,-0.5859375,-0.8740234375
613,-0.0048828125,-0.5458984375,-0.8720703125
614,-0.048828125,-0.578125,-0.8623046875
615,-0.0458984375,-0.599609375,-0.865234375
616,-0.0302734375,-0.615234375,-0.8544921875
617,-0.0380859375,-0.6083984375,-0.849609375
618,-0.02734375,-0.615234375,-0.8388671875
619,-0.0283203125,-0.6025390625,-0.8349609375
620,-0.0146484375,-0.5986328125,-0.828125
621,-0.0087890625,-0.5947265625,-0.8369140625
622,-0.0126953125,-0.599609375,-0.8388671875
623,-0.0078125,-0.5810546875,-0.8544921875
624,-0.01953125,-0.580078125,-0.8720703125
625,-0.041015625,-0.845703125,-0.9013671875
626,0.029296875,-0.4970703125,-0.8779296875
627,-0.009765625,-0.5478515625,-0.857421875
628,-0.03125,-0.5625,-0.875
629,-0.0087890625,-0.568359375,-0.8623046875
630,-0.009765625,-0.56640625,-0.8544921875
631,-0.0126953125,-0.55078125,-0.8740234375
632,-0.017578125,-0.5390625,-0.869140625
633,-0.029296875,-0.5234375,-0.8720703125
634,-0.0400390625,-0.515625,-0.87109375
635,-0.041015625,-0.5107421875,-0.8583984375
636,-0.041015625,-0.51171875,-0.86328125
637,-0.0419921875,-0.513671875,-0.86328125
638,-0.052734375,-0.515625,-0.857421875
639,-0.037109375,-0.513671875,-0.8681640625
640,-0.0234375,-0.517578125,-0.857421875
641,-0.017578125,-0.5283203125,-0.853515625
642,-0.0283203125,-0.5205078125,-0.8466796875
643,-0.029296875,-0.5107421875,-0.83984375
644,-0.0322265625,-0.49609375,-0.8330078125
645,-0.037109375,-0.49609375,-0.826171875
646,-0.03125,-0.4921875,-0.8291015625
647,-0.029296875,-0.4921875,-0.828125
648,-0.025390625,-0.4912109375,-0.8310546875
649,-0.021484375,-0.498046875,-0.8427734375
650,-0.0146484375,-0.501953125,-0.84765625
651,-0.0244140625,-0.50390625,-0.845703125
652,-0.0146484375,-0.501953125,-0.84765625
653,-0.0263671875,-0.5078125,-0.849609375
654,-0.0263671875,-0.513671875,-0.8525390625
655,-0.0283203125,-0.513671875,-0.84765625
656,-0.04296875,-0.5146484375,-0.84375
657,-0.04296875,-0.5078125,-0.8369140625
658,-0.0478515625,-0.5,-0.8310546875
659,-0.0390625,-0.5,-0.8310546875
660,-0.037109375,-0.4951171875,-0.8359375
661,-0.03125,-0.5,-0.8271484375
662,-0.02734375,-0.505859375,-0.8359375
663,-0.0322265625,-0.498046875,-0.83984375
664,-0.0244140625,-0.505859375,-0.84765625
665,-0.0166015625,-0.4931640625,-0.84765625
666,-0.009765625,-0.5048828125,-0.845703125
667,-0.005859375,-0.5166015625,-0.849609375
668,-0.013671875,-0.5390625,-0.8564453125
669,-0.0126953125,-0.5185546875,-0.8486328125
670,-0.0205078125,-0.5302734375,-0.8525390625
671,-0.0244140625,-0.544921875,-0.849609375
672,-0.03125,-0.5419921875,-0.8486328125
673,-0.0419921875,-0.541015625,-0.849609375
674,-0.0458984375,-0.5390625,-0.84765625
675,-0.0546875,-0.5380859375,-0.8466796875
676,-0.0576171875,-0.5166015625,-0.83984375
677,-0.0478515625,-0.513671875,-0.8359375
678,-0.05859375,-0.5126953125,-0.8349609375
679,-0.0546875,-0.5078125,-0.8330078125
680,-0.064453125,-0.505859375,-0.83203125
681,-0.060546875,-0.4990234375,-0.8330078125
682,-0.06640625,-0.5009765625,-0.826171875
683,-0.064453125,-0.4990234375,-0.83203125
684,-0.0625,-0.5068359375,-0.8369140625
685,-0.0703125,-0.50390625,-0.8388671875
686,-0.0654296875,-0.5,-0.841796875
687,-0.05859375,-0.505859375,-0.8408203125
688,-0.052734375,-0.50390625,-0.837890625
689,-0.0478515625,-0.5029296875,-0.84765625
690,-0.046875,-0.4990234375,-0.8427734375
691,-0.046875,-0.5009765625,-0.8447265625
692,-0.0400390625,-0.5126953125,-0.8359375
693,-0.03515625,-0.5009765625,-0.8330078125
694,-0.0390625,-0.501953125,-0.83203125
695,-0.03515625,-0.5166015625,-0.833984375
696,-0.0517578125,-0.4912109375,-0.8232421875
697,-0.0419921875,-0.4951171875,-0.8251953125
698,-0.046875,-0.501953125,-0.83984375
699,-0.0595703125,-0.5126953125,-0.8349609375
700,-0.0673828125,-0.5126953125,-0.8369140625
701,-0.076171875,-0.5185546875,-0.837890625
702,-0.0830078125,-0.525390625,-0.8359375
703,-0.080078125,-0.5107421875,-0.8349609375
704,-0.0869140625,-0.5205078125,-0.8369140625
705,-0.087890625,-0.5234375,-0.8291015625
706,-0.087890625,-0.5107421875,-0.83203125
707,-0.0888671875,-0.5087890625,-0.826171875
708,-0.0859375,-0.4970703125,-0.8232421875
709,-0.0791015625,-0.5126953125,-0.82421875
710,-0.0791015625,-0.515625,-0.826171875
711,-0.0703125,-0.5048828125,-0.822265625
712,-0.0595703125,-0.51171875,-0.822265625
713,-0.0458984375,-0.5078125,-0.8203125
714,-0.0478515625,-0.509765625,-0.8232421875
715,-0.0458984375,-0.5048828125,-0.8232421875
716,-0.044921875,-0.4990234375,-0.8291015625
717,-0.046875,-0.5048828125,-0.826171875
718,-0.044921875,-0.50390625,-0.8330078125
719,-0.0419921875,-0.501953125,-0.8291015625
720,-0.0478515625,-0.501953125,-0.826171875
721,-0.0517578125,-0.5029296875,-0.8232421875
722,-0.048828125,-0.5048828125,-0.8203125
723,-0.0517578125,-0.513671875,-0.8212890625
724,-0.0517578125,-0.5126953125,-0.814453125
725,-0.0625,-0.5078125,-0.814453125
726,-0.060546875,-0.50390625,-0.8125
727,-0.060546875,-0.5068359375,-0.8125
728,-0.0625,-0.5048828125,-0.810546875
729,-0.052734375,-0.5029296875,-0.814453125
730,-0.0556640625,-0.5029296875,-0.81640625
731,-0.05859375,-0.501953125,-0.8203125
732,-0.046875,-0.50390625,-0.822265625
733,-0.0419921875,-0.5107421875,-0.818359375
734,-0.0400390625,-0.509765625,-0.818359375
735,-0.0400390625,-0.505859375,-0.81640625
736,-0.0390625,-0.505859375,-0.8193359375
737,-0.0361328125,-0.5009765625,-0.8125
738,-0.02734375,-0.4951171875,-0.814453125
739,-0.0263671875,-0.4912109375,-0.81640625
740,-0.0302734375,-0.4892578125,-0.818359375
741,-0.0302734375,-0.4833984375,-0.8173828125
742,-0.02734375,-0.4853515625,-0.822265625
743,-0.033203125,-0.490234375,-0.8154296875
744,-0.03515625,-0.49609375,-0.81640625
745,-0.0390625,-0.5078125,-0.8095703125
746,-0.046875,-0.5166015625,-0.80859375
747,-0.048828125,-0.5185546875,-0.8037109375
748,-0.0654296875,-0.53125,-0.8076171875
749,-0.0703125,-0.53125,-0.8115234375
750,-0.072265625,-0.5322265625,-0.8125
751,-0.072265625,-0.5361328125,-0.8095703125
752,-0.068359375,-0.5361328125,-0.8037109375
753,-0.0654296875,-0.52734375,-0.8125
754,-0.060546875,-0.5283203125,-0.8076171875
755,-0.048828125,-0.529296875,-0.8095703125
756,-0.044921875,-0.5283203125,-0.8056640625
757,-0.03515625,-0.521484375,-0.7998046875
758,-0.0244140625,-0.5146484375,-0.8046875
759,-0.021484375,-0.5068359375,-0.80078125
760,-0.0244140625,-0.509765625,-0.806640625
761,-0.021484375,-0.513671875,-0.8095703125
762,-0.025390625,-0.513671875,-0.806640625
763,-0.02734375,-0.513671875,-0.80078125
764,-0.0283203125,-0.5078125,-0.8134765625
765,-0.037109375,-0.51171875,-0.818359375
766,-0.037109375,-0.5068359375,-0.8212890625
767,-0.0400390625,-0.51171875,-0.8251953125
768,-0.0341796875,-0.51171875,-0.828125
769,-0.033203125,-0.5126953125,-0.8349609375
770,-0.03515625,-0.5146484375,-0.8466796875
771,-0.04296875,-0.5166015625,-0.8447265625
772,-0.0478515625,-0.517578125,-0.8486328125
773,-0.0556640625,-0.533203125,-0.8505859375
774,-0.05859375,-0.5302734375,-0.8447265625
775,-0.060546875,-0.525390625,-0.84765625
776,-0.0595703125,-0.51953125,-0.845703125
777,-0.052734375,-0.51953125,-0.8505859375
778,-0.064453125,-0.5244140625,-0.853515625
779,-0.0517578125,-0.52734375,-0.8525390625
780,-0.0517578125,-0.51953125,-0.8525390625
781,-0.046875,-0.52734375,-0.8642578125
782,-0.04296875,-0.5234375,-0.853515625
783,-0.048828125,-0.5224609375,-0.84765625
784,-0.052734375,-0.5146484375,-0.84765625
785,-0.052734375,-0.517578125,-0.8447265625
786,-0.0498046875,-0.5166015625,-0.8408203125
787,-0.0537109375,-0.517578125,-0.83984375
788,-0.0556640625,-0.5205078125,-0.8369140625
789,-0.048828125,-0.521484375,-0.83203125
790,-0.0546875,-0.5234375,-0.8330078125
791,-0.0517578125,-0.537109375,-0.83203125
792,-0.0458984375,-0.5380859375,-0.83203125
793,-0.0498046875,-0.541015625,-0.830078125
794,-0.056640625,-0.541015625,-0.833984375
795,-0.0546875,-0.5458984375,-0.830078125
796,-0.0654296875,-0.5439453125,-0.8310546875
797,-0.0634765625,-0.5419921875,-0.8349609375
798,-0.05859375,-0.5341796875,-0.8349609375
799,-0.0634765625,-0.525390625,-0.833984375
800,-0.056640625,-0.52734375,-0.8310546875
801,-0.0625,-0.521484375,-0.828125
802,-0.0546875,-0.5341796875,-0.8193359375
803,-0.0625,-0.5380859375,-0.8193359375
804,-0.0625,-0.541015625,-0.814453125
805,-0.0576171875,-0.5478515625,-0.8134765625
806,-0.0556640625,-0.537109375,-0.814453125
807,-0.0615234375,-0.541015625,-0.814453125
808,-0.052734375,-0.5400390625,-0.818359375
809,-0.048828125,-0.5361328125,-0.818359375
810,-0.046875,-0.5341796875,-0.8154296875
811,-0.0498046875,-0.5322265625,-0.822265625
812,-0.0458984375,-0.51953125,-0.810546875
813,-0.0478515625,-0.517578125,-0.794921875
814,-0.0517578125,-0.525390625,-0.796875
815,-0.0498046875,-0.5185546875,-0.79296875
816,-0.0595703125,-0.525390625,-0.787109375
817,-0.0556640625,-0.52734375,-0.7880859375
818,-0.064453125,-0.517578125,-0.787109375
819,-0.0498046875,-0.52734375,-0.7919921875
820,-0.0517578125,-0.5244140625,-0.79296875
821,-0.052734375,-0.5205078125,-0.79296875
822,-0.0517578125,-0.5263671875,-0.7958984375
823,-0.044921875,-0.53125,-0.79296875
824,-0.046875,-0.5341796875,-0.7919921875
825,-0.0439453125,-0.5380859375,-0.7939453125
826,-0.044921875,-0.529296875,-0.7919921875
827,-0.0400390625,-0.5341796875,-0.794921875
828,-0.0341796875,-0.533203125,-0.796875
829,-0.0380859375,-0.5361328125,-0.7978515625
830,-0.041015625,-0.533203125,-0.79296875
831,-0.041015625,-0.537109375,-0.7939453125
832,-0.046875,-0.533203125,-0.80078125
833,-0.044921875,-0.53125,-0.7998046875
834,-0.0478515625,-0.5205078125,-0.7978515625
835,-0.048828125,-0.5224609375,-0.7958984375
836,-0.046875,-0.5166015625,-0.7978515625
837,-0.0439453125,-0.5263671875,-0.8037109375
838,-0.0419921875,-0.517578125,-0.7890625
839,-0.0458984375,-0.5234375,-0.796875
840,-0.0458984375,-0.525390625,-0.794921875
841,-0.046875,-0.52734375,-0.798828125
842,-0.0498046875,-0.537109375,-0.80078125
843,-0.0576171875,-0.533203125,-0.7998046875
844,-0.0546875,-0.5400390625,-0.7958984375
845,-0.05859375,-0.5390625,-0.80078125
846,-0.05859375,-0.5322265625,-0.796875
847,-0.0625,-0.5361328125,-0.7939453125
848,-0.05859375,-0.51953125,-0.796875
849,-0.0458984375,-0.51953125,-0.7978515625
850,-0.052734375,-0.5185546875,-0.796875
851,-0.0498046875,-0.51953125,-0.798828125
852,-0.0498046875,-0.521484375,-0.8095703125
853,-0.0380859375,-0.53125,-0.8037109375
854,-0.0439453125,-0.5380859375,-0.814453125
855,-0.0361328125,-0.5390625,-0.814453125
856,-0.0419921875,-0.5419921875,-0.8173828125
857,-0.04296875,-0.5390625,-0.822265625
858,-0.0439453125,-0.5458984375,-0.8212890625
859,-0.0498046875,-0.5341796875,-0.8203125
860,-0.0517578125,-0.541015625,-0.8203125
861,-0.048828125,-0.529296875,-0.8193359375
862,-0.0537109375,-0.53515625,-0.8212890625
863,-0.048828125,-0.533203125,-0.8212890625
864,-0.0537109375,-0.53515625,-0.8115234375
865,-0.0498046875,-0.5390625,-0.8154296875
866,-0.052734375,-0.541015625,-0.8115234375
867,-0.0546875,-0.5390625,-0.80859375
868,-0.052734375,-0.5419921875,-0.8095703125
869,-0.052734375,-0.54296875,-0.8125
870,-0.052734375,-0.5400390625,-0.8193359375
871,-0.048828125,-0.5458984375,-0.8095703125
872,-0.0556640625,-0.5439453125,-0.8154296875
873,-0.0517578125,-0.5517578125,-0.814453125
874,-0.0576171875,-0.5517578125,-0.8125
875,-0.0654296875,-0.5478515625,-0.8115234375
876,-0.0537109375,-0.54296875,-0.8154296875
877,-0.0556640625,-0.5458984375,-0.81640625
878,-0.052734375,-0.548828125,-0.8134765625
879,-0.0615234375,-0.54296875,-0.8115234375
880,-0.048828125,-0.5419921875,-0.8076171875
881,-0.0517578125,-0.5400390625,-0.8173828125
882,-0.046875,-0.544921875,-0.8125
883,-0.0537109375,-0.55078125,-0.8134765625
884,-0.056640625,-0.546875,-0.8115234375
885,-0.0537109375,-0.5498046875,-0.8154296875
886,-0.0517578125,-0.546875,-0.8125
887,-0.0498046875,-0.55078125,-0.806640625
888,-0.0498046875,-0.548828125,-0.8017578125
889,-0.0439453125,-0.5458984375,-0.8095703125
890,-0.0478515625,-0.5458984375,-0.8095703125
891,-0.048828125,-0.548828125,-0.806640625
892,-0.0498046875,-0.552734375,-0.8134765625
893,-0.044921875,-0.5556640625,-0.802734375
894,-0.044921875,-0.560546875,-0.8056640625
895,-0.04296875,-0.5546875,-0.806640625
896,-0.04296875,-0.5537109375,-0.806640625
897,-0.0400390625,-0.5556640625,-0.7998046875
898,-0.0400390625,-0.552734375,-0.7978515625
899,-0.0439453125,-0.5595703125,-0.7919921875
900,-0.052734375,-0.5595703125,-0.7939453125
901,-0.04296875,-0.5595703125,-0.7978515625
902,-0.0361328125,-0.5732421875,-0.796875
903,-0.0380859375,-0.5703125,-0.806640625
904,-0.0390625,-0.5703125,-0.79296875
905,-0.0390625,-0.578125,-0.7939453125
906,-0.037109375,-0.5810546875,-0.79296875
907,-0.041015625,-0.58203125,-0.79296875
908,-0.0400390625,-0.576171875,-0.7939453125
909,-0.0400390625,-0.5712890625,-0.7958984375
910,-0.0380859375,-0.5654296875,-0.794921875
911,-0.04296875,-0.5595703125,-0.7880859375
912,-0.03515625,-0.5595703125,-0.7861328125
913,-0.037109375,-0.5595703125,-0.78515625
914,-0.0380859375,-0.5546875,-0.78515625
915,-0.0400390625,-0.5498046875,-0.7890625
916,-0.0380859375,-0.546875,-0.7958984375
917,-0.044921875,-0.5517578125,-0.7939453125
918,-0.0478515625,-0.5380859375,-0.7978515625
919,-0.0458984375,-0.537109375,-0.798828125
920,-0.04296875,-0.5439453125,-0.7998046875
921,-0.0361328125,-0.544921875,-0.7978515625
922,-0.056640625,-0.5419921875,-0.8056640625
923,-0.0556640625,-0.5283203125,-0.80078125
924,-0.0498046875,-0.537109375,-0.8037109375
925,-0.0537109375,-0.5380859375,-0.798828125
926,-0.0546875,-0.5390625,-0.79296875
927,-0.0517578125,-0.5400390625,-0.791015625
928,-0.0478515625,-0.546875,-0.7880859375
929,-0.0458984375,-0.55078125,-0.7880859375
930,-0.046875,-0.560546875,-0.7900390625
931,-0.0498046875,-0.564453125,-0.7939453125
932,-0.041015625,-0.568359375,-0.7890625
933,-0.044921875,-0.56640625,-0.791015625
934,-0.0439453125,-0.560546875,-0.7890625
935,-0.0361328125,-0.55859375,-0.79296875
936,-0.037109375,-0.5546875,-0.791015625
937,-0.0361328125,-0.5498046875,-0.7958984375
938,-0.0361328125,-0.548828125,-0.794921875
939,-0.0390625,-0.5478515625,-0.7919921875
940,-0.0400390625,-0.5478515625,-0.7890625
941,-0.0419921875,-0.5517578125,-0.7880859375
942,-0.0419921875,-0.5556640625,-0.7880859375
943,-0.0390625,-0.55859375,-0.7900390625
944,-0.0419921875,-0.568359375,-0.78515625
945,-0.046875,-0.572265625,-0.7880859375
946,-0.04296875,-0.580078125,-0.7861328125
947,-0.0419921875,-0.57421875,-0.7900390625
948,-0.0380859375,-0.578125,-0.7939453125
949,-0.041015625,-0.57421875,-0.796875
950,-0.0380859375,-0.5693359375,-0.796875
951,-0.037109375,-0.564453125,-0.79296875
952,-0.0390625,-0.55859375,-0.7939453125
953,-0.0380859375,-0.552734375,-0.7861328125
954,-0.037109375,-0.5517578125,-0.787109375
955,-0.0390625,-0.55078125,-0.7802734375
956,-0.037109375,-0.55078125,-0.7783203125
957,-0.037109375,-0.55078125,-0.77734375
958,-0.0419921875,-0.5498046875,-0.7822265625
959,-0.0419921875,-0.54296875,-0.779296875
960,-0.0498046875,-0.5419921875,-0.7880859375
961,-0.0478515625,-0.544921875,-0.7890625
962,-0.048828125,-0.546875,-0.7841796875
963,-0.0419921875,-0.55859375,-0.7822265625
964,-0.0341796875,-0.556640625,-0.783203125
965,-0.0283203125,-0.5517578125,-0.7861328125
966,-0.0322265625,-0.5478515625,-0.78515625
967,-0.0205078125,-0.54296875,-0.7841796875
968,-0.025390625,-0.5361328125,-0.783203125
969,-0.029296875,-0.537109375,-0.7900390625
970,-0.0361328125,-0.537109375,-0.7939453125
971,-0.04296875,-0.541015625,-0.7880859375
972,-0.048828125,-0.5341796875,-0.78515625
973,-0.048828125,-0.5380859375,-0.7822265625
974,-0.056640625,-0.537109375,-0.78125
975,-0.0478515625,-0.5400390625,-0.77734375
976,-0.0546875,-0.5439453125,-0.779296875
977,-0.0576171875,-0.54296875,-0.7822265625
978,-0.0576171875,-0.544921875,-0.78515625
979,-0.052734375,-0.5478515625,-0.7900390625
980,-0.0595703125,-0.548828125,-0.7939453125
981,-0.0498046875,-0.5517578125,-0.78515625
982,-0.0478515625,-0.55859375,-0.7861328125
983,-0.044921875,-0.5615234375,-0.78515625
984,-0.0400390625,-0.560546875,-0.787109375
985,-0.04296875,-0.556640625,-0.7861328125
986,-0.0419921875,-0.5634765625,-0.7822265625
987,-0.0419921875,-0.5595703125,-0.78125
988,-0.0390625,-0.5595703125,-0.7841796875
989,-0.037109375,-0.5595703125,-0.779296875
990,-0.041015625,-0.55859375,-0.7822265625
991,-0.0380859375,-0.5595703125,-0.775390625
992,-0.0439453125,-0.55859375,-0.78125
993,-0.044921875,-0.5546875,-0.7822265625
994,-0.041015625,-0.556640625,-0.78125
995,-0.041015625,-0.55859375,-0.787109375
996,-0.0458984375,-0.5634765625,-0.78515625
997,-0.0478515625,-0.572265625,-0.7890625
998,-0.046875,-0.572265625,-0.79296875
999,-0.046875,-0.578125,-0.7939453125
1000,-0.056640625,-0.580078125,-0.796875
1001,-0.0517578125,-0.5810546875,-0.8056640625
1002,-0.0439453125,-0.5810546875,-0.8037109375
1003,-0.04296875,-0.5830078125,-0.8125
1004,-0.0390625,-0.583984375,-0.810546875
1005,-0.041015625,-0.5810546875,-0.81640625
1006,-0.03515625,-0.58984375,-0.8212890625
1007,-0.03515625,-0.58984375,-0.8251953125
1008,-0.0361328125,-0.5947265625,-0.830078125
1009,-0.03515625,-0.587890625,-0.83984375
1010,-0.03515625,-0.59375,-0.841796875
1011,-0.03515625,-0.5966796875,-0.84765625
1012,-0.03515625,-0.603515625,-0.837890625
1013,-0.0400390625,-0.6171875,-0.84765625
1014,-0.0576171875,-0.615234375,-0.84375
1015,-0.064453125,-0.615234375,-0.845703125
1016,-0.0654296875,-0.615234375,-0.849609375
1017,-0.0732421875,-0.623046875,-0.8544921875
1018,-0.080078125,-0.62890625,-0.8525390625
1019,-0.0751953125,-0.6337890625,-0.859375
1020,-0.076171875,-0.6376953125,-0.8564453125
1021,-0.0751953125,-0.640625,-0.8623046875
1022,-0.076171875,-0.6376953125,-0.8642578125
1023,-0.0712890625,-0.642578125,-0.8681640625
1024,-0.068359375,-0.6455078125,-0.87109375
1025,-0.06640625,-0.6552734375,-0.859375
1026,-0.0546875,-0.65625,-0.8662109375
1027,-0.0478515625,-0.6572265625,-0.8818359375
1028,-0.048828125,-0.6591796875,-0.892578125
1029,-0.0439453125,-0.6572265625,-0.90625
1030,-0.0419921875,-0.6484375,-0.9169921875
1031,-0.0390625,-0.6630859375,-0.9287109375
1032,-0.041015625,-0.6494140625,-0.93359375
1033,-0.0458984375,-0.6484375,-0.9375
1034,-0.0478515625,-0.6455078125,-0.9375
1035,-0.05859375,-0.6591796875,-0.93359375
1036,-0.068359375,-0.6572265625,-0.92578125
1037,-0.06640625,-0.6611328125,-0.9267578125
1038,-0.07421875,-0.66796875,-0.919921875
1039,-0.064453125,-0.6630859375,-0.9169921875
1040,-0.0595703125,-0.673828125,-0.912109375
1041,-0.052734375,-0.6728515625,-0.90625
1042,-0.046875,-0.669921875,-0.90625
1043,-0.0498046875,-0.6650390625,-0.8984375
1044,-0.044921875,-0.6640625,-0.90234375
1045,-0.0439453125,-0.65625,-0.9033203125
1046,-0.0458984375,-0.6611328125,-0.9072265625
1047,-0.048828125,-0.662109375,-0.900390625
1048,-0.0517578125,-0.6572265625,-0.9072265625
1049,-0.048828125,-0.6513671875,-0.9033203125
1050,-0.0439453125,-0.6533203125,-0.8984375
1051,-0.0517578125,-0.666015625,-0.8896484375
1052,-0.0615234375,-0.6708984375,-0.8896484375
1053,-0.0498046875,-0.66796875,-0.8828125
1054,-0.048828125,-0.66796875,-0.8837890625
1055,-0.05078125,-0.671875,-0.8759765625
1056,-0.0400390625,-0.6708984375,-0.8740234375
1057,-0.0361328125,-0.677734375,-0.8818359375
1058,-0.03125,-0.6787109375,-0.880859375
1059,-0.03125,-0.6845703125,-0.87109375
1060,-0.03125,-0.677734375,-0.873046875
1061,-0.033203125,-0.67578125,-0.8740234375
1062,-0.0419921875,-0.6787109375,-0.8681640625
1063,-0.0390625,-0.6767578125,-0.85546875
1064,-0.0390625,-0.6748046875,-0.8642578125
1065,-0.0400390625,-0.6748046875,-0.8671875
1066,-0.029296875,-0.6748046875,-0.859375
1067,-0.0234375,-0.666015625,-0.8466796875
1068,-0.0234375,-0.658203125,-0.8349609375
1069,-0.0205078125,-0.6611328125,-0.8251953125
1070,-0.0224609375,-0.650390625,-0.81640625
1071,-0.025390625,-0.64453125,-0.806640625
1072,-0.0224609375,-0.6328125,-0.8017578125
1073,-0.03125,-0.6279296875,-0.7919921875
1074,-0.0537109375,-0.625,-0.7880859375
1075,-0.033203125,-0.6298828125,-0.7783203125
1076,-0.0791015625,-0.61328125,-0.771484375
1077,-0.0556640625,-0.6162109375,-0.78515625
1078,-0.03515625,-0.6181640625,-0.77734375
1079,-0.04296875,-0.6201171875,-0.7822265625
1080,-0.04296875,-0.634765625,-0.814453125
1081,-0.0439453125,-0.658203125,-0.822265625
1082,-0.0263671875,-0.66015625,-0.833984375
1083,-0.0234375,-0.658203125,-0.84765625
1084,-0.015625,-0.646484375,-0.853515625
1085,-0.009765625,-0.6494140625,-0.853515625
1086,-0.015625,-0.6357421875,-0.849609375
1087,-0.00390625,-0.625,-0.8427734375
1088,-0.0263671875,-0.6064453125,-0.833984375
1089,-0.013671875,-0.59375,-0.8056640625
1090,-0.0322265625,-0.595703125,-0.798828125
1091,-0.015625,-0.5859375,-0.7841796875
1092,-0.033203125,-0.6005859375,-0.7900390625
1093,-0.0283203125,-0.603515625,-0.7841796875
1094,-0.0244140625,-0.619140625,-0.7802734375
1095,-0.037109375,-0.62890625,-0.7763671875
1096,-0.0361328125,-0.646484375,-0.78125
1097,-0.0498046875,-0.662109375,-0.7919921875
1098,-0.0498046875,-0.6630859375,-0.8017578125
1099,-0.0595703125,-0.6552734375,-0.806640625
1100,-0.0595703125,-0.6669921875,-0.8232421875
1101,-0.048828125,-0.6630859375,-0.8291015625
1102,-0.05078125,-0.662109375,-0.841796875
1103,-0.056640625,-0.658203125,-0.8359375
1104,-0.0302734375,-0.65625,-0.8359375
1105,-0.025390625,-0.6484375,-0.841796875
1106,-0.041015625,-0.6376953125,-0.8291015625
1107,-0.0625,-0.6474609375,-0.8134765625
1108,-0.025390625,-0.6484375,-0.8203125
1109,-0.0634765625,-0.6474609375,-0.810546875
1110,-0.01953125,-0.6494140625,-0.81640625
1111,-0.03125,-0.6484375,-0.80859375
1112,-0.056640625,-0.640625,-0.79296875
1113,-0.0078125,-0.650390625,-0.8095703125
1114,-0.0078125,-0.650390625,-0.796875
1115,-0.0302734375,-0.6630859375,-0.775390625
1116,0.0283203125,-0.6748046875,-0.7900390625
1117,0.00390625,-0.67578125,-0.78125
1118,0.0,-0.6708984375,-0.7802734375
1119,-0.025390625,-0.6611328125,-0.7744140625
1120,0.00390625,-0.6630859375,-0.779296875
1121,-0.0205078125,-0.666015625,-0.77734375
1122,-0.0380859375,-0.6611328125,-0.7724609375
1123,-0.0556640625,-0.658203125,-0.7734375
1124,-0.056640625,-0.6572265625,-0.763671875
1125,-0.0634765625,-0.6494140625,-0.7548828125
1126,-0.0693359375,-0.6455078125,-0.751953125
1127,-0.01953125,-0.6611328125,-0.7685546875
1128,-0.064453125,-0.6572265625,-0.763671875
1129,-0.0703125,-0.6552734375,-0.7626953125
1130,-0.072265625,-0.65234375,-0.76171875
1131,-0.0625,-0.65625,-0.759765625
1132,-0.1005859375,-0.65234375,-0.75
1133,-0.0205078125,-0.65625,-0.7646484375
1134,-0.03125,-0.6669921875,-0.759765625
1135,-0.0283203125,-0.666015625,-0.7529296875
1136,-0.0302734375,-0.6748046875,-0.736328125
1137,0.0185546875,-0.68359375,-0.7470703125
1138,-0.0048828125,-0.6826171875,-0.7509765625
1139,-0.0078125,-0.6806640625,-0.748046875
1140,-0.0078125,-0.6875,-0.7490234375
1141,-0.009765625,-0.685546875,-0.7421875
1142,-0.0576171875,-0.6806640625,-0.736328125
1143,0.0126953125,-0.67578125,-0.740234375
1144,-0.009765625,-0.6767578125,-0.7314453125
1145,-0.0107421875,-0.669921875,-0.7265625
1146,-0.017578125,-0.6669921875,-0.7255859375
1147,-0.0146484375,-0.6640625,-0.7177734375
1148,-0.03515625,-0.658203125,-0.7138671875
1149,0.0,-0.66015625,-0.7119140625
1150,-0.0234375,-0.65234375,-0.712890625
1151,-0.033203125,-0.66015625,-0.7001953125
1152,-0.0302734375,-0.6552734375,-0.697265625
1153,-0.037109375,-0.6484375,-0.6904296875
1154,-0.0361328125,-0.6484375,-0.685546875
1155,-0.029296875,-0.65234375,-0.6845703125
1156,-0.0283203125,-0.650390625,-0.6865234375
1157,-0.0244140625,-0.6494140625,-0.681640625
1158,-0.0283203125,-0.6435546875,-0.6787109375
1159,-0.0322265625,-0.65234375,-0.6787109375
1160,-0.0087890625,-0.6513671875,-0.6875
1161,-0.0185546875,-0.650390625,-0.6923828125
1162,-0.0166015625,-0.6494140625,-0.697265625
1163,-0.013671875,-0.6552734375,-0.6962890625
1164,-0.013671875,-0.65625,-0.69921875
1165,-0.0146484375,-0.6630859375,-0.6953125
1166,-0.0078125,-0.6748046875,-0.6904296875
1167,-0.009765625,-0.6796875,-0.69140625
1168,-0.0087890625,-0.6748046875,-0.69140625
1169,-0.0146484375,-0.669921875,-0.6845703125
1170,-0.0166015625,-0.677734375,-0.689453125
1171,-0.009765625,-0.6796875,-0.681640625
1172,-0.021484375,-0.6806640625,-0.669921875
1173,-0.005859375,-0.677734375,-0.6728515625
1174,-0.01953125,-0.6767578125,-0.66796875
1175,-0.017578125,-0.6669921875,-0.65625
1176,-0.0341796875,-0.6611328125,-0.650390625
1177,-0.0361328125,-0.662109375,-0.662109375
1178,-0.0576171875,-0.6416015625,-0.6474609375
1179,-0.0107421875,-0.63671875,-0.6435546875
1180,-0.0126953125,-0.630859375,-0.64453125
1181,-0.0166015625,-0.6357421875,-0.6435546875
1182,-0.0263671875,-0.6279296875,-0.65234375
1183,-0.0244140625,-0.63671875,-0.6474609375
1184,-0.01953125,-0.642578125,-0.6494140625
1185,-0.0068359375,-0.654296875,-0.6591796875
1186,-0.0068359375,-0.669921875,-0.666015625
1187,-0.0078125,-0.6767578125,-0.671875
1188,-0.0068359375,-0.69140625,-0.677734375
1189,-0.0087890625,-0.7021484375,-0.68359375
1190,-0.01171875,-0.7158203125,-0.69140625
1191,-0.009765625,-0.72265625,-0.689453125
1192,-0.0068359375,-0.724609375,-0.6865234375
1193,-0.0146484375,-0.7216796875,-0.6806640625
1194,-0.0234375,-0.7255859375,-0.673828125
1195,-0.02734375,-0.7177734375,-0.6640625
1196,-0.0283203125,-0.70703125,-0.662109375
1197,-0.033203125,-0.70703125,-0.646484375
1198,-0.0283203125,-0.69921875,-0.63671875
1199,-0.0419921875,-0.7080078125,-0.6220703125
1200,-0.04296875,-0.703125,-0.60546875
1201,-0.048828125,-0.69140625,-0.6123046875
1202,-0.0400390625,-0.701171875,-0.6083984375
1203,-0.0361328125,-0.7021484375,-0.615234375
1204,-0.0302734375,-0.7109375,-0.61328125
1205,-0.017578125,-0.7099609375,-0.6064453125
1206,-0.0087890625,-0.703125,-0.6123046875
1207,-0.009765625,-0.7080078125,-0.619140625
1208,-0.0078125,-0.7080078125,-0.6279296875
1209,-0.0087890625,-0.7138671875,-0.6416015625
1210,-0.005859375,-0.7216796875,-0.63671875
1211,-0.00390625,-0.724609375,-0.638671875
1212,0.0048828125,-0.7265625,-0.6318359375
1213,-0.00390625,-0.7314453125,-0.6279296875
1214,-0.0107421875,-0.7353515625,-0.634765625
1215,-0.0126953125,-0.7451171875,-0.638671875
1216,-0.01953125,-0.7548828125,-0.6376953125
1217,-0.0166015625,-0.7578125,-0.6298828125
1218,-0.0205078125,-0.7607421875,-0.626953125
1219,-0.013671875,-0.7490234375,-0.6142578125
1220,-0.0009765625,-0.7490234375,-0.59765625
1221,0.013671875,-0.736328125,-0.58984375
1222,0.00390625,-0.73046875,-0.583984375
1223,0.001953125,-0.736328125,-0.5673828125
1224,0.00390625,-0.734375,-0.5625
1225,0.00390625,-0.7294921875,-0.55859375
1226,0.0126953125,-0.7373046875,-0.5576171875
1227,0.0078125,-0.7275390625,-0.5576171875
1228,0.03125,-0.734375,-0.5625
1229,0.0302734375,-0.7236328125,-0.5615234375
1230,0.017578125,-0.724609375,-0.5595703125
1231,0.015625,-0.724609375,-0.5458984375
1232,0.009765625,-0.7265625,-0.5478515625
1233,0.015625,-0.73046875,-0.533203125
1234,0.0146484375,-0.7333984375,-0.5341796875
1235,0.0048828125,-0.7373046875,-0.529296875
1236,0.0048828125,-0.734375,-0.5166015625
1237,-0.0009765625,-0.7451171875,-0.5146484375
1238,0.00390625,-0.7373046875,-0.509765625
1239,0.0029296875,-0.7294921875,-0.5048828125
1240,0.0234375,-0.72265625,-0.505859375
1241,0.0185546875,-0.7216796875,-0.50390625
1242,0.0224609375,-0.7177734375,-0.5009765625
1243,0.0322265625,-0.7216796875,-0.4892578125
1244,0.046875,-0.7236328125,-0.4921875
1245,0.0576171875,-0.724609375,-0.482421875
1246,0.0546875,-0.728515625,-0.482421875
1247,0.056640625,-0.7373046875,-0.4716796875
1248,0.0546875,-0.7451171875,-0.46484375
1249,0.0625,-0.75390625,-0.4599609375
1250,0.080078125,-0.7626953125,-0.4599609375
1251,0.083984375,-0.75390625,-0.4580078125
1252,0.0849609375,-0.775390625,-0.470703125
1253,0.0830078125,-0.7705078125,-0.470703125
1254,0.0576171875,-0.775390625,-0.4892578125
1255,0.0419921875,-0.7802734375,-0.494140625
1256,0.0400390625,-0.76953125,-0.4833984375
1257,0.029296875,-0.7607421875,-0.4833984375
1258,0.02734375,-0.7568359375,-0.48046875
1259,0.0126953125,-0.7431640625,-0.4658203125
1260,0.0078125,-0.7216796875,-0.4560546875
1261,-0.005859375,-0.69921875,-0.4521484375
1262,-0.0078125,-0.6904296875,-0.443359375
1263,-0.0107421875,-0.6787109375,-0.4326171875
1264,-0.0087890625,-0.67578125,-0.419921875
1265,0.0068359375,-0.6826171875,-0.4072265625
1266,-0.0009765625,-0.703125,-0.39453125
1267,0.00390625,-0.71875,-0.3818359375
1268,0.025390625,-0.7431640625,-0.3720703125
1269,0.033203125,-0.76171875,-0.36328125
1270,0.03515625,-0.7783203125,-0.3671875
1271,0.0390625,-0.7880859375,-0.37890625
1272,0.0390625,-0.791015625,-0.3974609375
1273,0.0380859375,-0.7998046875,-0.4169921875
1274,0.05859375,-0.794921875,-0.431640625
1275,0.048828125,-0.767578125,-0.4443359375
1276,0.0380859375,-0.8212890625,-0.466796875
1277,0.0458984375,-0.8076171875,-0.4541015625
1278,0.0458984375,-0.8037109375,-0.4580078125
1279,0.0478515625,-0.7890625,-0.4521484375
1280,0.0498046875,-0.783203125,-0.4501953125
1281,0.0537109375,-0.7685546875,-0.4375
1282,0.044921875,-0.7587890625,-0.4306640625
1283,0.0380859375,-0.7578125,-0.4150390625
1284,0.0390625,-0.7529296875,-0.4130859375
1285,0.033203125,-0.76171875,-0.39453125
1286,0.0302734375,-0.771484375,-0.3828125
1287,0.0283203125,-0.7783203125,-0.3759765625
1288,0.02734375,-0.7880859375,-0.3701171875
1289,0.0341796875,-0.798828125,-0.3720703125
1290,0.0537109375,-0.8076171875,-0.3818359375
1291,0.052734375,-0.8134765625,-0.37890625
1292,0.0703125,-0.8115234375,-0.361328125
1293,0.0673828125,-0.818359375,-0.3564453125
1294,0.0693359375,-0.8251953125,-0.3388671875
1295,0.064453125,-0.830078125,-0.337890625
1296,0.064453125,-0.8427734375,-0.333984375
1297,0.0703125,-0.837890625,-0.33203125
1298,0.0654296875,-0.841796875,-0.3447265625
1299,0.0576171875,-0.845703125,-0.341796875
1300,0.0419921875,-0.8232421875,-0.361328125
1301,0.01953125,-0.7841796875,-0.3955078125
1302,0.029296875,-0.8056640625,-0.421875
1303,0.02734375,-0.783203125,-0.4140625
1304,0.025390625,-0.755859375,-0.4091796875
1305,0.0283203125,-0.7568359375,-0.4150390625
1306,0.02734375,-0.74609375,-0.41015625
1307,0.03125,-0.7412109375,-0.3916015625
1308,0.0322265625,-0.74609375,-0.380859375
1309,0.0380859375,-0.7626953125,-0.36328125
1310,0.0576171875,-0.7822265625,-0.3388671875
1311,0.0810546875,-0.748046875,-0.2978515625
1312,0.048828125,-0.8203125,-0.3271484375
1313,0.0576171875,-0.845703125,-0.3017578125
1314,0.0146484375,-0.771484375,-0.2666015625
1315,0.0693359375,-0.865234375,-0.2861328125
1316,0.0498046875,-0.8330078125,-0.267578125
1317,0.0419921875,-0.8330078125,-0.2744140625
1318,0.044921875,-0.833984375,-0.2822265625
1319,0.037109375,-0.7880859375,-0.2724609375
1320,0.03125,-0.8408203125,-0.3056640625
1321,0.05078125,-0.8466796875,-0.2890625
1322,0.0498046875,-0.83203125,-0.287109375
1323,0.05078125,-0.8271484375,-0.2939453125
1324,0.05078125,-0.8232421875,-0.31640625
1325,0.052734375,-0.826171875,-0.3291015625
1326,0.0732421875,-0.828125,-0.33203125
1327,0.0654296875,-0.814453125,-0.3427734375
1328,0.0712890625,-0.81640625,-0.3369140625
1329,0.07421875,-0.806640625,-0.3515625
1330,0.037109375,-0.7900390625,-0.3642578125
1331,0.076171875,-0.826171875,-0.3623046875
1332,0.0791015625,-0.81640625,-0.3515625
1333,0.0810546875,-0.8095703125,-0.3310546875
1334,0.078125,-0.80859375,-0.3203125
1335,0.08203125,-0.8076171875,-0.310546875
1336,0.064453125,-0.806640625,-0.306640625
1337,0.0625,-0.8056640625,-0.3115234375
1338,0.0849609375,-0.8857421875,-0.3330078125
1339,0.08984375,-0.841796875,-0.2744140625
1340,0.07421875,-0.8486328125,-0.2998046875
1341,0.072265625,-0.833984375,-0.29296875
1342,0.068359375,-0.841796875,-0.26953125
1343,0.0537109375,-0.841796875,-0.267578125
1344,0.052734375,-0.845703125,-0.2666015625
1345,0.0546875,-0.8466796875,-0.26953125
1346,0.056640625,-0.84375,-0.267578125
1347,0.056640625,-0.845703125,-0.26171875
1348,0.0576171875,-0.7958984375,-0.2421875
1349,0.048828125,-0.87890625,-0.2861328125
1350,0.072265625,-0.90625,-0.2822265625
1351,0.0712890625,-0.9052734375,-0.275390625
1352,0.0654296875,-0.89453125,-0.2705078125
1353,0.0634765625,-0.88671875,-0.26953125
1354,0.0673828125,-0.8857421875,-0.2763671875
1355,0.0947265625,-0.8369140625,-0.255859375
1356,0.0791015625,-0.908203125,-0.29296875
1357,0.0947265625,-0.89453125,-0.2744140625
1358,0.0859375,-0.9072265625,-0.267578125
1359,0.0966796875,-0.9052734375,-0.2626953125
1360,0.103515625,-0.912109375,-0.251953125
1361,0.107421875,-0.9169921875,-0.2568359375
1362,0.1123046875,-0.9111328125,-0.2490234375
1363,0.1171875,-0.8837890625,-0.2412109375
1364,0.115234375,-0.927734375,-0.2529296875
1365,0.1064453125,-0.923828125,-0.23046875
1366,0.107421875,-0.9169921875,-0.2216796875
1367,0.095703125,-0.9267578125,-0.21484375
1368,0.0888671875,-0.9248046875,-0.2109375
1369,0.0791015625,-0.927734375,-0.22265625
1370,0.0732421875,-0.9208984375,-0.2294921875
1371,0.0673828125,-0.916015625,-0.244140625
1372,0.0634765625,-0.9140625,-0.2548828125
1373,0.0634765625,-0.912109375,-0.255859375
1374,0.06640625,-0.90625,-0.251953125
1375,0.0673828125,-0.904296875,-0.2412109375
1376,0.05859375,-0.9052734375,-0.23046875
1377,0.068359375,-0.9072265625,-0.21484375
1378,0.0673828125,-0.9072265625,-0.203125
1379,0.0703125,-0.9111328125,-0.1884765625
1380,0.00390625,-0.8603515625,-0.1728515625
1381,0.0869140625,-0.9404296875,-0.1865234375
1382,0.0576171875,-0.9150390625,-0.1826171875
1383,0.0576171875,-0.908203125,-0.1875
1384,0.0654296875,-0.89453125,-0.19140625
1385,0.0654296875,-0.8798828125,-0.1845703125
1386,0.0576171875,-0.890625,-0.181640625
1387,0.060546875,-0.8896484375,-0.1708984375
1388,0.0654296875,-0.8896484375,-0.15234375
1389,0.056640625,-0.9091796875,-0.1669921875
1390,0.0791015625,-0.9306640625,-0.12890625
1391,0.0693359375,-0.9228515625,-0.119140625
1392,0.0732421875,-0.9267578125,-0.126953125
1393,0.076171875,-0.93359375,-0.1337890625
1394,0.0751953125,-0.939453125,-0.1376953125
1395,0.0712890625,-0.931640625,-0.1396484375
1396,0.076171875,-0.9384765625,-0.15625
1397,0.0830078125,-0.9560546875,-0.1640625
1398,0.0810546875,-0.9423828125,-0.16796875
1399,0.0810546875,-0.947265625,-0.1806640625
1400,0.07421875,-0.9443359375,-0.1875
1401,0.0693359375,-0.9521484375,-0.1904296875
1402,0.0712890625,-0.943359375,-0.1953125
1403,0.0634765625,-0.9609375,-0.21484375
1404,0.0771484375,-0.96875,-0.205078125
1405,0.076171875,-0.9638671875,-0.1982421875
1406,0.072265625,-0.9609375,-0.2099609375
1407,0.068359375,-0.9619140625,-0.21484375
1408,0.0712890625,-0.9560546875,-0.2099609375
1409,0.0693359375,-0.9609375,-0.2138671875
1410,0.0703125,-0.9619140625,-0.216796875
1411,0.0751953125,-0.9658203125,-0.216796875
1412,0.0810546875,-0.9580078125,-0.21484375
1413,0.0791015625,-0.90234375,-0.2001953125
1414,0.0849609375,-0.990234375,-0.23046875
1415,0.09375,-0.974609375,-0.1982421875
1416,0.09375,-0.9638671875,-0.1943359375
1417,0.0927734375,-0.9658203125,-0.2021484375
1418,0.0888671875,-0.96484375,-0.2001953125
1419,0.09375,-0.95703125,-0.1953125
1420,0.095703125,-0.9609375,-0.1953125
1421,0.0947265625,-0.9609375,-0.1953125
1422,0.09765625,-0.9580078125,-0.1884765625
1423,0.09765625,-0.9560546875,-0.1865234375
1424,0.0966796875,-0.958984375,-0.18359375
1425,0.0966796875,-0.9609375,-0.1806640625
1426,0.09375,-0.955078125,-0.1845703125
1427,0.0966796875,-0.955078125,-0.1767578125
1428,0.095703125,-0.9541015625,-0.1787109375
1429,0.091796875,-0.94921875,-0.173828125
1430,0.0859375,-0.9375,-0.1728515625
1431,0.0849609375,-0.9345703125,-0.1748046875
1432,0.08203125,-0.9287109375,-0.1708984375
1433,0.0830078125,-0.927734375,-0.171875
1434,0.0810546875,-0.9287109375,-0.173828125
1435,0.080078125,-0.931640625,-0.1689453125
1436,0.076171875,-0.9287109375,-0.1689453125
1437,0.0771484375,-0.9375,-0.1708984375
1438,0.078125,-0.9423828125,-0.1669921875
1439,0.0751953125,-0.9326171875,-0.1669921875
1440,0.0771484375,-0.9287109375,-0.1630859375
1441,0.083984375,-0.935546875,-0.1630859375
1442,0.0927734375,-0.9287109375,-0.16015625
1443,0.0849609375,-0.9267578125,-0.15625
1444,0.0888671875,-0.927734375,-0.15625
1445,0.095703125,-0.931640625,-0.1533203125
1446,0.0859375,-0.9384765625,-0.154296875
1447,0.095703125,-0.935546875,-0.146484375
1448,0.091796875,-0.943359375,-0.1474609375
1449,0.095703125,-0.9453125,-0.150390625
1450,0.0927734375,-0.947265625,-0.1484375
1451,0.0908203125,-0.951171875,-0.15234375
1452,0.0927734375,-0.953125,-0.1611328125
1453,0.0859375,-0.9521484375,-0.1650390625
1454,0.0830078125,-0.951171875,-0.16796875
1455,0.0888671875,-0.9453125,-0.1728515625
1456,0.08203125,-0.943359375,-0.173828125
1457,0.0869140625,-0.9384765625,-0.1748046875
1458,0.08984375,-0.931640625,-0.1708984375
1459,0.0869140625,-0.9345703125,-0.16796875
1460,0.087890625,-0.9287109375,-0.166015625
1461,0.087890625,-0.9296875,-0.1572265625
1462,0.0888671875,-0.9296875,-0.154296875
1463,0.091796875,-0.931640625,-0.1474609375
1464,0.0927734375,-0.931640625,-0.154296875
1465,0.091796875,-0.94140625,-0.158203125
1466,0.09765625,-0.9375,-0.1591796875
1467,0.0966796875,-0.943359375,-0.166015625
1468,0.0966796875,-0.9365234375,-0.171875
1469,0.0966796875,-0.9404296875,-0.1728515625
1470,0.0986328125,-0.9384765625,-0.18359375
1471,0.09375,-0.951171875,-0.1796875
1472,0.091796875,-0.9404296875,-0.1826171875
1473,0.099609375,-0.9453125,-0.1826171875
1474,0.09375,-0.951171875,-0.1796875
1475,0.0966796875,-0.9521484375,-0.17578125
1476,0.095703125,-0.955078125,-0.171875
1477,0.0908203125,-0.955078125,-0.1728515625
1478,0.095703125,-0.95703125,-0.1748046875
1479,0.0927734375,-0.955078125,-0.171875
1480,0.09375,-0.9541015625,-0.1689453125
1481,0.09375,-0.9521484375,-0.1708984375
1482,0.0927734375,-0.9453125,-0.169921875
1483,0.09765625,-0.9443359375,-0.1708984375
1484,0.0986328125,-0.9423828125,-0.169921875
1485,0.103515625,-0.9423828125,-0.1689453125
1486,0.1015625,-0.9384765625,-0.16796875
1487,0.1044921875,-0.9423828125,-0.166015625
1488,0.1015625,-0.943359375,-0.1611328125
1489,0.1044921875,-0.943359375,-0.154296875
1490,0.0986328125,-0.9443359375,-0.1513671875
1491,0.1044921875,-0.94921875,-0.1494140625
1492,0.09765625,-0.943359375,-0.1513671875
1493,0.0966796875,-0.947265625,-0.15234375
1494,0.1005859375,-0.947265625,-0.15234375
1495,0.09765625,-0.94921875,-0.1533203125
1496,0.099609375,-0.94921875,-0.1533203125
1497,0.0966796875,-0.9453125,-0.16015625
1498,0.099609375,-0.9443359375,-0.1611328125
1499,0.109375,-0.9677734375,-0.1630859375
1500,0.1083984375,-0.9541015625,-0.154296875
1501,0.1025390625,-0.94921875,-0.1572265625
1502,0.1005859375,-0.94140625,-0.154296875
1503,0.0966796875,-0.9384765625,-0.150390625
1504,0.09375,-0.931640625,-0.1513671875
1505,0.0966796875,-0.935546875,-0.146484375
1506,0.099609375,-0.94921875,-0.146484375
1507,0.1005859375,-0.9423828125,-0.150390625
1508,0.0986328125,-0.9453125,-0.1474609375
1509,0.0986328125,-0.9462890625,-0.1591796875
1510,0.099609375,-0.943359375,-0.1533203125
1511,0.0966796875,-0.9375,-0.15234375
1512,0.099609375,-0.9404296875,-0.1533203125
1513,0.0966796875,-0.9404296875,-0.15234375
1514,0.091796875,-0.93359375,-0.150390625
1515,0.09765625,-0.935546875,-0.1455078125
1516,0.0986328125,-0.9365234375,-0.1474609375
1517,0.09375,-0.94140625,-0.146484375
1518,0.09765625,-0.9404296875,-0.1396484375
1519,0.091796875,-0.9462890625,-0.142578125
1520,0.0986328125,-0.9501953125,-0.1455078125
1521,0.091796875,-0.947265625,-0.142578125
1522,0.095703125,-0.951171875,-0.1474609375
1523,0.09765625,-0.9501953125,-0.1455078125
1524,0.103515625,-0.951171875,-0.146484375
1525,0.0966796875,-0.9482421875,-0.15234375
1526,0.0986328125,-0.9423828125,-0.1484375
1527,0.099609375,-0.9482421875,-0.1484375
1528,0.09765625,-0.939453125,-0.1474609375
1529,0.099609375,-0.9453125,-0.1455078125
1530,0.1025390625,-0.9423828125,-0.1474609375
1531,0.0966796875,-0.943359375,-0.138671875
1532,0.0986328125,-0.9404296875,-0.1376953125
1533,0.0966796875,-0.94140625,-0.134765625
1534,0.091796875,-0.9423828125,-0.1337890625
1535,0.0947265625,-0.94140625,-0.126953125
1536,0.0859375,-0.951171875,-0.12890625
1537,0.09375,-0.9501953125,-0.12890625
1538,0.0888671875,-0.951171875,-0.130859375
1539,0.0966796875,-0.9482421875,-0.1357421875
1540,0.0908203125,-0.9521484375,-0.140625
1541,0.0888671875,-0.943359375,-0.1484375
1542,0.0859375,-0.943359375,-0.1474609375
1543,0.0849609375,-0.9453125,-0.1494140625
1544,0.080078125,-0.9423828125,-0.150390625
1545,0.0849609375,-0.943359375,-0.1396484375
1546,0.076171875,-0.943359375,-0.1357421875
1547,0.0830078125,-0.943359375,-0.1318359375
1548,0.0849609375,-0.9443359375,-0.1259765625
1549,0.083984375,-0.947265625,-0.1259765625
1550,0.08984375,-0.951171875,-0.1201171875
1551,0.0859375,-0.9423828125,-0.123046875
1552,0.0908203125,-0.9462890625,-0.123046875
1553,0.091796875,-0.9423828125,-0.1240234375
1554,0.08984375,-0.947265625,-0.1220703125
1555,0.0927734375,-0.94921875,-0.1240234375
1556,0.0927734375,-0.9453125,-0.123046875
1557,0.0947265625,-0.9462890625,-0.1259765625
1558,0.0908203125,-0.955078125,-0.123046875
1559,0.0888671875,-0.9560546875,-0.12109375
1560,0.0849609375,-0.9541015625,-0.1240234375
1561,0.0908203125,-0.9423828125,-0.1220703125
1562,0.083984375,-0.953125,-0.123046875
1563,0.0830078125,-0.958984375,-0.123046875
1564,0.087890625,-0.9580078125,-0.1181640625
1565,0.0849609375,-0.9580078125,-0.119140625
1566,0.0830078125,-0.955078125,-0.1240234375
1567,0.08984375,-0.9560546875,-0.125
1568,0.0859375,-0.955078125,-0.1201171875
1569,0.087890625,-0.9501953125,-0.123046875
1570,0.08984375,-0.9541015625,-0.126953125
1571,0.087890625,-0.9521484375,-0.125
1572,0.09375,-0.951171875,-0.1259765625
1573,0.0869140625,-0.9599609375,-0.1279296875
1574,0.095703125,-0.955078125,-0.126953125
1575,0.09375,-0.9501953125,-0.12890625
1576,0.09765625,-0.95703125,-0.1279296875
1577,0.08984375,-0.9560546875,-0.1279296875
1578,0.09375,-0.9580078125,-0.1240234375
1579,0.0927734375,-0.955078125,-0.1220703125
1580,0.0966796875,-0.9619140625,-0.1259765625
1581,0.09375,-0.955078125,-0.125
1582,0.095703125,-0.9541015625,-0.125
1583,0.0966796875,-0.9482421875,-0.1259765625
1584,0.0966796875,-0.9521484375,-0.12890625
1585,0.091796875,-0.951171875,-0.1298828125
1586,0.09375,-0.951171875,-0.126953125
1587,0.09375,-0.9453125,-0.125
1588,0.1240234375,-0.9794921875,-0.1220703125
1589,0.0849609375,-0.955078125,-0.1220703125
1590,0.0869140625,-0.947265625,-0.115234375
1591,0.0947265625,-0.9482421875,-0.111328125
1592,0.0947265625,-0.9443359375,-0.111328125
1593,0.0947265625,-0.943359375,-0.1025390625
1594,0.09375,-0.9443359375,-0.1064453125
1595,0.0888671875,-0.94921875,-0.0966796875
1596,0.095703125,-0.9521484375,-0.1044921875
1597,0.0908203125,-0.943359375,-0.1064453125
1598,0.0908203125,-0.943359375,-0.1083984375
1599,0.0888671875,-0.9404296875,-0.1064453125
1600,0.0908203125,-0.94921875,-0.1083984375
1601,0.0888671875,-0.9423828125,-0.1064453125
1602,0.09375,-0.943359375,-0.10546875
1603,0.091796875,-0.94140625,-0.099609375
1604,0.091796875,-0.94140625,-0.1103515625
1605,0.095703125,-0.939453125,-0.1064453125
1606,0.0966796875,-0.943359375,-0.1083984375
1607,0.09765625,-0.9443359375,-0.107421875
1608,0.1015625,-0.9501953125,-0.111328125
1609,0.103515625,-0.9541015625,-0.107421875
1610,0.1025390625,-0.9541015625,-0.109375
1611,0.1005859375,-0.9560546875,-0.111328125
1612,0.103515625,-0.9599609375,-0.1083984375
1613,0.1044921875,-0.955078125,-0.11328125
1614,0.1025390625,-0.9521484375,-0.109375
1615,0.095703125,-0.947265625,-0.111328125
1616,0.0947265625,-0.9443359375,-0.1171875
1617,0.095703125,-0.9423828125,-0.1083984375
1618,0.0908203125,-0.94140625,-0.1083984375
1619,0.095703125,-0.9375,-0.0927734375
1620,0.08203125,-0.9423828125,-0.1064453125
1621,0.0888671875,-0.94921875,-0.1064453125
1622,0.0908203125,-0.953125,-0.1103515625
1623,0.0908203125,-0.9501953125,-0.107421875
1624,0.0849609375,-0.95703125,-0.107421875
1625,0.09765625,-0.95703125,-0.1123046875
1626,0.0947265625,-0.9541015625,-0.115234375
1627,0.0947265625,-0.9580078125,-0.1123046875
1628,0.091796875,-0.953125,-0.11328125
1629,0.0986328125,-0.94921875,-0.1103515625
1630,0.0986328125,-0.947265625,-0.10546875
1631,0.09765625,-0.94921875,-0.1005859375
1632,0.099609375,-0.94140625,-0.0986328125
1633,0.0947265625,-0.9453125,-0.0927734375
1634,0.1044921875,-0.939453125,-0.0947265625
1635,0.099609375,-0.9443359375,-0.08984375
1636,0.09765625,-0.9423828125,-0.091796875
1637,0.09765625,-0.9462890625,-0.0908203125
1638,0.099609375,-0.9462890625,-0.09765625
1639,0.103515625,-0.94921875,-0.0947265625
1640,0.1025390625,-0.94921875,-0.095703125
1641,0.1025390625,-0.95703125,-0.1064453125
1642,0.1015625,-0.9501953125,-0.1025390625
1643,0.103515625,-0.953125,-0.0986328125
1644,0.099609375,-0.9482421875,-0.107421875
1645,0.1015625,-0.947265625,-0.1123046875
1646,0.099609375,-0.947265625,-0.109375
1647,0.103515625,-0.9453125,-0.1083984375
1648,0.1015625,-0.9462890625,-0.111328125
1649,0.0986328125,-0.9541015625,-0.1123046875
1650,0.1005859375,-0.9453125,-0.1171875
1651,0.10546875,-0.94140625,-0.1181640625
1652,0.103515625,-0.947265625,-0.1142578125
1653,0.1025390625,-0.9462890625,-0.1142578125
1654,0.1025390625,-0.9501953125,-0.11328125
1655,0.103515625,-0.94921875,-0.109375
1656,0.1015625,-0.9541015625,-0.1103515625
1657,0.1005859375,-0.958984375,-0.1103515625
1658,0.1015625,-0.958984375,-0.111328125
1659,0.1005859375,-0.9619140625,-0.1142578125
1660,0.1015625,-0.9580078125,-0.11328125
1661,0.0986328125,-0.96484375,-0.115234375
1662,0.0986328125,-0.962890625,-0.1259765625
1663,0.10546875,-0.9580078125,-0.12109375
1664,0.1005859375,-0.9609375,-0.1240234375
1665,0.099609375,-0.958984375,-0.1220703125
1666,0.1025390625,-0.9638671875,-0.12890625
1667,0.1025390625,-0.9609375,-0.1259765625
1668,0.103515625,-0.9580078125,-0.1240234375
1669,0.0986328125,-0.9580078125,-0.1220703125
1670,0.099609375,-0.953125,-0.1162109375
1671,0.09765625,-0.9541015625,-0.1298828125
1672,0.0986328125,-0.943359375,-0.130859375
1673,0.0927734375,-0.9501953125,-0.125
1674,0.0888671875,-0.9462890625,-0.125
1675,0.09375,-0.9482421875,-0.125
1676,0.09375,-0.947265625,-0.123046875
1677,0.0927734375,-0.9521484375,-0.12109375
1678,0.0966796875,-0.9501953125,-0.123046875
1679,0.0927734375,-0.9521484375,-0.1201171875
1680,0.09375,-0.95703125,-0.1162109375
1681,0.09375,-0.958984375,-0.119140625
1682,0.0947265625,-0.9541015625,-0.1181640625
1683,0.095703125,-0.9541015625,-0.1240234375
1684,0.08984375,-0.95703125,-0.1220703125
1685,0.0869140625,-0.9521484375,-0.1171875
1686,0.08984375,-0.94921875,-0.1201171875
1687,0.087890625,-0.9501953125,-0.115234375
1688,0.083984375,-0.947265625,-0.1103515625
1689,0.0830078125,-0.9482421875,-0.1123046875
1690,0.08203125,-0.9482421875,-0.1142578125
1691,0.0849609375,-0.947265625,-0.1103515625
1692,0.0830078125,-0.9423828125,-0.1103515625
1693,0.0810546875,-0.939453125,-0.109375
1694,0.08984375,-0.94140625,-0.1123046875
1695,0.0849609375,-0.9423828125,-0.109375
1696,0.08984375,-0.943359375,-0.111328125
1697,0.0869140625,-0.9453125,-0.109375
1698,0.091796875,-0.943359375,-0.111328125
1699,0.0888671875,-0.947265625,-0.10546875
1700,0.0947265625,-0.94921875,-0.1103515625
1701,0.08984375,-0.953125,-0.1103515625
1702,0.09375,-0.9541015625,-0.111328125
1703,0.0927734375,-0.95703125,-0.111328125
1704,0.0849609375,-0.951171875,-0.1123046875
1705,0.0810546875,-0.9541015625,-0.1083984375
1706,0.0830078125,-0.951171875,-0.111328125
1707,0.0810546875,-0.9521484375,-0.1044921875
1708,0.0810546875,-0.94921875,-0.1044921875
1709,0.0859375,-0.951171875,-0.10546875
1710,0.080078125,-0.955078125,-0.10546875
1711,0.0810546875,-0.955078125,-0.107421875
1712,0.08203125,-0.953125,-0.1083984375
1713,0.08203125,-0.9501953125,-0.1171875
1714,0.08203125,-0.9521484375,-0.111328125
1715,0.083984375,-0.9462890625,-0.1181640625
1716,0.08203125,-0.9501953125,-0.119140625
1717,0.0849609375,-0.9482421875,-0.115234375
1718,0.0859375,-0.9462890625,-0.1162109375
1719,0.0849609375,-0.943359375,-0.1162109375
1720,0.0859375,-0.9404296875,-0.1142578125
1721,0.0859375,-0.9443359375,-0.11328125
1722,0.0830078125,-0.9462890625,-0.11328125
1723,0.0849609375,-0.9453125,-0.11328125
1724,0.0888671875,-0.9482421875,-0.115234375
1725,0.0947265625,-0.94921875,-0.12109375
1726,0.08984375,-0.947265625,-0.1162109375
1727,0.0947265625,-0.9541015625,-0.11328125
1728,0.095703125,-0.9521484375,-0.1220703125
1729,0.091796875,-0.955078125,-0.1142578125
1730,0.09765625,-0.9560546875,-0.1171875
1731,0.099609375,-0.9609375,-0.125
1732,0.0966796875,-0.958984375,-0.126953125
1733,0.09765625,-0.9609375,-0.119140625
1734,0.0966796875,-0.9609375,-0.1220703125
1735,0.091796875,-0.962890625,-0.1171875
1736,0.095703125,-0.962890625,-0.1220703125
1737,0.0927734375,-0.9619140625,-0.1171875
1738,0.0908203125,-0.9580078125,-0.115234375
1739,0.095703125,-0.95703125,-0.115234375
1740,0.087890625,-0.955078125,-0.1240234375
1741,0.08984375,-0.9560546875,-0.1181640625
1742,0.08984375,-0.95703125,-0.1171875
1743,0.083984375,-0.9560546875,-0.1162109375
1744,0.0849609375,-0.958984375,-0.1162109375
1745,0.08984375,-0.955078125,-0.1171875
1746,0.087890625,-0.953125,-0.125
1747,0.091796875,-0.9482421875,-0.125
1748,0.08984375,-0.9521484375,-0.1240234375
1749,0.0888671875,-0.9482421875,-0.12109375
1750,0.08984375,-0.9462890625,-0.1201171875
1751,0.091796875,-0.9423828125,-0.1201171875
1752,0.09375,-0.9453125,-0.1162109375
1753,0.0908203125,-0.9423828125,-0.115234375
1754,0.09375,-0.9482421875,-0.1201171875
1755,0.08984375,-0.9423828125,-0.1171875
1756,0.0908203125,-0.9462890625,-0.115234375
1757,0.08984375,-0.9423828125,-0.12109375
1758,0.087890625,-0.94140625,-0.123046875
1759,0.0927734375,-0.9404296875,-0.1259765625
1760,0.09375,-0.943359375,-0.1259765625
1761,0.095703125,-0.943359375,-0.1259765625
1762,0.0966796875,-0.94140625,-0.125
1763,0.0966796875,-0.9482421875,-0.1279296875
1764,0.1015625,-0.939453125,-0.1259765625
1765,0.099609375,-0.943359375,-0.12890625
1766,0.09765625,-0.9404296875,-0.1240234375
1767,0.1044921875,-0.939453125,-0.123046875
1768,0.1025390625,-0.939453125,-0.123046875
1769,0.0947265625,-0.9404296875,-0.119140625
1770,0.09765625,-0.9404296875,-0.123046875
1771,0.1005859375,-0.9384765625,-0.1201171875
1772,0.1015625,-0.9404296875,-0.1171875
1773,0.0966796875,-0.9423828125,-0.1162109375
1774,0.1005859375,-0.9462890625,-0.1142578125
1775,0.09765625,-0.9482421875,-0.115234375
1776,0.099609375,-0.9580078125,-0.1162109375
1777,0.1015625,-0.9541015625,-0.1201171875
1778,0.10546875,-0.955078125,-0.125
1779,0.1015625,-0.9541015625,-0.126953125
1780,0.1005859375,-0.9462890625,-0.130859375
1781,0.1015625,-0.9423828125,-0.126953125
1782,0.09765625,-0.9453125,-0.130859375
1783,0.0966796875,-0.943359375,-0.1259765625
1784,0.099609375,-0.943359375,-0.1220703125
1785,0.1015625,-0.943359375,-0.115234375
1786,0.1015625,-0.9482421875,-0.109375
1787,0.099609375,-0.951171875,-0.1083984375
1788,0.1025390625,-0.955078125,-0.1123046875
1789,0.1005859375,-0.9541015625,-0.1171875
1790,0.1083984375,-0.9521484375,-0.1201171875
1791,0.107421875,-0.9501953125,-0.1337890625
1792,0.1083984375,-0.9521484375,-0.1376953125
1793,0.109375,-0.9462890625,-0.1416015625
1794,0.109375,-0.9462890625,-0.1396484375
1795,0.1103515625,-0.939453125,-0.1298828125
1796,0.111328125,-0.9384765625,-0.126953125
1797,0.1103515625,-0.939453125,-0.1142578125
1798,0.1103515625,-0.9443359375,-0.1162109375
1799,0.10546875,-0.9384765625,-0.1044921875
1800,0.1064453125,-0.9462890625,-0.1083984375
1801,0.10546875,-0.9462890625,-0.0986328125
1802,0.107421875,-0.9501953125,-0.099609375
1803,0.0986328125,-0.9482421875,-0.0986328125
1804,0.1083984375,-0.947265625,-0.1005859375
1805,0.107421875,-0.951171875,-0.1015625
1806,0.107421875,-0.943359375,-0.1103515625
1807,0.10546875,-0.9482421875,-0.1123046875
1808,0.1083984375,-0.94921875,-0.1103515625
1809,0.1015625,-0.9443359375,-0.1123046875
1810,0.1015625,-0.9453125,-0.111328125
1811,0.09765625,-0.9453125,-0.115234375
1812,0.10546875,-0.947265625,-0.1103515625
1813,0.099609375,-0.951171875,-0.109375
1814,0.0986328125,-0.9521484375,-0.1103515625
1815,0.1015625,-0.9521484375,-0.10546875
1816,0.0986328125,-0.9560546875,-0.10546875
1817,0.099609375,-0.9541015625,-0.1064453125
1818,0.0986328125,-0.9560546875,-0.1103515625
1819,0.099609375,-0.953125,-0.1083984375
1820,0.103515625,-0.9560546875,-0.1083984375
1821,0.0986328125,-0.9541015625,-0.11328125
1822,0.1005859375,-0.9541015625,-0.11328125
1823,0.10546875,-0.955078125,-0.12109375
1824,0.1044921875,-0.958984375,-0.115234375
1825,0.1025390625,-0.951171875,-0.111328125
1826,0.1025390625,-0.955078125,-0.11328125
1827,0.103515625,-0.95703125,-0.11328125
1828,0.107421875,-0.958984375,-0.1083984375
1829,0.1103515625,-0.9609375,-0.103515625
1830,0.115234375,-0.962890625,-0.107421875
1831,0.115234375,-0.9677734375,-0.1142578125
1832,0.1083984375,-0.9658203125,-0.1123046875
1833,0.1064453125,-0.9638671875,-0.1123046875
1834,0.0966796875,-0.958984375,-0.123046875
1835,0.09375,-0.9541015625,-0.1259765625
1836,0.0869140625,-0.951171875,-0.13671875
1837,0.0830078125,-0.9453125,-0.1357421875
1838,0.08203125,-0.9443359375,-0.1328125
1839,0.0810546875,-0.9404296875,-0.13671875
1840,0.0791015625,-0.9443359375,-0.130859375
1841,0.0830078125,-0.9404296875,-0.12890625
1842,0.083984375,-0.9423828125,-0.126953125
1843,0.0888671875,-0.9453125,-0.1318359375
1844,0.087890625,-0.94921875,-0.126953125
1845,0.091796875,-0.9501953125,-0.1171875
1846,0.0947265625,-0.9521484375,-0.1220703125
1847,0.0947265625,-0.9541015625,-0.1171875
1848,0.0908203125,-0.9521484375,-0.12109375
1849,0.091796875,-0.9541015625,-0.1171875
1850,0.0966796875,-0.9453125,-0.123046875
1851,0.0927734375,-0.951171875,-0.1181640625
1852,0.0947265625,-0.94921875,-0.1181640625
1853,0.095703125,-0.947265625,-0.1123046875
1854,0.0966796875,-0.9501953125,-0.1220703125
1855,0.09765625,-0.9453125,-0.1181640625
1856,0.0947265625,-0.9453125,-0.115234375
1857,0.09375,-0.9423828125,-0.115234375
1858,0.087890625,-0.9521484375,-0.115234375
1859,0.0908203125,-0.9443359375,-0.1162109375
1860,0.0927734375,-0.9453125,-0.115234375
1861,0.0966796875,-0.953125,-0.1103515625
1862,0.0908203125,-0.955078125,-0.115234375
1863,0.09375,-0.9609375,-0.115234375
1864,0.0947265625,-0.955078125,-0.119140625
1865,0.0927734375,-0.95703125,-0.1171875
1866,0.0908203125,-0.955078125,-0.1201171875
1867,0.08984375,-0.951171875,-0.1240234375
1868,0.091796875,-0.951171875,-0.1298828125
1869,0.0966796875,-0.9521484375,-0.1298828125
1870,0.095703125,-0.9521484375,-0.1259765625
1871,0.0947265625,-0.947265625,-0.126953125
1872,0.0908203125,-0.9501953125,-0.1298828125
1873,0.091796875,-0.947265625,-0.1220703125
1874,0.08984375,-0.9501953125,-0.1259765625
1875,0.0947265625,-0.9501953125,-0.123046875
1876,0.095703125,-0.9541015625,-0.1240234375
1877,0.091796875,-0.9521484375,-0.125
1878,0.099609375,-0.955078125,-0.125
1879,0.091796875,-0.9521484375,-0.1279296875
1880,0.09375,-0.9501953125,-0.1259765625
1881,0.0966796875,-0.953125,-0.130859375
1882,0.095703125,-0.9541015625,-0.1337890625
1883,0.095703125,-0.955078125,-0.126953125
1884,0.09765625,-0.953125,-0.1318359375
1885,0.095703125,-0.953125,-0.126953125
1886,0.095703125,-0.9462890625,-0.1298828125
1887,0.095703125,-0.951171875,-0.125
1888,0.0986328125,-0.951171875,-0.123046875
1889,0.1005859375,-0.953125,-0.1181640625
1890,0.1015625,-0.9541015625,-0.1181640625
1891,0.0986328125,-0.9541015625,-0.115234375
1892,0.0986328125,-0.9521484375,-0.12109375
1893,0.09765625,-0.951171875,-0.123046875
1894,0.0966796875,-0.953125,-0.1220703125
1895,0.0947265625,-0.9541015625,-0.123046875
1896,0.09375,-0.9619140625,-0.1259765625
1897,0.0869140625,-0.9609375,-0.1328125
1898,0.08984375,-0.9560546875,-0.13671875
1899,0.08984375,-0.9541015625,-0.1416015625
1900,0.0927734375,-0.9541015625,-0.13671875
1901,0.09375,-0.951171875,-0.1337890625
1902,0.095703125,-0.9462890625,-0.12890625
1903,0.0947265625,-0.9423828125,-0.125
1904,0.0927734375,-0.9453125,-0.1220703125
1905,0.0927734375,-0.94921875,-0.1142578125
1906,0.0869140625,-0.9423828125,-0.115234375
1907,0.0927734375,-0.9482421875,-0.1064453125
1908,0.09375,-0.94921875,-0.1083984375
1909,0.0966796875,-0.943359375,-0.099609375
1910,0.095703125,-0.955078125,-0.0927734375
1911,0.09765625,-0.953125,-0.09375
1912,0.0966796875,-0.955078125,-0.0908203125
1913,0.0927734375,-0.953125,-0.0908203125
1914,0.095703125,-0.9521484375,-0.08984375
1915,0.1015625,-0.953125,-0.0908203125
1916,0.09765625,-0.9501953125,-0.08984375
1917,0.09765625,-0.9521484375,-0.083984375
1918,0.095703125,-0.9521484375,-0.0869140625
1919,0.09375,-0.9375,-0.0908203125
1920,0.095703125,-0.94140625,-0.09375
1921,0.0869140625,-0.9365234375,-0.09765625
1922,0.0869140625,-0.931640625,-0.09765625
1923,0.0830078125,-0.927734375,-0.1015625
1924,0.0869140625,-0.931640625,-0.107421875
1925,0.087890625,-0.9287109375,-0.111328125
1926,0.0888671875,-0.9287109375,-0.109375
1927,0.0947265625,-0.927734375,-0.1142578125
1928,0.0927734375,-0.935546875,-0.1083984375
1929,0.0966796875,-0.9287109375,-0.1064453125
1930,0.0947265625,-0.9306640625,-0.1025390625
1931,0.0966796875,-0.935546875,-0.1015625
1932,0.1005859375,-0.9306640625,-0.09375
1933,0.0947265625,-0.9365234375,-0.091796875
1934,0.0966796875,-0.9404296875,-0.08984375
1935,0.099609375,-0.9404296875,-0.0859375
1936,0.0947265625,-0.9453125,-0.0830078125
1937,0.09765625,-0.947265625,-0.083984375
1938,0.08984375,-0.9443359375,-0.0869140625
1939,0.091796875,-0.951171875,-0.087890625
1940,0.0947265625,-0.94921875,-0.09375
1941,0.0947265625,-0.9521484375,-0.0927734375
1942,0.091796875,-0.9482421875,-0.09375
1943,0.091796875,-0.9521484375,-0.0966796875
1944,0.087890625,-0.9453125,-0.0947265625
1945,0.0859375,-0.951171875,-0.095703125
1946,0.091796875,-0.9521484375,-0.0947265625
1947,0.09375,-0.9560546875,-0.095703125
1948,0.0927734375,-0.9541015625,-0.109375
1949,0.09765625,-0.9609375,-0.1123046875
1950,0.1015625,-0.9453125,-0.111328125
1951,0.0986328125,-0.9521484375,-0.115234375
1952,0.0947265625,-0.908203125,-0.1171875
1953,0.0947265625,-0.962890625,-0.123046875
1954,0.08984375,-0.9619140625,-0.1201171875
1955,0.0947265625,-0.96484375,-0.11328125
1956,0.09765625,-0.962890625,-0.1025390625
1957,0.0986328125,-0.9638671875,-0.0927734375
1958,0.095703125,-0.96484375,-0.087890625
1959,0.099609375,-0.966796875,-0.0859375
1960,0.099609375,-0.9638671875,-0.091796875
1961,0.0966796875,-0.9658203125,-0.087890625
1962,0.0869140625,-0.970703125,-0.091796875
1963,0.0908203125,-0.966796875,-0.0908203125
1964,0.09765625,-0.96875,-0.0869140625
1965,0.0966796875,-0.962890625,-0.0908203125
1966,0.091796875,-0.9599609375,-0.0830078125
1967,0.0908203125,-0.9560546875,-0.0830078125
1968,0.0966796875,-0.9619140625,-0.0810546875
1969,0.08984375,-0.9658203125,-0.0810546875
1970,0.0859375,-0.9609375,-0.0869140625
1971,0.0927734375,-0.955078125,-0.0859375
1972,0.0810546875,-0.955078125,-0.0849609375
1973,0.0859375,-0.9580078125,-0.0859375
1974,0.08203125,-0.9560546875,-0.0908203125
1975,0.08984375,-0.9521484375,-0.0908203125
1976,0.0927734375,-0.9404296875,-0.09375
1977,0.0908203125,-0.935546875,-0.0947265625
1978,0.0947265625,-0.9423828125,-0.087890625
1979,0.08984375,-0.9404296875,-0.0927734375
1980,0.091796875,-0.9482421875,-0.091796875
1981,0.0927734375,-0.9541015625,-0.095703125
1982,0.0888671875,-0.953125,-0.09375
1983,0.083984375,-0.9560546875,-0.09765625
1984,0.083984375,-0.966796875,-0.111328125
1985,0.087890625,-0.9638671875,-0.11328125
1986,0.0908203125,-0.966796875,-0.1181640625
1987,0.0908203125,-0.9599609375,-0.12109375
1988,0.0908203125,-0.9580078125,-0.126953125
1989,0.0869140625,-0.9580078125,-0.1279296875
1990,0.0966796875,-0.9521484375,-0.125
1991,0.091796875,-0.939453125,-0.1240234375
1992,0.0947265625,-0.9404296875,-0.1181640625
1993,0.095703125,-0.93359375,-0.1162109375
1994,0.095703125,-0.9306640625,-0.1142578125
1995,0.087890625,-0.94921875,-0.1171875
1996,0.09375,-0.9296875,-0.11328125
1997,0.0849609375,-0.919921875,-0.119140625
1998,0.0888671875,-0.9228515625,-0.1201171875
1999,0.0947265625,-0.9443359375,-0.1240234375
2000,0.095703125,-0.9404296875,-0.1044921875
2001,0.08984375,-0.9384765625,-0.1123046875
2002,0.0927734375,-0.943359375,-0.1083984375
2003,0.09765625,-0.9541015625,-0.107421875
2004,0.1005859375,-0.9716796875,-0.1123046875
2005,0.123046875,-0.96484375,-0.09765625
2006,0.09765625,-0.9599609375,-0.11328125
2007,0.1064453125,-0.9541015625,-0.10546875
2008,0.1171875,-0.953125,-0.103515625
2009,0.119140625,-0.962890625,-0.1015625
2010,0.12109375,-0.955078125,-0.091796875
2011,0.1259765625,-0.95703125,-0.09375
2012,0.1025390625,-0.9521484375,-0.099609375
2013,0.1005859375,-0.9609375,-0.1015625
2014,0.1064453125,-0.9638671875,-0.10546875
2015,0.1015625,-0.9638671875,-0.1044921875
2016,0.0927734375,-0.978515625,-0.109375
2017,0.09765625,-0.953125,-0.095703125
2018,0.08203125,-0.9404296875,-0.1044921875
2019,0.083984375,-0.9326171875,-0.1064453125
2020,0.0859375,-0.9423828125,-0.107421875
2021,0.0791015625,-0.947265625,-0.109375
2022,0.0810546875,-0.9482421875,-0.1171875
2023,0.0830078125,-0.9482421875,-0.12109375
2024,0.0849609375,-0.947265625,-0.125
2025,0.0888671875,-0.95703125,-0.1279296875
2026,0.099609375,-0.9462890625,-0.099609375
2027,0.09765625,-0.939453125,-0.10546875
2028,0.0966796875,-0.9443359375,-0.095703125
2029,0.1083984375,-0.9541015625,-0.0927734375
2030,0.107421875,-0.95703125,-0.09765625
2031,0.0986328125,-0.958984375,-0.1005859375
2032,0.0966796875,-0.9521484375,-0.1083984375
2033,0.09765625,-0.9443359375,-0.1123046875
2034,0.09765625,-0.9423828125,-0.1181640625
2035,0.0966796875,-0.9423828125,-0.1142578125
2036,0.0966796875,-0.9423828125,-0.1201171875
2037,0.099609375,-0.9423828125,-0.115234375
2038,0.09765625,-0.9462890625,-0.1201171875
2039,0.0947265625,-0.9462890625,-0.1162109375
2040,0.095703125,-0.9462890625,-0.1181640625
2041,0.09375,-0.9501953125,-0.1123046875
2042,0.08984375,-0.9521484375,-0.1123046875
2043,0.1142578125,-0.9521484375,-0.1083984375
2044,0.08203125,-0.94921875,-0.1103515625
2045,0.08984375,-0.9482421875,-0.107421875
2046,0.0947265625,-0.9423828125,-0.1181640625
2047,0.09765625,-0.9482421875,-0.1064453125
2048,0.095703125,-0.951171875,-0.1162109375
2049,0.09765625,-0.9541015625,-0.1123046875
2050,0.0869140625,-0.9716796875,-0.1083984375
2051,0.1025390625,-0.9501953125,-0.111328125
2052,0.09765625,-0.943359375,-0.115234375
2053,0.1015625,-0.943359375,-0.11328125
2054,0.103515625,-0.9521484375,-0.1025390625
2055,0.107421875,-0.9599609375,-0.103515625
2056,0.09765625,-0.962890625,-0.0966796875
2057,0.0966796875,-0.9580078125,-0.1005859375
2058,0.0986328125,-0.955078125,-0.0927734375
2059,0.0986328125,-0.9560546875,-0.0927734375
2060,0.1025390625,-0.95703125,-0.0888671875
2061,0.0986328125,-0.951171875,-0.091796875
2062,0.1005859375,-0.9521484375,-0.0859375
2063,0.1015625,-0.9453125,-0.083984375
2064,0.0986328125,-0.9453125,-0.0810546875
2065,0.1005859375,-0.9453125,-0.0810546875
2066,0.09765625,-0.9423828125,-0.08203125
2067,0.1025390625,-0.9404296875,-0.0810546875
2068,0.1015625,-0.9423828125,-0.080078125
2069,0.1025390625,-0.9365234375,-0.0830078125
2070,0.10546875,-0.951171875,-0.0859375
2071,0.103515625,-0.94921875,-0.078125
2072,0.1015625,-0.9462890625,-0.0810546875
2073,0.099609375,-0.955078125,-0.087890625
2074,0.1015625,-0.951171875,-0.0859375
2075,0.09375,-0.953125,-0.0771484375
2076,0.099609375,-0.9560546875,-0.0771484375
2077,0.0927734375,-0.9541015625,-0.0751953125
2078,0.0908203125,-0.953125,-0.0791015625
2079,0.0810546875,-0.953125,-0.0830078125
2080,0.08984375,-0.9462890625,-0.0888671875
2081,0.08984375,-0.9443359375,-0.1015625
2082,0.0869140625,-0.9462890625,-0.091796875
2083,0.0859375,-0.931640625,-0.1064453125
2084,0.0927734375,-0.9365234375,-0.1025390625
2085,0.0869140625,-0.9404296875,-0.095703125
2086,0.0966796875,-0.9365234375,-0.091796875
2087,0.0927734375,-0.943359375,-0.091796875
2088,0.0947265625,-0.9384765625,-0.0888671875
2089,0.095703125,-0.9443359375,-0.0830078125
2090,0.1015625,-0.943359375,-0.08203125
2091,0.0966796875,-0.9462890625,-0.078125
2092,0.1025390625,-0.9423828125,-0.080078125
2093,0.1005859375,-0.9501953125,-0.08203125
2094,0.1083984375,-0.94921875,-0.0869140625
2095,0.1044921875,-0.955078125,-0.0830078125
2096,0.1064453125,-0.955078125,-0.0810546875
2097,0.103515625,-0.95703125,-0.0849609375
2098,0.1025390625,-0.962890625,-0.080078125
2099,0.1025390625,-0.9619140625,-0.09375
2100,0.10546875,-0.9619140625,-0.0908203125
2101,0.1015625,-0.9619140625,-0.103515625
2102,0.1083984375,-0.9599609375,-0.1083984375
2103,0.109375,-0.953125,-0.11328125
2104,0.107421875,-0.955078125,-0.115234375
2105,0.103515625,-0.9560546875,-0.109375
2106,0.1025390625,-0.9619140625,-0.099609375
2107,0.0986328125,-0.9560546875,-0.087890625
2108,0.095703125,-0.958984375,-0.08203125
2109,0.0966796875,-0.958984375,-0.076171875
2110,0.09765625,-0.95703125,-0.0732421875
2111,0.0966796875,-0.955078125,-0.0703125
2112,0.095703125,-0.951171875,-0.060546875
2113,0.0966796875,-0.9482421875,-0.076171875
2114,0.099609375,-0.947265625,-0.0703125
2115,0.1015625,-0.9462890625,-0.07421875
2116,0.1064453125,-0.9462890625,-0.0791015625
2117,0.1103515625,-0.9521484375,-0.080078125
2118,0.1123046875,-0.9541015625,-0.0888671875
2119,0.1064453125,-0.9541015625,-0.0888671875
2120,0.1123046875,-0.9501953125,-0.1015625
2121,0.1083984375,-0.951171875,-0.1025390625
2122,0.109375,-0.955078125,-0.1015625
2123,0.1083984375,-0.9501953125,-0.103515625
2124,0.107421875,-0.953125,-0.095703125
2125,0.1005859375,-0.953125,-0.0986328125
2126,0.1044921875,-0.947265625,-0.1015625
2127,0.103515625,-0.953125,-0.09765625
2128,0.1005859375,-0.947265625,-0.1005859375
2129,0.0966796875,-0.94921875,-0.1083984375
2130,0.0986328125,-0.94921875,-0.1181640625
2131,0.1005859375,-0.9501953125,-0.1123046875
2132,0.099609375,-0.9501953125,-0.1181640625
2133,0.103515625,-0.9521484375,-0.1142578125
2134,0.10546875,-0.955078125,-0.115234375
2135,0.10546875,-0.9501953125,-0.115234375
2136,0.10546875,-0.962890625,-0.1201171875
2137,0.109375,-0.984375,-0.1083984375
2138,0.11328125,-0.9638671875,-0.09375
2139,0.1015625,-0.9501953125,-0.09765625
2140,0.107421875,-0.9462890625,-0.09375
2141,0.1123046875,-0.966796875,-0.09765625
2142,0.1123046875,-0.951171875,-0.0830078125
2143,0.1064453125,-0.943359375,-0.09375
2144,0.109375,-0.9365234375,-0.099609375
2145,0.1083984375,-0.94921875,-0.0947265625
2146,0.1025390625,-0.96484375,-0.091796875
2147,0.11328125,-0.947265625,-0.1025390625
2148,0.107421875,-0.9326171875,-0.10546875
2149,0.115234375,-0.9384765625,-0.1083984375
2150,0.1142578125,-0.9462890625,-0.1025390625
2151,0.119140625,-0.947265625,-0.109375
2152,0.12109375,-0.9501953125,-0.111328125
2153,0.1171875,-0.9521484375,-0.107421875
2154,0.119140625,-0.94921875,-0.103515625
2155,0.1123046875,-0.951171875,-0.109375
2156,0.1142578125,-0.9521484375,-0.1103515625
2157,0.11328125,-0.9462890625,-0.107421875
2158,0.1142578125,-0.9501953125,-0.1044921875
2159,0.1181640625,-0.94921875,-0.10546875
2160,0.115234375,-0.943359375,-0.103515625
2161,0.1142578125,-0.9453125,-0.0986328125
2162,0.1162109375,-0.9404296875,-0.0908203125
2163,0.119140625,-0.939453125,-0.0908203125
2164,0.1181640625,-0.94140625,-0.08984375
2165,0.1220703125,-0.9404296875,-0.1015625
2166,0.125,-0.943359375,-0.1025390625
2167,0.123046875,-0.94140625,-0.1044921875
2168,0.1240234375,-0.943359375,-0.1015625
2169,0.1259765625,-0.947265625,-0.109375
2170,0.12109375,-0.9453125,-0.1064453125
2171,0.12109375,-0.9482421875,-0.10546875
2172,0.123046875,-0.951171875,-0.107421875
2173,0.119140625,-0.9541015625,-0.1123046875
2174,0.1171875,-0.9521484375,-0.1142578125
2175,0.115234375,-0.9482421875,-0.109375
2176,0.1142578125,-0.955078125,-0.1064453125
2177,0.1171875,-0.9462890625,-0.099609375
2178,0.115234375,-0.951171875,-0.095703125
2179,0.1162109375,-0.9462890625,-0.09375
2180,0.1142578125,-0.9453125,-0.095703125
2181,0.115234375,-0.943359375,-0.0986328125
2182,0.1171875,-0.9384765625,-0.1064453125
2183,0.1181640625,-0.94921875,-0.103515625
2184,0.1123046875,-0.9501953125,-0.109375
2185,0.11328125,-0.95703125,-0.107421875
2186,0.1171875,-0.958984375,-0.115234375
2187,0.1171875,-0.953125,-0.11328125
2188,0.1171875,-0.9541015625,-0.119140625
2189,0.115234375,-0.958984375,-0.1162109375
2190,0.115234375,-0.9521484375,-0.1162109375
2191,0.111328125,-0.9521484375,-0.1201171875
2192,0.1171875,-0.951171875,-0.1142578125
2193,0.11328125,-0.951171875,-0.1123046875
2194,0.1162109375,-0.9541015625,-0.109375
2195,0.1201171875,-0.9453125,-0.1103515625
2196,0.1123046875,-0.9453125,-0.109375
2197,0.1162109375,-0.9453125,-0.109375
2198,0.1123046875,-0.9453125,-0.1162109375
2199,0.107421875,-0.94140625,-0.1162109375
2200,0.109375,-0.9453125,-0.1123046875
2201,0.1083984375,-0.947265625,-0.1181640625
2202,0.1103515625,-0.953125,-0.1162109375
2203,0.111328125,-0.9501953125,-0.111328125
2204,0.107421875,-0.94921875,-0.1162109375
2205,0.107421875,-0.9501953125,-0.109375
2206,0.107421875,-0.951171875,-0.1103515625
2207,0.111328125,-0.9541015625,-0.109375
2208,0.11328125,-0.9521484375,-0.1103515625
2209,0.115234375,-0.9521484375,-0.111328125
2210,0.1171875,-0.9501953125,-0.1123046875
2211,0.109375,-0.9501953125,-0.1123046875
2212,0.111328125,-0.9521484375,-0.109375
2213,0.11328125,-0.953125,-0.1142578125
2214,0.125,-0.9580078125,-0.111328125
2215,0.1025390625,-0.953125,-0.1171875
2216,0.1083984375,-0.953125,-0.1162109375
2217,0.111328125,-0.953125,-0.1201171875
2218,0.1123046875,-0.94921875,-0.1142578125
2219,0.111328125,-0.9462890625,-0.11328125
2220,0.1123046875,-0.953125,-0.1123046875
2221,0.1162109375,-0.9443359375,-0.095703125
2222,0.1142578125,-0.943359375,-0.0947265625
2223,0.1123046875,-0.94921875,-0.0927734375
2224,0.103515625,-0.943359375,-0.0947265625
2225,0.107421875,-0.9404296875,-0.09375
2226,0.099609375,-0.9365234375,-0.091796875
2227,0.10546875,-0.939453125,-0.09375
2228,0.111328125,-0.9423828125,-0.09765625
2229,0.0859375,-0.947265625,-0.10546875
2230,0.0986328125,-0.9453125,-0.107421875
2231,0.1015625,-0.947265625,-0.111328125
2232,0.1142578125,-0.9501953125,-0.1103515625
2233,0.10546875,-0.9541015625,-0.119140625
2234,0.1083984375,-0.958984375,-0.12109375
2235,0.107421875,-0.955078125,-0.125
2236,0.111328125,-0.94921875,-0.1162109375
2237,0.103515625,-0.943359375,-0.1201171875
2238,0.1044921875,-0.943359375,-0.1171875
2239,0.10546875,-0.943359375,-0.11328125
2240,0.1083984375,-0.94140625,-0.10546875
2241,0.1005859375,-0.943359375,-0.09765625
2242,0.1015625,-0.9462890625,-0.1005859375
2243,0.1005859375,-0.9443359375,-0.095703125
2244,0.0966796875,-0.9443359375,-0.0947265625
2245,0.107421875,-0.96484375,-0.09765625
2246,0.09375,-0.970703125,-0.0869140625
2247,0.0986328125,-0.9521484375,-0.087890625
2248,0.091796875,-0.9287109375,-0.095703125
2249,0.103515625,-0.94140625,-0.0986328125
2250,0.10546875,-0.9482421875,-0.09765625
2251,0.0966796875,-0.9482421875,-0.10546875
2252,0.095703125,-0.951171875,-0.1015625
2253,0.0966796875,-0.94921875,-0.103515625
2254,0.0927734375,-0.9560546875,-0.0966796875
2255,0.08984375,-0.955078125,-0.099609375
2256,0.095703125,-0.95703125,-0.0986328125
2257,0.0888671875,-0.9560546875,-0.103515625
2258,0.08984375,-0.9560546875,-0.0947265625
2259,0.0908203125,-0.9501953125,-0.1015625
2260,0.095703125,-0.9560546875,-0.0966796875
2261,0.0986328125,-0.9541015625,-0.095703125
2262,0.0947265625,-0.958984375,-0.0927734375
2263,0.09765625,-0.9560546875,-0.09765625
2264,0.0986328125,-0.9521484375,-0.091796875
2265,0.0966796875,-0.9560546875,-0.0947265625
2266,0.0966796875,-0.9541015625,-0.0966796875
2267,0.0966796875,-0.9521484375,-0.1015625
2268,0.09765625,-0.94921875,-0.1005859375
2269,0.09765625,-0.9482421875,-0.09765625
2270,0.09375,-0.9443359375,-0.103515625
2271,0.0947265625,-0.9482421875,-0.10546875
2272,0.0947265625,-0.9453125,-0.1015625
2273,0.091796875,-0.9501953125,-0.1025390625
2274,0.0869140625,-0.9521484375,-0.0966796875
2275,0.0849609375,-0.9521484375,-0.09375
2276,0.08203125,-0.9541015625,-0.08984375
2277,0.0791015625,-0.9580078125,-0.0908203125
2278,0.0810546875,-0.9619140625,-0.091796875
2279,0.0791015625,-0.9560546875,-0.091796875
2280,0.0751953125,-0.9609375,-0.09765625
2281,0.07421875,-0.9560546875,-0.10546875
2282,0.078125,-0.953125,-0.10546875
2283,0.0751953125,-0.9521484375,-0.10546875
2284,0.083984375,-0.9482421875,-0.1025390625
2285,0.083984375,-0.9521484375,-0.0947265625
2286,0.091796875,-0.9501953125,-0.095703125
2287,0.0947265625,-0.951171875,-0.0986328125
2288,0.09375,-0.9482421875,-0.0947265625
2289,0.0966796875,-0.94921875,-0.09375
2290,0.099609375,-0.947265625,-0.0927734375
2291,0.0986328125,-0.94921875,-0.0947265625
2292,0.1083984375,-0.951171875,-0.09375
2293,0.10546875,-0.9541015625,-0.09375
2294,0.10546875,-0.9560546875,-0.0908203125
2295,0.1083984375,-0.9609375,-0.0947265625
2296,0.115234375,-0.9609375,-0.0908203125
2297,0.1123046875,-0.9599609375,-0.091796875
2298,0.11328125,-0.9580078125,-0.0927734375
2299,0.111328125,-0.962890625,-0.091796875
2300,0.1123046875,-0.958984375,-0.08984375
2301,0.1083984375,-0.9619140625,-0.095703125
2302,0.1083984375,-0.95703125,-0.103515625
2303,0.109375,-0.9580078125,-0.109375
2304,0.111328125,-0.9599609375,-0.1162109375
2305,0.1083984375,-0.94921875,-0.12109375
2306,0.1083984375,-0.94921875,-0.1181640625
2307,0.103515625,-0.9482421875,-0.1162109375
2308,0.109375,-0.9423828125,-0.1083984375
2309,0.103515625,-0.943359375,-0.111328125
2310,0.107421875,-0.9453125,-0.1025390625
2311,0.103515625,-0.951171875,-0.0986328125
2312,0.10546875,-0.9404296875,-0.0966796875
2313,0.1005859375,-0.947265625,-0.091796875
2314,0.103515625,-0.94140625,-0.0927734375
2315,0.1015625,-0.947265625,-0.0888671875
2316,0.1044921875,-0.947265625,-0.09375
2317,0.107421875,-0.9501953125,-0.087890625
2318,0.107421875,-0.947265625,-0.087890625
2319,0.109375,-0.9541015625,-0.0869140625
2320,0.109375,-0.94921875,-0.080078125
2321,0.107421875,-0.9541015625,-0.078125
2322,0.1123046875,-0.94921875,-0.0751953125
2323,0.11328125,-0.951171875,-0.0703125
2324,0.115234375,-0.947265625,-0.0732421875
2325,0.115234375,-0.939453125,-0.0703125
2326,0.1162109375,-0.9423828125,-0.0732421875
2327,0.1220703125,-0.9462890625,-0.0634765625
2328,0.12109375,-0.9404296875,-0.0654296875
2329,0.1240234375,-0.9404296875,-0.06640625
2330,0.1162109375,-0.943359375,-0.06640625
2331,0.119140625,-0.9423828125,-0.06640625
2332,0.1171875,-0.943359375,-0.0732421875
2333,0.1181640625,-0.9443359375,-0.0810546875
2334,0.12109375,-0.94140625,-0.08203125
2335,0.1240234375,-0.931640625,-0.0859375
2336,0.1201171875,-0.9443359375,-0.091796875
2337,0.1201171875,-0.939453125,-0.091796875
2338,0.12109375,-0.9375,-0.095703125
2339,0.123046875,-0.9365234375,-0.09765625
2340,0.1240234375,-0.9443359375,-0.0947265625
2341,0.1220703125,-0.94921875,-0.095703125
2342,0.123046875,-0.9521484375,-0.1064453125
2343,0.119140625,-0.9501953125,-0.1083984375
2344,0.115234375,-0.94921875,-0.115234375
2345,0.109375,-0.94921875,-0.11328125
2346,0.1142578125,-0.9521484375,-0.1123046875
2347,0.111328125,-0.9462890625,-0.1103515625
2348,0.11328125,-0.9541015625,-0.10546875
2349,0.1142578125,-0.95703125,-0.1044921875
2350,0.1083984375,-0.9541015625,-0.1015625
2351,0.1083984375,-0.958984375,-0.099609375
2352,0.11328125,-0.958984375,-0.1015625
2353,0.11328125,-0.958984375,-0.103515625
2354,0.115234375,-0.95703125,-0.107421875
2355,0.1123046875,-0.95703125,-0.11328125
2356,0.1142578125,-0.9580078125,-0.1181640625
2357,0.11328125,-0.9521484375,-0.12109375
2358,0.111328125,-0.95703125,-0.1220703125
2359,0.11328125,-0.951171875,-0.119140625
2360,0.111328125,-0.94921875,-0.119140625
2361,0.1162109375,-0.953125,-0.111328125
2362,0.1162109375,-0.9482421875,-0.11328125
2363,0.1162109375,-0.955078125,-0.1123046875
2364,0.1162109375,-0.9580078125,-0.11328125
2365,0.1142578125,-0.9599609375,-0.1181640625
2366,0.115234375,-0.958984375,-0.1181640625
2367,0.1162109375,-0.9609375,-0.1162109375
2368,0.111328125,-0.95703125,-0.119140625
2369,0.109375,-0.95703125,-0.1259765625
2370,0.1123046875,-0.9541015625,-0.1318359375
2371,0.1142578125,-0.9521484375,-0.125
2372,0.1123046875,-0.9453125,-0.1181640625
2373,0.11328125,-0.939453125,-0.1103515625
2374,0.11328125,-0.94140625,-0.103515625
2375,0.1103515625,-0.9375,-0.1044921875
2376,0.107421875,-0.9404296875,-0.0986328125
2377,0.1103515625,-0.9404296875,-0.1005859375
2378,0.107421875,-0.94140625,-0.095703125
2379,0.1044921875,-0.9453125,-0.091796875
2380,0.1064453125,-0.9453125,-0.1015625
2381,0.1064453125,-0.94140625,-0.10546875
2382,0.1083984375,-0.9404296875,-0.1123046875
2383,0.109375,-0.94921875,-0.109375
2384,0.1083984375,-0.953125,-0.1103515625
2385,0.1142578125,-0.951171875,-0.1123046875
2386,0.11328125,-0.9482421875,-0.11328125
2387,0.109375,-0.951171875,-0.1142578125
2388,0.1162109375,-0.9482421875,-0.1123046875
2389,0.1103515625,-0.9462890625,-0.111328125
2390,0.109375,-0.9482421875,-0.107421875
2391,0.1103515625,-0.953125,-0.103515625
2392,0.1123046875,-0.9560546875,-0.1064453125
2393,0.1083984375,-0.953125,-0.1064453125
2394,0.1083984375,-0.95703125,-0.1083984375
2395,0.1083984375,-0.9560546875,-0.1083984375
2396,0.109375,-0.953125,-0.1171875
2397,0.1044921875,-0.9599609375,-0.12109375
2398,0.107421875,-0.953125,-0.1220703125
2399,0.10546875,-0.9560546875,-0.1259765625
