,accelerometerAccelerationX(G),accelerometerAccelerationY(G),accelerometerAccelerationZ(G)
0,0.0244140625,-0.9521484375,-0.0009765625
1,0.0244140625,-0.958984375,0.0
2,0.0244140625,-0.9599609375,-0.001953125
3,0.02734375,-0.9560546875,-0.0048828125
4,0.021484375,-0.974609375,-0.0009765625
5,0.0234375,-0.962890625,0.0
6,0.0244140625,-0.962890625,-0.005859375
7,0.0224609375,-0.96875,-0.001953125
8,0.0205078125,-0.96484375,-0.0029296875
9,0.0224609375,-0.958984375,-0.0048828125
10,0.0234375,-0.962890625,0.0048828125
11,0.0224609375,-0.9609375,0.001953125
12,0.025390625,-0.9619140625,-0.001953125
13,0.0234375,-0.9580078125,-0.005859375
14,0.0263671875,-0.955078125,-0.00390625
15,0.0224609375,-0.955078125,-0.005859375
16,0.0263671875,-0.9638671875,-0.001953125
17,0.0283203125,-0.9521484375,-0.001953125
18,0.0302734375,-0.9619140625,-0.001953125
19,0.025390625,-0.953125,-0.0029296875
20,0.033203125,-0.951171875,0.0009765625
21,0.0302734375,-0.953125,0.001953125
22,0.025390625,-0.9501953125,-0.0009765625
23,0.029296875,-0.95703125,-0.0048828125
24,0.0263671875,-0.9580078125,-0.0029296875
25,0.0224609375,-0.962890625,-0.001953125
26,0.021484375,-0.95703125,-0.001953125
27,0.02734375,-0.95703125,-0.0009765625
28,0.0244140625,-0.9541015625,0.0009765625
29,0.0244140625,-0.95703125,-0.00390625
30,0.021484375,-0.955078125,-0.00390625
31,0.0224609375,-0.9541015625,-0.0009765625
32,0.01953125,-0.9580078125,-0.001953125
33,0.021484375,-0.96875,-0.0048828125
34,0.0185546875,-0.95703125,-0.0048828125
35,0.0205078125,-0.9677734375,0.0
36,0.0205078125,-0.962890625,0.0
37,0.0263671875,-0.966796875,-0.005859375
38,0.025390625,-0.962890625,-0.001953125
39,0.0244140625,-0.974609375,-0.00390625
40,0.0234375,-0.9609375,0.0
41,0.0244140625,-0.97265625,0.0029296875
42,0.0234375,-0.97265625,0.001953125
43,0.0234375,-0.9677734375,0.0009765625
44,0.01953125,-0.9716796875,0.0048828125
45,0.01953125,-0.9677734375,0.0
46,0.0234375,-0.9541015625,0.00390625
47,0.01953125,-0.962890625,-0.001953125
48,0.01953125,-0.966796875,0.0
49,0.0224609375,-0.953125,0.001953125
50,0.01953125,-0.9541015625,0.001953125
51,0.0185546875,-0.9580078125,0.00390625
52,0.0244140625,-0.95703125,0.0029296875
53,0.015625,-0.962890625,0.0048828125
54,0.01953125,-0.9560546875,0.001953125
55,0.021484375,-0.9521484375,0.0009765625
56,0.021484375,-0.9560546875,0.0029296875
57,0.0205078125,-0.955078125,-0.001953125
58,0.021484375,-0.955078125,-0.001953125
59,0.0224609375,-0.953125,-0.0009765625
60,0.0224609375,-0.955078125,-0.0048828125
61,0.0302734375,-0.9580078125,-0.0029296875
62,0.025390625,-0.955078125,-0.001953125
63,0.025390625,-0.9521484375,-0.0048828125
64,0.029296875,-0.9638671875,-0.0029296875
65,0.0234375,-0.96875,-0.001953125
66,0.02734375,-0.966796875,-0.00390625
67,0.0224609375,-0.962890625,-0.001953125
68,0.0263671875,-0.9716796875,0.0009765625
69,0.0244140625,-0.9716796875,-0.0009765625
70,0.025390625,-0.96875,-0.001953125
71,0.0244140625,-0.962890625,-0.001953125
72,0.01953125,-0.962890625,0.0
73,0.0224609375,-0.9716796875,0.00390625
74,0.021484375,-0.95703125,0.0
75,0.0234375,-0.958984375,0.0009765625
76,0.01953125,-0.96484375,0.001953125
77,0.0205078125,-0.9619140625,-0.0009765625
78,0.021484375,-0.9599609375,-0.0009765625
79,0.021484375,-0.95703125,-0.0029296875
80,0.0224609375,-0.962890625,-0.00390625
81,0.021484375,-0.9580078125,0.0
82,0.0224609375,-0.962890625,-0.0048828125
83,0.0234375,-0.953125,0.0
84,0.0224609375,-0.95703125,0.001953125
85,0.0205078125,-0.9580078125,0.0
86,0.0224609375,-0.9794921875,-0.00390625
87,0.0224609375,-0.9619140625,-0.0009765625
88,0.01953125,-0.953125,0.0009765625
89,0.0244140625,-0.958984375,-0.00390625
90,0.0224609375,-0.9716796875,0.0029296875
91,0.01953125,-0.96875,0.0029296875
92,0.021484375,-0.9677734375,-0.0078125
93,0.021484375,-0.9619140625,0.00390625
94,0.0244140625,-0.95703125,0.001953125
95,0.021484375,-0.9716796875,-0.0009765625
96,0.0234375,-0.9619140625,0.00390625
97,0.01953125,-0.958984375,-0.0009765625
98,0.0224609375,-0.96484375,-0.001953125
99,0.021484375,-0.9609375,-0.0029296875
100,0.0205078125,-0.955078125,0.0
101,0.0166015625,-0.9638671875,0.00390625
102,0.021484375,-0.9599609375,0.0
103,0.0224609375,-0.9638671875,0.001953125
104,0.021484375,-0.962890625,0.0
105,0.021484375,-0.9541015625,0.001953125
106,0.0341796875,-0.9638671875,-0.001953125
107,0.0224609375,-0.9521484375,-0.00390625
108,0.021484375,-0.962890625,0.0
109,0.025390625,-0.95703125,0.0
110,0.021484375,-0.9560546875,0.0
111,0.0244140625,-0.955078125,-0.0048828125
112,0.0244140625,-0.955078125,0.0029296875
113,0.0224609375,-0.9638671875,0.0048828125
114,0.021484375,-0.9609375,0.00390625
115,0.021484375,-0.96484375,-0.0029296875
116,0.0244140625,-0.9560546875,0.0029296875
117,0.0234375,-0.9677734375,0.0
118,0.0205078125,-0.96484375,0.0048828125
119,0.0205078125,-0.966796875,0.001953125
120,0.0234375,-0.9658203125,0.005859375
121,0.0244140625,-0.9677734375,0.0048828125
122,0.0244140625,-0.96875,0.0048828125
123,0.025390625,-0.970703125,0.00390625
124,0.021484375,-0.9619140625,0.00390625
125,0.0224609375,-0.9541015625,0.0
126,0.0224609375,-0.951171875,0.001953125
127,0.0224609375,-0.953125,-0.0009765625
128,0.0244140625,-0.9521484375,-0.0029296875
129,0.0263671875,-0.9521484375,0.0009765625
130,0.0205078125,-0.9541015625,0.001953125
131,0.025390625,-0.9580078125,0.001953125
132,0.025390625,-0.955078125,0.005859375
133,0.02734375,-0.962890625,0.0029296875
134,0.0234375,-0.958984375,0.0048828125
135,0.02734375,-0.95703125,-0.0009765625
136,0.0244140625,-0.95703125,0.0048828125
137,0.0244140625,-0.9609375,0.005859375
138,0.0234375,-0.9619140625,0.0009765625
139,0.0234375,-0.9658203125,0.0048828125
140,0.0234375,-0.9560546875,0.0009765625
141,0.0224609375,-0.9677734375,-0.001953125
142,0.0185546875,-0.970703125,0.0029296875
143,0.0224609375,-0.9580078125,0.0068359375
144,0.0224609375,-0.962890625,0.005859375
145,0.0205078125,-0.9658203125,0.00390625
146,0.0166015625,-0.9716796875,0.0029296875
147,0.0185546875,-0.9638671875,0.00390625
148,0.0205078125,-0.95703125,0.0029296875
149,0.0224609375,-0.9580078125,0.001953125
150,0.0205078125,-0.962890625,-0.0029296875
151,0.021484375,-0.95703125,0.00390625
152,0.0185546875,-0.958984375,-0.0029296875
153,0.0224609375,-0.95703125,0.005859375
154,0.0205078125,-0.9521484375,-0.0029296875
155,0.0234375,-0.9599609375,0.0029296875
156,0.0224609375,-0.953125,-0.0009765625
157,0.0224609375,-0.95703125,0.005859375
158,0.0244140625,-0.9580078125,0.0
159,0.0224609375,-0.9541015625,0.0048828125
160,0.0205078125,-0.95703125,0.0078125
161,0.021484375,-0.9677734375,0.0009765625
162,0.01953125,-0.95703125,0.0048828125
163,0.0205078125,-0.9580078125,0.001953125
164,0.0205078125,-0.96484375,0.00390625
165,0.021484375,-0.9638671875,0.001953125
166,0.021484375,-0.9677734375,0.0068359375
167,0.01953125,-0.9560546875,0.0
168,0.0224609375,-0.9619140625,0.0048828125
169,0.0244140625,-0.9638671875,0.0
170,0.0234375,-0.955078125,0.001953125
171,0.029296875,-0.9599609375,0.0029296875
172,0.0244140625,-0.955078125,0.005859375
173,0.025390625,-0.9609375,0.0029296875
174,0.0263671875,-0.9619140625,0.0048828125
175,0.021484375,-0.962890625,0.0068359375
176,0.0224609375,-0.9580078125,0.0
177,0.0302734375,-0.962890625,0.0009765625
178,0.0341796875,-0.955078125,0.0087890625
179,0.0263671875,-0.9599609375,0.0029296875
180,0.02734375,-0.955078125,0.0078125
181,0.02734375,-0.9609375,0.0048828125
182,0.02734375,-0.9580078125,0.005859375
183,0.029296875,-0.9599609375,0.0078125
184,0.0234375,-0.9599609375,0.0048828125
185,0.025390625,-0.96484375,0.001953125
186,0.025390625,-0.9599609375,-0.001953125
187,0.0224609375,-0.9599609375,0.0029296875
188,0.0234375,-0.9599609375,0.00390625
189,0.021484375,-0.955078125,0.0009765625
190,0.0224609375,-0.9677734375,0.0029296875
191,0.0244140625,-0.9716796875,0.00390625
192,0.0283203125,-0.9658203125,0.0087890625
193,0.0234375,-0.970703125,0.0068359375
194,0.025390625,-0.9677734375,0.0048828125
195,0.03125,-0.9638671875,0.0048828125
196,0.0283203125,-0.9619140625,0.00390625
197,0.0234375,-0.9638671875,0.0068359375
198,0.021484375,-0.955078125,0.005859375
199,0.0283203125,-0.9638671875,0.0048828125
200,0.0361328125,-0.962890625,-0.00390625
201,0.025390625,-0.955078125,0.001953125
202,0.021484375,-0.9580078125,0.0
203,0.0224609375,-0.9677734375,-0.001953125
204,0.0234375,-0.9541015625,-0.0009765625
205,0.0244140625,-0.955078125,-0.0009765625
206,0.02734375,-0.9541015625,-0.00390625
207,0.0234375,-0.9580078125,0.0048828125
208,0.02734375,-0.9638671875,0.0029296875
209,0.02734375,-0.9609375,0.01171875
210,0.021484375,-0.96484375,0.005859375
211,0.0205078125,-0.9580078125,0.0
212,0.025390625,-0.9560546875,0.0009765625
213,0.0263671875,-0.953125,0.0009765625
214,0.0224609375,-0.9541015625,0.0029296875
215,0.029296875,-0.9619140625,-0.0009765625
216,0.0263671875,-0.9599609375,-0.001953125
217,0.0234375,-0.9560546875,0.001953125
218,0.0224609375,-0.95703125,-0.001953125
219,0.0234375,-0.9541015625,-0.001953125
220,0.025390625,-0.96875,0.0048828125
221,0.025390625,-0.958984375,0.001953125
222,0.0224609375,-0.9619140625,0.0048828125
223,0.0234375,-0.9560546875,0.0068359375
224,0.0185546875,-0.9609375,0.0048828125
225,0.0205078125,-0.9541015625,0.00390625
226,0.0224609375,-0.9560546875,-0.0009765625
227,0.0205078125,-0.958984375,0.001953125
228,0.01953125,-0.9658203125,0.0
229,0.0234375,-0.970703125,-0.0048828125
230,0.0224609375,-0.9619140625,-0.0068359375
231,0.0205078125,-0.9599609375,-0.0029296875
232,0.0185546875,-0.9697265625,-0.0048828125
233,0.01953125,-0.96875,0.0009765625
234,0.0224609375,-0.9677734375,-0.0009765625
235,0.025390625,-0.9755859375,-0.0009765625
236,0.0224609375,-0.9638671875,0.00390625
237,0.0263671875,-0.95703125,-0.0009765625
238,0.0244140625,-0.96484375,-0.001953125
239,0.025390625,-0.9599609375,-0.0068359375
240,0.0244140625,-0.9638671875,-0.0078125
241,0.0244140625,-0.953125,-0.0009765625
242,0.0244140625,-0.9521484375,-0.001953125
243,0.0244140625,-0.9521484375,-0.0009765625
244,0.0244140625,-0.955078125,0.0
245,0.025390625,-0.955078125,-0.0029296875
246,0.025390625,-0.9541015625,-0.001953125
247,0.03125,-0.962890625,-0.0009765625
248,0.025390625,-0.9560546875,-0.0068359375
249,0.0234375,-0.9560546875,-0.005859375
250,0.0234375,-0.9560546875,-0.001953125
251,0.0244140625,-0.9580078125,-0.00390625
252,0.025390625,-0.953125,0.0
253,0.0205078125,-0.9541015625,-0.001953125
254,0.01953125,-0.9560546875,0.0009765625
255,0.01953125,-0.962890625,0.0009765625
256,0.0224609375,-0.958984375,-0.001953125
257,0.0234375,-0.9638671875,0.0
258,0.021484375,-0.9609375,-0.0087890625
259,0.0205078125,-0.966796875,-0.00390625
260,0.01953125,-0.9619140625,-0.00390625
261,0.0205078125,-0.96484375,-0.005859375
262,0.017578125,-0.9736328125,-0.0068359375
263,0.021484375,-0.97265625,-0.0068359375
264,0.01953125,-0.97265625,0.0009765625
265,0.0126953125,-0.974609375,-0.0048828125
266,0.01953125,-0.9619140625,0.0
267,0.021484375,-0.9619140625,-0.005859375
268,0.021484375,-0.9541015625,-0.0048828125
269,0.01953125,-0.9638671875,-0.001953125
270,0.0205078125,-0.9541015625,-0.0068359375
271,0.021484375,-0.962890625,-0.005859375
272,0.021484375,-0.955078125,-0.0048828125
273,0.0205078125,-0.953125,-0.0087890625
274,0.021484375,-0.96484375,-0.005859375
275,0.0205078125,-0.9619140625,-0.005859375
276,0.0234375,-0.95703125,-0.0078125
277,0.0224609375,-0.9521484375,-0.005859375
278,0.025390625,-0.9541015625,-0.0078125
279,0.0234375,-0.9638671875,-0.0078125
280,0.02734375,-0.9521484375,-0.005859375
281,0.0234375,-0.953125,-0.005859375
282,0.0263671875,-0.958984375,-0.0087890625
283,0.029296875,-0.95703125,-0.009765625
284,0.0244140625,-0.96875,-0.005859375
285,0.0205078125,-0.953125,-0.0087890625
286,0.0263671875,-0.95703125,-0.00390625
287,0.021484375,-0.9609375,-0.0068359375
288,0.0244140625,-0.9599609375,-0.0078125
289,0.0205078125,-0.9560546875,-0.0107421875
290,0.0224609375,-0.958984375,-0.0068359375
291,0.0234375,-0.9580078125,-0.0078125
292,0.0224609375,-0.9560546875,-0.0107421875
293,0.025390625,-0.9599609375,-0.0107421875
294,0.0234375,-0.9599609375,-0.0087890625
295,0.02734375,-0.9560546875,-0.009765625
296,0.021484375,-0.9609375,-0.0078125
297,0.0234375,-0.9677734375,-0.013671875
298,0.0244140625,-0.953125,-0.0126953125
299,0.0234375,-0.970703125,-0.0107421875
300,0.021484375,-0.9609375,-0.0126953125
301,0.0224609375,-0.9638671875,-0.0107421875
302,0.021484375,-0.962890625,-0.01171875
303,0.0224609375,-0.953125,-0.0087890625
304,0.02734375,-0.9619140625,-0.0107421875
305,0.0234375,-0.9521484375,-0.01171875
306,0.025390625,-0.958984375,-0.01171875
307,0.01953125,-0.9541015625,-0.0078125
308,0.0185546875,-0.96875,-0.0078125
309,0.017578125,-0.9541015625,-0.005859375
310,0.0185546875,-0.95703125,-0.0068359375
311,0.0205078125,-0.9609375,-0.0048828125
312,0.0234375,-0.958984375,-0.005859375
313,0.0205078125,-0.9560546875,-0.005859375
314,0.0244140625,-0.9521484375,-0.0078125
315,0.0244140625,-0.95703125,-0.01171875
316,0.0283203125,-0.9541015625,-0.0146484375
317,0.03125,-0.9521484375,-0.0146484375
318,0.0205078125,-0.9560546875,-0.013671875
319,0.0224609375,-0.953125,-0.0146484375
320,0.0234375,-0.955078125,-0.015625
321,0.0205078125,-0.9560546875,-0.005859375
322,0.0224609375,-0.953125,-0.0087890625
323,0.0234375,-0.955078125,-0.0068359375
324,0.01953125,-0.9541015625,-0.0068359375
325,0.021484375,-0.9541015625,-0.01171875
326,0.0244140625,-0.9580078125,-0.0087890625
327,0.021484375,-0.9580078125,-0.00390625
328,0.0244140625,-0.953125,-0.0107421875
329,0.0205078125,-0.9638671875,-0.0087890625
330,0.0234375,-0.9541015625,-0.015625
331,0.0244140625,-0.9609375,-0.0126953125
332,0.0224609375,-0.9609375,-0.0146484375
333,0.0234375,-0.9580078125,-0.0107421875
334,0.0205078125,-0.958984375,-0.0126953125
335,0.0205078125,-0.955078125,-0.0146484375
336,0.0224609375,-0.9638671875,-0.0185546875
337,0.02734375,-0.9560546875,-0.0166015625
338,0.029296875,-0.9541015625,-0.015625
339,0.0234375,-0.962890625,-0.013671875
340,0.021484375,-0.953125,-0.01171875
341,0.021484375,-0.9521484375,-0.005859375
342,0.021484375,-0.9560546875,-0.009765625
343,0.0234375,-0.955078125,-0.0146484375
344,0.0205078125,-0.95703125,-0.013671875
345,0.021484375,-0.9541015625,-0.0146484375
346,0.021484375,-0.9619140625,-0.0146484375
347,0.0205078125,-0.9619140625,-0.005859375
348,0.0263671875,-0.95703125,-0.0107421875
349,0.0234375,-0.958984375,-0.0078125
350,0.01953125,-0.9521484375,-0.009765625
351,0.021484375,-0.9580078125,-0.0087890625
352,0.0185546875,-0.9736328125,-0.0087890625
353,0.0205078125,-0.9521484375,-0.009765625
354,0.0234375,-0.9580078125,-0.01171875
355,0.0224609375,-0.9560546875,-0.0078125
356,0.0263671875,-0.958984375,-0.0087890625
357,0.0234375,-0.9638671875,-0.005859375
358,0.021484375,-0.958984375,-0.009765625
359,0.021484375,-0.9677734375,-0.009765625
360,0.0234375,-0.9599609375,-0.0078125
361,0.0205078125,-0.9580078125,-0.01171875
362,0.0205078125,-0.9619140625,-0.0087890625
363,0.021484375,-0.9658203125,-0.0107421875
364,0.02734375,-0.9541015625,-0.0107421875
365,0.021484375,-0.9560546875,-0.0087890625
366,0.021484375,-0.947265625,-0.009765625
367,0.021484375,-0.955078125,-0.01171875
368,0.0263671875,-0.9599609375,-0.0078125
369,0.0234375,-0.9599609375,-0.0087890625
370,0.025390625,-0.9638671875,-0.0107421875
371,0.0205078125,-0.966796875,-0.0107421875
372,0.025390625,-0.9697265625,-0.0048828125
373,0.0205078125,-0.9580078125,-0.00390625
374,0.0224609375,-0.96875,-0.001953125
375,0.01953125,-0.9599609375,-0.005859375
376,0.0185546875,-0.9638671875,-0.009765625
377,0.0205078125,-0.97265625,-0.005859375
378,0.021484375,-0.95703125,-0.0029296875
379,0.0224609375,-0.962890625,-0.009765625
380,0.0244140625,-0.95703125,-0.01171875
381,0.021484375,-0.9580078125,-0.0068359375
382,0.0224609375,-0.955078125,-0.0078125
383,0.021484375,-0.9541015625,-0.0068359375
384,0.0224609375,-0.9560546875,-0.01171875
385,0.025390625,-0.9609375,-0.00390625
386,0.0234375,-0.95703125,-0.013671875
387,0.0263671875,-0.962890625,-0.00390625
388,0.0224609375,-0.9677734375,-0.0048828125
389,0.029296875,-0.96484375,-0.001953125
390,0.0322265625,-0.9638671875,-0.005859375
391,0.0244140625,-0.9716796875,-0.001953125
392,0.0234375,-0.9697265625,-0.0009765625
393,0.0263671875,-0.9560546875,-0.0048828125
394,0.0263671875,-0.95703125,-0.005859375
395,0.02734375,-0.958984375,-0.001953125
396,0.025390625,-0.951171875,-0.0068359375
397,0.0234375,-0.9560546875,-0.0048828125
398,0.0234375,-0.9580078125,-0.0087890625
399,0.02734375,-0.9580078125,-0.0078125
400,0.0244140625,-0.953125,-0.0048828125
401,0.0244140625,-0.9541015625,-0.01171875
402,0.025390625,-0.9521484375,-0.0048828125
403,0.025390625,-0.95703125,-0.005859375
404,0.0234375,-0.9638671875,-0.0068359375
405,0.025390625,-0.958984375,-0.0078125
406,0.025390625,-0.96875,-0.001953125
407,0.025390625,-0.9638671875,-0.005859375
408,0.0224609375,-0.9658203125,-0.0087890625
409,0.0283203125,-0.9560546875,-0.0078125
410,0.02734375,-0.962890625,-0.005859375
411,0.025390625,-0.9609375,-0.0078125
412,0.0283203125,-0.9560546875,-0.0126953125
413,0.0283203125,-0.9580078125,-0.01171875
414,0.02734375,-0.9560546875,-0.0078125
415,0.03125,-0.9560546875,-0.005859375
416,0.0234375,-0.96875,-0.0078125
417,0.025390625,-0.96875,-0.0068359375
418,0.02734375,-0.9638671875,-0.0068359375
419,0.0224609375,-0.9697265625,-0.00390625
420,0.02734375,-0.9638671875,-0.0087890625
421,0.02734375,-0.9541015625,-0.0068359375
422,0.0263671875,-0.9541015625,-0.009765625
423,0.0205078125,-0.966796875,-0.005859375
424,0.021484375,-0.9541015625,-0.0078125
425,0.0205078125,-0.962890625,-0.0087890625
426,0.0244140625,-0.9580078125,-0.009765625
427,0.025390625,-0.9638671875,-0.0068359375
428,0.025390625,-0.9560546875,-0.0078125
429,0.0234375,-0.9580078125,-0.0087890625
430,0.0205078125,-0.9619140625,-0.0048828125
431,0.0224609375,-0.966796875,-0.0087890625
432,0.0205078125,-0.9609375,-0.0048828125
433,0.01953125,-0.96484375,-0.0107421875
434,0.025390625,-0.958984375,-0.0087890625
435,0.01953125,-0.962890625,-0.0068359375
436,0.0244140625,-0.962890625,-0.0048828125
437,0.025390625,-0.955078125,-0.01171875
438,0.02734375,-0.9638671875,-0.01171875
439,0.0185546875,-0.9560546875,-0.013671875
440,0.0302734375,-0.9677734375,-0.0068359375
441,0.0234375,-0.9619140625,-0.0078125
442,0.0244140625,-0.958984375,-0.0029296875
443,0.01953125,-0.962890625,-0.0068359375
444,0.0234375,-0.9697265625,-0.0107421875
445,0.02734375,-0.96875,-0.0087890625
446,0.0234375,-0.9638671875,-0.0078125
447,0.0234375,-0.958984375,-0.0078125
448,0.0234375,-0.9560546875,-0.0078125
449,0.0283203125,-0.9599609375,-0.0068359375
450,0.029296875,-0.955078125,-0.0068359375
451,0.01953125,-0.9560546875,-0.0087890625
452,0.0185546875,-0.953125,-0.005859375
453,0.0224609375,-0.9541015625,-0.0087890625
454,0.025390625,-0.958984375,-0.0107421875
455,0.0234375,-0.9541015625,-0.0087890625
456,0.0205078125,-0.95703125,-0.009765625
457,0.021484375,-0.95703125,-0.0078125
458,0.0244140625,-0.9619140625,-0.013671875
459,0.025390625,-0.955078125,-0.01171875
460,0.0234375,-0.9697265625,-0.013671875
461,0.021484375,-0.96484375,-0.0068359375
462,0.021484375,-0.974609375,-0.01171875
463,0.02734375,-0.9609375,-0.0107421875
464,0.021484375,-0.9619140625,-0.009765625
465,0.017578125,-0.9677734375,-0.0107421875
466,0.0302734375,-0.9638671875,-0.009765625
467,0.041015625,-0.96875,-0.0126953125
468,0.0380859375,-0.9580078125,-0.0166015625
469,0.0205078125,-0.962890625,-0.017578125
470,0.0341796875,-0.9521484375,-0.0146484375
471,0.0283203125,-0.9521484375,-0.021484375
472,0.0068359375,-0.95703125,-0.0205078125
473,0.0087890625,-0.955078125,-0.0126953125
474,0.0126953125,-0.9541015625,-0.009765625
475,0.0166015625,-0.958984375,-0.0107421875
476,0.021484375,-0.962890625,-0.013671875
477,0.0263671875,-0.9677734375,-0.0146484375
478,0.0224609375,-0.9619140625,-0.017578125
479,0.05078125,-0.9580078125,-0.0234375
480,0.046875,-0.970703125,-0.02734375
481,0.0087890625,-0.9599609375,-0.03515625
482,0.017578125,-0.9609375,-0.0263671875
483,0.0224609375,-0.95703125,-0.0302734375
484,0.0234375,-0.9609375,-0.0205078125
485,0.044921875,-0.962890625,-0.0244140625
486,0.0517578125,-0.9697265625,-0.0263671875
487,0.01953125,-0.9658203125,-0.01953125
488,0.015625,-0.9677734375,-0.015625
489,0.0146484375,-0.9638671875,-0.0146484375
490,0.013671875,-0.9541015625,-0.0234375
491,0.0224609375,-0.953125,-0.017578125
492,0.0244140625,-0.953125,-0.0205078125
493,0.046875,-0.9541015625,-0.0166015625
494,0.025390625,-0.94921875,-0.01953125
495,0.0166015625,-0.9482421875,-0.021484375
496,0.021484375,-0.9521484375,-0.0244140625
497,0.021484375,-0.9462890625,-0.01953125
498,0.015625,-0.9443359375,-0.015625
499,0.015625,-0.94140625,-0.0126953125
500,0.0185546875,-0.9404296875,-0.0068359375
501,0.025390625,-0.94921875,-0.0078125
502,0.02734375,-0.951171875,-0.00390625
503,0.0322265625,-0.9560546875,-0.005859375
504,0.03515625,-0.9521484375,-0.005859375
505,0.017578125,-0.9462890625,-0.0029296875
506,0.017578125,-0.9482421875,-0.001953125
507,0.0205078125,-0.9521484375,-0.005859375
508,0.0244140625,-0.955078125,-0.001953125
509,0.029296875,-0.970703125,-0.0048828125
510,0.0322265625,-0.9716796875,0.005859375
511,0.0400390625,-0.9755859375,-0.0029296875
512,0.0400390625,-0.9716796875,0.0
513,0.037109375,-0.96484375,-0.005859375
514,0.0263671875,-0.9541015625,-0.01171875
515,0.0244140625,-0.9501953125,-0.01953125
516,0.0205078125,-0.94921875,-0.0185546875
517,0.029296875,-0.9501953125,-0.0185546875
518,0.0380859375,-0.9501953125,-0.0146484375
519,0.0244140625,-0.9677734375,-0.0263671875
520,0.033203125,-0.96875,-0.01953125
521,0.0283203125,-0.9736328125,-0.021484375
522,0.0341796875,-0.96875,-0.01171875
523,0.0146484375,-0.951171875,-0.0126953125
524,0.01171875,-0.94140625,-0.0126953125
525,0.044921875,-0.943359375,-0.01953125
526,0.046875,-0.9443359375,-0.015625
527,0.0419921875,-0.958984375,-0.029296875
528,0.0537109375,-0.9580078125,-0.0302734375
529,0.04296875,-0.9658203125,-0.01953125
530,0.0283203125,-0.947265625,-0.017578125
531,0.0224609375,-0.943359375,-0.0146484375
532,0.021484375,-0.935546875,-0.0185546875
533,0.021484375,-0.9248046875,-0.015625
534,0.0087890625,-0.9228515625,-0.0205078125
535,0.0029296875,-0.9208984375,-0.0263671875
536,0.0244140625,-0.91796875,-0.017578125
537,0.0322265625,-0.9248046875,-0.029296875
538,0.0341796875,-0.9287109375,-0.0302734375
539,0.0390625,-0.92578125,-0.0166015625
540,0.0576171875,-0.9296875,-0.01953125
541,0.0576171875,-0.931640625,-0.0263671875
542,0.0478515625,-0.9306640625,-0.0283203125
543,0.0390625,-0.9345703125,-0.0302734375
544,0.0390625,-0.9287109375,-0.0322265625
545,0.0205078125,-0.9365234375,-0.0498046875
546,0.01171875,-0.9306640625,-0.0576171875
547,0.0498046875,-0.921875,-0.0517578125
548,0.0654296875,-0.921875,-0.0615234375
549,0.076171875,-0.9306640625,-0.0546875
550,0.072265625,-0.93359375,-0.0498046875
551,0.060546875,-0.9326171875,-0.046875
552,0.0517578125,-0.927734375,-0.0419921875
553,0.0390625,-0.9228515625,-0.0419921875
554,0.033203125,-0.9140625,-0.0400390625
555,0.01171875,-0.9130859375,-0.0478515625
556,0.01171875,-0.9052734375,-0.0595703125
557,0.0341796875,-0.9013671875,-0.06640625
558,0.0400390625,-0.90234375,-0.0771484375
559,0.0341796875,-0.900390625,-0.087890625
560,0.021484375,-0.9072265625,-0.0888671875
561,0.0224609375,-0.90625,-0.0869140625
562,0.0244140625,-0.904296875,-0.087890625
563,0.0234375,-0.904296875,-0.0908203125
564,0.025390625,-0.9052734375,-0.095703125
565,0.037109375,-0.8974609375,-0.091796875
566,0.041015625,-0.892578125,-0.087890625
567,0.04296875,-0.8857421875,-0.095703125
568,0.04296875,-0.884765625,-0.0986328125
569,0.048828125,-0.87890625,-0.1064453125
570,0.0517578125,-0.8759765625,-0.1201171875
571,0.0546875,-0.875,-0.123046875
572,0.064453125,-0.8701171875,-0.12890625
573,0.0576171875,-0.873046875,-0.12890625
574,0.052734375,-0.86328125,-0.1318359375
575,0.0439453125,-0.85546875,-0.1259765625
576,0.044921875,-0.8447265625,-0.1240234375
577,0.0380859375,-0.8427734375,-0.125
578,0.0458984375,-0.8310546875,-0.123046875
579,0.0556640625,-0.8251953125,-0.1240234375
580,0.0673828125,-0.8212890625,-0.123046875
581,0.05859375,-0.8095703125,-0.12890625
582,0.0439453125,-0.8017578125,-0.1171875
583,0.037109375,-0.796875,-0.1240234375
584,0.021484375,-0.7998046875,-0.1220703125
585,0.0107421875,-0.791015625,-0.12109375
586,0.015625,-0.7978515625,-0.126953125
587,0.0068359375,-0.798828125,-0.12890625
588,0.021484375,-0.8095703125,-0.1259765625
589,0.0126953125,-0.8056640625,-0.1201171875
590,0.0078125,-0.8115234375,-0.1162109375
591,0.009765625,-0.814453125,-0.123046875
592,0.017578125,-0.80859375,-0.1220703125
593,0.0234375,-0.8095703125,-0.1181640625
594,0.013671875,-0.806640625,-0.119140625
595,0.052734375,-0.8037109375,-0.1181640625
596,0.056640625,-0.7978515625,-0.1123046875
597,0.0634765625,-0.8017578125,-0.1103515625
598,0.076171875,-0.802734375,-0.103515625
599,0.0869140625,-0.7958984375,-0.1064453125
600,0.0888671875,-0.8046875,-0.0986328125
601,0.08984375,-0.802734375,-0.103515625
602,0.052734375,-0.8017578125,-0.119140625
603,0.0166015625,-0.798828125,-0.1259765625
604,0.0205078125,-0.7890625,-0.1298828125
605,0.041015625,-0.7763671875,-0.134765625
606,0.0546875,-0.77734375,-0.142578125
607,0.05859375,-0.771484375,-0.142578125
608,0.064453125,-0.767578125,-0.1435546875
609,0.0537109375,-0.7744140625,-0.1640625
610,0.0498046875,-0.7763671875,-0.1787109375
611,0.0546875,-0.7626953125,-0.166015625
612,0.05078125,-0.7607421875,-0.1611328125
613,0.056640625,-0.74609375,-0.140625
614,0.08203125,-0.736328125,-0.123046875
615,0.078125,-0.7333984375,-0.109375
616,0.0732421875,-0.7265625,-0.103515625
617,0.05859375,-0.734375,-0.0966796875
618,0.05859375,-0.7373046875,-0.08203125
619,0.0361328125,-0.736328125,-0.0830078125
620,0.015625,-0.7431640625,-0.076171875
621,0.0,-0.75,-0.0830078125
622,0.0087890625,-0.759765625,-0.0888671875
623,0.0185546875,-0.765625,-0.0869140625
624,0.021484375,-0.775390625,-0.1005859375
625,0.0224609375,-0.7802734375,-0.09375
626,0.0029296875,-0.7890625,-0.1162109375
627,-0.00390625,-0.7919921875,-0.12109375
628,-0.017578125,-0.8056640625,-0.1201171875
629,0.01953125,-0.8134765625,-0.1416015625
630,0.04296875,-0.8203125,-0.138671875
631,0.052734375,-0.8310546875,-0.1396484375
632,0.0595703125,-0.82421875,-0.12890625
633,0.0732421875,-0.8330078125,-0.1181640625
634,0.0791015625,-0.8486328125,-0.115234375
635,0.08203125,-0.8525390625,-0.09765625
636,0.095703125,-0.859375,-0.083984375
637,0.1044921875,-0.861328125,-0.080078125
638,0.115234375,-0.86328125,-0.083984375
639,0.1181640625,-0.876953125,-0.080078125
640,0.1240234375,-0.876953125,-0.076171875
641,0.111328125,-0.8818359375,-0.072265625
642,0.09375,-0.892578125,-0.052734375
643,0.091796875,-0.9033203125,-0.052734375
644,0.091796875,-0.904296875,-0.0576171875
645,0.068359375,-0.904296875,-0.0634765625
646,0.05078125,-0.916015625,-0.0771484375
647,0.029296875,-0.9052734375,-0.099609375
648,0.0146484375,-0.90625,-0.126953125
649,-0.0078125,-0.8984375,-0.1474609375
650,-0.0224609375,-0.8935546875,-0.1552734375
651,-0.0263671875,-0.88671875,-0.1640625
652,-0.041015625,-0.875,-0.16796875
653,-0.0498046875,-0.87109375,-0.166015625
654,-0.037109375,-0.865234375,-0.173828125
655,-0.0498046875,-0.8671875,-0.1865234375
656,-0.044921875,-0.8740234375,-0.189453125
657,-0.0439453125,-0.8779296875,-0.2001953125
658,-0.0087890625,-0.8818359375,-0.1923828125
659,-0.009765625,-0.8935546875,-0.1474609375
660,-0.0126953125,-0.9111328125,-0.1142578125
661,0.0068359375,-0.927734375,-0.0791015625
662,0.044921875,-0.943359375,-0.0419921875
663,0.06640625,-0.9736328125,-0.0498046875
664,0.076171875,-0.98828125,-0.056640625
665,0.0517578125,-0.9873046875,-0.041015625
666,0.0263671875,-0.994140625,-0.005859375
667,0.0029296875,-0.9990234375,0.021484375
668,-0.0205078125,-0.9873046875,0.08984375
669,-0.0283203125,-1.0400390625,0.12890625
670,0.0634765625,-1.04296875,0.0888671875
671,0.11328125,-1.009765625,-0.1015625
672,0.078125,-0.9921875,-0.123046875
673,0.0478515625,-0.96875,-0.166015625
674,0.0634765625,-0.978515625,-0.181640625
675,0.1220703125,-0.9873046875,-0.220703125
676,0.1728515625,-0.9755859375,-0.2880859375
677,0.1611328125,-0.943359375,-0.3369140625
678,0.1015625,-0.9228515625,-0.271484375
679,0.1044921875,-0.9111328125,-0.2138671875
680,0.1083984375,-0.908203125,-0.197265625
681,0.13671875,-0.904296875,-0.1455078125
682,0.150390625,-0.8955078125,-0.1357421875
683,0.12890625,-0.8935546875,-0.091796875
684,0.10546875,-0.9052734375,-0.0595703125
685,0.09765625,-0.9501953125,0.0068359375
686,0.0751953125,-0.9755859375,0.080078125
687,0.0947265625,-0.9912109375,0.080078125
688,0.072265625,-0.994140625,0.0517578125
689,0.064453125,-1.009765625,0.03515625
690,0.05078125,-1.0146484375,0.0048828125
691,0.0498046875,-1.025390625,-0.0322265625
692,0.0400390625,-1.0185546875,-0.046875
693,0.0556640625,-1.03125,-0.0966796875
694,0.0625,-1.0205078125,-0.0966796875
695,0.09765625,-1.033203125,-0.12890625
696,0.09765625,-1.021484375,-0.1376953125
697,0.09765625,-1.0478515625,-0.1435546875
698,0.1103515625,-1.046875,-0.1298828125
699,0.1181640625,-1.0537109375,-0.1181640625
700,0.1240234375,-1.0634765625,-0.1162109375
701,0.0966796875,-1.05078125,-0.1142578125
702,0.1123046875,-1.052734375,-0.1162109375
703,0.1240234375,-1.0458984375,-0.119140625
704,0.1025390625,-1.033203125,-0.0947265625
705,0.1005859375,-1.029296875,-0.083984375
706,0.1015625,-1.03125,-0.0830078125
707,0.0654296875,-1.025390625,-0.068359375
708,0.064453125,-1.0400390625,-0.06640625
709,0.078125,-1.041015625,-0.0478515625
710,0.0771484375,-1.0439453125,-0.05859375
711,0.07421875,-1.0458984375,-0.08984375
712,0.0556640625,-1.0419921875,-0.091796875
713,0.0361328125,-1.03515625,-0.0908203125
714,0.091796875,-1.052734375,-0.1005859375
715,0.1025390625,-1.048828125,-0.0966796875
716,0.111328125,-1.037109375,-0.08203125
717,0.1376953125,-1.02734375,-0.083984375
718,0.16796875,-1.01953125,-0.07421875
719,0.0751953125,-1.041015625,-0.0419921875
720,0.12109375,-1.037109375,-0.037109375
721,0.111328125,-1.033203125,-0.048828125
722,0.1015625,-1.02734375,-0.0673828125
723,0.1162109375,-1.044921875,-0.076171875
724,0.0986328125,-1.04296875,-0.080078125
725,0.08203125,-1.0517578125,-0.0849609375
726,0.0908203125,-1.05078125,-0.0986328125
727,0.1025390625,-1.0625,-0.1064453125
728,0.109375,-1.068359375,-0.0986328125
729,0.0927734375,-1.0634765625,-0.09765625
730,0.0712890625,-1.072265625,-0.1025390625
731,0.076171875,-1.0673828125,-0.1142578125
732,0.0888671875,-1.0625,-0.123046875
733,0.08984375,-1.0576171875,-0.126953125
734,0.099609375,-1.0537109375,-0.125
735,0.11328125,-1.0634765625,-0.0771484375
736,0.126953125,-1.0556640625,-0.078125
737,0.125,-1.05859375,-0.080078125
738,0.1298828125,-1.048828125,-0.052734375
739,0.140625,-1.0537109375,-0.033203125
740,0.1318359375,-1.0439453125,-0.0302734375
741,0.111328125,-1.0458984375,-0.015625
742,0.1201171875,-1.064453125,-0.01953125
743,0.10546875,-1.048828125,-0.0107421875
744,0.0908203125,-1.0439453125,0.001953125
745,0.095703125,-1.046875,-0.0009765625
746,0.0732421875,-1.046875,0.0009765625
747,0.0478515625,-1.033203125,-0.0048828125
748,0.0625,-1.037109375,0.0009765625
749,0.0703125,-1.037109375,0.009765625
750,0.0791015625,-1.037109375,0.0029296875
751,0.0673828125,-1.0322265625,0.0009765625
752,0.0234375,-1.0361328125,0.0078125
753,0.0576171875,-1.048828125,0.0068359375
754,0.0673828125,-1.0458984375,0.025390625
755,0.0947265625,-1.052734375,0.02734375
756,0.0908203125,-1.048828125,0.037109375
757,0.09765625,-1.07421875,0.0322265625
758,0.09375,-1.072265625,0.0341796875
759,0.0927734375,-1.0751953125,0.025390625
760,0.111328125,-1.095703125,0.009765625
761,0.0966796875,-1.0927734375,0.0009765625
762,0.0966796875,-1.0966796875,0.0068359375
763,0.10546875,-1.1005859375,0.015625
764,0.0791015625,-1.099609375,0.0302734375
765,0.111328125,-1.107421875,0.0283203125
766,0.115234375,-1.1171875,0.025390625
767,0.146484375,-1.1220703125,0.0419921875
768,0.166015625,-1.123046875,0.0283203125
769,0.18359375,-1.115234375,0.029296875
770,0.189453125,-1.123046875,0.0234375
771,0.189453125,-1.1240234375,0.0263671875
772,0.1728515625,-1.1171875,0.0341796875
773,0.173828125,-1.1201171875,0.0283203125
774,0.1708984375,-1.11328125,0.033203125
775,0.146484375,-1.1025390625,0.0478515625
776,0.1533203125,-1.1005859375,0.048828125
777,0.1494140625,-1.0966796875,0.0576171875
778,0.1572265625,-1.099609375,0.06640625
779,0.1484375,-1.0927734375,0.0791015625
780,0.1494140625,-1.1005859375,0.0908203125
781,0.146484375,-1.0908203125,0.103515625
782,0.1376953125,-1.0947265625,0.109375
783,0.138671875,-1.103515625,0.1044921875
784,0.125,-1.1044921875,0.107421875
785,0.119140625,-1.1181640625,0.1064453125
786,0.12890625,-1.1103515625,0.1064453125
787,0.1435546875,-1.1025390625,0.1044921875
788,0.162109375,-1.1015625,0.1064453125
789,0.1689453125,-1.09765625,0.1044921875
790,0.1806640625,-1.099609375,0.1015625
791,0.18359375,-1.099609375,0.1005859375
792,0.177734375,-1.0947265625,0.10546875
793,0.1787109375,-1.0986328125,0.10546875
794,0.1806640625,-1.1015625,0.1005859375
795,0.17578125,-1.1044921875,0.1015625
796,0.1787109375,-1.1015625,0.09765625
797,0.18359375,-1.095703125,0.1015625
798,0.185546875,-1.0810546875,0.109375
799,0.1845703125,-1.0771484375,0.1171875
800,0.1826171875,-1.0732421875,0.126953125
801,0.1787109375,-1.068359375,0.130859375
802,0.169921875,-1.0673828125,0.140625
803,0.169921875,-1.0673828125,0.1416015625
804,0.1513671875,-1.0546875,0.140625
805,0.1513671875,-1.0498046875,0.146484375
806,0.142578125,-1.0419921875,0.15234375
807,0.1376953125,-1.0341796875,0.1533203125
808,0.1318359375,-1.0244140625,0.1513671875
809,0.142578125,-1.021484375,0.1435546875
810,0.150390625,-1.0146484375,0.1474609375
811,0.1630859375,-1.0166015625,0.142578125
812,0.1796875,-1.0185546875,0.1455078125
813,0.171875,-1.0244140625,0.154296875
814,0.173828125,-1.0283203125,0.158203125
815,0.1650390625,-1.033203125,0.1650390625
816,0.1552734375,-1.03125,0.1669921875
817,0.1572265625,-1.029296875,0.1689453125
818,0.1455078125,-1.0234375,0.16796875
819,0.13671875,-1.021484375,0.1689453125
820,0.1396484375,-1.0185546875,0.1669921875
821,0.130859375,-1.005859375,0.1689453125
822,0.1337890625,-0.99609375,0.169921875
823,0.134765625,-0.98828125,0.16796875
824,0.1318359375,-0.9794921875,0.16796875
825,0.1357421875,-0.9599609375,0.1650390625
826,0.1318359375,-0.9462890625,0.1640625
827,0.1328125,-0.93359375,0.1630859375
828,0.126953125,-0.923828125,0.16015625
829,0.125,-0.9150390625,0.1572265625
830,0.126953125,-0.90625,0.1552734375
831,0.130859375,-0.8974609375,0.1533203125
832,0.130859375,-0.8974609375,0.15234375
833,0.1328125,-0.8896484375,0.15234375
834,0.126953125,-0.8818359375,0.1611328125
835,0.1328125,-0.8779296875,0.16015625
836,0.1318359375,-0.8681640625,0.1650390625
837,0.1318359375,-0.8720703125,0.1708984375
838,0.130859375,-0.865234375,0.1650390625
839,0.1279296875,-0.865234375,0.1650390625
840,0.1318359375,-0.8662109375,0.1650390625
841,0.12890625,-0.87109375,0.1640625
842,0.130859375,-0.876953125,0.1669921875
843,0.126953125,-0.8837890625,0.1689453125
844,0.1376953125,-0.88671875,0.16796875
845,0.1396484375,-0.88671875,0.1640625
846,0.140625,-0.884765625,0.1630859375
847,0.1416015625,-0.884765625,0.1572265625
848,0.1513671875,-0.8818359375,0.1552734375
849,0.154296875,-0.88671875,0.1474609375
850,0.15625,-0.888671875,0.146484375
851,0.158203125,-0.8896484375,0.1396484375
852,0.166015625,-0.8916015625,0.1376953125
853,0.1728515625,-0.8876953125,0.134765625
854,0.171875,-0.8818359375,0.1337890625
855,0.16796875,-0.8798828125,0.142578125
856,0.166015625,-0.8828125,0.1474609375
857,0.1494140625,-0.880859375,0.150390625
858,0.1337890625,-0.88671875,0.1533203125
859,0.1298828125,-0.8857421875,0.1552734375
860,0.1259765625,-0.8916015625,0.1611328125
861,0.12890625,-0.8955078125,0.1552734375
862,0.1240234375,-0.9013671875,0.1640625
863,0.125,-0.90625,0.1630859375
864,0.1318359375,-0.91015625,0.1640625
865,0.1337890625,-0.921875,0.1650390625
866,0.146484375,-0.9189453125,0.16796875
867,0.146484375,-0.919921875,0.1650390625
868,0.1494140625,-0.9228515625,0.1669921875
869,0.1552734375,-0.9267578125,0.171875
870,0.14453125,-0.931640625,0.16796875
871,0.150390625,-0.9287109375,0.1728515625
872,0.1396484375,-0.9345703125,0.158203125
873,0.146484375,-0.94140625,0.1572265625
874,0.14453125,-0.939453125,0.1533203125
875,0.150390625,-0.9365234375,0.150390625
876,0.1630859375,-0.9423828125,0.14453125
877,0.1650390625,-0.9453125,0.1435546875
878,0.1630859375,-0.94140625,0.142578125
879,0.166015625,-0.9482421875,0.142578125
880,0.158203125,-0.94921875,0.146484375
881,0.1572265625,-0.947265625,0.1494140625
882,0.1455078125,-0.9501953125,0.1552734375
883,0.13671875,-0.9521484375,0.1513671875
884,0.1357421875,-0.953125,0.1533203125
885,0.12890625,-0.9560546875,0.15625
886,0.130859375,-0.9541015625,0.15625
887,0.130859375,-0.9580078125,0.154296875
888,0.150390625,-0.955078125,0.1494140625
889,0.1376953125,-0.978515625,0.1533203125
890,0.146484375,-0.9736328125,0.154296875
891,0.1455078125,-0.9697265625,0.1552734375
892,0.1484375,-0.96875,0.1572265625
893,0.1494140625,-0.96875,0.15234375
894,0.1552734375,-0.9560546875,0.1533203125
895,0.1455078125,-0.966796875,0.1474609375
896,0.1533203125,-0.953125,0.14453125
897,0.150390625,-0.9580078125,0.1396484375
898,0.1494140625,-0.9580078125,0.1376953125
899,0.15234375,-0.951171875,0.1337890625
900,0.1533203125,-0.94921875,0.1318359375
901,0.146484375,-0.9521484375,0.126953125
902,0.150390625,-0.9443359375,0.1240234375
903,0.142578125,-0.9443359375,0.126953125
904,0.1376953125,-0.947265625,0.12890625
905,0.134765625,-0.9443359375,0.130859375
906,0.1337890625,-0.939453125,0.1337890625
907,0.1328125,-0.9443359375,0.1376953125
908,0.1337890625,-0.951171875,0.142578125
909,0.1416015625,-0.951171875,0.1435546875
910,0.1484375,-0.951171875,0.1474609375
911,0.1513671875,-0.955078125,0.1474609375
912,0.15234375,-0.9580078125,0.146484375
913,0.1611328125,-0.9609375,0.1494140625
914,0.1630859375,-0.9716796875,0.15625
915,0.1630859375,-0.96484375,0.1513671875
916,0.1591796875,-0.9638671875,0.154296875
917,0.1640625,-0.9658203125,0.150390625
918,0.166015625,-0.9560546875,0.1474609375
919,0.1591796875,-0.953125,0.1474609375
920,0.166015625,-0.943359375,0.1455078125
921,0.1591796875,-0.9453125,0.1455078125
922,0.166015625,-0.943359375,0.1435546875
923,0.1572265625,-0.9375,0.140625
924,0.158203125,-0.9365234375,0.13671875
925,0.1552734375,-0.9345703125,0.1298828125
926,0.1572265625,-0.927734375,0.1298828125
927,0.1552734375,-0.93359375,0.1259765625
928,0.16015625,-0.9287109375,0.1279296875
929,0.1611328125,-0.9267578125,0.1318359375
930,0.1611328125,-0.9287109375,0.13671875
931,0.154296875,-0.9326171875,0.1328125
932,0.158203125,-0.93359375,0.1337890625
933,0.1572265625,-0.93359375,0.1376953125
934,0.154296875,-0.943359375,0.1357421875
935,0.1552734375,-0.9453125,0.1416015625
936,0.1591796875,-0.9453125,0.134765625
937,0.1513671875,-0.9560546875,0.1396484375
938,0.1572265625,-0.953125,0.1376953125
939,0.1552734375,-0.953125,0.1376953125
940,0.1572265625,-0.9560546875,0.140625
941,0.1611328125,-0.94921875,0.142578125
942,0.16796875,-0.953125,0.1376953125
943,0.1708984375,-0.951171875,0.14453125
944,0.1630859375,-0.9453125,0.14453125
945,0.16015625,-0.9482421875,0.142578125
946,0.1630859375,-0.9404296875,0.1416015625
947,0.1572265625,-0.931640625,0.142578125
948,0.1533203125,-0.9326171875,0.1474609375
949,0.1513671875,-0.9326171875,0.142578125
950,0.1533203125,-0.9267578125,0.138671875
951,0.146484375,-0.9296875,0.1396484375
952,0.14453125,-0.9306640625,0.1376953125
953,0.1494140625,-0.9287109375,0.140625
954,0.1494140625,-0.9287109375,0.13671875
955,0.15234375,-0.93359375,0.1337890625
956,0.1572265625,-0.931640625,0.13671875
957,0.15625,-0.9345703125,0.134765625
958,0.162109375,-0.9375,0.134765625
959,0.16015625,-0.935546875,0.13671875
960,0.1572265625,-0.9326171875,0.1328125
961,0.162109375,-0.927734375,0.13671875
962,0.1611328125,-0.92578125,0.138671875
963,0.158203125,-0.9306640625,0.1376953125
964,0.169921875,-0.927734375,0.1318359375
965,0.1640625,-0.9326171875,0.125
966,0.1630859375,-0.9345703125,0.1220703125
967,0.162109375,-0.935546875,0.1181640625
968,0.166015625,-0.94140625,0.1142578125
969,0.1669921875,-0.9423828125,0.1171875
970,0.1689453125,-0.94921875,0.1171875
971,0.1689453125,-0.9482421875,0.130859375
972,0.1708984375,-0.9501953125,0.1298828125
973,0.173828125,-0.9609375,0.1337890625
974,0.169921875,-0.951171875,0.1337890625
975,0.1669921875,-0.9541015625,0.1298828125
976,0.1669921875,-0.955078125,0.130859375
977,0.1669921875,-0.9560546875,0.12109375
978,0.1630859375,-0.9521484375,0.1240234375
979,0.15625,-0.951171875,0.123046875
980,0.16015625,-0.9501953125,0.119140625
981,0.1640625,-0.943359375,0.1240234375
982,0.1630859375,-0.9482421875,0.1162109375
983,0.1640625,-0.9375,0.115234375
984,0.1611328125,-0.9375,0.1142578125
985,0.1640625,-0.935546875,0.1162109375
986,0.1630859375,-0.9345703125,0.1181640625
987,0.158203125,-0.93359375,0.1201171875
988,0.15625,-0.931640625,0.125
989,0.154296875,-0.9345703125,0.123046875
990,0.1513671875,-0.927734375,0.1259765625
991,0.154296875,-0.939453125,0.130859375
992,0.16015625,-0.9375,0.1298828125
993,0.1630859375,-0.9365234375,0.1279296875
994,0.1650390625,-0.939453125,0.1240234375
995,0.1572265625,-0.943359375,0.130859375
996,0.1640625,-0.935546875,0.134765625
997,0.166015625,-0.935546875,0.1337890625
998,0.166015625,-0.9296875,0.1337890625
999,0.1689453125,-0.93359375,0.12890625
1000,0.1728515625,-0.9326171875,0.126953125
1001,0.16796875,-0.9306640625,0.1259765625
1002,0.16796875,-0.9404296875,0.12109375
1003,0.16796875,-0.9375,0.1181640625
1004,0.166015625,-0.9384765625,0.1201171875
1005,0.1650390625,-0.9423828125,0.1181640625
1006,0.1611328125,-0.9384765625,0.1181640625
1007,0.15625,-0.9375,0.1181640625
1008,0.1650390625,-0.9345703125,0.11328125
1009,0.1650390625,-0.9375,0.1162109375
1010,0.1611328125,-0.93359375,0.1171875
1011,0.16015625,-0.9306640625,0.111328125
1012,0.1630859375,-0.9267578125,0.115234375
1013,0.162109375,-0.923828125,0.1142578125
1014,0.1611328125,-0.9248046875,0.115234375
1015,0.158203125,-0.9248046875,0.1103515625
1016,0.1533203125,-0.9267578125,0.1083984375
1017,0.1513671875,-0.92578125,0.1083984375
1018,0.14453125,-0.923828125,0.10546875
1019,0.150390625,-0.923828125,0.103515625
1020,0.1474609375,-0.923828125,0.1103515625
1021,0.146484375,-0.9287109375,0.111328125
1022,0.1484375,-0.931640625,0.1142578125
1023,0.14453125,-0.9326171875,0.119140625
1024,0.1484375,-0.9306640625,0.1171875
1025,0.1513671875,-0.9365234375,0.1162109375
1026,0.154296875,-0.94140625,0.125
1027,0.15234375,-0.94140625,0.1298828125
1028,0.1513671875,-0.9609375,0.1298828125
1029,0.15625,-0.9462890625,0.12890625
1030,0.1572265625,-0.947265625,0.130859375
1031,0.1455078125,-0.9453125,0.1298828125
1032,0.15234375,-0.9462890625,0.130859375
1033,0.15234375,-0.9482421875,0.1298828125
1034,0.15234375,-0.9501953125,0.125
1035,0.1572265625,-0.9482421875,0.12890625
1036,0.16015625,-0.9423828125,0.1220703125
1037,0.15625,-0.94140625,0.1240234375
1038,0.158203125,-0.943359375,0.1220703125
1039,0.154296875,-0.9423828125,0.1220703125
1040,0.15234375,-0.9443359375,0.1181640625
1041,0.15234375,-0.94140625,0.12109375
1042,0.1552734375,-0.93359375,0.1201171875
1043,0.15234375,-0.9326171875,0.1220703125
1044,0.1494140625,-0.9384765625,0.1162109375
1045,0.1533203125,-0.9384765625,0.12109375
1046,0.1552734375,-0.939453125,0.1171875
1047,0.1552734375,-0.9365234375,0.1171875
1048,0.15625,-0.9375,0.1201171875
1049,0.1572265625,-0.939453125,0.1181640625
1050,0.15625,-0.9423828125,0.12109375
1051,0.154296875,-0.9375,0.1181640625
1052,0.158203125,-0.9423828125,0.1201171875
1053,0.1630859375,-0.94140625,0.115234375
1054,0.1611328125,-0.9384765625,0.1162109375
1055,0.158203125,-0.9384765625,0.1123046875
1056,0.158203125,-0.939453125,0.111328125
1057,0.169921875,-0.9375,0.10546875
1058,0.1708984375,-0.9384765625,0.1083984375
1059,0.1669921875,-0.9384765625,0.1044921875
1060,0.1708984375,-0.9365234375,0.1015625
1061,0.166015625,-0.935546875,0.103515625
1062,0.1650390625,-0.9384765625,0.1044921875
1063,0.154296875,-0.931640625,0.107421875
1064,0.15625,-0.9326171875,0.1103515625
1065,0.150390625,-0.9345703125,0.1142578125
1066,0.1494140625,-0.939453125,0.1162109375
1067,0.1494140625,-0.939453125,0.109375
1068,0.150390625,-0.9375,0.1142578125
1069,0.150390625,-0.935546875,0.1171875
1070,0.150390625,-0.9443359375,0.1171875
1071,0.1533203125,-0.9453125,0.1201171875
1072,0.1533203125,-0.9453125,0.1181640625
1073,0.1552734375,-0.9443359375,0.1201171875
1074,0.1484375,-0.939453125,0.12109375
1075,0.15234375,-0.943359375,0.126953125
1076,0.146484375,-0.9423828125,0.126953125
1077,0.1455078125,-0.9384765625,0.130859375
1078,0.1435546875,-0.9365234375,0.130859375
1079,0.146484375,-0.953125,0.130859375
1080,0.14453125,-0.93359375,0.130859375
1081,0.146484375,-0.9345703125,0.1298828125
1082,0.14453125,-0.943359375,0.1318359375
1083,0.14453125,-0.935546875,0.1318359375
1084,0.150390625,-0.9345703125,0.134765625
1085,0.146484375,-0.9384765625,0.1376953125
1086,0.1484375,-0.9384765625,0.138671875
1087,0.15234375,-0.939453125,0.1376953125
1088,0.1494140625,-0.9384765625,0.138671875
1089,0.1494140625,-0.94140625,0.140625
1090,0.15234375,-0.9404296875,0.146484375
1091,0.1533203125,-0.9453125,0.1416015625
1092,0.1533203125,-0.94140625,0.14453125
1093,0.1552734375,-0.943359375,0.1376953125
1094,0.15234375,-0.943359375,0.134765625
1095,0.1611328125,-0.939453125,0.1298828125
1096,0.158203125,-0.9404296875,0.130859375
1097,0.15625,-0.9375,0.1240234375
1098,0.1513671875,-0.939453125,0.1328125
1099,0.150390625,-0.9326171875,0.126953125
1100,0.146484375,-0.93359375,0.1279296875
1101,0.142578125,-0.9296875,0.134765625
1102,0.140625,-0.9375,0.1279296875
1103,0.1435546875,-0.9384765625,0.1298828125
1104,0.1484375,-0.9326171875,0.12890625
1105,0.15234375,-0.9384765625,0.1357421875
1106,0.1552734375,-0.9326171875,0.1357421875
1107,0.162109375,-0.93359375,0.134765625
1108,0.16015625,-0.9365234375,0.140625
1109,0.1611328125,-0.9384765625,0.1416015625
1110,0.1552734375,-0.939453125,0.1474609375
1111,0.16015625,-0.9443359375,0.14453125
1112,0.158203125,-0.939453125,0.146484375
1113,0.1533203125,-0.9462890625,0.140625
1114,0.1572265625,-0.9453125,0.1416015625
1115,0.1533203125,-0.943359375,0.138671875
1116,0.15234375,-0.943359375,0.140625
1117,0.150390625,-0.9423828125,0.1435546875
1118,0.150390625,-0.939453125,0.140625
1119,0.150390625,-0.9443359375,0.1396484375
1120,0.154296875,-0.9443359375,0.1396484375
1121,0.150390625,-0.943359375,0.1396484375
1122,0.15625,-0.9384765625,0.1396484375
1123,0.1533203125,-0.935546875,0.138671875
1124,0.150390625,-0.9384765625,0.1396484375
1125,0.150390625,-0.94140625,0.1416015625
1126,0.1494140625,-0.9365234375,0.1416015625
1127,0.14453125,-0.9384765625,0.14453125
1128,0.1494140625,-0.931640625,0.1494140625
1129,0.1494140625,-0.9345703125,0.142578125
1130,0.1552734375,-0.9423828125,0.1455078125
1131,0.1513671875,-0.927734375,0.146484375
1132,0.1552734375,-0.9306640625,0.1455078125
1133,0.1591796875,-0.9306640625,0.1474609375
1134,0.162109375,-0.927734375,0.1494140625
1135,0.1611328125,-0.9306640625,0.14453125
1136,0.1630859375,-0.9287109375,0.1416015625
1137,0.16796875,-0.931640625,0.1416015625
1138,0.16796875,-0.9296875,0.14453125
1139,0.169921875,-0.9306640625,0.1396484375
1140,0.1689453125,-0.927734375,0.140625
1141,0.1708984375,-0.927734375,0.1416015625
1142,0.1708984375,-0.927734375,0.1376953125
1143,0.1669921875,-0.92578125,0.140625
1144,0.1650390625,-0.9267578125,0.1396484375
1145,0.162109375,-0.92578125,0.138671875
1146,0.1591796875,-0.923828125,0.140625
1147,0.16015625,-0.92578125,0.1416015625
1148,0.1572265625,-0.927734375,0.1435546875
1149,0.16015625,-0.9296875,0.140625
1150,0.154296875,-0.9296875,0.1396484375
1151,0.158203125,-0.93359375,0.1455078125
1152,0.158203125,-0.9326171875,0.14453125
1153,0.1572265625,-0.9306640625,0.142578125
1154,0.1591796875,-0.9365234375,0.1494140625
1155,0.16015625,-0.93359375,0.1455078125
1156,0.1689453125,-0.931640625,0.1484375
1157,0.16796875,-0.9326171875,0.1494140625
1158,0.16796875,-0.9287109375,0.1494140625
1159,0.171875,-0.921875,0.1455078125
1160,0.1728515625,-0.92578125,0.1484375
1161,0.1708984375,-0.92578125,0.14453125
1162,0.173828125,-0.92578125,0.14453125
1163,0.1728515625,-0.9248046875,0.1474609375
1164,0.16796875,-0.92578125,0.14453125
1165,0.1689453125,-0.9296875,0.1484375
1166,0.1708984375,-0.9287109375,0.1484375
1167,0.166015625,-0.9306640625,0.1572265625
1168,0.1669921875,-0.9287109375,0.1533203125
1169,0.162109375,-0.9296875,0.1513671875
1170,0.1650390625,-0.93359375,0.1533203125
1171,0.1630859375,-0.9384765625,0.154296875
1172,0.1640625,-0.9345703125,0.1552734375
1173,0.1689453125,-0.935546875,0.1572265625
1174,0.169921875,-0.9365234375,0.158203125
1175,0.169921875,-0.9384765625,0.1572265625
1176,0.173828125,-0.935546875,0.1552734375
1177,0.1767578125,-0.9345703125,0.150390625
1178,0.1767578125,-0.9365234375,0.1484375
1179,0.1767578125,-0.9365234375,0.1474609375
1180,0.1796875,-0.9306640625,0.1484375
1181,0.1796875,-0.9326171875,0.150390625
1182,0.177734375,-0.9306640625,0.1474609375
1183,0.18359375,-0.9296875,0.15625
1184,0.1748046875,-0.92578125,0.1552734375
1185,0.177734375,-0.93359375,0.1552734375
1186,0.1708984375,-0.9296875,0.154296875
1187,0.177734375,-0.9306640625,0.1552734375
1188,0.16796875,-0.93359375,0.1474609375
1189,0.17578125,-0.9306640625,0.1484375
1190,0.173828125,-0.9296875,0.1513671875
1191,0.173828125,-0.9306640625,0.15234375
1192,0.169921875,-0.9345703125,0.150390625
1193,0.18359375,-0.9326171875,0.150390625
1194,0.1796875,-0.9345703125,0.150390625
1195,0.1787109375,-0.9326171875,0.15234375
1196,0.1826171875,-0.9326171875,0.1474609375
1197,0.1826171875,-0.9306640625,0.1572265625
1198,0.1884765625,-0.931640625,0.1552734375
1199,0.1884765625,-0.9296875,0.1630859375
1200,0.185546875,-0.93359375,0.15625
1201,0.1796875,-0.9326171875,0.162109375
1202,0.1826171875,-0.935546875,0.16015625
1203,0.17578125,-0.9384765625,0.158203125
1204,0.1767578125,-0.931640625,0.16015625
1205,0.1669921875,-0.93359375,0.1611328125
1206,0.1669921875,-0.9296875,0.1689453125
1207,0.1669921875,-0.9326171875,0.1640625
1208,0.169921875,-0.935546875,0.1640625
1209,0.1728515625,-0.9375,0.16015625
1210,0.1767578125,-0.9365234375,0.158203125
1211,0.1728515625,-0.9365234375,0.15625
1212,0.17578125,-0.9296875,0.1572265625
1213,0.1787109375,-0.9306640625,0.16015625
1214,0.171875,-0.927734375,0.1572265625
1215,0.169921875,-0.927734375,0.1533203125
1216,0.1708984375,-0.921875,0.1572265625
1217,0.169921875,-0.9228515625,0.1572265625
1218,0.169921875,-0.921875,0.1572265625
1219,0.171875,-0.9267578125,0.1572265625
1220,0.17578125,-0.9228515625,0.16015625
1221,0.17578125,-0.923828125,0.1611328125
1222,0.169921875,-0.92578125,0.1669921875
1223,0.1806640625,-0.9296875,0.1708984375
1224,0.173828125,-0.9306640625,0.1728515625
1225,0.171875,-0.9375,0.173828125
1226,0.16796875,-0.9326171875,0.17578125
1227,0.166015625,-0.935546875,0.173828125
1228,0.166015625,-0.9384765625,0.173828125
1229,0.1689453125,-0.935546875,0.173828125
1230,0.1748046875,-0.9375,0.171875
1231,0.171875,-0.9326171875,0.1708984375
1232,0.1728515625,-0.9306640625,0.169921875
1233,0.171875,-0.927734375,0.169921875
1234,0.1748046875,-0.92578125,0.171875
1235,0.1748046875,-0.91796875,0.1728515625
1236,0.1728515625,-0.9150390625,0.166015625
1237,0.173828125,-0.9208984375,0.1708984375
1238,0.169921875,-0.9169921875,0.16796875
1239,0.169921875,-0.9189453125,0.1689453125
1240,0.1728515625,-0.9150390625,0.169921875
1241,0.1669921875,-0.916015625,0.169921875
1242,0.171875,-0.9208984375,0.1689453125
1243,0.166015625,-0.919921875,0.1708984375
1244,0.171875,-0.9150390625,0.173828125
1245,0.1650390625,-0.9248046875,0.171875
1246,0.16796875,-0.927734375,0.169921875
1247,0.1689453125,-0.9287109375,0.16796875
1248,0.171875,-0.9267578125,0.1669921875
1249,0.1689453125,-0.927734375,0.1689453125
1250,0.1669921875,-0.9267578125,0.171875
1251,0.171875,-0.927734375,0.166015625
1252,0.1728515625,-0.92578125,0.162109375
1253,0.1708984375,-0.92578125,0.1669921875
1254,0.1689453125,-0.9248046875,0.1630859375
1255,0.171875,-0.9248046875,0.1630859375
1256,0.169921875,-0.923828125,0.16796875
1257,0.16796875,-0.921875,0.16796875
1258,0.1708984375,-0.9208984375,0.1689453125
1259,0.173828125,-0.9267578125,0.16796875
1260,0.1728515625,-0.921875,0.1689453125
1261,0.17578125,-0.9228515625,0.1611328125
1262,0.1767578125,-0.9228515625,0.1630859375
1263,0.173828125,-0.9248046875,0.1669921875
1264,0.177734375,-0.9248046875,0.1650390625
1265,0.17578125,-0.921875,0.1728515625
1266,0.177734375,-0.9248046875,0.171875
1267,0.17578125,-0.9287109375,0.169921875
1268,0.1796875,-0.931640625,0.171875
1269,0.1787109375,-0.927734375,0.1689453125
1270,0.177734375,-0.9228515625,0.1708984375
1271,0.1767578125,-0.9287109375,0.1708984375
1272,0.1748046875,-0.9208984375,0.162109375
1273,0.1728515625,-0.9208984375,0.162109375
1274,0.171875,-0.921875,0.15625
1275,0.16796875,-0.9208984375,0.15625
1276,0.1669921875,-0.9208984375,0.15625
1277,0.166015625,-0.9150390625,0.1591796875
1278,0.1669921875,-0.919921875,0.1591796875
1279,0.166015625,-0.91796875,0.1552734375
1280,0.16796875,-0.919921875,0.154296875
1281,0.1708984375,-0.923828125,0.1552734375
1282,0.16796875,-0.91796875,0.1572265625
1283,0.1708984375,-0.931640625,0.154296875
1284,0.17578125,-0.92578125,0.158203125
1285,0.1796875,-0.931640625,0.1591796875
1286,0.1845703125,-0.931640625,0.1611328125
1287,0.1884765625,-0.9345703125,0.166015625
1288,0.1826171875,-0.9443359375,0.1650390625
1289,0.1884765625,-0.9423828125,0.1669921875
1290,0.1884765625,-0.9423828125,0.16796875
1291,0.181640625,-0.9501953125,0.1669921875
1292,0.1865234375,-0.9521484375,0.1611328125
1293,0.1845703125,-0.94921875,0.1630859375
1294,0.1826171875,-0.9453125,0.16015625
1295,0.1826171875,-0.951171875,0.154296875
1296,0.1845703125,-0.947265625,0.1552734375
1297,0.1796875,-0.94140625,0.154296875
1298,0.1767578125,-0.939453125,0.1552734375
1299,0.181640625,-0.93359375,0.15234375
1300,0.1767578125,-0.9306640625,0.1513671875
1301,0.1767578125,-0.9306640625,0.150390625
1302,0.1796875,-0.9296875,0.150390625
1303,0.1787109375,-0.9326171875,0.1552734375
1304,0.177734375,-0.9267578125,0.154296875
1305,0.171875,-0.9326171875,0.1572265625
1306,0.173828125,-0.927734375,0.1533203125
1307,0.17578125,-0.92578125,0.15625
1308,0.173828125,-0.9267578125,0.1533203125
1309,0.1689453125,-0.9306640625,0.1591796875
1310,0.1728515625,-0.9326171875,0.1572265625
1311,0.1689453125,-0.931640625,0.15625
1312,0.1689453125,-0.93359375,0.158203125
1313,0.169921875,-0.9384765625,0.15625
1314,0.1669921875,-0.9326171875,0.154296875
1315,0.1689453125,-0.939453125,0.1533203125
1316,0.1689453125,-0.94140625,0.1533203125
1317,0.1689453125,-0.9404296875,0.1533203125
1318,0.1708984375,-0.9462890625,0.1552734375
1319,0.16796875,-0.943359375,0.158203125
1320,0.1650390625,-0.9404296875,0.162109375
1321,0.1650390625,-0.9482421875,0.16015625
1322,0.1640625,-0.9404296875,0.158203125
1323,0.1669921875,-0.939453125,0.15625
1324,0.166015625,-0.9345703125,0.154296875
1325,0.1689453125,-0.9326171875,0.1533203125
1326,0.16796875,-0.9287109375,0.146484375
1327,0.1669921875,-0.927734375,0.142578125
1328,0.1708984375,-0.9267578125,0.1416015625
1329,0.171875,-0.92578125,0.14453125
1330,0.1708984375,-0.921875,0.1376953125
1331,0.1728515625,-0.9189453125,0.1416015625
1332,0.1689453125,-0.921875,0.1416015625
1333,0.162109375,-0.921875,0.1455078125
1334,0.1630859375,-0.912109375,0.1494140625
1335,0.1630859375,-0.92578125,0.1494140625
1336,0.1689453125,-0.9248046875,0.1513671875
1337,0.1650390625,-0.92578125,0.1484375
1338,0.16796875,-0.9306640625,0.15625
1339,0.1669921875,-0.931640625,0.15234375
1340,0.1669921875,-0.9306640625,0.1513671875
1341,0.171875,-0.9267578125,0.15234375
1342,0.171875,-0.935546875,0.1552734375
1343,0.17578125,-0.9306640625,0.146484375
1344,0.1796875,-0.9326171875,0.1435546875
1345,0.177734375,-0.931640625,0.1455078125
1346,0.1767578125,-0.9267578125,0.1474609375
1347,0.171875,-0.9267578125,0.142578125
1348,0.1728515625,-0.92578125,0.138671875
1349,0.1708984375,-0.9267578125,0.146484375
1350,0.1708984375,-0.92578125,0.138671875
1351,0.1669921875,-0.9248046875,0.1396484375
1352,0.1669921875,-0.9267578125,0.1396484375
1353,0.1669921875,-0.92578125,0.1396484375
1354,0.1669921875,-0.921875,0.1474609375
1355,0.1650390625,-0.9267578125,0.1494140625
1356,0.1611328125,-0.9306640625,0.150390625
1357,0.1552734375,-0.93359375,0.1552734375
1358,0.162109375,-0.935546875,0.1572265625
1359,0.1630859375,-0.935546875,0.1552734375
1360,0.169921875,-0.9384765625,0.1552734375
1361,0.1640625,-0.9404296875,0.1533203125
1362,0.169921875,-0.935546875,0.15234375
1363,0.169921875,-0.94140625,0.1513671875
1364,0.1728515625,-0.9404296875,0.15234375
1365,0.16796875,-0.935546875,0.15625
1366,0.166015625,-0.9423828125,0.154296875
1367,0.1669921875,-0.9345703125,0.1533203125
1368,0.1640625,-0.9384765625,0.150390625
1369,0.1650390625,-0.94140625,0.1455078125
1370,0.16796875,-0.9365234375,0.1474609375
1371,0.166015625,-0.9384765625,0.1513671875
1372,0.1640625,-0.931640625,0.1513671875
1373,0.1591796875,-0.939453125,0.16015625
1374,0.1552734375,-0.935546875,0.158203125
1375,0.15234375,-0.9345703125,0.162109375
1376,0.16015625,-0.939453125,0.1572265625
1377,0.1572265625,-0.9384765625,0.15625
1378,0.1572265625,-0.9306640625,0.1640625
1379,0.162109375,-0.9306640625,0.1611328125
1380,0.154296875,-0.927734375,0.1640625
1381,0.1533203125,-0.9208984375,0.1572265625
1382,0.154296875,-0.9248046875,0.1611328125
1383,0.15625,-0.9150390625,0.16015625
1384,0.15625,-0.9140625,0.1630859375
1385,0.162109375,-0.919921875,0.1611328125
1386,0.1640625,-0.921875,0.1591796875
1387,0.1669921875,-0.9228515625,0.1611328125
1388,0.162109375,-0.9248046875,0.1650390625
1389,0.1650390625,-0.9267578125,0.1572265625
1390,0.169921875,-0.9296875,0.1591796875
1391,0.1650390625,-0.9306640625,0.1572265625
1392,0.1689453125,-0.9326171875,0.1533203125
1393,0.16796875,-0.931640625,0.15234375
1394,0.173828125,-0.9326171875,0.1513671875
1395,0.1728515625,-0.9306640625,0.1572265625
1396,0.173828125,-0.93359375,0.1513671875
1397,0.173828125,-0.931640625,0.15234375
1398,0.1767578125,-0.93359375,0.1513671875
1399,0.1728515625,-0.9375,0.1552734375
1400,0.1728515625,-0.9365234375,0.15234375
1401,0.1728515625,-0.939453125,0.1572265625
1402,0.1728515625,-0.9384765625,0.1552734375
1403,0.171875,-0.931640625,0.1513671875
1404,0.169921875,-0.931640625,0.1533203125
1405,0.171875,-0.9326171875,0.1552734375
1406,0.1708984375,-0.935546875,0.1552734375
1407,0.1689453125,-0.9287109375,0.1552734375
1408,0.17578125,-0.9345703125,0.16015625
1409,0.171875,-0.9296875,0.15625
1410,0.1669921875,-0.9296875,0.158203125
1411,0.171875,-0.9326171875,0.1572265625
1412,0.1708984375,-0.9365234375,0.1572265625
1413,0.16796875,-0.931640625,0.16015625
1414,0.1689453125,-0.9306640625,0.1552734375
1415,0.16796875,-0.9306640625,0.158203125
1416,0.171875,-0.9345703125,0.162109375
1417,0.166015625,-0.9296875,0.162109375
1418,0.1728515625,-0.9267578125,0.1572265625
1419,0.171875,-0.9306640625,0.1611328125
1420,0.1669921875,-0.9306640625,0.166015625
1421,0.16796875,-0.923828125,0.162109375
1422,0.166015625,-0.9267578125,0.162109375
1423,0.166015625,-0.9287109375,0.1591796875
1424,0.1552734375,-0.927734375,0.16015625
1425,0.1611328125,-0.9296875,0.1572265625
1426,0.1611328125,-0.9267578125,0.1533203125
1427,0.15625,-0.923828125,0.15625
1428,0.1552734375,-0.9228515625,0.154296875
1429,0.15625,-0.921875,0.1572265625
1430,0.1591796875,-0.921875,0.154296875
1431,0.158203125,-0.9248046875,0.1552734375
1432,0.1630859375,-0.927734375,0.1572265625
1433,0.166015625,-0.927734375,0.158203125
1434,0.1689453125,-0.9296875,0.162109375
1435,0.171875,-0.9296875,0.1669921875
1436,0.1748046875,-0.927734375,0.16796875
1437,0.171875,-0.931640625,0.1630859375
1438,0.1748046875,-0.9306640625,0.1650390625
1439,0.18359375,-0.9296875,0.16015625
1440,0.1796875,-0.9345703125,0.158203125
1441,0.1796875,-0.9296875,0.158203125
1442,0.1806640625,-0.939453125,0.1591796875
1443,0.1748046875,-0.9345703125,0.1552734375
1444,0.1787109375,-0.9326171875,0.1572265625
1445,0.173828125,-0.9365234375,0.1552734375
1446,0.17578125,-0.93359375,0.1552734375
1447,0.173828125,-0.931640625,0.1552734375
1448,0.1689453125,-0.92578125,0.1533203125
1449,0.171875,-0.9287109375,0.15234375
1450,0.1748046875,-0.9248046875,0.15625
1451,0.16796875,-0.923828125,0.15234375
1452,0.16796875,-0.9169921875,0.154296875
1453,0.169921875,-0.923828125,0.1552734375
1454,0.17578125,-0.923828125,0.15234375
1455,0.1728515625,-0.9248046875,0.1484375
1456,0.1689453125,-0.9296875,0.15625
1457,0.1689453125,-0.935546875,0.15625
1458,0.1689453125,-0.93359375,0.1552734375
1459,0.17578125,-0.9365234375,0.158203125
1460,0.1708984375,-0.94140625,0.162109375
1461,0.1689453125,-0.9326171875,0.1552734375
1462,0.1708984375,-0.9384765625,0.1611328125
1463,0.169921875,-0.931640625,0.158203125
1464,0.1787109375,-0.9326171875,0.1591796875
1465,0.17578125,-0.9306640625,0.15625
1466,0.173828125,-0.9287109375,0.15625
1467,0.1748046875,-0.931640625,0.15234375
1468,0.1748046875,-0.931640625,0.15625
1469,0.1796875,-0.92578125,0.154296875
1470,0.1787109375,-0.9248046875,0.150390625
1471,0.181640625,-0.9287109375,0.150390625
1472,0.1728515625,-0.927734375,0.146484375
1473,0.177734375,-0.9326171875,0.1513671875
1474,0.1767578125,-0.943359375,0.15234375
1475,0.1787109375,-0.9375,0.15234375
1476,0.1767578125,-0.9423828125,0.1572265625
1477,0.1767578125,-0.939453125,0.15625
1478,0.17578125,-0.9375,0.15625
1479,0.169921875,-0.94140625,0.1552734375
1480,0.173828125,-0.9345703125,0.1552734375
1481,0.173828125,-0.9375,0.15625
1482,0.1767578125,-0.9384765625,0.1533203125
1483,0.1796875,-0.935546875,0.1572265625
1484,0.181640625,-0.9384765625,0.1552734375
1485,0.1826171875,-0.935546875,0.154296875
1486,0.1787109375,-0.939453125,0.15234375
1487,0.181640625,-0.93359375,0.1533203125
1488,0.1884765625,-0.9326171875,0.150390625
1489,0.1796875,-0.9267578125,0.1572265625
1490,0.173828125,-0.9267578125,0.15625
1491,0.1767578125,-0.9296875,0.1572265625
1492,0.1767578125,-0.9287109375,0.1591796875
1493,0.1787109375,-0.9228515625,0.1572265625
1494,0.177734375,-0.9296875,0.16015625
1495,0.177734375,-0.9228515625,0.158203125
1496,0.1826171875,-0.9296875,0.1640625
1497,0.1826171875,-0.9287109375,0.16015625
1498,0.1845703125,-0.92578125,0.162109375
1499,0.1767578125,-0.927734375,0.1572265625
1500,0.1787109375,-0.927734375,0.162109375
1501,0.1767578125,-0.931640625,0.162109375
1502,0.17578125,-0.9296875,0.15625
1503,0.173828125,-0.9296875,0.16015625
1504,0.173828125,-0.931640625,0.1572265625
1505,0.1787109375,-0.9306640625,0.154296875
1506,0.1728515625,-0.9248046875,0.15625
1507,0.173828125,-0.9306640625,0.1533203125
1508,0.1767578125,-0.92578125,0.15234375
1509,0.171875,-0.9296875,0.1533203125
1510,0.1767578125,-0.927734375,0.1484375
1511,0.173828125,-0.9228515625,0.15625
1512,0.173828125,-0.92578125,0.1533203125
1513,0.1728515625,-0.92578125,0.15234375
1514,0.1767578125,-0.9267578125,0.15625
1515,0.1748046875,-0.9267578125,0.1533203125
1516,0.177734375,-0.923828125,0.154296875
1517,0.1748046875,-0.92578125,0.1513671875
1518,0.1787109375,-0.9248046875,0.1572265625
1519,0.1787109375,-0.923828125,0.16015625
1520,0.177734375,-0.9287109375,0.162109375
1521,0.17578125,-0.9296875,0.1591796875
1522,0.177734375,-0.9248046875,0.1591796875
1523,0.173828125,-0.9306640625,0.162109375
1524,0.171875,-0.9287109375,0.1611328125
1525,0.1689453125,-0.9248046875,0.162109375
1526,0.1708984375,-0.927734375,0.16015625
1527,0.1689453125,-0.923828125,0.1611328125
1528,0.1669921875,-0.927734375,0.1640625
1529,0.1728515625,-0.921875,0.1591796875
1530,0.169921875,-0.9228515625,0.15625
1531,0.166015625,-0.9140625,0.1572265625
1532,0.1669921875,-0.9130859375,0.1572265625
1533,0.16796875,-0.9150390625,0.1572265625
1534,0.169921875,-0.9140625,0.15625
1535,0.1708984375,-0.9169921875,0.1572265625
1536,0.1708984375,-0.9208984375,0.162109375
1537,0.16796875,-0.9228515625,0.158203125
1538,0.16796875,-0.9287109375,0.1611328125
1539,0.171875,-0.923828125,0.169921875
1540,0.171875,-0.9267578125,0.162109375
1541,0.1708984375,-0.931640625,0.1708984375
1542,0.1708984375,-0.931640625,0.171875
1543,0.171875,-0.927734375,0.1708984375
1544,0.171875,-0.9306640625,0.171875
1545,0.1728515625,-0.9287109375,0.169921875
1546,0.1689453125,-0.931640625,0.171875
1547,0.1669921875,-0.935546875,0.169921875
1548,0.16796875,-0.9345703125,0.1669921875
1549,0.17578125,-0.9326171875,0.1640625
1550,0.1708984375,-0.9296875,0.1640625
1551,0.1708984375,-0.9306640625,0.1650390625
1552,0.1689453125,-0.9296875,0.1650390625
1553,0.173828125,-0.9306640625,0.1640625
1554,0.1728515625,-0.931640625,0.1640625
1555,0.1728515625,-0.9296875,0.162109375
1556,0.173828125,-0.9287109375,0.1640625
1557,0.1806640625,-0.9296875,0.1650390625
1558,0.1806640625,-0.927734375,0.1611328125
1559,0.181640625,-0.9296875,0.162109375
1560,0.1787109375,-0.931640625,0.1611328125
1561,0.1806640625,-0.9296875,0.16015625
1562,0.1806640625,-0.9306640625,0.1611328125
1563,0.1806640625,-0.9326171875,0.162109375
1564,0.1826171875,-0.9326171875,0.1611328125
1565,0.1826171875,-0.9345703125,0.158203125
1566,0.1826171875,-0.9345703125,0.1611328125
1567,0.18359375,-0.9404296875,0.158203125
1568,0.1767578125,-0.9384765625,0.158203125
1569,0.1796875,-0.9326171875,0.15625
1570,0.177734375,-0.943359375,0.1572265625
1571,0.1728515625,-0.9345703125,0.1572265625
1572,0.17578125,-0.9287109375,0.1513671875
1573,0.177734375,-0.935546875,0.154296875
1574,0.1708984375,-0.9296875,0.15625
1575,0.177734375,-0.9326171875,0.1611328125
1576,0.1728515625,-0.9287109375,0.1640625
1577,0.173828125,-0.9287109375,0.1650390625
1578,0.171875,-0.9287109375,0.1611328125
1579,0.17578125,-0.9306640625,0.1640625
1580,0.1748046875,-0.9296875,0.162109375
1581,0.1708984375,-0.9287109375,0.16796875
1582,0.1787109375,-0.9287109375,0.166015625
1583,0.1767578125,-0.927734375,0.16796875
1584,0.1826171875,-0.9306640625,0.1728515625
1585,0.181640625,-0.9306640625,0.16796875
1586,0.1796875,-0.9306640625,0.169921875
1587,0.1767578125,-0.9345703125,0.1689453125
1588,0.173828125,-0.9248046875,0.1640625
1589,0.17578125,-0.9296875,0.1669921875
1590,0.181640625,-0.9287109375,0.1640625
1591,0.18359375,-0.921875,0.1650390625
1592,0.181640625,-0.9267578125,0.1640625
1593,0.1767578125,-0.9228515625,0.162109375
1594,0.1806640625,-0.927734375,0.1650390625
1595,0.173828125,-0.9228515625,0.162109375
1596,0.17578125,-0.921875,0.1640625
1597,0.169921875,-0.92578125,0.1708984375
1598,0.17578125,-0.923828125,0.16796875
1599,0.1748046875,-0.9248046875,0.1650390625
1600,0.181640625,-0.923828125,0.16796875
1601,0.1748046875,-0.921875,0.169921875
1602,0.17578125,-0.9208984375,0.1708984375
1603,0.1796875,-0.927734375,0.1708984375
1604,0.1796875,-0.9267578125,0.1689453125
1605,0.177734375,-0.9248046875,0.1689453125
1606,0.1826171875,-0.9267578125,0.1689453125
1607,0.18359375,-0.923828125,0.166015625
1608,0.181640625,-0.9306640625,0.1689453125
1609,0.1826171875,-0.927734375,0.1650390625
1610,0.18359375,-0.927734375,0.16796875
1611,0.1796875,-0.927734375,0.1708984375
1612,0.1806640625,-0.9306640625,0.171875
1613,0.17578125,-0.927734375,0.1689453125
1614,0.1767578125,-0.9287109375,0.171875
1615,0.1689453125,-0.92578125,0.1689453125
1616,0.169921875,-0.9248046875,0.16796875
1617,0.1748046875,-0.923828125,0.1689453125
1618,0.171875,-0.923828125,0.169921875
1619,0.1689453125,-0.9287109375,0.1640625
1620,0.166015625,-0.9248046875,0.1640625
1621,0.169921875,-0.927734375,0.1630859375
1622,0.16796875,-0.9267578125,0.1640625
1623,0.1669921875,-0.9248046875,0.1669921875
1624,0.1689453125,-0.9267578125,0.16796875
1625,0.1689453125,-0.923828125,0.1650390625
1626,0.16796875,-0.9228515625,0.16796875
1627,0.1728515625,-0.927734375,0.17578125
1628,0.1787109375,-0.923828125,0.16796875
1629,0.171875,-0.9228515625,0.166015625
1630,0.1806640625,-0.92578125,0.1591796875
1631,0.1787109375,-0.9248046875,0.162109375
1632,0.1787109375,-0.9267578125,0.16796875
1633,0.1767578125,-0.921875,0.1650390625
1634,0.1728515625,-0.9208984375,0.162109375
1635,0.1689453125,-0.9287109375,0.1669921875
1636,0.169921875,-0.9287109375,0.16796875
1637,0.1650390625,-0.9326171875,0.1640625
1638,0.169921875,-0.931640625,0.166015625
1639,0.16796875,-0.9296875,0.1650390625
1640,0.1708984375,-0.9306640625,0.1708984375
1641,0.1689453125,-0.92578125,0.1728515625
1642,0.1708984375,-0.9296875,0.171875
1643,0.162109375,-0.931640625,0.171875
1644,0.1708984375,-0.931640625,0.171875
1645,0.166015625,-0.9306640625,0.166015625
1646,0.1708984375,-0.9296875,0.1728515625
1647,0.1748046875,-0.9306640625,0.171875
1648,0.173828125,-0.9306640625,0.171875
1649,0.1787109375,-0.9306640625,0.1728515625
1650,0.171875,-0.9306640625,0.1669921875
1651,0.171875,-0.9296875,0.1708984375
1652,0.1708984375,-0.9326171875,0.1845703125
1653,0.1767578125,-0.9326171875,0.1689453125
1654,0.1806640625,-0.9296875,0.1708984375
1655,0.1728515625,-0.9306640625,0.16796875
1656,0.173828125,-0.927734375,0.173828125
1657,0.16796875,-0.923828125,0.1728515625
1658,0.169921875,-0.92578125,0.173828125
1659,0.1728515625,-0.921875,0.17578125
1660,0.1708984375,-0.923828125,0.1748046875
1661,0.1728515625,-0.9248046875,0.1708984375
1662,0.171875,-0.92578125,0.1708984375
1663,0.169921875,-0.921875,0.171875
1664,0.16796875,-0.9296875,0.173828125
1665,0.16796875,-0.927734375,0.1728515625
1666,0.1748046875,-0.92578125,0.173828125
1667,0.171875,-0.923828125,0.169921875
1668,0.171875,-0.921875,0.1728515625
1669,0.173828125,-0.921875,0.1767578125
1670,0.173828125,-0.92578125,0.1728515625
1671,0.1806640625,-0.9287109375,0.1669921875
1672,0.1806640625,-0.9248046875,0.173828125
1673,0.1767578125,-0.92578125,0.169921875
1674,0.1787109375,-0.931640625,0.173828125
1675,0.173828125,-0.927734375,0.171875
1676,0.1787109375,-0.927734375,0.1728515625
1677,0.1728515625,-0.92578125,0.1689453125
1678,0.1728515625,-0.935546875,0.1728515625
1679,0.1767578125,-0.9267578125,0.169921875
1680,0.1787109375,-0.9306640625,0.171875
1681,0.1787109375,-0.9296875,0.1708984375
1682,0.1708984375,-0.927734375,0.1728515625
1683,0.1728515625,-0.923828125,0.1708984375
1684,0.169921875,-0.931640625,0.171875
1685,0.1728515625,-0.9287109375,0.171875
1686,0.1748046875,-0.923828125,0.169921875
1687,0.171875,-0.927734375,0.16796875
1688,0.1728515625,-0.927734375,0.169921875
1689,0.177734375,-0.9208984375,0.1728515625
1690,0.1767578125,-0.923828125,0.171875
1691,0.1796875,-0.912109375,0.1728515625
1692,0.1787109375,-0.9228515625,0.169921875
1693,0.1767578125,-0.923828125,0.16796875
1694,0.1806640625,-0.92578125,0.1689453125
1695,0.1806640625,-0.92578125,0.1650390625
1696,0.1787109375,-0.9287109375,0.166015625
1697,0.181640625,-0.9267578125,0.1640625
1698,0.1748046875,-0.935546875,0.1640625
1699,0.181640625,-0.9306640625,0.16015625
1700,0.185546875,-0.9326171875,0.1650390625
1701,0.18359375,-0.935546875,0.162109375
1702,0.1865234375,-0.9384765625,0.15625
1703,0.185546875,-0.92578125,0.1630859375
1704,0.1748046875,-0.9453125,0.158203125
1705,0.1767578125,-0.9462890625,0.1640625
1706,0.1650390625,-0.97265625,0.15234375
1707,0.1708984375,-0.9736328125,0.1513671875
1708,0.1669921875,-0.9755859375,0.1484375
1709,0.1787109375,-0.978515625,0.14453125
1710,0.173828125,-0.9873046875,0.142578125
1711,0.1787109375,-0.99609375,0.1376953125
1712,0.1845703125,-1.0048828125,0.1318359375
1713,0.1923828125,-1.0146484375,0.130859375
1714,0.2060546875,-1.025390625,0.125
1715,0.2177734375,-1.037109375,0.125
1716,0.220703125,-1.0498046875,0.1240234375
1717,0.2275390625,-1.0703125,0.1201171875
1718,0.23828125,-1.078125,0.12109375
1719,0.2275390625,-1.1005859375,0.1044921875
1720,0.2333984375,-1.115234375,0.1005859375
1721,0.23046875,-1.1259765625,0.09375
1722,0.232421875,-1.142578125,0.0859375
1723,0.21875,-1.1435546875,0.1005859375
1724,0.2734375,-1.185546875,0.072265625
1725,0.2314453125,-1.1796875,0.0654296875
1726,0.224609375,-1.1826171875,0.0703125
1727,0.2255859375,-1.2041015625,0.060546875
1728,0.2353515625,-1.203125,0.0556640625
1729,0.2265625,-1.2177734375,0.03515625
1730,0.2314453125,-1.2138671875,0.0224609375
1731,0.2392578125,-1.2041015625,0.0283203125
1732,0.2431640625,-1.203125,0.02734375
1733,0.2470703125,-1.1982421875,0.02734375
1734,0.2509765625,-1.2001953125,0.029296875
1735,0.25390625,-1.1865234375,0.01953125
1736,0.244140625,-1.1787109375,0.0029296875
1737,0.25,-1.1669921875,0.0029296875
1738,0.2470703125,-1.1572265625,-0.0068359375
1739,0.25,-1.1533203125,-0.013671875
1740,0.23828125,-1.1357421875,-0.0087890625
1741,0.2314453125,-1.1240234375,-0.005859375
1742,0.2265625,-1.1162109375,0.0009765625
1743,0.2275390625,-1.109375,0.0048828125
1744,0.220703125,-1.1025390625,0.009765625
1745,0.2158203125,-1.0966796875,0.0146484375
1746,0.20703125,-1.0859375,0.021484375
1747,0.2021484375,-1.0859375,0.0244140625
1748,0.1982421875,-1.0771484375,0.0283203125
1749,0.1923828125,-1.076171875,0.03125
1750,0.1884765625,-1.07421875,0.0302734375
1751,0.189453125,-1.0732421875,0.0244140625
1752,0.193359375,-1.0634765625,0.0244140625
1753,0.1953125,-1.05859375,0.0224609375
1754,0.201171875,-1.0556640625,0.0302734375
1755,0.19921875,-1.0478515625,0.033203125
1756,0.19921875,-1.0439453125,0.0341796875
1757,0.1962890625,-1.0419921875,0.033203125
1758,0.19140625,-1.02734375,0.0322265625
1759,0.185546875,-1.0361328125,0.033203125
1760,0.1728515625,-1.0263671875,0.0322265625
1761,0.1572265625,-1.0263671875,0.0322265625
1762,0.142578125,-1.02734375,0.029296875
1763,0.1396484375,-1.015625,0.0146484375
1764,0.1396484375,-1.0068359375,0.0107421875
1765,0.146484375,-1.0068359375,0.0009765625
1766,0.15234375,-1.0,-0.0068359375
1767,0.154296875,-1.0234375,-0.017578125
1768,0.1640625,-1.0107421875,-0.0205078125
1769,0.1689453125,-1.0166015625,-0.0224609375
1770,0.1787109375,-1.0234375,-0.0224609375
1771,0.177734375,-1.0263671875,-0.021484375
1772,0.181640625,-1.02734375,-0.01953125
1773,0.1806640625,-1.0341796875,-0.0263671875
1774,0.1689453125,-1.03125,-0.03515625
1775,0.16015625,-1.029296875,-0.0439453125
1776,0.15234375,-1.025390625,-0.0478515625
1777,0.1337890625,-1.0205078125,-0.056640625
1778,0.1318359375,-1.025390625,-0.0732421875
1779,0.130859375,-1.02734375,-0.083984375
1780,0.130859375,-1.01953125,-0.0849609375
1781,0.1337890625,-1.0263671875,-0.0947265625
1782,0.1376953125,-1.02734375,-0.0947265625
1783,0.1376953125,-1.0302734375,-0.09375
1784,0.1416015625,-1.029296875,-0.0830078125
1785,0.1533203125,-1.037109375,-0.0810546875
1786,0.1357421875,-1.0341796875,-0.0830078125
1787,0.1376953125,-1.0361328125,-0.0830078125
1788,0.1328125,-1.044921875,-0.0849609375
1789,0.150390625,-1.0537109375,-0.0947265625
1790,0.1005859375,-1.04296875,-0.09765625
1791,0.107421875,-1.046875,-0.107421875
1792,0.107421875,-1.0537109375,-0.1220703125
1793,0.1513671875,-1.0634765625,-0.126953125
1794,0.0927734375,-1.0263671875,-0.12890625
1795,0.10546875,-1.0234375,-0.130859375
1796,0.125,-1.0205078125,-0.12890625
1797,0.1455078125,-1.029296875,-0.1328125
1798,0.103515625,-1.0126953125,-0.125
1799,0.109375,-1.015625,-0.1240234375
1800,0.1181640625,-1.0166015625,-0.1240234375
1801,0.119140625,-1.0166015625,-0.12890625
1802,0.1591796875,-1.0234375,-0.12890625
1803,0.0947265625,-1.0068359375,-0.1396484375
1804,0.1171875,-1.0087890625,-0.1357421875
1805,0.1162109375,-1.009765625,-0.14453125
1806,0.1318359375,-1.001953125,-0.140625
1807,0.1318359375,-1.0009765625,-0.1484375
1808,0.1220703125,-0.99609375,-0.1474609375
1809,0.123046875,-0.9912109375,-0.1435546875
1810,0.125,-0.994140625,-0.1455078125
1811,0.126953125,-0.9931640625,-0.142578125
1812,0.1171875,-0.998046875,-0.1279296875
1813,0.1552734375,-1.021484375,-0.1435546875
1814,0.103515625,-0.9990234375,-0.14453125
1815,0.1279296875,-0.9951171875,-0.154296875
1816,0.1123046875,-0.9833984375,-0.134765625
1817,0.123046875,-0.9912109375,-0.140625
1818,0.12890625,-0.9755859375,-0.138671875
1819,0.12109375,-0.98046875,-0.1474609375
1820,0.1083984375,-0.9765625,-0.1494140625
1821,0.109375,-0.955078125,-0.1494140625
1822,0.111328125,-0.951171875,-0.150390625
1823,0.1025390625,-0.9384765625,-0.154296875
1824,0.1220703125,-0.927734375,-0.15234375
1825,0.1123046875,-0.9130859375,-0.1455078125
1826,0.1240234375,-0.9189453125,-0.1435546875
1827,0.09765625,-0.8935546875,-0.134765625
1828,0.1181640625,-0.892578125,-0.1455078125
1829,0.12109375,-0.8896484375,-0.1357421875
1830,0.1220703125,-0.892578125,-0.140625
1831,0.12109375,-0.8955078125,-0.1396484375
1832,0.12890625,-0.896484375,-0.1435546875
1833,0.095703125,-0.884765625,-0.146484375
1834,0.107421875,-0.8837890625,-0.1474609375
1835,0.1181640625,-0.87890625,-0.1435546875
1836,0.111328125,-0.8837890625,-0.1435546875
1837,0.0810546875,-0.8662109375,-0.134765625
1838,0.0732421875,-0.873046875,-0.1318359375
1839,0.0771484375,-0.8681640625,-0.123046875
1840,0.072265625,-0.873046875,-0.1240234375
1841,0.0654296875,-0.8681640625,-0.12109375
1842,0.0625,-0.8701171875,-0.12890625
1843,0.0478515625,-0.8701171875,-0.1181640625
1844,0.0478515625,-0.8740234375,-0.1259765625
1845,0.0458984375,-0.869140625,-0.1142578125
1846,0.046875,-0.869140625,-0.107421875
1847,0.0478515625,-0.8671875,-0.1171875
1848,0.0419921875,-0.865234375,-0.1220703125
1849,0.0556640625,-0.865234375,-0.1162109375
1850,0.05859375,-0.87109375,-0.1318359375
1851,0.0400390625,-0.861328125,-0.1318359375
1852,0.0546875,-0.8603515625,-0.1474609375
1853,0.0634765625,-0.861328125,-0.15625
1854,0.0849609375,-0.8671875,-0.15234375
1855,0.095703125,-0.8681640625,-0.1572265625
1856,0.0888671875,-0.8779296875,-0.166015625
1857,0.095703125,-0.8837890625,-0.1669921875
1858,0.0810546875,-0.8857421875,-0.171875
1859,0.0908203125,-0.8935546875,-0.1689453125
1860,0.09375,-0.900390625,-0.1728515625
1861,0.0927734375,-0.908203125,-0.17578125
1862,0.0927734375,-0.9130859375,-0.173828125
1863,0.0908203125,-0.908203125,-0.181640625
1864,0.0908203125,-0.9111328125,-0.16796875
1865,0.0859375,-0.9150390625,-0.1640625
1866,0.0771484375,-0.9052734375,-0.1552734375
1867,0.080078125,-0.9111328125,-0.1591796875
1868,0.078125,-0.908203125,-0.1513671875
1869,0.076171875,-0.9130859375,-0.1484375
1870,0.0732421875,-0.9228515625,-0.154296875
1871,0.0810546875,-0.9189453125,-0.146484375
1872,0.0673828125,-0.9228515625,-0.134765625
1873,0.0732421875,-0.9296875,-0.13671875
1874,0.0849609375,-0.935546875,-0.150390625
1875,0.0751953125,-0.9306640625,-0.13671875
1876,0.05859375,-0.9287109375,-0.1435546875
1877,0.0625,-0.9287109375,-0.1484375
1878,0.0654296875,-0.93359375,-0.142578125
1879,0.0537109375,-0.9306640625,-0.138671875
1880,0.0556640625,-0.939453125,-0.138671875
1881,0.0576171875,-0.939453125,-0.1455078125
1882,0.052734375,-0.939453125,-0.146484375
1883,0.0517578125,-0.9384765625,-0.1484375
1884,0.0537109375,-0.9404296875,-0.154296875
1885,0.0576171875,-0.9423828125,-0.15234375
1886,0.0576171875,-0.9345703125,-0.146484375
1887,0.05078125,-0.9306640625,-0.15625
1888,0.0546875,-0.9267578125,-0.15625
1889,0.0556640625,-0.92578125,-0.1455078125
1890,0.0634765625,-0.9248046875,-0.146484375
1891,0.060546875,-0.9296875,-0.1435546875
1892,0.0556640625,-0.9296875,-0.16015625
1893,0.0546875,-0.916015625,-0.1181640625
1894,0.0478515625,-0.9267578125,-0.13671875
1895,0.0517578125,-0.90625,-0.11328125
1896,0.0390625,-0.8857421875,-0.0986328125
1897,0.0341796875,-0.8828125,-0.103515625
1898,0.0341796875,-0.8818359375,-0.0986328125
1899,0.0283203125,-0.87890625,-0.0830078125
1900,0.03125,-0.8837890625,-0.0712890625
1901,0.05078125,-0.888671875,-0.0703125
1902,0.056640625,-0.888671875,-0.06640625
1903,0.0546875,-0.8837890625,-0.052734375
1904,0.0537109375,-0.875,-0.0419921875
1905,0.052734375,-0.8720703125,-0.0322265625
1906,0.0537109375,-0.876953125,-0.03125
1907,0.0498046875,-0.87109375,-0.0283203125
1908,0.0576171875,-0.8798828125,-0.01953125
1909,0.0703125,-0.880859375,-0.015625
1910,0.0673828125,-0.8818359375,-0.029296875
1911,0.064453125,-0.8857421875,-0.0419921875
1912,0.052734375,-0.8798828125,-0.0478515625
1913,0.0517578125,-0.8759765625,-0.0537109375
1914,0.0576171875,-0.86328125,-0.05078125
1915,0.052734375,-0.8505859375,-0.0322265625
1916,0.0537109375,-0.83984375,-0.0029296875
1917,0.064453125,-0.8505859375,0.005859375
1918,0.0654296875,-0.8544921875,-0.01171875
1919,0.0634765625,-0.8623046875,-0.0390625
1920,0.0546875,-0.8525390625,-0.0517578125
1921,0.0556640625,-0.8603515625,-0.0712890625
1922,0.0419921875,-0.8583984375,-0.07421875
1923,0.041015625,-0.853515625,-0.0654296875
1924,0.0361328125,-0.8310546875,-0.0439453125
1925,0.0400390625,-0.8408203125,-0.0322265625
1926,0.03515625,-0.8515625,-0.0322265625
1927,0.041015625,-0.8544921875,-0.0302734375
1928,0.0517578125,-0.8564453125,-0.009765625
1929,0.0556640625,-0.8662109375,-0.0048828125
1930,0.060546875,-0.8583984375,-0.0078125
1931,0.0712890625,-0.859375,-0.0029296875
1932,0.083984375,-0.8603515625,-0.0224609375
1933,0.091796875,-0.8701171875,-0.0361328125
1934,0.0791015625,-0.880859375,-0.0478515625
1935,0.07421875,-0.873046875,-0.04296875
1936,0.0830078125,-0.8818359375,-0.0419921875
1937,0.0791015625,-0.8798828125,-0.0302734375
1938,0.0732421875,-0.85546875,-0.0107421875
1939,0.0634765625,-0.8427734375,0.005859375
1940,0.046875,-0.859375,-0.0126953125
1941,0.083984375,-0.8525390625,-0.009765625
1942,0.0703125,-0.845703125,-0.009765625
1943,0.0712890625,-0.84765625,-0.0234375
1944,0.0576171875,-0.853515625,-0.02734375
1945,0.0556640625,-0.8466796875,-0.02734375
1946,0.044921875,-0.861328125,-0.0146484375
1947,0.048828125,-0.876953125,-0.0322265625
1948,0.0576171875,-0.8837890625,-0.0263671875
1949,0.0703125,-0.8828125,-0.0205078125
1950,0.0732421875,-0.8720703125,-0.0146484375
1951,0.0791015625,-0.8759765625,-0.021484375
1952,0.0791015625,-0.880859375,-0.017578125
1953,0.083984375,-0.8759765625,-0.0205078125
1954,0.0908203125,-0.8857421875,-0.0380859375
1955,0.0791015625,-0.8740234375,-0.0302734375
1956,0.072265625,-0.8818359375,-0.0439453125
1957,0.0673828125,-0.8916015625,-0.0498046875
1958,0.060546875,-0.900390625,-0.0478515625
1959,0.0537109375,-0.8974609375,-0.0400390625
1960,0.0458984375,-0.8935546875,-0.029296875
1961,0.0400390625,-0.888671875,-0.0166015625
1962,0.0458984375,-0.8896484375,-0.00390625
1963,0.0498046875,-0.88671875,0.001953125
1964,0.0576171875,-0.892578125,0.017578125
1965,0.0546875,-0.89453125,0.0107421875
1966,0.056640625,-0.8994140625,0.0068359375
1967,0.0537109375,-0.908203125,0.0009765625
1968,0.0478515625,-0.9140625,0.009765625
1969,0.0546875,-0.92578125,0.0068359375
1970,0.0693359375,-0.916015625,0.0068359375
1971,0.0595703125,-0.9140625,-0.00390625
1972,0.0556640625,-0.90625,0.001953125
1973,0.041015625,-0.9140625,-0.00390625
1974,0.04296875,-0.921875,-0.0146484375
1975,0.044921875,-0.9248046875,-0.0185546875
1976,0.04296875,-0.921875,-0.015625
1977,0.0419921875,-0.90234375,-0.0048828125
1978,0.046875,-0.9033203125,-0.0087890625
1979,0.044921875,-0.8994140625,-0.0068359375
1980,0.048828125,-0.90234375,-0.0087890625
1981,0.052734375,-0.90234375,-0.0126953125
1982,0.0498046875,-0.8984375,-0.009765625
1983,0.048828125,-0.908203125,-0.0009765625
1984,0.0419921875,-0.904296875,0.0087890625
1985,0.046875,-0.916015625,0.01953125
1986,0.056640625,-0.90625,0.0283203125
1987,0.0595703125,-0.91796875,0.03125
1988,0.0517578125,-0.91015625,0.0380859375
1989,0.0595703125,-0.91015625,0.033203125
1990,0.0595703125,-0.9169921875,0.0341796875
1991,0.0537109375,-0.9013671875,0.037109375
1992,0.0615234375,-0.8994140625,0.03125
1993,0.0634765625,-0.8955078125,0.0205078125
1994,0.0673828125,-0.8935546875,0.017578125
1995,0.06640625,-0.88671875,0.0078125
1996,0.0654296875,-0.87890625,0.0078125
1997,0.072265625,-0.87890625,0.005859375
1998,0.0615234375,-0.8603515625,0.01953125
1999,0.0576171875,-0.8583984375,0.0078125
2000,0.060546875,-0.85546875,-0.0009765625
2001,0.0595703125,-0.8544921875,-0.0009765625
2002,0.064453125,-0.857421875,0.0009765625
2003,0.0634765625,-0.86328125,0.0029296875
2004,0.05859375,-0.857421875,-0.0078125
2005,0.0546875,-0.865234375,0.00390625
2006,0.056640625,-0.8857421875,0.0009765625
2007,0.0498046875,-0.8671875,0.033203125
2008,0.0419921875,-0.8916015625,0.0322265625
2009,0.04296875,-0.904296875,0.0341796875
2010,0.0400390625,-0.908203125,0.046875
2011,0.0419921875,-0.9072265625,0.0537109375
2012,0.0390625,-0.923828125,0.0458984375
2013,0.0341796875,-0.927734375,0.0517578125
2014,0.0244140625,-0.9296875,0.0498046875
2015,0.021484375,-0.931640625,0.0380859375
2016,0.0205078125,-0.9248046875,0.0302734375
2017,0.0263671875,-0.9287109375,0.0302734375
2018,0.025390625,-0.93359375,0.0234375
2019,0.0322265625,-0.9365234375,0.025390625
2020,0.0244140625,-0.92578125,0.0361328125
2021,0.03515625,-0.9345703125,0.0341796875
2022,0.044921875,-0.9345703125,0.033203125
2023,0.0419921875,-0.9404296875,0.0244140625
2024,0.0458984375,-0.9404296875,0.025390625
2025,0.048828125,-0.943359375,0.021484375
2026,0.0537109375,-0.9423828125,0.029296875
2027,0.0498046875,-0.9423828125,0.021484375
2028,0.0576171875,-0.943359375,0.029296875
2029,0.056640625,-0.9453125,0.0263671875
2030,0.0478515625,-0.9462890625,0.0166015625
2031,0.0478515625,-0.951171875,0.02734375
2032,0.0400390625,-0.9638671875,0.0341796875
2033,0.03515625,-0.9541015625,0.0263671875
2034,0.0302734375,-0.939453125,0.0341796875
2035,0.037109375,-0.939453125,0.02734375
2036,0.0419921875,-0.9287109375,0.025390625
2037,0.0361328125,-0.9296875,0.0224609375
2038,0.0302734375,-0.91796875,0.015625
2039,0.025390625,-0.9189453125,0.017578125
2040,0.0341796875,-0.9267578125,0.013671875
2041,0.037109375,-0.9189453125,0.005859375
2042,0.037109375,-0.9267578125,-0.0048828125
2043,0.0302734375,-0.921875,0.0009765625
2044,0.0322265625,-0.9228515625,-0.005859375
2045,0.033203125,-0.931640625,-0.0087890625
2046,0.041015625,-0.9384765625,-0.015625
2047,0.04296875,-0.9462890625,-0.0166015625
2048,0.052734375,-0.9560546875,-0.025390625
2049,0.0537109375,-0.9638671875,-0.0283203125
2050,0.056640625,-0.9833984375,-0.03125
2051,0.0625,-0.984375,-0.03125
2052,0.068359375,-0.99609375,-0.033203125
2053,0.0576171875,-1.0009765625,-0.0341796875
2054,0.0615234375,-0.998046875,-0.0234375
2055,0.048828125,-0.998046875,-0.0361328125
2056,0.0498046875,-0.98828125,-0.0380859375
2057,0.0478515625,-0.9853515625,-0.0478515625
2058,0.046875,-0.978515625,-0.0439453125
2059,0.05078125,-0.974609375,-0.04296875
2060,0.048828125,-0.9755859375,-0.048828125
2061,0.05078125,-0.9765625,-0.0478515625
2062,0.0400390625,-0.9716796875,-0.041015625
2063,0.0361328125,-0.9599609375,-0.046875
2064,0.0224609375,-0.9521484375,-0.041015625
2065,0.021484375,-0.9521484375,-0.0361328125
2066,0.033203125,-0.9501953125,-0.0341796875
2067,0.0263671875,-0.9521484375,-0.0361328125
2068,0.02734375,-0.9521484375,-0.033203125
2069,0.025390625,-0.9638671875,-0.0244140625
2070,0.015625,-0.9677734375,-0.0224609375
2071,0.0107421875,-0.9609375,-0.015625
2072,0.0078125,-0.9482421875,-0.013671875
2073,0.0009765625,-0.951171875,-0.017578125
2074,-0.0009765625,-0.9453125,-0.015625
2075,-0.00390625,-0.947265625,-0.0205078125
2076,-0.0087890625,-0.939453125,-0.0146484375
2077,-0.0048828125,-0.939453125,-0.0185546875
2078,-0.01171875,-0.9404296875,-0.021484375
2079,-0.015625,-0.9404296875,-0.021484375
2080,-0.0087890625,-0.9423828125,-0.025390625
2081,-0.01171875,-0.9453125,-0.0234375
2082,-0.009765625,-0.943359375,-0.01953125
2083,-0.0048828125,-0.9423828125,-0.0244140625
2084,-0.0048828125,-0.9462890625,-0.0224609375
2085,-0.0029296875,-0.9423828125,-0.0224609375
2086,-0.0068359375,-0.9345703125,-0.0224609375
2087,0.0009765625,-0.9345703125,-0.0146484375
2088,-0.0009765625,-0.931640625,-0.01953125
2089,0.0048828125,-0.935546875,-0.01953125
2090,0.00390625,-0.9453125,-0.017578125
2091,0.0107421875,-0.9501953125,-0.0107421875
2092,0.00390625,-0.9541015625,-0.0048828125
2093,0.009765625,-0.958984375,-0.00390625
2094,0.009765625,-0.9775390625,-0.00390625
2095,0.01171875,-0.9794921875,0.001953125
2096,0.0146484375,-0.9775390625,-0.001953125
2097,0.013671875,-0.9873046875,-0.0048828125
2098,0.0166015625,-0.9873046875,-0.0068359375
2099,0.0107421875,-0.98828125,-0.005859375
2100,0.0126953125,-0.9892578125,-0.0029296875
2101,0.01171875,-0.986328125,0.00390625
2102,0.0087890625,-0.9873046875,0.0048828125
2103,0.0146484375,-0.98828125,0.001953125
2104,0.013671875,-0.9853515625,-0.001953125
2105,0.013671875,-0.978515625,-0.0048828125
2106,0.0107421875,-0.9765625,-0.0126953125
2107,0.0068359375,-0.97265625,-0.01171875
2108,0.0185546875,-0.9755859375,-0.0126953125
2109,0.0166015625,-0.9755859375,-0.017578125
2110,0.0234375,-0.96875,-0.0234375
2111,0.0244140625,-0.9775390625,-0.0205078125
2112,0.0244140625,-0.98046875,-0.0185546875
2113,0.03125,-0.978515625,-0.0185546875
2114,0.0439453125,-0.984375,-0.017578125
2115,0.04296875,-0.98828125,-0.009765625
2116,0.0576171875,-0.986328125,-0.01171875
2117,0.068359375,-0.9873046875,-0.0126953125
2118,0.0771484375,-0.98828125,-0.0166015625
2119,0.078125,-0.9970703125,-0.02734375
2120,0.078125,-0.9892578125,-0.01953125
2121,0.0634765625,-0.986328125,-0.01953125
2122,0.056640625,-0.984375,-0.013671875
2123,0.0517578125,-0.9638671875,-0.0166015625
2124,0.0498046875,-0.962890625,-0.0146484375
2125,0.052734375,-0.951171875,-0.0166015625
2126,0.0498046875,-0.9482421875,-0.0205078125
2127,0.0595703125,-0.9462890625,-0.0234375
2128,0.0595703125,-0.9462890625,-0.03125
2129,0.0595703125,-0.9404296875,-0.0400390625
2130,0.0625,-0.9423828125,-0.0439453125
2131,0.0712890625,-0.935546875,-0.052734375
2132,0.0732421875,-0.9345703125,-0.046875
2133,0.07421875,-0.94140625,-0.0458984375
2134,0.0478515625,-0.9453125,-0.0400390625
2135,0.0537109375,-0.9599609375,-0.021484375
2136,0.0556640625,-0.95703125,-0.0166015625
2137,0.0390625,-0.9541015625,-0.0126953125
2138,0.0244140625,-0.95703125,-0.00390625
2139,0.0126953125,-0.98046875,-0.005859375
2140,0.0107421875,-0.9794921875,0.0
2141,0.0283203125,-0.96484375,-0.0009765625
2142,0.0283203125,-0.9697265625,-0.0087890625
2143,0.041015625,-0.9755859375,-0.0068359375
2144,0.0283203125,-0.9619140625,-0.0107421875
2145,0.0244140625,-0.96484375,-0.01171875
2146,0.0263671875,-0.9609375,-0.01171875
2147,0.029296875,-0.97265625,-0.017578125
2148,0.056640625,-1.0078125,-0.013671875
2149,0.04296875,-0.9541015625,-0.009765625
2150,0.05078125,-0.97265625,-0.015625
2151,0.0556640625,-0.984375,-0.0185546875
2152,0.0478515625,-0.9853515625,-0.0224609375
2153,0.0390625,-0.9853515625,-0.0224609375
2154,0.0244140625,-0.98046875,-0.021484375
2155,0.025390625,-0.978515625,-0.0283203125
2156,0.01953125,-0.982421875,-0.033203125
2157,0.009765625,-0.9775390625,-0.0302734375
2158,0.009765625,-0.978515625,-0.0224609375
2159,-0.0048828125,-0.9677734375,-0.0224609375
2160,-0.001953125,-0.962890625,-0.0205078125
2161,0.0078125,-0.9521484375,-0.0087890625
2162,0.009765625,-0.943359375,-0.0107421875
2163,0.005859375,-0.935546875,-0.009765625
2164,0.01171875,-0.939453125,-0.0029296875
2165,0.013671875,-0.9453125,-0.0126953125
2166,0.0166015625,-0.9443359375,-0.00390625
2167,0.013671875,-0.9443359375,-0.0107421875
2168,0.01171875,-0.953125,-0.009765625
2169,0.01171875,-0.9521484375,-0.0068359375
2170,0.01171875,-0.953125,-0.0107421875
2171,0.005859375,-0.9501953125,-0.0009765625
2172,0.0068359375,-0.955078125,0.001953125
2173,0.0068359375,-0.955078125,0.0078125
2174,-0.0029296875,-0.9599609375,0.005859375
2175,0.0029296875,-0.9541015625,0.0087890625
2176,0.0068359375,-0.9482421875,0.0048828125
2177,0.0068359375,-0.953125,0.005859375
2178,0.0166015625,-0.9638671875,0.0048828125
2179,0.0205078125,-0.9580078125,0.0009765625
2180,0.0244140625,-0.9619140625,0.0029296875
2181,0.0283203125,-0.9580078125,0.0078125
2182,0.0302734375,-0.9638671875,0.0146484375
2183,0.0341796875,-0.9755859375,0.015625
2184,0.041015625,-0.978515625,0.01953125
2185,0.0380859375,-0.9775390625,0.0234375
2186,0.04296875,-0.9775390625,0.029296875
2187,0.0615234375,-0.966796875,0.0341796875
2188,0.060546875,-0.97265625,0.0302734375
2189,0.05859375,-0.95703125,0.02734375
2190,0.060546875,-0.9541015625,0.0263671875
2191,0.056640625,-0.94921875,0.01953125
2192,0.0595703125,-0.953125,0.0234375
2193,0.05078125,-0.951171875,0.021484375
2194,0.056640625,-0.9521484375,0.01953125
2195,0.0537109375,-0.953125,0.015625
2196,0.0546875,-0.951171875,0.01953125
2197,0.044921875,-0.9541015625,0.0146484375
2198,0.0478515625,-0.9521484375,0.015625
2199,0.0400390625,-0.94921875,0.015625
2200,0.0400390625,-0.9521484375,0.017578125
2201,0.0390625,-0.955078125,0.0166015625
2202,0.044921875,-0.953125,0.0263671875
2203,0.0400390625,-0.9521484375,0.0244140625
2204,0.0390625,-0.9521484375,0.0244140625
2205,0.0361328125,-0.951171875,0.0224609375
2206,0.029296875,-0.9501953125,0.029296875
2207,0.0322265625,-0.95703125,0.029296875
2208,0.03515625,-0.951171875,0.0283203125
2209,0.033203125,-0.9521484375,0.0283203125
2210,0.03125,-0.9482421875,0.029296875
2211,0.0263671875,-0.9560546875,0.0263671875
2212,0.025390625,-0.9541015625,0.03125
2213,0.033203125,-0.95703125,0.0322265625
2214,0.0361328125,-0.9599609375,0.0341796875
2215,0.0341796875,-0.955078125,0.0341796875
2216,0.029296875,-0.958984375,0.03515625
2217,0.0380859375,-0.9580078125,0.03515625
2218,0.03515625,-0.9541015625,0.033203125
2219,0.037109375,-0.955078125,0.03515625
2220,0.025390625,-0.9521484375,0.0341796875
2221,0.021484375,-0.9619140625,0.037109375
2222,0.0224609375,-0.951171875,0.0419921875
2223,0.0166015625,-0.94921875,0.0361328125
2224,0.0126953125,-0.951171875,0.03515625
2225,0.0185546875,-0.9462890625,0.033203125
2226,0.015625,-0.9482421875,0.029296875
2227,0.0126953125,-0.947265625,0.03125
2228,0.0009765625,-0.962890625,0.025390625
2229,0.0078125,-0.9736328125,0.01953125
2230,0.01171875,-0.9794921875,0.025390625
2231,0.009765625,-0.974609375,0.0341796875
2232,0.0087890625,-0.974609375,0.041015625
2233,0.0029296875,-0.974609375,0.0400390625
2234,0.0048828125,-0.96875,0.0390625
2235,0.0166015625,-0.96484375,0.0322265625
2236,0.025390625,-0.962890625,0.04296875
2237,0.0322265625,-0.955078125,0.046875
2238,0.029296875,-0.95703125,0.0517578125
2239,0.0322265625,-0.9541015625,0.0458984375
2240,0.0380859375,-0.955078125,0.0517578125
2241,0.0361328125,-0.9541015625,0.04296875
2242,0.0302734375,-0.953125,0.0400390625
2243,0.0263671875,-0.9501953125,0.0341796875
2244,0.021484375,-0.951171875,0.02734375
2245,0.0224609375,-0.951171875,0.029296875
2246,0.0283203125,-0.947265625,0.0263671875
2247,0.0205078125,-0.9521484375,0.025390625
2248,0.021484375,-0.9501953125,0.025390625
2249,0.0234375,-0.9521484375,0.0263671875
2250,0.025390625,-0.9619140625,0.033203125
2251,0.021484375,-0.9560546875,0.0341796875
2252,0.02734375,-0.9697265625,0.0400390625
2253,0.0234375,-0.9580078125,0.033203125
2254,0.025390625,-0.9560546875,0.0380859375
2255,0.0205078125,-0.96875,0.0302734375
2256,0.02734375,-0.9560546875,0.0361328125
2257,0.0234375,-0.9541015625,0.0322265625
2258,0.029296875,-0.9521484375,0.0361328125
2259,0.029296875,-0.9541015625,0.029296875
2260,0.0341796875,-0.9541015625,0.03515625
2261,0.0478515625,-0.9560546875,0.033203125
2262,0.0400390625,-0.955078125,0.0283203125
2263,0.044921875,-0.9560546875,0.029296875
2264,0.0458984375,-0.9521484375,0.0302734375
2265,0.046875,-0.9541015625,0.0283203125
2266,0.0439453125,-0.9541015625,0.029296875
2267,0.044921875,-0.9541015625,0.029296875
2268,0.048828125,-0.962890625,0.0322265625
2269,0.046875,-0.9638671875,0.0322265625
2270,0.0478515625,-0.966796875,0.0322265625
2271,0.0517578125,-0.9599609375,0.0419921875
2272,0.05078125,-0.9541015625,0.0419921875
2273,0.048828125,-0.9560546875,0.037109375
2274,0.046875,-0.9736328125,0.0322265625
2275,0.0419921875,-0.9521484375,0.0419921875
2276,0.0439453125,-0.9462890625,0.0361328125
2277,0.0390625,-0.9482421875,0.037109375
2278,0.041015625,-0.9541015625,0.0400390625
2279,0.03515625,-0.951171875,0.0380859375
2280,0.0400390625,-0.9560546875,0.03515625
2281,0.0380859375,-0.955078125,0.037109375
2282,0.0341796875,-0.9677734375,0.0419921875
2283,0.03515625,-0.962890625,0.037109375
2284,0.03125,-0.958984375,0.0341796875
2285,0.03515625,-0.955078125,0.037109375
2286,0.0390625,-0.9658203125,0.037109375
2287,0.0361328125,-0.962890625,0.0419921875
2288,0.0400390625,-0.9638671875,0.0419921875
2289,0.0400390625,-0.9755859375,0.044921875
2290,0.0341796875,-0.9736328125,0.0439453125
2291,0.037109375,-0.966796875,0.046875
2292,0.0322265625,-0.9755859375,0.0478515625
2293,0.0302734375,-0.9755859375,0.044921875
2294,0.0341796875,-0.970703125,0.03515625
2295,0.03515625,-0.97265625,0.037109375
2296,0.0400390625,-0.97265625,0.037109375
2297,0.0341796875,-0.974609375,0.0361328125
2298,0.0283203125,-0.962890625,0.03515625
2299,0.0263671875,-0.9560546875,0.04296875
2300,0.033203125,-0.9521484375,0.0361328125
2301,0.0302734375,-0.9541015625,0.033203125
2302,0.0361328125,-0.9521484375,0.037109375
2303,0.029296875,-0.9619140625,0.0400390625
2304,0.02734375,-0.955078125,0.0380859375
2305,0.0283203125,-0.953125,0.03125
2306,0.029296875,-0.9658203125,0.03515625
2307,0.0322265625,-0.97265625,0.033203125
2308,0.03125,-0.9697265625,0.0361328125
2309,0.0380859375,-0.9541015625,0.0341796875
2310,0.0361328125,-0.9697265625,0.0283203125
2311,0.0439453125,-0.96875,0.0341796875
2312,0.041015625,-0.955078125,0.03125
2313,0.0380859375,-0.9560546875,0.02734375
2314,0.0390625,-0.962890625,0.0283203125
2315,0.048828125,-0.9541015625,0.02734375
2316,0.0439453125,-0.953125,0.0283203125
2317,0.041015625,-0.9609375,0.033203125
2318,0.04296875,-0.9541015625,0.0302734375
2319,0.044921875,-0.955078125,0.033203125
2320,0.0419921875,-0.9541015625,0.0263671875
2321,0.0458984375,-0.953125,0.02734375
2322,0.041015625,-0.958984375,0.0244140625
2323,0.0458984375,-0.9619140625,0.021484375
2324,0.0439453125,-0.970703125,0.0234375
2325,0.0458984375,-0.9638671875,0.017578125
2326,0.046875,-0.9736328125,0.015625
2327,0.048828125,-0.962890625,0.01171875
2328,0.046875,-0.9658203125,0.017578125
2329,0.041015625,-0.9638671875,0.013671875
2330,0.0478515625,-0.95703125,0.013671875
2331,0.041015625,-0.9521484375,0.015625
2332,0.0390625,-0.95703125,0.01171875
2333,0.0390625,-0.9541015625,0.0126953125
2334,0.0380859375,-0.9619140625,0.0126953125
2335,0.0400390625,-0.9541015625,0.0146484375
2336,0.041015625,-0.955078125,0.0107421875
2337,0.05078125,-0.955078125,0.005859375
2338,0.048828125,-0.962890625,0.0087890625
2339,0.0439453125,-0.951171875,0.0048828125
2340,0.052734375,-0.953125,0.005859375
2341,0.044921875,-0.9541015625,0.0078125
2342,0.041015625,-0.9580078125,0.009765625
2343,0.046875,-0.9560546875,0.01171875
2344,0.0419921875,-0.9521484375,0.0126953125
2345,0.0380859375,-0.9560546875,0.0048828125
2346,0.04296875,-0.9541015625,0.0107421875
2347,0.0439453125,-0.953125,0.0107421875
2348,0.04296875,-0.9541015625,0.001953125
2349,-0.0234375,-0.994140625,-0.0244140625
2350,0.068359375,-0.9482421875,0.0224609375
2351,0.0546875,-0.9453125,-0.001953125
2352,0.0439453125,-0.955078125,0.0068359375
2353,0.03125,-0.9580078125,0.0078125
2354,0.0302734375,-0.95703125,0.0029296875
2355,0.0244140625,-0.958984375,0.0048828125
2356,0.0224609375,-0.955078125,0.001953125
2357,0.03125,-0.9541015625,0.0048828125
2358,0.02734375,-0.9541015625,0.005859375
2359,0.033203125,-0.9580078125,0.0078125
2360,0.0390625,-0.962890625,0.005859375
2361,0.025390625,-0.9482421875,-0.001953125
2362,0.037109375,-0.955078125,-0.0029296875
2363,0.0341796875,-0.955078125,0.0009765625
2364,0.0361328125,-0.9541015625,-0.0029296875
2365,0.037109375,-0.9638671875,0.0029296875
2366,0.041015625,-0.953125,-0.0048828125
2367,0.041015625,-0.962890625,-0.00390625
2368,0.0439453125,-0.95703125,-0.005859375
2369,0.0390625,-0.95703125,-0.0029296875
2370,0.0439453125,-0.96484375,0.0
2371,0.0458984375,-0.9638671875,0.00390625
2372,0.0419921875,-0.966796875,0.01171875
2373,0.0439453125,-0.974609375,0.0078125
2374,0.0400390625,-0.9697265625,0.0068359375
2375,0.0390625,-0.9765625,0.013671875
2376,0.0302734375,-0.97265625,0.0078125
2377,0.0400390625,-0.9560546875,0.0048828125
2378,0.0361328125,-0.9541015625,0.00390625
2379,0.0390625,-0.953125,0.0068359375
2380,0.0390625,-0.951171875,0.0048828125
2381,0.0439453125,-0.953125,0.01171875
2382,0.04296875,-0.9560546875,0.0107421875
2383,0.0419921875,-0.9560546875,0.01171875
2384,0.044921875,-0.955078125,0.0087890625
2385,0.0390625,-0.94921875,0.0107421875
2386,0.04296875,-0.953125,0.0087890625
2387,0.0439453125,-0.9482421875,0.005859375
2388,0.04296875,-0.9541015625,0.0078125
2389,0.0478515625,-0.94921875,0.00390625
2390,0.044921875,-0.9609375,0.00390625
2391,0.0439453125,-0.958984375,0.0
2392,0.0400390625,-0.9560546875,0.0048828125
2393,0.0439453125,-0.9541015625,0.0
2394,0.04296875,-0.95703125,0.00390625
2395,0.044921875,-0.955078125,0.0048828125
2396,0.041015625,-0.9638671875,0.0009765625
2397,0.0380859375,-0.9560546875,0.00390625
2398,0.0361328125,-0.9580078125,-0.001953125
2399,0.0419921875,-0.9580078125,0.0029296875
