,accelerometerAccelerationX(G),accelerometerAccelerationY(G),accelerometerAccelerationZ(G)
0,-0.0537109375,-0.990234375,-0.046875
1,-0.0556640625,-0.9951171875,-0.0517578125
2,-0.0576171875,-0.994140625,-0.0546875
3,-0.0546875,-0.994140625,-0.05078125
4,-0.064453125,-0.9970703125,-0.052734375
5,-0.0595703125,-0.9853515625,-0.05078125
6,-0.064453125,-0.99609375,-0.0537109375
7,-0.0634765625,-0.98828125,-0.048828125
8,-0.0517578125,-0.9873046875,-0.0517578125
9,-0.056640625,-0.9892578125,-0.0458984375
10,-0.056640625,-0.994140625,-0.0390625
11,-0.052734375,-0.994140625,-0.0400390625
12,-0.056640625,-0.998046875,-0.0439453125
13,-0.0576171875,-0.9970703125,-0.0458984375
14,-0.0546875,-0.9912109375,-0.0517578125
15,-0.05859375,-0.99609375,-0.05859375
16,-0.0556640625,-0.9892578125,-0.05859375
17,-0.0546875,-0.9892578125,-0.056640625
18,-0.0556640625,-0.9921875,-0.052734375
19,-0.056640625,-0.98828125,-0.052734375
20,-0.0556640625,-0.9833984375,-0.0458984375
21,-0.052734375,-0.9912109375,-0.0478515625
22,-0.05859375,-0.99609375,-0.0478515625
23,-0.056640625,-0.9931640625,-0.048828125
24,-0.0615234375,-0.986328125,-0.046875
25,-0.0537109375,-0.9892578125,-0.05078125
26,-0.0537109375,-0.9931640625,-0.044921875
27,-0.0576171875,-0.9970703125,-0.0517578125
28,-0.0556640625,-1.0009765625,-0.048828125
29,-0.0556640625,-1.0,-0.044921875
30,-0.0595703125,-0.9970703125,-0.044921875
31,-0.05078125,-0.9912109375,-0.05078125
32,-0.0546875,-0.9921875,-0.0498046875
33,-0.0576171875,-0.990234375,-0.052734375
34,-0.0595703125,-0.9853515625,-0.048828125
35,-0.0546875,-0.9833984375,-0.0458984375
36,-0.056640625,-0.990234375,-0.0537109375
37,-0.0576171875,-0.9892578125,-0.0498046875
38,-0.05859375,-0.9912109375,-0.0517578125
39,-0.060546875,-0.9912109375,-0.052734375
40,-0.0576171875,-0.9921875,-0.0576171875
41,-0.0546875,-0.9931640625,-0.0517578125
42,-0.0595703125,-0.9912109375,-0.0498046875
43,-0.0556640625,-0.99609375,-0.05078125
44,-0.060546875,-0.9892578125,-0.0517578125
45,-0.060546875,-0.9912109375,-0.056640625
46,-0.0537109375,-0.9833984375,-0.05859375
47,-0.056640625,-0.984375,-0.0556640625
48,-0.056640625,-0.9853515625,-0.052734375
49,-0.0576171875,-0.99609375,-0.0546875
50,-0.0595703125,-0.986328125,-0.0537109375
51,-0.0576171875,-0.9853515625,-0.0517578125
52,-0.0576171875,-0.990234375,-0.0478515625
53,-0.0576171875,-0.9853515625,-0.0498046875
54,-0.060546875,-0.986328125,-0.048828125
55,-0.060546875,-0.986328125,-0.0458984375
56,-0.056640625,-0.9853515625,-0.046875
57,-0.056640625,-0.9853515625,-0.0390625
58,-0.0546875,-0.9833984375,-0.048828125
59,-0.0537109375,-0.9833984375,-0.04296875
60,-0.0458984375,-0.9853515625,-0.046875
61,-0.0517578125,-0.9833984375,-0.05078125
62,-0.0498046875,-0.984375,-0.048828125
63,-0.0537109375,-0.984375,-0.044921875
64,-0.0498046875,-0.9892578125,-0.0458984375
65,-0.044921875,-0.9892578125,-0.0458984375
66,-0.048828125,-0.9892578125,-0.0458984375
67,-0.0458984375,-0.99609375,-0.0478515625
68,-0.048828125,-0.9912109375,-0.0498046875
69,-0.052734375,-0.99609375,-0.048828125
70,-0.0556640625,-0.994140625,-0.052734375
71,-0.052734375,-1.0,-0.05078125
72,-0.056640625,-0.9990234375,-0.0517578125
73,-0.0537109375,-0.998046875,-0.05078125
74,-0.0517578125,-1.0,-0.048828125
75,-0.0546875,-0.998046875,-0.0537109375
76,-0.0595703125,-1.0,-0.048828125
77,-0.05859375,-0.990234375,-0.0517578125
78,-0.0576171875,-0.998046875,-0.052734375
79,-0.05859375,-0.9931640625,-0.0537109375
80,-0.0625,-0.9921875,-0.0537109375
81,-0.064453125,-0.9931640625,-0.0576171875
82,-0.06640625,-0.99609375,-0.0537109375
83,-0.068359375,-0.9970703125,-0.0517578125
84,-0.0693359375,-0.9931640625,-0.0546875
85,-0.0703125,-0.9921875,-0.0576171875
86,-0.0634765625,-0.9951171875,-0.05859375
87,-0.0625,-0.9921875,-0.046875
88,-0.0693359375,-0.99609375,-0.0537109375
89,-0.0634765625,-0.994140625,-0.05859375
90,-0.0654296875,-0.990234375,-0.0537109375
91,-0.068359375,-0.9931640625,-0.052734375
92,-0.0673828125,-0.9931640625,-0.0546875
93,-0.06640625,-0.994140625,-0.052734375
94,-0.064453125,-0.9921875,-0.0517578125
95,-0.0703125,-0.994140625,-0.0517578125
96,-0.0654296875,-0.9912109375,-0.0556640625
97,-0.0615234375,-0.994140625,-0.0517578125
98,-0.064453125,-0.98828125,-0.05078125
99,-0.0634765625,-0.9951171875,-0.0546875
100,-0.0634765625,-0.9951171875,-0.0556640625
101,-0.0673828125,-0.9912109375,-0.0517578125
102,-0.068359375,-0.984375,-0.052734375
103,-0.060546875,-0.9873046875,-0.052734375
104,-0.0595703125,-0.994140625,-0.0517578125
105,-0.060546875,-0.9853515625,-0.0517578125
106,-0.0654296875,-0.990234375,-0.0498046875
107,-0.064453125,-0.982421875,-0.0517578125
108,-0.0595703125,-0.9873046875,-0.056640625
109,-0.0625,-0.9921875,-0.0478515625
110,-0.0615234375,-0.9892578125,-0.052734375
111,-0.0595703125,-0.990234375,-0.0498046875
112,-0.060546875,-0.9873046875,-0.0537109375
113,-0.0576171875,-0.9853515625,-0.05078125
114,-0.0556640625,-0.990234375,-0.0537109375
115,-0.0634765625,-0.990234375,-0.048828125
116,-0.0625,-0.9833984375,-0.0517578125
117,-0.0595703125,-0.9873046875,-0.048828125
118,-0.05859375,-0.98828125,-0.044921875
119,-0.0595703125,-0.986328125,-0.0537109375
120,-0.056640625,-0.9931640625,-0.056640625
121,-0.0556640625,-0.99609375,-0.05078125
122,-0.060546875,-0.9951171875,-0.048828125
123,-0.0595703125,-0.9931640625,-0.0498046875
124,-0.060546875,-0.9931640625,-0.0517578125
125,-0.05859375,-0.9921875,-0.0537109375
126,-0.0595703125,-0.98828125,-0.0478515625
127,-0.056640625,-0.986328125,-0.0537109375
128,-0.0556640625,-0.98828125,-0.0498046875
129,-0.056640625,-0.9931640625,-0.0537109375
130,-0.05859375,-0.9931640625,-0.05078125
131,-0.0556640625,-0.9951171875,-0.0498046875
132,-0.0556640625,-0.9892578125,-0.0478515625
133,-0.0546875,-0.99609375,-0.0400390625
134,-0.0556640625,-0.9912109375,-0.0498046875
135,-0.0625,-0.9921875,-0.048828125
136,-0.0595703125,-0.9951171875,-0.046875
137,-0.0595703125,-0.994140625,-0.0546875
138,-0.0576171875,-0.994140625,-0.0517578125
139,-0.0595703125,-0.9921875,-0.0546875
140,-0.060546875,-0.99609375,-0.0576171875
141,-0.05859375,-0.99609375,-0.056640625
142,-0.0654296875,-0.9921875,-0.052734375
143,-0.0576171875,-0.9951171875,-0.0537109375
144,-0.0576171875,-0.9921875,-0.052734375
145,-0.0556640625,-0.98828125,-0.046875
146,-0.0517578125,-0.998046875,-0.0498046875
147,-0.0576171875,-0.9990234375,-0.0419921875
148,-0.0576171875,-0.99609375,-0.05078125
149,-0.0546875,-0.9931640625,-0.056640625
150,-0.0546875,-0.9912109375,-0.06640625
151,-0.0537109375,-0.998046875,-0.064453125
152,-0.0517578125,-0.994140625,-0.064453125
153,-0.0478515625,-0.998046875,-0.0576171875
154,-0.05078125,-0.9951171875,-0.05859375
155,-0.0537109375,-0.99609375,-0.0537109375
156,-0.0517578125,-0.9931640625,-0.0546875
157,-0.0546875,-0.994140625,-0.05859375
158,-0.0546875,-0.9931640625,-0.05078125
159,-0.0517578125,-0.990234375,-0.0517578125
160,-0.046875,-0.9912109375,-0.0478515625
161,-0.0458984375,-0.9921875,-0.052734375
162,-0.052734375,-0.9951171875,-0.0478515625
163,-0.0517578125,-0.9892578125,-0.0498046875
164,-0.05078125,-0.9921875,-0.0478515625
165,-0.05078125,-0.984375,-0.0537109375
166,-0.0537109375,-0.9931640625,-0.05078125
167,-0.052734375,-0.9892578125,-0.0556640625
168,-0.0517578125,-0.99609375,-0.0556640625
169,-0.0517578125,-0.994140625,-0.0546875
170,-0.0478515625,-0.9921875,-0.0517578125
171,-0.052734375,-0.9951171875,-0.0556640625
172,-0.0576171875,-0.9951171875,-0.0556640625
173,-0.0546875,-0.994140625,-0.0546875
174,-0.0537109375,-0.9921875,-0.0517578125
175,-0.0546875,-0.994140625,-0.0546875
176,-0.0537109375,-0.9892578125,-0.0546875
177,-0.0556640625,-0.99609375,-0.0556640625
178,-0.0546875,-0.9921875,-0.0634765625
179,-0.0576171875,-0.98828125,-0.0537109375
180,-0.0537109375,-0.9921875,-0.0517578125
181,-0.0556640625,-0.9921875,-0.056640625
182,-0.0595703125,-0.9951171875,-0.0546875
183,-0.0576171875,-0.9921875,-0.05078125
184,-0.060546875,-0.990234375,-0.0546875
185,-0.0625,-0.9912109375,-0.0576171875
186,-0.0634765625,-0.990234375,-0.0537109375
187,-0.0595703125,-0.9892578125,-0.0595703125
188,-0.0556640625,-0.9892578125,-0.056640625
189,-0.060546875,-0.9853515625,-0.0537109375
190,-0.0654296875,-0.98828125,-0.0615234375
191,-0.064453125,-0.98828125,-0.0576171875
192,-0.060546875,-0.986328125,-0.0517578125
193,-0.0634765625,-0.98828125,-0.056640625
194,-0.0654296875,-0.9873046875,-0.0517578125
195,-0.068359375,-0.9833984375,-0.0546875
196,-0.0634765625,-0.9833984375,-0.0556640625
197,-0.0693359375,-0.9912109375,-0.052734375
198,-0.0673828125,-0.986328125,-0.0546875
199,-0.0634765625,-0.98828125,-0.056640625
200,-0.064453125,-0.9853515625,-0.05859375
201,-0.0595703125,-0.986328125,-0.0556640625
202,-0.0625,-0.9912109375,-0.05859375
203,-0.0673828125,-0.990234375,-0.05859375
204,-0.068359375,-0.9921875,-0.0556640625
205,-0.0634765625,-0.990234375,-0.05859375
206,-0.0654296875,-0.9921875,-0.0556640625
207,-0.0595703125,-0.990234375,-0.056640625
208,-0.0654296875,-0.994140625,-0.0576171875
209,-0.06640625,-0.9892578125,-0.05859375
210,-0.0673828125,-0.9931640625,-0.05859375
211,-0.0615234375,-0.9931640625,-0.052734375
212,-0.064453125,-0.9921875,-0.0634765625
213,-0.064453125,-0.990234375,-0.0576171875
214,-0.0654296875,-0.986328125,-0.0576171875
215,-0.064453125,-0.990234375,-0.056640625
216,-0.0634765625,-0.9892578125,-0.056640625
217,-0.0673828125,-0.984375,-0.0556640625
218,-0.0634765625,-0.9892578125,-0.0576171875
219,-0.068359375,-0.990234375,-0.0537109375
220,-0.0634765625,-0.9853515625,-0.056640625
221,-0.0673828125,-0.98828125,-0.0517578125
222,-0.05859375,-0.994140625,-0.0537109375
223,-0.0625,-0.9892578125,-0.060546875
224,-0.0625,-0.9892578125,-0.0595703125
225,-0.0625,-0.990234375,-0.0546875
226,-0.0634765625,-0.98828125,-0.056640625
227,-0.0595703125,-0.98828125,-0.0556640625
228,-0.0615234375,-0.9833984375,-0.0517578125
229,-0.060546875,-0.9892578125,-0.052734375
230,-0.0615234375,-0.990234375,-0.0546875
231,-0.0615234375,-0.9892578125,-0.052734375
232,-0.060546875,-0.9912109375,-0.0595703125
233,-0.064453125,-0.9912109375,-0.056640625
234,-0.0654296875,-0.9853515625,-0.0537109375
235,-0.0634765625,-0.990234375,-0.0546875
236,-0.0625,-0.9853515625,-0.05078125
237,-0.05859375,-0.9873046875,-0.05078125
238,-0.056640625,-0.9892578125,-0.0537109375
239,-0.0732421875,-0.994140625,-0.0498046875
240,-0.0654296875,-0.9853515625,-0.05078125
241,-0.07421875,-0.98828125,-0.056640625
242,-0.0654296875,-0.9873046875,-0.0595703125
243,-0.0634765625,-0.9912109375,-0.0546875
244,-0.06640625,-0.9892578125,-0.0556640625
245,-0.06640625,-0.9912109375,-0.052734375
246,-0.072265625,-0.9951171875,-0.0546875
247,-0.0703125,-0.9951171875,-0.052734375
248,-0.0693359375,-1.0009765625,-0.0498046875
249,-0.0703125,-0.9892578125,-0.05078125
250,-0.068359375,-0.98828125,-0.0498046875
251,-0.0703125,-0.9912109375,-0.0556640625
252,-0.0693359375,-0.9921875,-0.0517578125
253,-0.07421875,-0.9931640625,-0.048828125
254,-0.060546875,-0.99609375,-0.0537109375
255,-0.0625,-0.9951171875,-0.0537109375
256,-0.0654296875,-0.990234375,-0.05078125
257,-0.0673828125,-0.9873046875,-0.0537109375
258,-0.060546875,-0.994140625,-0.0458984375
259,-0.0634765625,-0.9931640625,-0.0517578125
260,-0.0595703125,-0.9912109375,-0.048828125
261,-0.0634765625,-0.994140625,-0.0546875
262,-0.060546875,-0.9970703125,-0.052734375
263,-0.0615234375,-0.990234375,-0.0556640625
264,-0.0595703125,-0.9931640625,-0.052734375
265,-0.0556640625,-0.98828125,-0.052734375
266,-0.064453125,-0.9921875,-0.0498046875
267,-0.0625,-0.9931640625,-0.046875
268,-0.0673828125,-0.9921875,-0.04296875
269,-0.0576171875,-0.9912109375,-0.0478515625
270,-0.056640625,-0.98828125,-0.0478515625
271,-0.05859375,-0.9912109375,-0.044921875
272,-0.0537109375,-0.98828125,-0.0517578125
273,-0.05859375,-0.9970703125,-0.048828125
274,-0.0556640625,-0.990234375,-0.05078125
275,-0.0556640625,-0.9873046875,-0.0537109375
276,-0.0615234375,-0.994140625,-0.0498046875
277,-0.0595703125,-0.986328125,-0.0556640625
278,-0.06640625,-0.9931640625,-0.0546875
279,-0.0595703125,-0.994140625,-0.0517578125
280,-0.060546875,-0.9853515625,-0.052734375
281,-0.0634765625,-0.9833984375,-0.0517578125
282,-0.056640625,-0.9970703125,-0.048828125
283,-0.060546875,-0.994140625,-0.044921875
284,-0.0615234375,-0.994140625,-0.046875
285,-0.0615234375,-0.9931640625,-0.0546875
286,-0.05859375,-0.994140625,-0.0625
287,-0.0673828125,-0.9814453125,-0.0546875
288,-0.0615234375,-0.9892578125,-0.0517578125
289,-0.0595703125,-0.9892578125,-0.052734375
290,-0.0595703125,-0.9951171875,-0.0546875
291,-0.05859375,-0.9921875,-0.05078125
292,-0.0576171875,-0.9921875,-0.0498046875
293,-0.05859375,-0.9892578125,-0.0458984375
294,-0.0595703125,-0.9912109375,-0.048828125
295,-0.0625,-0.990234375,-0.0517578125
296,-0.068359375,-0.990234375,-0.046875
297,-0.0751953125,-0.9833984375,-0.044921875
298,-0.06640625,-0.986328125,-0.0458984375
299,-0.0732421875,-0.9951171875,-0.0556640625
300,-0.072265625,-0.98828125,-0.0546875
301,-0.0732421875,-0.9892578125,-0.0576171875
302,-0.0615234375,-0.9873046875,-0.0634765625
303,-0.0615234375,-0.98828125,-0.0595703125
304,-0.0546875,-0.9853515625,-0.060546875
305,-0.056640625,-0.984375,-0.060546875
306,-0.056640625,-0.9873046875,-0.0556640625
307,-0.0556640625,-0.98828125,-0.0546875
308,-0.0576171875,-0.986328125,-0.0498046875
309,-0.0546875,-0.98828125,-0.0595703125
310,-0.052734375,-0.9912109375,-0.0595703125
311,-0.0576171875,-0.9951171875,-0.0576171875
312,-0.0625,-0.9970703125,-0.0634765625
313,-0.0625,-0.994140625,-0.0634765625
314,-0.0576171875,-1.0009765625,-0.0634765625
315,-0.068359375,-0.998046875,-0.0625
316,-0.0615234375,-0.998046875,-0.060546875
317,-0.05859375,-0.99609375,-0.0625
318,-0.056640625,-0.9912109375,-0.0576171875
319,-0.0576171875,-0.9921875,-0.0595703125
320,-0.056640625,-0.9931640625,-0.056640625
321,-0.0546875,-0.9931640625,-0.0556640625
322,-0.056640625,-0.9912109375,-0.05078125
323,-0.05859375,-0.98828125,-0.056640625
324,-0.05859375,-0.9921875,-0.0546875
325,-0.0634765625,-0.9921875,-0.0537109375
326,-0.060546875,-0.9912109375,-0.0595703125
327,-0.0625,-0.9833984375,-0.0576171875
328,-0.0673828125,-0.9873046875,-0.05859375
329,-0.0634765625,-0.984375,-0.0576171875
330,-0.0576171875,-0.9853515625,-0.060546875
331,-0.056640625,-0.984375,-0.0546875
332,-0.0576171875,-0.9853515625,-0.0546875
333,-0.0537109375,-0.9853515625,-0.0576171875
334,-0.056640625,-0.9873046875,-0.0556640625
335,-0.056640625,-0.9892578125,-0.060546875
336,-0.0556640625,-0.9931640625,-0.0556640625
337,-0.052734375,-0.9921875,-0.0556640625
338,-0.0556640625,-0.9931640625,-0.0556640625
339,-0.056640625,-0.9951171875,-0.0546875
340,-0.056640625,-0.9931640625,-0.060546875
341,-0.05859375,-0.994140625,-0.056640625
342,-0.0615234375,-0.9970703125,-0.0615234375
343,-0.060546875,-0.9892578125,-0.052734375
344,-0.064453125,-0.998046875,-0.056640625
345,-0.0595703125,-0.9931640625,-0.0517578125
346,-0.0595703125,-0.9912109375,-0.05859375
347,-0.0634765625,-0.994140625,-0.0537109375
348,-0.0625,-0.986328125,-0.0517578125
349,-0.0625,-0.990234375,-0.05078125
350,-0.0673828125,-0.986328125,-0.052734375
351,-0.0625,-0.978515625,-0.0546875
352,-0.0654296875,-0.9853515625,-0.05859375
353,-0.05859375,-0.986328125,-0.060546875
354,-0.068359375,-0.9833984375,-0.0537109375
355,-0.0654296875,-0.984375,-0.0546875
356,-0.060546875,-0.982421875,-0.0556640625
357,-0.0615234375,-0.9873046875,-0.0537109375
358,-0.06640625,-0.9892578125,-0.052734375
359,-0.06640625,-0.9853515625,-0.0546875
360,-0.06640625,-0.98828125,-0.052734375
361,-0.064453125,-0.9892578125,-0.0556640625
362,-0.06640625,-0.990234375,-0.0576171875
363,-0.06640625,-0.9892578125,-0.0546875
364,-0.0751953125,-0.9931640625,-0.0576171875
365,-0.0693359375,-0.99609375,-0.05078125
366,-0.0712890625,-0.990234375,-0.048828125
367,-0.064453125,-0.9951171875,-0.0517578125
368,-0.072265625,-0.9970703125,-0.056640625
369,-0.0693359375,-0.98828125,-0.0537109375
370,-0.0732421875,-0.98828125,-0.048828125
371,-0.0634765625,-0.9873046875,-0.0517578125
372,-0.064453125,-0.98828125,-0.0556640625
373,-0.0732421875,-0.9892578125,-0.048828125
374,-0.0615234375,-0.986328125,-0.0537109375
375,-0.064453125,-0.990234375,-0.0498046875
376,-0.06640625,-0.9931640625,-0.052734375
377,-0.0673828125,-0.99609375,-0.0478515625
378,-0.0634765625,-0.9912109375,-0.0478515625
379,-0.0673828125,-0.9931640625,-0.0546875
380,-0.0654296875,-0.990234375,-0.0546875
381,-0.064453125,-0.98828125,-0.0517578125
382,-0.064453125,-0.9833984375,-0.05078125
383,-0.064453125,-0.9892578125,-0.048828125
384,-0.0615234375,-0.9853515625,-0.0439453125
385,-0.0693359375,-0.9931640625,-0.048828125
386,-0.05859375,-0.9912109375,-0.0517578125
387,-0.060546875,-0.9912109375,-0.05078125
388,-0.064453125,-0.9931640625,-0.0498046875
389,-0.0654296875,-0.9951171875,-0.0537109375
390,-0.0615234375,-0.9892578125,-0.0546875
391,-0.0625,-0.9931640625,-0.05078125
392,-0.064453125,-0.9912109375,-0.0498046875
393,-0.056640625,-0.9931640625,-0.0478515625
394,-0.0615234375,-0.9931640625,-0.048828125
395,-0.0673828125,-0.9892578125,-0.05078125
396,-0.0625,-0.9951171875,-0.044921875
397,-0.060546875,-0.9931640625,-0.05078125
398,-0.0673828125,-0.990234375,-0.05078125
399,-0.0576171875,-0.9892578125,-0.05078125
400,-0.064453125,-0.9921875,-0.0419921875
401,-0.0654296875,-0.994140625,-0.05078125
402,-0.0654296875,-0.9873046875,-0.048828125
403,-0.0673828125,-0.9892578125,-0.0439453125
404,-0.05859375,-0.98828125,-0.0498046875
405,-0.0654296875,-0.9833984375,-0.048828125
406,-0.0703125,-0.98046875,-0.0537109375
407,-0.064453125,-0.986328125,-0.046875
408,-0.0673828125,-0.9892578125,-0.052734375
409,-0.0654296875,-0.98828125,-0.048828125
410,-0.0654296875,-0.9892578125,-0.048828125
411,-0.0673828125,-0.9912109375,-0.052734375
412,-0.0712890625,-0.9892578125,-0.0478515625
413,-0.068359375,-0.9921875,-0.0478515625
414,-0.064453125,-0.9853515625,-0.05078125
415,-0.0625,-0.990234375,-0.0498046875
416,-0.068359375,-0.9873046875,-0.0537109375
417,-0.0634765625,-0.98828125,-0.048828125
418,-0.0595703125,-0.9892578125,-0.044921875
419,-0.056640625,-0.99609375,-0.046875
420,-0.056640625,-0.9990234375,-0.0478515625
421,-0.0634765625,-0.994140625,-0.052734375
422,-0.056640625,-0.994140625,-0.052734375
423,-0.056640625,-0.99609375,-0.0537109375
424,-0.0546875,-0.9951171875,-0.0537109375
425,-0.056640625,-0.990234375,-0.0537109375
426,-0.0595703125,-0.9970703125,-0.052734375
427,-0.0576171875,-0.994140625,-0.0498046875
428,-0.0556640625,-0.990234375,-0.05078125
429,-0.0625,-0.99609375,-0.0458984375
430,-0.05859375,-0.990234375,-0.05078125
431,-0.060546875,-0.99609375,-0.046875
432,-0.05859375,-0.9873046875,-0.0439453125
433,-0.0634765625,-0.9951171875,-0.048828125
434,-0.0556640625,-0.98828125,-0.044921875
435,-0.0576171875,-0.9951171875,-0.044921875
436,-0.05859375,-0.9912109375,-0.04296875
437,-0.056640625,-0.98828125,-0.0439453125
438,-0.056640625,-0.990234375,-0.048828125
439,-0.05859375,-0.9892578125,-0.048828125
440,-0.0537109375,-0.984375,-0.044921875
441,-0.05859375,-0.994140625,-0.046875
442,-0.0556640625,-0.994140625,-0.0517578125
443,-0.05859375,-0.9931640625,-0.0439453125
444,-0.0595703125,-0.9921875,-0.0517578125
445,-0.0654296875,-0.9892578125,-0.05078125
446,-0.064453125,-0.9931640625,-0.0478515625
447,-0.060546875,-0.990234375,-0.0546875
448,-0.0576171875,-0.9951171875,-0.0478515625
449,-0.056640625,-0.9912109375,-0.044921875
450,-0.06640625,-0.9951171875,-0.0498046875
451,-0.060546875,-0.9931640625,-0.052734375
452,-0.0595703125,-0.9921875,-0.0498046875
453,-0.0634765625,-0.9921875,-0.0517578125
454,-0.060546875,-0.990234375,-0.048828125
455,-0.0654296875,-0.9931640625,-0.05078125
456,-0.060546875,-0.9931640625,-0.044921875
457,-0.0595703125,-0.9892578125,-0.046875
458,-0.0673828125,-0.9951171875,-0.0517578125
459,-0.0654296875,-0.9951171875,-0.048828125
460,-0.060546875,-0.9912109375,-0.0537109375
461,-0.056640625,-0.9892578125,-0.052734375
462,-0.0634765625,-0.9951171875,-0.0537109375
463,-0.0595703125,-0.994140625,-0.0478515625
464,-0.0615234375,-0.9921875,-0.046875
465,-0.060546875,-0.9873046875,-0.0478515625
466,-0.060546875,-0.990234375,-0.044921875
467,-0.0595703125,-0.9931640625,-0.048828125
468,-0.0615234375,-0.9912109375,-0.046875
469,-0.0556640625,-0.990234375,-0.048828125
470,-0.0625,-0.9921875,-0.046875
471,-0.0615234375,-0.99609375,-0.0458984375
472,-0.0595703125,-0.98828125,-0.0498046875
473,-0.0576171875,-0.9912109375,-0.052734375
474,-0.0634765625,-0.98828125,-0.052734375
475,-0.064453125,-0.9873046875,-0.048828125
476,-0.05859375,-0.98828125,-0.0517578125
477,-0.060546875,-0.9892578125,-0.044921875
478,-0.0576171875,-0.98828125,-0.0517578125
479,-0.056640625,-0.986328125,-0.0458984375
480,-0.0615234375,-0.9912109375,-0.0498046875
481,-0.0546875,-0.9873046875,-0.0498046875
482,-0.0537109375,-0.994140625,-0.046875
483,-0.0634765625,-0.9873046875,-0.05078125
484,-0.060546875,-0.9892578125,-0.052734375
485,-0.0634765625,-0.9912109375,-0.0478515625
486,-0.0654296875,-0.986328125,-0.0478515625
487,-0.05859375,-0.9892578125,-0.046875
488,-0.0595703125,-0.9873046875,-0.046875
489,-0.0595703125,-0.9912109375,-0.044921875
490,-0.0615234375,-0.9931640625,-0.046875
491,-0.056640625,-0.986328125,-0.0498046875
492,-0.0576171875,-0.994140625,-0.0517578125
493,-0.0634765625,-0.9921875,-0.052734375
494,-0.0625,-0.990234375,-0.0478515625
495,-0.06640625,-0.9892578125,-0.052734375
496,-0.0615234375,-0.994140625,-0.05078125
497,-0.0634765625,-0.990234375,-0.046875
498,-0.0703125,-0.9970703125,-0.046875
499,-0.068359375,-0.990234375,-0.052734375
500,-0.064453125,-0.9921875,-0.0478515625
501,-0.0595703125,-0.9931640625,-0.0517578125
502,-0.06640625,-0.990234375,-0.05078125
503,-0.068359375,-0.9921875,-0.052734375
504,-0.0634765625,-0.9873046875,-0.05078125
505,-0.0654296875,-0.9853515625,-0.0537109375
506,-0.0576171875,-0.990234375,-0.05078125
507,-0.0595703125,-0.98828125,-0.0458984375
508,-0.060546875,-0.990234375,-0.0498046875
509,-0.0615234375,-0.9931640625,-0.0478515625
510,-0.0634765625,-0.99609375,-0.0478515625
511,-0.0625,-0.98828125,-0.0517578125
512,-0.064453125,-0.9912109375,-0.0478515625
513,-0.0634765625,-0.9912109375,-0.0498046875
514,-0.0595703125,-0.9873046875,-0.052734375
515,-0.0654296875,-0.9921875,-0.04296875
516,-0.0703125,-0.9873046875,-0.0498046875
517,-0.068359375,-0.9921875,-0.05078125
518,-0.0673828125,-0.994140625,-0.048828125
519,-0.060546875,-0.9951171875,-0.0517578125
520,-0.064453125,-0.990234375,-0.044921875
521,-0.0625,-0.986328125,-0.048828125
522,-0.0615234375,-0.9931640625,-0.0458984375
523,-0.064453125,-0.990234375,-0.046875
524,-0.05859375,-0.9970703125,-0.0498046875
525,-0.068359375,-0.990234375,-0.0478515625
526,-0.0595703125,-0.9912109375,-0.048828125
527,-0.0634765625,-0.9931640625,-0.0517578125
528,-0.064453125,-0.98828125,-0.04296875
529,-0.0693359375,-0.9892578125,-0.046875
530,-0.0654296875,-0.98828125,-0.0498046875
531,-0.0634765625,-0.9921875,-0.0458984375
532,-0.0673828125,-0.9912109375,-0.0458984375
533,-0.0625,-0.9931640625,-0.04296875
534,-0.0615234375,-0.9912109375,-0.046875
535,-0.0625,-0.9951171875,-0.044921875
536,-0.068359375,-0.99609375,-0.041015625
537,-0.0654296875,-0.9931640625,-0.048828125
538,-0.0595703125,-0.9970703125,-0.0458984375
539,-0.064453125,-0.994140625,-0.048828125
540,-0.0546875,-0.994140625,-0.0458984375
541,-0.0625,-0.9931640625,-0.0478515625
542,-0.0673828125,-0.994140625,-0.044921875
543,-0.064453125,-0.98828125,-0.0419921875
544,-0.060546875,-0.9892578125,-0.048828125
545,-0.060546875,-0.9970703125,-0.0439453125
546,-0.0576171875,-0.9912109375,-0.0458984375
547,-0.064453125,-0.998046875,-0.044921875
548,-0.0712890625,-0.994140625,-0.0419921875
549,-0.0654296875,-0.9912109375,-0.048828125
550,-0.068359375,-0.9912109375,-0.046875
551,-0.0634765625,-0.99609375,-0.046875
552,-0.0625,-0.9912109375,-0.046875
553,-0.060546875,-0.9931640625,-0.0498046875
554,-0.05859375,-0.9921875,-0.0390625
555,-0.06640625,-0.986328125,-0.048828125
556,-0.0615234375,-0.99609375,-0.05078125
557,-0.064453125,-0.9921875,-0.04296875
558,-0.0595703125,-0.986328125,-0.044921875
559,-0.0654296875,-0.98828125,-0.0439453125
560,-0.064453125,-0.9921875,-0.0400390625
561,-0.0576171875,-0.9931640625,-0.0419921875
562,-0.0595703125,-0.9970703125,-0.0517578125
563,-0.0556640625,-0.9951171875,-0.0537109375
564,-0.0546875,-0.9951171875,-0.0537109375
565,-0.0556640625,-0.9892578125,-0.052734375
566,-0.0546875,-0.994140625,-0.0419921875
567,-0.0546875,-0.994140625,-0.0498046875
568,-0.0595703125,-0.9912109375,-0.0458984375
569,-0.0546875,-0.9951171875,-0.04296875
570,-0.0546875,-0.9921875,-0.04296875
571,-0.0576171875,-0.99609375,-0.05078125
572,-0.0595703125,-0.9970703125,-0.041015625
573,-0.0595703125,-0.9892578125,-0.0439453125
574,-0.0634765625,-0.9921875,-0.0419921875
575,-0.060546875,-0.9921875,-0.0380859375
576,-0.064453125,-0.986328125,-0.0419921875
577,-0.0595703125,-0.9892578125,-0.0439453125
578,-0.0576171875,-0.9931640625,-0.046875
579,-0.056640625,-0.9912109375,-0.0458984375
580,-0.0615234375,-0.9921875,-0.0419921875
581,-0.0595703125,-0.9912109375,-0.04296875
582,-0.056640625,-0.99609375,-0.0439453125
583,-0.0595703125,-0.99609375,-0.0498046875
584,-0.068359375,-0.99609375,-0.046875
585,-0.060546875,-0.9921875,-0.046875
586,-0.064453125,-0.9921875,-0.0498046875
587,-0.0595703125,-0.98828125,-0.052734375
588,-0.064453125,-0.994140625,-0.048828125
589,-0.0712890625,-0.9892578125,-0.0498046875
590,-0.0634765625,-0.9921875,-0.046875
591,-0.064453125,-0.994140625,-0.0576171875
592,-0.05859375,-0.9912109375,-0.0517578125
593,-0.0576171875,-0.98828125,-0.05078125
594,-0.0654296875,-0.9931640625,-0.052734375
595,-0.0576171875,-0.98828125,-0.046875
596,-0.060546875,-0.9931640625,-0.0517578125
597,-0.0615234375,-0.9892578125,-0.0419921875
598,-0.0625,-0.986328125,-0.0517578125
599,-0.0634765625,-0.9912109375,-0.046875
600,-0.0693359375,-0.990234375,-0.0498046875
601,-0.0634765625,-0.9931640625,-0.0458984375
602,-0.060546875,-0.994140625,-0.048828125
603,-0.0693359375,-0.9892578125,-0.046875
604,-0.0634765625,-0.994140625,-0.044921875
605,-0.064453125,-0.99609375,-0.0498046875
606,-0.0654296875,-0.9873046875,-0.048828125
607,-0.06640625,-0.9892578125,-0.0498046875
608,-0.060546875,-0.9853515625,-0.052734375
609,-0.0595703125,-0.9970703125,-0.0537109375
610,-0.0693359375,-0.98828125,-0.052734375
611,-0.05859375,-0.990234375,-0.05078125
612,-0.0595703125,-0.9951171875,-0.0458984375
613,-0.060546875,-0.9892578125,-0.048828125
614,-0.0634765625,-0.9931640625,-0.0478515625
615,-0.0712890625,-0.9931640625,-0.052734375
616,-0.0732421875,-0.9892578125,-0.048828125
617,-0.064453125,-0.9970703125,-0.046875
618,-0.072265625,-0.98828125,-0.0498046875
619,-0.0673828125,-0.994140625,-0.0498046875
620,-0.064453125,-0.9921875,-0.044921875
621,-0.068359375,-0.98828125,-0.0498046875
622,-0.0732421875,-0.9853515625,-0.0498046875
623,-0.076171875,-0.9873046875,-0.0478515625
624,-0.07421875,-0.98828125,-0.0517578125
625,-0.0703125,-0.990234375,-0.0517578125
626,-0.0751953125,-0.9931640625,-0.056640625
627,-0.0703125,-0.984375,-0.0537109375
628,-0.0703125,-0.9853515625,-0.0595703125
629,-0.0751953125,-0.990234375,-0.0537109375
630,-0.07421875,-0.9892578125,-0.0576171875
631,-0.07421875,-0.9873046875,-0.0556640625
632,-0.0712890625,-0.986328125,-0.0576171875
633,-0.0810546875,-0.98046875,-0.0576171875
634,-0.0732421875,-0.986328125,-0.0546875
635,-0.0810546875,-0.9873046875,-0.0556640625
636,-0.0791015625,-0.98828125,-0.0537109375
637,-0.080078125,-0.9853515625,-0.0556640625
638,-0.080078125,-0.986328125,-0.060546875
639,-0.0830078125,-0.9853515625,-0.0625
640,-0.0810546875,-0.9892578125,-0.0634765625
641,-0.0830078125,-0.990234375,-0.060546875
642,-0.0849609375,-0.9912109375,-0.0634765625
643,-0.0830078125,-0.9921875,-0.0546875
644,-0.0869140625,-0.994140625,-0.0595703125
645,-0.0849609375,-0.9931640625,-0.0576171875
646,-0.080078125,-0.99609375,-0.052734375
647,-0.076171875,-0.9990234375,-0.0537109375
648,-0.076171875,-0.98828125,-0.0498046875
649,-0.0791015625,-0.9921875,-0.046875
650,-0.080078125,-0.9892578125,-0.0556640625
651,-0.080078125,-0.994140625,-0.0498046875
652,-0.091796875,-0.9931640625,-0.05078125
653,-0.087890625,-0.9912109375,-0.052734375
654,-0.0927734375,-0.9853515625,-0.05078125
655,-0.095703125,-0.9951171875,-0.0517578125
656,-0.103515625,-0.994140625,-0.048828125
657,-0.1025390625,-0.9892578125,-0.0517578125
658,-0.1083984375,-0.99609375,-0.048828125
659,-0.1005859375,-0.9931640625,-0.0517578125
660,-0.10546875,-0.998046875,-0.056640625
661,-0.0986328125,-0.9970703125,-0.0537109375
662,-0.09375,-0.998046875,-0.0546875
663,-0.0888671875,-1.0048828125,-0.05078125
664,-0.083984375,-0.998046875,-0.05078125
665,-0.0751953125,-0.998046875,-0.0556640625
666,-0.0771484375,-0.9990234375,-0.056640625
667,-0.0771484375,-1.0009765625,-0.0537109375
668,-0.0751953125,-1.0009765625,-0.0556640625
669,-0.0732421875,-1.0029296875,-0.0537109375
670,-0.0810546875,-0.99609375,-0.052734375
671,-0.0791015625,-0.9970703125,-0.0556640625
672,-0.08203125,-0.9970703125,-0.0634765625
673,-0.087890625,-0.994140625,-0.0615234375
674,-0.08984375,-0.98828125,-0.0615234375
675,-0.0888671875,-0.982421875,-0.0634765625
676,-0.0927734375,-0.9892578125,-0.0625
677,-0.09375,-0.982421875,-0.0673828125
678,-0.09375,-0.9853515625,-0.0673828125
679,-0.0966796875,-0.986328125,-0.060546875
680,-0.08984375,-0.9814453125,-0.0625
681,-0.08984375,-0.984375,-0.0546875
682,-0.083984375,-0.9892578125,-0.0537109375
683,-0.076171875,-0.9931640625,-0.0595703125
684,-0.078125,-0.994140625,-0.0517578125
685,-0.0693359375,-0.98828125,-0.0546875
686,-0.07421875,-0.986328125,-0.0517578125
687,-0.0703125,-0.990234375,-0.0537109375
688,-0.072265625,-0.986328125,-0.0498046875
689,-0.07421875,-0.986328125,-0.0576171875
690,-0.0703125,-0.9873046875,-0.0576171875
691,-0.0703125,-0.986328125,-0.0654296875
692,-0.07421875,-0.984375,-0.0556640625
693,-0.0751953125,-0.9892578125,-0.0673828125
694,-0.0751953125,-0.982421875,-0.056640625
695,-0.0751953125,-0.9912109375,-0.0712890625
696,-0.080078125,-0.986328125,-0.068359375
697,-0.0810546875,-0.9892578125,-0.0703125
698,-0.080078125,-0.9931640625,-0.07421875
699,-0.0771484375,-0.998046875,-0.08203125
700,-0.0751953125,-0.9970703125,-0.083984375
701,-0.080078125,-0.9990234375,-0.0908203125
702,-0.080078125,-0.9892578125,-0.091796875
703,-0.080078125,-0.9990234375,-0.0927734375
704,-0.0771484375,-0.994140625,-0.099609375
705,-0.078125,-0.998046875,-0.09375
706,-0.07421875,-0.994140625,-0.09375
707,-0.0712890625,-0.9970703125,-0.08984375
708,-0.0693359375,-0.99609375,-0.0908203125
709,-0.0712890625,-0.9970703125,-0.0849609375
710,-0.0732421875,-0.9990234375,-0.0830078125
711,-0.068359375,-1.001953125,-0.09375
712,-0.068359375,-1.0068359375,-0.09765625
713,-0.060546875,-1.0029296875,-0.099609375
714,-0.0546875,-1.005859375,-0.115234375
715,-0.044921875,-1.00390625,-0.111328125
716,-0.0458984375,-0.9951171875,-0.107421875
717,-0.04296875,-0.99609375,-0.103515625
718,-0.0380859375,-0.986328125,-0.0966796875
719,-0.0302734375,-0.986328125,-0.09375
720,-0.03515625,-0.978515625,-0.08984375
721,-0.03125,-0.9794921875,-0.0927734375
722,-0.0205078125,-0.9658203125,-0.091796875
723,-0.013671875,-0.9609375,-0.0947265625
724,-0.01171875,-0.958984375,-0.0908203125
725,-0.0087890625,-0.94921875,-0.0966796875
726,-0.00390625,-0.9462890625,-0.08984375
727,-0.0029296875,-0.951171875,-0.087890625
728,0.001953125,-0.94921875,-0.0869140625
729,0.0078125,-0.9462890625,-0.0869140625
730,0.0185546875,-0.9423828125,-0.083984375
731,0.0185546875,-0.9365234375,-0.083984375
732,0.0234375,-0.939453125,-0.087890625
733,0.0302734375,-0.935546875,-0.091796875
734,0.03515625,-0.9287109375,-0.0927734375
735,0.0361328125,-0.935546875,-0.0927734375
736,0.0419921875,-0.9365234375,-0.09375
737,0.0322265625,-0.943359375,-0.091796875
738,0.0380859375,-0.9482421875,-0.09375
739,0.0478515625,-0.953125,-0.0927734375
740,0.0537109375,-0.962890625,-0.0947265625
741,0.0654296875,-0.9755859375,-0.0908203125
742,0.0634765625,-0.9716796875,-0.09375
743,0.0654296875,-0.9755859375,-0.0859375
744,0.064453125,-0.98046875,-0.08984375
745,0.0673828125,-0.9873046875,-0.08203125
746,0.0712890625,-0.9853515625,-0.087890625
747,0.068359375,-0.9833984375,-0.0849609375
748,0.072265625,-0.9833984375,-0.0859375
749,0.0732421875,-0.9775390625,-0.0732421875
750,0.0712890625,-0.982421875,-0.0732421875
751,0.072265625,-0.9853515625,-0.072265625
752,0.072265625,-0.98046875,-0.0654296875
753,0.0693359375,-0.978515625,-0.0625
754,0.0712890625,-0.9765625,-0.0634765625
755,0.0634765625,-0.98046875,-0.0546875
756,0.0576171875,-0.98046875,-0.05078125
757,0.044921875,-0.98828125,-0.0556640625
758,0.0458984375,-0.9873046875,-0.056640625
759,0.0458984375,-0.98828125,-0.052734375
760,0.0400390625,-0.998046875,-0.0478515625
761,0.037109375,-1.001953125,-0.044921875
762,0.033203125,-1.005859375,-0.046875
763,0.0322265625,-1.0224609375,-0.0537109375
764,0.0322265625,-1.021484375,-0.0517578125
765,0.0302734375,-1.0244140625,-0.0439453125
766,0.03515625,-1.029296875,-0.0546875
767,0.03125,-1.029296875,-0.0537109375
768,0.0263671875,-1.037109375,-0.0556640625
769,0.03125,-1.03515625,-0.0576171875
770,0.0361328125,-1.029296875,-0.0615234375
771,0.033203125,-1.0234375,-0.0576171875
772,0.0400390625,-1.001953125,-0.05859375
773,0.0400390625,-1.0009765625,-0.0576171875
774,0.0400390625,-0.990234375,-0.05859375
775,0.041015625,-0.9853515625,-0.0517578125
776,0.0439453125,-0.9755859375,-0.052734375
777,0.0341796875,-0.9765625,-0.0537109375
778,0.0380859375,-0.982421875,-0.052734375
779,0.029296875,-0.9814453125,-0.0458984375
780,0.0322265625,-0.990234375,-0.0556640625
781,0.02734375,-1.0,-0.0498046875
782,0.021484375,-1.005859375,-0.0537109375
783,0.015625,-1.0,-0.05078125
784,0.009765625,-1.0009765625,-0.044921875
785,0.0078125,-1.001953125,-0.041015625
786,-0.0029296875,-1.0078125,-0.0439453125
787,-0.009765625,-0.994140625,-0.046875
788,-0.0146484375,-0.9892578125,-0.0478515625
789,-0.013671875,-0.99609375,-0.0517578125
790,-0.021484375,-0.9912109375,-0.046875
791,-0.0341796875,-0.9931640625,-0.0537109375
792,-0.0419921875,-0.9873046875,-0.0498046875
793,-0.0498046875,-0.9951171875,-0.048828125
794,-0.0576171875,-0.9951171875,-0.0517578125
795,-0.0595703125,-0.9951171875,-0.0556640625
796,-0.0693359375,-0.9970703125,-0.0625
797,-0.072265625,-0.9990234375,-0.0703125
798,-0.0693359375,-1.0009765625,-0.0732421875
799,-0.072265625,-0.998046875,-0.0751953125
800,-0.0693359375,-1.0009765625,-0.0771484375
801,-0.0615234375,-1.0029296875,-0.0810546875
802,-0.046875,-1.0009765625,-0.0791015625
803,-0.03125,-0.9990234375,-0.080078125
804,-0.0185546875,-1.0048828125,-0.0791015625
805,-0.01171875,-0.998046875,-0.0869140625
806,-0.013671875,-0.9990234375,-0.0927734375
807,-0.0029296875,-0.9990234375,-0.091796875
808,0.0009765625,-1.001953125,-0.087890625
809,0.0009765625,-1.001953125,-0.0859375
810,0.01171875,-1.0166015625,-0.07421875
811,0.01953125,-1.0263671875,-0.0751953125
812,0.0244140625,-1.037109375,-0.0654296875
813,0.0234375,-1.0361328125,-0.0576171875
814,0.0166015625,-1.0439453125,-0.052734375
815,0.0078125,-1.0439453125,-0.04296875
816,0.0087890625,-1.0419921875,-0.0439453125
817,0.005859375,-1.044921875,-0.0458984375
818,-0.001953125,-1.0400390625,-0.0537109375
819,0.005859375,-1.0400390625,-0.0625
820,-0.0048828125,-1.033203125,-0.068359375
821,-0.015625,-1.03125,-0.0703125
822,-0.021484375,-1.0283203125,-0.0732421875
823,-0.0283203125,-1.0185546875,-0.0810546875
824,-0.0390625,-1.001953125,-0.0830078125
825,-0.048828125,-0.990234375,-0.09765625
826,-0.0576171875,-0.97265625,-0.1044921875
827,-0.0634765625,-0.962890625,-0.1123046875
828,-0.0673828125,-0.947265625,-0.1240234375
829,-0.0546875,-0.935546875,-0.1240234375
830,-0.0322265625,-0.9228515625,-0.1435546875
831,-0.017578125,-0.9248046875,-0.16015625
832,-0.00390625,-0.9267578125,-0.1708984375
833,0.001953125,-0.9296875,-0.1884765625
834,0.0029296875,-0.947265625,-0.205078125
835,-0.0009765625,-0.966796875,-0.21875
836,0.0,-0.986328125,-0.228515625
837,-0.0009765625,-1.0,-0.2373046875
838,-0.0068359375,-1.0009765625,-0.2568359375
839,-0.001953125,-0.9853515625,-0.267578125
840,0.0,-0.9716796875,-0.279296875
841,0.0009765625,-0.9599609375,-0.28125
842,-0.0107421875,-0.939453125,-0.2705078125
843,-0.0048828125,-0.923828125,-0.26171875
844,-0.0205078125,-0.908203125,-0.2451171875
845,-0.0361328125,-0.90234375,-0.2255859375
846,-0.060546875,-0.89453125,-0.2001953125
847,-0.0849609375,-0.884765625,-0.1728515625
848,-0.109375,-0.892578125,-0.150390625
849,-0.1328125,-0.8974609375,-0.1240234375
850,-0.150390625,-0.9072265625,-0.1123046875
851,-0.173828125,-0.9248046875,-0.1044921875
852,-0.1982421875,-0.9501953125,-0.1005859375
853,-0.216796875,-0.9775390625,-0.103515625
854,-0.2333984375,-0.9970703125,-0.1162109375
855,-0.2529296875,-1.0322265625,-0.126953125
856,-0.2802734375,-1.0478515625,-0.140625
857,-0.318359375,-1.0625,-0.14453125
858,-0.3369140625,-1.08203125,-0.1591796875
859,-0.3505859375,-1.0908203125,-0.18359375
860,-0.365234375,-1.09765625,-0.205078125
861,-0.361328125,-1.0849609375,-0.21875
862,-0.37890625,-1.0703125,-0.2177734375
863,-0.3701171875,-1.060546875,-0.1923828125
864,-0.357421875,-1.037109375,-0.1611328125
865,-0.333984375,-1.0224609375,-0.123046875
866,-0.294921875,-0.99609375,-0.09765625
867,-0.2412109375,-0.9765625,-0.0810546875
868,-0.193359375,-0.9599609375,-0.0634765625
869,-0.1455078125,-0.953125,-0.0517578125
870,-0.103515625,-0.9501953125,-0.0322265625
871,-0.07421875,-0.951171875,-0.0185546875
872,-0.041015625,-0.96484375,-0.0009765625
873,-0.029296875,-0.9892578125,0.005859375
874,-0.0244140625,-1.0068359375,0.0048828125
875,-0.021484375,-1.0380859375,0.0009765625
876,-0.0263671875,-1.0634765625,-0.0068359375
877,-0.04296875,-1.0830078125,-0.0146484375
878,-0.0673828125,-1.095703125,-0.0185546875
879,-0.0927734375,-1.0966796875,-0.01171875
880,-0.1337890625,-1.095703125,-0.0126953125
881,-0.1748046875,-1.08984375,0.0
882,-0.21484375,-1.0751953125,0.0068359375
883,-0.2431640625,-1.05859375,0.0078125
884,-0.267578125,-1.05078125,0.0029296875
885,-0.2978515625,-1.041015625,-0.0009765625
886,-0.3232421875,-1.0458984375,-0.0107421875
887,-0.333984375,-1.0439453125,-0.0029296875
888,-0.3359375,-1.056640625,-0.013671875
889,-0.3291015625,-1.060546875,-0.015625
890,-0.3193359375,-1.07421875,-0.021484375
891,-0.3125,-1.091796875,-0.025390625
892,-0.31640625,-1.087890625,-0.025390625
893,-0.3076171875,-1.087890625,-0.0244140625
894,-0.2841796875,-1.087890625,-0.0302734375
895,-0.2666015625,-1.0791015625,-0.04296875
896,-0.255859375,-1.0673828125,-0.0537109375
897,-0.2392578125,-1.05078125,-0.048828125
898,-0.224609375,-1.037109375,-0.048828125
899,-0.2158203125,-1.0,-0.0576171875
900,-0.216796875,-0.9794921875,-0.0517578125
901,-0.2080078125,-0.9599609375,-0.048828125
902,-0.212890625,-0.9404296875,-0.0546875
903,-0.212890625,-0.927734375,-0.0419921875
904,-0.2138671875,-0.91015625,-0.037109375
905,-0.2255859375,-0.904296875,-0.029296875
906,-0.2197265625,-0.9013671875,-0.0205078125
907,-0.2275390625,-0.9091796875,-0.029296875
908,-0.2314453125,-0.9130859375,-0.025390625
909,-0.23828125,-0.921875,-0.0263671875
910,-0.24609375,-0.9267578125,-0.0322265625
911,-0.259765625,-0.9267578125,-0.0419921875
912,-0.26171875,-0.927734375,-0.05078125
913,-0.265625,-0.939453125,-0.0517578125
914,-0.263671875,-0.9384765625,-0.056640625
915,-0.2646484375,-0.9462890625,-0.0654296875
916,-0.279296875,-0.9404296875,-0.078125
917,-0.279296875,-0.943359375,-0.0732421875
918,-0.2763671875,-0.9326171875,-0.072265625
919,-0.26953125,-0.9404296875,-0.0732421875
920,-0.2724609375,-0.9619140625,-0.056640625
921,-0.275390625,-0.95703125,-0.05859375
922,-0.2783203125,-0.94921875,-0.0751953125
923,-0.283203125,-0.9365234375,-0.068359375
924,-0.3076171875,-0.9189453125,-0.076171875
925,-0.3154296875,-0.908203125,-0.076171875
926,-0.337890625,-0.90625,-0.0771484375
927,-0.3349609375,-0.900390625,-0.083984375
928,-0.3662109375,-0.8935546875,-0.083984375
929,-0.3603515625,-0.884765625,-0.083984375
930,-0.37109375,-0.8759765625,-0.0771484375
931,-0.37890625,-0.8681640625,-0.0693359375
932,-0.3779296875,-0.8642578125,-0.0703125
933,-0.3662109375,-0.857421875,-0.07421875
934,-0.380859375,-0.853515625,-0.076171875
935,-0.3740234375,-0.8486328125,-0.0830078125
936,-0.3662109375,-0.8505859375,-0.078125
937,-0.3681640625,-0.845703125,-0.0810546875
938,-0.361328125,-0.85546875,-0.08203125
939,-0.3603515625,-0.86328125,-0.078125
940,-0.3544921875,-0.8828125,-0.0908203125
941,-0.3466796875,-0.892578125,-0.0927734375
942,-0.34765625,-0.89453125,-0.1015625
943,-0.349609375,-0.8974609375,-0.099609375
944,-0.333984375,-0.896484375,-0.1201171875
945,-0.3408203125,-0.8876953125,-0.130859375
946,-0.359375,-0.8681640625,-0.1337890625
947,-0.3740234375,-0.8525390625,-0.169921875
948,-0.361328125,-0.8310546875,-0.1455078125
949,-0.400390625,-0.8173828125,-0.1484375
950,-0.427734375,-0.8125,-0.1357421875
951,-0.4248046875,-0.798828125,-0.1396484375
952,-0.451171875,-0.787109375,-0.134765625
953,-0.4580078125,-0.7880859375,-0.1201171875
954,-0.4609375,-0.7900390625,-0.1103515625
955,-0.4736328125,-0.783203125,-0.103515625
956,-0.482421875,-0.779296875,-0.099609375
957,-0.4892578125,-0.7744140625,-0.0849609375
958,-0.49609375,-0.76953125,-0.0712890625
959,-0.5078125,-0.794921875,-0.072265625
960,-0.498046875,-0.7958984375,-0.0771484375
961,-0.5224609375,-0.79296875,-0.08203125
962,-0.515625,-0.7841796875,-0.0849609375
963,-0.515625,-0.7724609375,-0.0830078125
964,-0.5146484375,-0.763671875,-0.0830078125
965,-0.5009765625,-0.7509765625,-0.08203125
966,-0.4951171875,-0.734375,-0.0693359375
967,-0.48046875,-0.728515625,-0.0625
968,-0.4697265625,-0.7099609375,-0.0546875
969,-0.45703125,-0.697265625,-0.052734375
970,-0.453125,-0.689453125,-0.0517578125
971,-0.4375,-0.677734375,-0.0439453125
972,-0.43359375,-0.6640625,-0.04296875
973,-0.4462890625,-0.658203125,-0.0322265625
974,-0.451171875,-0.666015625,-0.0234375
975,-0.458984375,-0.6591796875,-0.025390625
976,-0.4677734375,-0.6640625,-0.0224609375
977,-0.4775390625,-0.671875,-0.0185546875
978,-0.4921875,-0.6787109375,-0.0166015625
979,-0.5087890625,-0.685546875,-0.0185546875
980,-0.515625,-0.693359375,-0.0146484375
981,-0.529296875,-0.705078125,-0.021484375
982,-0.5361328125,-0.7080078125,-0.0283203125
983,-0.5439453125,-0.6962890625,-0.0322265625
984,-0.529296875,-0.6845703125,-0.0400390625
985,-0.5380859375,-0.6884765625,-0.03125
986,-0.55859375,-0.6904296875,-0.0390625
987,-0.5625,-0.681640625,-0.056640625
988,-0.5751953125,-0.6748046875,-0.060546875
989,-0.5888671875,-0.6650390625,-0.0673828125
990,-0.583984375,-0.6650390625,-0.07421875
991,-0.578125,-0.6494140625,-0.0712890625
992,-0.5732421875,-0.634765625,-0.078125
993,-0.5771484375,-0.6240234375,-0.0791015625
994,-0.5703125,-0.6142578125,-0.0712890625
995,-0.5556640625,-0.6025390625,-0.080078125
996,-0.5283203125,-0.5927734375,-0.080078125
997,-0.517578125,-0.591796875,-0.0810546875
998,-0.5078125,-0.591796875,-0.0751953125
999,-0.5146484375,-0.58984375,-0.0712890625
1000,-0.5146484375,-0.576171875,-0.078125
1001,-0.525390625,-0.5693359375,-0.078125
1002,-0.5322265625,-0.5625,-0.0849609375
1003,-0.548828125,-0.56640625,-0.08203125
1004,-0.5595703125,-0.576171875,-0.0771484375
1005,-0.5693359375,-0.5732421875,-0.08203125
1006,-0.5693359375,-0.5673828125,-0.091796875
1007,-0.5615234375,-0.5625,-0.1103515625
1008,-0.57421875,-0.5595703125,-0.1103515625
1009,-0.578125,-0.5634765625,-0.11328125
1010,-0.5810546875,-0.5595703125,-0.1298828125
1011,-0.572265625,-0.5576171875,-0.154296875
1012,-0.55078125,-0.5546875,-0.17578125
1013,-0.5322265625,-0.5517578125,-0.1787109375
1014,-0.5302734375,-0.5478515625,-0.1748046875
1015,-0.513671875,-0.5302734375,-0.1796875
1016,-0.5556640625,-0.5341796875,-0.185546875
1017,-0.556640625,-0.5458984375,-0.21875
1018,-0.578125,-0.564453125,-0.240234375
1019,-0.603515625,-0.572265625,-0.263671875
1020,-0.6240234375,-0.6083984375,-0.2822265625
1021,-0.6083984375,-0.626953125,-0.314453125
1022,-0.583984375,-0.650390625,-0.34765625
1023,-0.5791015625,-0.68359375,-0.357421875
1024,-0.6142578125,-0.72265625,-0.361328125
1025,-0.6318359375,-0.75,-0.3828125
1026,-0.6572265625,-0.7548828125,-0.427734375
1027,-0.6943359375,-0.734375,-0.4501953125
1028,-0.7802734375,-0.7041015625,-0.466796875
1029,-0.7802734375,-0.7353515625,-0.44921875
1030,-0.787109375,-0.6279296875,-0.45703125
1031,-0.9267578125,-0.5830078125,-0.375
1032,-0.935546875,-0.5400390625,-0.3857421875
1033,-1.0546875,-0.5068359375,-0.3271484375
1034,-1.0234375,-0.482421875,-0.3271484375
1035,-0.9521484375,-0.525390625,-0.306640625
1036,-0.9619140625,-0.5498046875,-0.2685546875
1037,-1.009765625,-0.6015625,-0.2119140625
1038,-0.890625,-0.6904296875,-0.2431640625
1039,-0.8408203125,-0.6982421875,-0.23828125
1040,-0.7998046875,-0.734375,-0.2763671875
1041,-0.73046875,-0.7119140625,-0.2900390625
1042,-0.6748046875,-0.6787109375,-0.3291015625
1043,-0.5927734375,-0.63671875,-0.34375
1044,-0.533203125,-0.5849609375,-0.3515625
1045,-0.48046875,-0.556640625,-0.33984375
1046,-0.4521484375,-0.509765625,-0.3505859375
1047,-0.4384765625,-0.48828125,-0.349609375
1048,-0.439453125,-0.5048828125,-0.35546875
1049,-0.431640625,-0.50390625,-0.361328125
1050,-0.4599609375,-0.5498046875,-0.380859375
1051,-0.45703125,-0.583984375,-0.4033203125
1052,-0.462890625,-0.6123046875,-0.4228515625
1053,-0.4677734375,-0.63671875,-0.45703125
1054,-0.46484375,-0.666015625,-0.4619140625
1055,-0.5078125,-0.685546875,-0.4931640625
1056,-0.515625,-0.7197265625,-0.4921875
1057,-0.5625,-0.7490234375,-0.505859375
1058,-0.5869140625,-0.7451171875,-0.5126953125
1059,-0.666015625,-0.76953125,-0.53515625
1060,-0.6982421875,-0.7666015625,-0.5703125
1061,-0.6884765625,-0.78125,-0.591796875
1062,-0.71484375,-0.7822265625,-0.603515625
1063,-0.6953125,-0.7470703125,-0.625
1064,-0.7900390625,-0.7001953125,-0.60546875
1065,-0.5927734375,-0.7666015625,-0.630859375
1066,-0.568359375,-0.7275390625,-0.6337890625
1067,-0.5205078125,-0.7021484375,-0.6328125
1068,-0.482421875,-0.6982421875,-0.62890625
1069,-0.4375,-0.69140625,-0.630859375
1070,-0.4306640625,-0.6884765625,-0.6318359375
1071,-0.423828125,-0.681640625,-0.626953125
1072,-0.40625,-0.6796875,-0.626953125
1073,-0.4248046875,-0.6796875,-0.61328125
1074,-0.3515625,-0.712890625,-0.5966796875
1075,-0.44140625,-0.689453125,-0.607421875
1076,-0.4404296875,-0.69921875,-0.607421875
1077,-0.4453125,-0.7138671875,-0.595703125
1078,-0.4482421875,-0.7373046875,-0.5830078125
1079,-0.443359375,-0.759765625,-0.5830078125
1080,-0.4541015625,-0.78515625,-0.58984375
1081,-0.46484375,-0.80859375,-0.59375
1082,-0.4736328125,-0.83984375,-0.6015625
1083,-0.49609375,-0.8603515625,-0.6240234375
1084,-0.5029296875,-0.8828125,-0.634765625
1085,-0.5556640625,-0.8681640625,-0.6357421875
1086,-0.4677734375,-0.951171875,-0.6357421875
1087,-0.4716796875,-0.9560546875,-0.638671875
1088,-0.4541015625,-0.94140625,-0.6318359375
1089,-0.4521484375,-0.9443359375,-0.611328125
1090,-0.4404296875,-0.9658203125,-0.572265625
1091,-0.4365234375,-1.0029296875,-0.560546875
1092,-0.333984375,-1.0849609375,-0.58984375
1093,-0.4560546875,-1.0732421875,-0.5380859375
1094,-0.4765625,-1.0703125,-0.5302734375
1095,-0.48828125,-1.078125,-0.5205078125
1096,-0.3935546875,-1.1171875,-0.5009765625
1097,-0.4765625,-1.09765625,-0.4814453125
1098,-0.451171875,-1.095703125,-0.45703125
1099,-0.4443359375,-1.099609375,-0.43359375
1100,-0.5537109375,-1.0458984375,-0.4140625
1101,-0.3671875,-1.1171875,-0.412109375
1102,-0.3984375,-1.09375,-0.4052734375
1103,-0.3857421875,-1.0810546875,-0.40234375
1104,-0.3564453125,-1.0693359375,-0.3935546875
1105,-0.365234375,-1.0546875,-0.3828125
1106,-0.357421875,-1.0537109375,-0.3779296875
1107,-0.361328125,-1.041015625,-0.36328125
1108,-0.3359375,-1.021484375,-0.3623046875
1109,-0.328125,-1.00390625,-0.361328125
1110,-0.330078125,-0.9873046875,-0.35546875
1111,-0.2470703125,-1.021484375,-0.3525390625
1112,-0.279296875,-0.974609375,-0.3447265625
1113,-0.30859375,-0.966796875,-0.3291015625
1114,-0.314453125,-0.953125,-0.3212890625
1115,-0.2880859375,-0.9453125,-0.30078125
1116,-0.291015625,-0.931640625,-0.2822265625
1117,-0.28125,-0.9228515625,-0.25
1118,-0.287109375,-0.9169921875,-0.2255859375
1119,-0.279296875,-0.9169921875,-0.2099609375
1120,-0.2900390625,-0.916015625,-0.185546875
1121,-0.28125,-0.921875,-0.1708984375
1122,-0.259765625,-0.9228515625,-0.1650390625
1123,-0.2607421875,-0.9208984375,-0.14453125
1124,-0.2587890625,-0.919921875,-0.138671875
1125,-0.255859375,-0.9189453125,-0.1171875
1126,-0.25390625,-0.9189453125,-0.1015625
1127,-0.2607421875,-0.921875,-0.0927734375
1128,-0.2646484375,-0.9248046875,-0.0732421875
1129,-0.265625,-0.9296875,-0.0517578125
1130,-0.28515625,-0.9375,-0.02734375
1131,-0.296875,-0.9423828125,-0.0087890625
1132,-0.32421875,-0.9541015625,0.0185546875
1133,-0.328125,-0.96875,0.0322265625
1134,-0.3310546875,-0.9755859375,0.0556640625
1135,-0.3203125,-0.982421875,0.0673828125
1136,-0.3203125,-1.0029296875,0.087890625
1137,-0.3046875,-1.0126953125,0.103515625
1138,-0.3037109375,-1.0146484375,0.1162109375
1139,-0.306640625,-1.021484375,0.14453125
1140,-0.3017578125,-1.03125,0.1572265625
1141,-0.3056640625,-1.0380859375,0.1728515625
1142,-0.296875,-1.05078125,0.1943359375
1143,-0.3056640625,-1.0654296875,0.20703125
1144,-0.2900390625,-1.08984375,0.2236328125
1145,-0.294921875,-1.099609375,0.2373046875
1146,-0.2978515625,-1.1142578125,0.2685546875
1147,-0.287109375,-1.1162109375,0.2666015625
1148,-0.2724609375,-1.11328125,0.2666015625
1149,-0.2431640625,-1.103515625,0.2626953125
1150,-0.2119140625,-1.0947265625,0.259765625
1151,-0.2021484375,-1.0859375,0.2685546875
1152,-0.1640625,-1.0810546875,0.265625
1153,-0.1220703125,-1.076171875,0.25
1154,-0.0888671875,-1.0546875,0.2578125
1155,-0.0595703125,-1.0400390625,0.2431640625
1156,-0.0498046875,-1.0244140625,0.2275390625
1157,0.005859375,-1.001953125,0.2197265625
1158,0.0029296875,-0.986328125,0.205078125
1159,0.041015625,-0.9716796875,0.185546875
1160,0.06640625,-0.96875,0.162109375
1161,0.0869140625,-0.947265625,0.1708984375
1162,0.099609375,-0.96875,0.146484375
1163,0.1220703125,-0.9560546875,0.138671875
1164,0.1357421875,-0.943359375,0.1328125
1165,0.1083984375,-0.9306640625,0.1357421875
1166,0.103515625,-0.9267578125,0.1337890625
1167,0.09375,-0.9306640625,0.140625
1168,0.0888671875,-0.927734375,0.146484375
1169,0.0634765625,-0.9189453125,0.1474609375
1170,0.0546875,-0.921875,0.130859375
1171,0.0234375,-0.9375,0.1201171875
1172,0.015625,-0.947265625,0.125
1173,-0.001953125,-0.947265625,0.119140625
1174,-0.01171875,-0.951171875,0.1015625
1175,-0.0302734375,-0.96875,0.08203125
1176,-0.033203125,-0.9970703125,0.08984375
1177,-0.076171875,-1.0166015625,0.080078125
1178,-0.076171875,-1.052734375,0.083984375
1179,-0.076171875,-1.064453125,0.083984375
1180,-0.072265625,-1.0810546875,0.0810546875
1181,-0.0830078125,-1.0947265625,0.08203125
1182,-0.09375,-1.0888671875,0.072265625
1183,-0.08984375,-1.0947265625,0.0654296875
1184,-0.09765625,-1.1005859375,0.06640625
1185,-0.08203125,-1.095703125,0.060546875
1186,-0.095703125,-1.087890625,0.0546875
1187,-0.1064453125,-1.0849609375,0.0458984375
1188,-0.111328125,-1.0791015625,0.048828125
1189,-0.109375,-1.076171875,0.0537109375
1190,-0.1025390625,-1.0693359375,0.044921875
1191,-0.091796875,-1.064453125,0.04296875
1192,-0.0732421875,-1.060546875,0.0439453125
1193,-0.0615234375,-1.052734375,0.04296875
1194,-0.0205078125,-1.052734375,0.0283203125
1195,-0.0361328125,-1.029296875,0.06640625
1196,-0.021484375,-1.0234375,0.033203125
1197,-0.005859375,-1.0068359375,0.044921875
1198,0.0068359375,-0.990234375,0.0498046875
1199,0.0146484375,-0.9765625,0.052734375
1200,0.0224609375,-0.96484375,0.0595703125
1201,0.0302734375,-0.9638671875,0.0703125
1202,0.0439453125,-0.953125,0.0791015625
1203,0.060546875,-0.9541015625,0.087890625
1204,0.068359375,-0.958984375,0.09765625
1205,0.09375,-0.95703125,0.103515625
1206,0.0966796875,-0.9609375,0.1201171875
1207,0.10546875,-0.9697265625,0.142578125
1208,0.115234375,-0.9677734375,0.1630859375
1209,0.1279296875,-0.978515625,0.1708984375
1210,0.1337890625,-0.970703125,0.19921875
1211,0.130859375,-0.9716796875,0.2099609375
1212,0.13671875,-0.974609375,0.2158203125
1213,0.138671875,-0.9765625,0.240234375
1214,0.1474609375,-0.970703125,0.2578125
1215,0.1533203125,-0.966796875,0.2646484375
1216,0.1474609375,-0.9619140625,0.28515625
1217,0.15234375,-0.9580078125,0.29296875
1218,0.15625,-0.96875,0.3154296875
1219,0.1572265625,-0.962890625,0.318359375
1220,0.166015625,-0.966796875,0.318359375
1221,0.1728515625,-0.9609375,0.3193359375
1222,0.169921875,-0.9296875,0.328125
1223,0.16796875,-0.9619140625,0.326171875
1224,0.1669921875,-0.9697265625,0.3173828125
1225,0.15625,-0.970703125,0.3154296875
1226,0.1552734375,-0.9658203125,0.310546875
1227,0.15234375,-0.95703125,0.3056640625
1228,0.1533203125,-0.958984375,0.3037109375
1229,0.166015625,-0.9599609375,0.302734375
1230,0.177734375,-0.9599609375,0.3037109375
1231,0.1826171875,-0.9599609375,0.302734375
1232,0.1845703125,-0.95703125,0.302734375
1233,0.1806640625,-0.9619140625,0.296875
1234,0.17578125,-0.9638671875,0.2880859375
1235,0.17578125,-0.962890625,0.2900390625
1236,0.1630859375,-0.9736328125,0.2841796875
1237,0.1455078125,-0.98828125,0.27734375
1238,0.13671875,-0.990234375,0.279296875
1239,0.13671875,-1.0,0.279296875
1240,0.1259765625,-1.013671875,0.2646484375
1241,0.1298828125,-1.0166015625,0.2587890625
1242,0.1220703125,-1.02734375,0.24609375
1243,0.1259765625,-1.0380859375,0.2373046875
1244,0.125,-1.0458984375,0.240234375
1245,0.1220703125,-1.0498046875,0.244140625
1246,0.1240234375,-1.0556640625,0.240234375
1247,0.125,-1.056640625,0.2373046875
1248,0.1201171875,-1.0556640625,0.248046875
1249,0.1259765625,-1.046875,0.24609375
1250,0.1171875,-1.0419921875,0.2529296875
1251,0.111328125,-1.033203125,0.267578125
1252,0.1201171875,-1.0283203125,0.267578125
1253,0.1162109375,-1.0107421875,0.2783203125
1254,0.111328125,-1.001953125,0.2822265625
1255,0.1142578125,-0.9970703125,0.279296875
1256,0.1025390625,-0.9892578125,0.2900390625
1257,0.111328125,-0.978515625,0.28125
1258,0.1162109375,-0.9716796875,0.2822265625
1259,0.12109375,-0.9560546875,0.2783203125
1260,0.1337890625,-0.9443359375,0.267578125
1261,0.1396484375,-0.9375,0.263671875
1262,0.1455078125,-0.91796875,0.2626953125
1263,0.142578125,-0.9228515625,0.2626953125
1264,0.1435546875,-0.91015625,0.263671875
1265,0.1533203125,-0.912109375,0.2666015625
1266,0.1572265625,-0.9013671875,0.2705078125
1267,0.1572265625,-0.8984375,0.279296875
1268,0.1533203125,-0.892578125,0.2822265625
1269,0.15234375,-0.89453125,0.283203125
1270,0.16796875,-0.8896484375,0.2880859375
1271,0.17578125,-0.890625,0.2900390625
1272,0.1826171875,-0.896484375,0.2890625
1273,0.185546875,-0.89453125,0.296875
1274,0.1865234375,-0.91015625,0.298828125
1275,0.1767578125,-0.9091796875,0.298828125
1276,0.17578125,-0.9208984375,0.298828125
1277,0.1845703125,-0.9228515625,0.294921875
1278,0.17578125,-0.9306640625,0.291015625
1279,0.173828125,-0.9375,0.2958984375
1280,0.1708984375,-0.9453125,0.2890625
1281,0.16796875,-0.9541015625,0.2900390625
1282,0.1669921875,-0.9638671875,0.2919921875
1283,0.158203125,-0.9599609375,0.2841796875
1284,0.140625,-0.95703125,0.2783203125
1285,0.1123046875,-0.9580078125,0.28515625
1286,0.0859375,-0.947265625,0.28515625
1287,0.0634765625,-0.9521484375,0.2958984375
1288,0.037109375,-0.953125,0.3046875
1289,0.017578125,-0.95703125,0.3115234375
1290,0.0078125,-0.9638671875,0.322265625
1291,-0.001953125,-0.9716796875,0.328125
1292,-0.0126953125,-0.970703125,0.3310546875
1293,-0.02734375,-0.96484375,0.3330078125
1294,-0.0263671875,-0.9609375,0.3232421875
1295,-0.009765625,-0.947265625,0.32421875
1296,0.0087890625,-0.9375,0.3046875
1297,0.0234375,-0.9365234375,0.298828125
1298,0.03515625,-0.9296875,0.302734375
1299,0.0380859375,-0.9296875,0.3017578125
1300,0.064453125,-0.9267578125,0.30859375
1301,0.072265625,-0.9326171875,0.314453125
1302,0.080078125,-0.931640625,0.31640625
1303,0.0810546875,-0.9365234375,0.322265625
1304,0.083984375,-0.9375,0.3154296875
1305,0.0849609375,-0.9384765625,0.310546875
1306,0.08984375,-0.9423828125,0.3046875
1307,0.0888671875,-0.94140625,0.3056640625
1308,0.0927734375,-0.94921875,0.3076171875
1309,0.10546875,-0.94921875,0.3037109375
1310,0.109375,-0.947265625,0.306640625
1311,0.1171875,-0.947265625,0.2958984375
1312,0.1240234375,-0.951171875,0.302734375
1313,0.1298828125,-0.94921875,0.3095703125
1314,0.130859375,-0.95703125,0.294921875
1315,0.134765625,-0.9541015625,0.29296875
1316,0.12890625,-0.95703125,0.2890625
1317,0.1181640625,-0.9462890625,0.2841796875
1318,0.1064453125,-0.943359375,0.2783203125
1319,0.1025390625,-0.9580078125,0.2666015625
1320,0.095703125,-0.9619140625,0.263671875
1321,0.08203125,-0.9716796875,0.25390625
1322,0.0859375,-0.9775390625,0.2548828125
1323,0.0888671875,-0.98828125,0.2509765625
1324,0.0859375,-0.9951171875,0.2431640625
1325,0.0849609375,-0.9990234375,0.248046875
1326,0.0927734375,-0.9990234375,0.2529296875
1327,0.0986328125,-1.0068359375,0.2451171875
1328,0.099609375,-1.0107421875,0.2470703125
1329,0.1005859375,-1.00390625,0.2412109375
1330,0.103515625,-1.0,0.2373046875
1331,0.0986328125,-1.0078125,0.2421875
1332,0.10546875,-1.0126953125,0.2431640625
1333,0.1005859375,-1.017578125,0.2431640625
1334,0.0927734375,-1.021484375,0.2412109375
1335,0.09765625,-1.0322265625,0.2568359375
1336,0.109375,-1.037109375,0.259765625
1337,0.1083984375,-1.03515625,0.2724609375
1338,0.1201171875,-1.0419921875,0.28515625
1339,0.1240234375,-1.01953125,0.2890625
1340,0.1259765625,-1.01171875,0.296875
1341,0.13671875,-0.998046875,0.3037109375
1342,0.1484375,-0.9765625,0.3115234375
1343,0.146484375,-0.9677734375,0.3310546875
1344,0.1357421875,-0.9501953125,0.3427734375
1345,0.150390625,-0.9326171875,0.3447265625
1346,0.158203125,-0.9248046875,0.3486328125
1347,0.1494140625,-0.9169921875,0.353515625
1348,0.13671875,-0.919921875,0.3642578125
1349,0.1259765625,-0.9150390625,0.3564453125
1350,0.119140625,-0.9169921875,0.3603515625
1351,0.1318359375,-0.9287109375,0.3388671875
1352,0.1259765625,-0.9345703125,0.3271484375
1353,0.1181640625,-0.94140625,0.318359375
1354,0.1103515625,-0.9599609375,0.3095703125
1355,0.1181640625,-0.962890625,0.30078125
1356,0.12109375,-0.9794921875,0.3017578125
1357,0.123046875,-0.98828125,0.2861328125
1358,0.1259765625,-0.994140625,0.2705078125
1359,0.1220703125,-0.98828125,0.2822265625
1360,0.1328125,-0.998046875,0.267578125
1361,0.142578125,-1.0048828125,0.2685546875
1362,0.1484375,-1.0,0.2568359375
1363,0.1455078125,-0.9931640625,0.248046875
1364,0.1669921875,-1.0107421875,0.2392578125
1365,0.1865234375,-0.9951171875,0.2236328125
1366,0.1611328125,-1.005859375,0.2294921875
1367,0.1484375,-1.001953125,0.24609375
1368,0.150390625,-0.9951171875,0.244140625
1369,0.140625,-0.9951171875,0.228515625
1370,0.13671875,-0.982421875,0.23046875
1371,0.1240234375,-0.9755859375,0.2294921875
1372,0.1044921875,-0.9619140625,0.23828125
1373,0.1044921875,-0.96484375,0.2314453125
1374,0.103515625,-0.95703125,0.2314453125
1375,0.09375,-0.9599609375,0.21875
1376,0.0888671875,-0.9697265625,0.220703125
1377,0.076171875,-0.9716796875,0.212890625
1378,0.0791015625,-0.9765625,0.208984375
1379,0.0703125,-0.9873046875,0.2158203125
1380,0.08203125,-0.998046875,0.2158203125
1381,0.0869140625,-1.00390625,0.2236328125
1382,0.080078125,-1.0068359375,0.234375
1383,0.0625,-1.0029296875,0.2451171875
1384,0.0654296875,-0.986328125,0.236328125
1385,0.0615234375,-0.9833984375,0.2373046875
1386,0.068359375,-0.98046875,0.2470703125
1387,0.0830078125,-0.98828125,0.236328125
1388,0.08984375,-0.9990234375,0.2470703125
1389,0.1064453125,-1.01171875,0.251953125
1390,0.1181640625,-1.017578125,0.2490234375
1391,0.1201171875,-1.015625,0.2587890625
1392,0.1396484375,-1.005859375,0.259765625
1393,0.1376953125,-0.990234375,0.26171875
1394,0.123046875,-0.984375,0.2685546875
1395,0.1162109375,-0.974609375,0.267578125
1396,0.080078125,-0.9716796875,0.267578125
1397,0.029296875,-0.9580078125,0.2734375
1398,0.00390625,-0.9609375,0.2646484375
1399,-0.0263671875,-0.9541015625,0.2705078125
1400,-0.0400390625,-0.94921875,0.26171875
1401,-0.0419921875,-0.9482421875,0.259765625
1402,-0.041015625,-0.9375,0.2421875
1403,-0.041015625,-0.9482421875,0.240234375
1404,-0.025390625,-0.9482421875,0.244140625
1405,-0.0126953125,-0.958984375,0.248046875
1406,0.0,-0.966796875,0.2490234375
1407,-0.001953125,-0.966796875,0.251953125
1408,-0.0029296875,-0.9697265625,0.263671875
1409,0.0068359375,-0.974609375,0.26953125
1410,0.0126953125,-0.9833984375,0.267578125
1411,0.0166015625,-0.990234375,0.2744140625
1412,0.013671875,-0.9970703125,0.2724609375
1413,0.013671875,-1.0107421875,0.271484375
1414,0.0009765625,-1.0302734375,0.271484375
1415,-0.01953125,-1.0419921875,0.291015625
1416,-0.0126953125,-1.041015625,0.275390625
1417,-0.0244140625,-1.0400390625,0.287109375
1418,-0.0380859375,-1.0419921875,0.2919921875
1419,-0.0400390625,-1.05078125,0.298828125
1420,-0.046875,-1.05078125,0.2978515625
1421,-0.0595703125,-1.0556640625,0.3017578125
1422,-0.072265625,-1.0556640625,0.302734375
1423,-0.0703125,-1.056640625,0.3017578125
1424,-0.07421875,-1.0537109375,0.3037109375
1425,-0.0732421875,-1.0517578125,0.2998046875
1426,-0.0556640625,-1.046875,0.2998046875
1427,-0.0517578125,-1.0380859375,0.294921875
1428,-0.052734375,-1.0322265625,0.2822265625
1429,-0.0595703125,-1.0205078125,0.2734375
1430,-0.0830078125,-1.005859375,0.2744140625
1431,-0.05078125,-1.0009765625,0.2431640625
1432,-0.05859375,-0.9814453125,0.2431640625
1433,-0.0849609375,-0.97265625,0.2412109375
1434,-0.07421875,-0.9599609375,0.2275390625
1435,-0.091796875,-0.9365234375,0.23046875
1436,-0.111328125,-0.9375,0.2392578125
1437,-0.1103515625,-0.9267578125,0.2421875
1438,-0.1171875,-0.9287109375,0.2509765625
1439,-0.1162109375,-0.9228515625,0.2587890625
1440,-0.1181640625,-0.9248046875,0.263671875
1441,-0.1162109375,-0.9248046875,0.2822265625
1442,-0.11328125,-0.927734375,0.2861328125
1443,-0.11328125,-0.9287109375,0.2939453125
1444,-0.1123046875,-0.9287109375,0.298828125
1445,-0.1142578125,-0.927734375,0.3017578125
1446,-0.0986328125,-0.9228515625,0.302734375
1447,-0.078125,-0.9228515625,0.3037109375
1448,-0.0751953125,-0.9228515625,0.30078125
1449,-0.056640625,-0.9189453125,0.2978515625
1450,-0.0419921875,-0.91796875,0.2919921875
1451,-0.037109375,-0.91796875,0.3017578125
1452,-0.0341796875,-0.9189453125,0.3076171875
1453,-0.025390625,-0.92578125,0.3076171875
1454,-0.01953125,-0.9306640625,0.3125
1455,-0.015625,-0.935546875,0.310546875
1456,-0.0107421875,-0.935546875,0.31640625
1457,-0.001953125,-0.94140625,0.3193359375
1458,0.005859375,-0.9462890625,0.3212890625
1459,0.0078125,-0.947265625,0.3212890625
1460,0.01171875,-0.9443359375,0.322265625
1461,0.017578125,-0.94921875,0.3212890625
1462,0.0224609375,-0.9501953125,0.3232421875
1463,0.0224609375,-0.9580078125,0.3232421875
1464,0.017578125,-0.9580078125,0.3193359375
1465,0.0185546875,-0.96484375,0.3212890625
1466,0.0185546875,-0.9599609375,0.3232421875
1467,0.009765625,-0.9638671875,0.31640625
1468,0.005859375,-0.958984375,0.3154296875
1469,0.00390625,-0.958984375,0.3095703125
1470,0.0009765625,-0.953125,0.30859375
1471,-0.0029296875,-0.9521484375,0.306640625
1472,-0.0048828125,-0.9541015625,0.3046875
1473,-0.0048828125,-0.94921875,0.302734375
1474,-0.001953125,-0.9580078125,0.296875
1475,-0.005859375,-0.9619140625,0.30078125
1476,0.015625,-0.958984375,0.2998046875
1477,0.005859375,-0.9755859375,0.318359375
1478,0.005859375,-0.9619140625,0.291015625
1479,0.00390625,-0.970703125,0.2958984375
1480,0.0107421875,-0.966796875,0.291015625
1481,0.0146484375,-0.9716796875,0.2958984375
1482,0.0244140625,-0.9716796875,0.2890625
1483,0.0380859375,-0.9716796875,0.294921875
1484,0.0458984375,-0.97265625,0.2919921875
1485,0.048828125,-0.970703125,0.2939453125
1486,0.05859375,-0.9677734375,0.287109375
1487,0.0556640625,-0.96875,0.291015625
1488,0.05859375,-0.962890625,0.2900390625
1489,0.064453125,-0.9609375,0.298828125
1490,0.0703125,-0.9638671875,0.294921875
1491,0.076171875,-0.966796875,0.3037109375
1492,0.080078125,-0.970703125,0.3046875
1493,0.0830078125,-0.9775390625,0.30859375
1494,0.0751953125,-0.9794921875,0.3076171875
1495,0.0751953125,-0.9765625,0.3154296875
1496,0.0673828125,-0.982421875,0.3203125
1497,0.05859375,-0.9833984375,0.3251953125
1498,0.0556640625,-0.9794921875,0.326171875
1499,0.056640625,-0.978515625,0.326171875
1500,0.046875,-0.9765625,0.3271484375
1501,0.0439453125,-0.98046875,0.3310546875
1502,0.037109375,-0.9765625,0.328125
1503,0.0361328125,-0.97265625,0.3232421875
1504,0.02734375,-0.9814453125,0.3251953125
1505,0.0302734375,-0.9775390625,0.3232421875
1506,0.0302734375,-0.9765625,0.326171875
1507,0.03125,-0.98828125,0.3232421875
1508,0.0419921875,-0.986328125,0.32421875
1509,0.048828125,-0.990234375,0.3203125
1510,0.0625,-0.990234375,0.31640625
1511,0.0654296875,-0.98828125,0.3134765625
1512,0.076171875,-0.9892578125,0.3046875
1513,0.080078125,-0.984375,0.3056640625
1514,0.078125,-0.9775390625,0.298828125
1515,0.0791015625,-0.9736328125,0.2880859375
1516,0.0771484375,-0.9736328125,0.2900390625
1517,0.0751953125,-0.9697265625,0.2880859375
1518,0.076171875,-0.9638671875,0.287109375
1519,0.0751953125,-0.9619140625,0.287109375
1520,0.0712890625,-0.95703125,0.2861328125
1521,0.0771484375,-0.9560546875,0.287109375
1522,0.0810546875,-0.9501953125,0.2861328125
1523,0.0849609375,-0.95703125,0.2900390625
1524,0.0908203125,-0.9453125,0.2861328125
1525,0.0869140625,-0.9501953125,0.2900390625
1526,0.09375,-0.9560546875,0.2802734375
1527,0.087890625,-0.9560546875,0.2861328125
1528,0.09375,-0.9501953125,0.2880859375
1529,0.091796875,-0.9541015625,0.2900390625
1530,0.0859375,-0.955078125,0.2900390625
1531,0.0888671875,-0.9609375,0.2958984375
1532,0.08984375,-0.96484375,0.294921875
1533,0.0888671875,-0.9609375,0.29296875
1534,0.0859375,-0.958984375,0.2998046875
1535,0.0869140625,-0.96484375,0.30078125
1536,0.0859375,-0.958984375,0.30078125
1537,0.080078125,-0.9619140625,0.3037109375
1538,0.083984375,-0.9599609375,0.3017578125
1539,0.076171875,-0.96484375,0.3056640625
1540,0.076171875,-0.9677734375,0.310546875
1541,0.0703125,-0.96484375,0.3056640625
1542,0.0673828125,-0.970703125,0.3125
1543,0.0654296875,-0.9677734375,0.3125
1544,0.064453125,-0.974609375,0.314453125
1545,0.0546875,-0.978515625,0.3056640625
1546,0.0576171875,-0.978515625,0.3125
1547,0.0615234375,-0.9853515625,0.30859375
1548,0.0595703125,-0.986328125,0.3017578125
1549,0.068359375,-0.98828125,0.2900390625
1550,0.0625,-0.982421875,0.2861328125
1551,0.0634765625,-0.9794921875,0.283203125
1552,0.0693359375,-0.9775390625,0.27734375
1553,0.0546875,-0.9716796875,0.28515625
1554,0.0537109375,-0.9677734375,0.2958984375
1555,0.0458984375,-0.966796875,0.2978515625
1556,0.04296875,-0.9638671875,0.2998046875
1557,0.046875,-0.962890625,0.3017578125
1558,0.0458984375,-0.96484375,0.3017578125
1559,0.0458984375,-0.96484375,0.3017578125
1560,0.0458984375,-0.9619140625,0.2998046875
1561,0.0478515625,-0.9599609375,0.2998046875
1562,0.0380859375,-0.958984375,0.306640625
1563,0.03515625,-0.95703125,0.318359375
1564,0.0244140625,-0.958984375,0.314453125
1565,0.03125,-0.955078125,0.318359375
1566,0.03125,-0.958984375,0.3134765625
1567,0.0263671875,-0.95703125,0.3056640625
1568,0.03515625,-0.9560546875,0.294921875
1569,0.033203125,-0.9599609375,0.2998046875
1570,0.044921875,-0.9580078125,0.2900390625
1571,0.041015625,-0.9560546875,0.287109375
1572,0.046875,-0.95703125,0.2890625
1573,0.041015625,-0.9541015625,0.2900390625
1574,0.0361328125,-0.95703125,0.291015625
1575,0.0361328125,-0.958984375,0.291015625
1576,0.0361328125,-0.970703125,0.2919921875
1577,0.0390625,-0.97265625,0.2939453125
1578,0.0419921875,-0.982421875,0.2998046875
1579,0.046875,-0.9921875,0.298828125
1580,0.05859375,-0.984375,0.3017578125
1581,0.056640625,-0.99609375,0.294921875
1582,0.0634765625,-0.990234375,0.2880859375
1583,0.0732421875,-0.9912109375,0.2861328125
1584,0.0693359375,-0.984375,0.283203125
1585,0.06640625,-0.98046875,0.2841796875
1586,0.064453125,-0.978515625,0.2783203125
1587,0.06640625,-0.9736328125,0.279296875
1588,0.0634765625,-0.9697265625,0.265625
1589,0.0576171875,-0.9638671875,0.271484375
1590,0.056640625,-0.9736328125,0.2724609375
1591,0.0556640625,-0.9697265625,0.2744140625
1592,0.0546875,-0.970703125,0.28125
1593,0.05859375,-0.9736328125,0.2802734375
1594,0.0625,-0.974609375,0.283203125
1595,0.0556640625,-0.978515625,0.2802734375
1596,0.0546875,-0.9775390625,0.2841796875
1597,0.0625,-0.9833984375,0.27734375
1598,0.0654296875,-0.9853515625,0.2763671875
1599,0.06640625,-0.982421875,0.2783203125
1600,0.0693359375,-0.986328125,0.2802734375
1601,0.0693359375,-0.9765625,0.2744140625
1602,0.072265625,-0.9794921875,0.2744140625
1603,0.0693359375,-0.9736328125,0.2861328125
1604,0.0693359375,-0.9736328125,0.2822265625
1605,0.07421875,-0.97265625,0.2841796875
1606,0.0732421875,-0.970703125,0.28515625
1607,0.0751953125,-0.970703125,0.291015625
1608,0.072265625,-0.9716796875,0.2958984375
1609,0.072265625,-0.9716796875,0.3017578125
1610,0.0712890625,-0.96875,0.3046875
1611,0.07421875,-0.96875,0.30859375
1612,0.068359375,-0.9658203125,0.3115234375
1613,0.064453125,-0.9716796875,0.310546875
1614,0.0615234375,-0.96875,0.3125
1615,0.068359375,-0.970703125,0.318359375
1616,0.06640625,-0.9697265625,0.3125
1617,0.0615234375,-0.96875,0.3115234375
1618,0.05859375,-0.966796875,0.3193359375
1619,0.064453125,-0.9658203125,0.314453125
1620,0.06640625,-0.9638671875,0.3154296875
1621,0.0634765625,-0.9658203125,0.310546875
1622,0.0576171875,-0.9638671875,0.310546875
1623,0.060546875,-0.966796875,0.3095703125
1624,0.052734375,-0.9638671875,0.3115234375
1625,0.060546875,-0.966796875,0.30859375
1626,0.0576171875,-0.9638671875,0.3134765625
1627,0.048828125,-0.962890625,0.306640625
1628,0.0556640625,-0.96484375,0.30859375
1629,0.05078125,-0.9658203125,0.3037109375
1630,0.052734375,-0.966796875,0.302734375
1631,0.0556640625,-0.970703125,0.3076171875
1632,0.0517578125,-0.97265625,0.3037109375
1633,0.0595703125,-0.9677734375,0.302734375
1634,0.05859375,-0.970703125,0.296875
1635,0.0615234375,-0.9697265625,0.296875
1636,0.0615234375,-0.9638671875,0.2919921875
1637,0.06640625,-0.958984375,0.2919921875
1638,0.0634765625,-0.962890625,0.2880859375
1639,0.0634765625,-0.966796875,0.2861328125
1640,0.0654296875,-0.9619140625,0.2861328125
1641,0.06640625,-0.966796875,0.28515625
1642,0.068359375,-0.9697265625,0.2880859375
1643,0.0673828125,-0.9638671875,0.2841796875
1644,0.0751953125,-0.9619140625,0.2705078125
1645,0.0712890625,-0.970703125,0.287109375
1646,0.076171875,-0.9677734375,0.2841796875
1647,0.0791015625,-0.9697265625,0.287109375
1648,0.0751953125,-0.96484375,0.28515625
1649,0.0712890625,-0.966796875,0.28515625
1650,0.068359375,-0.9658203125,0.2890625
1651,0.0751953125,-0.9658203125,0.294921875
1652,0.076171875,-0.9697265625,0.296875
1653,0.0751953125,-0.9716796875,0.287109375
1654,0.07421875,-0.9697265625,0.30078125
1655,0.07421875,-0.9716796875,0.3046875
1656,0.0810546875,-0.9697265625,0.306640625
1657,0.083984375,-0.970703125,0.3046875
1658,0.0810546875,-0.9677734375,0.30859375
1659,0.0849609375,-0.970703125,0.3056640625
1660,0.0849609375,-0.9677734375,0.3056640625
1661,0.080078125,-0.9697265625,0.306640625
1662,0.0732421875,-0.970703125,0.314453125
1663,0.0712890625,-0.9697265625,0.3076171875
1664,0.0712890625,-0.9677734375,0.3212890625
1665,0.06640625,-0.974609375,0.3232421875
1666,0.0634765625,-0.97265625,0.3173828125
1667,0.068359375,-0.974609375,0.3173828125
1668,0.07421875,-0.9736328125,0.3232421875
1669,0.0703125,-0.970703125,0.3203125
1670,0.06640625,-0.9716796875,0.3212890625
1671,0.0615234375,-0.970703125,0.32421875
1672,0.0654296875,-0.9638671875,0.3203125
1673,0.064453125,-0.970703125,0.3154296875
1674,0.0673828125,-0.9677734375,0.3125
1675,0.0634765625,-0.9658203125,0.310546875
1676,0.0625,-0.962890625,0.30859375
1677,0.0625,-0.966796875,0.3115234375
1678,0.0654296875,-0.96875,0.3095703125
1679,0.068359375,-0.962890625,0.3095703125
1680,0.06640625,-0.962890625,0.30078125
1681,0.0615234375,-0.9658203125,0.302734375
1682,0.068359375,-0.9638671875,0.3056640625
1683,0.0693359375,-0.9599609375,0.302734375
1684,0.0673828125,-0.9658203125,0.30078125
1685,0.060546875,-0.9609375,0.296875
1686,0.064453125,-0.9609375,0.3017578125
1687,0.0634765625,-0.96875,0.2958984375
1688,0.0634765625,-0.962890625,0.2958984375
1689,0.0595703125,-0.96875,0.294921875
1690,0.060546875,-0.96484375,0.3046875
1691,0.0595703125,-0.9677734375,0.30078125
1692,0.05078125,-0.962890625,0.302734375
1693,0.0498046875,-0.96875,0.3046875
1694,0.0546875,-0.966796875,0.30078125
1695,0.0517578125,-0.9716796875,0.298828125
1696,0.0498046875,-0.970703125,0.2978515625
1697,0.046875,-0.9638671875,0.2958984375
1698,0.0517578125,-0.9609375,0.3017578125
1699,0.048828125,-0.9599609375,0.2978515625
1700,0.05078125,-0.9619140625,0.30078125
1701,0.0537109375,-0.9609375,0.306640625
1702,0.0517578125,-0.9619140625,0.3037109375
1703,0.0546875,-0.962890625,0.3076171875
1704,0.0537109375,-0.9609375,0.310546875
1705,0.052734375,-0.9638671875,0.3232421875
1706,0.0634765625,-0.9677734375,0.3154296875
1707,0.0595703125,-0.9658203125,0.326171875
1708,0.056640625,-0.96484375,0.3232421875
1709,0.0673828125,-0.9638671875,0.3173828125
1710,0.0615234375,-0.966796875,0.3251953125
1711,0.064453125,-0.962890625,0.3232421875
1712,0.060546875,-0.9599609375,0.3232421875
1713,0.0654296875,-0.96484375,0.3212890625
1714,0.0625,-0.9658203125,0.32421875
1715,0.0615234375,-0.958984375,0.32421875
1716,0.060546875,-0.96484375,0.32421875
1717,0.05859375,-0.958984375,0.3291015625
1718,0.0634765625,-0.962890625,0.326171875
1719,0.064453125,-0.96484375,0.330078125
1720,0.0712890625,-0.9609375,0.328125
1721,0.07421875,-0.9658203125,0.3173828125
1722,0.07421875,-0.962890625,0.3193359375
1723,0.0810546875,-0.9609375,0.326171875
1724,0.078125,-0.9638671875,0.3154296875
1725,0.078125,-0.9619140625,0.30859375
1726,0.0751953125,-0.962890625,0.3125
1727,0.0751953125,-0.9638671875,0.3056640625
1728,0.0732421875,-0.9638671875,0.3095703125
1729,0.0703125,-0.9609375,0.3076171875
1730,0.068359375,-0.9599609375,0.310546875
1731,0.068359375,-0.958984375,0.3154296875
1732,0.06640625,-0.9638671875,0.3134765625
1733,0.0673828125,-0.9619140625,0.3115234375
1734,0.06640625,-0.9638671875,0.322265625
1735,0.072265625,-0.9609375,0.314453125
1736,0.0712890625,-0.95703125,0.314453125
1737,0.0712890625,-0.9599609375,0.3203125
1738,0.0732421875,-0.9599609375,0.3134765625
1739,0.072265625,-0.95703125,0.3154296875
1740,0.0712890625,-0.9619140625,0.3076171875
1741,0.076171875,-0.9609375,0.3154296875
1742,0.07421875,-0.9619140625,0.31640625
1743,0.0751953125,-0.9609375,0.322265625
1744,0.0732421875,-0.9658203125,0.3125
1745,0.0703125,-0.962890625,0.322265625
1746,0.072265625,-0.962890625,0.3203125
1747,0.0732421875,-0.9677734375,0.328125
1748,0.0712890625,-0.96875,0.3232421875
1749,0.0654296875,-0.9658203125,0.32421875
1750,0.0693359375,-0.9658203125,0.318359375
1751,0.0634765625,-0.96484375,0.32421875
1752,0.0634765625,-0.9677734375,0.3251953125
1753,0.060546875,-0.9638671875,0.3232421875
1754,0.0625,-0.970703125,0.3193359375
1755,0.0546875,-0.966796875,0.318359375
1756,0.060546875,-0.970703125,0.32421875
1757,0.060546875,-0.9658203125,0.322265625
1758,0.0576171875,-0.9658203125,0.330078125
1759,0.0615234375,-0.96484375,0.3203125
1760,0.0615234375,-0.9677734375,0.3203125
1761,0.06640625,-0.9609375,0.3193359375
1762,0.0654296875,-0.9638671875,0.3203125
1763,0.0615234375,-0.9619140625,0.3203125
1764,0.056640625,-0.962890625,0.3212890625
1765,0.0625,-0.96484375,0.3134765625
1766,0.0595703125,-0.96484375,0.3193359375
1767,0.0595703125,-0.9609375,0.31640625
1768,0.0634765625,-0.9609375,0.3154296875
1769,0.060546875,-0.9619140625,0.314453125
1770,0.05859375,-0.96484375,0.3193359375
1771,0.060546875,-0.9609375,0.31640625
1772,0.060546875,-0.96484375,0.31640625
1773,0.056640625,-0.9599609375,0.3173828125
1774,0.0576171875,-0.962890625,0.32421875
1775,0.05859375,-0.96484375,0.3212890625
1776,0.05859375,-0.9599609375,0.3203125
1777,0.056640625,-0.958984375,0.318359375
1778,0.0615234375,-0.9609375,0.3212890625
1779,0.05859375,-0.9619140625,0.3251953125
1780,0.0625,-0.9599609375,0.3203125
1781,0.0673828125,-0.9619140625,0.3212890625
1782,0.0634765625,-0.9619140625,0.3203125
1783,0.0654296875,-0.962890625,0.3232421875
1784,0.0654296875,-0.9619140625,0.32421875
1785,0.068359375,-0.9619140625,0.3232421875
1786,0.06640625,-0.95703125,0.3173828125
1787,0.068359375,-0.9619140625,0.322265625
1788,0.0654296875,-0.9599609375,0.3203125
1789,0.064453125,-0.962890625,0.3232421875
1790,0.06640625,-0.9619140625,0.32421875
1791,0.0654296875,-0.966796875,0.3232421875
1792,0.0673828125,-0.9619140625,0.3232421875
1793,0.06640625,-0.9658203125,0.3251953125
1794,0.0673828125,-0.9638671875,0.318359375
1795,0.0654296875,-0.9658203125,0.318359375
1796,0.0673828125,-0.9638671875,0.3212890625
1797,0.072265625,-0.9638671875,0.32421875
1798,0.064453125,-0.9599609375,0.31640625
1799,0.068359375,-0.96484375,0.3212890625
1800,0.0673828125,-0.9599609375,0.3193359375
1801,0.06640625,-0.958984375,0.3203125
1802,0.0625,-0.9599609375,0.318359375
1803,0.064453125,-0.966796875,0.326171875
1804,0.0654296875,-0.9609375,0.3271484375
1805,0.0673828125,-0.96484375,0.3193359375
1806,0.06640625,-0.9599609375,0.322265625
1807,0.068359375,-0.958984375,0.32421875
1808,0.06640625,-0.962890625,0.3193359375
1809,0.06640625,-0.962890625,0.3203125
1810,0.0673828125,-0.9609375,0.3203125
1811,0.068359375,-0.962890625,0.322265625
1812,0.064453125,-0.9599609375,0.3232421875
1813,0.0673828125,-0.9609375,0.3232421875
1814,0.0615234375,-0.9638671875,0.3251953125
1815,0.0654296875,-0.96484375,0.32421875
1816,0.0693359375,-0.9658203125,0.3251953125
1817,0.0654296875,-0.9677734375,0.3232421875
1818,0.06640625,-0.9697265625,0.32421875
1819,0.0673828125,-0.970703125,0.31640625
1820,0.0703125,-0.9755859375,0.322265625
1821,0.064453125,-0.9716796875,0.3203125
1822,0.06640625,-0.970703125,0.322265625
1823,0.0673828125,-0.96484375,0.314453125
1824,0.06640625,-0.9609375,0.3115234375
1825,0.0654296875,-0.9599609375,0.314453125
1826,0.0615234375,-0.9580078125,0.3212890625
1827,0.0673828125,-0.9609375,0.3154296875
1828,0.06640625,-0.9521484375,0.3173828125
1829,0.064453125,-0.958984375,0.32421875
1830,0.060546875,-0.9609375,0.32421875
1831,0.064453125,-0.9638671875,0.32421875
1832,0.0654296875,-0.9609375,0.33203125
1833,0.0615234375,-0.958984375,0.3330078125
1834,0.060546875,-0.9638671875,0.3310546875
1835,0.060546875,-0.9580078125,0.326171875
1836,0.06640625,-0.9638671875,0.3291015625
1837,0.0634765625,-0.962890625,0.328125
1838,0.0654296875,-0.9609375,0.3310546875
1839,0.0634765625,-0.9619140625,0.330078125
1840,0.0625,-0.9580078125,0.328125
1841,0.068359375,-0.95703125,0.328125
1842,0.0634765625,-0.958984375,0.3271484375
1843,0.064453125,-0.9599609375,0.328125
1844,0.0634765625,-0.9580078125,0.3271484375
1845,0.0625,-0.958984375,0.32421875
1846,0.06640625,-0.958984375,0.3203125
1847,0.060546875,-0.9580078125,0.326171875
1848,0.0673828125,-0.9599609375,0.32421875
1849,0.0634765625,-0.9580078125,0.326171875
1850,0.0576171875,-0.962890625,0.32421875
1851,0.05859375,-0.9580078125,0.326171875
1852,0.064453125,-0.9619140625,0.326171875
1853,0.064453125,-0.953125,0.3251953125
1854,0.0654296875,-0.958984375,0.3291015625
1855,0.0673828125,-0.9599609375,0.328125
1856,0.06640625,-0.9619140625,0.322265625
1857,0.072265625,-0.958984375,0.3232421875
1858,0.0673828125,-0.9638671875,0.3271484375
1859,0.0712890625,-0.962890625,0.3271484375
1860,0.06640625,-0.9697265625,0.3212890625
1861,0.0703125,-0.9609375,0.328125
1862,0.0693359375,-0.9599609375,0.3251953125
1863,0.064453125,-0.958984375,0.3271484375
1864,0.06640625,-0.962890625,0.322265625
1865,0.0703125,-0.962890625,0.326171875
1866,0.06640625,-0.962890625,0.3271484375
1867,0.064453125,-0.9619140625,0.3232421875
1868,0.072265625,-0.962890625,0.330078125
1869,0.06640625,-0.9638671875,0.3359375
1870,0.068359375,-0.9638671875,0.32421875
1871,0.068359375,-0.958984375,0.3310546875
1872,0.06640625,-0.962890625,0.3251953125
1873,0.064453125,-0.966796875,0.32421875
1874,0.06640625,-0.9599609375,0.326171875
1875,0.0693359375,-0.9638671875,0.3212890625
1876,0.060546875,-0.9619140625,0.3232421875
1877,0.06640625,-0.9638671875,0.328125
1878,0.064453125,-0.9658203125,0.3271484375
1879,0.060546875,-0.962890625,0.322265625
1880,0.0654296875,-0.962890625,0.3251953125
1881,0.0634765625,-0.9677734375,0.3232421875
1882,0.0654296875,-0.96484375,0.31640625
1883,0.0625,-0.96484375,0.328125
1884,0.06640625,-0.9599609375,0.326171875
1885,0.06640625,-0.9658203125,0.3203125
1886,0.0654296875,-0.9677734375,0.318359375
1887,0.0654296875,-0.9638671875,0.3271484375
1888,0.0576171875,-0.95703125,0.3271484375
1889,0.0625,-0.96875,0.3291015625
1890,0.060546875,-0.966796875,0.3291015625
1891,0.0615234375,-0.9599609375,0.328125
1892,0.060546875,-0.95703125,0.328125
1893,0.0654296875,-0.9580078125,0.3232421875
1894,0.0625,-0.9609375,0.328125
1895,0.0654296875,-0.9609375,0.3310546875
1896,0.0634765625,-0.966796875,0.3232421875
1897,0.0615234375,-0.962890625,0.3203125
1898,0.0634765625,-0.9619140625,0.32421875
1899,0.064453125,-0.9599609375,0.322265625
1900,0.064453125,-0.94921875,0.33203125
1901,0.0615234375,-0.9580078125,0.326171875
1902,0.06640625,-0.958984375,0.32421875
1903,0.06640625,-0.9609375,0.326171875
1904,0.0625,-0.9599609375,0.3291015625
1905,0.0654296875,-0.958984375,0.3310546875
1906,0.064453125,-0.9521484375,0.3232421875
1907,0.06640625,-0.9638671875,0.3291015625
1908,0.0654296875,-0.9609375,0.3251953125
1909,0.064453125,-0.958984375,0.3291015625
1910,0.0625,-0.9580078125,0.32421875
1911,0.06640625,-0.9609375,0.3291015625
1912,0.0673828125,-0.958984375,0.3251953125
1913,0.0654296875,-0.958984375,0.326171875
1914,0.07421875,-0.958984375,0.3232421875
1915,0.0712890625,-0.962890625,0.3212890625
1916,0.0732421875,-0.9619140625,0.3193359375
1917,0.068359375,-0.9609375,0.32421875
1918,0.064453125,-0.958984375,0.3193359375
1919,0.0693359375,-0.9638671875,0.3203125
1920,0.0673828125,-0.9658203125,0.3203125
1921,0.0615234375,-0.9609375,0.3232421875
1922,0.064453125,-0.9677734375,0.3232421875
1923,0.0625,-0.96875,0.326171875
1924,0.0634765625,-0.96484375,0.326171875
1925,0.06640625,-0.96484375,0.322265625
1926,0.0634765625,-0.96484375,0.326171875
1927,0.0634765625,-0.958984375,0.3251953125
1928,0.06640625,-0.962890625,0.326171875
1929,0.064453125,-0.958984375,0.3203125
1930,0.06640625,-0.9609375,0.3271484375
1931,0.064453125,-0.9609375,0.32421875
1932,0.0595703125,-0.9619140625,0.3212890625
1933,0.0625,-0.9619140625,0.3232421875
1934,0.0595703125,-0.9580078125,0.326171875
1935,0.0625,-0.9638671875,0.328125
1936,0.064453125,-0.9599609375,0.328125
1937,0.0654296875,-0.953125,0.3251953125
1938,0.0673828125,-0.9609375,0.328125
1939,0.05859375,-0.962890625,0.330078125
1940,0.064453125,-0.9619140625,0.32421875
1941,0.0654296875,-0.962890625,0.3271484375
1942,0.064453125,-0.9677734375,0.3271484375
1943,0.0634765625,-0.962890625,0.3232421875
1944,0.0654296875,-0.96875,0.32421875
1945,0.0615234375,-0.9697265625,0.326171875
1946,0.068359375,-0.970703125,0.3251953125
1947,0.0693359375,-0.970703125,0.3291015625
1948,0.068359375,-0.9697265625,0.3271484375
1949,0.07421875,-0.9716796875,0.3232421875
1950,0.068359375,-0.966796875,0.318359375
1951,0.068359375,-0.9638671875,0.318359375
1952,0.06640625,-0.9599609375,0.31640625
1953,0.06640625,-0.958984375,0.31640625
1954,0.06640625,-0.955078125,0.3173828125
1955,0.064453125,-0.9560546875,0.3193359375
1956,0.0634765625,-0.9580078125,0.3251953125
1957,0.0625,-0.9541015625,0.328125
1958,0.0634765625,-0.958984375,0.32421875
1959,0.06640625,-0.958984375,0.3349609375
1960,0.064453125,-0.9580078125,0.3291015625
1961,0.068359375,-0.9560546875,0.333984375
1962,0.06640625,-0.9609375,0.330078125
1963,0.0625,-0.9580078125,0.326171875
1964,0.064453125,-0.9560546875,0.3291015625
1965,0.0654296875,-0.9609375,0.3291015625
1966,0.0634765625,-0.958984375,0.3251953125
1967,0.0615234375,-0.9560546875,0.33203125
1968,0.0673828125,-0.958984375,0.330078125
1969,0.0625,-0.9609375,0.32421875
1970,0.0654296875,-0.9609375,0.3271484375
1971,0.068359375,-0.9619140625,0.3251953125
1972,0.06640625,-0.9658203125,0.3291015625
1973,0.0693359375,-0.96484375,0.322265625
1974,0.0693359375,-0.962890625,0.32421875
1975,0.0732421875,-0.9580078125,0.3271484375
1976,0.072265625,-0.9560546875,0.3251953125
1977,0.0693359375,-0.9619140625,0.3232421875
1978,0.0654296875,-0.9541015625,0.322265625
1979,0.0673828125,-0.9599609375,0.326171875
1980,0.0625,-0.958984375,0.322265625
1981,0.064453125,-0.9599609375,0.3212890625
1982,0.0625,-0.966796875,0.326171875
1983,0.0634765625,-0.9638671875,0.3232421875
1984,0.06640625,-0.96484375,0.3271484375
1985,0.0634765625,-0.966796875,0.326171875
1986,0.0654296875,-0.9599609375,0.3291015625
1987,0.0634765625,-0.9580078125,0.32421875
1988,0.068359375,-0.955078125,0.3251953125
1989,0.064453125,-0.95703125,0.322265625
1990,0.0703125,-0.958984375,0.326171875
1991,0.0673828125,-0.9599609375,0.3271484375
1992,0.06640625,-0.9599609375,0.330078125
1993,0.0673828125,-0.958984375,0.330078125
1994,0.064453125,-0.95703125,0.328125
1995,0.06640625,-0.9619140625,0.3291015625
1996,0.06640625,-0.9609375,0.3232421875
1997,0.0634765625,-0.9599609375,0.32421875
1998,0.0703125,-0.9619140625,0.3232421875
1999,0.0595703125,-0.962890625,0.330078125
2000,0.06640625,-0.9658203125,0.32421875
2001,0.0625,-0.9599609375,0.3291015625
2002,0.0625,-0.9609375,0.328125
2003,0.06640625,-0.96875,0.3271484375
2004,0.0615234375,-0.96484375,0.330078125
2005,0.0625,-0.9638671875,0.326171875
2006,0.0654296875,-0.96875,0.322265625
2007,0.0654296875,-0.9638671875,0.3291015625
2008,0.068359375,-0.958984375,0.32421875
2009,0.0654296875,-0.962890625,0.330078125
2010,0.064453125,-0.9599609375,0.322265625
2011,0.0615234375,-0.9638671875,0.322265625
2012,0.0693359375,-0.9609375,0.326171875
2013,0.0693359375,-0.9609375,0.3203125
2014,0.0654296875,-0.9677734375,0.326171875
2015,0.0634765625,-0.96484375,0.3232421875
2016,0.0703125,-0.9580078125,0.322265625
2017,0.06640625,-0.962890625,0.322265625
2018,0.06640625,-0.9609375,0.3193359375
2019,0.0634765625,-0.96484375,0.322265625
2020,0.0595703125,-0.962890625,0.3203125
2021,0.0634765625,-0.962890625,0.3232421875
2022,0.0673828125,-0.9619140625,0.32421875
2023,0.0615234375,-0.9609375,0.32421875
2024,0.0634765625,-0.962890625,0.322265625
2025,0.0625,-0.9619140625,0.318359375
2026,0.064453125,-0.9599609375,0.3232421875
2027,0.0615234375,-0.9599609375,0.3271484375
2028,0.06640625,-0.9609375,0.328125
2029,0.064453125,-0.955078125,0.32421875
2030,0.064453125,-0.9619140625,0.322265625
2031,0.0654296875,-0.958984375,0.3251953125
2032,0.060546875,-0.9609375,0.32421875
2033,0.0625,-0.958984375,0.33203125
2034,0.06640625,-0.9609375,0.3291015625
2035,0.0673828125,-0.9599609375,0.3271484375
2036,0.0712890625,-0.966796875,0.326171875
2037,0.07421875,-0.9609375,0.3271484375
2038,0.0712890625,-0.9638671875,0.3291015625
2039,0.0703125,-0.9580078125,0.3232421875
2040,0.0703125,-0.9619140625,0.3212890625
2041,0.0703125,-0.9599609375,0.3251953125
2042,0.0732421875,-0.958984375,0.3232421875
2043,0.06640625,-0.9609375,0.322265625
2044,0.0654296875,-0.9638671875,0.326171875
2045,0.0634765625,-0.958984375,0.3271484375
2046,0.068359375,-0.958984375,0.33203125
2047,0.0654296875,-0.9619140625,0.328125
2048,0.064453125,-0.9599609375,0.3291015625
2049,0.068359375,-0.9580078125,0.3349609375
2050,0.0673828125,-0.958984375,0.3310546875
2051,0.064453125,-0.9580078125,0.3271484375
2052,0.064453125,-0.9619140625,0.3251953125
2053,0.0654296875,-0.9638671875,0.326171875
2054,0.0654296875,-0.9638671875,0.326171875
2055,0.064453125,-0.962890625,0.326171875
2056,0.0654296875,-0.9580078125,0.326171875
2057,0.068359375,-0.9619140625,0.3232421875
2058,0.068359375,-0.9658203125,0.3291015625
2059,0.068359375,-0.962890625,0.3271484375
2060,0.068359375,-0.9619140625,0.3232421875
2061,0.0693359375,-0.95703125,0.3291015625
2062,0.068359375,-0.966796875,0.3271484375
2063,0.0673828125,-0.9609375,0.3251953125
2064,0.0673828125,-0.9580078125,0.3271484375
2065,0.0673828125,-0.9619140625,0.3251953125
2066,0.068359375,-0.9619140625,0.32421875
2067,0.0634765625,-0.958984375,0.326171875
2068,0.0654296875,-0.9677734375,0.326171875
2069,0.0654296875,-0.9638671875,0.3291015625
2070,0.064453125,-0.9619140625,0.326171875
2071,0.0654296875,-0.9658203125,0.32421875
2072,0.0634765625,-0.966796875,0.326171875
2073,0.064453125,-0.966796875,0.3251953125
2074,0.0693359375,-0.966796875,0.328125
2075,0.06640625,-0.9697265625,0.3212890625
2076,0.068359375,-0.970703125,0.32421875
2077,0.068359375,-0.9658203125,0.322265625
2078,0.0673828125,-0.9609375,0.3173828125
2079,0.0703125,-0.962890625,0.3173828125
2080,0.06640625,-0.95703125,0.318359375
2081,0.064453125,-0.9580078125,0.3212890625
2082,0.064453125,-0.9580078125,0.32421875
2083,0.0673828125,-0.958984375,0.322265625
2084,0.0673828125,-0.9599609375,0.3271484375
2085,0.068359375,-0.953125,0.330078125
2086,0.064453125,-0.9599609375,0.3330078125
2087,0.0673828125,-0.9619140625,0.33203125
2088,0.06640625,-0.9560546875,0.328125
2089,0.0693359375,-0.962890625,0.330078125
2090,0.0634765625,-0.9599609375,0.3271484375
2091,0.0654296875,-0.9609375,0.3330078125
2092,0.0634765625,-0.958984375,0.3193359375
2093,0.06640625,-0.9619140625,0.3232421875
2094,0.060546875,-0.9560546875,0.3271484375
2095,0.06640625,-0.9580078125,0.3251953125
2096,0.064453125,-0.9580078125,0.3251953125
2097,0.0634765625,-0.9609375,0.3251953125
2098,0.068359375,-0.962890625,0.3212890625
2099,0.0703125,-0.962890625,0.32421875
2100,0.068359375,-0.9541015625,0.32421875
2101,0.0693359375,-0.9619140625,0.3212890625
2102,0.0673828125,-0.9560546875,0.3193359375
2103,0.0703125,-0.958984375,0.3193359375
2104,0.06640625,-0.95703125,0.318359375
2105,0.0634765625,-0.96484375,0.3134765625
2106,0.064453125,-0.95703125,0.3173828125
2107,0.06640625,-0.9609375,0.3193359375
2108,0.0673828125,-0.96484375,0.3203125
2109,0.0673828125,-0.9599609375,0.3154296875
2110,0.06640625,-0.962890625,0.31640625
2111,0.06640625,-0.966796875,0.3173828125
2112,0.06640625,-0.9599609375,0.3232421875
2113,0.06640625,-0.96484375,0.3193359375
2114,0.0625,-0.958984375,0.3115234375
2115,0.0693359375,-0.9619140625,0.3173828125
2116,0.06640625,-0.9697265625,0.318359375
2117,0.06640625,-0.9609375,0.3193359375
2118,0.0634765625,-0.9609375,0.3173828125
2119,0.06640625,-0.962890625,0.310546875
2120,0.072265625,-0.962890625,0.3193359375
2121,0.0732421875,-0.96484375,0.3251953125
2122,0.0673828125,-0.9609375,0.3125
2123,0.068359375,-0.962890625,0.32421875
2124,0.0732421875,-0.966796875,0.3212890625
2125,0.0673828125,-0.9619140625,0.314453125
2126,0.07421875,-0.9638671875,0.3134765625
2127,0.0693359375,-0.9677734375,0.3193359375
2128,0.0673828125,-0.9638671875,0.314453125
2129,0.064453125,-0.96484375,0.318359375
2130,0.0712890625,-0.966796875,0.3154296875
2131,0.0673828125,-0.9638671875,0.3173828125
2132,0.0615234375,-0.9658203125,0.3076171875
2133,0.0634765625,-0.9638671875,0.314453125
2134,0.064453125,-0.9658203125,0.310546875
2135,0.06640625,-0.9677734375,0.3193359375
2136,0.0654296875,-0.9736328125,0.314453125
2137,0.064453125,-0.9658203125,0.3154296875
2138,0.06640625,-0.9638671875,0.3154296875
2139,0.064453125,-0.9638671875,0.3134765625
2140,0.0654296875,-0.9638671875,0.3115234375
2141,0.0654296875,-0.9658203125,0.3076171875
2142,0.06640625,-0.9697265625,0.3125
2143,0.0654296875,-0.9658203125,0.3154296875
2144,0.07421875,-0.966796875,0.3154296875
2145,0.0673828125,-0.966796875,0.310546875
2146,0.0712890625,-0.9638671875,0.306640625
2147,0.068359375,-0.9716796875,0.310546875
2148,0.072265625,-0.9677734375,0.3076171875
2149,0.068359375,-0.9697265625,0.3125
2150,0.0673828125,-0.9599609375,0.306640625
2151,0.0654296875,-0.96875,0.3115234375
2152,0.0654296875,-0.96875,0.3076171875
2153,0.06640625,-0.9677734375,0.3095703125
2154,0.0673828125,-0.962890625,0.3115234375
2155,0.068359375,-0.9619140625,0.3154296875
2156,0.0654296875,-0.966796875,0.3095703125
2157,0.0673828125,-0.9619140625,0.3125
2158,0.0654296875,-0.962890625,0.310546875
2159,0.0634765625,-0.962890625,0.3095703125
2160,0.0673828125,-0.962890625,0.3056640625
2161,0.0654296875,-0.966796875,0.310546875
2162,0.0693359375,-0.962890625,0.310546875
2163,0.06640625,-0.9619140625,0.30859375
2164,0.0654296875,-0.966796875,0.318359375
2165,0.0634765625,-0.9599609375,0.314453125
2166,0.0703125,-0.96875,0.30859375
2167,0.0673828125,-0.9716796875,0.3046875
2168,0.076171875,-0.970703125,0.310546875
2169,0.07421875,-0.96875,0.30859375
2170,0.0703125,-0.96484375,0.306640625
2171,0.0703125,-0.9677734375,0.3017578125
2172,0.068359375,-0.966796875,0.3046875
2173,0.0673828125,-0.970703125,0.3046875
2174,0.06640625,-0.966796875,0.30078125
2175,0.0703125,-0.96875,0.3037109375
2176,0.0673828125,-0.970703125,0.3046875
2177,0.0654296875,-0.962890625,0.3125
2178,0.0615234375,-0.9677734375,0.310546875
2179,0.0654296875,-0.9677734375,0.3056640625
2180,0.0625,-0.970703125,0.3076171875
2181,0.0654296875,-0.966796875,0.3056640625
2182,0.06640625,-0.96484375,0.30859375
2183,0.0732421875,-0.962890625,0.3056640625
2184,0.06640625,-0.9677734375,0.302734375
2185,0.0673828125,-0.962890625,0.3046875
2186,0.0703125,-0.9609375,0.30078125
2187,0.068359375,-0.9638671875,0.3125
2188,0.0673828125,-0.9638671875,0.3046875
2189,0.06640625,-0.96484375,0.302734375
2190,0.06640625,-0.9638671875,0.3046875
2191,0.0712890625,-0.9677734375,0.296875
2192,0.0693359375,-0.9716796875,0.3046875
2193,0.0712890625,-0.974609375,0.3037109375
2194,0.0751953125,-0.97265625,0.302734375
2195,0.0732421875,-0.97265625,0.3037109375
2196,0.0693359375,-0.96875,0.302734375
2197,0.0693359375,-0.9755859375,0.30078125
2198,0.06640625,-0.9716796875,0.2998046875
2199,0.07421875,-0.970703125,0.2998046875
2200,0.0703125,-0.97265625,0.302734375
2201,0.0693359375,-0.9716796875,0.3017578125
2202,0.0693359375,-0.9716796875,0.294921875
2203,0.0703125,-0.9716796875,0.2998046875
2204,0.0693359375,-0.974609375,0.2998046875
2205,0.0625,-0.974609375,0.2958984375
2206,0.0654296875,-0.970703125,0.2958984375
2207,0.0703125,-0.96875,0.294921875
2208,0.0673828125,-0.9677734375,0.298828125
2209,0.064453125,-0.9638671875,0.294921875
2210,0.072265625,-0.966796875,0.30078125
2211,0.0693359375,-0.9658203125,0.3017578125
2212,0.072265625,-0.966796875,0.3037109375
2213,0.0751953125,-0.9716796875,0.30078125
2214,0.0712890625,-0.9697265625,0.3037109375
2215,0.072265625,-0.970703125,0.3037109375
2216,0.072265625,-0.9658203125,0.3037109375
2217,0.0712890625,-0.97265625,0.302734375
2218,0.0732421875,-0.9658203125,0.3076171875
2219,0.07421875,-0.9609375,0.3056640625
2220,0.072265625,-0.9697265625,0.2998046875
2221,0.068359375,-0.96875,0.30078125
2222,0.072265625,-0.966796875,0.3037109375
2223,0.0703125,-0.9638671875,0.3056640625
2224,0.0654296875,-0.966796875,0.3017578125
2225,0.0693359375,-0.9638671875,0.2998046875
2226,0.0703125,-0.966796875,0.30078125
2227,0.0654296875,-0.96484375,0.30078125
2228,0.06640625,-0.9638671875,0.3037109375
2229,0.0732421875,-0.9638671875,0.302734375
2230,0.068359375,-0.96875,0.296875
2231,0.0654296875,-0.9658203125,0.3037109375
2232,0.072265625,-0.96484375,0.30078125
2233,0.072265625,-0.9658203125,0.296875
2234,0.07421875,-0.9677734375,0.2978515625
2235,0.0712890625,-0.9677734375,0.296875
2236,0.068359375,-0.966796875,0.302734375
2237,0.068359375,-0.9677734375,0.3046875
2238,0.07421875,-0.966796875,0.296875
2239,0.0654296875,-0.970703125,0.296875
2240,0.0712890625,-0.9677734375,0.291015625
2241,0.068359375,-0.9677734375,0.2939453125
2242,0.0693359375,-0.96875,0.30078125
2243,0.0673828125,-0.9736328125,0.296875
2244,0.0673828125,-0.9716796875,0.3037109375
2245,0.0703125,-0.9609375,0.30078125
2246,0.0693359375,-0.9697265625,0.296875
2247,0.0712890625,-0.96484375,0.2978515625
2248,0.0712890625,-0.9716796875,0.298828125
2249,0.0693359375,-0.970703125,0.296875
2250,0.0703125,-0.9697265625,0.29296875
2251,0.06640625,-0.97265625,0.2958984375
2252,0.0673828125,-0.970703125,0.29296875
2253,0.0703125,-0.9697265625,0.29296875
2254,0.0673828125,-0.97265625,0.29296875
2255,0.068359375,-0.9716796875,0.29296875
2256,0.0693359375,-0.9716796875,0.291015625
2257,0.07421875,-0.9677734375,0.2890625
2258,0.07421875,-0.96875,0.2880859375
2259,0.0712890625,-0.9716796875,0.2900390625
2260,0.072265625,-0.9736328125,0.2890625
2261,0.0693359375,-0.9716796875,0.2890625
2262,0.0673828125,-0.9716796875,0.2890625
2263,0.0703125,-0.97265625,0.291015625
2264,0.072265625,-0.9716796875,0.2900390625
2265,0.072265625,-0.97265625,0.2880859375
2266,0.0712890625,-0.9716796875,0.2919921875
2267,0.0703125,-0.9736328125,0.2890625
2268,0.078125,-0.970703125,0.2900390625
2269,0.072265625,-0.97265625,0.2919921875
2270,0.072265625,-0.9716796875,0.2919921875
2271,0.07421875,-0.9716796875,0.2900390625
2272,0.072265625,-0.9716796875,0.287109375
2273,0.07421875,-0.9697265625,0.291015625
2274,0.07421875,-0.9736328125,0.2900390625
2275,0.0703125,-0.9716796875,0.2880859375
2276,0.0732421875,-0.9697265625,0.291015625
2277,0.0712890625,-0.97265625,0.2939453125
2278,0.076171875,-0.9716796875,0.29296875
2279,0.0732421875,-0.970703125,0.29296875
2280,0.07421875,-0.966796875,0.291015625
2281,0.0712890625,-0.9619140625,0.287109375
2282,0.0732421875,-0.96875,0.2890625
2283,0.0673828125,-0.970703125,0.28125
2284,0.068359375,-0.97265625,0.2880859375
2285,0.0732421875,-0.9677734375,0.291015625
2286,0.076171875,-0.966796875,0.291015625
2287,0.0732421875,-0.9677734375,0.2919921875
2288,0.0732421875,-0.966796875,0.291015625
2289,0.068359375,-0.9658203125,0.2880859375
2290,0.068359375,-0.9697265625,0.287109375
2291,0.0703125,-0.97265625,0.291015625
2292,0.0693359375,-0.97265625,0.2890625
2293,0.068359375,-0.9716796875,0.29296875
2294,0.06640625,-0.9716796875,0.2880859375
2295,0.0712890625,-0.9677734375,0.29296875
2296,0.068359375,-0.9716796875,0.28515625
2297,0.0693359375,-0.96875,0.2900390625
2298,0.0673828125,-0.9677734375,0.2919921875
2299,0.0703125,-0.9736328125,0.2890625
2300,0.0703125,-0.9736328125,0.2939453125
2301,0.072265625,-0.9716796875,0.2900390625
2302,0.0732421875,-0.97265625,0.294921875
2303,0.0751953125,-0.9697265625,0.29296875
2304,0.072265625,-0.970703125,0.291015625
2305,0.0732421875,-0.97265625,0.2900390625
2306,0.07421875,-0.9658203125,0.2939453125
2307,0.0732421875,-0.9697265625,0.28515625
2308,0.072265625,-0.9716796875,0.2900390625
2309,0.0732421875,-0.9638671875,0.28515625
2310,0.072265625,-0.970703125,0.2880859375
2311,0.0693359375,-0.9716796875,0.2900390625
2312,0.0703125,-0.9697265625,0.2841796875
2313,0.080078125,-0.970703125,0.2841796875
2314,0.0712890625,-0.96484375,0.2939453125
2315,0.0693359375,-0.9697265625,0.2880859375
2316,0.072265625,-0.9677734375,0.287109375
2317,0.0712890625,-0.9697265625,0.28515625
2318,0.0732421875,-0.970703125,0.2900390625
2319,0.0732421875,-0.97265625,0.287109375
2320,0.0703125,-0.9736328125,0.287109375
2321,0.07421875,-0.9677734375,0.2880859375
2322,0.068359375,-0.974609375,0.2919921875
2323,0.0673828125,-0.96875,0.2919921875
2324,0.0673828125,-0.974609375,0.2880859375
2325,0.0673828125,-0.9736328125,0.29296875
2326,0.0693359375,-0.9765625,0.2890625
2327,0.0732421875,-0.97265625,0.294921875
2328,0.0732421875,-0.9775390625,0.29296875
2329,0.0712890625,-0.98046875,0.287109375
2330,0.072265625,-0.978515625,0.2900390625
2331,0.0712890625,-0.9833984375,0.2900390625
2332,0.072265625,-0.9736328125,0.2880859375
2333,0.0751953125,-0.9736328125,0.2880859375
2334,0.0771484375,-0.9755859375,0.29296875
2335,0.076171875,-0.97265625,0.28515625
2336,0.07421875,-0.9697265625,0.283203125
2337,0.076171875,-0.966796875,0.291015625
2338,0.0732421875,-0.96875,0.2939453125
2339,0.0712890625,-0.96875,0.2978515625
2340,0.072265625,-0.9658203125,0.2919921875
2341,0.0712890625,-0.966796875,0.2998046875
2342,0.0673828125,-0.9697265625,0.2939453125
2343,0.078125,-0.9697265625,0.298828125
2344,0.07421875,-0.9716796875,0.287109375
2345,0.0751953125,-0.966796875,0.2958984375
2346,0.0751953125,-0.9658203125,0.294921875
2347,0.07421875,-0.9716796875,0.29296875
2348,0.06640625,-0.9677734375,0.2919921875
2349,0.0703125,-0.970703125,0.2880859375
2350,0.0712890625,-0.9658203125,0.2861328125
2351,0.064453125,-0.9638671875,0.2900390625
2352,0.068359375,-0.9677734375,0.2919921875
2353,0.0673828125,-0.96484375,0.2861328125
2354,0.0712890625,-0.9677734375,0.2919921875
2355,0.0732421875,-0.9677734375,0.29296875
2356,0.0712890625,-0.966796875,0.2900390625
2357,0.0732421875,-0.9658203125,0.2890625
2358,0.0703125,-0.9697265625,0.28515625
2359,0.0703125,-0.9638671875,0.2880859375
2360,0.064453125,-0.970703125,0.2880859375
2361,0.06640625,-0.9658203125,0.287109375
2362,0.06640625,-0.96875,0.2919921875
2363,0.06640625,-0.970703125,0.283203125
2364,0.0751953125,-0.9716796875,0.2890625
2365,0.07421875,-0.9716796875,0.294921875
2366,0.078125,-0.97265625,0.2890625
2367,0.0751953125,-0.9677734375,0.2919921875
2368,0.072265625,-0.9697265625,0.2939453125
2369,0.0693359375,-0.974609375,0.29296875
2370,0.07421875,-0.970703125,0.2880859375
2371,0.076171875,-0.96875,0.2890625
2372,0.0712890625,-0.9697265625,0.29296875
2373,0.0703125,-0.96875,0.291015625
2374,0.072265625,-0.9736328125,0.2939453125
2375,0.072265625,-0.9697265625,0.2880859375
2376,0.072265625,-0.974609375,0.291015625
2377,0.0751953125,-0.970703125,0.2919921875
2378,0.0771484375,-0.9755859375,0.2919921875
2379,0.07421875,-0.9716796875,0.2890625
2380,0.0751953125,-0.9716796875,0.291015625
2381,0.07421875,-0.974609375,0.28515625
2382,0.0712890625,-0.9677734375,0.2841796875
2383,0.072265625,-0.96875,0.28515625
2384,0.0712890625,-0.97265625,0.2939453125
2385,0.06640625,-0.96484375,0.2880859375
2386,0.068359375,-0.970703125,0.291015625
2387,0.0732421875,-0.970703125,0.291015625
2388,0.068359375,-0.96875,0.2939453125
2389,0.07421875,-0.9658203125,0.2900390625
2390,0.07421875,-0.9658203125,0.2880859375
2391,0.07421875,-0.9697265625,0.2890625
2392,0.07421875,-0.970703125,0.2900390625
2393,0.068359375,-0.96484375,0.2900390625
2394,0.0712890625,-0.9677734375,0.2880859375
2395,0.064453125,-0.96875,0.2890625
2396,0.06640625,-0.97265625,0.29296875
2397,0.0673828125,-0.9716796875,0.2939453125
2398,0.0703125,-0.97265625,0.2919921875
2399,0.0751953125,-0.970703125,0.287109375
2400,0.0703125,-0.97265625,0.2919921875
2401,0.0732421875,-0.9658203125,0.283203125
2402,0.07421875,-0.9697265625,0.2880859375
2403,0.0732421875,-0.974609375,0.291015625
2404,0.072265625,-0.9658203125,0.28515625
2405,0.0693359375,-0.962890625,0.2841796875
2406,0.0712890625,-0.970703125,0.2919921875
2407,0.0654296875,-0.9658203125,0.2841796875
2408,0.072265625,-0.9697265625,0.28125
2409,0.0693359375,-0.9677734375,0.2900390625
2410,0.0673828125,-0.9658203125,0.287109375
2411,0.0693359375,-0.97265625,0.2890625
2412,0.0712890625,-0.966796875,0.2900390625
2413,0.0673828125,-0.97265625,0.2861328125
2414,0.06640625,-0.970703125,0.2939453125
2415,0.0654296875,-0.97265625,0.2890625
2416,0.072265625,-0.9736328125,0.2900390625
2417,0.06640625,-0.97265625,0.2880859375
2418,0.0673828125,-0.9736328125,0.2861328125
2419,0.07421875,-0.974609375,0.291015625
2420,0.0751953125,-0.97265625,0.29296875
2421,0.0732421875,-0.9736328125,0.2841796875
2422,0.072265625,-0.974609375,0.287109375
2423,0.0693359375,-0.966796875,0.2900390625
2424,0.0732421875,-0.9736328125,0.287109375
2425,0.07421875,-0.9697265625,0.291015625
2426,0.072265625,-0.97265625,0.2919921875
2427,0.076171875,-0.970703125,0.2900390625
2428,0.0751953125,-0.97265625,0.2939453125
2429,0.0703125,-0.9716796875,0.2958984375
2430,0.0703125,-0.9716796875,0.291015625
2431,0.0673828125,-0.97265625,0.2958984375
2432,0.06640625,-0.9755859375,0.2919921875
2433,0.0703125,-0.9716796875,0.294921875
2434,0.0693359375,-0.970703125,0.2880859375
2435,0.0732421875,-0.974609375,0.287109375
2436,0.068359375,-0.9716796875,0.2880859375
2437,0.0703125,-0.970703125,0.2880859375
2438,0.0693359375,-0.9658203125,0.2880859375
2439,0.0732421875,-0.9697265625,0.2861328125
2440,0.0693359375,-0.96875,0.283203125
2441,0.0693359375,-0.966796875,0.2861328125
2442,0.0712890625,-0.9677734375,0.291015625
2443,0.0712890625,-0.9619140625,0.287109375
2444,0.072265625,-0.96484375,0.2890625
2445,0.068359375,-0.96875,0.287109375
2446,0.0693359375,-0.9677734375,0.287109375
2447,0.076171875,-0.970703125,0.2890625
2448,0.0732421875,-0.96875,0.28515625
2449,0.0693359375,-0.970703125,0.2919921875
2450,0.06640625,-0.9736328125,0.2890625
2451,0.072265625,-0.9677734375,0.2890625
2452,0.06640625,-0.9716796875,0.2900390625
2453,0.0673828125,-0.97265625,0.29296875
2454,0.06640625,-0.9755859375,0.2880859375
2455,0.0703125,-0.9697265625,0.291015625
2456,0.0693359375,-0.9716796875,0.2900390625
2457,0.0673828125,-0.9658203125,0.28515625
2458,0.0712890625,-0.970703125,0.287109375
2459,0.0703125,-0.96484375,0.283203125
2460,0.06640625,-0.96484375,0.275390625
2461,0.07421875,-0.962890625,0.2841796875
2462,0.0703125,-0.96875,0.287109375
2463,0.0732421875,-0.96875,0.2880859375
2464,0.07421875,-0.9638671875,0.296875
2465,0.078125,-0.96484375,0.2958984375
2466,0.0791015625,-0.9697265625,0.2958984375
2467,0.078125,-0.962890625,0.2958984375
2468,0.0712890625,-0.9716796875,0.296875
2469,0.0771484375,-0.96484375,0.291015625
2470,0.072265625,-0.97265625,0.294921875
2471,0.068359375,-0.9716796875,0.2958984375
2472,0.0673828125,-0.974609375,0.29296875
2473,0.0634765625,-0.974609375,0.2939453125
2474,0.064453125,-0.9716796875,0.287109375
2475,0.0625,-0.9736328125,0.287109375
2476,0.0615234375,-0.96484375,0.28125
2477,0.064453125,-0.958984375,0.2783203125
2478,0.0625,-0.9658203125,0.27734375
2479,0.0615234375,-0.9609375,0.271484375
2480,0.0693359375,-0.9619140625,0.265625
2481,0.0625,-0.9677734375,0.271484375
2482,0.0556640625,-0.9716796875,0.2744140625
2483,0.0654296875,-0.970703125,0.2724609375
2484,0.0625,-0.9638671875,0.2783203125
2485,0.0576171875,-0.96484375,0.283203125
2486,0.05859375,-0.958984375,0.28515625
2487,0.05859375,-0.9599609375,0.283203125
2488,0.0615234375,-0.95703125,0.275390625
2489,0.0615234375,-0.9599609375,0.2890625
2490,0.064453125,-0.962890625,0.2861328125
2491,0.0654296875,-0.9638671875,0.2861328125
2492,0.0712890625,-0.9609375,0.2880859375
2493,0.06640625,-0.9619140625,0.2861328125
2494,0.07421875,-0.958984375,0.2880859375
2495,0.078125,-0.9599609375,0.28515625
2496,0.078125,-0.9619140625,0.2919921875
2497,0.0830078125,-0.9658203125,0.2919921875
2498,0.08203125,-0.9599609375,0.29296875
2499,0.0859375,-0.958984375,0.30078125
2500,0.0859375,-0.9501953125,0.2958984375
2501,0.09375,-0.9560546875,0.291015625
2502,0.0966796875,-0.9541015625,0.3017578125
2503,0.1044921875,-0.9638671875,0.30078125
2504,0.119140625,-0.966796875,0.2939453125
2505,0.1240234375,-0.97265625,0.3017578125
2506,0.1376953125,-0.9775390625,0.298828125
2507,0.1416015625,-0.98828125,0.294921875
2508,0.1416015625,-0.9873046875,0.287109375
2509,0.1337890625,-0.9833984375,0.2783203125
2510,0.1259765625,-0.9794921875,0.267578125
2511,0.123046875,-0.9775390625,0.2568359375
2512,0.12109375,-0.970703125,0.24609375
2513,0.111328125,-0.96875,0.2392578125
2514,0.1064453125,-0.96484375,0.2373046875
2515,0.099609375,-0.9619140625,0.236328125
2516,0.099609375,-0.9580078125,0.2275390625
2517,0.091796875,-0.958984375,0.22265625
2518,0.095703125,-0.9580078125,0.22265625
2519,0.087890625,-0.958984375,0.2216796875
2520,0.08203125,-0.958984375,0.2265625
2521,0.080078125,-0.966796875,0.21875
2522,0.076171875,-0.9736328125,0.2216796875
2523,0.07421875,-0.9814453125,0.21484375
2524,0.078125,-0.9853515625,0.220703125
2525,0.0771484375,-0.9814453125,0.212890625
2526,0.080078125,-0.9892578125,0.2138671875
2527,0.0771484375,-0.9970703125,0.2197265625
2528,0.0771484375,-0.9951171875,0.2216796875
2529,0.07421875,-0.990234375,0.2236328125
2530,0.0732421875,-0.98828125,0.234375
2531,0.0703125,-0.9853515625,0.244140625
2532,0.0732421875,-0.982421875,0.255859375
2533,0.068359375,-0.984375,0.2509765625
2534,0.0712890625,-0.9794921875,0.2578125
2535,0.072265625,-0.98046875,0.2587890625
2536,0.0693359375,-0.982421875,0.2626953125
2537,0.0673828125,-0.978515625,0.267578125
2538,0.0712890625,-0.9775390625,0.26953125
2539,0.0654296875,-0.978515625,0.2666015625
2540,0.0703125,-0.978515625,0.27734375
2541,0.068359375,-0.9833984375,0.2744140625
2542,0.0673828125,-0.9765625,0.28125
2543,0.0673828125,-0.9814453125,0.28125
2544,0.060546875,-0.9814453125,0.2841796875
2545,0.0595703125,-0.978515625,0.2822265625
2546,0.0625,-0.9853515625,0.28515625
2547,0.064453125,-0.9921875,0.28515625
2548,0.06640625,-0.994140625,0.283203125
2549,0.0654296875,-1.0,0.271484375
2550,0.0576171875,-0.99609375,0.2734375
2551,0.05859375,-1.0,0.267578125
2552,0.0625,-1.005859375,0.267578125
2553,0.068359375,-1.0107421875,0.267578125
2554,0.0712890625,-1.0078125,0.265625
2555,0.0673828125,-1.001953125,0.259765625
2556,0.0654296875,-1.0029296875,0.259765625
2557,0.0703125,-1.01171875,0.25390625
2558,0.06640625,-1.0048828125,0.2529296875
2559,0.0703125,-1.0029296875,0.251953125
2560,0.0732421875,-1.0078125,0.25390625
2561,0.0703125,-1.005859375,0.244140625
2562,0.0712890625,-1.01171875,0.248046875
2563,0.0732421875,-1.0107421875,0.234375
2564,0.0703125,-1.009765625,0.236328125
2565,0.07421875,-1.0126953125,0.23046875
2566,0.0771484375,-1.009765625,0.22265625
2567,0.0810546875,-1.009765625,0.2216796875
2568,0.0849609375,-1.0009765625,0.21875
2569,0.078125,-1.0009765625,0.2275390625
2570,0.072265625,-1.015625,0.2333984375
2571,0.0615234375,-1.03125,0.2392578125
2572,0.0546875,-1.04296875,0.2451171875
2573,0.02734375,-1.0625,0.2373046875
2574,0.0048828125,-1.0732421875,0.2275390625
2575,-0.0166015625,-1.0986328125,0.1982421875
2576,-0.0283203125,-1.107421875,0.1572265625
2577,-0.03125,-1.1171875,0.1240234375
2578,-0.037109375,-1.12109375,0.0908203125
2579,-0.025390625,-1.1044921875,0.0751953125
2580,-0.0126953125,-1.0888671875,0.0751953125
2581,-0.005859375,-1.07421875,0.1015625
2582,0.01171875,-1.064453125,0.1474609375
2583,0.0205078125,-1.0517578125,0.2109375
2584,0.021484375,-1.033203125,0.26171875
2585,0.0302734375,-1.0,0.30859375
2586,0.0322265625,-0.978515625,0.333984375
2587,0.0478515625,-0.943359375,0.34375
2588,0.0732421875,-0.91796875,0.3515625
2589,0.0908203125,-0.89453125,0.3466796875
2590,0.091796875,-0.8642578125,0.3515625
2591,0.0791015625,-0.849609375,0.353515625
2592,0.06640625,-0.84375,0.3642578125
2593,0.07421875,-0.8642578125,0.384765625
2594,0.05859375,-0.8857421875,0.4111328125
2595,0.0546875,-0.900390625,0.423828125
2596,0.04296875,-0.912109375,0.427734375
2597,0.0224609375,-0.921875,0.443359375
2598,0.0107421875,-0.9267578125,0.44140625
2599,0.025390625,-0.9248046875,0.4169921875
2600,0.0244140625,-0.9169921875,0.404296875
2601,0.0078125,-0.908203125,0.3857421875
2602,0.0,-0.90234375,0.3779296875
2603,-0.013671875,-0.890625,0.375
2604,-0.0478515625,-0.8837890625,0.3837890625
2605,-0.0576171875,-0.8818359375,0.3896484375
2606,-0.0615234375,-0.884765625,0.412109375
2607,-0.05859375,-0.8779296875,0.4228515625
2608,-0.0625,-0.880859375,0.431640625
2609,-0.05859375,-0.8798828125,0.44921875
2610,-0.072265625,-0.880859375,0.474609375
2611,-0.076171875,-0.8876953125,0.4794921875
2612,-0.0634765625,-0.8896484375,0.47265625
2613,-0.068359375,-0.89453125,0.4697265625
2614,-0.0595703125,-0.8955078125,0.4619140625
2615,-0.0751953125,-0.8955078125,0.458984375
2616,-0.0849609375,-0.8955078125,0.4501953125
2617,-0.08984375,-0.9033203125,0.4541015625
2618,-0.0859375,-0.9052734375,0.44921875
2619,-0.0849609375,-0.90625,0.439453125
2620,-0.08203125,-0.9072265625,0.4326171875
2621,-0.087890625,-0.912109375,0.4306640625
2622,-0.0810546875,-0.916015625,0.4140625
2623,-0.083984375,-0.923828125,0.40234375
2624,-0.0830078125,-0.9228515625,0.4052734375
2625,-0.078125,-0.9228515625,0.396484375
2626,-0.080078125,-0.91796875,0.3876953125
2627,-0.08203125,-0.9267578125,0.3828125
2628,-0.076171875,-0.931640625,0.38671875
2629,-0.0576171875,-0.935546875,0.3818359375
2630,-0.0458984375,-0.9423828125,0.37890625
2631,-0.0361328125,-0.9453125,0.380859375
2632,-0.03125,-0.9482421875,0.3662109375
2633,-0.0302734375,-0.947265625,0.3525390625
2634,-0.03515625,-0.9423828125,0.3408203125
2635,-0.0263671875,-0.9375,0.3251953125
2636,-0.0322265625,-0.927734375,0.3154296875
2637,-0.0400390625,-0.9228515625,0.2978515625
2638,-0.037109375,-0.916015625,0.2919921875
2639,-0.021484375,-0.90234375,0.28515625
2640,-0.01953125,-0.8955078125,0.29296875
2641,-0.025390625,-0.869140625,0.3076171875
2642,-0.0400390625,-0.853515625,0.3115234375
2643,-0.060546875,-0.83984375,0.3212890625
2644,-0.0703125,-0.8583984375,0.328125
2645,-0.0771484375,-0.884765625,0.3310546875
2646,-0.0732421875,-0.9072265625,0.3427734375
2647,-0.07421875,-0.916015625,0.34765625
2648,-0.0673828125,-0.927734375,0.35546875
2649,-0.060546875,-0.9326171875,0.3525390625
2650,-0.03515625,-0.9384765625,0.35546875
2651,-0.0205078125,-0.943359375,0.3525390625
2652,-0.001953125,-0.9423828125,0.3505859375
2653,0.01171875,-0.9384765625,0.357421875
2654,0.0302734375,-0.9365234375,0.3466796875
2655,0.044921875,-0.939453125,0.34375
2656,0.0615234375,-0.94140625,0.349609375
2657,0.0712890625,-0.9482421875,0.35546875
2658,0.06640625,-0.9521484375,0.36328125
2659,0.0634765625,-0.953125,0.376953125
2660,0.0576171875,-0.953125,0.3828125
2661,0.0546875,-0.9560546875,0.396484375
2662,0.046875,-0.958984375,0.404296875
2663,0.0419921875,-0.966796875,0.40234375
2664,0.037109375,-0.9736328125,0.40234375
2665,0.029296875,-0.982421875,0.3994140625
2666,0.0126953125,-0.9892578125,0.3984375
2667,0.015625,-0.994140625,0.38671875
2668,0.015625,-1.0048828125,0.3896484375
2669,0.01953125,-1.0166015625,0.3828125
2670,0.0205078125,-1.0087890625,0.3740234375
2671,0.0126953125,-1.0146484375,0.3720703125
2672,0.021484375,-1.0029296875,0.3671875
2673,0.021484375,-1.001953125,0.3583984375
2674,0.0166015625,-0.994140625,0.36328125
2675,0.0146484375,-0.9892578125,0.361328125
2676,0.009765625,-0.9814453125,0.3427734375
2677,0.0185546875,-0.98046875,0.330078125
2678,0.01953125,-0.982421875,0.328125
2679,0.0185546875,-0.9833984375,0.322265625
2680,0.0068359375,-0.9892578125,0.31640625
2681,0.005859375,-0.99609375,0.30859375
2682,0.0068359375,-1.005859375,0.3056640625
2683,0.0068359375,-1.0087890625,0.306640625
2684,0.0078125,-1.01171875,0.2998046875
2685,0.0078125,-1.017578125,0.2978515625
2686,-0.001953125,-1.0185546875,0.294921875
2687,-0.0087890625,-1.017578125,0.2880859375
2688,-0.0009765625,-1.0166015625,0.2724609375
2689,0.005859375,-1.0068359375,0.2529296875
2690,-0.00390625,-1.0068359375,0.25
2691,-0.0087890625,-1.0048828125,0.240234375
2692,-0.015625,-1.0009765625,0.2412109375
2693,-0.03125,-1.0,0.228515625
2694,-0.052734375,-1.001953125,0.21875
2695,-0.056640625,-1.0029296875,0.2158203125
2696,-0.0595703125,-1.00390625,0.212890625
2697,-0.064453125,-1.0087890625,0.2041015625
2698,-0.078125,-1.0,0.2001953125
2699,-0.091796875,-0.99609375,0.1962890625
2700,-0.0908203125,-0.994140625,0.1845703125
2701,-0.0927734375,-0.994140625,0.1826171875
2702,-0.0908203125,-0.9873046875,0.173828125
2703,-0.09765625,-0.9853515625,0.1708984375
2704,-0.0986328125,-0.9814453125,0.1728515625
2705,-0.1005859375,-0.9775390625,0.16796875
2706,-0.115234375,-0.9794921875,0.1708984375
2707,-0.1181640625,-0.974609375,0.1669921875
2708,-0.12109375,-0.9765625,0.162109375
2709,-0.13671875,-0.9794921875,0.16015625
2710,-0.1455078125,-0.9912109375,0.1494140625
2711,-0.1552734375,-0.9892578125,0.1513671875
2712,-0.1572265625,-0.990234375,0.140625
2713,-0.171875,-0.9873046875,0.1337890625
2714,-0.1826171875,-0.9873046875,0.126953125
2715,-0.1865234375,-0.9736328125,0.1201171875
2716,-0.197265625,-0.96484375,0.125
2717,-0.2041015625,-0.9580078125,0.123046875
2718,-0.2060546875,-0.947265625,0.115234375
2719,-0.2158203125,-0.943359375,0.1083984375
2720,-0.234375,-0.9296875,0.103515625
2721,-0.2373046875,-0.921875,0.09375
2722,-0.2333984375,-0.9072265625,0.087890625
2723,-0.2333984375,-0.8974609375,0.0947265625
2724,-0.2236328125,-0.8935546875,0.083984375
2725,-0.2099609375,-0.8974609375,0.08984375
2726,-0.19140625,-0.912109375,0.0908203125
2727,-0.162109375,-0.9267578125,0.0927734375
2728,-0.1513671875,-0.94921875,0.0986328125
2729,-0.138671875,-0.9765625,0.103515625
2730,-0.1328125,-0.994140625,0.1083984375
2731,-0.1298828125,-1.013671875,0.109375
2732,-0.1435546875,-1.0400390625,0.123046875
2733,-0.138671875,-1.0498046875,0.1044921875
2734,-0.13671875,-1.0556640625,0.099609375
2735,-0.12890625,-1.0517578125,0.091796875
2736,-0.123046875,-1.0517578125,0.07421875
2737,-0.1220703125,-1.0458984375,0.0751953125
2738,-0.126953125,-1.0419921875,0.060546875
2739,-0.1435546875,-1.0390625,0.052734375
2740,-0.1455078125,-1.0302734375,0.0537109375
2741,-0.1552734375,-1.029296875,0.044921875
2742,-0.15234375,-1.0283203125,0.046875
2743,-0.162109375,-1.015625,0.0498046875
2744,-0.1689453125,-1.0068359375,0.0517578125
2745,-0.173828125,-1.005859375,0.0517578125
2746,-0.177734375,-1.0068359375,0.0361328125
2747,-0.1767578125,-0.998046875,0.0322265625
2748,-0.1904296875,-0.9921875,0.02734375
2749,-0.19140625,-0.98828125,0.0205078125
2750,-0.1845703125,-0.9931640625,0.0068359375
2751,-0.185546875,-0.9853515625,0.0107421875
2752,-0.1796875,-0.98828125,0.0048828125
2753,-0.173828125,-0.98828125,-0.0107421875
2754,-0.1826171875,-0.978515625,-0.0341796875
2755,-0.189453125,-0.9765625,-0.0166015625
2756,-0.203125,-0.98828125,-0.0263671875
2757,-0.2060546875,-0.990234375,-0.033203125
2758,-0.19921875,-0.994140625,-0.0341796875
2759,-0.208984375,-0.9892578125,-0.0419921875
2760,-0.2021484375,-0.990234375,-0.0400390625
2761,-0.193359375,-0.9951171875,-0.05078125
2762,-0.2080078125,-0.9951171875,-0.048828125
2763,-0.201171875,-0.9970703125,-0.0576171875
2764,-0.1982421875,-1.0,-0.068359375
2765,-0.1962890625,-0.998046875,-0.068359375
2766,-0.181640625,-0.998046875,-0.0771484375
2767,-0.1708984375,-0.9931640625,-0.08203125
2768,-0.1689453125,-0.9931640625,-0.0849609375
2769,-0.16796875,-0.986328125,-0.0947265625
2770,-0.169921875,-0.9833984375,-0.091796875
2771,-0.1630859375,-0.986328125,-0.091796875
2772,-0.181640625,-0.9853515625,-0.0986328125
2773,-0.1875,-0.9775390625,-0.1015625
2774,-0.19921875,-0.978515625,-0.1044921875
2775,-0.2041015625,-0.9775390625,-0.1083984375
2776,-0.21484375,-0.9853515625,-0.12109375
2777,-0.2236328125,-0.9873046875,-0.126953125
2778,-0.2421875,-0.978515625,-0.1259765625
2779,-0.232421875,-0.9892578125,-0.1318359375
2780,-0.2451171875,-0.984375,-0.1259765625
2781,-0.2529296875,-0.98828125,-0.1240234375
2782,-0.23828125,-0.9912109375,-0.1220703125
2783,-0.2294921875,-0.9892578125,-0.1318359375
2784,-0.2373046875,-0.98828125,-0.1279296875
2785,-0.2373046875,-0.9912109375,-0.130859375
2786,-0.267578125,-0.98046875,-0.1298828125
2787,-0.26953125,-0.9814453125,-0.1201171875
2788,-0.2568359375,-0.97265625,-0.1298828125
2789,-0.267578125,-0.9775390625,-0.134765625
2790,-0.25,-0.9638671875,-0.1533203125
2791,-0.2724609375,-0.958984375,-0.16015625
2792,-0.2783203125,-0.9365234375,-0.1611328125
2793,-0.2666015625,-0.9248046875,-0.17578125
2794,-0.2900390625,-0.91015625,-0.171875
2795,-0.28125,-0.9033203125,-0.19921875
2796,-0.318359375,-0.873046875,-0.2099609375
2797,-0.3291015625,-0.861328125,-0.2158203125
2798,-0.3603515625,-0.853515625,-0.2177734375
2799,-0.3759765625,-0.8408203125,-0.2255859375
2800,-0.4072265625,-0.8310546875,-0.22265625
2801,-0.3662109375,-0.830078125,-0.228515625
2802,-0.373046875,-0.8359375,-0.2177734375
2803,-0.361328125,-0.8330078125,-0.216796875
2804,-0.3427734375,-0.8388671875,-0.21484375
2805,-0.3486328125,-0.8310546875,-0.2080078125
2806,-0.3173828125,-0.833984375,-0.2158203125
2807,-0.32421875,-0.8330078125,-0.2099609375
2808,-0.310546875,-0.8349609375,-0.2265625
2809,-0.3037109375,-0.83203125,-0.23046875
2810,-0.3095703125,-0.8388671875,-0.2373046875
2811,-0.3076171875,-0.8330078125,-0.2529296875
2812,-0.3173828125,-0.8427734375,-0.2666015625
2813,-0.3193359375,-0.837890625,-0.26953125
2814,-0.3349609375,-0.8388671875,-0.2744140625
2815,-0.3505859375,-0.8408203125,-0.2802734375
2816,-0.3564453125,-0.8427734375,-0.2802734375
2817,-0.3564453125,-0.84765625,-0.283203125
