,accelerometerAccelerationX(G),accelerometerAccelerationY(G),accelerometerAccelerationZ(G)
0,-0.041015625,-0.935546875,-0.154296875
1,-0.0341796875,-0.955078125,-0.1337890625
2,-0.0341796875,-0.9814453125,-0.1162109375
3,-0.0390625,-0.998046875,-0.1044921875
4,-0.041015625,-1.017578125,-0.0927734375
5,-0.0439453125,-1.0302734375,-0.083984375
6,-0.0595703125,-1.05078125,-0.0751953125
7,-0.064453125,-1.06640625,-0.072265625
8,-0.0458984375,-1.080078125,-0.068359375
9,-0.0595703125,-1.0908203125,-0.0732421875
10,-0.07421875,-1.0947265625,-0.072265625
11,-0.095703125,-1.1064453125,-0.08984375
12,-0.0908203125,-1.1171875,-0.0859375
13,-0.087890625,-1.08984375,-0.0537109375
14,-0.103515625,-1.0791015625,-0.0634765625
15,-0.1259765625,-1.0849609375,-0.072265625
16,-0.1328125,-1.0849609375,-0.0751953125
17,-0.1396484375,-1.0966796875,-0.08203125
18,-0.1396484375,-1.076171875,-0.0712890625
19,-0.142578125,-1.0693359375,-0.072265625
20,-0.140625,-1.0517578125,-0.0673828125
21,-0.1318359375,-1.04296875,-0.0712890625
22,-0.126953125,-1.02734375,-0.0810546875
23,-0.103515625,-1.0166015625,-0.0751953125
24,-0.09375,-0.994140625,-0.0712890625
25,-0.083984375,-0.9873046875,-0.0693359375
26,-0.0693359375,-0.9755859375,-0.0673828125
27,-0.046875,-0.9580078125,-0.06640625
28,-0.041015625,-0.9404296875,-0.0634765625
29,-0.013671875,-0.9423828125,-0.0654296875
30,-0.005859375,-0.9248046875,-0.056640625
31,0.0244140625,-0.90625,-0.0517578125
32,0.03125,-0.904296875,-0.0458984375
33,0.0361328125,-0.892578125,-0.0390625
34,0.017578125,-0.9091796875,-0.0458984375
35,0.0341796875,-0.869140625,-0.029296875
36,0.0732421875,-0.86328125,-0.009765625
37,0.046875,-0.857421875,-0.0078125
38,0.0166015625,-0.859375,-0.021484375
39,-0.0087890625,-0.8623046875,-0.0244140625
40,-0.021484375,-0.873046875,-0.0185546875
41,-0.0439453125,-0.880859375,-0.0283203125
42,-0.0654296875,-0.8994140625,-0.01171875
43,-0.0732421875,-0.9150390625,-0.0087890625
44,-0.0888671875,-0.935546875,0.0009765625
45,-0.09375,-0.9462890625,0.0146484375
46,-0.1064453125,-0.96484375,0.0244140625
47,-0.103515625,-0.9775390625,0.03515625
48,-0.10546875,-0.9912109375,0.0390625
49,-0.109375,-1.0,0.0419921875
50,-0.1103515625,-1.01171875,0.046875
51,-0.1005859375,-1.025390625,0.056640625
52,-0.099609375,-1.0244140625,0.0625
53,-0.09375,-1.0224609375,0.0615234375
54,-0.0927734375,-1.017578125,0.0625
55,-0.0966796875,-1.0107421875,0.052734375
56,-0.0888671875,-1.0009765625,0.0517578125
57,-0.0869140625,-0.9873046875,0.0458984375
58,-0.091796875,-0.9794921875,0.044921875
59,-0.0908203125,-0.970703125,0.0517578125
60,-0.0908203125,-0.953125,0.060546875
61,-0.1015625,-0.9482421875,0.064453125
62,-0.0966796875,-0.9365234375,0.072265625
63,-0.095703125,-0.9345703125,0.08984375
64,-0.091796875,-0.927734375,0.095703125
65,-0.08984375,-0.9228515625,0.11328125
66,-0.08203125,-0.91796875,0.12109375
67,-0.083984375,-0.916015625,0.1240234375
68,-0.0810546875,-0.9150390625,0.1318359375
69,-0.068359375,-0.91796875,0.1376953125
70,-0.0576171875,-0.916015625,0.14453125
71,-0.0498046875,-0.91796875,0.1435546875
72,-0.044921875,-0.91796875,0.1533203125
73,-0.037109375,-0.9140625,0.162109375
74,-0.029296875,-0.9150390625,0.1728515625
75,-0.025390625,-0.9150390625,0.1787109375
76,-0.0205078125,-0.9228515625,0.1884765625
77,-0.013671875,-0.91796875,0.1982421875
78,-0.01171875,-0.9169921875,0.203125
79,-0.01171875,-0.9169921875,0.20703125
80,-0.005859375,-0.916015625,0.2158203125
81,-0.0107421875,-0.912109375,0.2197265625
82,-0.001953125,-0.9169921875,0.228515625
83,-0.0009765625,-0.916015625,0.23046875
84,0.0087890625,-0.9208984375,0.23046875
85,0.017578125,-0.9169921875,0.2216796875
86,0.0283203125,-0.919921875,0.2138671875
87,0.0361328125,-0.923828125,0.201171875
88,0.0498046875,-0.9150390625,0.1845703125
89,0.0615234375,-0.9150390625,0.1611328125
90,0.076171875,-0.9111328125,0.13671875
91,0.0751953125,-0.9130859375,0.125
92,0.0771484375,-0.9150390625,0.1142578125
93,0.068359375,-0.919921875,0.0986328125
94,0.0654296875,-0.9248046875,0.1015625
95,0.05078125,-0.9404296875,0.1083984375
96,0.03515625,-0.9501953125,0.099609375
97,0.0126953125,-0.9638671875,0.0869140625
98,-0.0048828125,-0.9833984375,0.0908203125
99,-0.0166015625,-0.9931640625,0.0888671875
100,-0.03125,-1.0126953125,0.083984375
101,-0.0380859375,-1.01953125,0.0751953125
102,-0.03515625,-1.033203125,0.076171875
103,-0.0361328125,-1.037109375,0.0732421875
104,-0.0419921875,-1.0380859375,0.0732421875
105,-0.048828125,-1.0263671875,0.0771484375
106,-0.0439453125,-1.0146484375,0.1005859375
107,-0.0419921875,-1.0087890625,0.1162109375
108,-0.048828125,-1.00390625,0.1357421875
109,-0.052734375,-1.0,0.15234375
110,-0.0419921875,-1.0107421875,0.1787109375
111,0.025390625,-1.0029296875,0.1845703125
112,-0.0546875,-0.9951171875,0.203125
113,-0.009765625,-1.0458984375,0.19140625
114,0.03125,-1.068359375,0.173828125
115,0.0537109375,-1.10546875,0.150390625
116,0.076171875,-1.1318359375,0.115234375
117,0.08203125,-1.1533203125,0.0732421875
118,0.072265625,-1.181640625,0.0380859375
119,0.080078125,-1.21484375,0.0234375
120,0.091796875,-1.251953125,0.0224609375
121,0.1025390625,-1.2568359375,0.0302734375
122,0.1103515625,-1.236328125,0.037109375
123,0.1298828125,-1.201171875,0.046875
124,0.095703125,-1.1640625,0.029296875
125,0.15234375,-1.1474609375,0.0078125
126,0.0791015625,-1.099609375,0.013671875
127,0.111328125,-1.087890625,0.0087890625
128,0.1123046875,-1.0517578125,0.025390625
129,0.11328125,-1.0263671875,0.0400390625
130,0.109375,-1.0009765625,0.0576171875
131,0.1103515625,-0.9921875,0.0888671875
132,0.0947265625,-0.9912109375,0.0947265625
133,0.0732421875,-0.9873046875,0.119140625
134,0.041015625,-0.9716796875,0.130859375
135,0.0546875,-0.984375,0.130859375
136,0.0244140625,-0.9912109375,0.1337890625
137,-0.0107421875,-0.9892578125,0.14453125
138,-0.0341796875,-0.9921875,0.140625
139,-0.0537109375,-0.9921875,0.1416015625
140,-0.0771484375,-1.0146484375,0.125
141,-0.083984375,-1.0302734375,0.107421875
142,-0.0849609375,-1.0380859375,0.0888671875
143,-0.0830078125,-1.037109375,0.064453125
144,-0.0673828125,-1.0283203125,0.0390625
145,-0.037109375,-1.03125,0.0048828125
146,-0.013671875,-1.0283203125,-0.01953125
147,0.03515625,-1.0205078125,-0.044921875
148,0.078125,-1.02734375,-0.0625
149,0.119140625,-1.0185546875,-0.07421875
150,0.1494140625,-1.0234375,-0.0830078125
151,0.1845703125,-1.021484375,-0.099609375
152,0.203125,-1.0244140625,-0.107421875
153,0.216796875,-1.0263671875,-0.1123046875
154,0.228515625,-1.0361328125,-0.1162109375
155,0.2197265625,-1.046875,-0.1123046875
156,0.2099609375,-1.05078125,-0.11328125
157,0.19140625,-1.05078125,-0.109375
158,0.16796875,-1.0419921875,-0.11328125
159,0.1337890625,-1.0322265625,-0.1181640625
160,0.1083984375,-1.005859375,-0.1240234375
161,0.0947265625,-0.9931640625,-0.146484375
162,0.0771484375,-0.982421875,-0.166015625
163,0.0654296875,-0.9716796875,-0.1865234375
164,0.0439453125,-0.9599609375,-0.203125
165,0.03125,-0.9521484375,-0.2177734375
166,0.0185546875,-0.9375,-0.2333984375
167,0.0068359375,-0.9296875,-0.2490234375
168,-0.01171875,-0.9267578125,-0.2587890625
169,-0.0126953125,-0.923828125,-0.2548828125
170,-0.0146484375,-0.919921875,-0.24609375
171,-0.021484375,-0.91796875,-0.2431640625
172,-0.0263671875,-0.912109375,-0.2412109375
173,-0.0361328125,-0.916015625,-0.2451171875
174,-0.0380859375,-0.9072265625,-0.2373046875
175,-0.0419921875,-0.908203125,-0.2431640625
176,-0.0419921875,-0.9111328125,-0.23828125
177,-0.0400390625,-0.9189453125,-0.2216796875
178,-0.0341796875,-0.93359375,-0.2099609375
179,-0.025390625,-0.9501953125,-0.1923828125
180,-0.01171875,-0.9697265625,-0.169921875
181,-0.0009765625,-0.99609375,-0.154296875
182,0.0224609375,-1.0244140625,-0.1357421875
183,0.0341796875,-1.0498046875,-0.1171875
184,0.0595703125,-1.06640625,-0.099609375
185,0.078125,-1.0673828125,-0.0859375
186,0.1015625,-1.0869140625,-0.0712890625
187,0.134765625,-1.09765625,-0.0634765625
188,0.15625,-1.099609375,-0.0458984375
189,0.17578125,-1.095703125,-0.02734375
190,0.1982421875,-1.0849609375,-0.0224609375
191,0.2158203125,-1.076171875,-0.0146484375
192,0.21875,-1.0634765625,-0.0185546875
193,0.2275390625,-1.048828125,-0.0107421875
194,0.220703125,-1.052734375,-0.0107421875
195,0.2158203125,-1.046875,-0.0146484375
196,0.2021484375,-1.02734375,-0.0322265625
197,0.1962890625,-1.0146484375,-0.0380859375
198,0.18359375,-0.99609375,-0.0458984375
199,0.1669921875,-0.990234375,-0.0634765625
200,0.15625,-0.9765625,-0.064453125
201,0.138671875,-0.96484375,-0.06640625
202,0.1162109375,-0.9541015625,-0.0703125
203,0.0986328125,-0.9404296875,-0.068359375
204,0.0732421875,-0.9326171875,-0.0693359375
205,0.0537109375,-0.9287109375,-0.0673828125
206,0.04296875,-0.916015625,-0.0625
207,0.021484375,-0.908203125,-0.0634765625
208,0.0087890625,-0.900390625,-0.05859375
209,-0.017578125,-0.888671875,-0.048828125
210,-0.0283203125,-0.8740234375,-0.0400390625
211,-0.0380859375,-0.8740234375,-0.0302734375
212,-0.0498046875,-0.869140625,-0.029296875
213,-0.056640625,-0.8681640625,-0.015625
214,-0.0576171875,-0.8642578125,-0.00390625
215,-0.072265625,-0.86328125,-0.00390625
216,-0.0625,-0.86328125,-0.001953125
217,-0.0615234375,-0.8681640625,0.0029296875
218,-0.0537109375,-0.875,0.00390625
219,-0.072265625,-0.8701171875,0.0078125
220,-0.0205078125,-0.9150390625,-0.005859375
221,-0.033203125,-0.9052734375,0.0234375
222,-0.02734375,-0.9189453125,0.0263671875
223,-0.0205078125,-0.9365234375,0.0322265625
224,-0.0166015625,-0.9482421875,0.0361328125
225,-0.0009765625,-0.9541015625,0.0439453125
226,0.0029296875,-0.958984375,0.046875
227,-0.00390625,-0.97265625,0.0361328125
228,0.0126953125,-0.9853515625,0.0380859375
229,0.0166015625,-0.984375,0.044921875
230,0.0224609375,-0.98828125,0.056640625
231,0.017578125,-0.9912109375,0.0625
232,0.0205078125,-0.98828125,0.0595703125
233,0.017578125,-0.986328125,0.052734375
234,0.015625,-0.98046875,0.0615234375
235,0.0185546875,-0.9765625,0.05859375
236,0.0126953125,-0.97265625,0.0576171875
237,0.0126953125,-0.9658203125,0.0654296875
238,0.0126953125,-0.9521484375,0.076171875
239,0.0166015625,-0.9404296875,0.0693359375
240,0.0166015625,-0.9267578125,0.0595703125
241,-0.005859375,-0.9140625,0.0556640625
242,0.001953125,-0.9130859375,0.064453125
243,0.0,-0.90234375,0.0732421875
244,0.0,-0.8779296875,0.0810546875
245,-0.009765625,-0.87109375,0.0888671875
246,-0.0146484375,-0.8564453125,0.0927734375
247,-0.01953125,-0.8466796875,0.1025390625
248,-0.013671875,-0.8466796875,0.11328125
249,-0.021484375,-0.8505859375,0.1279296875
250,-0.017578125,-0.85546875,0.1484375
251,-0.0166015625,-0.8662109375,0.1708984375
252,-0.0029296875,-0.888671875,0.1884765625
253,0.0048828125,-0.919921875,0.197265625
254,0.0126953125,-0.9404296875,0.21484375
255,0.00390625,-0.962890625,0.21875
256,-0.0126953125,-0.984375,0.2119140625
257,-0.04296875,-1.0,0.19921875
258,-0.0576171875,-1.0205078125,0.1689453125
259,-0.064453125,-1.046875,0.1455078125
260,-0.07421875,-1.0517578125,0.134765625
261,-0.0732421875,-1.0498046875,0.130859375
262,-0.0595703125,-1.0478515625,0.1181640625
263,-0.037109375,-1.0703125,0.1123046875
264,-0.021484375,-1.080078125,0.1171875
265,-0.0341796875,-1.0703125,0.119140625
266,-0.041015625,-1.0634765625,0.1162109375
267,-0.0439453125,-1.056640625,0.126953125
268,-0.0439453125,-1.0615234375,0.1298828125
269,-0.03515625,-1.05859375,0.138671875
270,-0.0390625,-1.052734375,0.146484375
271,-0.046875,-1.05078125,0.16015625
272,-0.05078125,-1.05078125,0.1689453125
273,-0.056640625,-1.056640625,0.17578125
274,-0.068359375,-1.056640625,0.1865234375
275,-0.0791015625,-1.0576171875,0.189453125
276,-0.0849609375,-1.064453125,0.193359375
277,-0.1025390625,-1.0693359375,0.1845703125
278,-0.1171875,-1.099609375,0.1484375
279,-0.12890625,-1.1142578125,0.1171875
280,-0.15625,-1.1298828125,0.078125
281,-0.1796875,-1.14453125,0.037109375
282,-0.19140625,-1.16015625,-0.0068359375
283,-0.1943359375,-1.181640625,-0.037109375
284,-0.1796875,-1.2119140625,-0.04296875
285,-0.15625,-1.220703125,-0.0244140625
286,-0.1279296875,-1.2255859375,0.017578125
287,-0.091796875,-1.203125,0.0703125
288,-0.0673828125,-1.166015625,0.11328125
289,-0.04296875,-1.1357421875,0.138671875
290,-0.0146484375,-1.095703125,0.154296875
291,0.0009765625,-1.0625,0.1494140625
292,0.0126953125,-1.03125,0.1337890625
293,0.02734375,-1.0166015625,0.111328125
294,0.033203125,-1.015625,0.083984375
295,0.0341796875,-1.021484375,0.0517578125
296,0.0400390625,-1.0322265625,0.029296875
297,0.046875,-1.044921875,-0.0029296875
298,0.033203125,-1.05078125,-0.029296875
299,0.021484375,-1.0576171875,-0.0458984375
300,0.0048828125,-1.0703125,-0.0634765625
301,-0.0068359375,-1.0625,-0.06640625
302,-0.0302734375,-1.0634765625,-0.0791015625
303,-0.044921875,-1.0693359375,-0.0908203125
304,-0.0556640625,-1.0771484375,-0.0927734375
305,-0.0732421875,-1.0791015625,-0.0986328125
306,-0.083984375,-1.072265625,-0.107421875
307,-0.087890625,-1.064453125,-0.1103515625
308,-0.0986328125,-1.05078125,-0.1240234375
309,-0.10546875,-1.03125,-0.1396484375
310,-0.1103515625,-1.01171875,-0.150390625
311,-0.103515625,-0.9970703125,-0.158203125
312,-0.1025390625,-0.9736328125,-0.1630859375
313,-0.0888671875,-0.955078125,-0.1708984375
314,-0.07421875,-0.9384765625,-0.1728515625
315,-0.05078125,-0.9306640625,-0.181640625
316,-0.115234375,-0.9111328125,-0.19921875
317,0.0107421875,-0.9111328125,-0.1953125
318,0.0068359375,-0.87109375,-0.1884765625
319,-0.0068359375,-0.8603515625,-0.201171875
320,0.0244140625,-0.86328125,-0.2158203125
321,0.052734375,-0.8515625,-0.2255859375
322,0.064453125,-0.845703125,-0.2451171875
323,0.0908203125,-0.8427734375,-0.2578125
324,0.1181640625,-0.8408203125,-0.2666015625
325,0.1494140625,-0.8515625,-0.263671875
326,0.154296875,-0.8701171875,-0.251953125
327,0.1513671875,-0.900390625,-0.234375
328,0.1474609375,-0.9248046875,-0.21875
329,0.1396484375,-0.9541015625,-0.2001953125
330,0.1181640625,-0.984375,-0.18359375
331,0.1162109375,-1.015625,-0.1669921875
332,0.0966796875,-1.044921875,-0.154296875
333,0.072265625,-1.0693359375,-0.150390625
334,0.044921875,-1.0771484375,-0.1435546875
335,0.017578125,-1.0986328125,-0.1318359375
336,-0.0166015625,-1.1005859375,-0.1103515625
337,-0.037109375,-1.1044921875,-0.1171875
338,-0.0322265625,-1.1123046875,-0.1083984375
339,-0.064453125,-1.1064453125,-0.0986328125
340,-0.080078125,-1.0986328125,-0.0966796875
341,-0.0986328125,-1.0908203125,-0.0927734375
342,-0.107421875,-1.072265625,-0.0703125
343,-0.1240234375,-1.068359375,-0.06640625
344,-0.12890625,-1.0576171875,-0.041015625
345,-0.1396484375,-1.05078125,-0.0390625
346,-0.1357421875,-1.03515625,-0.029296875
347,-0.1416015625,-1.0166015625,-0.0244140625
348,-0.12890625,-1.0146484375,-0.015625
349,-0.119140625,-1.0068359375,-0.0126953125
350,-0.1015625,-0.9951171875,-0.0126953125
351,-0.0966796875,-0.9912109375,-0.017578125
352,-0.091796875,-0.9912109375,-0.025390625
353,-0.080078125,-0.9892578125,-0.029296875
354,-0.064453125,-0.982421875,-0.029296875
355,-0.0419921875,-0.974609375,-0.04296875
356,-0.0224609375,-0.9638671875,-0.0595703125
357,-0.07421875,-0.935546875,-0.0810546875
358,0.0546875,-0.94140625,-0.0693359375
359,0.03125,-0.9248046875,-0.0693359375
360,0.04296875,-0.9111328125,-0.068359375
361,0.0751953125,-0.8974609375,-0.0693359375
362,0.0966796875,-0.87890625,-0.0537109375
363,0.103515625,-0.861328125,-0.0458984375
364,0.1123046875,-0.8544921875,-0.05859375
365,0.119140625,-0.830078125,-0.0126953125
366,0.1435546875,-0.8310546875,-0.0029296875
367,0.130859375,-0.841796875,0.0029296875
368,0.109375,-0.8447265625,0.01953125
369,0.09375,-0.8466796875,0.029296875
370,0.0703125,-0.865234375,0.0419921875
371,0.0556640625,-0.8759765625,0.052734375
372,0.03125,-0.896484375,0.056640625
373,0.01171875,-0.9150390625,0.064453125
374,-0.0087890625,-0.92578125,0.0703125
375,-0.0263671875,-0.9384765625,0.0751953125
376,-0.0380859375,-0.9462890625,0.083984375
377,-0.05078125,-0.9599609375,0.0869140625
378,-0.0625,-0.97265625,0.08203125
379,-0.0751953125,-0.9765625,0.076171875
380,-0.0810546875,-0.9814453125,0.080078125
381,-0.0888671875,-0.9873046875,0.076171875
382,-0.0859375,-0.99609375,0.0830078125
383,-0.0869140625,-0.984375,0.091796875
384,-0.0830078125,-0.994140625,0.0810546875
385,-0.0859375,-0.9921875,0.0849609375
386,-0.083984375,-0.98828125,0.0830078125
387,-0.08203125,-0.982421875,0.0888671875
388,-0.087890625,-0.97265625,0.0859375
389,-0.0888671875,-0.9580078125,0.0927734375
390,-0.0869140625,-0.953125,0.1025390625
391,-0.0888671875,-0.9423828125,0.107421875
392,-0.0859375,-0.935546875,0.1220703125
393,-0.0859375,-0.9228515625,0.1337890625
394,-0.08203125,-0.912109375,0.1396484375
395,-0.0693359375,-0.90625,0.14453125
396,-0.0595703125,-0.9072265625,0.154296875
397,-0.044921875,-0.8994140625,0.1650390625
398,-0.0419921875,-0.8974609375,0.166015625
399,-0.0302734375,-0.88671875,0.1689453125
400,-0.03125,-0.8896484375,0.173828125
401,-0.01953125,-0.87890625,0.1826171875
402,-0.0166015625,-0.880859375,0.1845703125
403,-0.01171875,-0.876953125,0.1904296875
404,-0.0126953125,-0.87109375,0.1943359375
405,-0.00390625,-0.8740234375,0.203125
406,-0.00390625,-0.8759765625,0.21484375
407,-0.0048828125,-0.875,0.2216796875
408,0.0009765625,-0.8837890625,0.232421875
409,0.0048828125,-0.90234375,0.2470703125
410,0.013671875,-0.9111328125,0.2578125
411,0.017578125,-0.9248046875,0.259765625
412,0.0224609375,-0.9375,0.265625
413,0.029296875,-0.951171875,0.26953125
414,0.044921875,-0.9609375,0.2578125
415,0.0576171875,-0.958984375,0.2412109375
416,0.064453125,-0.9658203125,0.2216796875
417,0.07421875,-0.958984375,0.2060546875
418,0.076171875,-0.958984375,0.1875
419,0.087890625,-0.9521484375,0.177734375
420,0.083984375,-0.951171875,0.171875
421,0.0869140625,-0.9521484375,0.1728515625
422,0.078125,-0.953125,0.171875
423,0.068359375,-0.953125,0.177734375
424,0.0419921875,-0.9541015625,0.173828125
425,0.017578125,-0.9736328125,0.177734375
426,-0.009765625,-0.978515625,0.169921875
427,-0.0244140625,-0.9873046875,0.1611328125
428,-0.033203125,-0.990234375,0.1572265625
429,-0.0400390625,-0.984375,0.150390625
430,-0.03125,-0.9794921875,0.14453125
431,-0.041015625,-0.97265625,0.1474609375
432,-0.037109375,-0.9609375,0.162109375
433,-0.02734375,-0.9501953125,0.1748046875
434,-0.0302734375,-0.9384765625,0.1962890625
435,-0.0361328125,-0.9404296875,0.208984375
436,-0.033203125,-0.939453125,0.234375
437,0.0283203125,-0.9609375,0.244140625
438,-0.06640625,-0.94921875,0.2529296875
439,-0.0390625,-0.994140625,0.224609375
440,-0.013671875,-1.0400390625,0.205078125
441,0.001953125,-1.08984375,0.1767578125
442,0.0224609375,-1.1298828125,0.146484375
443,0.0302734375,-1.169921875,0.1181640625
444,0.033203125,-1.2197265625,0.099609375
445,0.056640625,-1.2626953125,0.09375
446,0.0751953125,-1.3046875,0.095703125
447,0.1025390625,-1.3291015625,0.099609375
448,0.1181640625,-1.322265625,0.107421875
449,0.107421875,-1.333984375,0.078125
450,0.1318359375,-1.2802734375,0.06640625
451,0.1123046875,-1.2607421875,0.0185546875
452,0.1328125,-1.228515625,-0.0302734375
453,0.115234375,-1.212890625,-0.064453125
454,0.1328125,-1.1474609375,-0.0390625
455,0.1357421875,-1.1162109375,-0.0478515625
456,0.13671875,-1.099609375,-0.02734375
457,0.1337890625,-1.080078125,0.0068359375
458,0.1328125,-1.078125,0.03125
459,0.1142578125,-1.087890625,0.0576171875
460,0.09765625,-1.09765625,0.078125
461,0.064453125,-1.103515625,0.109375
462,0.0947265625,-1.1474609375,0.1171875
463,0.0517578125,-1.1416015625,0.125
464,0.02734375,-1.142578125,0.123046875
465,0.025390625,-1.1455078125,0.095703125
466,0.01953125,-1.123046875,0.0595703125
467,0.015625,-1.0888671875,0.0185546875
468,0.0498046875,-1.0439453125,-0.041015625
469,0.0888671875,-1.0,-0.0888671875
470,0.111328125,-0.978515625,-0.1240234375
471,0.12890625,-0.958984375,-0.1435546875
472,0.1455078125,-0.955078125,-0.15234375
473,0.166015625,-0.955078125,-0.1533203125
474,0.1845703125,-0.9560546875,-0.1630859375
475,0.1982421875,-0.9423828125,-0.1748046875
476,0.2060546875,-0.9306640625,-0.1962890625
477,0.220703125,-0.9287109375,-0.2197265625
478,0.2197265625,-0.919921875,-0.2451171875
479,0.2099609375,-0.9189453125,-0.2568359375
480,0.1689453125,-0.9228515625,-0.255859375
481,0.1103515625,-0.931640625,-0.240234375
482,0.06640625,-0.919921875,-0.212890625
483,0.0244140625,-0.91015625,-0.1962890625
484,0.0009765625,-0.8828125,-0.193359375
485,-0.0302734375,-0.896484375,-0.232421875
486,-0.044921875,-0.8759765625,-0.2314453125
487,-0.0546875,-0.8720703125,-0.240234375
488,-0.0556640625,-0.869140625,-0.2509765625
489,-0.052734375,-0.8701171875,-0.2470703125
490,-0.0419921875,-0.8916015625,-0.25
491,-0.025390625,-0.892578125,-0.23828125
492,0.015625,-0.9189453125,-0.2216796875
493,0.0673828125,-0.9541015625,-0.197265625
494,0.1025390625,-0.9736328125,-0.1689453125
495,0.1591796875,-0.9873046875,-0.1357421875
496,0.193359375,-1.021484375,-0.1162109375
497,0.212890625,-1.05859375,-0.109375
498,0.240234375,-1.08984375,-0.0849609375
499,0.2685546875,-1.109375,-0.064453125
500,0.2939453125,-1.123046875,-0.041015625
501,0.2958984375,-1.1279296875,-0.0390625
502,0.2919921875,-1.154296875,-0.0498046875
503,0.291015625,-1.142578125,-0.0380859375
504,0.3125,-1.12109375,-0.0546875
505,0.2998046875,-1.0986328125,-0.0595703125
506,0.2724609375,-1.072265625,-0.0634765625
507,0.279296875,-1.0576171875,-0.0693359375
508,0.2880859375,-1.0302734375,-0.0634765625
509,0.2890625,-0.9970703125,-0.0634765625
510,0.263671875,-0.97265625,-0.0615234375
511,0.2490234375,-0.9501953125,-0.0537109375
512,0.2490234375,-0.9384765625,-0.0498046875
513,0.2353515625,-0.9365234375,-0.0361328125
514,0.220703125,-0.93359375,-0.0390625
515,0.20703125,-0.9306640625,-0.0458984375
516,0.1796875,-0.93359375,-0.0556640625
517,0.1513671875,-0.9248046875,-0.0693359375
518,0.1240234375,-0.9228515625,-0.0791015625
519,0.1064453125,-0.9228515625,-0.0927734375
520,0.083984375,-0.916015625,-0.0927734375
521,0.0517578125,-0.912109375,-0.0927734375
522,0.0546875,-0.91015625,-0.1025390625
523,0.037109375,-0.9033203125,-0.0986328125
524,-0.001953125,-0.8857421875,-0.08203125
525,-0.033203125,-0.8876953125,-0.0830078125
526,-0.0419921875,-0.896484375,-0.0791015625
527,-0.052734375,-0.8994140625,-0.0693359375
528,-0.0576171875,-0.9033203125,-0.05859375
529,-0.0634765625,-0.912109375,-0.05078125
530,-0.0673828125,-0.9150390625,-0.0419921875
531,-0.0595703125,-0.921875,-0.02734375
532,-0.0546875,-0.931640625,-0.0048828125
533,-0.044921875,-0.935546875,0.005859375
534,-0.0322265625,-0.94140625,0.0166015625
535,-0.0234375,-0.94921875,0.0205078125
536,-0.021484375,-0.9501953125,0.0302734375
537,-0.013671875,-0.9541015625,0.0361328125
538,-0.01171875,-0.953125,0.044921875
539,-0.009765625,-0.935546875,0.046875
540,0.0234375,-0.970703125,0.0302734375
541,0.0205078125,-0.9482421875,0.041015625
542,0.01171875,-0.94140625,0.04296875
543,0.0126953125,-0.9296875,0.041015625
544,0.0107421875,-0.9248046875,0.041015625
545,0.0244140625,-0.92578125,0.0390625
546,0.025390625,-0.912109375,0.04296875
547,0.0322265625,-0.900390625,0.0439453125
548,0.03125,-0.8798828125,0.0439453125
549,0.0380859375,-0.8740234375,0.0478515625
550,0.048828125,-0.875,0.0458984375
551,0.0625,-0.86328125,0.0537109375
552,0.064453125,-0.8603515625,0.0595703125
553,0.0595703125,-0.8515625,0.076171875
554,0.056640625,-0.8525390625,0.068359375
555,0.0556640625,-0.845703125,0.0712890625
556,0.048828125,-0.8408203125,0.0732421875
557,0.0400390625,-0.8466796875,0.0927734375
558,0.0302734375,-0.84765625,0.09375
559,0.021484375,-0.8466796875,0.0927734375
560,0.0126953125,-0.845703125,0.1044921875
561,-0.001953125,-0.859375,0.1181640625
562,-0.015625,-0.8525390625,0.1318359375
563,-0.02734375,-0.859375,0.142578125
564,-0.0263671875,-0.873046875,0.1533203125
565,-0.017578125,-0.890625,0.1650390625
566,-0.0283203125,-0.9033203125,0.171875
567,-0.0439453125,-0.916015625,0.17578125
568,-0.0478515625,-0.9287109375,0.1787109375
569,-0.0615234375,-0.9404296875,0.17578125
570,-0.095703125,-0.9541015625,0.1650390625
571,-0.0634765625,-0.9775390625,0.1689453125
572,-0.0673828125,-0.9853515625,0.1611328125
573,-0.08203125,-0.9921875,0.15625
574,-0.0869140625,-0.998046875,0.146484375
575,-0.080078125,-0.9970703125,0.1396484375
576,-0.07421875,-1.0,0.138671875
577,-0.1123046875,-0.9775390625,0.1357421875
578,-0.0224609375,-1.0234375,0.12890625
579,0.00390625,-1.0166015625,0.13671875
580,-0.0126953125,-1.0146484375,0.138671875
581,-0.0185546875,-1.01953125,0.1240234375
582,-0.037109375,-1.0205078125,0.103515625
583,-0.0234375,-1.05078125,0.080078125
584,-0.0087890625,-1.064453125,0.0634765625
585,-0.015625,-1.0595703125,0.060546875
586,-0.0263671875,-1.0595703125,0.076171875
587,-0.013671875,-1.0634765625,0.1083984375
588,0.001953125,-1.0546875,0.16015625
589,0.017578125,-1.029296875,0.19921875
590,0.0322265625,-1.001953125,0.2275390625
591,0.0537109375,-0.9765625,0.25
592,0.0654296875,-0.94140625,0.275390625
593,0.087890625,-0.908203125,0.2822265625
594,0.08984375,-0.8798828125,0.279296875
595,0.083984375,-0.857421875,0.2900390625
596,0.087890625,-0.8408203125,0.2802734375
597,0.0810546875,-0.845703125,0.2705078125
598,0.0703125,-0.86328125,0.2490234375
599,0.056640625,-0.89453125,0.2333984375
600,0.02734375,-0.9697265625,0.1962890625
601,-0.0224609375,-1.076171875,0.1376953125
602,-0.12109375,-1.166015625,0.080078125
603,-0.2021484375,-1.234375,-0.0029296875
604,-0.2734375,-1.296875,-0.103515625
605,-0.3056640625,-1.3671875,-0.2001953125
606,-0.3232421875,-1.447265625,-0.2744140625
607,-0.3115234375,-1.4970703125,-0.27734375
608,-0.2724609375,-1.490234375,-0.220703125
609,-0.2421875,-1.4365234375,-0.123046875
610,-0.201171875,-1.3740234375,-0.0263671875
611,-0.166015625,-1.3076171875,0.0400390625
612,-0.130859375,-1.2548828125,0.087890625
613,-0.083984375,-1.201171875,0.1201171875
614,-0.046875,-1.16015625,0.1494140625
615,-0.0224609375,-1.146484375,0.162109375
616,-0.046875,-1.138671875,0.1669921875
617,-0.0146484375,-1.1669921875,0.158203125
618,-0.044921875,-1.1630859375,0.1337890625
619,-0.0693359375,-1.1728515625,0.0546875
620,-0.087890625,-1.1806640625,-0.0771484375
621,-0.099609375,-1.1474609375,-0.181640625
622,-0.078125,-1.1015625,-0.2822265625
623,-0.06640625,-1.0419921875,-0.373046875
624,-0.076171875,-0.990234375,-0.41015625
625,-0.0830078125,-0.9638671875,-0.419921875
626,-0.0849609375,-0.9560546875,-0.412109375
627,-0.0751953125,-0.9501953125,-0.380859375
628,-0.0703125,-0.935546875,-0.3486328125
629,-0.0693359375,-0.9208984375,-0.3193359375
630,-0.0712890625,-0.9052734375,-0.3125
631,-0.080078125,-0.8759765625,-0.302734375
632,-0.1103515625,-0.873046875,-0.3193359375
633,-0.12109375,-0.8876953125,-0.318359375
634,-0.13671875,-0.90625,-0.3134765625
635,-0.12890625,-0.9287109375,-0.2900390625
636,-0.0986328125,-0.97265625,-0.248046875
637,-0.046875,-1.0146484375,-0.2041015625
638,-0.01171875,-1.041015625,-0.1572265625
639,0.0078125,-1.0703125,-0.1435546875
640,0.01953125,-1.0888671875,-0.1240234375
641,0.0595703125,-1.1083984375,-0.1142578125
642,0.087890625,-1.12890625,-0.0966796875
643,0.0927734375,-1.1103515625,-0.0859375
644,0.0751953125,-1.0888671875,-0.103515625
645,0.056640625,-1.068359375,-0.138671875
646,0.0185546875,-1.0166015625,-0.1728515625
647,-0.02734375,-0.9658203125,-0.203125
648,-0.076171875,-0.9267578125,-0.23046875
649,-0.1220703125,-0.869140625,-0.2353515625
650,-0.1630859375,-0.84765625,-0.2275390625
651,-0.220703125,-0.837890625,-0.2099609375
652,-0.283203125,-0.845703125,-0.185546875
653,-0.3193359375,-0.869140625,-0.15234375
654,-0.353515625,-0.93359375,-0.16015625
655,-0.34375,-1.0107421875,-0.1484375
656,-0.330078125,-1.037109375,-0.0986328125
657,-0.3125,-1.064453125,-0.0849609375
658,-0.291015625,-1.0830078125,-0.1015625
659,-0.263671875,-1.0751953125,-0.103515625
660,-0.2275390625,-1.052734375,-0.1064453125
661,-0.18359375,-1.0205078125,-0.11328125
662,-0.1494140625,-0.98046875,-0.11328125
663,-0.1123046875,-0.9404296875,-0.109375
664,-0.0869140625,-0.9111328125,-0.1083984375
665,-0.076171875,-0.8681640625,-0.119140625
666,-0.0478515625,-0.8447265625,-0.1435546875
667,-0.0146484375,-0.8251953125,-0.15625
668,0.033203125,-0.8095703125,-0.1435546875
669,0.0634765625,-0.8046875,-0.1484375
670,0.0888671875,-0.8125,-0.1494140625
671,0.08984375,-0.822265625,-0.1435546875
672,0.1005859375,-0.8359375,-0.12890625
673,0.1220703125,-0.8671875,-0.107421875
674,0.123046875,-0.892578125,-0.0869140625
675,0.123046875,-0.9140625,-0.0673828125
676,0.115234375,-0.9482421875,-0.048828125
677,0.0927734375,-0.9658203125,-0.0537109375
678,0.080078125,-0.9736328125,-0.05078125
679,0.08203125,-0.9697265625,-0.046875
680,0.0869140625,-0.9892578125,-0.0478515625
681,0.0712890625,-1.0,-0.03515625
682,0.0439453125,-0.99609375,-0.0556640625
683,0.029296875,-0.98828125,-0.0625
684,0.0087890625,-0.990234375,-0.0546875
685,0.005859375,-0.98046875,-0.0595703125
686,-0.0224609375,-0.990234375,-0.052734375
687,-0.0341796875,-0.9873046875,-0.0537109375
688,-0.0478515625,-0.96484375,-0.0498046875
689,-0.0673828125,-0.958984375,-0.0400390625
690,-0.0693359375,-0.9423828125,-0.0283203125
691,-0.0712890625,-0.91796875,-0.0185546875
692,-0.072265625,-0.90234375,-0.0068359375
693,-0.0751953125,-0.875,0.001953125
694,-0.07421875,-0.841796875,0.013671875
695,-0.07421875,-0.8173828125,0.0234375
696,-0.064453125,-0.794921875,0.0390625
697,-0.0634765625,-0.7744140625,0.0458984375
698,-0.0537109375,-0.75390625,0.0478515625
699,-0.0576171875,-0.7509765625,0.0458984375
700,-0.0576171875,-0.7373046875,0.048828125
701,-0.05859375,-0.736328125,0.0478515625
702,-0.0751953125,-0.7353515625,0.0537109375
703,-0.0732421875,-0.7490234375,0.056640625
704,-0.07421875,-0.7646484375,0.0732421875
705,-0.07421875,-0.7802734375,0.083984375
706,-0.0830078125,-0.80078125,0.08984375
707,-0.0869140625,-0.8193359375,0.1025390625
708,-0.0849609375,-0.845703125,0.12109375
709,-0.080078125,-0.873046875,0.1328125
710,-0.05859375,-0.9111328125,0.1484375
711,-0.0556640625,-0.9296875,0.15625
712,-0.0478515625,-0.955078125,0.162109375
713,-0.0361328125,-0.9658203125,0.1689453125
714,-0.0185546875,-0.9765625,0.166015625
715,-0.0029296875,-0.978515625,0.1650390625
716,-0.001953125,-0.9765625,0.1591796875
717,0.0185546875,-0.978515625,0.15625
718,0.029296875,-0.9716796875,0.158203125
719,0.025390625,-0.97265625,0.1611328125
720,0.0380859375,-0.9794921875,0.1611328125
721,0.044921875,-0.990234375,0.138671875
722,0.0478515625,-1.001953125,0.115234375
723,0.04296875,-1.013671875,0.0986328125
724,0.0234375,-1.017578125,0.0869140625
725,-0.001953125,-1.037109375,0.0751953125
726,-0.0166015625,-1.0458984375,0.072265625
727,-0.0224609375,-1.0498046875,0.0732421875
728,-0.0244140625,-1.0546875,0.08203125
729,-0.01953125,-1.0615234375,0.091796875
730,-0.03125,-1.0625,0.1064453125
731,-0.0322265625,-1.0654296875,0.1259765625
732,-0.044921875,-1.064453125,0.138671875
733,-0.0546875,-1.064453125,0.1513671875
734,-0.0615234375,-1.0537109375,0.162109375
735,-0.0830078125,-1.0498046875,0.1708984375
736,-0.09375,-1.0341796875,0.1826171875
737,-0.103515625,-1.0185546875,0.1953125
738,-0.1181640625,-0.9951171875,0.208984375
739,-0.134765625,-0.9736328125,0.216796875
740,-0.1357421875,-0.955078125,0.220703125
741,-0.1474609375,-0.9443359375,0.232421875
742,-0.150390625,-0.939453125,0.2373046875
743,-0.1435546875,-0.9541015625,0.2431640625
744,-0.126953125,-0.984375,0.228515625
745,-0.091796875,-1.02734375,0.2041015625
746,-0.0400390625,-1.087890625,0.177734375
747,0.0224609375,-1.1396484375,0.1259765625
748,0.0693359375,-1.18359375,0.0673828125
749,0.09375,-1.23828125,0.01171875
750,0.1181640625,-1.3095703125,-0.0263671875
751,0.12890625,-1.3623046875,-0.03515625
752,0.140625,-1.3837890625,-0.0126953125
753,0.15234375,-1.3740234375,0.0068359375
754,0.1416015625,-1.3359375,0.021484375
755,0.1181640625,-1.2626953125,0.0244140625
756,0.0732421875,-1.203125,0.017578125
757,0.046875,-1.154296875,0.01171875
758,0.0341796875,-1.1181640625,-0.00390625
759,0.037109375,-1.0810546875,-0.02734375
760,0.05078125,-1.048828125,-0.044921875
761,0.0732421875,-1.03125,-0.0625
762,0.0986328125,-1.009765625,-0.0703125
763,0.1015625,-1.0146484375,-0.0419921875
764,0.095703125,-1.0166015625,-0.0322265625
765,0.083984375,-1.037109375,-0.0244140625
766,0.083984375,-1.041015625,-0.0166015625
767,0.080078125,-1.052734375,-0.0283203125
768,0.0849609375,-1.064453125,-0.0498046875
769,0.1005859375,-1.0615234375,-0.06640625
770,0.107421875,-1.0244140625,-0.109375
771,0.1357421875,-0.970703125,-0.1484375
772,0.1396484375,-0.90625,-0.2021484375
773,0.1484375,-0.859375,-0.2578125
774,0.1533203125,-0.818359375,-0.28515625
775,0.166015625,-0.76171875,-0.306640625
776,0.1826171875,-0.7109375,-0.296875
777,0.2060546875,-0.6767578125,-0.2998046875
778,0.2197265625,-0.6416015625,-0.2978515625
779,0.2138671875,-0.623046875,-0.283203125
780,0.201171875,-0.63671875,-0.2783203125
781,0.1865234375,-0.662109375,-0.25390625
782,0.1826171875,-0.69921875,-0.224609375
783,0.1494140625,-0.7509765625,-0.2041015625
784,0.1416015625,-0.828125,-0.1689453125
785,0.10546875,-0.9091796875,-0.14453125
786,0.076171875,-0.9873046875,-0.111328125
787,0.0390625,-1.0732421875,-0.09765625
788,0.0185546875,-1.15625,-0.0849609375
789,-0.0078125,-1.185546875,-0.083984375
790,-0.015625,-1.212890625,-0.09765625
791,-0.0234375,-1.2138671875,-0.1123046875
792,-0.0224609375,-1.2001953125,-0.1416015625
793,-0.015625,-1.1357421875,-0.150390625
794,0.0009765625,-1.0849609375,-0.177734375
795,0.0224609375,-1.0498046875,-0.22265625
796,0.0458984375,-1.00390625,-0.267578125
797,0.0732421875,-0.9541015625,-0.2783203125
798,0.1083984375,-0.9091796875,-0.2939453125
799,0.1552734375,-0.849609375,-0.294921875
800,0.1806640625,-0.833984375,-0.29296875
801,0.212890625,-0.810546875,-0.2646484375
802,0.23046875,-0.8095703125,-0.2314453125
803,0.2470703125,-0.826171875,-0.205078125
804,0.23046875,-0.8798828125,-0.1904296875
805,0.21875,-0.939453125,-0.1728515625
806,0.201171875,-0.9619140625,-0.154296875
807,0.185546875,-0.9765625,-0.14453125
808,0.154296875,-0.9775390625,-0.1416015625
809,0.138671875,-0.9521484375,-0.1240234375
810,0.0810546875,-0.9560546875,-0.1201171875
811,0.0751953125,-0.958984375,-0.0791015625
812,0.068359375,-0.94921875,-0.0517578125
813,0.0751953125,-0.935546875,-0.02734375
814,0.080078125,-0.9111328125,-0.03515625
815,0.076171875,-0.8759765625,-0.0576171875
816,0.06640625,-0.8564453125,-0.0869140625
817,0.0673828125,-0.822265625,-0.1279296875
818,0.0712890625,-0.80859375,-0.1669921875
819,0.0830078125,-0.7880859375,-0.1953125
820,0.087890625,-0.7802734375,-0.21484375
821,0.0947265625,-0.7841796875,-0.2138671875
822,0.095703125,-0.7763671875,-0.2001953125
823,0.095703125,-0.7900390625,-0.1923828125
824,0.0908203125,-0.8095703125,-0.1640625
825,0.09375,-0.8095703125,-0.134765625
826,0.0859375,-0.8115234375,-0.12890625
827,0.0859375,-0.8076171875,-0.1171875
828,0.0673828125,-0.822265625,-0.12109375
829,0.05859375,-0.82421875,-0.1142578125
830,0.0419921875,-0.8212890625,-0.1171875
831,-0.00390625,-0.8203125,-0.11328125
832,-0.0185546875,-0.8095703125,-0.076171875
833,-0.0029296875,-0.80859375,-0.041015625
834,0.05078125,-0.81640625,-0.0068359375
835,0.095703125,-0.8408203125,0.005859375
836,0.130859375,-0.8486328125,0.0048828125
837,0.1396484375,-0.8525390625,-0.009765625
838,0.15625,-0.8525390625,-0.046875
839,0.1884765625,-0.8505859375,-0.1181640625
840,0.1943359375,-0.8623046875,-0.2177734375
841,0.1865234375,-0.86328125,-0.3017578125
842,0.1455078125,-0.9052734375,-0.3935546875
843,0.0986328125,-0.9248046875,-0.455078125
844,0.0595703125,-0.947265625,-0.50390625
845,0.046875,-0.9970703125,-0.5087890625
846,0.044921875,-1.0478515625,-0.4736328125
847,0.03515625,-1.0732421875,-0.4345703125
848,0.0361328125,-1.0986328125,-0.4091796875
849,0.048828125,-1.138671875,-0.3974609375
850,0.0732421875,-1.18359375,-0.375
851,0.08984375,-1.2587890625,-0.3642578125
852,0.103515625,-1.3310546875,-0.37890625
853,0.1201171875,-1.3876953125,-0.3935546875
854,0.158203125,-1.44140625,-0.4072265625
855,0.212890625,-1.494140625,-0.3935546875
856,0.2978515625,-1.546875,-0.3740234375
857,0.365234375,-1.578125,-0.3193359375
858,0.421875,-1.6181640625,-0.2822265625
859,0.4716796875,-1.6826171875,-0.265625
860,0.5126953125,-1.732421875,-0.2421875
861,0.470703125,-1.751953125,-0.2333984375
862,0.45703125,-1.7626953125,-0.1962890625
863,0.412109375,-1.7685546875,-0.1689453125
864,0.333984375,-1.7568359375,-0.1455078125
865,0.318359375,-1.775390625,-0.1123046875
866,0.20703125,-1.76171875,-0.1103515625
867,0.119140625,-1.73046875,-0.1064453125
868,0.0400390625,-1.6845703125,-0.1015625
869,-0.0517578125,-1.6416015625,-0.09765625
870,-0.123046875,-1.6005859375,-0.1025390625
871,-0.1611328125,-1.5673828125,-0.0927734375
872,-0.2080078125,-1.525390625,-0.0888671875
873,-0.228515625,-1.5,-0.0888671875
874,-0.248046875,-1.4599609375,-0.083984375
875,-0.2294921875,-1.416015625,-0.080078125
876,-0.2080078125,-1.3583984375,-0.06640625
877,-0.1533203125,-1.294921875,-0.0615234375
878,-0.109375,-1.2158203125,-0.05859375
879,-0.0703125,-1.1591796875,-0.0498046875
880,-0.0322265625,-1.1171875,-0.0478515625
881,-0.0703125,-1.0595703125,-0.0078125
882,-0.048828125,-0.9951171875,0.0654296875
883,-0.076171875,-0.9423828125,0.169921875
884,-0.1015625,-0.8798828125,0.294921875
885,-0.154296875,-0.828125,0.4189453125
886,-0.2060546875,-0.765625,0.5234375
887,-0.248046875,-0.6650390625,0.5517578125
888,-0.2587890625,-0.525390625,0.521484375
889,-0.2724609375,-0.4208984375,0.455078125
890,-0.2490234375,-0.337890625,0.3662109375
891,-0.1875,-0.2734375,0.26953125
892,-0.1171875,-0.251953125,0.2080078125
893,-0.0478515625,-0.2646484375,0.22265625
894,-0.0576171875,-0.259765625,0.2685546875
895,-0.046875,-0.2529296875,0.3125
896,-0.0556640625,-0.2412109375,0.3564453125
897,-0.0810546875,-0.228515625,0.390625
898,-0.10546875,-0.1962890625,0.4140625
899,-0.154296875,-0.162109375,0.40234375
900,-0.2197265625,-0.1142578125,0.3916015625
901,-0.2734375,-0.0888671875,0.3486328125
902,-0.2958984375,-0.0576171875,0.3193359375
903,-0.2958984375,-0.048828125,0.2763671875
904,-0.2802734375,-0.0439453125,0.23046875
905,-0.2802734375,-0.0341796875,0.19921875
906,-0.2587890625,-0.021484375,0.1953125
907,-0.2548828125,-0.015625,0.212890625
908,-0.24609375,-0.025390625,0.24609375
909,-0.2724609375,-0.04296875,0.2841796875
910,-0.2890625,-0.060546875,0.3115234375
911,-0.3076171875,-0.0712890625,0.33203125
912,-0.28515625,-0.0634765625,0.3212890625
913,-0.2685546875,-0.04296875,0.3125
914,-0.2451171875,-0.0244140625,0.2490234375
915,-0.2333984375,0.0322265625,0.1728515625
916,-0.1650390625,0.0712890625,0.03125
917,-0.1142578125,0.1767578125,-0.126953125
918,-0.03515625,0.2216796875,-0.3876953125
919,0.4560546875,-0.29296875,-1.6357421875
920,0.5849609375,-0.5205078125,-2.220703125
921,-0.00390625,-0.2021484375,-3.0703125
922,-0.3818359375,-0.029296875,-3.5595703125
923,-0.40234375,-0.234375,-3.95703125
924,-0.8984375,-1.1513671875,-3.9228515625
925,-2.0224609375,-1.9091796875,-2.158203125
926,-2.1181640625,-2.2890625,-0.0283203125
927,-1.259765625,-2.8583984375,1.8740234375
928,-0.44921875,-2.9853515625,1.646484375
929,0.3896484375,-3.0908203125,1.0625
930,1.2197265625,-2.81640625,-0.0849609375
931,1.3662109375,-2.3857421875,-0.9931640625
932,1.35546875,-2.34765625,-1.1669921875
933,1.1982421875,-2.5419921875,-1.39453125
934,1.2998046875,-2.47265625,-2.05078125
935,1.2724609375,-1.9599609375,-2.353515625
936,1.09765625,-1.5244140625,-2.224609375
937,0.658203125,-1.259765625,-1.8037109375
938,0.1943359375,-1.1171875,-1.30859375
939,-0.0888671875,-1.0556640625,-0.8408203125
940,-0.3359375,-1.0166015625,-0.5078125
941,-0.537109375,-1.0576171875,-0.32421875
942,-0.7099609375,-1.1005859375,-0.1943359375
943,-0.841796875,-1.1494140625,-0.1396484375
944,-0.8662109375,-1.2080078125,-0.1484375
945,-0.748046875,-1.28125,-0.1845703125
946,-0.5830078125,-1.3759765625,-0.255859375
947,-0.421875,-1.4833984375,-0.37109375
948,-0.3046875,-1.5498046875,-0.4638671875
949,-0.2177734375,-1.52734375,-0.4658203125
950,-0.095703125,-1.498046875,-0.4208984375
951,0.0458984375,-1.5009765625,-0.384765625
952,0.173828125,-1.537109375,-0.3486328125
953,0.2392578125,-1.62109375,-0.35546875
954,0.212890625,-1.7021484375,-0.3779296875
955,0.201171875,-1.7333984375,-0.3330078125
956,0.2021484375,-1.6904296875,-0.287109375
957,0.1611328125,-1.5830078125,-0.2490234375
958,0.1396484375,-1.4521484375,-0.1943359375
959,0.10546875,-1.333984375,-0.162109375
960,0.0791015625,-1.2509765625,-0.1572265625
961,0.0390625,-1.1689453125,-0.1806640625
962,0.025390625,-1.060546875,-0.154296875
963,-0.0244140625,-0.9501953125,-0.14453125
964,-0.0732421875,-0.853515625,-0.15625
965,-0.1005859375,-0.80859375,-0.1591796875
966,-0.146484375,-0.7646484375,-0.1552734375
967,-0.15625,-0.7236328125,-0.171875
968,-0.1884765625,-0.712890625,-0.1845703125
969,-0.2236328125,-0.642578125,-0.16796875
970,-0.2119140625,-0.5927734375,-0.1748046875
971,-0.2041015625,-0.54296875,-0.1923828125
972,-0.1787109375,-0.501953125,-0.216796875
973,-0.0576171875,-0.501953125,-0.23828125
974,-0.0078125,-0.5009765625,-0.2587890625
975,0.0517578125,-0.5087890625,-0.2666015625
976,0.1240234375,-0.5263671875,-0.25
977,0.2216796875,-0.5390625,-0.1748046875
978,0.3037109375,-0.5703125,-0.1201171875
979,0.3564453125,-0.5732421875,-0.06640625
980,0.3935546875,-0.57421875,-0.0224609375
981,0.4267578125,-0.5703125,0.013671875
982,0.4814453125,-0.5703125,0.0390625
983,0.5078125,-0.560546875,0.068359375
984,0.5224609375,-0.548828125,0.0966796875
985,0.5009765625,-0.5478515625,0.138671875
986,0.474609375,-0.5712890625,0.1875
987,0.451171875,-0.595703125,0.2392578125
988,0.421875,-0.62109375,0.30078125
989,0.390625,-0.64453125,0.337890625
990,0.3701171875,-0.673828125,0.3759765625
991,0.3427734375,-0.6796875,0.416015625
992,0.333984375,-0.6982421875,0.4365234375
993,0.3271484375,-0.7119140625,0.4521484375
994,0.3203125,-0.71875,0.474609375
995,0.294921875,-0.720703125,0.5107421875
996,0.287109375,-0.69921875,0.5380859375
997,0.26953125,-0.6767578125,0.5322265625
998,0.2470703125,-0.6318359375,0.5078125
999,0.23828125,-0.6015625,0.4521484375
1000,0.2138671875,-0.5537109375,0.3876953125
1001,0.1376953125,-0.49609375,0.3017578125
1002,0.0244140625,-0.4892578125,0.16015625
1003,-0.1005859375,-0.603515625,-0.103515625
1004,-0.2275390625,-0.5869140625,-0.3837890625
1005,-0.046875,-0.51953125,-0.7041015625
1006,-0.0712890625,-0.48828125,-1.0458984375
1007,-0.20703125,-0.5126953125,-1.29296875
1008,-0.2412109375,-0.4013671875,-1.498046875
1009,0.1953125,-0.412109375,-1.6884765625
1010,0.7607421875,-0.787109375,-1.6376953125
1011,1.1123046875,-1.2841796875,-1.177734375
1012,1.1044921875,-1.625,-0.5537109375
1013,0.892578125,-1.9404296875,0.1904296875
1014,0.78515625,-2.234375,0.8291015625
1015,0.5380859375,-2.408203125,1.1806640625
1016,0.2490234375,-2.5009765625,0.9892578125
1017,-0.6064453125,-2.30078125,0.3935546875
1018,-1.3251953125,-1.9775390625,-0.400390625
1019,-1.8857421875,-1.76171875,-1.033203125
1020,-2.1298828125,-1.6064453125,-1.142578125
1021,-1.80078125,-1.4169921875,-1.171875
1022,-1.23828125,-1.2958984375,-1.1396484375
1023,-0.95703125,-1.3115234375,-0.91796875
1024,-0.755859375,-1.392578125,-0.703125
1025,-0.609375,-1.4912109375,-0.5771484375
1026,-0.4853515625,-1.5859375,-0.4013671875
1027,-0.40625,-1.6904296875,-0.1923828125
1028,-0.248046875,-1.7763671875,-0.05859375
1029,-0.1279296875,-1.744140625,-0.0302734375
1030,-0.0419921875,-1.6162109375,-0.107421875
1031,0.0146484375,-1.46875,-0.279296875
1032,0.0576171875,-1.3671875,-0.4609375
1033,0.091796875,-1.267578125,-0.5654296875
1034,0.14453125,-1.1689453125,-0.5986328125
1035,0.169921875,-1.0830078125,-0.6083984375
1036,0.1884765625,-1.0009765625,-0.5810546875
1037,0.267578125,-0.931640625,-0.5712890625
1038,0.2978515625,-0.8974609375,-0.46484375
1039,0.3134765625,-0.845703125,-0.2880859375
1040,0.2978515625,-0.8505859375,-0.1650390625
1041,0.283203125,-0.8779296875,-0.0810546875
1042,0.314453125,-0.880859375,-0.0234375
1043,0.3271484375,-0.8330078125,0.017578125
1044,0.3603515625,-0.7841796875,-0.029296875
1045,0.349609375,-0.732421875,-0.0830078125
1046,0.365234375,-0.6953125,-0.12109375
1047,0.3564453125,-0.66796875,-0.16015625
1048,0.349609375,-0.6572265625,-0.1806640625
1049,0.3369140625,-0.66796875,-0.18359375
1050,0.3154296875,-0.708984375,-0.1611328125
1051,0.283203125,-0.7529296875,-0.1279296875
1052,0.2607421875,-0.80078125,-0.076171875
1053,0.2314453125,-0.837890625,-0.0478515625
1054,0.1953125,-0.900390625,-0.02734375
1055,0.1201171875,-0.9345703125,-0.0166015625
1056,0.0810546875,-0.96875,-0.01171875
1057,0.0478515625,-0.9765625,-0.0087890625
1058,0.025390625,-0.97265625,-0.01953125
1059,0.0146484375,-0.9453125,-0.033203125
1060,0.009765625,-0.91015625,-0.046875
1061,0.0087890625,-0.857421875,-0.052734375
1062,0.0068359375,-0.80859375,-0.060546875
1063,0.0107421875,-0.767578125,-0.05078125
1064,0.0,-0.7255859375,-0.021484375
1065,-0.0146484375,-0.6884765625,0.0068359375
1066,-0.0234375,-0.658203125,0.0302734375
1067,-0.0341796875,-0.640625,0.0615234375
1068,-0.052734375,-0.6376953125,0.09765625
1069,-0.06640625,-0.64453125,0.119140625
1070,-0.0791015625,-0.654296875,0.13671875
1071,-0.087890625,-0.6708984375,0.142578125
1072,-0.08984375,-0.685546875,0.1396484375
1073,-0.0966796875,-0.6953125,0.1318359375
1074,-0.1064453125,-0.7001953125,0.12890625
1075,-0.1025390625,-0.7109375,0.12890625
1076,-0.0966796875,-0.7197265625,0.123046875
1077,-0.09375,-0.7236328125,0.119140625
1078,-0.087890625,-0.7333984375,0.123046875
1079,-0.0830078125,-0.75,0.1337890625
1080,-0.0556640625,-0.765625,0.1513671875
1081,-0.0478515625,-0.7802734375,0.1787109375
1082,-0.0439453125,-0.7802734375,0.212890625
1083,-0.0380859375,-0.7958984375,0.2265625
1084,-0.0419921875,-0.8037109375,0.2587890625
1085,-0.0283203125,-0.80859375,0.2900390625
1086,-0.033203125,-0.8046875,0.32421875
1087,-0.0146484375,-0.8427734375,0.3232421875
1088,-0.0029296875,-0.8388671875,0.3271484375
1089,0.0,-0.8359375,0.318359375
1090,0.005859375,-0.837890625,0.2783203125
1091,0.0302734375,-0.8359375,0.24609375
1092,0.0615234375,-0.82421875,0.22265625
1093,0.07421875,-0.8046875,0.20703125
1094,0.0712890625,-0.7880859375,0.2001953125
1095,0.0849609375,-0.7421875,0.205078125
1096,0.060546875,-0.7744140625,0.1904296875
1097,0.10546875,-0.7783203125,0.1982421875
1098,0.0751953125,-0.771484375,0.197265625
1099,0.046875,-0.7822265625,0.162109375
1100,0.021484375,-0.7919921875,0.109375
1101,0.015625,-0.8359375,0.0517578125
1102,0.0498046875,-0.857421875,0.033203125
1103,0.0615234375,-0.8828125,0.0205078125
1104,0.076171875,-0.9091796875,0.015625
1105,0.0927734375,-0.9296875,0.0400390625
1106,0.12109375,-0.935546875,0.0859375
1107,0.1533203125,-0.947265625,0.14453125
1108,0.197265625,-0.947265625,0.208984375
1109,0.240234375,-0.9404296875,0.28125
1110,0.263671875,-0.9365234375,0.3525390625
1111,0.2783203125,-0.9619140625,0.408203125
1112,0.2587890625,-0.97265625,0.4208984375
1113,0.2333984375,-1.0615234375,0.40234375
1114,0.1513671875,-1.23046875,0.3046875
1115,-0.0107421875,-1.4072265625,0.193359375
1116,-0.1748046875,-1.48828125,0.046875
1117,-0.3505859375,-1.5234375,-0.1953125
1118,-0.4970703125,-1.61328125,-0.4453125
1119,-0.6083984375,-1.7646484375,-0.662109375
1120,-0.6748046875,-1.990234375,-0.6591796875
1121,-0.685546875,-2.060546875,-0.4990234375
1122,-0.5478515625,-1.9833984375,-0.27734375
1123,-0.359375,-1.8349609375,-0.111328125
1124,-0.14453125,-1.6875,0.005859375
1125,0.029296875,-1.59375,0.0732421875
1126,0.158203125,-1.5224609375,0.087890625
1127,0.2412109375,-1.4716796875,0.0615234375
1128,0.2880859375,-1.4130859375,-0.0439453125
1129,0.32421875,-1.333984375,-0.18359375
1130,0.3330078125,-1.26171875,-0.3349609375
1131,0.328125,-1.1787109375,-0.48046875
1132,0.3486328125,-1.060546875,-0.5537109375
1133,0.3017578125,-0.984375,-0.6201171875
1134,0.26953125,-0.91015625,-0.6123046875
1135,0.2255859375,-0.87890625,-0.578125
1136,0.1591796875,-0.83984375,-0.509765625
1137,0.1240234375,-0.8369140625,-0.443359375
1138,0.0888671875,-0.8388671875,-0.4091796875
1139,-0.001953125,-0.8701171875,-0.4033203125
1140,-0.080078125,-0.9169921875,-0.3876953125
1141,-0.1240234375,-0.9638671875,-0.3642578125
1142,-0.1728515625,-1.0244140625,-0.3369140625
1143,-0.212890625,-1.0673828125,-0.291015625
1144,-0.240234375,-1.1181640625,-0.2529296875
1145,-0.259765625,-1.1708984375,-0.2333984375
1146,-0.2568359375,-1.2080078125,-0.1982421875
1147,-0.2490234375,-1.212890625,-0.1669921875
1148,-0.2392578125,-1.20703125,-0.181640625
1149,-0.224609375,-1.16015625,-0.189453125
1150,-0.201171875,-1.111328125,-0.2216796875
1151,-0.1943359375,-1.03515625,-0.2373046875
1152,-0.1953125,-0.9482421875,-0.2568359375
1153,-0.171875,-0.83203125,-0.21484375
1154,-0.1806640625,-0.7177734375,-0.1845703125
1155,-0.1650390625,-0.6962890625,-0.1630859375
1156,-0.1416015625,-0.66796875,-0.125
1157,-0.1240234375,-0.6474609375,-0.076171875
1158,-0.130859375,-0.650390625,-0.052734375
1159,-0.1513671875,-0.7314453125,-0.0703125
1160,-0.1298828125,-0.7421875,-0.0029296875
1161,-0.1435546875,-0.7734375,0.005859375
1162,-0.1611328125,-0.8134765625,-0.0126953125
1163,-0.1455078125,-0.849609375,-0.0205078125
1164,-0.134765625,-0.8701171875,-0.0302734375
1165,-0.1201171875,-0.8896484375,-0.05078125
1166,-0.1005859375,-0.9140625,-0.05859375
1167,-0.0849609375,-0.9296875,-0.0625
1168,-0.0810546875,-0.9296875,-0.0595703125
1169,-0.0693359375,-0.9306640625,-0.0654296875
1170,-0.064453125,-0.9228515625,-0.0615234375
1171,-0.0546875,-0.912109375,-0.0703125
1172,-0.044921875,-0.8955078125,-0.0791015625
1173,-0.0302734375,-0.8623046875,-0.0869140625
1174,-0.015625,-0.837890625,-0.09765625
1175,-0.0068359375,-0.8125,-0.099609375
1176,0.0009765625,-0.7978515625,-0.099609375
1177,0.0087890625,-0.7861328125,-0.087890625
1178,0.021484375,-0.7890625,-0.07421875
1179,0.017578125,-0.7978515625,-0.07421875
1180,0.0234375,-0.8125,-0.056640625
1181,0.0341796875,-0.826171875,-0.0390625
1182,0.0400390625,-0.8583984375,-0.0322265625
1183,0.0478515625,-0.90234375,-0.033203125
1184,0.0537109375,-0.9287109375,-0.03125
1185,0.064453125,-0.9580078125,-0.0322265625
1186,0.0703125,-0.978515625,-0.0302734375
1187,0.072265625,-1.00390625,-0.04296875
1188,0.0673828125,-1.01953125,-0.0498046875
1189,0.0703125,-1.02734375,-0.044921875
1190,0.068359375,-1.029296875,-0.0498046875
1191,0.0625,-1.0244140625,-0.0439453125
1192,0.044921875,-1.033203125,-0.0458984375
1193,0.05859375,-1.01953125,-0.025390625
1194,0.0458984375,-1.0009765625,-0.02734375
1195,0.037109375,-0.9794921875,-0.02734375
1196,0.0283203125,-0.958984375,-0.013671875
1197,0.0224609375,-0.939453125,0.00390625
1198,0.0166015625,-0.91796875,0.015625
1199,0.0224609375,-0.8857421875,0.021484375
1200,0.0107421875,-0.86328125,0.025390625
1201,0.0087890625,-0.8466796875,0.0380859375
1202,0.0048828125,-0.8349609375,0.0361328125
1203,0.01171875,-0.822265625,0.03515625
1204,0.005859375,-0.810546875,0.0439453125
1205,0.005859375,-0.80859375,0.0439453125
1206,0.01953125,-0.8056640625,0.0517578125
1207,0.009765625,-0.810546875,0.052734375
1208,0.005859375,-0.8212890625,0.052734375
1209,-0.0009765625,-0.8447265625,0.0498046875
1210,0.0166015625,-0.83984375,0.0478515625
1211,-0.01953125,-0.87109375,0.05859375
1212,-0.015625,-0.8935546875,0.0615234375
1213,-0.005859375,-0.9169921875,0.0625
1214,-0.015625,-0.9296875,0.07421875
1215,-0.013671875,-0.955078125,0.068359375
1216,0.0478515625,-0.9853515625,0.0732421875
1217,-0.015625,-0.9921875,0.0947265625
1218,-0.009765625,-1.015625,0.119140625
1219,0.02734375,-1.0478515625,0.140625
1220,0.0390625,-1.0732421875,0.173828125
1221,0.029296875,-1.0888671875,0.1865234375
1222,0.0537109375,-1.0791015625,0.2158203125
1223,0.03515625,-1.083984375,0.21484375
1224,0.0537109375,-1.0947265625,0.1748046875
1225,0.1025390625,-1.095703125,0.109375
1226,0.1484375,-1.0751953125,0.052734375
1227,0.1904296875,-1.0576171875,-0.0029296875
1228,0.2138671875,-1.0458984375,-0.0185546875
1229,0.2353515625,-1.0390625,-0.001953125
1230,0.25,-1.041015625,0.0390625
1231,0.25,-1.0400390625,0.0791015625
1232,0.248046875,-1.041015625,0.115234375
1233,0.2529296875,-1.037109375,0.142578125
1234,0.2646484375,-1.0458984375,0.150390625
1235,0.244140625,-1.0166015625,0.1669921875
1236,0.2275390625,-0.9931640625,0.16015625
1237,0.2421875,-0.9638671875,0.1689453125
1238,0.2158203125,-0.9453125,0.16015625
1239,0.2275390625,-0.9296875,0.162109375
1240,0.2177734375,-0.9140625,0.1728515625
1241,0.2568359375,-0.91015625,0.1572265625
1242,0.18359375,-0.87109375,0.1728515625
1243,0.1669921875,-0.8935546875,0.162109375
1244,0.1669921875,-0.912109375,0.166015625
1245,0.1787109375,-0.9404296875,0.15625
1246,0.1494140625,-0.9755859375,0.1259765625
1247,0.1123046875,-1.017578125,0.08203125
1248,0.0625,-1.05859375,0.041015625
1249,0.0107421875,-1.09765625,-0.001953125
1250,-0.009765625,-1.15234375,-0.0498046875
1251,-0.0126953125,-1.20703125,-0.076171875
1252,-0.0029296875,-1.248046875,-0.076171875
1253,-0.005859375,-1.236328125,-0.08984375
1254,0.0029296875,-1.2353515625,-0.109375
1255,0.0283203125,-1.244140625,-0.125
1256,0.0654296875,-1.2333984375,-0.1103515625
1257,0.10546875,-1.2177734375,-0.0673828125
1258,0.1181640625,-1.208984375,-0.03125
1259,0.16796875,-1.1455078125,0.01953125
1260,0.19140625,-1.1103515625,0.0478515625
1261,0.205078125,-1.06640625,0.052734375
1262,0.2060546875,-1.064453125,0.025390625
1263,0.193359375,-1.0439453125,0.0302734375
1264,0.2177734375,-1.025390625,0.0224609375
1265,0.2421875,-1.04296875,-0.009765625
1266,0.265625,-1.0625,-0.0458984375
1267,0.22265625,-1.041015625,-0.06640625
1268,0.1591796875,-1.03125,-0.0888671875
1269,0.1142578125,-1.0341796875,-0.0986328125
1270,0.07421875,-1.0400390625,-0.1064453125
1271,0.0517578125,-1.0263671875,-0.1083984375
1272,0.029296875,-1.0068359375,-0.123046875
1273,0.0224609375,-0.9912109375,-0.1435546875
1274,0.0048828125,-0.9609375,-0.1708984375
1275,-0.0009765625,-0.947265625,-0.2021484375
1276,-0.0263671875,-0.9365234375,-0.2236328125
1277,-0.0234375,-0.939453125,-0.2392578125
1278,-0.0625,-0.9541015625,-0.2587890625
1279,-0.0595703125,-0.9716796875,-0.263671875
1280,-0.0576171875,-0.9921875,-0.267578125
1281,-0.0478515625,-1.01171875,-0.27734375
1282,-0.0322265625,-1.0322265625,-0.283203125
1283,-0.0263671875,-1.0478515625,-0.2880859375
1284,-0.0205078125,-1.0615234375,-0.2939453125
1285,-0.01953125,-1.0625,-0.30078125
1286,-0.009765625,-1.064453125,-0.306640625
1287,0.009765625,-1.0478515625,-0.302734375
1288,0.017578125,-1.0224609375,-0.3095703125
1289,0.021484375,-0.99609375,-0.31640625
1290,0.02734375,-0.9677734375,-0.3193359375
1291,0.02734375,-0.9375,-0.32421875
1292,0.03515625,-0.908203125,-0.310546875
1293,0.0400390625,-0.8603515625,-0.294921875
1294,0.041015625,-0.83984375,-0.2919921875
1295,0.03125,-0.8291015625,-0.279296875
1296,0.0341796875,-0.8349609375,-0.2607421875
1297,0.0283203125,-0.84765625,-0.2255859375
1298,0.03515625,-0.8818359375,-0.2099609375
1299,0.0400390625,-0.9140625,-0.1865234375
1300,0.044921875,-0.9423828125,-0.1708984375
1301,0.0390625,-0.96875,-0.1591796875
1302,0.0458984375,-1.001953125,-0.1484375
1303,0.0703125,-1.0380859375,-0.1435546875
1304,0.0703125,-1.0654296875,-0.1455078125
1305,0.0703125,-1.0908203125,-0.146484375
1306,0.07421875,-1.107421875,-0.1474609375
1307,0.07421875,-1.1181640625,-0.1484375
1308,0.0888671875,-1.12890625,-0.142578125
1309,0.0927734375,-1.125,-0.13671875
1310,0.0927734375,-1.115234375,-0.140625
1311,0.095703125,-1.1025390625,-0.140625
1312,0.109375,-1.0849609375,-0.12890625
1313,0.1298828125,-1.052734375,-0.1181640625
1314,0.1328125,-1.005859375,-0.1103515625
1315,0.134765625,-0.97265625,-0.1123046875
1316,0.1318359375,-0.9384765625,-0.11328125
1317,0.1328125,-0.916015625,-0.1240234375
1318,0.1240234375,-0.8828125,-0.1103515625
1319,0.1005859375,-0.853515625,-0.1103515625
1320,0.0859375,-0.84375,-0.0908203125
1321,0.0966796875,-0.833984375,-0.091796875
1322,0.076171875,-0.8330078125,-0.078125
1323,0.0517578125,-0.83203125,-0.064453125
1324,0.0263671875,-0.8359375,-0.0576171875
1325,-0.0029296875,-0.841796875,-0.0498046875
1326,-0.025390625,-0.8466796875,-0.041015625
1327,-0.0322265625,-0.859375,-0.0341796875
1328,-0.0498046875,-0.873046875,-0.029296875
1329,-0.0546875,-0.87890625,-0.021484375
1330,-0.0625,-0.8916015625,-0.0263671875
1331,-0.0625,-0.9111328125,-0.0244140625
1332,-0.0556640625,-0.9326171875,-0.013671875
1333,-0.052734375,-0.94140625,-0.0107421875
1334,-0.0517578125,-0.9521484375,-0.01171875
1335,-0.044921875,-0.9609375,-0.0078125
1336,-0.02734375,-0.9765625,0.0
1337,-0.0224609375,-0.978515625,0.0009765625
1338,-0.0234375,-0.982421875,0.0
1339,-0.0068359375,-0.990234375,0.00390625
1340,0.01171875,-0.9912109375,0.0068359375
1341,0.0458984375,-0.9365234375,0.0341796875
1342,0.0,-0.9833984375,0.0
1343,0.0234375,-0.9599609375,0.0166015625
1344,0.0009765625,-0.9384765625,0.03515625
1345,0.0126953125,-0.93359375,0.0048828125
1346,-0.00390625,-0.9208984375,0.0146484375
1347,0.001953125,-0.9111328125,0.0068359375
1348,0.017578125,-0.9072265625,0.0087890625
1349,0.0185546875,-0.900390625,0.0078125
1350,0.0205078125,-0.8837890625,0.0126953125
1351,0.0166015625,-0.8798828125,0.0146484375
1352,0.0166015625,-0.8779296875,0.0185546875
1353,0.02734375,-0.8798828125,0.033203125
1354,0.0322265625,-0.87890625,0.04296875
1355,0.0244140625,-0.8759765625,0.0595703125
1356,0.0224609375,-0.8779296875,0.0673828125
1357,0.0205078125,-0.869140625,0.0849609375
1358,0.009765625,-0.875,0.1044921875
1359,0.0244140625,-0.8828125,0.1279296875
1360,0.01953125,-0.8837890625,0.1513671875
1361,0.01171875,-0.904296875,0.1689453125
1362,0.00390625,-0.9169921875,0.1875
1363,0.0205078125,-0.921875,0.208984375
1364,0.0302734375,-0.94921875,0.2109375
1365,0.046875,-0.9560546875,0.22265625
1366,0.046875,-0.9677734375,0.22265625
1367,0.048828125,-0.95703125,0.224609375
1368,0.0439453125,-0.9580078125,0.216796875
1369,0.048828125,-0.9658203125,0.1953125
1370,0.0478515625,-0.953125,0.1904296875
1371,0.0263671875,-0.9541015625,0.1826171875
1372,0.013671875,-0.94921875,0.1767578125
1373,-0.0146484375,-0.955078125,0.171875
1374,-0.0439453125,-0.9638671875,0.1533203125
1375,-0.126953125,-0.96484375,0.1416015625
1376,-0.125,-1.0009765625,0.0966796875
1377,-0.1748046875,-0.990234375,0.09765625
1378,-0.21875,-0.998046875,0.0771484375
1379,-0.2451171875,-1.0087890625,0.0849609375
1380,-0.2548828125,-1.025390625,0.111328125
1381,-0.2685546875,-1.03125,0.14453125
1382,-0.2724609375,-1.044921875,0.1953125
1383,-0.2734375,-1.0439453125,0.216796875
1384,-0.26171875,-1.029296875,0.232421875
1385,-0.2431640625,-1.0107421875,0.23828125
1386,-0.2109375,-0.9931640625,0.2294921875
1387,-0.1748046875,-0.9375,0.216796875
1388,-0.130859375,-0.994140625,0.15625
1389,-0.083984375,-1.0380859375,0.1025390625
1390,-0.0810546875,-1.0673828125,0.0390625
1391,-0.0712890625,-1.123046875,-0.0380859375
1392,-0.0517578125,-1.169921875,-0.1103515625
1393,-0.0517578125,-1.240234375,-0.1826171875
1394,-0.0419921875,-1.306640625,-0.2275390625
1395,-0.0244140625,-1.3583984375,-0.2314453125
1396,-0.01953125,-1.3984375,-0.2451171875
1397,0.0048828125,-1.4091796875,-0.2177734375
1398,0.03125,-1.3759765625,-0.142578125
1399,0.0537109375,-1.3349609375,-0.06640625
1400,0.06640625,-1.2744140625,0.017578125
1401,0.0888671875,-1.21875,0.0712890625
1402,0.09765625,-1.171875,0.107421875
1403,0.109375,-1.1357421875,0.130859375
1404,0.13671875,-1.109375,0.134765625
1405,0.1494140625,-1.09375,0.11328125
1406,0.166015625,-1.072265625,0.072265625
1407,0.1923828125,-1.07421875,0.0224609375
1408,0.1943359375,-1.087890625,-0.04296875
1409,0.169921875,-1.095703125,-0.10546875
1410,0.1171875,-1.0986328125,-0.1630859375
1411,0.0390625,-1.0869140625,-0.2138671875
1412,-0.033203125,-1.0791015625,-0.2548828125
1413,-0.0947265625,-1.0927734375,-0.2880859375
1414,-0.142578125,-1.1005859375,-0.30078125
1415,-0.1640625,-1.0966796875,-0.3056640625
1416,-0.1806640625,-1.0830078125,-0.294921875
1417,-0.1884765625,-1.060546875,-0.2822265625
1418,-0.1904296875,-1.0087890625,-0.2763671875
1419,-0.193359375,-0.9873046875,-0.267578125
1420,-0.1884765625,-0.9580078125,-0.2705078125
1421,-0.1728515625,-0.9248046875,-0.2861328125
1422,-0.14453125,-0.9033203125,-0.2978515625
1423,-0.0966796875,-0.87890625,-0.3095703125
1424,-0.0849609375,-0.8486328125,-0.3212890625
1425,0.0048828125,-0.8564453125,-0.3251953125
1426,0.064453125,-0.837890625,-0.30859375
1427,0.0966796875,-0.8193359375,-0.298828125
1428,0.134765625,-0.81640625,-0.2958984375
1429,0.1748046875,-0.826171875,-0.298828125
1430,0.1962890625,-0.837890625,-0.2890625
1431,0.2109375,-0.8515625,-0.2763671875
1432,0.2177734375,-0.87109375,-0.248046875
1433,0.208984375,-0.9169921875,-0.2255859375
1434,0.19921875,-0.9453125,-0.20703125
1435,0.1904296875,-0.970703125,-0.1806640625
1436,0.1474609375,-1.0224609375,-0.1845703125
1437,0.1171875,-1.0615234375,-0.1708984375
1438,0.1015625,-1.0703125,-0.1435546875
1439,0.0703125,-1.091796875,-0.123046875
1440,0.021484375,-1.107421875,-0.1298828125
1441,-0.0244140625,-1.11328125,-0.126953125
1442,-0.0673828125,-1.111328125,-0.1328125
1443,-0.0947265625,-1.095703125,-0.1435546875
1444,-0.1328125,-1.0888671875,-0.1591796875
1445,-0.158203125,-1.0732421875,-0.15234375
1446,-0.1787109375,-1.0654296875,-0.158203125
1447,-0.1962890625,-1.083984375,-0.1533203125
1448,-0.1904296875,-1.06640625,-0.12109375
1449,-0.1875,-1.0546875,-0.1123046875
1450,-0.181640625,-1.052734375,-0.1005859375
1451,-0.1708984375,-1.0341796875,-0.0771484375
1452,-0.162109375,-1.041015625,-0.0634765625
1453,-0.150390625,-1.0283203125,-0.060546875
1454,-0.1337890625,-1.015625,-0.0537109375
1455,-0.125,-1.0048828125,-0.0517578125
1456,-0.1005859375,-0.990234375,-0.0498046875
1457,-0.0859375,-0.978515625,-0.0498046875
1458,-0.0693359375,-0.9619140625,-0.052734375
1459,-0.0517578125,-0.9501953125,-0.05078125
1460,-0.0439453125,-0.935546875,-0.0625
1461,-0.025390625,-0.927734375,-0.0732421875
1462,-0.01953125,-0.9150390625,-0.0947265625
1463,-0.00390625,-0.9013671875,-0.1044921875
1464,0.025390625,-0.8837890625,-0.11328125
1465,0.03125,-0.8623046875,-0.1279296875
1466,0.0439453125,-0.8447265625,-0.1376953125
1467,0.0576171875,-0.853515625,-0.1591796875
1468,0.0673828125,-0.8212890625,-0.125
1469,0.05859375,-0.806640625,-0.103515625
1470,0.0751953125,-0.802734375,-0.1015625
1471,0.07421875,-0.8095703125,-0.087890625
1472,0.068359375,-0.8134765625,-0.0693359375
1473,0.0673828125,-0.828125,-0.044921875
1474,0.044921875,-0.849609375,-0.01953125
1475,0.0244140625,-0.8896484375,0.01171875
1476,0.0048828125,-0.9140625,0.0361328125
1477,-0.015625,-0.935546875,0.05078125
1478,-0.037109375,-0.951171875,0.0625
1479,-0.0537109375,-0.96484375,0.0712890625
1480,-0.064453125,-0.9736328125,0.068359375
1481,-0.0830078125,-0.9755859375,0.06640625
1482,-0.0830078125,-0.986328125,0.0751953125
1483,-0.083984375,-0.974609375,0.083984375
1484,-0.0849609375,-0.96484375,0.0830078125
1485,-0.078125,-0.9560546875,0.08984375
1486,-0.0771484375,-0.955078125,0.0869140625
1487,-0.0712890625,-0.9521484375,0.08984375
1488,-0.0556640625,-0.9365234375,0.0927734375
1489,-0.0556640625,-0.93359375,0.08984375
1490,-0.0478515625,-0.9287109375,0.091796875
1491,-0.0322265625,-0.9228515625,0.1025390625
1492,-0.029296875,-0.91796875,0.1044921875
1493,-0.0244140625,-0.916015625,0.1220703125
1494,-0.0234375,-0.90625,0.1318359375
1495,-0.0107421875,-0.9150390625,0.130859375
1496,-0.0029296875,-0.916015625,0.1435546875
1497,0.0107421875,-0.912109375,0.154296875
1498,0.013671875,-0.9130859375,0.16796875
1499,0.009765625,-0.912109375,0.171875
1500,0.03125,-0.9072265625,0.1845703125
1501,0.0400390625,-0.9033203125,0.1875
1502,0.033203125,-0.9013671875,0.1953125
1503,0.0341796875,-0.896484375,0.19921875
1504,0.03125,-0.9052734375,0.2001953125
1505,0.037109375,-0.90234375,0.2041015625
1506,0.0390625,-0.9052734375,0.2119140625
1507,0.037109375,-0.9111328125,0.21875
1508,0.041015625,-0.9140625,0.21875
1509,0.046875,-0.9208984375,0.2197265625
1510,0.052734375,-0.923828125,0.22265625
1511,0.0595703125,-0.92578125,0.2333984375
1512,0.0556640625,-0.935546875,0.2353515625
1513,0.0556640625,-0.9365234375,0.2314453125
1514,0.068359375,-0.9375,0.2353515625
1515,0.0712890625,-0.9375,0.2216796875
1516,0.0751953125,-0.939453125,0.20703125
1517,0.0791015625,-0.939453125,0.181640625
1518,0.0859375,-0.9345703125,0.16015625
1519,0.091796875,-0.9267578125,0.1298828125
1520,0.0888671875,-0.9189453125,0.1142578125
1521,0.0947265625,-0.9140625,0.0966796875
1522,0.0810546875,-0.916015625,0.09375
1523,0.06640625,-0.9189453125,0.0927734375
1524,0.046875,-0.9248046875,0.095703125
1525,0.021484375,-0.9326171875,0.099609375
1526,-0.00390625,-0.94921875,0.107421875
1527,-0.0146484375,-0.962890625,0.099609375
1528,-0.0322265625,-0.98046875,0.1044921875
1529,-0.0478515625,-1.0009765625,0.1044921875
1530,-0.0537109375,-1.0185546875,0.1181640625
1531,-0.04296875,-1.029296875,0.12890625
1532,-0.03515625,-1.0498046875,0.1533203125
1533,-0.029296875,-1.06640625,0.1845703125
1534,-0.0341796875,-1.0712890625,0.2177734375
1535,-0.041015625,-1.07421875,0.2470703125
1536,-0.0517578125,-1.0693359375,0.271484375
1537,-0.07421875,-1.0625,0.291015625
1538,-0.0810546875,-1.0625,0.2939453125
1539,-0.09765625,-1.0634765625,0.27734375
1540,-0.099609375,-1.068359375,0.2529296875
1541,-0.1025390625,-1.0751953125,0.21484375
1542,-0.09765625,-1.080078125,0.162109375
1543,-0.08984375,-1.0908203125,0.11328125
1544,-0.05859375,-1.111328125,0.0732421875
1545,-0.0205078125,-1.140625,0.078125
1546,0.0078125,-1.1591796875,0.1025390625
1547,0.0322265625,-1.173828125,0.12890625
1548,0.0673828125,-1.173828125,0.15234375
1549,0.0830078125,-1.1787109375,0.12890625
1550,0.1025390625,-1.1728515625,0.0830078125
1551,0.130859375,-1.1875,0.029296875
1552,0.1455078125,-1.2021484375,-0.01171875
1553,0.1611328125,-1.232421875,-0.046875
1554,0.169921875,-1.2568359375,-0.0673828125
1555,0.1669921875,-1.26953125,-0.0888671875
1556,0.1806640625,-1.265625,-0.0947265625
1557,0.2109375,-1.259765625,-0.1015625
1558,0.18359375,-1.21484375,-0.10546875
1559,0.1943359375,-1.15234375,-0.0830078125
1560,0.1650390625,-1.1298828125,-0.08203125
1561,0.1806640625,-1.09375,-0.0849609375
1562,0.15625,-1.0439453125,-0.0712890625
1563,0.1474609375,-1.001953125,-0.0703125
1564,0.16015625,-0.9697265625,-0.072265625
1565,0.15234375,-0.943359375,-0.0703125
1566,0.1611328125,-0.916015625,-0.0908203125
1567,0.1669921875,-0.896484375,-0.099609375
1568,0.16015625,-0.8603515625,-0.1025390625
1569,0.150390625,-0.8486328125,-0.1083984375
1570,0.1513671875,-0.837890625,-0.1142578125
1571,0.1513671875,-0.841796875,-0.1123046875
1572,0.1318359375,-0.8603515625,-0.1015625
1573,0.1103515625,-0.876953125,-0.0869140625
1574,0.1005859375,-0.900390625,-0.0771484375
1575,0.095703125,-0.9228515625,-0.08203125
1576,0.0986328125,-0.9384765625,-0.0869140625
1577,0.1083984375,-0.953125,-0.1064453125
1578,0.12109375,-0.955078125,-0.1376953125
1579,0.12109375,-0.9560546875,-0.1640625
1580,0.1318359375,-0.95703125,-0.1943359375
1581,0.13671875,-0.958984375,-0.224609375
1582,0.13671875,-0.9658203125,-0.2470703125
1583,0.142578125,-0.974609375,-0.25390625
1584,0.142578125,-0.9765625,-0.2548828125
1585,0.130859375,-0.9814453125,-0.2421875
1586,0.109375,-0.9853515625,-0.2265625
1587,0.08984375,-0.984375,-0.212890625
1588,0.0751953125,-0.9794921875,-0.19921875
1589,0.068359375,-0.970703125,-0.1904296875
1590,0.0615234375,-0.9599609375,-0.189453125
1591,0.05078125,-0.9501953125,-0.1865234375
1592,0.0478515625,-0.9404296875,-0.1943359375
1593,0.041015625,-0.94140625,-0.1875
1594,0.0322265625,-0.9345703125,-0.1953125
1595,0.03125,-0.9423828125,-0.193359375
1596,0.0322265625,-0.962890625,-0.1923828125
1597,0.0341796875,-0.9833984375,-0.1845703125
1598,0.05078125,-0.998046875,-0.158203125
1599,0.0625,-1.03515625,-0.1435546875
1600,0.0869140625,-1.052734375,-0.1201171875
1601,0.1015625,-1.05859375,-0.1103515625
1602,0.119140625,-1.0556640625,-0.109375
1603,0.138671875,-1.0615234375,-0.1142578125
1604,0.158203125,-1.0546875,-0.1240234375
1605,0.1689453125,-1.0498046875,-0.1201171875
1606,0.193359375,-1.0419921875,-0.1162109375
1607,0.2099609375,-1.0283203125,-0.11328125
1608,0.2265625,-1.0146484375,-0.1064453125
1609,0.2470703125,-1.0087890625,-0.09765625
1610,0.2607421875,-1.00390625,-0.1005859375
1611,0.271484375,-1.0009765625,-0.0830078125
1612,0.279296875,-1.005859375,-0.0732421875
1613,0.28125,-0.9951171875,-0.0703125
1614,0.2861328125,-0.998046875,-0.0703125
1615,0.28125,-0.9873046875,-0.07421875
1616,0.271484375,-0.986328125,-0.080078125
1617,0.2587890625,-0.9951171875,-0.076171875
1618,0.2529296875,-1.001953125,-0.0703125
1619,0.23046875,-0.9951171875,-0.0625
1620,0.2294921875,-0.998046875,-0.07421875
1621,0.216796875,-0.998046875,-0.078125
1622,0.1923828125,-0.9873046875,-0.078125
1623,0.1669921875,-0.984375,-0.0830078125
1624,0.1552734375,-0.9755859375,-0.072265625
1625,0.1376953125,-0.9638671875,-0.0673828125
1626,0.1298828125,-0.955078125,-0.0595703125
1627,0.11328125,-0.94921875,-0.056640625
1628,0.099609375,-0.9404296875,-0.0419921875
1629,0.0849609375,-0.9365234375,-0.0380859375
1630,0.0712890625,-0.9267578125,-0.0283203125
1631,0.0546875,-0.9296875,-0.013671875
1632,0.0439453125,-0.9306640625,-0.001953125
1633,0.037109375,-0.9248046875,0.009765625
1634,0.0224609375,-0.9208984375,0.0205078125
1635,0.01171875,-0.9296875,0.0234375
1636,0.0107421875,-0.9248046875,0.0439453125
1637,-0.005859375,-0.9208984375,0.046875
1638,-0.013671875,-0.927734375,0.052734375
1639,-0.01171875,-0.919921875,0.060546875
1640,-0.009765625,-0.9169921875,0.05859375
1641,-0.0205078125,-0.9091796875,0.0634765625
1642,0.001953125,-0.90625,0.0654296875
1643,-0.0029296875,-0.9013671875,0.06640625
1644,-0.0234375,-0.87890625,0.0673828125
1645,-0.02734375,-0.8955078125,0.064453125
1646,-0.0234375,-0.9150390625,0.068359375
1647,-0.0166015625,-0.9150390625,0.08203125
1648,-0.0205078125,-0.9111328125,0.0810546875
1649,-0.0205078125,-0.916015625,0.07421875
1650,-0.005859375,-0.87890625,0.08984375
1651,-0.0068359375,-0.919921875,0.068359375
1652,-0.02734375,-0.9013671875,0.0751953125
1653,-0.0234375,-0.9013671875,0.0791015625
1654,-0.0244140625,-0.896484375,0.078125
1655,-0.009765625,-0.8896484375,0.0927734375
1656,-0.0263671875,-0.8828125,0.0849609375
1657,-0.0283203125,-0.8828125,0.099609375
1658,-0.0263671875,-0.8779296875,0.107421875
1659,-0.02734375,-0.890625,0.1171875
1660,-0.029296875,-0.8916015625,0.1298828125
1661,-0.0322265625,-0.900390625,0.1396484375
1662,-0.03125,-0.91015625,0.1474609375
1663,-0.03125,-0.9140625,0.1591796875
1664,-0.0341796875,-0.91796875,0.1708984375
1665,-0.0380859375,-0.919921875,0.1748046875
1666,-0.0341796875,-0.9267578125,0.1806640625
1667,-0.033203125,-0.93359375,0.1875
1668,-0.0341796875,-0.9345703125,0.1884765625
1669,-0.037109375,-0.9375,0.197265625
1670,-0.033203125,-0.9501953125,0.2001953125
1671,-0.041015625,-0.9580078125,0.2041015625
1672,-0.044921875,-0.962890625,0.201171875
1673,-0.0478515625,-0.9716796875,0.2001953125
1674,-0.0556640625,-0.9755859375,0.19921875
1675,-0.0634765625,-0.9736328125,0.19921875
1676,-0.037109375,-0.9404296875,0.20703125
1677,-0.0830078125,-0.9609375,0.1796875
1678,-0.03125,-0.9580078125,0.189453125
1679,-0.0478515625,-0.9423828125,0.1962890625
1680,-0.0458984375,-0.9306640625,0.2001953125
1681,-0.0361328125,-0.9248046875,0.205078125
1682,-0.02734375,-0.919921875,0.2041015625
1683,-0.0283203125,-0.93359375,0.208984375
1684,-0.029296875,-0.9404296875,0.185546875
1685,-0.037109375,-0.9521484375,0.1376953125
1686,-0.0068359375,-0.9248046875,0.12109375
1687,-0.005859375,-0.9560546875,0.0693359375
1688,0.021484375,-0.94140625,0.0595703125
1689,0.0361328125,-0.9345703125,0.0673828125
1690,0.0556640625,-0.92578125,0.095703125
1691,0.078125,-0.9130859375,0.1416015625
1692,0.1015625,-0.8935546875,0.1787109375
1693,0.12109375,-0.8671875,0.2119140625
1694,0.1396484375,-0.849609375,0.2275390625
1695,0.16015625,-0.8349609375,0.2421875
1696,0.1904296875,-0.8408203125,0.248046875
1697,0.1767578125,-0.8037109375,0.2548828125
1698,0.2099609375,-0.7939453125,0.2607421875
1699,0.1689453125,-0.79296875,0.2666015625
1700,0.208984375,-0.826171875,0.26171875
1701,0.21875,-0.8544921875,0.2646484375
1702,0.1962890625,-0.890625,0.2373046875
1703,0.185546875,-0.98046875,0.1982421875
1704,0.134765625,-1.1103515625,0.140625
1705,0.03515625,-1.201171875,0.0751953125
1706,-0.0595703125,-1.27734375,-0.041015625
1707,-0.1484375,-1.3349609375,-0.1708984375
1708,-0.1953125,-1.419921875,-0.287109375
1709,-0.20703125,-1.51171875,-0.33984375
1710,-0.18359375,-1.5712890625,-0.283203125
1711,-0.1435546875,-1.5400390625,-0.1591796875
1712,-0.11328125,-1.466796875,-0.037109375
1713,-0.087890625,-1.38671875,0.0341796875
1714,-0.037109375,-1.3212890625,0.0478515625
1715,-0.0009765625,-1.2705078125,0.044921875
1716,0.052734375,-1.2548828125,0.0546875
1717,0.1083984375,-1.2783203125,0.0771484375
1718,0.1201171875,-1.3046875,0.1103515625
1719,0.1318359375,-1.33984375,0.1259765625
1720,0.1337890625,-1.3564453125,0.130859375
1721,0.109375,-1.37109375,0.08984375
1722,0.109375,-1.3134765625,0.01171875
1723,0.056640625,-1.3291015625,-0.1328125
1724,0.0947265625,-1.2568359375,-0.2255859375
1725,0.0556640625,-1.14453125,-0.3056640625
1726,0.0283203125,-1.0810546875,-0.3876953125
1727,0.0107421875,-1.0546875,-0.3935546875
1728,-0.01171875,-1.0517578125,-0.3564453125
1729,-0.0322265625,-1.041015625,-0.3193359375
1730,-0.02734375,-1.0185546875,-0.296875
1731,-0.03515625,-0.990234375,-0.2841796875
1732,-0.05078125,-0.9375,-0.2822265625
1733,-0.0849609375,-0.904296875,-0.2900390625
1734,-0.111328125,-0.8564453125,-0.3125
1735,-0.1328125,-0.826171875,-0.3388671875
1736,-0.1669921875,-0.7890625,-0.3515625
1737,-0.1943359375,-0.76171875,-0.3505859375
1738,-0.203125,-0.7578125,-0.3408203125
1739,-0.1982421875,-0.78125,-0.3203125
1740,-0.1904296875,-0.8115234375,-0.2958984375
1741,-0.15625,-0.82421875,-0.248046875
1742,-0.126953125,-0.845703125,-0.2216796875
1743,-0.08984375,-0.845703125,-0.189453125
1744,-0.0595703125,-0.861328125,-0.173828125
1745,-0.0263671875,-0.8671875,-0.1572265625
1746,0.0126953125,-0.8828125,-0.162109375
1747,0.03125,-0.87109375,-0.1806640625
1748,0.0439453125,-0.8642578125,-0.2080078125
1749,0.0625,-0.8603515625,-0.2119140625
1750,0.03125,-0.869140625,-0.2109375
1751,-0.009765625,-0.880859375,-0.1728515625
1752,-0.029296875,-0.9208984375,-0.1513671875
1753,-0.0732421875,-0.947265625,-0.1142578125
1754,-0.11328125,-0.9931640625,-0.09765625
1755,-0.146484375,-1.02734375,-0.0849609375
1756,-0.1669921875,-1.0595703125,-0.06640625
1757,-0.1884765625,-1.0830078125,-0.0751953125
1758,-0.203125,-1.1083984375,-0.08203125
1759,-0.2373046875,-1.15625,-0.1025390625
1760,-0.2451171875,-1.2421875,-0.1337890625
1761,-0.21875,-1.2080078125,-0.0751953125
1762,-0.2177734375,-1.1953125,-0.07421875
1763,-0.21484375,-1.20703125,-0.0869140625
1764,-0.2001953125,-1.19140625,-0.0732421875
1765,-0.1884765625,-1.15625,-0.0703125
1766,-0.1728515625,-1.1357421875,-0.0908203125
1767,-0.1494140625,-1.095703125,-0.0947265625
1768,-0.1318359375,-1.06640625,-0.1005859375
1769,-0.109375,-1.03125,-0.1083984375
1770,-0.087890625,-0.990234375,-0.1220703125
1771,-0.0693359375,-0.955078125,-0.126953125
1772,-0.0458984375,-0.9306640625,-0.138671875
1773,-0.029296875,-0.90625,-0.134765625
1774,-0.013671875,-0.9052734375,-0.1259765625
1775,0.0009765625,-0.8994140625,-0.107421875
1776,0.0283203125,-0.8984375,-0.0830078125
1777,0.0595703125,-0.90625,-0.064453125
1778,0.087890625,-0.916015625,-0.0478515625
1779,0.1044921875,-0.9169921875,-0.0302734375
1780,0.119140625,-0.9267578125,-0.0283203125
1781,0.1337890625,-0.94921875,-0.0341796875
1782,0.1201171875,-0.9384765625,-0.015625
1783,0.1826171875,-0.955078125,0.0078125
1784,0.166015625,-0.955078125,-0.005859375
1785,0.171875,-0.951171875,-0.0048828125
1786,0.1513671875,-0.9443359375,-0.0029296875
1787,0.134765625,-0.9345703125,-0.0029296875
1788,0.1044921875,-0.935546875,-0.01171875
1789,0.080078125,-0.9296875,-0.0048828125
1790,0.0478515625,-0.9208984375,0.0087890625
1791,0.0244140625,-0.912109375,0.0234375
1792,-0.0048828125,-0.9013671875,0.02734375
1793,-0.03125,-0.8984375,0.041015625
1794,-0.0517578125,-0.9013671875,0.0439453125
1795,-0.076171875,-0.8818359375,0.041015625
1796,-0.0869140625,-0.86328125,0.046875
1797,-0.08203125,-0.8466796875,0.0595703125
1798,-0.0869140625,-0.8330078125,0.0556640625
1799,-0.0908203125,-0.8212890625,0.0537109375
1800,-0.087890625,-0.8037109375,0.0615234375
1801,-0.095703125,-0.802734375,0.0595703125
1802,-0.1005859375,-0.80078125,0.0634765625
1803,-0.1015625,-0.80078125,0.0712890625
1804,-0.1025390625,-0.798828125,0.0732421875
1805,-0.1044921875,-0.8115234375,0.078125
1806,-0.111328125,-0.8134765625,0.083984375
1807,-0.107421875,-0.8203125,0.0947265625
1808,-0.099609375,-0.837890625,0.1005859375
1809,-0.1044921875,-0.8583984375,0.1103515625
1810,-0.0986328125,-0.8759765625,0.1220703125
1811,-0.0859375,-0.88671875,0.1396484375
1812,-0.0791015625,-0.9052734375,0.1484375
1813,-0.064453125,-0.916015625,0.1640625
1814,-0.041015625,-0.919921875,0.177734375
1815,-0.0302734375,-0.935546875,0.1875
1816,-0.01171875,-0.95703125,0.205078125
1817,0.0029296875,-0.95703125,0.203125
1818,0.021484375,-0.9697265625,0.21484375
1819,0.0322265625,-0.9775390625,0.216796875
1820,0.04296875,-0.9833984375,0.2158203125
1821,0.0537109375,-0.9951171875,0.2177734375
1822,0.07421875,-0.9921875,0.2216796875
1823,0.0771484375,-0.986328125,0.2138671875
1824,0.0986328125,-0.9833984375,0.21484375
1825,0.095703125,-0.9853515625,0.2138671875
1826,0.1181640625,-0.982421875,0.2138671875
1827,0.1171875,-0.9755859375,0.22265625
1828,0.125,-0.962890625,0.22265625
1829,0.1259765625,-0.962890625,0.21875
1830,0.1181640625,-0.94921875,0.2255859375
1831,0.123046875,-0.9375,0.2255859375
1832,0.115234375,-0.9326171875,0.2197265625
1833,0.1162109375,-0.923828125,0.1923828125
1834,0.1220703125,-0.9189453125,0.1689453125
1835,0.1142578125,-0.9072265625,0.1298828125
1836,0.11328125,-0.904296875,0.1044921875
1837,0.119140625,-0.9033203125,0.07421875
1838,0.111328125,-0.908203125,0.0693359375
1839,0.0947265625,-0.9189453125,0.072265625
1840,0.0888671875,-0.9267578125,0.083984375
1841,0.0751953125,-0.955078125,0.111328125
1842,0.07421875,-1.001953125,0.146484375
1843,0.0673828125,-1.0537109375,0.1787109375
1844,0.0634765625,-1.0849609375,0.21484375
1845,0.0576171875,-1.109375,0.232421875
1846,0.04296875,-1.1181640625,0.240234375
1847,0.0439453125,-1.119140625,0.2451171875
1848,0.05078125,-1.1025390625,0.236328125
1849,0.0615234375,-1.076171875,0.2275390625
1850,0.046875,-1.0400390625,0.21875
1851,0.0556640625,-1.017578125,0.22265625
1852,0.0361328125,-0.9970703125,0.2353515625
1853,0.021484375,-1.0,0.2392578125
1854,-0.0029296875,-1.005859375,0.2333984375
1855,-0.009765625,-1.0419921875,0.2255859375
1856,-0.0126953125,-1.0888671875,0.2021484375
1857,-0.0126953125,-1.1435546875,0.1728515625
1858,-0.017578125,-1.1845703125,0.1357421875
1859,-0.03515625,-1.2216796875,0.1162109375
1860,-0.041015625,-1.2646484375,0.107421875
1861,-0.0654296875,-1.2763671875,0.1220703125
1862,-0.0771484375,-1.271484375,0.130859375
1863,-0.076171875,-1.255859375,0.1201171875
1864,-0.078125,-1.220703125,0.09765625
1865,-0.048828125,-1.203125,0.0556640625
1866,-0.046875,-1.193359375,0.0166015625
1867,-0.017578125,-1.154296875,-0.0087890625
1868,0.0224609375,-1.1376953125,-0.0322265625
1869,0.0712890625,-1.1181640625,-0.0380859375
1870,0.0830078125,-1.0859375,-0.0322265625
1871,0.099609375,-1.0634765625,-0.0380859375
1872,0.1162109375,-1.0400390625,-0.0478515625
1873,0.1162109375,-1.01171875,-0.0400390625
1874,0.1416015625,-1.001953125,-0.03515625
1875,0.1474609375,-0.978515625,-0.0205078125
1876,0.1669921875,-0.96875,-0.0244140625
1877,0.1884765625,-0.947265625,-0.0205078125
1878,0.21875,-0.9326171875,-0.0302734375
1879,0.2490234375,-0.91796875,-0.0380859375
1880,0.2724609375,-0.9111328125,-0.0439453125
1881,0.2880859375,-0.9150390625,-0.052734375
1882,0.2861328125,-0.9140625,-0.0537109375
1883,0.26953125,-0.921875,-0.0458984375
1884,0.2431640625,-0.93359375,-0.0263671875
1885,0.2197265625,-0.947265625,0.0
1886,0.2060546875,-0.955078125,0.0185546875
1887,0.1875,-0.95703125,0.0341796875
1888,0.171875,-0.9599609375,0.0107421875
1889,0.1533203125,-0.96484375,-0.013671875
1890,0.13671875,-0.9580078125,-0.0478515625
1891,0.1279296875,-0.9599609375,-0.083984375
1892,0.1279296875,-0.95703125,-0.115234375
1893,0.1162109375,-0.9541015625,-0.1494140625
1894,0.1064453125,-0.95703125,-0.1640625
1895,0.1005859375,-0.9609375,-0.1728515625
1896,0.08203125,-0.9677734375,-0.185546875
1897,0.056640625,-0.97265625,-0.1884765625
1898,0.03125,-0.9833984375,-0.1923828125
1899,0.00390625,-0.9892578125,-0.185546875
1900,-0.015625,-0.994140625,-0.173828125
1901,-0.033203125,-1.0,-0.169921875
1902,-0.03515625,-0.9912109375,-0.1669921875
1903,-0.0478515625,-0.9833984375,-0.1728515625
1904,-0.060546875,-0.98046875,-0.1767578125
1905,-0.07421875,-0.9736328125,-0.189453125
1906,-0.087890625,-0.9658203125,-0.2080078125
1907,-0.0830078125,-0.953125,-0.2294921875
1908,-0.0859375,-0.9306640625,-0.23828125
1909,-0.078125,-0.916015625,-0.2529296875
1910,-0.0634765625,-0.8994140625,-0.2490234375
1911,-0.0458984375,-0.87890625,-0.234375
1912,-0.029296875,-0.892578125,-0.2236328125
1913,-0.0107421875,-0.90625,-0.2001953125
1914,0.015625,-0.9296875,-0.171875
1915,0.0400390625,-0.9609375,-0.142578125
1916,0.07421875,-0.990234375,-0.1123046875
1917,0.1064453125,-1.0205078125,-0.1083984375
1918,0.134765625,-1.0439453125,-0.1083984375
1919,0.162109375,-1.05859375,-0.109375
1920,0.19140625,-1.08203125,-0.1044921875
1921,0.2138671875,-1.0869140625,-0.103515625
1922,0.2412109375,-1.08984375,-0.0966796875
1923,0.26171875,-1.0908203125,-0.091796875
1924,0.2802734375,-1.0771484375,-0.0869140625
1925,0.2998046875,-1.0771484375,-0.078125
1926,0.3076171875,-1.0732421875,-0.068359375
1927,0.31640625,-1.0625,-0.0595703125
1928,0.318359375,-1.046875,-0.052734375
1929,0.3154296875,-1.0283203125,-0.044921875
1930,0.314453125,-1.013671875,-0.0390625
1931,0.3046875,-1.001953125,-0.0419921875
1932,0.2880859375,-1.0009765625,-0.0283203125
1933,0.2646484375,-0.9951171875,-0.0146484375
1934,0.248046875,-0.9931640625,-0.0107421875
1935,0.228515625,-0.9873046875,-0.0263671875
1936,0.2080078125,-0.974609375,-0.0341796875
1937,0.1796875,-0.962890625,-0.0478515625
1938,0.1689453125,-0.9609375,-0.060546875
1939,0.1650390625,-0.958984375,-0.060546875
1940,0.1513671875,-0.958984375,-0.068359375
1941,0.119140625,-0.9501953125,-0.0673828125
1942,0.1064453125,-0.947265625,-0.0634765625
1943,0.0888671875,-0.953125,-0.0634765625
1944,0.0791015625,-0.951171875,-0.0595703125
1945,0.0673828125,-0.94921875,-0.0556640625
1946,0.0478515625,-0.951171875,-0.046875
1947,0.029296875,-0.9423828125,-0.0419921875
1948,0.0166015625,-0.9443359375,-0.03125
1949,0.0029296875,-0.94140625,-0.03515625
1950,-0.021484375,-0.9345703125,-0.0146484375
1951,-0.0400390625,-0.927734375,-0.0146484375
1952,-0.0322265625,-0.9287109375,0.00390625
1953,-0.0498046875,-0.9267578125,0.0126953125
1954,-0.04296875,-0.9111328125,0.0185546875
1955,-0.033203125,-0.9072265625,0.0185546875
1956,-0.0400390625,-0.9111328125,0.017578125
1957,-0.0478515625,-0.9013671875,0.0263671875
1958,-0.044921875,-0.90234375,0.0361328125
1959,-0.0439453125,-0.8994140625,0.041015625
1960,-0.04296875,-0.9013671875,0.04296875
1961,-0.0341796875,-0.8994140625,0.046875
1962,-0.037109375,-0.890625,0.0498046875
1963,-0.0380859375,-0.8974609375,0.0498046875
1964,-0.029296875,-0.8916015625,0.05078125
1965,-0.03125,-0.8662109375,0.0703125
1966,-0.00390625,-0.9091796875,0.0458984375
1967,-0.0087890625,-0.8935546875,0.06640625
1968,-0.0029296875,-0.9013671875,0.0546875
1969,0.0048828125,-0.9052734375,0.0478515625
1970,0.01953125,-0.904296875,0.0576171875
1971,0.037109375,-0.9150390625,0.05859375
1972,0.0185546875,-0.9072265625,0.060546875
1973,0.0224609375,-0.9111328125,0.0654296875
1974,0.0322265625,-0.916015625,0.0712890625
1975,0.03125,-0.919921875,0.0810546875
1976,0.029296875,-0.9267578125,0.0869140625
1977,0.03125,-0.9248046875,0.0927734375
1978,0.025390625,-0.92578125,0.099609375
1979,0.021484375,-0.923828125,0.11328125
1980,0.0234375,-0.921875,0.111328125
1981,0.0185546875,-0.9169921875,0.12109375
1982,0.025390625,-0.91796875,0.1318359375
1983,0.0205078125,-0.91015625,0.138671875
1984,0.017578125,-0.912109375,0.14453125
1985,0.0224609375,-0.91796875,0.1552734375
1986,0.017578125,-0.9267578125,0.16015625
1987,0.0263671875,-0.931640625,0.16796875
1988,0.0205078125,-0.9453125,0.16796875
1989,0.017578125,-0.953125,0.173828125
1990,0.0224609375,-0.9599609375,0.1748046875
1991,0.0166015625,-0.96875,0.177734375
1992,0.005859375,-0.97265625,0.18359375
1993,0.001953125,-0.9814453125,0.1845703125
1994,-0.021484375,-0.9873046875,0.1796875
1995,-0.015625,-0.998046875,0.1689453125
1996,-0.0751953125,-1.0126953125,0.162109375
1997,0.03125,-1.0390625,0.119140625
1998,-0.015625,-1.005859375,0.1220703125
1999,-0.0078125,-1.009765625,0.1015625
2000,0.00390625,-0.998046875,0.0927734375
2001,0.0205078125,-0.99609375,0.1064453125
2002,0.0380859375,-0.994140625,0.1162109375
2003,0.056640625,-0.98828125,0.1201171875
2004,0.0859375,-0.9951171875,0.1318359375
2005,0.099609375,-0.982421875,0.1416015625
2006,0.123046875,-0.970703125,0.14453125
2007,0.138671875,-0.958984375,0.1513671875
2008,0.1806640625,-0.9169921875,0.1630859375
2009,0.162109375,-0.9453125,0.1474609375
2010,0.1591796875,-0.9248046875,0.1435546875
2011,0.158203125,-0.904296875,0.1474609375
2012,0.16015625,-0.8916015625,0.1376953125
2013,0.16015625,-0.900390625,0.130859375
2014,0.1572265625,-0.9111328125,0.1220703125
2015,0.142578125,-0.935546875,0.1201171875
2016,0.1162109375,-0.9990234375,0.1025390625
2017,0.0703125,-1.068359375,0.0810546875
2018,0.0224609375,-1.123046875,0.0595703125
2019,-0.0322265625,-1.16796875,0.017578125
2020,-0.0791015625,-1.2138671875,-0.0380859375
2021,-0.1162109375,-1.2724609375,-0.0859375
2022,-0.130859375,-1.3203125,-0.12890625
2023,-0.1455078125,-1.3427734375,-0.150390625
2024,-0.130859375,-1.3525390625,-0.1328125
2025,-0.1162109375,-1.3359375,-0.115234375
2026,-0.0927734375,-1.306640625,-0.0888671875
2027,-0.0869140625,-1.2724609375,-0.0517578125
2028,-0.0791015625,-1.2216796875,-0.017578125
2029,-0.064453125,-1.1787109375,0.005859375
2030,-0.0439453125,-1.1552734375,0.0302734375
2031,-0.01171875,-1.1298828125,0.05859375
2032,0.0185546875,-1.1181640625,0.0810546875
2033,0.0458984375,-1.09765625,0.1044921875
2034,0.041015625,-1.0947265625,0.0966796875
2035,0.0595703125,-1.111328125,0.09375
2036,0.0615234375,-1.1279296875,0.0693359375
2037,0.044921875,-1.138671875,0.0478515625
2038,0.0146484375,-1.1357421875,0.0205078125
2039,0.041015625,-1.10546875,0.005859375
2040,0.0029296875,-1.158203125,-0.080078125
2041,-0.0302734375,-1.10546875,-0.115234375
2042,-0.06640625,-1.076171875,-0.16796875
2043,-0.083984375,-1.052734375,-0.2080078125
2044,-0.087890625,-1.052734375,-0.2177734375
2045,-0.12109375,-1.0361328125,-0.20703125
2046,-0.1474609375,-1.0458984375,-0.1962890625
2047,-0.1669921875,-1.0478515625,-0.1728515625
2048,-0.1787109375,-1.0478515625,-0.1533203125
2049,-0.2216796875,-1.025390625,-0.15234375
2050,-0.2607421875,-1.0185546875,-0.1611328125
2051,-0.2822265625,-1.0126953125,-0.181640625
2052,-0.3017578125,-1.0,-0.2060546875
2053,-0.29296875,-1.0,-0.2177734375
2054,-0.263671875,-0.9853515625,-0.21875
2055,-0.2099609375,-0.9609375,-0.2099609375
2056,-0.158203125,-0.94140625,-0.20703125
2057,-0.13671875,-0.9169921875,-0.212890625
2058,-0.0419921875,-0.9091796875,-0.2060546875
2059,0.009765625,-0.8720703125,-0.1943359375
2060,0.041015625,-0.8408203125,-0.18359375
2061,0.0830078125,-0.8212890625,-0.1826171875
2062,0.10546875,-0.8212890625,-0.1826171875
2063,0.1171875,-0.8173828125,-0.171875
2064,0.1123046875,-0.810546875,-0.166015625
2065,0.1083984375,-0.8046875,-0.171875
2066,0.111328125,-0.802734375,-0.1875
2067,0.091796875,-0.8134765625,-0.205078125
2068,0.06640625,-0.810546875,-0.2177734375
2069,0.0224609375,-0.8369140625,-0.2197265625
2070,-0.037109375,-0.8818359375,-0.2099609375
2071,-0.1005859375,-0.9140625,-0.1748046875
2072,-0.0927734375,-0.962890625,-0.15625
2073,-0.12890625,-1.005859375,-0.150390625
2074,-0.154296875,-1.0400390625,-0.142578125
2075,-0.1708984375,-1.076171875,-0.1171875
2076,-0.197265625,-1.1064453125,-0.0927734375
2077,-0.2021484375,-1.1142578125,-0.0634765625
2078,-0.2138671875,-1.1279296875,-0.0556640625
2079,-0.220703125,-1.142578125,-0.0556640625
2080,-0.2373046875,-1.1484375,-0.060546875
2081,-0.240234375,-1.1279296875,-0.060546875
2082,-0.2490234375,-1.1064453125,-0.0703125
2083,-0.2451171875,-1.0791015625,-0.0673828125
2084,-0.2412109375,-1.060546875,-0.0732421875
2085,-0.23046875,-1.02734375,-0.083984375
2086,-0.20703125,-1.0009765625,-0.0869140625
2087,-0.1865234375,-0.9794921875,-0.083984375
2088,-0.1708984375,-0.9873046875,-0.095703125
2089,-0.142578125,-0.9677734375,-0.0712890625
2090,-0.12109375,-0.9482421875,-0.05859375
2091,-0.111328125,-0.9423828125,-0.07421875
2092,-0.072265625,-0.939453125,-0.0849609375
2093,-0.048828125,-0.9384765625,-0.08984375
2094,-0.0185546875,-0.9384765625,-0.1005859375
2095,0.013671875,-0.9365234375,-0.1015625
2096,0.02734375,-0.9453125,-0.10546875
2097,0.0556640625,-0.9482421875,-0.10546875
2098,0.0830078125,-0.953125,-0.1123046875
2099,0.083984375,-0.955078125,-0.107421875
2100,0.1025390625,-0.9677734375,-0.103515625
2101,0.109375,-0.9736328125,-0.09375
2102,0.1162109375,-0.984375,-0.0703125
2103,0.1123046875,-1.001953125,-0.05859375
2104,0.1025390625,-1.005859375,-0.052734375
2105,0.1005859375,-1.04296875,-0.0693359375
2106,0.07421875,-1.0,-0.0380859375
2107,0.0927734375,-1.0087890625,-0.0263671875
2108,0.0537109375,-0.9970703125,-0.0283203125
2109,0.0283203125,-1.0,-0.0302734375
2110,0.0126953125,-0.9814453125,-0.0166015625
2111,-0.0166015625,-0.9765625,-0.0048828125
2112,-0.0302734375,-0.9736328125,0.017578125
2113,-0.041015625,-0.9599609375,0.0302734375
2114,-0.052734375,-0.947265625,0.041015625
2115,-0.0537109375,-0.9033203125,0.0625
2116,-0.04296875,-0.888671875,0.064453125
2117,-0.0419921875,-0.88671875,0.0673828125
2118,-0.0361328125,-0.8740234375,0.072265625
2119,-0.0341796875,-0.859375,0.08203125
2120,-0.0234375,-0.8505859375,0.0849609375
2121,-0.0126953125,-0.84765625,0.0830078125
2122,-0.00390625,-0.8486328125,0.08984375
2123,0.0068359375,-0.8525390625,0.0888671875
2124,0.015625,-0.8623046875,0.08984375
2125,0.0322265625,-0.86328125,0.0947265625
2126,0.041015625,-0.869140625,0.099609375
2127,0.046875,-0.880859375,0.0986328125
2128,0.0595703125,-0.8955078125,0.1083984375
2129,0.07421875,-0.90234375,0.1162109375
2130,0.07421875,-0.9052734375,0.12890625
2131,0.076171875,-0.912109375,0.1318359375
2132,0.0830078125,-0.9140625,0.13671875
2133,0.087890625,-0.9150390625,0.1416015625
2134,0.091796875,-0.9169921875,0.1474609375
2135,0.091796875,-0.9130859375,0.1474609375
2136,0.0908203125,-0.908203125,0.158203125
2137,0.0888671875,-0.8955078125,0.1611328125
2138,0.0830078125,-0.880859375,0.1669921875
2139,0.080078125,-0.875,0.16796875
2140,0.07421875,-0.865234375,0.173828125
2141,0.0693359375,-0.8564453125,0.1748046875
2142,0.068359375,-0.8427734375,0.181640625
2143,0.0537109375,-0.84375,0.1796875
2144,0.0517578125,-0.8349609375,0.1904296875
2145,0.046875,-0.8388671875,0.2041015625
2146,0.0380859375,-0.841796875,0.20703125
2147,0.0341796875,-0.8515625,0.21875
2148,0.0322265625,-0.8515625,0.228515625
2149,0.0263671875,-0.8603515625,0.2314453125
2150,0.0244140625,-0.875,0.232421875
2151,0.0078125,-0.88671875,0.2294921875
2152,0.015625,-0.904296875,0.23046875
2153,0.015625,-0.9150390625,0.228515625
2154,0.013671875,-0.9326171875,0.22265625
2155,0.01953125,-0.9384765625,0.216796875
2156,0.009765625,-0.951171875,0.21875
2157,0.0205078125,-0.9619140625,0.2119140625
2158,0.0166015625,-0.97265625,0.1728515625
2159,0.0048828125,-0.9716796875,0.1337890625
2160,0.013671875,-0.984375,0.09765625
2161,0.021484375,-0.9853515625,0.0693359375
2162,0.0224609375,-0.9921875,0.0615234375
2163,0.0244140625,-0.9970703125,0.05859375
2164,0.0185546875,-1.0107421875,0.076171875
2165,0.013671875,-1.02734375,0.0966796875
2166,0.015625,-1.0537109375,0.12890625
2167,0.0107421875,-1.06640625,0.16796875
2168,0.0068359375,-1.08203125,0.19140625
2169,0.0390625,-1.09375,0.22265625
2170,0.029296875,-1.0869140625,0.2451171875
2171,0.005859375,-1.0732421875,0.2431640625
2172,0.01953125,-1.052734375,0.255859375
2173,0.041015625,-1.0234375,0.2548828125
2174,0.0498046875,-1.0087890625,0.24609375
2175,0.0537109375,-0.9912109375,0.240234375
2176,0.0576171875,-0.9912109375,0.2294921875
2177,0.0478515625,-1.00390625,0.23046875
2178,0.03515625,-1.0439453125,0.2119140625
2179,0.0244140625,-1.087890625,0.1796875
2180,0.0009765625,-1.1220703125,0.15234375
2181,-0.041015625,-1.158203125,0.12109375
2182,-0.0634765625,-1.2021484375,0.0986328125
2183,-0.080078125,-1.2431640625,0.087890625
2184,-0.080078125,-1.2734375,0.09765625
2185,-0.06640625,-1.2822265625,0.111328125
2186,-0.0615234375,-1.275390625,0.107421875
2187,-0.0576171875,-1.2666015625,0.080078125
2188,-0.0458984375,-1.267578125,0.044921875
2189,-0.0380859375,-1.2607421875,0.0224609375
2190,-0.03125,-1.2470703125,0.0078125
2191,-0.02734375,-1.234375,-0.0048828125
2192,0.0048828125,-1.23046875,-0.0244140625
2193,-0.0390625,-1.1611328125,0.0068359375
2194,-0.017578125,-1.1455078125,-0.0166015625
2195,-0.01171875,-1.1181640625,-0.0048828125
2196,-0.0205078125,-1.099609375,0.009765625
2197,-0.009765625,-1.078125,0.013671875
2198,0.01953125,-1.068359375,0.021484375
2199,0.064453125,-1.056640625,0.03125
2200,0.0986328125,-1.0322265625,0.0224609375
2201,0.1142578125,-1.001953125,-0.0029296875
2202,0.1396484375,-0.9794921875,-0.033203125
2203,0.150390625,-0.94921875,-0.056640625
2204,0.1767578125,-0.931640625,-0.0732421875
2205,0.1845703125,-0.92578125,-0.0859375
2206,0.1845703125,-0.91796875,-0.0791015625
2207,0.169921875,-0.9140625,-0.0693359375
2208,0.1689453125,-0.9130859375,-0.0615234375
2209,0.1630859375,-0.9150390625,-0.0517578125
2210,0.1591796875,-0.916015625,-0.052734375
2211,0.150390625,-0.916015625,-0.0712890625
2212,0.1376953125,-0.91015625,-0.1005859375
2213,0.1337890625,-0.9091796875,-0.1357421875
2214,0.1376953125,-0.9111328125,-0.1728515625
2215,0.130859375,-0.9150390625,-0.20703125
2216,0.1328125,-0.9267578125,-0.234375
2217,0.1376953125,-0.9267578125,-0.25
2218,0.1455078125,-0.927734375,-0.265625
2219,0.1455078125,-0.935546875,-0.2724609375
2220,0.14453125,-0.9443359375,-0.2685546875
2221,0.14453125,-0.9541015625,-0.25
2222,0.16015625,-0.9619140625,-0.2412109375
2223,0.1640625,-0.9658203125,-0.2236328125
2224,0.169921875,-0.9609375,-0.2177734375
2225,0.1630859375,-0.9580078125,-0.212890625
2226,0.162109375,-0.953125,-0.20703125
2227,0.1416015625,-0.939453125,-0.19921875
2228,0.1298828125,-0.9384765625,-0.189453125
2229,0.1123046875,-0.94140625,-0.1796875
2230,0.0986328125,-0.9443359375,-0.1640625
2231,0.0859375,-0.955078125,-0.1513671875
2232,0.076171875,-0.97265625,-0.1357421875
2233,0.078125,-0.994140625,-0.125
2234,0.0810546875,-0.998046875,-0.1103515625
2235,0.0888671875,-1.0166015625,-0.109375
2236,0.095703125,-1.033203125,-0.1142578125
2237,0.099609375,-1.0537109375,-0.1220703125
2238,0.103515625,-1.0634765625,-0.1181640625
2239,0.09765625,-1.0703125,-0.11328125
2240,0.103515625,-1.0830078125,-0.09765625
2241,0.103515625,-1.076171875,-0.087890625
2242,0.107421875,-1.0732421875,-0.080078125
2243,0.1171875,-1.0634765625,-0.06640625
2244,0.1318359375,-1.0478515625,-0.0576171875
2245,0.142578125,-1.0146484375,-0.0556640625
2246,0.1494140625,-0.9931640625,-0.0654296875
2247,0.15625,-0.9697265625,-0.072265625
2248,0.1875,-0.9619140625,-0.0751953125
2249,0.193359375,-0.947265625,-0.072265625
2250,0.1904296875,-0.947265625,-0.068359375
2251,0.1923828125,-0.9453125,-0.0615234375
2252,0.1904296875,-0.955078125,-0.05859375
2253,0.17578125,-0.95703125,-0.056640625
2254,0.158203125,-0.9619140625,-0.060546875
2255,0.140625,-0.97265625,-0.06640625
2256,0.1142578125,-0.98046875,-0.0703125
2257,0.09375,-0.982421875,-0.068359375
2258,0.068359375,-0.9755859375,-0.0693359375
2259,0.041015625,-0.96875,-0.072265625
2260,0.01171875,-0.9580078125,-0.0703125
2261,-0.0048828125,-0.9560546875,-0.068359375
2262,-0.0224609375,-0.9521484375,-0.064453125
2263,-0.0322265625,-0.953125,-0.0556640625
2264,-0.0478515625,-0.947265625,-0.046875
2265,-0.0517578125,-0.939453125,-0.02734375
2266,-0.0537109375,-0.939453125,-0.0068359375
2267,-0.04296875,-0.943359375,0.0068359375
2268,-0.03515625,-0.9423828125,0.017578125
2269,-0.0341796875,-0.9443359375,0.0322265625
2270,-0.0234375,-0.9521484375,0.0439453125
2271,-0.015625,-0.955078125,0.048828125
2272,-0.0126953125,-0.951171875,0.0576171875
2273,0.0029296875,-0.9521484375,0.0595703125
2274,0.0087890625,-0.9443359375,0.0625
2275,0.025390625,-0.9384765625,0.056640625
2276,0.033203125,-0.9345703125,0.0556640625
2277,0.0400390625,-0.9296875,0.0615234375
2278,0.044921875,-0.9306640625,0.0625
2279,0.0498046875,-0.9169921875,0.0634765625
2280,0.048828125,-0.912109375,0.0673828125
2281,0.05078125,-0.8994140625,0.0810546875
2282,0.01953125,-0.90625,0.0615234375
2283,0.046875,-0.89453125,0.0849609375
2284,0.0361328125,-0.8798828125,0.08984375
2285,0.048828125,-0.8994140625,0.07421875
2286,0.03515625,-0.8779296875,0.0908203125
2287,0.0322265625,-0.9013671875,0.09375
2288,0.0302734375,-0.9013671875,0.09375
2289,0.02734375,-0.9072265625,0.1044921875
2290,0.0302734375,-0.9072265625,0.1064453125
2291,0.0234375,-0.9111328125,0.1181640625
2292,0.0224609375,-0.916015625,0.11328125
2293,0.0244140625,-0.919921875,0.119140625
2294,0.0234375,-0.9228515625,0.1259765625
2295,0.0283203125,-0.923828125,0.1357421875
2296,0.0263671875,-0.919921875,0.1416015625
2297,0.0205078125,-0.916015625,0.1484375
2298,0.01953125,-0.916015625,0.15234375
2299,0.0205078125,-0.9150390625,0.162109375
2300,0.0126953125,-0.9140625,0.171875
2301,0.0048828125,-0.91796875,0.1796875
2302,-0.001953125,-0.921875,0.1875
2303,-0.0107421875,-0.9521484375,0.197265625
2304,0.0234375,-0.955078125,0.2109375
2305,-0.0009765625,-0.958984375,0.2177734375
2306,-0.0126953125,-0.9697265625,0.21875
2307,-0.0126953125,-0.98046875,0.22265625
2308,-0.0146484375,-0.9892578125,0.2236328125
2309,-0.01171875,-0.99609375,0.21875
2310,-0.0166015625,-0.99609375,0.2109375
2311,-0.0234375,-0.994140625,0.2119140625
2312,-0.0146484375,-0.9912109375,0.21484375
2313,-0.01171875,-0.986328125,0.212890625
2314,-0.0107421875,-0.98828125,0.2080078125
2315,-0.01953125,-0.9736328125,0.208984375
2316,-0.0517578125,-0.9375,0.1884765625
2317,-0.046875,-1.0078125,0.125
2318,-0.048828125,-0.99609375,0.0849609375
2319,-0.103515625,-0.9833984375,0.0439453125
2320,-0.1220703125,-0.9814453125,0.0263671875
2321,-0.1259765625,-0.9833984375,0.025390625
2322,-0.119140625,-0.990234375,0.0537109375
2323,-0.109375,-0.9990234375,0.0869140625
2324,-0.1005859375,-1.0029296875,0.130859375
2325,-0.0830078125,-1.0009765625,0.1640625
2326,-0.072265625,-0.9833984375,0.189453125
2327,-0.0673828125,-0.96484375,0.193359375
2328,-0.04296875,-0.9365234375,0.1953125
2329,-0.0244140625,-0.9140625,0.19921875
2330,-0.0029296875,-0.8818359375,0.20703125
2331,-0.03125,-0.880859375,0.1982421875
2332,0.0361328125,-0.8681640625,0.205078125
2333,0.0380859375,-0.8603515625,0.212890625
2334,0.0419921875,-0.8623046875,0.2216796875
2335,0.048828125,-0.8916015625,0.21875
2336,0.0537109375,-0.923828125,0.2158203125
2337,0.05859375,-0.9765625,0.201171875
2338,0.0419921875,-1.0517578125,0.181640625
2339,0.0146484375,-1.1103515625,0.1455078125
2340,-0.017578125,-1.140625,0.1044921875
2341,-0.0244140625,-1.173828125,0.0517578125
2342,-0.0048828125,-1.2138671875,0.0166015625
2343,0.0205078125,-1.2685546875,-0.0078125
2344,0.041015625,-1.28125,0.0205078125
2345,0.048828125,-1.2744140625,0.0517578125
2346,0.0341796875,-1.236328125,0.0732421875
2347,0.03125,-1.1796875,0.0830078125
2348,0.001953125,-1.1259765625,0.0634765625
2349,-0.01953125,-1.0810546875,0.0439453125
2350,-0.044921875,-1.0283203125,0.0361328125
2351,-0.0634765625,-1.001953125,0.03125
2352,-0.0703125,-0.9892578125,0.025390625
2353,-0.076171875,-0.9873046875,0.0341796875
2354,-0.0537109375,-1.0029296875,0.048828125
2355,-0.041015625,-1.0439453125,0.0673828125
2356,-0.0234375,-1.07421875,0.0927734375
2357,-0.0107421875,-1.109375,0.103515625
2358,0.0048828125,-1.1181640625,0.1044921875
2359,0.0029296875,-1.1650390625,0.083984375
2360,0.0224609375,-1.1728515625,0.0703125
2361,-0.0078125,-1.15625,0.0390625
2362,-0.037109375,-1.1455078125,-0.009765625
2363,-0.068359375,-1.1259765625,-0.0537109375
2364,-0.103515625,-1.109375,-0.095703125
2365,-0.125,-1.087890625,-0.1103515625
2366,-0.14453125,-1.0712890625,-0.1220703125
2367,-0.1611328125,-1.0673828125,-0.1064453125
2368,-0.1748046875,-1.068359375,-0.083984375
2369,-0.19140625,-1.068359375,-0.0751953125
2370,-0.1982421875,-1.06640625,-0.0654296875
2371,-0.203125,-1.0595703125,-0.0751953125
2372,-0.1884765625,-1.0537109375,-0.087890625
2373,-0.177734375,-1.0400390625,-0.1005859375
2374,-0.158203125,-1.0185546875,-0.1083984375
2375,-0.1181640625,-1.0029296875,-0.1123046875
2376,-0.072265625,-0.9912109375,-0.1240234375
2377,-0.044921875,-0.9619140625,-0.12890625
2378,-0.0205078125,-0.9521484375,-0.154296875
2379,0.072265625,-0.9375,-0.146484375
2380,0.0830078125,-0.916015625,-0.150390625
2381,0.095703125,-0.90234375,-0.1591796875
2382,0.11328125,-0.8798828125,-0.1611328125
2383,0.1025390625,-0.8681640625,-0.1591796875
2384,0.0966796875,-0.859375,-0.1630859375
2385,0.087890625,-0.8515625,-0.1689453125
2386,0.0908203125,-0.8466796875,-0.171875
2387,0.07421875,-0.853515625,-0.1650390625
2388,0.0498046875,-0.8671875,-0.1552734375
2389,0.0283203125,-0.876953125,-0.1455078125
2390,0.01171875,-0.9091796875,-0.123046875
2391,-0.015625,-0.9375,-0.1142578125
2392,-0.029296875,-0.9736328125,-0.080078125
2393,-0.0458984375,-0.9990234375,-0.0537109375
2394,-0.064453125,-1.0498046875,-0.05078125
2395,-0.0791015625,-1.0849609375,-0.0400390625
2396,-0.0947265625,-1.1201171875,-0.03515625
2397,-0.099609375,-1.14453125,-0.033203125
2398,-0.1044921875,-1.16015625,-0.017578125
2399,-0.1025390625,-1.1630859375,-0.00390625
