,accelerometerAccelerationX(G),accelerometerAccelerationY(G),accelerometerAccelerationZ(G)
0,-0.0849609375,-0.9580078125,0.28125
1,-0.0654296875,-0.9521484375,0.3056640625
2,-0.03515625,-0.95703125,0.302734375
3,-0.03125,-0.9501953125,0.267578125
4,-0.052734375,-0.9677734375,0.203125
5,-0.0517578125,-0.9873046875,0.1396484375
6,-0.07421875,-1.0390625,0.05859375
7,-0.109375,-1.095703125,-0.056640625
8,-0.1474609375,-1.150390625,-0.1826171875
9,-0.185546875,-1.212890625,-0.302734375
10,-0.2119140625,-1.2822265625,-0.392578125
11,-0.22265625,-1.3525390625,-0.44140625
12,-0.2314453125,-1.4052734375,-0.4384765625
13,-0.2548828125,-1.46484375,-0.390625
14,-0.2548828125,-1.50390625,-0.3134765625
15,-0.224609375,-1.5419921875,-0.236328125
16,-0.1923828125,-1.5419921875,-0.169921875
17,-0.1533203125,-1.51171875,-0.12890625
18,-0.1123046875,-1.4755859375,-0.115234375
19,-0.0810546875,-1.42578125,-0.1240234375
20,-0.0595703125,-1.376953125,-0.150390625
21,-0.0390625,-1.3203125,-0.185546875
22,-0.0283203125,-1.248046875,-0.224609375
23,0.0048828125,-1.1640625,-0.255859375
24,0.0322265625,-1.0888671875,-0.28125
25,0.0439453125,-1.009765625,-0.2900390625
26,0.0576171875,-0.935546875,-0.3125
27,0.0732421875,-0.8623046875,-0.322265625
28,0.076171875,-0.7998046875,-0.3330078125
29,0.087890625,-0.7421875,-0.3486328125
30,0.0771484375,-0.6708984375,-0.3671875
31,0.083984375,-0.6279296875,-0.3779296875
32,0.072265625,-0.591796875,-0.3828125
33,0.0634765625,-0.5576171875,-0.3837890625
34,0.0673828125,-0.5341796875,-0.384765625
35,0.0693359375,-0.525390625,-0.3798828125
36,0.072265625,-0.5283203125,-0.3720703125
37,0.0732421875,-0.548828125,-0.357421875
38,0.0673828125,-0.580078125,-0.34375
39,0.060546875,-0.6181640625,-0.3232421875
40,0.0380859375,-0.6748046875,-0.3056640625
41,-0.001953125,-0.744140625,-0.2939453125
42,-0.0302734375,-0.8193359375,-0.2783203125
43,-0.0615234375,-0.908203125,-0.2685546875
44,-0.1005859375,-0.984375,-0.265625
45,-0.130859375,-1.0732421875,-0.2607421875
46,-0.1630859375,-1.146484375,-0.2607421875
47,-0.1962890625,-1.2109375,-0.2626953125
48,-0.248046875,-1.26171875,-0.2646484375
49,-0.30078125,-1.2939453125,-0.259765625
50,-0.345703125,-1.2958984375,-0.26171875
51,-0.3857421875,-1.2998046875,-0.2607421875
52,-0.4248046875,-1.2861328125,-0.2587890625
53,-0.4580078125,-1.2578125,-0.26171875
54,-0.4609375,-1.2373046875,-0.259765625
55,-0.4482421875,-1.2001953125,-0.2548828125
56,-0.416015625,-1.1552734375,-0.240234375
57,-0.3642578125,-1.1083984375,-0.2158203125
58,-0.3017578125,-1.0703125,-0.1982421875
59,-0.2548828125,-1.0322265625,-0.1796875
60,-0.1982421875,-0.9736328125,-0.1689453125
61,-0.150390625,-0.9423828125,-0.166015625
62,-0.119140625,-0.8994140625,-0.1669921875
63,-0.1044921875,-0.853515625,-0.173828125
64,-0.0927734375,-0.80859375,-0.181640625
65,-0.095703125,-0.7822265625,-0.189453125
66,-0.091796875,-0.7666015625,-0.201171875
67,-0.0849609375,-0.7578125,-0.19921875
68,-0.0830078125,-0.75390625,-0.1884765625
69,-0.0908203125,-0.76171875,-0.1767578125
70,-0.087890625,-0.7783203125,-0.158203125
71,-0.087890625,-0.798828125,-0.1396484375
72,-0.0986328125,-0.8173828125,-0.130859375
73,-0.1025390625,-0.8359375,-0.111328125
74,-0.1044921875,-0.8583984375,-0.09765625
75,-0.1044921875,-0.8701171875,-0.0888671875
76,-0.1123046875,-0.888671875,-0.083984375
77,-0.1259765625,-0.8984375,-0.0830078125
78,-0.1376953125,-0.8916015625,-0.0849609375
79,-0.140625,-0.87890625,-0.0859375
80,-0.150390625,-0.86328125,-0.083984375
81,-0.1572265625,-0.8525390625,-0.0830078125
82,-0.162109375,-0.849609375,-0.080078125
83,-0.166015625,-0.84765625,-0.07421875
84,-0.1650390625,-0.8505859375,-0.07421875
85,-0.1669921875,-0.8564453125,-0.0712890625
86,-0.15234375,-0.8662109375,-0.0693359375
87,-0.1474609375,-0.869140625,-0.05859375
88,-0.1416015625,-0.8896484375,-0.05078125
89,-0.1318359375,-0.9013671875,-0.0439453125
90,-0.1318359375,-0.916015625,-0.0478515625
91,-0.1318359375,-0.9228515625,-0.044921875
92,-0.125,-0.927734375,-0.04296875
93,-0.1259765625,-0.9267578125,-0.0439453125
94,-0.126953125,-0.91796875,-0.0390625
95,-0.119140625,-0.912109375,-0.0400390625
96,-0.1162109375,-0.90625,-0.029296875
97,-0.11328125,-0.89453125,-0.01953125
98,-0.1064453125,-0.890625,-0.01171875
99,-0.1025390625,-0.8857421875,0.0068359375
100,-0.0966796875,-0.8671875,0.0263671875
101,-0.087890625,-0.8759765625,0.04296875
102,-0.0703125,-0.865234375,0.0625
103,-0.0693359375,-0.8603515625,0.0849609375
104,-0.05859375,-0.861328125,0.1064453125
105,-0.0498046875,-0.865234375,0.1171875
106,-0.04296875,-0.87109375,0.130859375
107,-0.0419921875,-0.8662109375,0.142578125
108,-0.0419921875,-0.8779296875,0.1533203125
109,-0.0517578125,-0.8779296875,0.1552734375
110,-0.0556640625,-0.884765625,0.16015625
111,-0.0712890625,-0.890625,0.1650390625
112,-0.091796875,-0.8935546875,0.1650390625
113,-0.1025390625,-0.900390625,0.162109375
114,-0.1083984375,-0.9052734375,0.15234375
115,-0.123046875,-0.9130859375,0.12890625
116,-0.1396484375,-0.912109375,0.099609375
117,-0.13671875,-0.9169921875,0.0771484375
118,-0.1240234375,-0.9189453125,0.0498046875
119,-0.111328125,-0.921875,0.0205078125
120,-0.1015625,-0.921875,-0.017578125
121,-0.0751953125,-0.9375,-0.0419921875
122,-0.0458984375,-0.9462890625,-0.0419921875
123,-0.017578125,-0.96484375,-0.01953125
124,0.01171875,-0.98828125,0.009765625
125,0.0390625,-1.015625,0.052734375
126,0.056640625,-1.0576171875,0.0947265625
127,0.0615234375,-1.0927734375,0.1396484375
128,0.05859375,-1.1171875,0.1787109375
129,0.046875,-1.13671875,0.2158203125
130,0.041015625,-1.1357421875,0.251953125
131,0.0361328125,-1.123046875,0.2685546875
132,0.041015625,-1.109375,0.259765625
133,0.0439453125,-1.095703125,0.2177734375
134,0.0478515625,-1.0927734375,0.1591796875
135,0.0703125,-1.103515625,0.095703125
136,0.0751953125,-1.1171875,0.0205078125
137,0.0703125,-1.134765625,-0.080078125
138,0.0478515625,-1.15625,-0.1982421875
139,0.0439453125,-1.1865234375,-0.2841796875
140,0.046875,-1.2138671875,-0.30078125
141,0.0576171875,-1.2451171875,-0.2587890625
142,0.072265625,-1.271484375,-0.1875
143,0.083984375,-1.3056640625,-0.1279296875
144,0.09375,-1.337890625,-0.0771484375
145,0.1259765625,-1.3662109375,-0.0537109375
146,0.125,-1.3740234375,-0.0693359375
147,0.0927734375,-1.3583984375,-0.109375
148,0.0576171875,-1.30859375,-0.1474609375
149,0.033203125,-1.2587890625,-0.1650390625
150,0.005859375,-1.193359375,-0.177734375
151,-0.0009765625,-1.1376953125,-0.177734375
152,0.0126953125,-1.083984375,-0.1826171875
153,0.03515625,-1.05859375,-0.193359375
154,0.046875,-1.04296875,-0.2197265625
155,0.041015625,-1.0185546875,-0.255859375
156,0.0302734375,-0.9892578125,-0.2880859375
157,0.00390625,-0.9599609375,-0.314453125
158,-0.025390625,-0.923828125,-0.3427734375
159,-0.046875,-0.8876953125,-0.3681640625
160,-0.087890625,-0.83203125,-0.3974609375
161,-0.1298828125,-0.7900390625,-0.4111328125
162,-0.171875,-0.755859375,-0.427734375
163,-0.2255859375,-0.724609375,-0.4375
164,-0.26953125,-0.71484375,-0.4345703125
165,-0.3212890625,-0.7158203125,-0.419921875
166,-0.3583984375,-0.7099609375,-0.41015625
167,-0.38671875,-0.73828125,-0.3857421875
168,-0.3935546875,-0.765625,-0.3681640625
169,-0.3798828125,-0.80078125,-0.3525390625
170,-0.345703125,-0.83984375,-0.33984375
171,-0.2958984375,-0.88671875,-0.3330078125
172,-0.2373046875,-0.9248046875,-0.3193359375
173,-0.1826171875,-0.9677734375,-0.30859375
174,-0.123046875,-1.017578125,-0.287109375
175,-0.068359375,-1.060546875,-0.2685546875
176,-0.01171875,-1.091796875,-0.248046875
177,0.0517578125,-1.1103515625,-0.23046875
178,0.111328125,-1.119140625,-0.2255859375
179,0.1708984375,-1.1318359375,-0.232421875
180,0.21875,-1.13671875,-0.2490234375
181,0.2705078125,-1.1240234375,-0.287109375
182,0.306640625,-1.1044921875,-0.30859375
183,0.3427734375,-1.0908203125,-0.326171875
184,0.36328125,-1.064453125,-0.3369140625
185,0.3515625,-1.037109375,-0.3359375
186,0.3203125,-1.00390625,-0.3134765625
187,0.2744140625,-0.9794921875,-0.28515625
188,0.212890625,-0.95703125,-0.251953125
189,0.169921875,-0.9365234375,-0.2333984375
190,0.1337890625,-0.9189453125,-0.2158203125
191,0.087890625,-0.9189453125,-0.2099609375
192,0.064453125,-0.9111328125,-0.2001953125
193,0.0361328125,-0.904296875,-0.1904296875
194,0.025390625,-0.8916015625,-0.1845703125
195,0.0009765625,-0.8701171875,-0.177734375
196,-0.0185546875,-0.8505859375,-0.171875
197,-0.0322265625,-0.8408203125,-0.177734375
198,-0.033203125,-0.8359375,-0.177734375
199,-0.0361328125,-0.83984375,-0.1962890625
200,-0.0224609375,-0.8349609375,-0.205078125
201,-0.03125,-0.8359375,-0.20703125
202,-0.0224609375,-0.822265625,-0.1962890625
203,-0.0224609375,-0.818359375,-0.1884765625
204,-0.0234375,-0.81640625,-0.181640625
205,-0.01171875,-0.8232421875,-0.166015625
206,-0.005859375,-0.8310546875,-0.1474609375
207,-0.00390625,-0.84375,-0.1298828125
208,-0.0087890625,-0.8583984375,-0.11328125
209,-0.0048828125,-0.8759765625,-0.099609375
210,-0.0009765625,-0.8896484375,-0.078125
211,-0.001953125,-0.8955078125,-0.060546875
212,-0.0068359375,-0.8876953125,-0.0556640625
213,-0.0009765625,-0.90234375,-0.0458984375
214,-0.0009765625,-0.900390625,-0.044921875
215,-0.0126953125,-0.896484375,-0.0380859375
216,-0.015625,-0.89453125,-0.029296875
217,-0.0234375,-0.892578125,-0.0322265625
218,-0.021484375,-0.888671875,-0.025390625
219,-0.033203125,-0.8818359375,-0.0234375
220,-0.044921875,-0.8671875,-0.015625
221,-0.03515625,-0.86328125,-0.013671875
222,-0.0380859375,-0.8466796875,-0.0107421875
223,-0.0341796875,-0.8447265625,-0.0068359375
224,-0.037109375,-0.841796875,-0.0048828125
225,-0.0400390625,-0.8369140625,-0.0009765625
226,-0.037109375,-0.8427734375,0.001953125
227,-0.0458984375,-0.84375,0.001953125
228,-0.0341796875,-0.85546875,0.0078125
229,-0.0419921875,-0.8662109375,0.015625
230,-0.04296875,-0.8896484375,0.013671875
231,-0.0400390625,-0.9013671875,0.009765625
232,-0.0380859375,-0.916015625,0.005859375
233,-0.0390625,-0.919921875,0.0126953125
234,-0.041015625,-0.9365234375,0.013671875
235,-0.029296875,-0.9326171875,0.0234375
236,-0.025390625,-0.9365234375,0.0283203125
237,-0.0234375,-0.9375,0.0322265625
238,-0.01953125,-0.92578125,0.0439453125
239,-0.005859375,-0.9267578125,0.052734375
240,-0.0009765625,-0.923828125,0.056640625
241,0.009765625,-0.9228515625,0.0634765625
242,0.0166015625,-0.9228515625,0.060546875
243,0.013671875,-0.92578125,0.0498046875
244,0.015625,-0.9248046875,0.03515625
245,0.0,-0.927734375,0.03125
246,-0.0234375,-0.9296875,0.03125
247,-0.056640625,-0.9248046875,0.0380859375
248,-0.087890625,-0.921875,0.0458984375
249,-0.111328125,-0.9169921875,0.0556640625
250,-0.126953125,-0.9150390625,0.0673828125
251,-0.138671875,-0.9140625,0.0869140625
252,-0.1416015625,-0.908203125,0.1083984375
253,-0.14453125,-0.90625,0.13671875
254,-0.1474609375,-0.912109375,0.162109375
255,-0.1474609375,-0.9130859375,0.19140625
256,-0.1455078125,-0.9189453125,0.220703125
257,-0.1357421875,-0.9306640625,0.248046875
258,-0.126953125,-0.9365234375,0.267578125
259,-0.119140625,-0.9404296875,0.275390625
260,-0.103515625,-0.935546875,0.265625
261,-0.0927734375,-0.9384765625,0.2353515625
262,-0.0908203125,-0.9404296875,0.185546875
263,-0.1025390625,-0.9560546875,0.1220703125
264,-0.130859375,-0.990234375,0.0361328125
265,-0.181640625,-1.0419921875,-0.08203125
266,-0.255859375,-1.1015625,-0.2158203125
267,-0.3271484375,-1.1572265625,-0.34765625
268,-0.400390625,-1.2333984375,-0.45703125
269,-0.447265625,-1.3037109375,-0.5322265625
270,-0.47265625,-1.3681640625,-0.546875
271,-0.4658203125,-1.421875,-0.51171875
272,-0.44140625,-1.470703125,-0.40625
273,-0.3779296875,-1.5107421875,-0.2998046875
274,-0.294921875,-1.5458984375,-0.2197265625
275,-0.224609375,-1.5654296875,-0.1669921875
276,-0.1650390625,-1.564453125,-0.1484375
277,-0.107421875,-1.548828125,-0.16015625
278,-0.080078125,-1.5048828125,-0.2021484375
279,-0.041015625,-1.4599609375,-0.2587890625
280,-0.0087890625,-1.3935546875,-0.3193359375
281,0.029296875,-1.322265625,-0.3740234375
282,0.0498046875,-1.2216796875,-0.4228515625
283,0.0654296875,-1.13671875,-0.4619140625
284,0.0673828125,-1.0537109375,-0.4853515625
285,0.0576171875,-0.966796875,-0.5009765625
286,0.056640625,-0.892578125,-0.5205078125
287,0.0380859375,-0.8125,-0.525390625
288,0.02734375,-0.755859375,-0.515625
289,0.03515625,-0.7001953125,-0.5029296875
290,0.037109375,-0.66015625,-0.4921875
291,0.0498046875,-0.6298828125,-0.4775390625
292,0.0654296875,-0.6201171875,-0.4716796875
293,0.0966796875,-0.6279296875,-0.4482421875
294,0.1103515625,-0.6396484375,-0.439453125
295,0.1279296875,-0.6630859375,-0.4306640625
296,0.1337890625,-0.69140625,-0.4140625
297,0.134765625,-0.7099609375,-0.40234375
298,0.1259765625,-0.7412109375,-0.3916015625
299,0.0947265625,-0.775390625,-0.388671875
300,0.05078125,-0.81640625,-0.388671875
301,0.0009765625,-0.86328125,-0.388671875
302,-0.041015625,-0.91796875,-0.390625
303,-0.0869140625,-0.9609375,-0.3935546875
304,-0.15234375,-1.01171875,-0.400390625
305,-0.2001953125,-1.0478515625,-0.392578125
306,-0.2578125,-1.060546875,-0.3798828125
307,-0.3115234375,-1.076171875,-0.3642578125
308,-0.365234375,-1.0732421875,-0.357421875
309,-0.4150390625,-1.0693359375,-0.337890625
310,-0.4482421875,-1.05078125,-0.318359375
311,-0.4658203125,-1.0234375,-0.30859375
312,-0.4658203125,-0.9873046875,-0.29296875
313,-0.447265625,-0.9638671875,-0.2734375
314,-0.423828125,-0.927734375,-0.2685546875
315,-0.38671875,-0.8994140625,-0.2509765625
316,-0.34375,-0.8642578125,-0.2529296875
317,-0.302734375,-0.833984375,-0.2431640625
318,-0.2685546875,-0.80859375,-0.2509765625
319,-0.2373046875,-0.7861328125,-0.2451171875
320,-0.212890625,-0.767578125,-0.2470703125
321,-0.1923828125,-0.7607421875,-0.25
322,-0.1826171875,-0.75,-0.265625
323,-0.173828125,-0.744140625,-0.2783203125
324,-0.1689453125,-0.7568359375,-0.2861328125
325,-0.162109375,-0.7666015625,-0.2802734375
326,-0.15234375,-0.77734375,-0.2724609375
327,-0.1474609375,-0.7939453125,-0.265625
328,-0.154296875,-0.8056640625,-0.2607421875
329,-0.1484375,-0.810546875,-0.2509765625
330,-0.1552734375,-0.826171875,-0.240234375
331,-0.1650390625,-0.83203125,-0.2255859375
332,-0.1630859375,-0.84375,-0.212890625
333,-0.169921875,-0.8564453125,-0.2041015625
334,-0.1708984375,-0.884765625,-0.1875
335,-0.1669921875,-0.880859375,-0.1865234375
336,-0.1728515625,-0.8896484375,-0.18359375
337,-0.17578125,-0.884765625,-0.185546875
338,-0.1650390625,-0.880859375,-0.189453125
339,-0.1572265625,-0.865234375,-0.1884765625
340,-0.1591796875,-0.8623046875,-0.1923828125
341,-0.1630859375,-0.8623046875,-0.1943359375
342,-0.1630859375,-0.8642578125,-0.1923828125
343,-0.1650390625,-0.8662109375,-0.1865234375
344,-0.173828125,-0.8818359375,-0.18359375
345,-0.1728515625,-0.8994140625,-0.169921875
346,-0.1728515625,-0.9130859375,-0.1669921875
347,-0.1806640625,-0.9296875,-0.1611328125
348,-0.1748046875,-0.943359375,-0.142578125
349,-0.169921875,-0.9560546875,-0.1376953125
350,-0.177734375,-0.96875,-0.1201171875
351,-0.17578125,-0.970703125,-0.109375
352,-0.169921875,-0.9833984375,-0.103515625
353,-0.1630859375,-0.9794921875,-0.0927734375
354,-0.1572265625,-0.970703125,-0.087890625
355,-0.1474609375,-0.97265625,-0.0859375
356,-0.138671875,-0.96484375,-0.0732421875
357,-0.134765625,-0.955078125,-0.0634765625
358,-0.1220703125,-0.9423828125,-0.0634765625
359,-0.111328125,-0.9306640625,-0.0498046875
360,-0.1025390625,-0.9130859375,-0.0341796875
361,-0.0927734375,-0.9033203125,-0.021484375
362,-0.083984375,-0.89453125,-0.00390625
363,-0.0751953125,-0.8681640625,0.015625
364,-0.0703125,-0.8583984375,0.0283203125
365,-0.0478515625,-0.8564453125,0.0439453125
366,-0.0576171875,-0.8447265625,0.0615234375
367,-0.052734375,-0.8330078125,0.076171875
368,-0.0498046875,-0.833984375,0.08984375
369,-0.0615234375,-0.8359375,0.1025390625
370,-0.064453125,-0.8447265625,0.103515625
371,-0.076171875,-0.85546875,0.1123046875
372,-0.091796875,-0.873046875,0.1162109375
373,-0.09765625,-0.90234375,0.1171875
374,-0.10546875,-0.91796875,0.12109375
375,-0.1123046875,-0.9306640625,0.1171875
376,-0.1220703125,-0.9482421875,0.1123046875
377,-0.1259765625,-0.9541015625,0.103515625
378,-0.11328125,-0.97265625,0.1005859375
379,-0.1162109375,-0.974609375,0.09375
380,-0.107421875,-0.9775390625,0.080078125
381,-0.1005859375,-0.97265625,0.064453125
382,-0.09375,-0.9619140625,0.0546875
383,-0.099609375,-0.962890625,0.041015625
384,-0.0927734375,-0.9580078125,0.041015625
385,-0.0869140625,-0.9658203125,0.037109375
386,-0.0810546875,-0.9736328125,0.0439453125
387,-0.072265625,-0.990234375,0.05078125
388,-0.0576171875,-1.01171875,0.0703125
389,-0.064453125,-1.0400390625,0.0908203125
390,-0.056640625,-1.056640625,0.107421875
391,-0.05078125,-1.0712890625,0.109375
392,-0.0390625,-1.0791015625,0.0966796875
393,-0.0166015625,-1.09765625,0.0673828125
394,0.0205078125,-1.1416015625,0.025390625
395,0.0751953125,-1.1611328125,-0.02734375
396,0.1171875,-1.201171875,-0.125
397,0.1279296875,-1.2490234375,-0.248046875
398,0.146484375,-1.2900390625,-0.3740234375
399,0.1748046875,-1.3330078125,-0.4326171875
400,0.2060546875,-1.3671875,-0.427734375
401,0.2177734375,-1.3828125,-0.3681640625
402,0.2158203125,-1.3916015625,-0.2900390625
403,0.2109375,-1.3974609375,-0.2080078125
404,0.201171875,-1.40625,-0.1474609375
405,0.154296875,-1.4111328125,-0.1318359375
406,0.115234375,-1.396484375,-0.1494140625
407,0.0625,-1.36328125,-0.1728515625
408,0.0302734375,-1.3125,-0.19140625
409,0.0048828125,-1.2451171875,-0.1884765625
410,-0.015625,-1.1728515625,-0.1865234375
411,-0.0224609375,-1.1064453125,-0.1904296875
412,-0.03125,-1.0556640625,-0.2021484375
413,-0.0390625,-1.001953125,-0.234375
414,-0.0439453125,-0.9677734375,-0.2685546875
415,-0.0498046875,-0.9306640625,-0.3232421875
416,-0.056640625,-0.8994140625,-0.3740234375
417,-0.072265625,-0.8603515625,-0.419921875
418,-0.0869140625,-0.8037109375,-0.4423828125
419,-0.1083984375,-0.7578125,-0.4453125
420,-0.1259765625,-0.712890625,-0.4501953125
421,-0.1484375,-0.681640625,-0.4453125
422,-0.1767578125,-0.6591796875,-0.427734375
423,-0.2080078125,-0.6552734375,-0.40625
424,-0.255859375,-0.66796875,-0.3779296875
425,-0.2802734375,-0.70703125,-0.33203125
426,-0.3037109375,-0.7529296875,-0.3115234375
427,-0.3125,-0.80859375,-0.2978515625
428,-0.298828125,-0.876953125,-0.2890625
429,-0.2666015625,-0.927734375,-0.29296875
430,-0.2236328125,-0.978515625,-0.291015625
431,-0.1708984375,-1.0341796875,-0.2998046875
432,-0.1318359375,-1.080078125,-0.3046875
433,-0.083984375,-1.12109375,-0.30859375
434,-0.046875,-1.154296875,-0.30859375
435,-0.0029296875,-1.17578125,-0.3134765625
436,0.048828125,-1.1796875,-0.3203125
437,0.095703125,-1.1787109375,-0.330078125
438,0.142578125,-1.1669921875,-0.3408203125
439,0.17578125,-1.146484375,-0.357421875
440,0.1962890625,-1.11328125,-0.3701171875
441,0.224609375,-1.0791015625,-0.388671875
442,0.23046875,-1.037109375,-0.3896484375
443,0.2236328125,-0.982421875,-0.384765625
444,0.201171875,-0.9326171875,-0.3720703125
445,0.1650390625,-0.876953125,-0.3427734375
446,0.1240234375,-0.828125,-0.3212890625
447,0.080078125,-0.78515625,-0.291015625
448,0.029296875,-0.7509765625,-0.267578125
449,-0.00390625,-0.7294921875,-0.2451171875
450,-0.0380859375,-0.7158203125,-0.244140625
451,-0.0791015625,-0.70703125,-0.2236328125
452,-0.1064453125,-0.708984375,-0.21484375
453,-0.1318359375,-0.716796875,-0.2138671875
454,-0.1357421875,-0.7451171875,-0.2099609375
455,-0.1357421875,-0.78125,-0.1982421875
456,-0.119140625,-0.798828125,-0.2021484375
457,-0.0947265625,-0.82421875,-0.197265625
458,-0.0673828125,-0.8388671875,-0.201171875
459,-0.0361328125,-0.845703125,-0.208984375
460,-0.0166015625,-0.86328125,-0.2119140625
461,-0.001953125,-0.8662109375,-0.2099609375
462,0.0185546875,-0.8818359375,-0.19921875
463,0.0185546875,-0.8896484375,-0.1845703125
464,0.033203125,-0.884765625,-0.1787109375
465,0.0361328125,-0.8984375,-0.1708984375
466,0.02734375,-0.9033203125,-0.162109375
467,0.0361328125,-0.91015625,-0.1484375
468,0.0224609375,-0.912109375,-0.1328125
469,0.0390625,-0.921875,-0.1201171875
470,0.02734375,-0.9208984375,-0.111328125
471,0.041015625,-0.9228515625,-0.099609375
472,0.037109375,-0.92578125,-0.08984375
473,0.048828125,-0.9189453125,-0.0908203125
474,0.0390625,-0.908203125,-0.083984375
475,0.041015625,-0.900390625,-0.0859375
476,0.0263671875,-0.8662109375,-0.0859375
477,0.033203125,-0.8642578125,-0.080078125
478,0.025390625,-0.8447265625,-0.0791015625
479,0.0166015625,-0.8369140625,-0.078125
480,0.0078125,-0.828125,-0.0673828125
481,-0.0009765625,-0.806640625,-0.0576171875
482,-0.013671875,-0.798828125,-0.05078125
483,-0.025390625,-0.794921875,-0.041015625
484,-0.037109375,-0.7890625,-0.03125
485,-0.0419921875,-0.7880859375,-0.015625
486,-0.044921875,-0.8095703125,-0.0078125
487,-0.0478515625,-0.818359375,0.0048828125
488,-0.04296875,-0.8427734375,0.0224609375
489,-0.037109375,-0.8642578125,0.0322265625
490,-0.0322265625,-0.8955078125,0.0390625
491,-0.0322265625,-0.9228515625,0.044921875
492,-0.041015625,-0.9384765625,0.0458984375
493,-0.0439453125,-0.951171875,0.0478515625
494,-0.05859375,-0.9658203125,0.041015625
495,-0.072265625,-0.9697265625,0.037109375
496,-0.078125,-0.9716796875,0.0341796875
497,-0.0947265625,-0.9716796875,0.025390625
498,-0.099609375,-0.9765625,0.021484375
499,-0.09765625,-0.984375,0.01953125
500,-0.0927734375,-0.9921875,0.0234375
501,-0.0908203125,-1.001953125,0.037109375
502,-0.0849609375,-1.0234375,0.05078125
503,-0.072265625,-1.037109375,0.0673828125
504,-0.0712890625,-1.0498046875,0.0732421875
505,-0.0693359375,-1.0615234375,0.0693359375
506,-0.0791015625,-1.0615234375,0.0634765625
507,-0.10546875,-1.0556640625,0.060546875
508,-0.1435546875,-1.056640625,0.07421875
509,-0.1787109375,-1.037109375,0.0732421875
510,-0.208984375,-1.013671875,0.087890625
511,-0.228515625,-1.0,0.1142578125
512,-0.248046875,-0.986328125,0.142578125
513,-0.2568359375,-0.974609375,0.1728515625
514,-0.2578125,-0.9638671875,0.2001953125
515,-0.234375,-0.962890625,0.1982421875
516,-0.2021484375,-0.974609375,0.1708984375
517,-0.1748046875,-1.009765625,0.1171875
518,-0.1640625,-1.0595703125,0.0517578125
519,-0.185546875,-1.1220703125,-0.0498046875
520,-0.2255859375,-1.177734375,-0.1806640625
521,-0.2822265625,-1.2548828125,-0.33984375
522,-0.32421875,-1.3232421875,-0.482421875
523,-0.353515625,-1.396484375,-0.564453125
524,-0.3720703125,-1.4560546875,-0.5810546875
525,-0.3369140625,-1.5029296875,-0.5322265625
526,-0.267578125,-1.5126953125,-0.41015625
527,-0.1923828125,-1.515625,-0.2646484375
528,-0.1181640625,-1.529296875,-0.1376953125
529,-0.0390625,-1.544921875,-0.0556640625
530,0.0244140625,-1.5498046875,-0.0390625
531,0.0712890625,-1.51171875,-0.0673828125
532,0.09765625,-1.4482421875,-0.1455078125
533,0.1083984375,-1.3623046875,-0.2509765625
534,0.11328125,-1.2509765625,-0.3486328125
535,0.1171875,-1.1318359375,-0.439453125
536,0.091796875,-1.013671875,-0.517578125
537,0.0615234375,-0.90234375,-0.5634765625
538,0.0322265625,-0.779296875,-0.5908203125
539,-0.001953125,-0.6728515625,-0.5869140625
540,-0.0361328125,-0.5830078125,-0.5556640625
541,-0.060546875,-0.515625,-0.5146484375
542,-0.0673828125,-0.484375,-0.470703125
543,-0.0556640625,-0.4775390625,-0.423828125
544,-0.03125,-0.490234375,-0.37109375
545,0.00390625,-0.5361328125,-0.318359375
546,0.0595703125,-0.6064453125,-0.287109375
547,0.1064453125,-0.6904296875,-0.2744140625
548,0.142578125,-0.771484375,-0.2841796875
549,0.154296875,-0.8408203125,-0.294921875
550,0.1640625,-0.923828125,-0.3037109375
551,0.1513671875,-0.9873046875,-0.3134765625
552,0.125,-1.0537109375,-0.3154296875
553,0.083984375,-1.1103515625,-0.3115234375
554,0.0439453125,-1.1533203125,-0.302734375
555,-0.0107421875,-1.1884765625,-0.2978515625
556,-0.0615234375,-1.22265625,-0.298828125
557,-0.1259765625,-1.24609375,-0.3037109375
558,-0.201171875,-1.2509765625,-0.302734375
559,-0.2783203125,-1.2470703125,-0.3037109375
560,-0.3642578125,-1.228515625,-0.314453125
561,-0.4423828125,-1.197265625,-0.32421875
562,-0.5166015625,-1.1572265625,-0.3271484375
563,-0.5537109375,-1.1083984375,-0.3154296875
564,-0.5703125,-1.048828125,-0.291015625
565,-0.546875,-0.98828125,-0.267578125
566,-0.4833984375,-0.9345703125,-0.2314453125
567,-0.4130859375,-0.8876953125,-0.2021484375
568,-0.3359375,-0.8251953125,-0.1787109375
569,-0.2646484375,-0.78125,-0.158203125
570,-0.19140625,-0.7314453125,-0.1318359375
571,-0.1279296875,-0.6923828125,-0.130859375
572,-0.0673828125,-0.654296875,-0.12890625
573,-0.0302734375,-0.6376953125,-0.1318359375
574,0.005859375,-0.6259765625,-0.140625
575,0.0341796875,-0.6083984375,-0.1552734375
576,0.046875,-0.6025390625,-0.1748046875
577,0.0458984375,-0.6259765625,-0.1845703125
578,0.0341796875,-0.6591796875,-0.1787109375
579,0.01171875,-0.6884765625,-0.171875
580,-0.015625,-0.7177734375,-0.1630859375
581,-0.0341796875,-0.7548828125,-0.15234375
582,-0.0654296875,-0.7861328125,-0.1435546875
583,-0.0986328125,-0.8125,-0.138671875
584,-0.1318359375,-0.84375,-0.12890625
585,-0.1533203125,-0.8798828125,-0.12109375
586,-0.166015625,-0.912109375,-0.1103515625
587,-0.17578125,-0.9384765625,-0.0888671875
588,-0.169921875,-0.955078125,-0.0791015625
589,-0.17578125,-0.96484375,-0.064453125
590,-0.1689453125,-0.9619140625,-0.0537109375
591,-0.1640625,-0.9580078125,-0.052734375
592,-0.1630859375,-0.9462890625,-0.048828125
593,-0.15625,-0.9306640625,-0.0498046875
594,-0.1533203125,-0.921875,-0.0537109375
595,-0.146484375,-0.9072265625,-0.05078125
596,-0.1376953125,-0.8974609375,-0.048828125
597,-0.12109375,-0.892578125,-0.041015625
598,-0.107421875,-0.8828125,-0.02734375
599,-0.107421875,-0.87890625,-0.0107421875
600,-0.09375,-0.87109375,-0.0087890625
601,-0.076171875,-0.8720703125,0.0
602,-0.0634765625,-0.8671875,0.0078125
603,-0.05078125,-0.865234375,0.0087890625
604,-0.0439453125,-0.859375,0.009765625
605,-0.0400390625,-0.8408203125,0.0146484375
606,-0.0458984375,-0.8310546875,0.0087890625
607,-0.0537109375,-0.8251953125,0.0126953125
608,-0.0654296875,-0.822265625,0.009765625
609,-0.09765625,-0.8193359375,0.017578125
610,-0.115234375,-0.826171875,0.01953125
611,-0.134765625,-0.8427734375,0.0263671875
612,-0.1591796875,-0.85546875,0.0341796875
613,-0.1865234375,-0.8701171875,0.0400390625
614,-0.2099609375,-0.890625,0.0458984375
615,-0.2265625,-0.9091796875,0.0546875
616,-0.24609375,-0.9287109375,0.064453125
617,-0.2626953125,-0.9462890625,0.0849609375
618,-0.26953125,-0.9599609375,0.09375
619,-0.26953125,-0.96875,0.0634765625
620,-0.26171875,-0.9833984375,0.0458984375
621,-0.2353515625,-0.9892578125,0.0302734375
622,-0.203125,-0.9873046875,0.0244140625
623,-0.1484375,-0.990234375,0.0087890625
624,-0.0888671875,-1.0009765625,-0.0126953125
625,-0.029296875,-1.0224609375,-0.0107421875
626,0.0478515625,-1.048828125,0.005859375
627,0.1142578125,-1.0751953125,0.04296875
628,0.16796875,-1.103515625,0.0947265625
629,0.205078125,-1.1416015625,0.140625
630,0.23046875,-1.171875,0.189453125
631,0.251953125,-1.1923828125,0.2333984375
632,0.265625,-1.193359375,0.251953125
633,0.2626953125,-1.1669921875,0.271484375
634,0.2451171875,-1.1416015625,0.283203125
635,0.22265625,-1.1083984375,0.2822265625
636,0.2041015625,-1.0615234375,0.28515625
637,0.181640625,-1.0166015625,0.2861328125
638,0.1689453125,-0.955078125,0.271484375
639,0.1533203125,-0.9228515625,0.21875
640,0.14453125,-0.9091796875,0.166015625
641,0.140625,-0.916015625,0.1103515625
642,0.142578125,-0.939453125,0.0380859375
643,0.12109375,-0.9794921875,-0.0712890625
644,0.083984375,-1.0498046875,-0.189453125
645,0.0673828125,-1.115234375,-0.2607421875
646,0.0654296875,-1.16796875,-0.251953125
647,0.107421875,-1.21484375,-0.1982421875
648,0.150390625,-1.2705078125,-0.1259765625
649,0.169921875,-1.3076171875,-0.072265625
650,0.1748046875,-1.3515625,-0.0400390625
651,0.166015625,-1.3818359375,-0.029296875
652,0.1435546875,-1.38671875,-0.046875
653,0.09765625,-1.357421875,-0.08203125
654,0.0576171875,-1.3125,-0.1201171875
655,0.0185546875,-1.2587890625,-0.1376953125
656,-0.0107421875,-1.201171875,-0.158203125
657,-0.01953125,-1.16796875,-0.1796875
658,-0.0166015625,-1.15234375,-0.2138671875
659,-0.0185546875,-1.140625,-0.2666015625
660,-0.0302734375,-1.1162109375,-0.3203125
661,-0.0400390625,-1.09375,-0.375
662,-0.0576171875,-1.056640625,-0.4228515625
663,-0.1015625,-1.0048828125,-0.4677734375
664,-0.1572265625,-0.9521484375,-0.5068359375
665,-0.21875,-0.8759765625,-0.5390625
666,-0.2919921875,-0.806640625,-0.546875
667,-0.35546875,-0.751953125,-0.54296875
668,-0.408203125,-0.7060546875,-0.4970703125
669,-0.45703125,-0.6787109375,-0.4599609375
670,-0.5029296875,-0.6708984375,-0.4169921875
671,-0.529296875,-0.6875,-0.3642578125
672,-0.5224609375,-0.7119140625,-0.3212890625
673,-0.4931640625,-0.7529296875,-0.2890625
674,-0.44140625,-0.8056640625,-0.2568359375
675,-0.369140625,-0.857421875,-0.23046875
676,-0.2919921875,-0.9111328125,-0.220703125
677,-0.2119140625,-0.9501953125,-0.208984375
678,-0.1396484375,-0.9970703125,-0.2041015625
679,-0.060546875,-1.0419921875,-0.1962890625
680,0.0087890625,-1.0751953125,-0.1865234375
681,0.07421875,-1.107421875,-0.19140625
682,0.1435546875,-1.1337890625,-0.2197265625
683,0.1943359375,-1.15234375,-0.251953125
684,0.2705078125,-1.1806640625,-0.2841796875
685,0.3232421875,-1.1953125,-0.3115234375
686,0.3662109375,-1.193359375,-0.341796875
687,0.4013671875,-1.181640625,-0.361328125
688,0.4150390625,-1.158203125,-0.3603515625
689,0.4140625,-1.12109375,-0.33984375
690,0.38671875,-1.0888671875,-0.302734375
691,0.3427734375,-1.0517578125,-0.26171875
692,0.28515625,-1.0244140625,-0.2236328125
693,0.236328125,-0.990234375,-0.19140625
694,0.1884765625,-0.9462890625,-0.1728515625
695,0.1455078125,-0.90234375,-0.154296875
696,0.1044921875,-0.8603515625,-0.130859375
697,0.0693359375,-0.8203125,-0.1279296875
698,0.0283203125,-0.80078125,-0.109375
699,-0.0107421875,-0.78125,-0.099609375
700,-0.041015625,-0.7705078125,-0.087890625
701,-0.0634765625,-0.7724609375,-0.0771484375
702,-0.0849609375,-0.763671875,-0.072265625
703,-0.08984375,-0.7685546875,-0.0634765625
704,-0.095703125,-0.771484375,-0.0625
705,-0.08984375,-0.76953125,-0.060546875
706,-0.083984375,-0.7783203125,-0.0654296875
707,-0.0498046875,-0.783203125,-0.068359375
708,-0.0341796875,-0.7880859375,-0.0732421875
709,-0.0224609375,-0.7890625,-0.0732421875
710,-0.009765625,-0.791015625,-0.0751953125
711,0.0009765625,-0.798828125,-0.0712890625
712,0.0029296875,-0.8017578125,-0.060546875
713,0.0126953125,-0.8095703125,-0.0595703125
714,0.013671875,-0.8134765625,-0.048828125
715,0.01953125,-0.8154296875,-0.037109375
716,0.0146484375,-0.818359375,-0.0302734375
717,0.0224609375,-0.81640625,-0.021484375
718,0.015625,-0.828125,-0.0146484375
719,0.0087890625,-0.830078125,-0.0009765625
720,0.0029296875,-0.8388671875,0.0068359375
721,0.0,-0.84375,0.0146484375
722,-0.021484375,-0.8486328125,0.0263671875
723,-0.0322265625,-0.8544921875,0.0390625
724,-0.05078125,-0.8583984375,0.052734375
725,-0.064453125,-0.865234375,0.06640625
726,-0.0791015625,-0.8759765625,0.0751953125
727,-0.095703125,-0.880859375,0.087890625
728,-0.1015625,-0.8974609375,0.09375
729,-0.1181640625,-0.90234375,0.099609375
730,-0.1318359375,-0.90625,0.109375
731,-0.1435546875,-0.9169921875,0.107421875
732,-0.154296875,-0.9169921875,0.103515625
733,-0.16015625,-0.919921875,0.0986328125
734,-0.1640625,-0.9150390625,0.0908203125
735,-0.1591796875,-0.919921875,0.0859375
736,-0.15625,-0.9248046875,0.076171875
737,-0.142578125,-0.921875,0.072265625
738,-0.1298828125,-0.923828125,0.0703125
739,-0.111328125,-0.9248046875,0.060546875
740,-0.1015625,-0.9248046875,0.060546875
741,-0.0771484375,-0.9248046875,0.0595703125
742,-0.0556640625,-0.9228515625,0.0654296875
743,-0.0322265625,-0.9287109375,0.0703125
744,-0.0078125,-0.9287109375,0.0634765625
745,0.013671875,-0.9306640625,0.0390625
746,0.0439453125,-0.9287109375,0.0048828125
747,0.0703125,-0.9248046875,-0.025390625
748,0.0751953125,-0.91796875,-0.044921875
749,0.07421875,-0.916015625,-0.0556640625
750,0.0576171875,-0.9208984375,-0.056640625
751,0.0458984375,-0.923828125,-0.0322265625
752,0.0263671875,-0.947265625,-0.0009765625
753,-0.001953125,-0.9765625,0.046875
754,-0.033203125,-1.0166015625,0.111328125
755,-0.0625,-1.056640625,0.1884765625
756,-0.0810546875,-1.08984375,0.263671875
757,-0.0966796875,-1.109375,0.3232421875
758,-0.09765625,-1.1123046875,0.3662109375
759,-0.091796875,-1.1044921875,0.3916015625
760,-0.0908203125,-1.087890625,0.396484375
761,-0.0673828125,-1.0478515625,0.3447265625
762,-0.03515625,-1.0126953125,0.2666015625
763,-0.044921875,-0.98828125,0.166015625
764,-0.060546875,-1.005859375,0.0556640625
765,-0.0966796875,-1.03515625,-0.064453125
766,-0.16796875,-1.0908203125,-0.2041015625
767,-0.228515625,-1.16796875,-0.3603515625
768,-0.296875,-1.2626953125,-0.4990234375
769,-0.326171875,-1.3662109375,-0.578125
770,-0.3359375,-1.4619140625,-0.583984375
771,-0.3369140625,-1.5478515625,-0.521484375
772,-0.330078125,-1.619140625,-0.4189453125
773,-0.3076171875,-1.6640625,-0.31640625
774,-0.2431640625,-1.6962890625,-0.2392578125
775,-0.166015625,-1.701171875,-0.1875
776,-0.1025390625,-1.671875,-0.1796875
777,-0.044921875,-1.591796875,-0.2099609375
778,-0.0029296875,-1.4873046875,-0.279296875
779,0.00390625,-1.369140625,-0.359375
780,0.033203125,-1.24609375,-0.4287109375
781,0.04296875,-1.12109375,-0.4853515625
782,0.0517578125,-1.0009765625,-0.5302734375
783,0.05078125,-0.8994140625,-0.5537109375
784,0.02734375,-0.794921875,-0.5576171875
785,0.005859375,-0.705078125,-0.5419921875
786,-0.013671875,-0.630859375,-0.4970703125
787,-0.0126953125,-0.576171875,-0.4541015625
788,-0.0048828125,-0.5244140625,-0.4130859375
789,0.01953125,-0.5107421875,-0.3671875
790,0.0537109375,-0.513671875,-0.3134765625
791,0.0927734375,-0.5322265625,-0.275390625
792,0.13671875,-0.583984375,-0.2607421875
793,0.171875,-0.6318359375,-0.2607421875
794,0.1728515625,-0.673828125,-0.2841796875
795,0.1552734375,-0.7275390625,-0.3125
796,0.1318359375,-0.779296875,-0.337890625
797,0.09375,-0.841796875,-0.345703125
798,0.052734375,-0.9033203125,-0.3486328125
799,0.005859375,-0.958984375,-0.3515625
800,-0.029296875,-1.0166015625,-0.34375
801,-0.0732421875,-1.0810546875,-0.33984375
802,-0.1396484375,-1.1220703125,-0.3271484375
803,-0.208984375,-1.1728515625,-0.3212890625
804,-0.2802734375,-1.212890625,-0.318359375
805,-0.3720703125,-1.2509765625,-0.31640625
806,-0.455078125,-1.2763671875,-0.30078125
807,-0.5419921875,-1.2802734375,-0.2880859375
808,-0.61328125,-1.2626953125,-0.2666015625
809,-0.650390625,-1.2373046875,-0.251953125
810,-0.654296875,-1.1748046875,-0.2314453125
811,-0.62890625,-1.111328125,-0.2119140625
812,-0.5478515625,-1.0615234375,-0.1875
813,-0.46484375,-1.0029296875,-0.181640625
814,-0.3818359375,-0.9541015625,-0.1748046875
815,-0.3037109375,-0.90234375,-0.150390625
816,-0.2255859375,-0.8447265625,-0.134765625
817,-0.1640625,-0.80078125,-0.1279296875
818,-0.10546875,-0.759765625,-0.1181640625
819,-0.0595703125,-0.736328125,-0.111328125
820,-0.0283203125,-0.705078125,-0.1142578125
821,0.0087890625,-0.685546875,-0.1201171875
822,0.0205078125,-0.666015625,-0.1171875
823,0.0341796875,-0.666015625,-0.1171875
824,0.03125,-0.6787109375,-0.123046875
825,0.0224609375,-0.6953125,-0.123046875
826,0.009765625,-0.7138671875,-0.1171875
827,-0.0009765625,-0.734375,-0.111328125
828,-0.0205078125,-0.75,-0.1123046875
829,-0.03515625,-0.7734375,-0.1064453125
830,-0.0615234375,-0.7958984375,-0.111328125
831,-0.09375,-0.833984375,-0.0966796875
832,-0.12109375,-0.8623046875,-0.0830078125
833,-0.13671875,-0.904296875,-0.0732421875
834,-0.15234375,-0.9208984375,-0.0556640625
835,-0.15625,-0.9384765625,-0.0458984375
836,-0.1669921875,-0.9375,-0.029296875
837,-0.1689453125,-0.9384765625,-0.0244140625
838,-0.17578125,-0.9326171875,-0.017578125
839,-0.1767578125,-0.923828125,-0.015625
840,-0.17578125,-0.9130859375,-0.0166015625
841,-0.1728515625,-0.9052734375,-0.025390625
842,-0.1650390625,-0.8935546875,-0.0224609375
843,-0.16015625,-0.8857421875,-0.0185546875
844,-0.1484375,-0.880859375,-0.01171875
845,-0.146484375,-0.8720703125,-0.001953125
846,-0.1416015625,-0.8701171875,0.017578125
847,-0.1298828125,-0.8681640625,0.0244140625
848,-0.123046875,-0.8642578125,0.0390625
849,-0.1103515625,-0.853515625,0.046875
850,-0.0927734375,-0.8515625,0.0556640625
851,-0.0810546875,-0.83984375,0.0654296875
852,-0.0751953125,-0.8330078125,0.0751953125
853,-0.0693359375,-0.822265625,0.083984375
854,-0.0703125,-0.818359375,0.091796875
855,-0.0673828125,-0.8203125,0.095703125
856,-0.08984375,-0.818359375,0.107421875
857,-0.1064453125,-0.8251953125,0.111328125
858,-0.12109375,-0.8330078125,0.1171875
859,-0.1396484375,-0.8447265625,0.126953125
860,-0.154296875,-0.85546875,0.1279296875
861,-0.1640625,-0.865234375,0.1337890625
862,-0.177734375,-0.8759765625,0.1435546875
863,-0.177734375,-0.890625,0.1396484375
864,-0.177734375,-0.8896484375,0.1298828125
865,-0.1796875,-0.896484375,0.1181640625
866,-0.1708984375,-0.8916015625,0.103515625
867,-0.162109375,-0.87890625,0.091796875
868,-0.14453125,-0.8837890625,0.0693359375
869,-0.13671875,-0.8759765625,0.0498046875
870,-0.123046875,-0.8759765625,0.0302734375
871,-0.1064453125,-0.87890625,0.01171875
872,-0.1005859375,-0.8896484375,-0.0029296875
873,-0.08984375,-0.9013671875,-0.0087890625
874,-0.0869140625,-0.9296875,-0.0009765625
875,-0.064453125,-0.958984375,0.0107421875
876,-0.0458984375,-0.990234375,0.0263671875
877,-0.02734375,-1.0283203125,0.0458984375
878,-0.01171875,-1.052734375,0.072265625
879,0.0048828125,-1.083984375,0.1025390625
880,-0.0048828125,-1.0908203125,0.134765625
881,-0.0205078125,-1.1103515625,0.1669921875
882,-0.0419921875,-1.1162109375,0.2099609375
883,-0.0595703125,-1.1201171875,0.240234375
884,-0.083984375,-1.1259765625,0.2568359375
885,-0.1025390625,-1.1328125,0.2509765625
886,-0.0947265625,-1.1533203125,0.224609375
887,-0.0546875,-1.181640625,0.177734375
888,-0.013671875,-1.216796875,0.1240234375
889,0.017578125,-1.2587890625,0.0322265625
890,0.021484375,-1.29296875,-0.107421875
891,0.025390625,-1.3349609375,-0.24609375
892,0.0419921875,-1.3818359375,-0.326171875
893,0.0908203125,-1.431640625,-0.3271484375
894,0.16015625,-1.4580078125,-0.287109375
895,0.2265625,-1.4931640625,-0.2392578125
896,0.2890625,-1.5185546875,-0.2099609375
897,0.365234375,-1.5625,-0.2099609375
898,0.40234375,-1.5751953125,-0.2509765625
899,0.365234375,-1.5634765625,-0.2939453125
900,0.2705078125,-1.5107421875,-0.310546875
901,0.19140625,-1.4501953125,-0.302734375
902,0.1396484375,-1.3740234375,-0.2900390625
903,0.111328125,-1.298828125,-0.302734375
904,0.08984375,-1.2060546875,-0.326171875
905,0.0654296875,-1.1162109375,-0.369140625
906,0.0361328125,-1.0361328125,-0.41015625
907,-0.0009765625,-0.96484375,-0.435546875
908,-0.0302734375,-0.90234375,-0.455078125
909,-0.0703125,-0.8193359375,-0.4794921875
910,-0.1142578125,-0.740234375,-0.478515625
911,-0.169921875,-0.6611328125,-0.4794921875
912,-0.234375,-0.5849609375,-0.4599609375
913,-0.2939453125,-0.54296875,-0.439453125
914,-0.34765625,-0.505859375,-0.4091796875
915,-0.3798828125,-0.50390625,-0.3603515625
916,-0.396484375,-0.5185546875,-0.3115234375
917,-0.3974609375,-0.552734375,-0.2607421875
918,-0.3857421875,-0.607421875,-0.2236328125
919,-0.35546875,-0.68359375,-0.19140625
920,-0.296875,-0.755859375,-0.1748046875
921,-0.23046875,-0.8271484375,-0.1806640625
922,-0.162109375,-0.896484375,-0.1845703125
923,-0.0986328125,-0.9541015625,-0.193359375
924,-0.029296875,-1.001953125,-0.20703125
925,0.0458984375,-1.048828125,-0.212890625
926,0.1015625,-1.0732421875,-0.2265625
927,0.173828125,-1.095703125,-0.244140625
928,0.2451171875,-1.1044921875,-0.2744140625
929,0.3095703125,-1.119140625,-0.3046875
930,0.365234375,-1.1279296875,-0.3330078125
931,0.4248046875,-1.1279296875,-0.361328125
932,0.4814453125,-1.1220703125,-0.3759765625
933,0.5068359375,-1.1064453125,-0.390625
934,0.5087890625,-1.087890625,-0.3857421875
935,0.49609375,-1.056640625,-0.3720703125
936,0.46875,-1.0244140625,-0.3505859375
937,0.4072265625,-0.986328125,-0.32421875
938,0.3330078125,-0.9619140625,-0.2978515625
939,0.2666015625,-0.9306640625,-0.28515625
940,0.1982421875,-0.904296875,-0.2734375
941,0.134765625,-0.8681640625,-0.2763671875
942,0.0634765625,-0.84765625,-0.2861328125
943,0.0009765625,-0.8349609375,-0.2958984375
944,-0.06640625,-0.8349609375,-0.302734375
945,-0.130859375,-0.8232421875,-0.29296875
946,-0.162109375,-0.8349609375,-0.2919921875
947,-0.1875,-0.849609375,-0.2763671875
948,-0.19921875,-0.861328125,-0.2529296875
949,-0.1923828125,-0.8876953125,-0.2353515625
950,-0.177734375,-0.9013671875,-0.224609375
951,-0.1455078125,-0.9130859375,-0.216796875
952,-0.1103515625,-0.9130859375,-0.216796875
953,-0.0849609375,-0.9111328125,-0.2255859375
954,-0.060546875,-0.9130859375,-0.228515625
955,-0.05078125,-0.9140625,-0.2255859375
956,-0.041015625,-0.91796875,-0.2216796875
957,-0.037109375,-0.9326171875,-0.2158203125
958,-0.0341796875,-0.947265625,-0.2109375
959,-0.0419921875,-0.96484375,-0.203125
960,-0.0439453125,-0.9873046875,-0.19140625
961,-0.0517578125,-0.9951171875,-0.181640625
962,-0.0498046875,-1.0087890625,-0.1796875
963,-0.0517578125,-1.0107421875,-0.1669921875
964,-0.0537109375,-1.0,-0.1640625
965,-0.0546875,-0.9931640625,-0.1689453125
966,-0.0458984375,-0.9716796875,-0.171875
967,-0.0537109375,-0.953125,-0.169921875
968,-0.060546875,-0.9384765625,-0.16796875
969,-0.076171875,-0.931640625,-0.166015625
970,-0.099609375,-0.9267578125,-0.150390625
971,-0.1171875,-0.912109375,-0.13671875
972,-0.14453125,-0.904296875,-0.125
973,-0.1669921875,-0.8994140625,-0.1064453125
974,-0.1796875,-0.8896484375,-0.0908203125
975,-0.19921875,-0.873046875,-0.0869140625
976,-0.2177734375,-0.876953125,-0.0869140625
977,-0.224609375,-0.8583984375,-0.0791015625
978,-0.232421875,-0.8544921875,-0.08203125
979,-0.23828125,-0.845703125,-0.07421875
980,-0.244140625,-0.8447265625,-0.0703125
981,-0.2451171875,-0.8427734375,-0.0625
982,-0.2412109375,-0.8486328125,-0.0537109375
983,-0.234375,-0.8515625,-0.0400390625
984,-0.220703125,-0.85546875,-0.0322265625
985,-0.21484375,-0.8583984375,-0.0263671875
986,-0.2021484375,-0.87109375,-0.0146484375
987,-0.1904296875,-0.8896484375,-0.0087890625
988,-0.173828125,-0.9111328125,0.0009765625
989,-0.146484375,-0.9189453125,0.01171875
990,-0.119140625,-0.9365234375,0.0244140625
991,-0.087890625,-0.962890625,0.037109375
992,-0.0546875,-0.9833984375,0.046875
993,-0.0419921875,-0.9970703125,0.056640625
994,0.0126953125,-1.033203125,0.072265625
995,0.03515625,-1.04296875,0.0810546875
996,0.0380859375,-1.0517578125,0.083984375
997,0.0732421875,-1.0576171875,0.08984375
998,0.0732421875,-1.048828125,0.0927734375
999,0.107421875,-1.0400390625,0.095703125
1000,0.123046875,-1.033203125,0.0869140625
1001,0.130859375,-1.0126953125,0.080078125
1002,0.1494140625,-0.998046875,0.06640625
1003,0.146484375,-0.9794921875,0.056640625
1004,0.130859375,-0.953125,0.0458984375
1005,0.1240234375,-0.9375,0.05078125
1006,0.087890625,-0.9306640625,0.0537109375
1007,0.052734375,-0.9267578125,0.06640625
1008,0.0009765625,-0.92578125,0.0849609375
1009,-0.0556640625,-0.931640625,0.1103515625
1010,-0.107421875,-0.9365234375,0.13671875
1011,-0.150390625,-0.939453125,0.1650390625
1012,-0.205078125,-0.94140625,0.1845703125
1013,-0.2451171875,-0.9462890625,0.1953125
1014,-0.2783203125,-0.9462890625,0.1865234375
1015,-0.3076171875,-0.9501953125,0.16796875
1016,-0.318359375,-0.94921875,0.1220703125
1017,-0.3271484375,-0.947265625,0.0791015625
1018,-0.3359375,-0.9443359375,0.0185546875
1019,-0.3466796875,-0.9482421875,-0.0537109375
1020,-0.3447265625,-0.96875,-0.1025390625
1021,-0.3486328125,-0.986328125,-0.162109375
1022,-0.33984375,-1.0263671875,-0.20703125
1023,-0.306640625,-1.0673828125,-0.236328125
1024,-0.2705078125,-1.111328125,-0.2578125
1025,-0.22265625,-1.1591796875,-0.28125
1026,-0.169921875,-1.2138671875,-0.2919921875
1027,-0.125,-1.2666015625,-0.3056640625
1028,-0.0654296875,-1.3115234375,-0.3173828125
1029,-0.017578125,-1.3447265625,-0.3173828125
1030,0.0107421875,-1.369140625,-0.3056640625
1031,0.0244140625,-1.3740234375,-0.2958984375
1032,0.037109375,-1.3681640625,-0.2666015625
1033,0.0380859375,-1.345703125,-0.236328125
1034,0.03125,-1.314453125,-0.2080078125
1035,0.0166015625,-1.2802734375,-0.1708984375
1036,-0.0107421875,-1.234375,-0.1640625
1037,-0.0400390625,-1.2041015625,-0.1533203125
1038,-0.0556640625,-1.1611328125,-0.1416015625
1039,-0.0693359375,-1.1318359375,-0.130859375
1040,-0.0849609375,-1.0908203125,-0.1259765625
1041,-0.1015625,-1.0517578125,-0.130859375
1042,-0.109375,-1.0068359375,-0.1357421875
1043,-0.115234375,-0.9609375,-0.1337890625
1044,-0.1171875,-0.9208984375,-0.1455078125
1045,-0.1142578125,-0.8876953125,-0.15625
1046,-0.099609375,-0.8427734375,-0.173828125
1047,-0.0771484375,-0.8056640625,-0.193359375
1048,-0.0537109375,-0.7744140625,-0.21875
1049,-0.03515625,-0.736328125,-0.2392578125
1050,-0.0126953125,-0.69921875,-0.2587890625
1051,0.01171875,-0.6796875,-0.2822265625
1052,0.0341796875,-0.6474609375,-0.30078125
1053,0.0810546875,-0.634765625,-0.3095703125
1054,0.1240234375,-0.6220703125,-0.3125
1055,0.1533203125,-0.615234375,-0.314453125
1056,0.1875,-0.607421875,-0.318359375
1057,0.203125,-0.6142578125,-0.3251953125
1058,0.228515625,-0.6298828125,-0.3310546875
1059,0.2431640625,-0.6611328125,-0.3369140625
1060,0.2353515625,-0.6953125,-0.3564453125
1061,0.2216796875,-0.748046875,-0.369140625
1062,0.2041015625,-0.802734375,-0.373046875
1063,0.177734375,-0.8701171875,-0.37109375
1064,0.1396484375,-0.9423828125,-0.3642578125
1065,0.0947265625,-1.017578125,-0.3466796875
1066,0.0576171875,-1.095703125,-0.345703125
1067,-0.0009765625,-1.14453125,-0.3291015625
1068,-0.0419921875,-1.1728515625,-0.3203125
1069,-0.0654296875,-1.20703125,-0.3212890625
1070,-0.09375,-1.220703125,-0.3212890625
1071,-0.10546875,-1.2333984375,-0.3271484375
1072,-0.1162109375,-1.2265625,-0.330078125
1073,-0.1181640625,-1.2216796875,-0.3369140625
1074,-0.12109375,-1.2041015625,-0.3369140625
1075,-0.1103515625,-1.19140625,-0.3515625
1076,-0.0986328125,-1.171875,-0.34765625
1077,-0.087890625,-1.154296875,-0.3330078125
1078,-0.08203125,-1.119140625,-0.3095703125
1079,-0.078125,-1.0830078125,-0.2880859375
1080,-0.0693359375,-1.0390625,-0.2646484375
1081,-0.068359375,-0.9970703125,-0.244140625
1082,-0.0693359375,-0.958984375,-0.2392578125
1083,-0.0703125,-0.90625,-0.2373046875
1084,-0.0830078125,-0.859375,-0.2177734375
1085,-0.0947265625,-0.8115234375,-0.2109375
1086,-0.1103515625,-0.7783203125,-0.1923828125
1087,-0.1181640625,-0.76171875,-0.1748046875
1088,-0.1328125,-0.7333984375,-0.15625
1089,-0.1396484375,-0.72265625,-0.130859375
1090,-0.150390625,-0.7099609375,-0.107421875
1091,-0.1650390625,-0.69921875,-0.0830078125
1092,-0.1650390625,-0.7021484375,-0.064453125
1093,-0.1708984375,-0.7060546875,-0.0517578125
1094,-0.169921875,-0.720703125,-0.0361328125
1095,-0.16015625,-0.7470703125,-0.037109375
1096,-0.15234375,-0.779296875,-0.0478515625
1097,-0.1328125,-0.8046875,-0.0693359375
1098,-0.12109375,-0.8310546875,-0.08984375
1099,-0.103515625,-0.857421875,-0.1220703125
1100,-0.0927734375,-0.8837890625,-0.1279296875
1101,-0.087890625,-0.896484375,-0.13671875
1102,-0.083984375,-0.90625,-0.1455078125
1103,-0.0703125,-0.9208984375,-0.142578125
1104,-0.083984375,-0.9267578125,-0.142578125
1105,-0.072265625,-0.9375,-0.1376953125
1106,-0.076171875,-0.9384765625,-0.1416015625
1107,-0.083984375,-0.9501953125,-0.134765625
1108,-0.078125,-0.955078125,-0.1337890625
1109,-0.0830078125,-0.9619140625,-0.123046875
1110,-0.0830078125,-0.970703125,-0.125
1111,-0.0849609375,-0.97265625,-0.1171875
1112,-0.083984375,-0.9794921875,-0.1162109375
1113,-0.0712890625,-0.9833984375,-0.1181640625
1114,-0.0712890625,-0.9833984375,-0.123046875
1115,-0.0673828125,-0.98046875,-0.1083984375
1116,-0.056640625,-0.974609375,-0.099609375
1117,-0.0517578125,-0.96875,-0.09375
1118,-0.0498046875,-0.951171875,-0.087890625
1119,-0.046875,-0.94921875,-0.08203125
1120,-0.0419921875,-0.9443359375,-0.078125
1121,-0.0390625,-0.9365234375,-0.0693359375
1122,-0.0341796875,-0.92578125,-0.0537109375
1123,-0.041015625,-0.923828125,-0.0439453125
1124,-0.041015625,-0.919921875,-0.0283203125
1125,-0.0400390625,-0.91796875,-0.015625
1126,-0.0341796875,-0.9208984375,-0.0029296875
1127,-0.0302734375,-0.9296875,0.01953125
1128,-0.0302734375,-0.927734375,0.03515625
1129,-0.0146484375,-0.9365234375,0.04296875
1130,-0.0107421875,-0.9443359375,0.064453125
1131,-0.001953125,-0.9453125,0.0712890625
1132,0.0,-0.9482421875,0.0732421875
1133,0.00390625,-0.958984375,0.0830078125
1134,0.01171875,-0.9658203125,0.0927734375
1135,0.001953125,-0.9775390625,0.0966796875
1136,-0.00390625,-0.99609375,0.109375
1137,-0.01953125,-1.0087890625,0.126953125
1138,-0.025390625,-1.0283203125,0.154296875
1139,-0.0302734375,-1.041015625,0.17578125
1140,-0.0224609375,-1.0458984375,0.19140625
1141,-0.005859375,-1.052734375,0.2060546875
1142,0.005859375,-1.0439453125,0.2109375
1143,0.0087890625,-1.0224609375,0.2021484375
1144,0.017578125,-1.0009765625,0.1826171875
1145,0.03125,-0.970703125,0.1640625
1146,0.037109375,-0.9287109375,0.1455078125
1147,0.0478515625,-0.90234375,0.11328125
1148,0.0693359375,-0.8564453125,0.0927734375
1149,0.0791015625,-0.8203125,0.076171875
1150,0.087890625,-0.796875,0.0498046875
1151,0.1005859375,-0.78125,0.0166015625
1152,0.09375,-0.7861328125,-0.0205078125
1153,0.09375,-0.79296875,-0.0615234375
1154,0.1083984375,-0.8232421875,-0.0908203125
1155,0.130859375,-0.87109375,-0.1240234375
1156,0.1337890625,-0.919921875,-0.173828125
1157,0.14453125,-1.0087890625,-0.201171875
1158,0.154296875,-1.0849609375,-0.244140625
1159,0.150390625,-1.1650390625,-0.259765625
1160,0.154296875,-1.2666015625,-0.2666015625
1161,0.1552734375,-1.361328125,-0.2783203125
1162,0.1513671875,-1.4462890625,-0.265625
1163,0.1318359375,-1.5224609375,-0.244140625
1164,0.103515625,-1.587890625,-0.248046875
1165,0.0634765625,-1.6162109375,-0.25
1166,0.0107421875,-1.6162109375,-0.2900390625
1167,-0.021484375,-1.5947265625,-0.3349609375
1168,-0.0400390625,-1.556640625,-0.40625
1169,-0.052734375,-1.494140625,-0.45703125
1170,-0.0693359375,-1.4267578125,-0.5029296875
1171,-0.064453125,-1.3544921875,-0.556640625
1172,-0.0654296875,-1.2744140625,-0.58984375
1173,-0.0498046875,-1.1708984375,-0.630859375
1174,-0.0302734375,-1.0869140625,-0.66015625
1175,-0.001953125,-0.98046875,-0.669921875
1176,0.0048828125,-0.8779296875,-0.642578125
1177,0.0029296875,-0.7705078125,-0.60546875
1178,-0.0009765625,-0.689453125,-0.548828125
1179,-0.0205078125,-0.615234375,-0.4736328125
1180,-0.056640625,-0.5615234375,-0.3935546875
1181,-0.1015625,-0.5205078125,-0.3330078125
1182,-0.162109375,-0.505859375,-0.2529296875
1183,-0.2080078125,-0.52734375,-0.1962890625
1184,-0.2412109375,-0.5869140625,-0.16796875
1185,-0.265625,-0.6767578125,-0.171875
1186,-0.26171875,-0.7734375,-0.1630859375
1187,-0.2490234375,-0.8701171875,-0.1796875
1188,-0.21875,-0.9541015625,-0.1943359375
1189,-0.197265625,-1.0068359375,-0.22265625
1190,-0.1748046875,-1.064453125,-0.2626953125
1191,-0.169921875,-1.0986328125,-0.2978515625
1192,-0.15625,-1.12890625,-0.326171875
1193,-0.1435546875,-1.1435546875,-0.3662109375
1194,-0.1103515625,-1.1611328125,-0.3984375
1195,-0.0908203125,-1.1689453125,-0.423828125
1196,-0.060546875,-1.17578125,-0.43359375
1197,-0.0380859375,-1.173828125,-0.4443359375
1198,-0.0341796875,-1.1630859375,-0.4384765625
1199,-0.0322265625,-1.14453125,-0.439453125
1200,-0.033203125,-1.115234375,-0.4072265625
1201,-0.044921875,-1.0771484375,-0.37890625
1202,-0.0546875,-1.0322265625,-0.3564453125
1203,-0.0634765625,-0.9814453125,-0.3271484375
1204,-0.0732421875,-0.9326171875,-0.29296875
1205,-0.0908203125,-0.8974609375,-0.2666015625
1206,-0.0888671875,-0.8447265625,-0.2431640625
1207,-0.09375,-0.8056640625,-0.216796875
1208,-0.1005859375,-0.78125,-0.1953125
1209,-0.09375,-0.7587890625,-0.17578125
1210,-0.0869140625,-0.7470703125,-0.1611328125
1211,-0.0751953125,-0.7451171875,-0.1474609375
1212,-0.072265625,-0.7626953125,-0.1416015625
1213,-0.056640625,-0.775390625,-0.1455078125
1214,-0.029296875,-0.8017578125,-0.1357421875
1215,-0.021484375,-0.828125,-0.1318359375
1216,0.0048828125,-0.85546875,-0.134765625
1217,0.021484375,-0.89453125,-0.1279296875
1218,0.037109375,-0.9130859375,-0.126953125
1219,0.037109375,-0.93359375,-0.125
1220,0.056640625,-0.9580078125,-0.1240234375
1221,0.0634765625,-0.9697265625,-0.123046875
1222,0.0458984375,-0.9765625,-0.1279296875
1223,0.0576171875,-0.982421875,-0.126953125
1224,0.0546875,-0.9814453125,-0.1279296875
1225,0.0556640625,-0.9677734375,-0.1171875
1226,0.0322265625,-0.9580078125,-0.1162109375
1227,0.041015625,-0.9599609375,-0.1220703125
1228,0.03125,-0.9521484375,-0.119140625
1229,0.013671875,-0.94140625,-0.1123046875
1230,0.0048828125,-0.9365234375,-0.1181640625
1231,-0.0146484375,-0.919921875,-0.107421875
1232,-0.03125,-0.9111328125,-0.099609375
1233,-0.0380859375,-0.900390625,-0.08984375
1234,-0.05078125,-0.892578125,-0.0908203125
1235,-0.064453125,-0.8798828125,-0.091796875
1236,-0.0703125,-0.8623046875,-0.0927734375
1237,-0.08203125,-0.8427734375,-0.0947265625
1238,-0.1015625,-0.82421875,-0.09375
1239,-0.115234375,-0.80859375,-0.099609375
1240,-0.1279296875,-0.796875,-0.09375
1241,-0.1357421875,-0.7802734375,-0.1025390625
1242,-0.1455078125,-0.7734375,-0.09765625
1243,-0.1474609375,-0.765625,-0.1005859375
1244,-0.146484375,-0.759765625,-0.10546875
1245,-0.1455078125,-0.7626953125,-0.09765625
1246,-0.1591796875,-0.7626953125,-0.0927734375
1247,-0.1337890625,-0.7763671875,-0.0888671875
1248,-0.1279296875,-0.7900390625,-0.076171875
1249,-0.119140625,-0.806640625,-0.0712890625
1250,-0.107421875,-0.82421875,-0.072265625
1251,-0.08984375,-0.8427734375,-0.0625
1252,-0.087890625,-0.8681640625,-0.0693359375
1253,-0.08203125,-0.8916015625,-0.0673828125
1254,-0.0791015625,-0.9072265625,-0.060546875
1255,-0.0791015625,-0.921875,-0.0478515625
1256,-0.076171875,-0.935546875,-0.0361328125
1257,-0.0810546875,-0.9443359375,-0.017578125
1258,-0.0771484375,-0.958984375,-0.0029296875
1259,-0.0703125,-0.9658203125,0.0009765625
1260,-0.064453125,-0.96875,0.0068359375
1261,-0.048828125,-0.9697265625,0.01171875
1262,-0.0390625,-0.978515625,0.0185546875
1263,-0.037109375,-0.9794921875,0.01953125
1264,-0.0302734375,-0.982421875,0.021484375
1265,-0.029296875,-0.9921875,0.025390625
1266,-0.0244140625,-0.9931640625,0.0400390625
1267,-0.0283203125,-0.998046875,0.05859375
1268,-0.0341796875,-1.0029296875,0.0771484375
1269,-0.046875,-1.00390625,0.1025390625
1270,-0.05859375,-1.0078125,0.1220703125
1271,-0.072265625,-1.009765625,0.1474609375
1272,-0.087890625,-1.0087890625,0.1650390625
1273,-0.103515625,-1.0087890625,0.1787109375
1274,-0.1123046875,-0.99609375,0.1884765625
1275,-0.1220703125,-0.9853515625,0.1796875
1276,-0.126953125,-0.9775390625,0.173828125
1277,-0.1337890625,-0.9619140625,0.1552734375
1278,-0.142578125,-0.94921875,0.12890625
1279,-0.150390625,-0.9345703125,0.0966796875
1280,-0.1552734375,-0.9208984375,0.0654296875
1281,-0.177734375,-0.900390625,0.033203125
1282,-0.1943359375,-0.890625,0.001953125
1283,-0.2216796875,-0.8896484375,-0.03125
1284,-0.2412109375,-0.8876953125,-0.07421875
1285,-0.2705078125,-0.8974609375,-0.1064453125
1286,-0.2861328125,-0.921875,-0.14453125
1287,-0.2998046875,-0.9453125,-0.19140625
1288,-0.322265625,-0.98046875,-0.2275390625
1289,-0.3310546875,-1.0380859375,-0.2607421875
1290,-0.3447265625,-1.0849609375,-0.291015625
1291,-0.34765625,-1.134765625,-0.3046875
1292,-0.337890625,-1.1875,-0.30078125
1293,-0.333984375,-1.2509765625,-0.298828125
1294,-0.3251953125,-1.2998046875,-0.2958984375
1295,-0.3154296875,-1.3369140625,-0.2900390625
1296,-0.3095703125,-1.3642578125,-0.283203125
1297,-0.298828125,-1.3818359375,-0.275390625
1298,-0.2998046875,-1.3916015625,-0.2666015625
1299,-0.28125,-1.3955078125,-0.26171875
1300,-0.2529296875,-1.38671875,-0.263671875
1301,-0.2080078125,-1.3701171875,-0.2646484375
1302,-0.16796875,-1.3466796875,-0.275390625
1303,-0.130859375,-1.3125,-0.291015625
1304,-0.1044921875,-1.2744140625,-0.3125
1305,-0.0654296875,-1.2265625,-0.3359375
1306,-0.029296875,-1.166015625,-0.361328125
1307,0.01171875,-1.107421875,-0.3974609375
1308,0.0576171875,-1.0419921875,-0.4306640625
1309,0.0888671875,-0.9609375,-0.46484375
1310,0.109375,-0.892578125,-0.490234375
1311,0.1240234375,-0.7978515625,-0.5048828125
1312,0.126953125,-0.7392578125,-0.5322265625
1313,0.1240234375,-0.6904296875,-0.5458984375
1314,0.115234375,-0.650390625,-0.556640625
1315,0.107421875,-0.62890625,-0.560546875
1316,0.08203125,-0.615234375,-0.5634765625
1317,0.0625,-0.6259765625,-0.5634765625
1318,0.0244140625,-0.630859375,-0.57421875
1319,-0.0166015625,-0.654296875,-0.568359375
1320,-0.052734375,-0.6923828125,-0.560546875
1321,-0.09375,-0.728515625,-0.5546875
1322,-0.1298828125,-0.7763671875,-0.5400390625
1323,-0.1767578125,-0.8271484375,-0.52734375
1324,-0.208984375,-0.8681640625,-0.5146484375
1325,-0.25390625,-0.916015625,-0.5048828125
1326,-0.294921875,-0.9482421875,-0.4892578125
1327,-0.3369140625,-0.98046875,-0.4814453125
1328,-0.3681640625,-1.0185546875,-0.484375
1329,-0.3779296875,-1.046875,-0.4931640625
1330,-0.3876953125,-1.068359375,-0.5029296875
1331,-0.3837890625,-1.0830078125,-0.521484375
1332,-0.375,-1.0888671875,-0.5263671875
1333,-0.3671875,-1.08203125,-0.5390625
1334,-0.34765625,-1.0693359375,-0.5478515625
1335,-0.33203125,-1.0537109375,-0.55078125
1336,-0.3017578125,-1.033203125,-0.5458984375
1337,-0.2724609375,-1.0185546875,-0.533203125
1338,-0.2392578125,-0.99609375,-0.4970703125
1339,-0.208984375,-0.9765625,-0.4716796875
1340,-0.166015625,-0.94921875,-0.4384765625
1341,-0.1376953125,-0.935546875,-0.3955078125
1342,-0.0810546875,-0.923828125,-0.3681640625
1343,-0.0478515625,-0.9033203125,-0.3447265625
1344,-0.0205078125,-0.8994140625,-0.3330078125
1345,-0.001953125,-0.8857421875,-0.330078125
1346,-0.001953125,-0.876953125,-0.3203125
1347,-0.01171875,-0.8583984375,-0.314453125
1348,-0.0263671875,-0.8427734375,-0.310546875
1349,-0.0263671875,-0.8330078125,-0.31640625
1350,-0.0341796875,-0.8291015625,-0.3125
1351,-0.0458984375,-0.822265625,-0.3173828125
1352,-0.0556640625,-0.83203125,-0.31640625
1353,-0.076171875,-0.8427734375,-0.310546875
1354,-0.103515625,-0.8564453125,-0.298828125
1355,-0.1298828125,-0.87890625,-0.2890625
1356,-0.1650390625,-0.904296875,-0.2685546875
1357,-0.1884765625,-0.9248046875,-0.259765625
1358,-0.2197265625,-0.9482421875,-0.2470703125
1359,-0.25,-0.9736328125,-0.244140625
1360,-0.2685546875,-0.9873046875,-0.2431640625
1361,-0.2880859375,-0.986328125,-0.23828125
1362,-0.2890625,-0.9912109375,-0.2314453125
1363,-0.2939453125,-0.984375,-0.2275390625
1364,-0.2841796875,-0.974609375,-0.23046875
1365,-0.271484375,-0.9580078125,-0.228515625
1366,-0.259765625,-0.9306640625,-0.228515625
1367,-0.25390625,-0.9140625,-0.216796875
1368,-0.234375,-0.896484375,-0.21484375
1369,-0.2119140625,-0.86328125,-0.2021484375
1370,-0.1982421875,-0.841796875,-0.19140625
1371,-0.1796875,-0.826171875,-0.1748046875
1372,-0.1650390625,-0.802734375,-0.169921875
1373,-0.146484375,-0.7890625,-0.16015625
1374,-0.12890625,-0.779296875,-0.146484375
1375,-0.109375,-0.7734375,-0.1416015625
1376,-0.103515625,-0.755859375,-0.1259765625
1377,-0.09765625,-0.7568359375,-0.1220703125
1378,-0.095703125,-0.7529296875,-0.115234375
1379,-0.0859375,-0.75,-0.1044921875
1380,-0.07421875,-0.7529296875,-0.0947265625
1381,-0.0625,-0.7451171875,-0.0927734375
1382,-0.0556640625,-0.7412109375,-0.0849609375
1383,-0.0478515625,-0.7373046875,-0.08203125
1384,-0.0400390625,-0.7333984375,-0.076171875
1385,-0.0380859375,-0.73046875,-0.0703125
1386,-0.0341796875,-0.7216796875,-0.0615234375
1387,-0.033203125,-0.7275390625,-0.05859375
1388,-0.0361328125,-0.73046875,-0.0576171875
1389,-0.0361328125,-0.7314453125,-0.05078125
1390,-0.0517578125,-0.73828125,-0.0439453125
1391,-0.0556640625,-0.73828125,-0.041015625
1392,-0.060546875,-0.74609375,-0.0302734375
1393,-0.07421875,-0.7548828125,-0.02734375
1394,-0.0830078125,-0.7705078125,-0.02734375
1395,-0.08984375,-0.78125,-0.0224609375
1396,-0.099609375,-0.7998046875,-0.037109375
1397,-0.107421875,-0.814453125,-0.0302734375
1398,-0.1142578125,-0.8369140625,-0.0283203125
1399,-0.125,-0.86328125,-0.029296875
1400,-0.12890625,-0.8955078125,-0.025390625
1401,-0.119140625,-0.9228515625,-0.015625
1402,-0.1181640625,-0.974609375,0.0029296875
1403,-0.10546875,-1.0029296875,0.0224609375
1404,-0.095703125,-1.046875,0.04296875
1405,-0.0810546875,-1.076171875,0.0517578125
1406,-0.076171875,-1.0986328125,0.0595703125
1407,-0.0791015625,-1.1083984375,0.0458984375
1408,-0.078125,-1.1083984375,0.03125
1409,-0.0810546875,-1.0927734375,0.0126953125
1410,-0.0869140625,-1.068359375,-0.0078125
1411,-0.078125,-1.0390625,-0.03125
1412,-0.060546875,-1.0,-0.044921875
1413,-0.0361328125,-0.9658203125,-0.056640625
1414,-0.01171875,-0.9267578125,-0.0654296875
1415,0.0205078125,-0.890625,-0.0693359375
1416,0.056640625,-0.861328125,-0.06640625
1417,0.078125,-0.833984375,-0.0673828125
1418,0.0986328125,-0.828125,-0.0595703125
1419,0.12109375,-0.8291015625,-0.064453125
1420,0.142578125,-0.837890625,-0.0751953125
1421,0.1630859375,-0.849609375,-0.0751953125
1422,0.1962890625,-0.86328125,-0.0771484375
1423,0.2373046875,-0.873046875,-0.0830078125
1424,0.267578125,-0.900390625,-0.0859375
1425,0.2880859375,-0.9228515625,-0.068359375
1426,0.30078125,-0.9716796875,-0.044921875
1427,0.2900390625,-1.0361328125,-0.01953125
1428,0.265625,-1.103515625,0.0009765625
1429,0.2255859375,-1.1767578125,0.01953125
1430,0.18359375,-1.265625,0.0244140625
1431,0.134765625,-1.35546875,0.009765625
1432,0.076171875,-1.423828125,-0.0615234375
1433,0.0341796875,-1.4765625,-0.1484375
1434,-0.00390625,-1.4873046875,-0.2373046875
1435,-0.037109375,-1.4638671875,-0.3369140625
1436,-0.0224609375,-1.4306640625,-0.4345703125
1437,-0.001953125,-1.384765625,-0.5234375
1438,0.0107421875,-1.3408203125,-0.5830078125
1439,0.0146484375,-1.3056640625,-0.6220703125
1440,0.0205078125,-1.2763671875,-0.62890625
1441,0.0234375,-1.25,-0.6201171875
1442,0.0283203125,-1.2197265625,-0.578125
1443,0.0302734375,-1.197265625,-0.5478515625
1444,0.0546875,-1.15625,-0.5546875
1445,0.0791015625,-1.1005859375,-0.591796875
1446,0.0810546875,-1.0087890625,-0.6416015625
1447,0.0625,-0.9052734375,-0.666015625
1448,0.017578125,-0.775390625,-0.677734375
1449,-0.03515625,-0.646484375,-0.6630859375
1450,-0.09765625,-0.517578125,-0.625
1451,-0.1787109375,-0.412109375,-0.5673828125
1452,-0.2451171875,-0.3251953125,-0.517578125
1453,-0.32421875,-0.2646484375,-0.44921875
1454,-0.3701171875,-0.2255859375,-0.3857421875
1455,-0.419921875,-0.2294921875,-0.32421875
1456,-0.4462890625,-0.267578125,-0.3056640625
1457,-0.462890625,-0.34765625,-0.2958984375
1458,-0.44921875,-0.4794921875,-0.28515625
1459,-0.4287109375,-0.6171875,-0.2724609375
1460,-0.390625,-0.7431640625,-0.26171875
1461,-0.3486328125,-0.853515625,-0.2333984375
1462,-0.3125,-0.9541015625,-0.2138671875
1463,-0.2744140625,-1.068359375,-0.21875
1464,-0.2138671875,-1.13671875,-0.2451171875
1465,-0.193359375,-1.1884765625,-0.298828125
1466,-0.1708984375,-1.2294921875,-0.3740234375
1467,-0.150390625,-1.259765625,-0.462890625
1468,-0.12109375,-1.26953125,-0.541015625
1469,-0.109375,-1.275390625,-0.59765625
1470,-0.08984375,-1.2763671875,-0.62109375
1471,-0.0732421875,-1.2705078125,-0.6171875
1472,-0.0625,-1.2646484375,-0.5830078125
1473,-0.0439453125,-1.2587890625,-0.53125
1474,-0.0380859375,-1.2470703125,-0.466796875
1475,-0.0224609375,-1.236328125,-0.408203125
1476,-0.015625,-1.2021484375,-0.359375
1477,-0.0029296875,-1.1748046875,-0.3203125
1478,-0.0009765625,-1.14453125,-0.30078125
1479,-0.0126953125,-1.09765625,-0.2724609375
1480,-0.0244140625,-1.0537109375,-0.2509765625
1481,-0.0361328125,-1.005859375,-0.228515625
1482,-0.056640625,-0.9638671875,-0.2060546875
1483,-0.078125,-0.9375,-0.177734375
1484,-0.099609375,-0.9150390625,-0.1611328125
1485,-0.119140625,-0.90234375,-0.1337890625
1486,-0.134765625,-0.9072265625,-0.1103515625
1487,-0.158203125,-0.9189453125,-0.0888671875
1488,-0.173828125,-0.9169921875,-0.0791015625
1489,-0.1953125,-0.931640625,-0.06640625
1490,-0.20703125,-0.931640625,-0.0458984375
1491,-0.208984375,-0.9482421875,-0.0263671875
1492,-0.21484375,-0.9482421875,-0.0078125
1493,-0.2060546875,-0.9580078125,0.0048828125
1494,-0.2177734375,-0.97265625,0.0166015625
1495,-0.17578125,-0.974609375,0.0283203125
1496,-0.1455078125,-0.986328125,0.0302734375
1497,-0.1474609375,-0.98046875,0.025390625
1498,-0.099609375,-0.9912109375,0.0244140625
1499,-0.06640625,-0.998046875,0.0224609375
1500,-0.041015625,-1.013671875,0.021484375
1501,-0.0146484375,-1.0234375,0.0263671875
1502,0.005859375,-1.0205078125,0.02734375
1503,0.0380859375,-1.037109375,0.0322265625
1504,0.0458984375,-1.037109375,0.0400390625
1505,0.07421875,-1.04296875,0.0478515625
1506,0.078125,-1.04296875,0.0576171875
1507,0.08984375,-1.0283203125,0.0712890625
1508,0.1064453125,-1.01171875,0.08984375
1509,0.1123046875,-0.9970703125,0.1005859375
1510,0.1201171875,-0.9775390625,0.1171875
1511,0.1162109375,-0.9501953125,0.1318359375
1512,0.115234375,-0.923828125,0.1376953125
1513,0.09765625,-0.8935546875,0.1318359375
1514,0.0771484375,-0.845703125,0.1162109375
1515,0.056640625,-0.798828125,0.0986328125
1516,0.0361328125,-0.759765625,0.0732421875
1517,0.0107421875,-0.7138671875,0.046875
1518,-0.015625,-0.681640625,0.015625
1519,-0.02734375,-0.64453125,-0.0205078125
1520,-0.03515625,-0.6298828125,-0.072265625
1521,-0.0322265625,-0.6103515625,-0.099609375
1522,-0.037109375,-0.595703125,-0.11328125
1523,-0.025390625,-0.595703125,-0.134765625
1524,-0.01171875,-0.591796875,-0.1865234375
1525,0.005859375,-0.5927734375,-0.212890625
1526,0.03125,-0.599609375,-0.21484375
1527,0.046875,-0.6318359375,-0.208984375
1528,0.0732421875,-0.6650390625,-0.22265625
1529,0.0986328125,-0.703125,-0.2412109375
1530,0.111328125,-0.720703125,-0.2744140625
1531,0.13671875,-0.7412109375,-0.3642578125
1532,0.173828125,-0.7470703125,-0.4638671875
1533,0.208984375,-0.740234375,-0.580078125
1534,0.2392578125,-0.71484375,-0.6767578125
1535,0.248046875,-0.693359375,-0.728515625
1536,0.232421875,-0.6689453125,-0.74609375
1537,0.197265625,-0.6552734375,-0.74609375
1538,0.154296875,-0.640625,-0.7216796875
1539,0.0908203125,-0.6357421875,-0.68359375
1540,0.02734375,-0.6328125,-0.6240234375
1541,-0.0390625,-0.6376953125,-0.556640625
1542,-0.08984375,-0.64453125,-0.4775390625
1543,-0.1220703125,-0.65234375,-0.408203125
1544,-0.125,-0.671875,-0.3759765625
1545,-0.134765625,-0.69140625,-0.369140625
1546,-0.1513671875,-0.6982421875,-0.3857421875
1547,-0.1865234375,-0.71484375,-0.40625
1548,-0.2392578125,-0.7451171875,-0.453125
1549,-0.2802734375,-0.791015625,-0.54296875
1550,-0.3046875,-0.853515625,-0.6376953125
1551,-0.28125,-0.91796875,-0.720703125
1552,-0.2900390625,-1.0078125,-0.7119140625
1553,-0.2919921875,-1.111328125,-0.68359375
1554,-0.2890625,-1.2392578125,-0.60546875
1555,-0.2900390625,-1.3955078125,-0.5205078125
1556,-0.3076171875,-1.5615234375,-0.4404296875
1557,-0.3427734375,-1.6884765625,-0.3740234375
1558,-0.38671875,-1.81640625,-0.31640625
1559,-0.4130859375,-1.927734375,-0.2861328125
1560,-0.41796875,-2.029296875,-0.2724609375
1561,-0.421875,-2.1240234375,-0.267578125
1562,-0.4052734375,-2.1708984375,-0.26953125
1563,-0.3759765625,-2.1767578125,-0.2890625
1564,-0.3349609375,-2.1640625,-0.306640625
1565,-0.287109375,-2.126953125,-0.3427734375
1566,-0.1953125,-2.0712890625,-0.3583984375
1567,-0.107421875,-1.9638671875,-0.3359375
1568,-0.0361328125,-1.85546875,-0.3134765625
1569,0.03515625,-1.755859375,-0.283203125
1570,0.091796875,-1.6552734375,-0.25
1571,0.13671875,-1.5693359375,-0.21484375
1572,0.1640625,-1.486328125,-0.173828125
1573,0.17578125,-1.4072265625,-0.1171875
1574,0.1767578125,-1.326171875,-0.0546875
1575,0.1533203125,-1.248046875,-0.001953125
1576,0.1279296875,-1.1708984375,0.029296875
1577,0.072265625,-1.1181640625,0.05078125
1578,-0.0048828125,-1.109375,0.0634765625
1579,-0.0849609375,-1.1171875,0.076171875
1580,-0.1435546875,-1.140625,0.08203125
1581,-0.1806640625,-1.1787109375,0.0673828125
1582,-0.21875,-1.20703125,0.0224609375
1583,-0.2587890625,-1.236328125,-0.0517578125
1584,-0.2890625,-1.2529296875,-0.1337890625
1585,-0.3037109375,-1.2626953125,-0.162109375
1586,-0.2998046875,-1.265625,-0.1826171875
1587,-0.2763671875,-1.2392578125,-0.2431640625
1588,-0.25,-1.1923828125,-0.3193359375
1589,-0.1923828125,-1.1533203125,-0.3681640625
1590,-0.138671875,-1.083984375,-0.3955078125
1591,-0.09375,-0.9921875,-0.4228515625
1592,-0.056640625,-0.8701171875,-0.439453125
1593,-0.0234375,-0.7451171875,-0.431640625
1594,0.0078125,-0.603515625,-0.4013671875
1595,0.0478515625,-0.46875,-0.3349609375
1596,0.0966796875,-0.345703125,-0.2578125
1597,0.1552734375,-0.2314453125,-0.19921875
1598,0.2109375,-0.1171875,-0.1611328125
1599,0.2685546875,-0.0146484375,-0.130859375
1600,0.330078125,0.0703125,-0.09765625
1601,0.3837890625,0.1513671875,-0.0869140625
1602,0.453125,0.2275390625,-0.0908203125
1603,0.501953125,0.3115234375,-0.083984375
1604,0.5458984375,0.380859375,-0.08203125
1605,0.5537109375,0.447265625,-0.1162109375
1606,0.53515625,0.505859375,-0.17578125
1607,0.4833984375,0.5400390625,-0.248046875
1608,0.4208984375,0.55859375,-0.2919921875
1609,0.3359375,0.55859375,-0.314453125
1610,0.2685546875,0.5478515625,-0.294921875
1611,0.2041015625,0.5126953125,-0.2470703125
1612,0.1533203125,0.4677734375,-0.17578125
1613,0.111328125,0.4228515625,-0.1044921875
1614,0.0615234375,0.357421875,-0.052734375
1615,0.0146484375,0.2880859375,-0.01171875
1616,-0.03515625,0.208984375,0.0078125
1617,-0.11328125,0.1376953125,0.021484375
1618,-0.1611328125,0.0712890625,0.0380859375
1619,-0.205078125,-0.005859375,0.0712890625
1620,-0.25390625,-0.0869140625,0.08984375
1621,-0.2900390625,-0.14453125,0.1005859375
1622,-0.3203125,-0.216796875,0.10546875
1623,-0.3740234375,-0.267578125,0.1025390625
1624,-0.4140625,-0.3037109375,0.1220703125
1625,-0.4443359375,-0.322265625,0.1416015625
1626,-0.4755859375,-0.3056640625,0.1630859375
1627,-0.484375,-0.2626953125,0.19140625
1628,-0.484375,-0.2001953125,0.2138671875
1629,-0.47265625,-0.1328125,0.228515625
1630,-0.4404296875,-0.0615234375,0.2294921875
1631,-0.3955078125,0.0107421875,0.2353515625
1632,-0.3486328125,0.064453125,0.2373046875
1633,-0.2939453125,0.1162109375,0.251953125
1634,-0.224609375,0.1552734375,0.2822265625
1635,-0.1318359375,0.166015625,0.3515625
1636,-0.0322265625,0.1591796875,0.4482421875
1637,0.072265625,0.134765625,0.5322265625
1638,0.1630859375,0.0947265625,0.572265625
1639,0.2421875,0.0576171875,0.5693359375
1640,0.306640625,0.0068359375,0.513671875
1641,0.36328125,-0.044921875,0.423828125
1642,0.3935546875,-0.099609375,0.3271484375
1643,0.4130859375,-0.173828125,0.2841796875
1644,0.41015625,-0.25,0.2705078125
1645,0.3818359375,-0.326171875,0.248046875
1646,0.3515625,-0.40234375,0.2099609375
1647,0.314453125,-0.453125,0.15234375
1648,0.2275390625,-0.4951171875,0.0673828125
1649,0.1396484375,-0.5185546875,-0.017578125
1650,0.04296875,-0.5439453125,-0.0791015625
1651,-0.0419921875,-0.5478515625,-0.16015625
1652,-0.1015625,-0.5263671875,-0.2431640625
1653,-0.1611328125,-0.4853515625,-0.30859375
1654,-0.1953125,-0.4306640625,-0.35546875
1655,-0.236328125,-0.3583984375,-0.3935546875
1656,-0.265625,-0.275390625,-0.4111328125
1657,-0.2763671875,-0.1845703125,-0.3974609375
1658,-0.2685546875,-0.0849609375,-0.361328125
1659,-0.2626953125,0.01171875,-0.333984375
1660,-0.248046875,0.10546875,-0.32421875
1661,-0.232421875,0.1884765625,-0.3076171875
1662,-0.2119140625,0.2705078125,-0.2685546875
1663,-0.1962890625,0.3486328125,-0.2568359375
1664,-0.17578125,0.4287109375,-0.25
1665,-0.1484375,0.5009765625,-0.2353515625
1666,-0.1015625,0.5654296875,-0.2275390625
1667,-0.0888671875,0.623046875,-0.220703125
1668,-0.08203125,0.673828125,-0.197265625
1669,-0.0849609375,0.6982421875,-0.14453125
1670,-0.0625,0.595703125,0.2275390625
1671,0.05859375,0.431640625,0.5400390625
1672,0.1796875,0.205078125,0.8251953125
1673,0.294921875,-0.1796875,1.283203125
1674,0.580078125,-0.8916015625,2.333984375
1675,0.8720703125,-2.068359375,3.86328125
1676,1.060546875,-3.7548828125,6.49609375
1677,2.3447265625,-6.85546875,7.9990234375
1678,4.7265625,-8.0,7.9990234375
1679,5.16015625,-8.0,7.9990234375
1680,5.1533203125,-8.0,5.900390625
1681,2.984375,-8.0,4.5224609375
1682,1.9453125,-6.1943359375,4.236328125
1683,1.7294921875,-5.0908203125,3.693359375
1684,1.0380859375,-4.2509765625,2.9384765625
1685,-0.0546875,-3.4990234375,2.19140625
1686,-0.9931640625,-2.6435546875,1.5107421875
1687,-1.6845703125,-1.5703125,2.0107421875
1688,-2.23828125,-0.47265625,3.5283203125
1689,-2.478515625,0.740234375,4.7001953125
1690,-2.5537109375,1.7822265625,5.1953125
1691,-2.443359375,2.21484375,4.662109375
1692,-2.130859375,2.2890625,3.24609375
1693,-1.501953125,2.220703125,1.0458984375
1694,-0.68359375,2.0966796875,-0.5
1695,0.1083984375,1.8115234375,-1.556640625
1696,0.7373046875,1.4365234375,-2.115234375
1697,1.1826171875,0.9755859375,-2.2119140625
1698,1.14453125,0.576171875,-1.96875
1699,0.9326171875,0.2099609375,-1.484375
1700,0.740234375,-0.353515625,-0.8505859375
1701,0.5400390625,-0.6689453125,-0.1875
1702,0.4130859375,-0.69921875,0.2822265625
1703,0.37890625,-0.9208984375,0.546875
1704,0.3349609375,-1.1845703125,0.55859375
1705,0.2626953125,-1.4326171875,0.3427734375
1706,0.142578125,-1.5986328125,0.138671875
1707,-0.0087890625,-1.65625,0.134765625
1708,-0.1923828125,-1.5234375,0.0625
1709,-0.3642578125,-1.26953125,-0.015625
1710,-0.4296875,-0.9365234375,0.0341796875
1711,-0.4169921875,-0.615234375,0.1357421875
1712,-0.3642578125,-0.322265625,0.220703125
1713,-0.2646484375,-0.0634765625,0.3017578125
1714,-0.123046875,0.2021484375,0.3994140625
1715,0.0693359375,0.4912109375,0.5419921875
1716,0.27734375,0.7978515625,0.7177734375
1717,0.4482421875,1.25390625,0.9736328125
1718,0.5693359375,1.677734375,1.1669921875
1719,0.7353515625,2.06640625,1.326171875
1720,0.9384765625,2.45703125,1.408203125
1721,1.1572265625,2.6865234375,1.3193359375
1722,1.26953125,2.7431640625,1.044921875
1723,1.205078125,2.5908203125,0.732421875
1724,1.017578125,2.32421875,0.494140625
1725,0.8330078125,1.9970703125,0.357421875
1726,0.634765625,1.642578125,0.30078125
1727,0.44921875,1.2724609375,0.291015625
1728,0.314453125,0.9033203125,0.3173828125
1729,0.2197265625,0.552734375,0.3798828125
1730,0.1396484375,0.2197265625,0.474609375
1731,0.083984375,-0.0673828125,0.5751953125
1732,0.06640625,-0.337890625,0.6865234375
1733,0.0654296875,-0.5869140625,0.7880859375
1734,0.0849609375,-0.8271484375,0.859375
1735,0.1337890625,-1.037109375,0.8798828125
1736,0.1669921875,-1.16015625,0.87109375
1737,0.18359375,-1.203125,0.873046875
1738,0.2080078125,-1.111328125,0.8720703125
1739,0.2109375,-0.9287109375,0.8984375
1740,0.228515625,-0.7158203125,0.900390625
1741,0.2470703125,-0.4990234375,0.919921875
1742,0.25,-0.29296875,0.9521484375
1743,0.2490234375,-0.1123046875,1.0087890625
1744,0.2421875,0.03515625,1.0927734375
1745,0.2109375,0.1396484375,1.15625
1746,0.134765625,0.21875,1.25
1747,0.02734375,0.2626953125,1.3427734375
1748,-0.078125,0.271484375,1.4677734375
1749,-0.171875,0.2548828125,1.5751953125
1750,-0.224609375,0.2421875,1.6552734375
1751,-0.28125,0.21484375,1.6953125
1752,-0.302734375,0.1611328125,1.68359375
1753,-0.3173828125,0.1083984375,1.646484375
1754,-0.318359375,0.076171875,1.591796875
1755,-0.3095703125,0.0458984375,1.52734375
1756,-0.2822265625,0.037109375,1.4375
1757,-0.212890625,0.021484375,1.359375
1758,-0.107421875,0.0068359375,1.2734375
1759,0.0126953125,-0.001953125,1.197265625
1760,0.1279296875,-0.0068359375,1.1279296875
1761,0.2236328125,-0.013671875,1.0498046875
1762,0.2998046875,-0.017578125,0.998046875
1763,0.3466796875,-0.0234375,0.94921875
1764,0.3759765625,-0.0263671875,0.90234375
1765,0.3779296875,-0.03515625,0.86328125
1766,0.375,-0.0478515625,0.82421875
1767,0.3583984375,-0.0537109375,0.8017578125
1768,0.328125,-0.0498046875,0.7763671875
1769,0.2939453125,-0.044921875,0.7548828125
1770,0.236328125,-0.033203125,0.7373046875
1771,0.1845703125,-0.017578125,0.720703125
1772,0.1298828125,-0.0087890625,0.708984375
1773,0.09375,-0.0009765625,0.697265625
1774,0.0615234375,-0.0185546875,0.6865234375
1775,0.0390625,-0.0380859375,0.681640625
1776,0.0087890625,-0.0595703125,0.68359375
1777,-0.017578125,-0.09375,0.6923828125
1778,-0.033203125,-0.123046875,0.69921875
1779,-0.03515625,-0.1728515625,0.7060546875
1780,-0.0283203125,-0.2138671875,0.7177734375
1781,-0.017578125,-0.267578125,0.724609375
1782,-0.0048828125,-0.3076171875,0.728515625
1783,-0.0087890625,-0.34765625,0.74609375
1784,-0.0009765625,-0.37890625,0.7607421875
1785,-0.0078125,-0.41015625,0.775390625
1786,-0.01171875,-0.4404296875,0.794921875
1787,-0.0302734375,-0.4599609375,0.81640625
1788,-0.0400390625,-0.46484375,0.849609375
1789,-0.0595703125,-0.4755859375,0.876953125
1790,-0.078125,-0.4775390625,0.908203125
1791,-0.103515625,-0.470703125,0.94140625
1792,-0.1181640625,-0.4677734375,0.9775390625
1793,-0.142578125,-0.4541015625,1.0068359375
1794,-0.1591796875,-0.4375,1.037109375
1795,-0.1640625,-0.408203125,1.068359375
1796,-0.1708984375,-0.3798828125,1.1015625
1797,-0.1650390625,-0.3486328125,1.1162109375
1798,-0.1455078125,-0.3125,1.1279296875
1799,-0.119140625,-0.2666015625,1.1435546875
1800,-0.078125,-0.21484375,1.134765625
1801,-0.025390625,-0.1708984375,1.134765625
1802,0.0244140625,-0.13671875,1.119140625
1803,0.072265625,-0.1015625,1.107421875
1804,0.126953125,-0.068359375,1.09765625
1805,0.169921875,-0.0439453125,1.0771484375
1806,0.208984375,-0.0244140625,1.06640625
1807,0.2451171875,-0.0166015625,1.05078125
1808,0.2744140625,-0.0107421875,1.037109375
1809,0.2919921875,-0.01171875,1.0263671875
1810,0.2978515625,-0.0205078125,1.009765625
1811,0.2900390625,-0.0283203125,1.0029296875
1812,0.279296875,-0.03125,0.994140625
1813,0.2666015625,-0.046875,0.9912109375
1814,0.2470703125,-0.052734375,0.9775390625
1815,0.224609375,-0.0615234375,0.9619140625
1816,0.205078125,-0.0654296875,0.9521484375
1817,0.17578125,-0.0791015625,0.9384765625
1818,0.15625,-0.083984375,0.9365234375
1819,0.126953125,-0.0888671875,0.931640625
1820,0.1064453125,-0.09375,0.9326171875
1821,0.0888671875,-0.09375,0.9345703125
1822,0.0751953125,-0.0869140625,0.9365234375
1823,0.060546875,-0.0869140625,0.9453125
1824,0.05078125,-0.0791015625,0.9443359375
1825,0.0361328125,-0.0654296875,0.9482421875
1826,0.03515625,-0.05859375,0.9462890625
1827,0.0224609375,-0.05078125,0.94921875
1828,0.0205078125,-0.0400390625,0.9599609375
1829,0.0166015625,-0.041015625,0.953125
1830,0.0126953125,-0.0302734375,0.953125
1831,0.0234375,-0.02734375,0.9609375
1832,0.029296875,-0.0283203125,0.9697265625
1833,0.0361328125,-0.02734375,0.97265625
1834,0.0478515625,-0.0244140625,0.9794921875
1835,0.05078125,-0.0283203125,0.984375
1836,0.0634765625,-0.0302734375,0.9921875
1837,0.0703125,-0.037109375,0.9951171875
1838,0.08203125,-0.0419921875,1.0009765625
1839,0.087890625,-0.05078125,0.998046875
1840,0.09375,-0.0556640625,1.009765625
1841,0.1015625,-0.0703125,1.009765625
1842,0.107421875,-0.076171875,1.0185546875
1843,0.1142578125,-0.09375,1.015625
1844,0.1201171875,-0.0986328125,1.0244140625
1845,0.1201171875,-0.1025390625,1.0224609375
1846,0.123046875,-0.109375,1.0234375
1847,0.1220703125,-0.1103515625,1.0205078125
1848,0.1201171875,-0.119140625,1.0185546875
1849,0.119140625,-0.1171875,1.015625
1850,0.11328125,-0.1123046875,1.015625
1851,0.11328125,-0.111328125,1.013671875
1852,0.1103515625,-0.1103515625,1.0078125
1853,0.11328125,-0.109375,1.0048828125
1854,0.1142578125,-0.103515625,0.9951171875
1855,0.1162109375,-0.1015625,0.984375
1856,0.1123046875,-0.1025390625,0.982421875
1857,0.11328125,-0.099609375,0.9775390625
1858,0.1142578125,-0.10546875,0.970703125
1859,0.1123046875,-0.1064453125,0.9580078125
1860,0.1044921875,-0.1083984375,0.9541015625
1861,0.1005859375,-0.1162109375,0.955078125
1862,0.09765625,-0.111328125,0.9482421875
1863,0.09375,-0.1142578125,0.9482421875
1864,0.0908203125,-0.1201171875,0.94921875
1865,0.0869140625,-0.1220703125,0.94921875
1866,0.078125,-0.1279296875,0.953125
1867,0.0771484375,-0.125,0.9580078125
1868,0.076171875,-0.119140625,0.9658203125
1869,0.07421875,-0.115234375,0.9697265625
1870,0.072265625,-0.1162109375,0.974609375
1871,0.0703125,-0.1123046875,0.978515625
1872,0.06640625,-0.1083984375,0.982421875
1873,0.05859375,-0.11328125,0.982421875
1874,0.064453125,-0.109375,0.9873046875
1875,0.0634765625,-0.107421875,0.98828125
1876,0.0576171875,-0.1083984375,0.9921875
1877,0.056640625,-0.1044921875,1.0
1878,0.056640625,-0.107421875,0.9951171875
1879,0.0537109375,-0.103515625,0.994140625
1880,0.052734375,-0.107421875,0.9990234375
1881,0.0517578125,-0.1015625,0.990234375
1882,0.0576171875,-0.0947265625,0.9921875
1883,0.056640625,-0.0888671875,0.984375
1884,0.056640625,-0.0751953125,0.9755859375
1885,0.0634765625,-0.072265625,0.9736328125
1886,0.060546875,-0.0625,0.9716796875
1887,0.056640625,-0.0595703125,0.9697265625
1888,0.0625,-0.0537109375,0.9794921875
1889,0.06640625,-0.04296875,0.9814453125
1890,0.060546875,-0.0439453125,0.986328125
1891,0.06640625,-0.0361328125,0.9931640625
1892,0.06640625,-0.02734375,0.9990234375
1893,0.0712890625,-0.017578125,1.00390625
1894,0.0625,-0.017578125,1.01171875
1895,0.05859375,-0.01171875,1.0087890625
1896,0.05859375,-0.013671875,1.015625
1897,0.0576171875,-0.0126953125,1.0283203125
1898,0.064453125,-0.0205078125,1.0361328125
1899,0.056640625,-0.037109375,1.0537109375
1900,0.0556640625,-0.06640625,1.05859375
1901,0.0458984375,-0.087890625,1.0537109375
1902,0.0439453125,-0.1044921875,1.03515625
1903,0.044921875,-0.107421875,1.0
1904,0.046875,-0.1025390625,0.9736328125
1905,0.044921875,-0.08203125,0.9580078125
1906,0.048828125,-0.0546875,0.955078125
1907,0.0439453125,-0.0244140625,0.96484375
1908,0.0478515625,-0.0009765625,0.9814453125
1909,0.0478515625,0.021484375,0.9951171875
1910,0.0498046875,0.037109375,0.9912109375
1911,0.056640625,0.048828125,0.9765625
1912,0.0595703125,0.064453125,0.9619140625
1913,0.0703125,0.068359375,0.9599609375
1914,0.0791015625,0.087890625,0.9560546875
1915,0.080078125,0.0908203125,0.962890625
1916,0.0830078125,0.080078125,0.9775390625
1917,0.087890625,0.076171875,0.984375
1918,0.0888671875,0.05859375,0.9970703125
1919,0.0966796875,0.0400390625,1.0009765625
1920,0.08984375,0.0078125,1.0107421875
1921,0.087890625,-0.0068359375,1.005859375
1922,0.0810546875,-0.0234375,1.005859375
1923,0.080078125,-0.03515625,1.0009765625
1924,0.072265625,-0.0517578125,0.98828125
1925,0.0732421875,-0.0498046875,0.9873046875
1926,0.07421875,-0.0546875,0.9873046875
1927,0.078125,-0.0595703125,0.98828125
1928,0.0732421875,-0.0703125,0.9931640625
1929,0.0712890625,-0.0751953125,0.99609375
1930,0.076171875,-0.0908203125,0.994140625
1931,0.072265625,-0.0947265625,0.984375
1932,0.0703125,-0.1083984375,0.9775390625
1933,0.0673828125,-0.119140625,0.96484375
1934,0.0673828125,-0.1298828125,0.9580078125
1935,0.0673828125,-0.1357421875,0.9521484375
1936,0.0634765625,-0.1328125,0.94921875
1937,0.0703125,-0.1328125,0.9541015625
1938,0.0634765625,-0.109375,0.953125
1939,0.060546875,-0.0888671875,0.9599609375
1940,0.060546875,-0.064453125,0.958984375
1941,0.0625,-0.04296875,0.94921875
1942,0.0673828125,-0.0126953125,0.951171875
1943,0.072265625,0.00390625,0.94921875
1944,0.076171875,0.0126953125,0.9619140625
1945,0.0791015625,0.0234375,0.9697265625
1946,0.08203125,0.0244140625,0.9853515625
1947,0.0869140625,0.0234375,0.9990234375
1948,0.08984375,0.015625,1.015625
1949,0.0908203125,0.009765625,1.0283203125
1950,0.0947265625,-0.0029296875,1.037109375
1951,0.0927734375,-0.0146484375,1.041015625
1952,0.091796875,-0.0224609375,1.046875
1953,0.08984375,-0.03125,1.0390625
1954,0.0859375,-0.0302734375,1.0419921875
1955,0.0830078125,-0.03125,1.025390625
1956,0.078125,-0.025390625,1.015625
1957,0.078125,-0.0224609375,1.005859375
1958,0.08203125,-0.0205078125,0.9921875
1959,0.078125,-0.0244140625,0.9814453125
1960,0.0791015625,-0.0263671875,0.9765625
1961,0.07421875,-0.03125,0.9775390625
1962,0.078125,-0.033203125,0.98046875
1963,0.08203125,-0.037109375,0.986328125
1964,0.083984375,-0.0419921875,0.9892578125
1965,0.083984375,-0.056640625,0.9951171875
1966,0.083984375,-0.060546875,0.99609375
1967,0.0869140625,-0.07421875,0.9931640625
1968,0.0927734375,-0.0703125,0.9951171875
1969,0.0869140625,-0.0712890625,0.994140625
1970,0.0830078125,-0.0654296875,0.990234375
1971,0.091796875,-0.0634765625,0.9833984375
1972,0.08984375,-0.0634765625,0.9775390625
1973,0.08984375,-0.064453125,0.978515625
1974,0.0908203125,-0.0478515625,0.9755859375
1975,0.08984375,-0.05078125,0.984375
1976,0.0888671875,-0.05859375,0.9912109375
1977,0.091796875,-0.0751953125,1.0029296875
1978,0.0859375,-0.0908203125,1.0068359375
1979,0.0830078125,-0.1005859375,0.9951171875
1980,0.080078125,-0.1123046875,0.9765625
1981,0.0732421875,-0.1181640625,0.9658203125
1982,0.0712890625,-0.1162109375,0.9619140625
1983,0.0625,-0.1064453125,0.9609375
1984,0.0615234375,-0.08984375,0.9599609375
1985,0.060546875,-0.0634765625,0.9599609375
1986,0.0537109375,-0.0400390625,0.9599609375
1987,0.0576171875,-0.013671875,0.953125
1988,0.05859375,0.0029296875,0.9453125
1989,0.0703125,0.009765625,0.9443359375
1990,0.072265625,0.0185546875,0.935546875
1991,0.078125,0.02734375,0.9404296875
1992,0.08203125,0.029296875,0.953125
1993,0.0888671875,0.025390625,0.9658203125
1994,0.0908203125,0.0205078125,0.9833984375
1995,0.099609375,0.0029296875,0.990234375
1996,0.1005859375,-0.00390625,1.0
1997,0.0966796875,-0.025390625,1.00390625
1998,0.091796875,-0.0390625,1.009765625
1999,0.091796875,-0.0634765625,1.01953125
2000,0.0849609375,-0.07421875,1.0361328125
2001,0.0859375,-0.09375,1.0517578125
2002,0.0849609375,-0.1044921875,1.0498046875
2003,0.091796875,-0.1181640625,1.0556640625
2004,0.0869140625,-0.1220703125,1.0537109375
2005,0.0859375,-0.1279296875,1.0458984375
2006,0.0869140625,-0.130859375,1.0390625
2007,0.087890625,-0.115234375,1.0322265625
2008,0.083984375,-0.1044921875,1.0263671875
2009,0.087890625,-0.08203125,1.0146484375
2010,0.0869140625,-0.0673828125,1.001953125
2011,0.09375,-0.0517578125,0.9970703125
2012,0.09375,-0.0439453125,0.9873046875
2013,0.0927734375,-0.03515625,0.982421875
2014,0.091796875,-0.029296875,0.978515625
2015,0.09765625,-0.0322265625,0.9765625
2016,0.10546875,-0.0341796875,0.97265625
2017,0.0986328125,-0.0380859375,0.9609375
2018,0.09765625,-0.0498046875,0.9599609375
2019,0.0986328125,-0.06640625,0.9580078125
2020,0.09375,-0.0771484375,0.95703125
2021,0.09375,-0.1005859375,0.9638671875
2022,0.091796875,-0.1318359375,0.9716796875
2023,0.083984375,-0.1708984375,0.96875
2024,0.0751953125,-0.20703125,0.9501953125
2025,0.0595703125,-0.2275390625,0.9453125
2026,0.0537109375,-0.2412109375,0.9482421875
2027,0.0439453125,-0.2314453125,0.95703125
2028,0.0419921875,-0.2080078125,0.9521484375
2029,0.0478515625,-0.169921875,0.9482421875
2030,0.0439453125,-0.1279296875,0.9560546875
2031,0.037109375,-0.0859375,0.951171875
2032,0.0439453125,-0.0556640625,0.9482421875
2033,0.048828125,-0.0263671875,0.9404296875
2034,0.0576171875,0.001953125,0.921875
2035,0.072265625,0.01953125,0.921875
2036,0.080078125,0.041015625,0.9248046875
2037,0.095703125,0.0546875,0.947265625
2038,0.0947265625,0.052734375,0.9716796875
2039,0.1044921875,0.048828125,0.9931640625
2040,0.1181640625,0.0390625,1.009765625
2041,0.1279296875,0.021484375,1.0146484375
2042,0.1279296875,0.0078125,1.01171875
2043,0.1171875,-0.013671875,1.0068359375
2044,0.103515625,-0.037109375,1.0263671875
2045,0.10546875,-0.064453125,1.02734375
2046,0.1025390625,-0.095703125,1.0419921875
2047,0.1015625,-0.123046875,1.0302734375
2048,0.099609375,-0.15234375,1.025390625
2049,0.09375,-0.169921875,1.01953125
2050,0.09765625,-0.189453125,1.01953125
2051,0.0966796875,-0.201171875,1.017578125
2052,0.1015625,-0.201171875,0.998046875
2053,0.0986328125,-0.1865234375,0.9873046875
2054,0.10546875,-0.162109375,0.9755859375
2055,0.0888671875,-0.126953125,0.970703125
2056,0.0947265625,-0.0966796875,0.9765625
2057,0.0927734375,-0.06640625,0.9814453125
2058,0.099609375,-0.04296875,0.9892578125
2059,0.1015625,-0.0224609375,0.98828125
2060,0.10546875,-0.0078125,0.9873046875
2061,0.107421875,-0.0009765625,0.98828125
2062,0.10546875,0.001953125,0.982421875
2063,0.119140625,-0.005859375,0.974609375
2064,0.1103515625,-0.0185546875,0.982421875
2065,0.1123046875,-0.033203125,0.982421875
2066,0.111328125,-0.048828125,0.9794921875
2067,0.107421875,-0.0703125,0.9755859375
2068,0.11328125,-0.0830078125,0.9755859375
2069,0.115234375,-0.09765625,0.9755859375
2070,0.1142578125,-0.1064453125,0.9677734375
2071,0.1142578125,-0.1171875,0.9609375
2072,0.1123046875,-0.119140625,0.9521484375
2073,0.111328125,-0.1201171875,0.958984375
2074,0.1083984375,-0.123046875,0.958984375
2075,0.1015625,-0.1123046875,0.9697265625
2076,0.1005859375,-0.1142578125,0.974609375
2077,0.099609375,-0.111328125,0.9765625
2078,0.1083984375,-0.0986328125,0.9775390625
2079,0.130859375,-0.1025390625,0.9814453125
2080,0.1201171875,-0.0947265625,0.9794921875
2081,0.08203125,-0.06640625,0.8759765625
2082,0.4365234375,-0.2109375,1.2568359375
2083,0.1455078125,-0.1650390625,0.978515625
2084,0.046875,-0.076171875,1.0302734375
2085,0.017578125,-0.0400390625,1.0595703125
2086,0.0244140625,-0.0419921875,1.1181640625
2087,0.07421875,-0.056640625,1.1474609375
2088,0.0771484375,-0.1552734375,1.1806640625
2089,0.0751953125,-0.1572265625,1.1220703125
2090,0.203125,-0.1064453125,1.0751953125
2091,0.25390625,-0.046875,1.0439453125
2092,0.171875,-0.0048828125,0.9443359375
2093,0.09375,0.0263671875,0.90234375
2094,0.0859375,0.0185546875,0.8779296875
2095,0.095703125,-0.01171875,0.8837890625
2096,0.0986328125,-0.052734375,0.873046875
2097,0.0927734375,-0.0849609375,0.89453125
2098,0.091796875,-0.1142578125,0.9140625
2099,0.0986328125,-0.1240234375,0.9736328125
2100,0.099609375,-0.1318359375,1.0078125
2101,0.10546875,-0.134765625,1.0322265625
2102,0.1005859375,-0.12890625,1.0419921875
2103,0.09765625,-0.1103515625,1.037109375
2104,0.09375,-0.0859375,1.03125
2105,0.10546875,-0.064453125,1.005859375
2106,0.1103515625,-0.041015625,0.9892578125
2107,0.119140625,-0.0302734375,0.9873046875
2108,0.11328125,-0.0244140625,0.9755859375
2109,0.11328125,-0.02734375,0.970703125
2110,0.11328125,-0.041015625,0.970703125
2111,0.1162109375,-0.04296875,0.9755859375
2112,0.1103515625,-0.064453125,0.978515625
2113,0.115234375,-0.068359375,0.98046875
2114,0.1064453125,-0.080078125,0.9814453125
2115,0.1025390625,-0.0908203125,0.9833984375
2116,0.10546875,-0.1015625,0.9794921875
2117,0.091796875,-0.1181640625,0.96484375
2118,0.0888671875,-0.125,0.953125
2119,0.087890625,-0.138671875,0.9521484375
2120,0.0888671875,-0.1396484375,0.9541015625
2121,0.08203125,-0.15234375,0.958984375
2122,0.080078125,-0.146484375,0.9541015625
2123,0.0771484375,-0.142578125,0.9541015625
2124,0.0791015625,-0.1259765625,0.9501953125
2125,0.0751953125,-0.1142578125,0.96875
2126,0.07421875,-0.0986328125,0.9716796875
2127,0.09375,-0.0810546875,0.9873046875
2128,0.1025390625,-0.0634765625,0.9931640625
2129,0.0751953125,-0.05859375,1.0029296875
2130,0.0703125,-0.0498046875,1.0087890625
2131,0.0859375,-0.0322265625,1.01953125
2132,0.0986328125,-0.0205078125,1.0185546875
2133,0.115234375,-0.013671875,1.0244140625
2134,0.1240234375,-0.0146484375,1.0224609375
2135,0.130859375,-0.0146484375,1.0068359375
2136,0.1259765625,-0.0185546875,1.00390625
2137,0.126953125,-0.0205078125,1.0009765625
2138,0.1259765625,-0.03515625,0.9990234375
2139,0.123046875,-0.04296875,0.9951171875
2140,0.1259765625,-0.0478515625,0.994140625
2141,0.123046875,-0.0595703125,0.9892578125
2142,0.1162109375,-0.06640625,0.984375
2143,0.11328125,-0.06640625,0.9833984375
2144,0.1142578125,-0.076171875,0.98046875
2145,0.1103515625,-0.0849609375,0.982421875
2146,0.1083984375,-0.0810546875,0.9853515625
2147,0.0986328125,-0.0908203125,0.9833984375
2148,0.099609375,-0.0859375,0.9873046875
2149,0.099609375,-0.078125,0.9775390625
2150,0.1005859375,-0.076171875,0.978515625
2151,0.1015625,-0.07421875,0.96875
2152,0.103515625,-0.0771484375,0.9697265625
2153,0.1103515625,-0.08203125,0.9765625
2154,0.103515625,-0.0966796875,0.9736328125
2155,0.103515625,-0.107421875,0.9755859375
2156,0.111328125,-0.1162109375,0.9677734375
2157,0.1083984375,-0.1328125,0.9599609375
2158,0.10546875,-0.1474609375,0.955078125
2159,0.10546875,-0.1708984375,0.951171875
2160,0.09375,-0.1953125,0.94921875
2161,0.083984375,-0.2119140625,0.9453125
2162,0.078125,-0.2275390625,0.943359375
2163,0.078125,-0.224609375,0.9423828125
2164,0.0732421875,-0.220703125,0.9443359375
2165,0.0693359375,-0.20703125,0.9482421875
2166,0.068359375,-0.1767578125,0.947265625
2167,0.064453125,-0.1357421875,0.9365234375
2168,0.0703125,-0.10546875,0.9287109375
2169,0.068359375,-0.076171875,0.939453125
2170,0.0712890625,-0.046875,0.9453125
2171,0.0751953125,-0.0205078125,0.9521484375
2172,0.08203125,0.0029296875,0.9677734375
2173,0.0908203125,0.0146484375,0.984375
2174,0.109375,0.025390625,1.0126953125
2175,0.1259765625,0.0341796875,1.025390625
2176,0.126953125,0.03125,1.0517578125
2177,0.130859375,0.0234375,1.0576171875
2178,0.1328125,0.0205078125,1.0634765625
2179,0.1298828125,0.013671875,1.056640625
2180,0.130859375,0.00390625,1.0537109375
2181,0.130859375,-0.0126953125,1.0361328125
2182,0.1279296875,-0.0224609375,1.0244140625
2183,0.125,-0.0302734375,1.02734375
2184,0.1201171875,-0.0439453125,1.015625
2185,0.12109375,-0.05078125,1.0068359375
2186,0.11328125,-0.060546875,1.0
2187,0.111328125,-0.0732421875,0.98828125
2188,0.1064453125,-0.0830078125,0.974609375
2189,0.103515625,-0.0908203125,0.9619140625
2190,0.1064453125,-0.09375,0.9638671875
2191,0.11328125,-0.0986328125,0.9619140625
2192,0.1142578125,-0.103515625,0.9736328125
2193,0.123046875,-0.1044921875,0.9775390625
2194,0.1240234375,-0.10546875,0.9794921875
2195,0.1240234375,-0.103515625,0.9765625
2196,0.1259765625,-0.1064453125,0.9638671875
2197,0.1279296875,-0.11328125,0.95703125
2198,0.1298828125,-0.1025390625,0.9423828125
2199,0.1279296875,-0.1103515625,0.9384765625
2200,0.12890625,-0.115234375,0.9326171875
2201,0.1259765625,-0.1259765625,0.9345703125
2202,0.1259765625,-0.15234375,0.943359375
2203,0.1181640625,-0.1806640625,0.9423828125
2204,0.1044921875,-0.2109375,0.9365234375
2205,0.099609375,-0.22265625,0.935546875
2206,0.0908203125,-0.2275390625,0.951171875
2207,0.083984375,-0.224609375,0.9541015625
2208,0.07421875,-0.2109375,0.9453125
2209,0.072265625,-0.1796875,0.943359375
2210,0.0712890625,-0.150390625,0.9482421875
2211,0.060546875,-0.12109375,0.94921875
2212,0.0673828125,-0.076171875,0.95703125
2213,0.0673828125,-0.0390625,0.9794921875
2214,0.08203125,-0.0087890625,0.986328125
2215,0.0869140625,0.0205078125,1.0029296875
2216,0.109375,0.0380859375,1.013671875
2217,0.12109375,0.05078125,1.0341796875
2218,0.12109375,0.0546875,1.0361328125
2219,0.1259765625,0.05078125,1.044921875
2220,0.126953125,0.04296875,1.0400390625
2221,0.12890625,0.02734375,1.0390625
2222,0.1318359375,0.017578125,1.037109375
2223,0.130859375,0.00390625,1.03125
2224,0.125,-0.01171875,1.0302734375
2225,0.115234375,-0.0283203125,1.017578125
2226,0.107421875,-0.0478515625,1.0068359375
2227,0.1025390625,-0.0537109375,1.0
2228,0.09765625,-0.0732421875,0.9931640625
2229,0.095703125,-0.07421875,0.97265625
2230,0.091796875,-0.0869140625,0.9794921875
2231,0.091796875,-0.0947265625,0.9716796875
2232,0.0966796875,-0.09765625,0.9716796875
2233,0.09765625,-0.1123046875,0.974609375
2234,0.10546875,-0.1044921875,0.9775390625
2235,0.107421875,-0.1064453125,0.98046875
2236,0.11328125,-0.1083984375,0.982421875
2237,0.1181640625,-0.1044921875,0.9833984375
2238,0.1201171875,-0.1044921875,0.9775390625
2239,0.1201171875,-0.10546875,0.96875
2240,0.115234375,-0.1025390625,0.9638671875
2241,0.115234375,-0.095703125,0.9619140625
2242,0.1162109375,-0.1015625,0.9599609375
2243,0.12109375,-0.1005859375,0.9599609375
2244,0.11328125,-0.1064453125,0.955078125
2245,0.1142578125,-0.1171875,0.947265625
2246,0.111328125,-0.1337890625,0.9404296875
2247,0.111328125,-0.158203125,0.9384765625
2248,0.103515625,-0.1787109375,0.9345703125
2249,0.09375,-0.1943359375,0.9423828125
2250,0.091796875,-0.2041015625,0.9453125
2251,0.0859375,-0.1923828125,0.95703125
2252,0.0830078125,-0.185546875,0.966796875
2253,0.0771484375,-0.1669921875,0.9736328125
2254,0.0751953125,-0.1376953125,0.9755859375
2255,0.072265625,-0.11328125,0.982421875
2256,0.07421875,-0.0869140625,0.9833984375
2257,0.083984375,-0.05078125,0.9775390625
2258,0.0869140625,-0.0185546875,0.9677734375
2259,0.087890625,0.0107421875,0.97265625
2260,0.0966796875,0.03125,0.9794921875
2261,0.0947265625,0.04296875,0.98828125
2262,0.1123046875,0.0458984375,1.00390625
2263,0.12109375,0.0419921875,1.0166015625
2264,0.1181640625,0.025390625,1.0185546875
2265,0.1181640625,0.0087890625,1.015625
2266,0.1220703125,-0.001953125,1.015625
2267,0.1240234375,-0.0205078125,1.01171875
2268,0.123046875,-0.0341796875,1.0078125
2269,0.1201171875,-0.0400390625,1.005859375
2270,0.12109375,-0.0537109375,1.0029296875
2271,0.1162109375,-0.0615234375,0.9990234375
2272,0.1181640625,-0.0712890625,0.98828125
2273,0.1162109375,-0.0693359375,0.98046875
2274,0.1103515625,-0.072265625,0.9755859375
2275,0.11328125,-0.0732421875,0.974609375
2276,0.1083984375,-0.072265625,0.96875
2277,0.1083984375,-0.078125,0.970703125
2278,0.1044921875,-0.08203125,0.9736328125
2279,0.1103515625,-0.087890625,0.9765625
2280,0.1220703125,-0.0888671875,0.982421875
2281,0.1162109375,-0.0908203125,0.9853515625
2282,0.126953125,-0.0927734375,0.998046875
2283,0.1279296875,-0.095703125,0.998046875
2284,0.1259765625,-0.0947265625,0.990234375
2285,0.126953125,-0.08984375,0.984375
2286,0.123046875,-0.0888671875,0.9736328125
2287,0.119140625,-0.0859375,0.9638671875
2288,0.1171875,-0.078125,0.9638671875
2289,0.1162109375,-0.0751953125,0.9541015625
2290,0.111328125,-0.078125,0.9599609375
2291,0.1083984375,-0.08984375,0.9619140625
2292,0.109375,-0.1025390625,0.958984375
2293,0.111328125,-0.123046875,0.9599609375
2294,0.1083984375,-0.134765625,0.96484375
2295,0.103515625,-0.158203125,0.9609375
2296,0.0986328125,-0.173828125,0.958984375
2297,0.09765625,-0.1845703125,0.95703125
2298,0.095703125,-0.197265625,0.9609375
2299,0.0859375,-0.19921875,0.970703125
2300,0.0869140625,-0.1884765625,0.978515625
2301,0.0830078125,-0.169921875,0.9775390625
2302,0.0859375,-0.1416015625,0.9794921875
2303,0.0869140625,-0.11328125,0.984375
2304,0.0869140625,-0.072265625,0.9931640625
2305,0.08984375,-0.0322265625,0.9970703125
2306,0.091796875,0.0048828125,1.0029296875
2307,0.0966796875,0.0400390625,1.0029296875
2308,0.0966796875,0.0654296875,1.0068359375
2309,0.095703125,0.0771484375,1.0009765625
2310,0.1171875,0.0888671875,1.005859375
2311,0.12109375,0.080078125,1.009765625
2312,0.1240234375,0.072265625,1.005859375
2313,0.1259765625,0.0546875,1.009765625
2314,0.126953125,0.0341796875,1.009765625
2315,0.1259765625,0.015625,1.0107421875
2316,0.1279296875,-0.005859375,1.005859375
2317,0.1298828125,-0.0234375,1.0068359375
2318,0.12109375,-0.0390625,0.998046875
2319,0.1201171875,-0.0517578125,0.9970703125
2320,0.115234375,-0.05859375,0.994140625
2321,0.1162109375,-0.060546875,0.9892578125
2322,0.119140625,-0.064453125,0.9892578125
2323,0.109375,-0.06640625,0.9873046875
2324,0.1142578125,-0.0732421875,0.9853515625
2325,0.1201171875,-0.0712890625,0.98828125
2326,0.11328125,-0.0791015625,0.9873046875
2327,0.1162109375,-0.0810546875,0.990234375
2328,0.123046875,-0.09375,0.986328125
2329,0.1171875,-0.0849609375,0.9921875
2330,0.119140625,-0.083984375,0.9873046875
2331,0.115234375,-0.0859375,0.9912109375
2332,0.11328125,-0.080078125,0.9833984375
2333,0.115234375,-0.080078125,0.9853515625
2334,0.1123046875,-0.0791015625,0.9833984375
2335,0.107421875,-0.078125,0.9755859375
2336,0.111328125,-0.0859375,0.9697265625
2337,0.111328125,-0.095703125,0.966796875
2338,0.1005859375,-0.1142578125,0.9619140625
2339,0.1015625,-0.1318359375,0.958984375
2340,0.1015625,-0.150390625,0.9677734375
2341,0.095703125,-0.1650390625,0.96484375
2342,0.091796875,-0.173828125,0.9716796875
2343,0.0908203125,-0.16796875,0.9736328125
2344,0.0849609375,-0.15625,0.978515625
2345,0.09375,-0.138671875,0.9765625
2346,0.0888671875,-0.109375,0.9755859375
2347,0.091796875,-0.0791015625,0.978515625
2348,0.08984375,-0.0400390625,0.982421875
2349,0.091796875,-0.0126953125,0.9794921875
2350,0.09375,0.0185546875,0.98046875
2351,0.09765625,0.0439453125,0.9814453125
2352,0.1103515625,0.0634765625,0.984375
2353,0.1162109375,0.0693359375,0.984375
2354,0.1171875,0.0654296875,0.9921875
2355,0.1181640625,0.0576171875,1.00390625
2356,0.12109375,0.044921875,1.005859375
2357,0.123046875,0.0224609375,1.0107421875
2358,0.12109375,0.005859375,1.0107421875
2359,0.115234375,-0.005859375,1.01171875
2360,0.11328125,-0.0234375,1.009765625
2361,0.107421875,-0.04296875,1.0029296875
2362,0.1083984375,-0.0556640625,1.001953125
2363,0.10546875,-0.0703125,0.9921875
2364,0.1015625,-0.0751953125,0.98046875
2365,0.103515625,-0.0791015625,0.9736328125
2366,0.1025390625,-0.0810546875,0.9658203125
2367,0.103515625,-0.0849609375,0.9619140625
2368,0.1044921875,-0.0869140625,0.9736328125
2369,0.107421875,-0.0888671875,0.9775390625
2370,0.109375,-0.09375,0.982421875
2371,0.111328125,-0.0849609375,0.9931640625
2372,0.1142578125,-0.080078125,1.001953125
2373,0.1171875,-0.0791015625,1.0078125
2374,0.1162109375,-0.076171875,1.0126953125
2375,0.11328125,-0.0634765625,1.009765625
2376,0.1123046875,-0.0634765625,1.001953125
2377,0.1123046875,-0.0595703125,1.0029296875
2378,0.1083984375,-0.05859375,0.9990234375
2379,0.1025390625,-0.0625,0.9921875
2380,0.099609375,-0.0693359375,0.986328125
2381,0.095703125,-0.072265625,0.9814453125
2382,0.09375,-0.083984375,0.9814453125
2383,0.09765625,-0.09375,0.9736328125
2384,0.0908203125,-0.09765625,0.9736328125
2385,0.09375,-0.1005859375,0.9697265625
2386,0.095703125,-0.1025390625,0.9677734375
2387,0.0908203125,-0.1025390625,0.9599609375
2388,0.09375,-0.1005859375,0.9599609375
2389,0.0966796875,-0.0927734375,0.9599609375
2390,0.095703125,-0.0849609375,0.958984375
2391,0.099609375,-0.0810546875,0.9580078125
2392,0.1015625,-0.0703125,0.962890625
2393,0.1015625,-0.0615234375,0.966796875
2394,0.10546875,-0.0625,0.9697265625
2395,0.0986328125,-0.0576171875,0.970703125
2396,0.103515625,-0.052734375,0.98046875
2397,0.1044921875,-0.046875,0.9814453125
2398,0.1005859375,-0.048828125,0.9833984375
2399,0.099609375,-0.052734375,0.982421875
2400,0.1015625,-0.05859375,0.986328125
2401,0.1025390625,-0.060546875,0.982421875
2402,0.0966796875,-0.0634765625,0.9833984375
2403,0.0947265625,-0.0693359375,0.982421875
2404,0.0966796875,-0.072265625,0.982421875
2405,0.0966796875,-0.0771484375,0.982421875
2406,0.095703125,-0.080078125,0.984375
2407,0.1015625,-0.08203125,0.9765625
2408,0.103515625,-0.0810546875,0.98046875
2409,0.09765625,-0.0849609375,0.978515625
2410,0.0986328125,-0.078125,0.9794921875
2411,0.09765625,-0.072265625,0.9833984375
2412,0.0986328125,-0.0712890625,0.98046875
2413,0.10546875,-0.06640625,0.9775390625
2414,0.10546875,-0.0625,0.9853515625
2415,0.1015625,-0.05859375,0.98828125
2416,0.107421875,-0.0576171875,0.9892578125
2417,0.107421875,-0.052734375,0.9873046875
2418,0.11328125,-0.0576171875,0.990234375
2419,0.111328125,-0.0546875,0.990234375
2420,0.099609375,-0.05078125,0.9912109375
2421,0.111328125,-0.052734375,0.9931640625
2422,0.1162109375,-0.0537109375,0.9931640625
2423,0.1142578125,-0.05859375,0.990234375
2424,0.103515625,-0.056640625,0.9951171875
2425,0.1015625,-0.0625,0.9912109375
2426,0.1044921875,-0.0576171875,0.994140625
2427,0.10546875,-0.064453125,0.990234375
2428,0.10546875,-0.0634765625,0.9853515625
2429,0.103515625,-0.0625,0.9833984375
2430,0.1015625,-0.0625,0.984375
2431,0.1103515625,-0.0615234375,0.98046875
2432,0.1064453125,-0.060546875,0.98046875
2433,0.103515625,-0.0537109375,0.9794921875
2434,0.103515625,-0.05859375,0.9833984375
2435,0.107421875,-0.0556640625,0.978515625
2436,0.109375,-0.0498046875,0.9833984375
2437,0.103515625,-0.0546875,0.9833984375
2438,0.1083984375,-0.0498046875,0.982421875
2439,0.1005859375,-0.0498046875,0.9794921875
2440,0.10546875,-0.0478515625,0.982421875
2441,0.103515625,-0.046875,0.982421875
2442,0.107421875,-0.048828125,0.9833984375
2443,0.1083984375,-0.052734375,0.9853515625
2444,0.109375,-0.052734375,0.9873046875
2445,0.1015625,-0.052734375,0.990234375
2446,0.111328125,-0.0546875,0.98828125
2447,0.11328125,-0.0595703125,0.9931640625
2448,0.107421875,-0.0546875,0.99609375
2449,0.1123046875,-0.0595703125,0.98828125
2450,0.1103515625,-0.0556640625,0.982421875
2451,0.1064453125,-0.0595703125,0.982421875
2452,0.103515625,-0.05859375,0.9833984375
2453,0.1025390625,-0.0546875,0.9833984375
2454,0.109375,-0.056640625,0.98046875
2455,0.1142578125,-0.05078125,0.9833984375
2456,0.1025390625,-0.0517578125,0.9814453125
2457,0.107421875,-0.0537109375,0.9833984375
2458,0.1083984375,-0.0517578125,0.978515625
2459,0.10546875,-0.046875,0.9833984375
2460,0.1025390625,-0.046875,0.982421875
2461,0.107421875,-0.0439453125,0.982421875
2462,0.103515625,-0.0400390625,0.986328125
2463,0.10546875,-0.03515625,0.984375
2464,0.1015625,-0.0380859375,0.984375
2465,0.1044921875,-0.0390625,0.9833984375
2466,0.1005859375,-0.037109375,0.9873046875
2467,0.103515625,-0.0341796875,0.9921875
2468,0.103515625,-0.037109375,0.990234375
2469,0.103515625,-0.037109375,0.984375
2470,0.10546875,-0.0400390625,0.9912109375
2471,0.107421875,-0.03515625,0.9912109375
2472,0.1005859375,-0.0380859375,0.98828125
2473,0.111328125,-0.0400390625,0.990234375
2474,0.1064453125,-0.044921875,0.98046875
2475,0.103515625,-0.0361328125,0.986328125
2476,0.1015625,-0.0400390625,0.986328125
2477,0.109375,-0.037109375,0.9853515625
2478,0.1025390625,-0.0361328125,0.9833984375
2479,0.1005859375,-0.0380859375,0.9794921875
2480,0.0986328125,-0.0390625,0.978515625
2481,0.103515625,-0.0341796875,0.9794921875
2482,0.1025390625,-0.0400390625,0.978515625
2483,0.1025390625,-0.044921875,0.9765625
2484,0.1005859375,-0.044921875,0.9794921875
2485,0.09375,-0.037109375,0.9775390625
2486,0.1005859375,-0.0390625,0.982421875
2487,0.1103515625,-0.0380859375,0.9873046875
2488,0.103515625,-0.0380859375,0.98828125
2489,0.1083984375,-0.0390625,0.982421875
2490,0.103515625,-0.033203125,0.9853515625
2491,0.1142578125,-0.033203125,0.9873046875
2492,0.1083984375,-0.0302734375,0.9873046875
2493,0.11328125,-0.03515625,0.9892578125
2494,0.11328125,-0.033203125,0.986328125
2495,0.1123046875,-0.0361328125,0.98828125
2496,0.11328125,-0.0390625,0.98828125
2497,0.1142578125,-0.0361328125,0.9853515625
2498,0.11328125,-0.0341796875,0.9892578125
2499,0.1103515625,-0.0400390625,0.986328125
2500,0.11328125,-0.0380859375,0.9873046875
2501,0.11328125,-0.0361328125,0.98828125
2502,0.1142578125,-0.03515625,0.9853515625
2503,0.103515625,-0.0341796875,0.984375
2504,0.115234375,-0.0380859375,0.982421875
2505,0.1083984375,-0.0341796875,0.9814453125
2506,0.109375,-0.0302734375,0.9853515625
2507,0.1123046875,-0.0322265625,0.9833984375
2508,0.1142578125,-0.02734375,0.986328125
2509,0.115234375,-0.025390625,0.9892578125
2510,0.1103515625,-0.02734375,0.98828125
2511,0.115234375,-0.025390625,0.994140625
2512,0.119140625,-0.0244140625,0.99609375
2513,0.1103515625,-0.0244140625,0.9892578125
2514,0.1142578125,-0.0234375,0.990234375
2515,0.115234375,-0.01953125,0.9912109375
2516,0.1142578125,-0.0224609375,0.990234375
2517,0.10546875,-0.0166015625,0.99609375
2518,0.1083984375,-0.0146484375,0.9873046875
2519,0.1123046875,-0.015625,0.9912109375
2520,0.11328125,-0.0107421875,0.9912109375
2521,0.109375,-0.0126953125,0.98828125
2522,0.111328125,-0.015625,0.990234375
2523,0.109375,-0.015625,0.990234375
2524,0.1142578125,-0.0166015625,0.9892578125
2525,0.11328125,-0.013671875,0.98828125
2526,0.1142578125,-0.017578125,0.986328125
2527,0.111328125,-0.0185546875,0.9853515625
2528,0.11328125,-0.0166015625,0.990234375
2529,0.1142578125,-0.0185546875,0.986328125
2530,0.1142578125,-0.01953125,0.9892578125
2531,0.1103515625,-0.0224609375,0.98828125
2532,0.119140625,-0.0166015625,0.986328125
2533,0.1171875,-0.021484375,0.982421875
2534,0.11328125,-0.0205078125,0.9814453125
2535,0.1181640625,-0.0185546875,0.9853515625
2536,0.1201171875,-0.0146484375,0.984375
2537,0.1171875,-0.01953125,0.9873046875
2538,0.115234375,-0.01953125,0.9833984375
2539,0.1181640625,-0.015625,0.9892578125
2540,0.1142578125,-0.0185546875,0.9853515625
2541,0.111328125,-0.021484375,0.986328125
2542,0.1162109375,-0.021484375,0.9873046875
2543,0.111328125,-0.0205078125,0.9892578125
2544,0.1162109375,-0.0234375,0.9833984375
2545,0.1171875,-0.0234375,0.9853515625
2546,0.1142578125,-0.0244140625,0.982421875
2547,0.1123046875,-0.0302734375,0.98046875
2548,0.1162109375,-0.0224609375,0.9853515625
2549,0.1123046875,-0.0234375,0.9853515625
2550,0.115234375,-0.02734375,0.986328125
2551,0.1142578125,-0.0234375,0.9853515625
2552,0.1162109375,-0.0244140625,0.9833984375
2553,0.1142578125,-0.0234375,0.9833984375
2554,0.1142578125,-0.021484375,0.9873046875
2555,0.1201171875,-0.017578125,0.98828125
2556,0.1142578125,-0.0234375,0.9912109375
2557,0.1220703125,-0.021484375,0.9873046875
2558,0.1171875,-0.0205078125,0.98828125
2559,0.115234375,-0.0224609375,0.984375
2560,0.1201171875,-0.0234375,0.984375
2561,0.115234375,-0.0205078125,0.9853515625
2562,0.1181640625,-0.0224609375,0.9853515625
2563,0.1181640625,-0.0244140625,0.9833984375
2564,0.1181640625,-0.0234375,0.98046875
2565,0.119140625,-0.0244140625,0.984375
2566,0.1162109375,-0.0234375,0.9833984375
2567,0.1162109375,-0.0234375,0.9814453125
2568,0.1162109375,-0.0224609375,0.9833984375
2569,0.1171875,-0.0234375,0.9814453125
2570,0.1171875,-0.025390625,0.982421875
2571,0.12109375,-0.0205078125,0.9833984375
2572,0.1083984375,-0.0166015625,0.9833984375
2573,0.1162109375,-0.021484375,0.986328125
2574,0.11328125,-0.015625,0.986328125
2575,0.123046875,-0.0263671875,0.984375
2576,0.123046875,-0.0205078125,0.9833984375
2577,0.119140625,-0.0166015625,0.986328125
2578,0.1162109375,-0.015625,0.9912109375
2579,0.1181640625,-0.0224609375,0.990234375
2580,0.1181640625,-0.0126953125,0.9951171875
2581,0.1162109375,-0.017578125,0.994140625
2582,0.115234375,-0.021484375,0.9873046875
2583,0.1162109375,-0.0205078125,0.9892578125
2584,0.1259765625,-0.0205078125,0.990234375
2585,0.119140625,-0.0166015625,0.99609375
2586,0.12109375,-0.0205078125,0.98828125
2587,0.1171875,-0.025390625,0.990234375
2588,0.12109375,-0.021484375,0.9892578125
2589,0.119140625,-0.0244140625,0.9892578125
2590,0.1181640625,-0.017578125,0.990234375
2591,0.123046875,-0.01953125,0.9853515625
2592,0.123046875,-0.0224609375,0.9814453125
2593,0.1142578125,-0.0166015625,0.982421875
2594,0.1171875,-0.0263671875,0.9814453125
2595,0.1171875,-0.02734375,0.9814453125
2596,0.1220703125,-0.0244140625,0.982421875
2597,0.1220703125,-0.0283203125,0.9892578125
2598,0.1201171875,-0.03125,0.9853515625
2599,0.1201171875,-0.0322265625,0.984375
2600,0.123046875,-0.03125,0.9794921875
2601,0.125,-0.03125,0.978515625
2602,0.12109375,-0.0263671875,0.9775390625
2603,0.12109375,-0.02734375,0.9765625
2604,0.119140625,-0.0244140625,0.98046875
2605,0.1220703125,-0.021484375,0.98828125
2606,0.1162109375,-0.0234375,0.9853515625
2607,0.1240234375,-0.0205078125,0.98828125
2608,0.11328125,-0.021484375,0.9853515625
2609,0.1171875,-0.021484375,0.986328125
2610,0.1171875,-0.0234375,0.98828125
2611,0.1181640625,-0.017578125,0.986328125
2612,0.12109375,-0.017578125,0.9853515625
2613,0.1240234375,-0.0126953125,0.9892578125
2614,0.1181640625,-0.0107421875,0.98828125
2615,0.1201171875,-0.01171875,0.9853515625
2616,0.1201171875,-0.013671875,0.990234375
2617,0.1171875,-0.0146484375,0.9912109375
2618,0.1220703125,-0.015625,0.9931640625
2619,0.123046875,-0.0185546875,0.9892578125
2620,0.1142578125,-0.021484375,0.9921875
2621,0.119140625,-0.0205078125,0.98828125
2622,0.119140625,-0.0224609375,0.9921875
2623,0.119140625,-0.0224609375,0.9873046875
2624,0.119140625,-0.02734375,0.9892578125
2625,0.115234375,-0.0263671875,0.9912109375
2626,0.1201171875,-0.0263671875,0.9873046875
2627,0.115234375,-0.025390625,0.984375
2628,0.1162109375,-0.029296875,0.98828125
2629,0.1181640625,-0.0263671875,0.984375
2630,0.1201171875,-0.0205078125,0.9833984375
2631,0.119140625,-0.0224609375,0.982421875
2632,0.1220703125,-0.0205078125,0.9833984375
2633,0.1201171875,-0.01953125,0.986328125
2634,0.119140625,-0.0205078125,0.984375
2635,0.119140625,-0.0224609375,0.9833984375
2636,0.1171875,-0.017578125,0.9873046875
2637,0.12109375,-0.0185546875,0.9853515625
2638,0.1171875,-0.01953125,0.9853515625
2639,0.1171875,-0.0224609375,0.9892578125
2640,0.1171875,-0.0205078125,0.986328125
2641,0.1171875,-0.0205078125,0.9814453125
2642,0.119140625,-0.025390625,0.982421875
2643,0.1220703125,-0.0234375,0.982421875
2644,0.119140625,-0.0224609375,0.9814453125
2645,0.1171875,-0.0234375,0.9814453125
2646,0.1220703125,-0.01953125,0.9833984375
2647,0.125,-0.0224609375,0.9814453125
2648,0.1201171875,-0.021484375,0.9833984375
2649,0.123046875,-0.0234375,0.98046875
2650,0.12109375,-0.0205078125,0.982421875
2651,0.1171875,-0.0185546875,0.9814453125
2652,0.1220703125,-0.0234375,0.9833984375
2653,0.1181640625,-0.0205078125,0.9873046875
2654,0.12109375,-0.025390625,0.9892578125
2655,0.1201171875,-0.0244140625,0.9833984375
2656,0.1162109375,-0.03125,0.98828125
2657,0.12109375,-0.0234375,0.986328125
2658,0.12109375,-0.0234375,0.98046875
2659,0.123046875,-0.0244140625,0.9853515625
2660,0.1220703125,-0.025390625,0.986328125
2661,0.1220703125,-0.0244140625,0.9873046875
2662,0.123046875,-0.025390625,0.9833984375
2663,0.1201171875,-0.0244140625,0.984375
2664,0.1181640625,-0.0234375,0.9873046875
2665,0.119140625,-0.0244140625,0.9853515625
2666,0.119140625,-0.0244140625,0.984375
2667,0.119140625,-0.0205078125,0.9853515625
2668,0.12109375,-0.0205078125,0.98828125
2669,0.1201171875,-0.0224609375,0.9833984375
2670,0.119140625,-0.0224609375,0.9853515625
2671,0.1162109375,-0.0234375,0.982421875
2672,0.115234375,-0.025390625,0.9833984375
2673,0.1181640625,-0.0244140625,0.984375
2674,0.111328125,-0.021484375,0.9873046875
2675,0.1181640625,-0.017578125,0.9853515625
2676,0.111328125,-0.0234375,0.9833984375
2677,0.115234375,-0.0244140625,0.984375
2678,0.11328125,-0.0234375,0.982421875
2679,0.1162109375,-0.0263671875,0.986328125
2680,0.1181640625,-0.0224609375,0.9912109375
2681,0.115234375,-0.0234375,0.9853515625
2682,0.1171875,-0.0224609375,0.990234375
2683,0.1162109375,-0.021484375,0.98828125
2684,0.1201171875,-0.0234375,0.9853515625
2685,0.1123046875,-0.0224609375,0.98828125
2686,0.1162109375,-0.0244140625,0.986328125
2687,0.1201171875,-0.01953125,0.986328125
2688,0.12109375,-0.0234375,0.986328125
2689,0.1220703125,-0.025390625,0.9853515625
2690,0.115234375,-0.0244140625,0.9873046875
2691,0.123046875,-0.0234375,0.984375
2692,0.1201171875,-0.021484375,0.984375
2693,0.1162109375,-0.021484375,0.9853515625
2694,0.1162109375,-0.0244140625,0.984375
2695,0.115234375,-0.0244140625,0.984375
2696,0.1162109375,-0.025390625,0.982421875
2697,0.119140625,-0.025390625,0.982421875
2698,0.115234375,-0.021484375,0.9853515625
2699,0.119140625,-0.01953125,0.9873046875
2700,0.1220703125,-0.0244140625,0.9892578125
2701,0.115234375,-0.0263671875,0.9814453125
2702,0.1171875,-0.0224609375,0.9833984375
2703,0.115234375,-0.0244140625,0.984375
2704,0.1181640625,-0.0166015625,0.984375
2705,0.1142578125,-0.0224609375,0.986328125
2706,0.1171875,-0.0205078125,0.98828125
2707,0.1201171875,-0.0234375,0.990234375
2708,0.1181640625,-0.01953125,0.984375
2709,0.1171875,-0.025390625,0.9912109375
2710,0.1142578125,-0.0244140625,0.984375
2711,0.119140625,-0.021484375,0.986328125
2712,0.115234375,-0.0244140625,0.98828125
2713,0.1201171875,-0.0205078125,0.984375
2714,0.1181640625,-0.0244140625,0.98046875
2715,0.1181640625,-0.0234375,0.986328125
2716,0.1162109375,-0.0244140625,0.9853515625
2717,0.123046875,-0.0244140625,0.9833984375
2718,0.119140625,-0.025390625,0.9853515625
2719,0.12109375,-0.0205078125,0.9892578125
2720,0.1162109375,-0.01953125,0.9853515625
2721,0.1181640625,-0.0224609375,0.9853515625
2722,0.115234375,-0.0224609375,0.9833984375
2723,0.12109375,-0.0234375,0.9833984375
2724,0.1201171875,-0.0205078125,0.984375
2725,0.125,-0.0234375,0.9853515625
2726,0.1181640625,-0.0244140625,0.984375
2727,0.123046875,-0.021484375,0.984375
2728,0.119140625,-0.0224609375,0.986328125
2729,0.119140625,-0.0224609375,0.990234375
2730,0.12109375,-0.0234375,0.984375
2731,0.1171875,-0.025390625,0.9892578125
2732,0.1220703125,-0.0244140625,0.9873046875
2733,0.115234375,-0.0263671875,0.9892578125
2734,0.1220703125,-0.0244140625,0.9892578125
2735,0.1220703125,-0.0234375,0.9873046875
2736,0.119140625,-0.021484375,0.984375
2737,0.1201171875,-0.0234375,0.9833984375
2738,0.119140625,-0.021484375,0.9853515625
2739,0.1162109375,-0.021484375,0.990234375
2740,0.1171875,-0.0263671875,0.98828125
2741,0.1181640625,-0.0244140625,0.98828125
2742,0.1171875,-0.02734375,0.98828125
2743,0.1162109375,-0.0244140625,0.986328125
2744,0.119140625,-0.0224609375,0.984375
2745,0.115234375,-0.0224609375,0.990234375
2746,0.1162109375,-0.0224609375,0.9833984375
2747,0.1103515625,-0.025390625,0.98046875
2748,0.1162109375,-0.0244140625,0.9833984375
2749,0.125,-0.0234375,0.9853515625
2750,0.1201171875,-0.0234375,0.9833984375
2751,0.12109375,-0.0244140625,0.9833984375
2752,0.1220703125,-0.0263671875,0.9833984375
2753,0.12109375,-0.0166015625,0.9833984375
2754,0.1240234375,-0.021484375,0.9873046875
2755,0.1279296875,-0.0283203125,0.990234375
2756,0.119140625,-0.029296875,0.986328125
2757,0.1240234375,-0.025390625,0.9853515625
2758,0.119140625,-0.029296875,0.98828125
2759,0.123046875,-0.0283203125,0.9833984375
2760,0.1162109375,-0.03125,0.9833984375
2761,0.1162109375,-0.02734375,0.9794921875
2762,0.1162109375,-0.033203125,0.9765625
2763,0.1181640625,-0.025390625,0.978515625
2764,0.1142578125,-0.033203125,0.98046875
2765,0.1162109375,-0.0302734375,0.982421875
2766,0.1171875,-0.0283203125,0.9853515625
2767,0.1123046875,-0.029296875,0.9794921875
2768,0.1142578125,-0.0302734375,0.982421875
2769,0.115234375,-0.02734375,0.9833984375
2770,0.115234375,-0.03125,0.9853515625
2771,0.115234375,-0.0185546875,0.982421875
2772,0.1171875,-0.0224609375,0.9814453125
2773,0.1181640625,-0.01953125,0.9873046875
2774,0.1171875,-0.01953125,0.9873046875
2775,0.1162109375,-0.01953125,0.986328125
2776,0.1220703125,-0.013671875,0.982421875
2777,0.1181640625,-0.015625,0.9912109375
2778,0.12109375,-0.0146484375,0.9931640625
2779,0.1181640625,-0.0244140625,0.98828125
2780,0.1162109375,-0.0185546875,0.9873046875
2781,0.1201171875,-0.025390625,0.98828125
2782,0.115234375,-0.03125,0.990234375
2783,0.1171875,-0.0283203125,0.98828125
2784,0.11328125,-0.0263671875,0.986328125
2785,0.115234375,-0.02734375,0.984375
2786,0.1123046875,-0.0244140625,0.98828125
2787,0.1123046875,-0.0302734375,0.9853515625
2788,0.1123046875,-0.0234375,0.984375
2789,0.1123046875,-0.0263671875,0.9833984375
2790,0.115234375,-0.0263671875,0.982421875
2791,0.11328125,-0.0263671875,0.98828125
2792,0.1025390625,-0.025390625,0.982421875
2793,0.11328125,-0.0263671875,0.982421875
2794,0.115234375,-0.0263671875,0.984375
2795,0.1142578125,-0.0244140625,0.9833984375
2796,0.115234375,-0.0263671875,0.9833984375
2797,0.1142578125,-0.025390625,0.9873046875
2798,0.11328125,-0.0224609375,0.98828125
2799,0.1171875,-0.0244140625,0.9853515625
2800,0.1162109375,-0.025390625,0.9873046875
2801,0.1123046875,-0.021484375,0.9873046875
2802,0.115234375,-0.0263671875,0.984375
2803,0.119140625,-0.0263671875,0.986328125
2804,0.11328125,-0.0263671875,0.984375
2805,0.1142578125,-0.0234375,0.986328125
2806,0.1162109375,-0.0244140625,0.984375
2807,0.1220703125,-0.0263671875,0.984375
2808,0.11328125,-0.0244140625,0.9853515625
2809,0.1123046875,-0.02734375,0.984375
2810,0.115234375,-0.025390625,0.98046875
2811,0.1181640625,-0.0205078125,0.984375
2812,0.1162109375,-0.0234375,0.9853515625
2813,0.1201171875,-0.01953125,0.98046875
2814,0.119140625,-0.0205078125,0.984375
2815,0.1162109375,-0.0185546875,0.98828125
2816,0.1171875,-0.021484375,0.9912109375
2817,0.115234375,-0.0185546875,0.9873046875
2818,0.1181640625,-0.0205078125,0.984375
2819,0.1171875,-0.0205078125,0.990234375
2820,0.1201171875,-0.0224609375,0.9892578125
2821,0.119140625,-0.025390625,0.9912109375
2822,0.1201171875,-0.02734375,0.9892578125
