,accelerometerAccelerationX(G),accelerometerAccelerationY(G),accelerometerAccelerationZ(G)
0,0.1298828125,-0.9375,-0.2490234375
1,0.130859375,-0.9404296875,-0.2490234375
2,0.130859375,-0.9404296875,-0.248046875
3,0.1337890625,-0.9423828125,-0.2451171875
4,0.1357421875,-0.9345703125,-0.248046875
5,0.1357421875,-0.9384765625,-0.244140625
6,0.1396484375,-0.939453125,-0.2490234375
7,0.1455078125,-0.9365234375,-0.2470703125
8,0.1435546875,-0.9326171875,-0.244140625
9,0.146484375,-0.935546875,-0.2490234375
10,0.1513671875,-0.927734375,-0.24609375
11,0.1494140625,-0.9306640625,-0.244140625
12,0.1455078125,-0.92578125,-0.244140625
13,0.1533203125,-0.9287109375,-0.23828125
14,0.1572265625,-0.9287109375,-0.2353515625
15,0.154296875,-0.9306640625,-0.232421875
16,0.1552734375,-0.931640625,-0.236328125
17,0.15625,-0.9296875,-0.2333984375
18,0.1494140625,-0.9375,-0.2333984375
19,0.1494140625,-0.9384765625,-0.2265625
20,0.15234375,-0.9365234375,-0.224609375
21,0.154296875,-0.9384765625,-0.224609375
22,0.15234375,-0.943359375,-0.2216796875
23,0.1455078125,-0.9404296875,-0.220703125
24,0.1484375,-0.9375,-0.2197265625
25,0.150390625,-0.939453125,-0.2216796875
26,0.1396484375,-0.9345703125,-0.224609375
27,0.130859375,-0.9404296875,-0.2177734375
28,0.1328125,-0.9365234375,-0.21875
29,0.1279296875,-0.9375,-0.2158203125
30,0.123046875,-0.9423828125,-0.2275390625
31,0.123046875,-0.9453125,-0.23046875
32,0.126953125,-0.943359375,-0.232421875
33,0.125,-0.9375,-0.23046875
34,0.1298828125,-0.939453125,-0.2353515625
35,0.1337890625,-0.9365234375,-0.2314453125
36,0.1357421875,-0.9365234375,-0.22265625
37,0.1376953125,-0.9345703125,-0.220703125
38,0.1416015625,-0.9365234375,-0.224609375
39,0.1533203125,-0.9365234375,-0.2216796875
40,0.16015625,-0.939453125,-0.216796875
41,0.1591796875,-0.931640625,-0.2177734375
42,0.1689453125,-0.9345703125,-0.21484375
43,0.177734375,-0.93359375,-0.21484375
44,0.177734375,-0.9384765625,-0.2158203125
45,0.1875,-0.9345703125,-0.2138671875
46,0.1845703125,-0.9365234375,-0.2080078125
47,0.1796875,-0.9384765625,-0.205078125
48,0.1748046875,-0.939453125,-0.203125
49,0.169921875,-0.9375,-0.1904296875
50,0.16796875,-0.9375,-0.1884765625
51,0.1630859375,-0.9375,-0.1787109375
52,0.1533203125,-0.9375,-0.177734375
53,0.1416015625,-0.9453125,-0.1708984375
54,0.1337890625,-0.94921875,-0.1611328125
55,0.12109375,-0.9482421875,-0.15625
56,0.1142578125,-0.9453125,-0.1552734375
57,0.1044921875,-0.943359375,-0.15625
58,0.1064453125,-0.9521484375,-0.166015625
59,0.1025390625,-0.9482421875,-0.1640625
60,0.0986328125,-0.9560546875,-0.169921875
61,0.1025390625,-0.958984375,-0.171875
62,0.107421875,-0.9697265625,-0.1787109375
63,0.1123046875,-0.974609375,-0.177734375
64,0.1142578125,-0.9677734375,-0.177734375
65,0.125,-0.9697265625,-0.1796875
66,0.12890625,-0.96484375,-0.1826171875
67,0.1337890625,-0.95703125,-0.17578125
68,0.134765625,-0.9599609375,-0.1728515625
69,0.138671875,-0.955078125,-0.177734375
70,0.140625,-0.951171875,-0.171875
71,0.138671875,-0.9443359375,-0.1728515625
72,0.1318359375,-0.9404296875,-0.17578125
73,0.134765625,-0.935546875,-0.1845703125
74,0.12890625,-0.9326171875,-0.1962890625
75,0.1328125,-0.9287109375,-0.203125
76,0.1337890625,-0.931640625,-0.2158203125
77,0.1328125,-0.9306640625,-0.21875
78,0.1337890625,-0.9345703125,-0.228515625
79,0.1328125,-0.931640625,-0.2333984375
80,0.1357421875,-0.927734375,-0.234375
81,0.130859375,-0.93359375,-0.2353515625
82,0.126953125,-0.92578125,-0.2373046875
83,0.1142578125,-0.927734375,-0.236328125
84,0.1142578125,-0.9208984375,-0.2333984375
85,0.111328125,-0.916015625,-0.2373046875
86,0.1015625,-0.9052734375,-0.2333984375
87,0.08984375,-0.8935546875,-0.2412109375
88,0.087890625,-0.8798828125,-0.2470703125
89,0.0751953125,-0.857421875,-0.2578125
90,0.0576171875,-0.8369140625,-0.2626953125
91,0.05078125,-0.8212890625,-0.265625
92,0.0361328125,-0.8115234375,-0.2587890625
93,0.02734375,-0.7998046875,-0.248046875
94,0.01953125,-0.8076171875,-0.234375
95,0.0146484375,-0.8134765625,-0.2109375
96,0.015625,-0.841796875,-0.18359375
97,0.0341796875,-0.88671875,-0.162109375
98,0.048828125,-0.935546875,-0.1396484375
99,0.064453125,-0.9853515625,-0.1201171875
100,0.0849609375,-1.0263671875,-0.1123046875
101,0.103515625,-1.0732421875,-0.1201171875
102,0.1142578125,-1.103515625,-0.134765625
103,0.12890625,-1.1181640625,-0.1416015625
104,0.142578125,-1.119140625,-0.1611328125
105,0.146484375,-1.1142578125,-0.1572265625
106,0.150390625,-1.0927734375,-0.15234375
107,0.16015625,-1.076171875,-0.1337890625
108,0.1748046875,-1.060546875,-0.11328125
109,0.1865234375,-1.048828125,-0.0927734375
110,0.2021484375,-1.0380859375,-0.08203125
111,0.2138671875,-1.0234375,-0.080078125
112,0.216796875,-0.9990234375,-0.0927734375
113,0.216796875,-0.9912109375,-0.1162109375
114,0.2177734375,-0.958984375,-0.119140625
115,0.208984375,-0.9384765625,-0.1376953125
116,0.1962890625,-0.9189453125,-0.1435546875
117,0.1796875,-0.9072265625,-0.1591796875
118,0.1572265625,-0.896484375,-0.16796875
119,0.1416015625,-0.896484375,-0.1669921875
120,0.125,-0.896484375,-0.169921875
121,0.1044921875,-0.8955078125,-0.1689453125
122,0.076171875,-0.8994140625,-0.1669921875
123,0.0673828125,-0.908203125,-0.1640625
124,0.046875,-0.9248046875,-0.1630859375
125,0.0400390625,-0.9453125,-0.1552734375
126,0.037109375,-0.9521484375,-0.14453125
127,0.0390625,-0.966796875,-0.138671875
128,0.0390625,-0.9697265625,-0.123046875
129,0.0380859375,-0.9794921875,-0.1171875
130,0.0380859375,-0.9853515625,-0.109375
131,0.0400390625,-0.98828125,-0.103515625
132,0.0400390625,-0.9873046875,-0.099609375
133,0.037109375,-0.986328125,-0.09765625
134,0.04296875,-0.9794921875,-0.091796875
135,0.0419921875,-0.96875,-0.0947265625
136,0.041015625,-0.9599609375,-0.083984375
137,0.0458984375,-0.95703125,-0.0849609375
138,0.0400390625,-0.953125,-0.0810546875
139,0.0390625,-0.9404296875,-0.072265625
140,0.0439453125,-0.951171875,-0.076171875
141,0.044921875,-0.9521484375,-0.0712890625
142,0.048828125,-0.9453125,-0.068359375
143,0.0517578125,-0.9501953125,-0.0673828125
144,0.0595703125,-0.947265625,-0.068359375
145,0.064453125,-0.955078125,-0.0673828125
146,0.076171875,-0.951171875,-0.0625
147,0.0771484375,-0.943359375,-0.05859375
148,0.083984375,-0.94140625,-0.0654296875
149,0.083984375,-0.9306640625,-0.0654296875
150,0.0830078125,-0.9287109375,-0.068359375
151,0.0791015625,-0.9189453125,-0.0712890625
152,0.076171875,-0.9111328125,-0.0771484375
153,0.072265625,-0.9189453125,-0.0751953125
154,0.072265625,-0.9130859375,-0.0771484375
155,0.0654296875,-0.9189453125,-0.078125
156,0.0693359375,-0.9169921875,-0.0791015625
157,0.06640625,-0.916015625,-0.0859375
158,0.0625,-0.919921875,-0.083984375
159,0.06640625,-0.9208984375,-0.0859375
160,0.0703125,-0.9287109375,-0.08984375
161,0.07421875,-0.9287109375,-0.0791015625
162,0.0712890625,-0.9326171875,-0.0830078125
163,0.0810546875,-0.939453125,-0.0791015625
164,0.0771484375,-0.9423828125,-0.0751953125
165,0.07421875,-0.947265625,-0.0673828125
166,0.076171875,-0.947265625,-0.068359375
167,0.07421875,-0.94921875,-0.064453125
168,0.064453125,-0.9375,-0.0673828125
169,0.0751953125,-0.935546875,-0.0654296875
170,0.0595703125,-0.9365234375,-0.0673828125
171,0.052734375,-0.931640625,-0.0625
172,0.05078125,-0.927734375,-0.068359375
173,0.0400390625,-0.9287109375,-0.0693359375
174,0.0380859375,-0.921875,-0.0654296875
175,0.0341796875,-0.9306640625,-0.064453125
176,0.0263671875,-0.939453125,-0.0634765625
177,0.0205078125,-0.94921875,-0.0615234375
178,0.015625,-0.9599609375,-0.052734375
179,0.0078125,-0.96875,-0.048828125
180,0.0078125,-0.9794921875,-0.04296875
181,-0.0009765625,-0.9853515625,-0.037109375
182,-0.0078125,-0.9931640625,-0.0234375
183,-0.017578125,-1.0029296875,-0.0205078125
184,-0.021484375,-1.013671875,-0.0068359375
185,-0.02734375,-1.02734375,-0.0009765625
186,-0.03515625,-1.0390625,0.0087890625
187,-0.0380859375,-1.0517578125,0.0107421875
188,-0.0390625,-1.072265625,0.009765625
189,-0.0419921875,-1.07421875,0.0009765625
190,-0.0341796875,-1.0830078125,0.0146484375
191,-0.0361328125,-1.0908203125,0.0146484375
192,-0.0322265625,-1.0966796875,0.0126953125
193,-0.0234375,-1.0927734375,0.0126953125
194,-0.015625,-1.1064453125,0.0126953125
195,-0.0029296875,-1.0986328125,0.0126953125
196,0.0078125,-1.1005859375,0.01953125
197,0.01171875,-1.103515625,0.015625
198,0.0185546875,-1.1005859375,0.0185546875
199,0.0126953125,-1.11328125,0.009765625
200,0.01171875,-1.1279296875,-0.015625
201,0.0185546875,-1.138671875,-0.0634765625
202,0.0087890625,-1.1640625,-0.1279296875
203,-0.0107421875,-1.1953125,-0.21484375
204,-0.0419921875,-1.2119140625,-0.2861328125
205,-0.068359375,-1.236328125,-0.263671875
206,-0.08203125,-1.2529296875,-0.2021484375
207,-0.078125,-1.283203125,-0.1337890625
208,-0.06640625,-1.3115234375,-0.0986328125
209,-0.033203125,-1.3203125,-0.0830078125
210,-0.0029296875,-1.30859375,-0.0751953125
211,0.0234375,-1.279296875,-0.076171875
212,0.02734375,-1.2412109375,-0.0771484375
213,0.0634765625,-1.203125,-0.0693359375
214,0.080078125,-1.1591796875,-0.0693359375
215,0.1025390625,-1.115234375,-0.0810546875
216,0.142578125,-1.08203125,-0.10546875
217,0.1611328125,-1.0693359375,-0.1396484375
218,0.1796875,-1.0419921875,-0.1708984375
219,0.197265625,-1.0341796875,-0.2255859375
220,0.19921875,-0.9990234375,-0.2744140625
221,0.2119140625,-0.998046875,-0.333984375
222,0.1796875,-1.0087890625,-0.3916015625
223,0.15625,-1.017578125,-0.435546875
224,0.1279296875,-1.0078125,-0.4580078125
225,0.103515625,-0.9931640625,-0.4755859375
226,0.0927734375,-0.94921875,-0.47265625
227,0.0791015625,-0.8955078125,-0.478515625
228,0.076171875,-0.861328125,-0.478515625
229,0.080078125,-0.837890625,-0.4697265625
230,0.087890625,-0.841796875,-0.4599609375
231,0.1083984375,-0.845703125,-0.4482421875
232,0.1337890625,-0.8505859375,-0.419921875
233,0.1474609375,-0.87890625,-0.3896484375
234,0.1630859375,-0.8896484375,-0.3525390625
235,0.171875,-0.8974609375,-0.32421875
236,0.18359375,-0.8955078125,-0.3037109375
237,0.197265625,-0.8935546875,-0.279296875
238,0.205078125,-0.89453125,-0.26953125
239,0.2119140625,-0.90234375,-0.2685546875
240,0.2041015625,-0.8994140625,-0.2744140625
241,0.2001953125,-0.9091796875,-0.2841796875
242,0.1748046875,-0.9033203125,-0.2890625
243,0.16796875,-0.8955078125,-0.30078125
244,0.154296875,-0.8994140625,-0.296875
245,0.140625,-0.9140625,-0.2939453125
246,0.1201171875,-0.91796875,-0.2744140625
247,0.1123046875,-0.93359375,-0.2587890625
248,0.103515625,-0.919921875,-0.2421875
249,0.095703125,-0.9111328125,-0.2431640625
250,0.0869140625,-0.908203125,-0.2451171875
251,0.0751953125,-0.9013671875,-0.240234375
252,0.056640625,-0.87890625,-0.236328125
253,0.0546875,-0.8779296875,-0.236328125
254,0.0517578125,-0.865234375,-0.2431640625
255,0.0361328125,-0.857421875,-0.2421875
256,0.03125,-0.8369140625,-0.2529296875
257,0.0234375,-0.810546875,-0.2451171875
258,0.0107421875,-0.8154296875,-0.240234375
259,0.005859375,-0.8193359375,-0.2197265625
260,-0.001953125,-0.8115234375,-0.2177734375
261,0.005859375,-0.8203125,-0.2001953125
262,0.00390625,-0.814453125,-0.19140625
263,-0.001953125,-0.8232421875,-0.1767578125
264,-0.00390625,-0.8291015625,-0.1650390625
265,0.0078125,-0.84765625,-0.1630859375
266,0.0126953125,-0.845703125,-0.1513671875
267,0.0107421875,-0.83984375,-0.1357421875
268,0.0068359375,-0.8310546875,-0.13671875
269,0.013671875,-0.837890625,-0.134765625
270,0.0126953125,-0.8427734375,-0.138671875
271,0.0439453125,-0.826171875,-0.13671875
272,0.0517578125,-0.8447265625,-0.13671875
273,0.0517578125,-0.83984375,-0.134765625
274,0.06640625,-0.841796875,-0.1279296875
275,0.0625,-0.837890625,-0.1328125
276,0.080078125,-0.837890625,-0.138671875
277,0.0849609375,-0.8359375,-0.1416015625
278,0.0791015625,-0.826171875,-0.138671875
279,0.08203125,-0.8203125,-0.1435546875
280,0.083984375,-0.810546875,-0.142578125
281,0.0859375,-0.8037109375,-0.142578125
282,0.0751953125,-0.80078125,-0.146484375
283,0.087890625,-0.787109375,-0.142578125
284,0.078125,-0.79296875,-0.146484375
285,0.083984375,-0.7978515625,-0.1474609375
286,0.0673828125,-0.7958984375,-0.14453125
287,0.0615234375,-0.8251953125,-0.14453125
288,0.0595703125,-0.8173828125,-0.1357421875
289,0.060546875,-0.8291015625,-0.140625
290,0.0556640625,-0.837890625,-0.1279296875
291,0.064453125,-0.8583984375,-0.1259765625
292,0.0595703125,-0.8779296875,-0.1259765625
293,0.0546875,-0.900390625,-0.1162109375
294,0.064453125,-0.9150390625,-0.111328125
295,0.0625,-0.9521484375,-0.1044921875
296,0.0751953125,-0.9833984375,-0.1005859375
297,0.0634765625,-1.00390625,-0.087890625
298,0.072265625,-1.0283203125,-0.0771484375
299,0.08203125,-1.0478515625,-0.0634765625
300,0.078125,-1.0654296875,-0.0419921875
301,0.0830078125,-1.0693359375,-0.0244140625
302,0.0859375,-1.05859375,-0.017578125
303,0.0751953125,-1.0576171875,-0.0146484375
304,0.0859375,-1.03515625,-0.013671875
305,0.0859375,-1.0087890625,-0.0234375
306,0.0908203125,-0.9921875,-0.0322265625
307,0.09765625,-0.9599609375,-0.0439453125
308,0.1015625,-0.94140625,-0.0439453125
309,0.109375,-0.9287109375,-0.0361328125
310,0.109375,-0.9189453125,-0.03515625
311,0.1103515625,-0.9189453125,-0.037109375
312,0.1201171875,-0.923828125,-0.033203125
313,0.125,-0.9384765625,-0.0283203125
314,0.1259765625,-0.9560546875,-0.01953125
315,0.125,-0.9873046875,-0.001953125
316,0.1162109375,-1.0166015625,0.021484375
317,0.107421875,-1.0517578125,0.0302734375
318,0.0966796875,-1.083984375,0.0478515625
319,0.09765625,-1.1171875,0.0458984375
320,0.09765625,-1.138671875,0.05078125
321,0.1064453125,-1.16015625,0.0634765625
322,0.1181640625,-1.1728515625,0.072265625
323,0.1259765625,-1.1728515625,0.087890625
324,0.1328125,-1.15234375,0.103515625
325,0.1376953125,-1.134765625,0.1025390625
326,0.142578125,-1.1083984375,0.1083984375
327,0.140625,-1.078125,0.1103515625
328,0.134765625,-1.0498046875,0.1171875
329,0.1142578125,-1.041015625,0.125
330,0.1005859375,-1.0224609375,0.1298828125
331,0.1083984375,-1.02734375,0.111328125
332,0.13671875,-1.0693359375,0.060546875
333,0.1572265625,-1.138671875,0.0078125
334,0.1640625,-1.2138671875,-0.0888671875
335,0.1748046875,-1.2958984375,-0.23046875
336,0.23046875,-1.318359375,-0.3623046875
337,0.30078125,-1.318359375,-0.3740234375
338,0.328125,-1.3427734375,-0.3017578125
339,0.3291015625,-1.38671875,-0.21875
340,0.283203125,-1.421875,-0.177734375
341,0.23828125,-1.3984375,-0.1669921875
342,0.232421875,-1.3349609375,-0.1455078125
343,0.2138671875,-1.259765625,-0.1044921875
344,0.2021484375,-1.201171875,-0.0712890625
345,0.166015625,-1.1533203125,-0.052734375
346,0.1162109375,-1.115234375,-0.0625
347,0.0712890625,-1.0791015625,-0.0859375
348,0.0322265625,-1.041015625,-0.1201171875
349,-0.001953125,-0.9951171875,-0.1474609375
350,-0.03125,-0.9296875,-0.1865234375
351,-0.0361328125,-0.8984375,-0.2255859375
352,-0.0205078125,-0.90625,-0.296875
353,0.001953125,-0.919921875,-0.359375
354,0.0458984375,-0.9404296875,-0.427734375
355,0.09375,-0.9384765625,-0.498046875
356,0.1650390625,-0.9111328125,-0.5576171875
357,0.2275390625,-0.8798828125,-0.5693359375
358,0.2548828125,-0.8623046875,-0.5517578125
359,0.263671875,-0.837890625,-0.5263671875
360,0.248046875,-0.8232421875,-0.4951171875
361,0.2099609375,-0.8173828125,-0.4638671875
362,0.1689453125,-0.828125,-0.439453125
363,0.1220703125,-0.8505859375,-0.4306640625
364,0.099609375,-0.89453125,-0.4150390625
365,0.06640625,-0.9189453125,-0.4052734375
366,0.0341796875,-0.9345703125,-0.3818359375
367,0.009765625,-0.953125,-0.37109375
368,0.005859375,-0.9677734375,-0.361328125
369,0.0068359375,-0.9833984375,-0.3544921875
370,0.0048828125,-0.9873046875,-0.3388671875
371,0.0224609375,-0.9814453125,-0.330078125
372,0.0380859375,-0.98046875,-0.326171875
373,0.05859375,-0.9697265625,-0.3193359375
374,0.083984375,-0.95703125,-0.314453125
375,0.1181640625,-0.9521484375,-0.3046875
376,0.138671875,-0.9365234375,-0.296875
377,0.171875,-0.912109375,-0.2880859375
378,0.1953125,-0.892578125,-0.279296875
379,0.205078125,-0.8818359375,-0.267578125
380,0.2041015625,-0.8642578125,-0.251953125
381,0.212890625,-0.8505859375,-0.232421875
382,0.2080078125,-0.830078125,-0.2333984375
383,0.205078125,-0.8232421875,-0.2333984375
384,0.1962890625,-0.806640625,-0.228515625
385,0.19140625,-0.794921875,-0.22265625
386,0.177734375,-0.7783203125,-0.224609375
387,0.1611328125,-0.76953125,-0.21875
388,0.162109375,-0.76171875,-0.212890625
389,0.1484375,-0.75390625,-0.216796875
390,0.1416015625,-0.7529296875,-0.20703125
391,0.1328125,-0.7490234375,-0.205078125
392,0.123046875,-0.7490234375,-0.201171875
393,0.1142578125,-0.744140625,-0.19140625
394,0.107421875,-0.7568359375,-0.18359375
395,0.0966796875,-0.7587890625,-0.16796875
396,0.08984375,-0.779296875,-0.1611328125
397,0.0869140625,-0.78515625,-0.1591796875
398,0.08203125,-0.796875,-0.1494140625
399,0.083984375,-0.8095703125,-0.1494140625
400,0.0703125,-0.814453125,-0.1474609375
401,0.056640625,-0.82421875,-0.1416015625
402,0.0595703125,-0.8203125,-0.138671875
403,0.0537109375,-0.810546875,-0.1396484375
404,0.05859375,-0.806640625,-0.142578125
405,0.0673828125,-0.8173828125,-0.1396484375
406,0.0615234375,-0.818359375,-0.1396484375
407,0.0595703125,-0.826171875,-0.1318359375
408,0.056640625,-0.83984375,-0.1376953125
409,0.0439453125,-0.845703125,-0.1298828125
410,0.0458984375,-0.8486328125,-0.12890625
411,0.0546875,-0.859375,-0.12109375
412,0.05078125,-0.8544921875,-0.12109375
413,0.05859375,-0.861328125,-0.119140625
414,0.056640625,-0.861328125,-0.1064453125
415,0.056640625,-0.8564453125,-0.099609375
416,0.05078125,-0.85546875,-0.095703125
417,0.0517578125,-0.8583984375,-0.09765625
418,0.0537109375,-0.8525390625,-0.095703125
419,0.0390625,-0.845703125,-0.099609375
420,0.048828125,-0.84765625,-0.1044921875
421,0.046875,-0.8486328125,-0.10546875
422,0.04296875,-0.845703125,-0.1103515625
423,0.048828125,-0.8408203125,-0.1015625
424,0.0478515625,-0.8564453125,-0.09765625
425,0.05859375,-0.8583984375,-0.095703125
426,0.060546875,-0.86328125,-0.0927734375
427,0.0634765625,-0.880859375,-0.0810546875
428,0.064453125,-0.8974609375,-0.0791015625
429,0.06640625,-0.916015625,-0.0703125
430,0.076171875,-0.935546875,-0.064453125
431,0.0830078125,-0.9521484375,-0.0625
432,0.078125,-0.98046875,-0.0546875
433,0.0888671875,-0.98828125,-0.04296875
434,0.0869140625,-0.9970703125,-0.0234375
435,0.076171875,-1.0048828125,-0.0048828125
436,0.064453125,-1.0078125,0.01171875
437,0.048828125,-1.0068359375,0.0068359375
438,0.0400390625,-1.0048828125,-0.033203125
439,0.01953125,-0.9931640625,-0.0830078125
440,-0.0126953125,-0.9697265625,-0.1416015625
441,-0.0322265625,-0.9501953125,-0.189453125
442,-0.041015625,-0.9404296875,-0.19921875
443,-0.05859375,-0.9443359375,-0.162109375
444,-0.072265625,-0.95703125,-0.109375
445,-0.091796875,-1.001953125,-0.0751953125
446,-0.0986328125,-1.0341796875,-0.0556640625
447,-0.10546875,-1.080078125,-0.0537109375
448,-0.099609375,-1.1171875,-0.060546875
449,-0.0947265625,-1.1611328125,-0.056640625
450,-0.0625,-1.205078125,-0.0263671875
451,-0.0283203125,-1.2509765625,0.0166015625
452,0.017578125,-1.27734375,0.05859375
453,0.0556640625,-1.3125,0.109375
454,0.10546875,-1.2880859375,0.134765625
455,0.15625,-1.2412109375,0.1435546875
456,0.193359375,-1.2041015625,0.1474609375
457,0.2158203125,-1.1689453125,0.15234375
458,0.2236328125,-1.1318359375,0.150390625
459,0.212890625,-1.1005859375,0.1591796875
460,0.158203125,-1.0986328125,0.140625
461,0.134765625,-1.1162109375,0.1015625
462,0.125,-1.1689453125,0.013671875
463,0.0859375,-1.236328125,-0.15234375
464,0.02734375,-1.2548828125,-0.3564453125
465,-0.0634765625,-1.255859375,-0.39453125
466,-0.1318359375,-1.2666015625,-0.3232421875
467,-0.1875,-1.3095703125,-0.2626953125
468,-0.1845703125,-1.3310546875,-0.2353515625
469,-0.166015625,-1.3115234375,-0.23828125
470,-0.1328125,-1.2685546875,-0.22265625
471,-0.0908203125,-1.205078125,-0.1865234375
472,-0.02734375,-1.1552734375,-0.158203125
473,0.029296875,-1.107421875,-0.1181640625
474,0.107421875,-1.041015625,-0.1083984375
475,0.142578125,-0.9580078125,-0.1142578125
476,0.2177734375,-0.908203125,-0.162109375
477,0.2744140625,-0.880859375,-0.265625
478,0.314453125,-0.8662109375,-0.384765625
479,0.3330078125,-0.83203125,-0.5107421875
480,0.345703125,-0.8115234375,-0.59375
481,0.3583984375,-0.8056640625,-0.5888671875
482,0.34765625,-0.8115234375,-0.548828125
483,0.353515625,-0.8701171875,-0.505859375
484,0.3505859375,-0.923828125,-0.4638671875
485,0.333984375,-1.0087890625,-0.45703125
486,0.29296875,-1.060546875,-0.4482421875
487,0.2451171875,-1.0888671875,-0.431640625
488,0.189453125,-1.1025390625,-0.4091796875
489,0.1416015625,-1.1025390625,-0.37109375
490,0.080078125,-1.083984375,-0.33203125
491,0.03515625,-1.076171875,-0.3056640625
492,0.0009765625,-1.0771484375,-0.291015625
493,-0.0224609375,-1.08203125,-0.2744140625
494,-0.029296875,-1.076171875,-0.2646484375
495,-0.029296875,-1.0595703125,-0.2666015625
496,0.0,-1.0302734375,-0.263671875
497,0.01171875,-0.984375,-0.2724609375
498,0.0302734375,-0.94140625,-0.2841796875
499,0.04296875,-0.9033203125,-0.287109375
500,0.0634765625,-0.8876953125,-0.298828125
501,0.0732421875,-0.8642578125,-0.3017578125
502,0.0869140625,-0.8408203125,-0.2861328125
503,0.1025390625,-0.818359375,-0.2724609375
504,0.1083984375,-0.8076171875,-0.2587890625
505,0.1064453125,-0.7880859375,-0.2451171875
506,0.099609375,-0.7802734375,-0.2392578125
507,0.0859375,-0.7744140625,-0.2255859375
508,0.0771484375,-0.765625,-0.2373046875
509,0.0751953125,-0.7646484375,-0.2431640625
510,0.0791015625,-0.7763671875,-0.248046875
511,0.05859375,-0.76953125,-0.2431640625
512,0.056640625,-0.7431640625,-0.2529296875
513,0.052734375,-0.734375,-0.2431640625
514,0.05078125,-0.7314453125,-0.2373046875
515,0.048828125,-0.72265625,-0.224609375
516,0.046875,-0.7294921875,-0.216796875
517,0.0361328125,-0.734375,-0.2080078125
518,0.025390625,-0.7373046875,-0.1982421875
519,0.0263671875,-0.7451171875,-0.1875
520,0.02734375,-0.7470703125,-0.177734375
521,0.0263671875,-0.74609375,-0.169921875
522,0.02734375,-0.765625,-0.15234375
523,0.013671875,-0.7705078125,-0.1455078125
524,0.005859375,-0.80078125,-0.1318359375
525,0.0234375,-0.810546875,-0.1337890625
526,0.02734375,-0.826171875,-0.134765625
527,0.0419921875,-0.8310546875,-0.1298828125
528,0.05078125,-0.828125,-0.126953125
529,0.0654296875,-0.8251953125,-0.140625
530,0.09765625,-0.8271484375,-0.1435546875
531,0.107421875,-0.83984375,-0.1357421875
532,0.115234375,-0.826171875,-0.1298828125
533,0.12890625,-0.82421875,-0.123046875
534,0.130859375,-0.818359375,-0.1259765625
535,0.1220703125,-0.818359375,-0.1318359375
536,0.1259765625,-0.8193359375,-0.134765625
537,0.12109375,-0.82421875,-0.140625
538,0.1123046875,-0.826171875,-0.1416015625
539,0.1025390625,-0.8359375,-0.140625
540,0.0869140625,-0.8486328125,-0.134765625
541,0.07421875,-0.8623046875,-0.1220703125
542,0.05859375,-0.87890625,-0.115234375
543,0.05078125,-0.8828125,-0.1015625
544,0.0498046875,-0.8916015625,-0.095703125
545,0.0458984375,-0.9091796875,-0.087890625
546,0.0458984375,-0.921875,-0.0849609375
547,0.0419921875,-0.93359375,-0.0771484375
548,0.046875,-0.94921875,-0.0732421875
549,0.0517578125,-0.9736328125,-0.0673828125
550,0.056640625,-1.00390625,-0.0615234375
551,0.0498046875,-1.0322265625,-0.0537109375
552,0.0478515625,-1.0556640625,-0.05078125
553,0.0537109375,-1.0712890625,-0.0498046875
554,0.076171875,-1.083984375,-0.0537109375
555,0.0791015625,-1.0947265625,-0.0576171875
556,0.0830078125,-1.0869140625,-0.068359375
557,0.0810546875,-1.0595703125,-0.0830078125
558,0.10546875,-1.04296875,-0.099609375
559,0.1328125,-1.037109375,-0.103515625
560,0.166015625,-1.0380859375,-0.095703125
561,0.1875,-1.0361328125,-0.06640625
562,0.1806640625,-1.0341796875,-0.01953125
563,0.1611328125,-1.0439453125,0.01171875
564,0.1533203125,-1.0556640625,0.021484375
565,0.154296875,-1.0654296875,0.025390625
566,0.1669921875,-1.0908203125,0.0078125
567,0.193359375,-1.111328125,0.0029296875
568,0.2255859375,-1.12890625,0.0048828125
569,0.2353515625,-1.140625,0.0048828125
570,0.26171875,-1.1513671875,0.021484375
571,0.263671875,-1.1572265625,0.0498046875
572,0.255859375,-1.138671875,0.095703125
573,0.21484375,-1.1103515625,0.115234375
574,0.1767578125,-1.0830078125,0.13671875
575,0.1162109375,-1.0546875,0.1494140625
576,0.0791015625,-1.0224609375,0.1494140625
577,0.0703125,-1.02734375,0.1328125
578,0.0986328125,-1.08984375,0.06640625
579,0.0625,-1.1396484375,0.0517578125
580,0.0341796875,-1.201171875,-0.0087890625
581,0.03125,-1.2626953125,-0.16015625
582,0.109375,-1.3076171875,-0.3466796875
583,0.201171875,-1.318359375,-0.4140625
584,0.263671875,-1.349609375,-0.337890625
585,0.2529296875,-1.3984375,-0.27734375
586,0.2392578125,-1.41015625,-0.2607421875
587,0.255859375,-1.3623046875,-0.2587890625
588,0.2841796875,-1.2666015625,-0.240234375
589,0.2890625,-1.1767578125,-0.1923828125
590,0.2666015625,-1.1279296875,-0.1337890625
591,0.220703125,-1.0830078125,-0.099609375
592,0.1650390625,-1.044921875,-0.111328125
593,0.1064453125,-1.001953125,-0.1416015625
594,0.05859375,-0.94921875,-0.18359375
595,0.0087890625,-0.9189453125,-0.208984375
596,0.0,-0.9111328125,-0.25
597,0.005859375,-0.943359375,-0.3154296875
598,-0.0126953125,-0.9765625,-0.4052734375
599,0.017578125,-0.994140625,-0.494140625
600,0.07421875,-0.9921875,-0.6025390625
601,0.1376953125,-0.95703125,-0.6728515625
602,0.1904296875,-0.919921875,-0.677734375
603,0.220703125,-0.9072265625,-0.6376953125
604,0.2080078125,-0.908203125,-0.580078125
605,0.1943359375,-0.923828125,-0.533203125
606,0.19140625,-0.90625,-0.5
607,0.1767578125,-0.8974609375,-0.48046875
608,0.1630859375,-0.9033203125,-0.474609375
609,0.16015625,-0.9091796875,-0.4658203125
610,0.146484375,-0.931640625,-0.455078125
611,0.1279296875,-0.9501953125,-0.4296875
612,0.1171875,-0.9658203125,-0.3955078125
613,0.1064453125,-0.9833984375,-0.3642578125
614,0.111328125,-0.9921875,-0.3447265625
615,0.119140625,-0.9921875,-0.3447265625
616,0.134765625,-0.9873046875,-0.361328125
617,0.1455078125,-0.974609375,-0.3671875
618,0.154296875,-0.9609375,-0.369140625
619,0.1572265625,-0.9521484375,-0.3623046875
620,0.1611328125,-0.935546875,-0.34375
621,0.1572265625,-0.9189453125,-0.322265625
622,0.1591796875,-0.90234375,-0.296875
623,0.15625,-0.896484375,-0.27734375
624,0.158203125,-0.88671875,-0.2646484375
625,0.162109375,-0.875,-0.2548828125
626,0.15625,-0.8505859375,-0.255859375
627,0.1650390625,-0.8232421875,-0.240234375
628,0.1552734375,-0.7958984375,-0.23046875
629,0.142578125,-0.7802734375,-0.2333984375
630,0.1357421875,-0.755859375,-0.2294921875
631,0.130859375,-0.740234375,-0.224609375
632,0.1064453125,-0.71875,-0.2236328125
633,0.09375,-0.7119140625,-0.232421875
634,0.09765625,-0.708984375,-0.2197265625
635,0.0986328125,-0.7109375,-0.2177734375
636,0.09765625,-0.7099609375,-0.2177734375
637,0.09375,-0.7109375,-0.203125
638,0.083984375,-0.701171875,-0.1982421875
639,0.0869140625,-0.7041015625,-0.189453125
640,0.08984375,-0.7275390625,-0.1748046875
641,0.0810546875,-0.732421875,-0.1572265625
642,0.08203125,-0.75390625,-0.1435546875
643,0.0849609375,-0.7763671875,-0.1396484375
644,0.0751953125,-0.7900390625,-0.130859375
645,0.0830078125,-0.8154296875,-0.130859375
646,0.083984375,-0.8271484375,-0.1181640625
647,0.0751953125,-0.828125,-0.1142578125
648,0.091796875,-0.818359375,-0.1328125
649,0.0810546875,-0.8232421875,-0.1328125
650,0.0791015625,-0.83203125,-0.1357421875
651,0.0595703125,-0.83984375,-0.130859375
652,0.056640625,-0.8330078125,-0.1279296875
653,0.044921875,-0.8369140625,-0.123046875
654,0.03515625,-0.8427734375,-0.1240234375
655,0.0390625,-0.8515625,-0.1181640625
656,0.03515625,-0.845703125,-0.1201171875
657,0.029296875,-0.8447265625,-0.109375
658,0.033203125,-0.853515625,-0.0966796875
659,0.025390625,-0.865234375,-0.087890625
660,0.0234375,-0.8681640625,-0.0830078125
661,0.01953125,-0.8603515625,-0.0791015625
662,0.017578125,-0.8671875,-0.0751953125
663,0.0185546875,-0.87109375,-0.080078125
664,0.021484375,-0.8720703125,-0.0751953125
665,0.01953125,-0.865234375,-0.0751953125
666,0.0244140625,-0.8671875,-0.078125
667,0.037109375,-0.853515625,-0.0732421875
668,0.0361328125,-0.8525390625,-0.080078125
669,0.046875,-0.84765625,-0.080078125
670,0.0556640625,-0.865234375,-0.080078125
671,0.060546875,-0.86328125,-0.0791015625
672,0.0732421875,-0.865234375,-0.0791015625
673,0.08203125,-0.8798828125,-0.0830078125
674,0.0908203125,-0.888671875,-0.0966796875
675,0.0947265625,-0.8974609375,-0.0908203125
676,0.0869140625,-0.912109375,-0.0888671875
677,0.0859375,-0.9306640625,-0.08203125
678,0.080078125,-0.9423828125,-0.06640625
679,0.0830078125,-0.953125,-0.060546875
680,0.06640625,-0.955078125,-0.06640625
681,0.064453125,-0.9609375,-0.1298828125
682,0.044921875,-0.95703125,-0.181640625
683,0.0166015625,-0.951171875,-0.228515625
684,0.0146484375,-0.951171875,-0.2529296875
685,0.025390625,-0.9755859375,-0.2509765625
686,0.0166015625,-0.9990234375,-0.203125
687,0.0068359375,-1.0205078125,-0.15234375
688,-0.01171875,-1.0380859375,-0.099609375
689,-0.03125,-1.0654296875,-0.0908203125
690,-0.0654296875,-1.0791015625,-0.0869140625
691,-0.083984375,-1.107421875,-0.08984375
692,-0.0810546875,-1.1630859375,-0.0712890625
693,-0.078125,-1.2177734375,-0.037109375
694,-0.0498046875,-1.2431640625,0.0107421875
695,-0.0458984375,-1.2724609375,0.0615234375
696,-0.015625,-1.2705078125,0.109375
697,0.0146484375,-1.2724609375,0.140625
698,0.0419921875,-1.2568359375,0.16796875
699,0.060546875,-1.2275390625,0.185546875
700,0.08203125,-1.1943359375,0.1923828125
701,0.08984375,-1.166015625,0.1845703125
702,0.0634765625,-1.1630859375,0.1533203125
703,0.0595703125,-1.19140625,0.099609375
704,0.052734375,-1.240234375,-0.0205078125
705,0.0234375,-1.3037109375,-0.1962890625
706,-0.0283203125,-1.322265625,-0.345703125
707,-0.09375,-1.318359375,-0.380859375
708,-0.1669921875,-1.3291015625,-0.322265625
709,-0.220703125,-1.37109375,-0.279296875
710,-0.244140625,-1.3720703125,-0.2724609375
711,-0.2109375,-1.345703125,-0.2587890625
712,-0.1591796875,-1.291015625,-0.2236328125
713,-0.0908203125,-1.205078125,-0.185546875
714,-0.0205078125,-1.1552734375,-0.1669921875
715,0.0390625,-1.0810546875,-0.16796875
716,0.0966796875,-0.9951171875,-0.166015625
717,0.1650390625,-0.9189453125,-0.1962890625
718,0.2392578125,-0.8447265625,-0.23828125
719,0.3115234375,-0.79296875,-0.3388671875
720,0.375,-0.7685546875,-0.4501953125
721,0.4091796875,-0.759765625,-0.53125
722,0.4326171875,-0.783203125,-0.5517578125
723,0.4404296875,-0.8203125,-0.5302734375
724,0.4462890625,-0.865234375,-0.4755859375
725,0.4345703125,-0.962890625,-0.462890625
726,0.4345703125,-1.0654296875,-0.45703125
727,0.392578125,-1.1416015625,-0.44921875
728,0.357421875,-1.17578125,-0.4150390625
729,0.2880859375,-1.18359375,-0.3876953125
730,0.2197265625,-1.1845703125,-0.353515625
731,0.1611328125,-1.1572265625,-0.3095703125
732,0.076171875,-1.11328125,-0.2802734375
733,0.0107421875,-1.072265625,-0.2548828125
734,-0.03515625,-1.056640625,-0.2509765625
735,-0.0673828125,-1.0322265625,-0.23828125
736,-0.08203125,-1.0048828125,-0.24609375
737,-0.0791015625,-0.9794921875,-0.25390625
738,-0.0615234375,-0.9462890625,-0.251953125
739,-0.044921875,-0.908203125,-0.263671875
740,-0.0224609375,-0.8876953125,-0.2822265625
741,0.0,-0.865234375,-0.3037109375
742,0.0234375,-0.8369140625,-0.3056640625
743,0.0419921875,-0.818359375,-0.302734375
744,0.0625,-0.8046875,-0.2841796875
745,0.0732421875,-0.796875,-0.2587890625
746,0.0849609375,-0.77734375,-0.2236328125
747,0.091796875,-0.7626953125,-0.1982421875
748,0.099609375,-0.74609375,-0.193359375
749,0.1005859375,-0.7353515625,-0.1962890625
750,0.1005859375,-0.7294921875,-0.1982421875
751,0.0966796875,-0.7177734375,-0.2158203125
752,0.09375,-0.71875,-0.2197265625
753,0.087890625,-0.7041015625,-0.2236328125
754,0.068359375,-0.697265625,-0.2265625
755,0.07421875,-0.6796875,-0.228515625
756,0.0517578125,-0.6845703125,-0.2216796875
757,0.0419921875,-0.6943359375,-0.205078125
758,0.0390625,-0.708984375,-0.1923828125
759,0.029296875,-0.7216796875,-0.1904296875
760,0.0263671875,-0.7314453125,-0.1767578125
761,0.021484375,-0.732421875,-0.1669921875
762,0.0224609375,-0.7568359375,-0.15234375
763,0.0244140625,-0.7646484375,-0.15625
764,0.03125,-0.7783203125,-0.14453125
765,0.0322265625,-0.8046875,-0.1494140625
766,0.0341796875,-0.8349609375,-0.1357421875
767,0.0166015625,-0.865234375,-0.1123046875
768,0.0615234375,-0.84765625,-0.1201171875
769,0.0810546875,-0.8681640625,-0.123046875
770,0.1064453125,-0.8759765625,-0.115234375
771,0.1259765625,-0.8740234375,-0.0966796875
772,0.1328125,-0.8720703125,-0.0986328125
773,0.1552734375,-0.85546875,-0.1103515625
774,0.158203125,-0.83984375,-0.1220703125
775,0.1611328125,-0.845703125,-0.126953125
776,0.1640625,-0.8427734375,-0.1240234375
777,0.1552734375,-0.841796875,-0.126953125
778,0.1484375,-0.84375,-0.1201171875
779,0.142578125,-0.84765625,-0.109375
780,0.1298828125,-0.8544921875,-0.0947265625
781,0.1240234375,-0.859375,-0.0888671875
782,0.1103515625,-0.8505859375,-0.0771484375
783,0.0947265625,-0.84765625,-0.0673828125
784,0.0732421875,-0.8525390625,-0.05859375
785,0.05859375,-0.8681640625,-0.0537109375
786,0.0537109375,-0.880859375,-0.0419921875
787,0.0302734375,-0.88671875,-0.044921875
788,0.0244140625,-0.9130859375,-0.0361328125
789,0.0078125,-0.9404296875,-0.0400390625
790,-0.005859375,-0.9580078125,-0.0322265625
791,-0.0029296875,-0.9951171875,-0.0341796875
792,0.0048828125,-1.03125,-0.037109375
793,0.0068359375,-1.0712890625,-0.029296875
794,0.009765625,-1.091796875,-0.0322265625
795,0.013671875,-1.1064453125,-0.029296875
796,0.02734375,-1.1064453125,-0.0361328125
797,0.0458984375,-1.10546875,-0.0576171875
798,0.07421875,-1.103515625,-0.0810546875
799,0.12109375,-1.0947265625,-0.0869140625
800,0.1591796875,-1.091796875,-0.0771484375
801,0.1826171875,-1.0927734375,-0.0380859375
802,0.1748046875,-1.09375,0.0009765625
803,0.173828125,-1.107421875,0.033203125
804,0.1669921875,-1.109375,0.0498046875
805,0.15625,-1.107421875,0.0390625
806,0.173828125,-1.138671875,0.02734375
807,0.18359375,-1.1640625,0.025390625
808,0.2041015625,-1.1796875,0.0380859375
809,0.2158203125,-1.19140625,0.044921875
810,0.2216796875,-1.18359375,0.0654296875
811,0.1982421875,-1.1455078125,0.10546875
812,0.171875,-1.09765625,0.13671875
813,0.1357421875,-1.064453125,0.16015625
814,0.099609375,-1.0419921875,0.1748046875
815,0.0908203125,-1.044921875,0.1591796875
816,0.12890625,-1.099609375,0.076171875
817,0.103515625,-1.1455078125,0.03125
818,0.08984375,-1.2119140625,-0.048828125
819,0.0888671875,-1.29296875,-0.2265625
820,0.142578125,-1.3193359375,-0.4384765625
821,0.21484375,-1.3310546875,-0.453125
822,0.2607421875,-1.38671875,-0.337890625
823,0.2353515625,-1.4384765625,-0.2890625
824,0.234375,-1.419921875,-0.306640625
825,0.2529296875,-1.353515625,-0.3271484375
826,0.2861328125,-1.2421875,-0.2978515625
827,0.29296875,-1.171875,-0.2255859375
828,0.2529296875,-1.1201171875,-0.1591796875
829,0.2080078125,-1.076171875,-0.1240234375
830,0.1591796875,-1.0341796875,-0.123046875
831,0.10546875,-0.98046875,-0.1416015625
832,0.0517578125,-0.923828125,-0.16796875
833,0.0107421875,-0.880859375,-0.19140625
834,-0.0078125,-0.8349609375,-0.2392578125
835,-0.009765625,-0.8125,-0.322265625
836,0.005859375,-0.845703125,-0.4404296875
837,0.0244140625,-0.89453125,-0.560546875
838,0.1298828125,-0.904296875,-0.6337890625
839,0.18359375,-0.880859375,-0.6640625
840,0.2275390625,-0.8916015625,-0.6494140625
841,0.275390625,-0.904296875,-0.5810546875
842,0.3046875,-0.92578125,-0.5029296875
843,0.3056640625,-0.9501953125,-0.43359375
844,0.28125,-0.97265625,-0.419921875
845,0.248046875,-0.9951171875,-0.4140625
846,0.2138671875,-0.994140625,-0.41015625
847,0.1640625,-1.0009765625,-0.390625
848,0.138671875,-1.0048828125,-0.3779296875
849,0.1181640625,-1.0029296875,-0.3583984375
850,0.09765625,-1.0048828125,-0.3369140625
851,0.08984375,-0.9970703125,-0.3203125
852,0.0927734375,-0.9931640625,-0.3203125
853,0.109375,-0.9814453125,-0.3212890625
854,0.115234375,-0.9208984375,-0.3251953125
855,0.1298828125,-0.8994140625,-0.337890625
856,0.142578125,-0.8876953125,-0.330078125
857,0.1533203125,-0.8720703125,-0.3271484375
858,0.162109375,-0.8466796875,-0.3193359375
859,0.177734375,-0.8388671875,-0.30078125
860,0.1875,-0.8310546875,-0.2919921875
861,0.2021484375,-0.8369140625,-0.275390625
862,0.212890625,-0.8310546875,-0.2509765625
863,0.2138671875,-0.8271484375,-0.234375
864,0.20703125,-0.81640625,-0.2158203125
865,0.1923828125,-0.8046875,-0.205078125
866,0.177734375,-0.7958984375,-0.1962890625
867,0.158203125,-0.7783203125,-0.1884765625
868,0.1474609375,-0.748046875,-0.1767578125
869,0.1318359375,-0.724609375,-0.1796875
870,0.12890625,-0.7138671875,-0.181640625
871,0.115234375,-0.7060546875,-0.181640625
872,0.1123046875,-0.7041015625,-0.185546875
873,0.10546875,-0.7021484375,-0.1904296875
874,0.0791015625,-0.7080078125,-0.1865234375
875,0.083984375,-0.71484375,-0.185546875
876,0.099609375,-0.720703125,-0.1865234375
877,0.0849609375,-0.765625,-0.15625
878,0.09765625,-0.765625,-0.1640625
879,0.1025390625,-0.771484375,-0.1533203125
880,0.1044921875,-0.779296875,-0.15625
881,0.1044921875,-0.783203125,-0.1494140625
882,0.1083984375,-0.796875,-0.16015625
883,0.1123046875,-0.7890625,-0.154296875
884,0.1123046875,-0.8046875,-0.1611328125
885,0.1083984375,-0.8056640625,-0.15625
886,0.103515625,-0.7978515625,-0.1611328125
887,0.0810546875,-0.8212890625,-0.1552734375
888,0.068359375,-0.814453125,-0.1640625
889,0.0546875,-0.8203125,-0.16015625
890,0.0478515625,-0.8291015625,-0.1513671875
891,0.0322265625,-0.8310546875,-0.142578125
892,0.0146484375,-0.84375,-0.1396484375
893,0.013671875,-0.8671875,-0.1337890625
894,0.0302734375,-0.8857421875,-0.123046875
895,0.013671875,-0.88671875,-0.1171875
896,0.0087890625,-0.8955078125,-0.1025390625
897,0.0068359375,-0.8955078125,-0.10546875
898,0.0146484375,-0.8974609375,-0.107421875
899,0.01953125,-0.9013671875,-0.1123046875
900,0.025390625,-0.8974609375,-0.109375
901,0.0302734375,-0.8935546875,-0.1005859375
902,0.041015625,-0.8955078125,-0.095703125
903,0.0390625,-0.890625,-0.0927734375
904,0.0478515625,-0.884765625,-0.087890625
905,0.048828125,-0.8857421875,-0.080078125
906,0.0576171875,-0.892578125,-0.07421875
907,0.060546875,-0.8994140625,-0.0615234375
908,0.0625,-0.8984375,-0.05859375
909,0.0703125,-0.908203125,-0.0615234375
910,0.0771484375,-0.91796875,-0.0654296875
911,0.0732421875,-0.921875,-0.05859375
912,0.07421875,-0.9267578125,-0.052734375
913,0.0517578125,-0.9306640625,-0.04296875
914,0.0419921875,-0.9345703125,-0.044921875
915,0.03125,-0.9296875,-0.048828125
916,0.0263671875,-0.9306640625,-0.08203125
917,0.013671875,-0.9248046875,-0.1220703125
918,0.0029296875,-0.9287109375,-0.1591796875
919,-0.0078125,-0.919921875,-0.1748046875
920,0.01171875,-0.9267578125,-0.162109375
921,0.0224609375,-0.947265625,-0.125
922,0.0244140625,-0.9765625,-0.0810546875
923,0.017578125,-0.994140625,-0.0556640625
924,0.0166015625,-1.015625,-0.0595703125
925,0.013671875,-1.04296875,-0.06640625
926,-0.0107421875,-1.0703125,-0.0830078125
927,-0.033203125,-1.1064453125,-0.0849609375
928,-0.041015625,-1.134765625,-0.078125
929,-0.0439453125,-1.1748046875,-0.0537109375
930,-0.0224609375,-1.232421875,0.009765625
931,0.0224609375,-1.2607421875,0.05078125
932,0.0625,-1.302734375,0.0966796875
933,0.11328125,-1.3134765625,0.1220703125
934,0.1630859375,-1.3095703125,0.134765625
935,0.2060546875,-1.2998046875,0.142578125
936,0.2392578125,-1.271484375,0.140625
937,0.2548828125,-1.2509765625,0.1533203125
938,0.265625,-1.2294921875,0.171875
939,0.2587890625,-1.1845703125,0.1904296875
940,0.224609375,-1.1552734375,0.193359375
941,0.16015625,-1.119140625,0.1689453125
942,0.1064453125,-1.10546875,0.126953125
943,0.0966796875,-1.1337890625,0.0703125
944,0.0341796875,-1.1767578125,-0.046875
945,-0.0380859375,-1.228515625,-0.2490234375
946,-0.09375,-1.236328125,-0.412109375
947,-0.1494140625,-1.2158203125,-0.443359375
948,-0.2099609375,-1.23046875,-0.37890625
949,-0.240234375,-1.259765625,-0.33203125
950,-0.236328125,-1.265625,-0.33203125
951,-0.2373046875,-1.2373046875,-0.361328125
952,-0.1923828125,-1.150390625,-0.376953125
953,-0.140625,-1.1064453125,-0.376953125
954,-0.0732421875,-1.05859375,-0.369140625
955,0.0107421875,-1.0283203125,-0.3623046875
956,0.0830078125,-0.9521484375,-0.3642578125
957,0.146484375,-0.900390625,-0.3994140625
958,0.208984375,-0.890625,-0.427734375
959,0.24609375,-0.869140625,-0.4716796875
960,0.3076171875,-0.84765625,-0.4892578125
961,0.369140625,-0.8427734375,-0.5146484375
962,0.388671875,-0.865234375,-0.5791015625
963,0.39453125,-0.892578125,-0.5966796875
964,0.388671875,-0.939453125,-0.5859375
965,0.369140625,-1.0400390625,-0.5390625
966,0.365234375,-1.0888671875,-0.4443359375
967,0.3359375,-1.1064453125,-0.3720703125
968,0.2880859375,-1.0888671875,-0.3232421875
969,0.228515625,-1.0810546875,-0.3134765625
970,0.15234375,-1.0751953125,-0.3125
971,0.095703125,-1.0673828125,-0.2998046875
972,0.0380859375,-1.0634765625,-0.2939453125
973,-0.009765625,-1.046875,-0.28125
974,-0.0439453125,-1.02734375,-0.2890625
975,-0.0576171875,-0.9951171875,-0.29296875
976,-0.0625,-0.970703125,-0.2958984375
977,-0.0556640625,-0.9404296875,-0.2998046875
978,-0.044921875,-0.9072265625,-0.28515625
979,-0.0341796875,-0.869140625,-0.2646484375
980,-0.0224609375,-0.8251953125,-0.2529296875
981,0.005859375,-0.7861328125,-0.2412109375
982,0.0380859375,-0.7548828125,-0.224609375
983,0.0458984375,-0.7373046875,-0.2158203125
984,0.0517578125,-0.7158203125,-0.2099609375
985,0.05078125,-0.712890625,-0.2060546875
986,0.0419921875,-0.7109375,-0.1962890625
987,0.0478515625,-0.7177734375,-0.19140625
988,0.0419921875,-0.7275390625,-0.1923828125
989,0.03125,-0.7255859375,-0.1923828125
990,0.0244140625,-0.71484375,-0.1875
991,0.01171875,-0.71484375,-0.189453125
992,0.021484375,-0.7080078125,-0.1826171875
993,0.0146484375,-0.7041015625,-0.1826171875
994,0.021484375,-0.708984375,-0.1806640625
995,0.005859375,-0.7060546875,-0.1748046875
996,-0.001953125,-0.7099609375,-0.171875
997,-0.01953125,-0.71875,-0.154296875
998,-0.02734375,-0.720703125,-0.15234375
999,-0.033203125,-0.7265625,-0.14453125
1000,-0.0341796875,-0.7373046875,-0.1435546875
1001,-0.025390625,-0.7451171875,-0.16015625
1002,-0.0126953125,-0.7685546875,-0.166015625
1003,-0.0048828125,-0.77734375,-0.1552734375
1004,-0.0234375,-0.8037109375,-0.1396484375
1005,-0.0087890625,-0.8232421875,-0.1376953125
1006,-0.0029296875,-0.8486328125,-0.1220703125
1007,0.04296875,-0.8642578125,-0.1142578125
1008,0.0419921875,-0.8740234375,-0.1201171875
1009,0.08203125,-0.875,-0.1279296875
1010,0.095703125,-0.8603515625,-0.115234375
1011,0.1201171875,-0.8505859375,-0.1220703125
1012,0.1357421875,-0.8564453125,-0.125
1013,0.1572265625,-0.8671875,-0.12890625
1014,0.1669921875,-0.8642578125,-0.1298828125
1015,0.166015625,-0.8662109375,-0.125
1016,0.1640625,-0.865234375,-0.12890625
1017,0.1533203125,-0.875,-0.1328125
1018,0.1396484375,-0.8857421875,-0.1376953125
1019,0.1298828125,-0.896484375,-0.138671875
1020,0.1083984375,-0.9169921875,-0.1328125
1021,0.08984375,-0.9248046875,-0.1220703125
1022,0.0654296875,-0.943359375,-0.115234375
1023,0.0537109375,-0.9501953125,-0.099609375
1024,0.0439453125,-0.9814453125,-0.091796875
1025,0.0361328125,-0.990234375,-0.0849609375
1026,0.0322265625,-1.013671875,-0.0771484375
1027,0.025390625,-1.03515625,-0.0556640625
1028,0.00390625,-1.037109375,-0.041015625
1029,0.0166015625,-1.0498046875,-0.03515625
1030,0.021484375,-1.0615234375,-0.0419921875
1031,0.029296875,-1.07421875,-0.0380859375
1032,0.0380859375,-1.087890625,-0.029296875
1033,0.0517578125,-1.1064453125,-0.0234375
1034,0.0908203125,-1.111328125,-0.01953125
1035,0.1015625,-1.1083984375,-0.0048828125
1036,0.1279296875,-1.1201171875,-0.00390625
1037,0.1435546875,-1.119140625,-0.0009765625
1038,0.1708984375,-1.11328125,-0.0048828125
1039,0.197265625,-1.103515625,0.0078125
1040,0.2138671875,-1.08984375,0.02734375
1041,0.2109375,-1.076171875,0.0595703125
1042,0.1982421875,-1.080078125,0.087890625
1043,0.1767578125,-1.09765625,0.115234375
1044,0.1513671875,-1.1201171875,0.1240234375
1045,0.126953125,-1.1298828125,0.1142578125
1046,0.09375,-1.1435546875,0.0986328125
1047,0.07421875,-1.1337890625,0.0830078125
1048,0.06640625,-1.138671875,0.07421875
1049,0.056640625,-1.134765625,0.068359375
1050,0.05078125,-1.1279296875,0.0849609375
1051,0.052734375,-1.0986328125,0.10546875
1052,0.0458984375,-1.0849609375,0.12109375
1053,0.0361328125,-1.0537109375,0.1240234375
1054,0.02734375,-1.0390625,0.1318359375
1055,0.015625,-1.0283203125,0.1279296875
1056,0.01953125,-1.025390625,0.1162109375
1057,0.0615234375,-1.0751953125,0.052734375
1058,0.142578125,-1.1806640625,-0.0419921875
1059,0.14453125,-1.2705078125,-0.072265625
1060,0.1220703125,-1.3447265625,-0.1591796875
1061,0.19921875,-1.365234375,-0.318359375
1062,0.3212890625,-1.3564453125,-0.443359375
1063,0.421875,-1.3427734375,-0.421875
1064,0.435546875,-1.3359375,-0.337890625
1065,0.38671875,-1.326171875,-0.271484375
1066,0.3427734375,-1.2626953125,-0.2373046875
1067,0.3203125,-1.1767578125,-0.1943359375
1068,0.2880859375,-1.091796875,-0.15234375
1069,0.2646484375,-1.0390625,-0.111328125
1070,0.2119140625,-0.9970703125,-0.11328125
1071,0.1298828125,-0.9453125,-0.15625
1072,0.0634765625,-0.90234375,-0.197265625
1073,-0.0048828125,-0.8583984375,-0.2314453125
1074,-0.0419921875,-0.810546875,-0.2685546875
1075,-0.044921875,-0.736328125,-0.3369140625
1076,-0.0341796875,-0.673828125,-0.4365234375
1077,0.01171875,-0.626953125,-0.515625
1078,0.0546875,-0.5986328125,-0.5751953125
1079,0.109375,-0.6083984375,-0.6103515625
1080,0.16796875,-0.6650390625,-0.6396484375
1081,0.2578125,-0.728515625,-0.61328125
1082,0.353515625,-0.7958984375,-0.544921875
1083,0.3798828125,-0.849609375,-0.4921875
1084,0.3916015625,-0.89453125,-0.455078125
1085,0.3828125,-0.9375,-0.4248046875
1086,0.3369140625,-0.98046875,-0.3974609375
1087,0.2861328125,-1.0166015625,-0.3583984375
1088,0.2333984375,-1.05859375,-0.302734375
1089,0.1748046875,-1.0849609375,-0.2685546875
1090,0.115234375,-1.0908203125,-0.2431640625
1091,0.0654296875,-1.0830078125,-0.24609375
1092,0.0390625,-1.072265625,-0.263671875
1093,0.02734375,-1.03515625,-0.2783203125
1094,0.0126953125,-1.0068359375,-0.2958984375
1095,0.021484375,-0.99609375,-0.298828125
1096,0.0390625,-0.9775390625,-0.3017578125
1097,0.0546875,-0.9375,-0.294921875
1098,0.0703125,-0.8974609375,-0.283203125
1099,0.1025390625,-0.8662109375,-0.271484375
1100,0.1201171875,-0.8271484375,-0.2607421875
1101,0.1455078125,-0.7841796875,-0.259765625
1102,0.1552734375,-0.74609375,-0.2607421875
1103,0.1728515625,-0.71484375,-0.25390625
1104,0.1796875,-0.68359375,-0.2392578125
1105,0.1806640625,-0.6513671875,-0.220703125
1106,0.1748046875,-0.6376953125,-0.2080078125
1107,0.169921875,-0.6220703125,-0.2080078125
1108,0.162109375,-0.607421875,-0.2060546875
1109,0.1513671875,-0.5888671875,-0.2177734375
1110,0.138671875,-0.578125,-0.2275390625
1111,0.1357421875,-0.5693359375,-0.236328125
1112,0.13671875,-0.5908203125,-0.2421875
1113,0.13671875,-0.6240234375,-0.2333984375
1114,0.1533203125,-0.6474609375,-0.2197265625
1115,0.158203125,-0.6796875,-0.208984375
1116,0.16796875,-0.705078125,-0.1962890625
1117,0.1533203125,-0.7158203125,-0.1806640625
1118,0.1494140625,-0.70703125,-0.1708984375
1119,0.1318359375,-0.7119140625,-0.166015625
1120,0.126953125,-0.7119140625,-0.166015625
1121,0.09765625,-0.7216796875,-0.1513671875
1122,0.083984375,-0.7353515625,-0.1435546875
1123,0.0576171875,-0.771484375,-0.1396484375
1124,0.0400390625,-0.7939453125,-0.126953125
1125,0.021484375,-0.8134765625,-0.1201171875
1126,0.0087890625,-0.82421875,-0.126953125
1127,0.0087890625,-0.8349609375,-0.119140625
1128,0.001953125,-0.8515625,-0.1162109375
1129,0.017578125,-0.859375,-0.1142578125
1130,0.02734375,-0.8564453125,-0.1142578125
1131,0.03515625,-0.8486328125,-0.111328125
1132,0.0546875,-0.84765625,-0.1171875
1133,0.078125,-0.8310546875,-0.1123046875
1134,0.09375,-0.82421875,-0.1123046875
1135,0.1083984375,-0.8154296875,-0.1103515625
1136,0.1171875,-0.80859375,-0.0966796875
1137,0.138671875,-0.798828125,-0.08203125
1138,0.1337890625,-0.783203125,-0.0859375
1139,0.13671875,-0.7578125,-0.0849609375
1140,0.1435546875,-0.748046875,-0.0888671875
1141,0.13671875,-0.728515625,-0.1005859375
1142,0.126953125,-0.71484375,-0.1123046875
1143,0.115234375,-0.708984375,-0.126953125
1144,0.125,-0.701171875,-0.1435546875
1145,0.107421875,-0.69921875,-0.1494140625
1146,0.0849609375,-0.705078125,-0.1484375
1147,0.091796875,-0.703125,-0.1865234375
1148,0.0869140625,-0.6884765625,-0.205078125
1149,0.0947265625,-0.6640625,-0.2158203125
1150,0.099609375,-0.6435546875,-0.2080078125
1151,0.1318359375,-0.640625,-0.1494140625
1152,0.162109375,-0.6552734375,-0.109375
1153,0.1630859375,-0.6953125,-0.072265625
1154,0.185546875,-0.74609375,-0.0576171875
1155,0.17578125,-0.78515625,-0.0625
1156,0.189453125,-0.818359375,-0.09375
1157,0.1962890625,-0.8427734375,-0.1396484375
1158,0.19921875,-0.8671875,-0.1796875
1159,0.1953125,-0.8759765625,-0.2109375
1160,0.1796875,-0.8857421875,-0.2216796875
1161,0.14453125,-0.875,-0.240234375
1162,0.11328125,-0.869140625,-0.248046875
1163,0.076171875,-0.8623046875,-0.248046875
1164,0.0361328125,-0.8515625,-0.25390625
1165,0.0087890625,-0.8310546875,-0.2607421875
1166,-0.0185546875,-0.8115234375,-0.27734375
1167,-0.0380859375,-0.796875,-0.298828125
1168,-0.056640625,-0.7822265625,-0.337890625
1169,-0.0712890625,-0.7646484375,-0.3671875
1170,-0.08203125,-0.7392578125,-0.3916015625
1171,-0.08203125,-0.7216796875,-0.41796875
1172,-0.1005859375,-0.7119140625,-0.4384765625
1173,-0.1162109375,-0.70703125,-0.4462890625
1174,-0.134765625,-0.7109375,-0.455078125
1175,-0.1376953125,-0.724609375,-0.4521484375
1176,-0.14453125,-0.7646484375,-0.45703125
1177,-0.1435546875,-0.7880859375,-0.45703125
1178,-0.1298828125,-0.8134765625,-0.4560546875
1179,-0.1025390625,-0.8291015625,-0.443359375
1180,-0.05859375,-0.84375,-0.4580078125
1181,-0.0126953125,-0.8369140625,-0.45703125
1182,0.037109375,-0.8271484375,-0.4541015625
1183,0.0771484375,-0.8037109375,-0.4453125
1184,0.1259765625,-0.783203125,-0.4306640625
1185,0.1533203125,-0.7666015625,-0.4111328125
1186,0.1923828125,-0.7548828125,-0.3994140625
1187,0.2255859375,-0.7451171875,-0.4013671875
1188,0.25,-0.7353515625,-0.39453125
1189,0.2666015625,-0.7265625,-0.400390625
1190,0.275390625,-0.7041015625,-0.41015625
1191,0.2919921875,-0.68359375,-0.41796875
1192,0.291015625,-0.6494140625,-0.4267578125
1193,0.2939453125,-0.623046875,-0.4453125
1194,0.3212890625,-0.57421875,-0.4853515625
1195,0.314453125,-0.5390625,-0.4775390625
1196,0.2880859375,-0.576171875,-0.447265625
1197,0.283203125,-0.5791015625,-0.4462890625
1198,0.2919921875,-0.5830078125,-0.4404296875
1199,0.2900390625,-0.5654296875,-0.4599609375
1200,0.2880859375,-0.56640625,-0.45703125
1201,0.2705078125,-0.5791015625,-0.458984375
1202,0.24609375,-0.595703125,-0.4853515625
1203,0.201171875,-0.6123046875,-0.525390625
1204,0.1796875,-0.6953125,-0.5126953125
1205,0.162109375,-0.740234375,-0.5498046875
1206,0.1640625,-0.7451171875,-0.5966796875
1207,0.1103515625,-0.83203125,-0.53515625
1208,0.083984375,-0.84765625,-0.5009765625
1209,0.078125,-0.8779296875,-0.4482421875
1210,0.1015625,-0.83203125,-0.443359375
1211,0.12109375,-0.8212890625,-0.423828125
1212,0.138671875,-0.8017578125,-0.3759765625
1213,0.146484375,-0.77734375,-0.341796875
1214,0.203125,-0.6689453125,-0.4423828125
1215,0.205078125,-0.5859375,-0.44140625
1216,0.220703125,-0.5673828125,-0.41015625
1217,0.248046875,-0.517578125,-0.3818359375
1218,0.2822265625,-0.4736328125,-0.373046875
1219,0.33203125,-0.4326171875,-0.3525390625
1220,0.3525390625,-0.4150390625,-0.3095703125
1221,0.37890625,-0.427734375,-0.23046875
1222,0.3955078125,-0.4033203125,-0.2001953125
1223,0.3876953125,-0.4482421875,-0.1083984375
1224,0.37890625,-0.44140625,-0.09375
1225,0.3740234375,-0.431640625,-0.08203125
1226,0.365234375,-0.43359375,-0.064453125
1227,0.3564453125,-0.392578125,-0.1025390625
1228,0.34765625,-0.365234375,-0.1142578125
1229,0.3310546875,-0.33203125,-0.1142578125
1230,0.2900390625,-0.3095703125,-0.095703125
1231,0.255859375,-0.2919921875,-0.044921875
1232,0.2265625,-0.2587890625,-0.021484375
1233,0.2060546875,-0.2158203125,-0.0263671875
1234,0.173828125,-0.16015625,-0.0234375
1235,0.146484375,-0.11328125,-0.0654296875
1236,0.125,-0.0927734375,-0.1328125
1237,0.064453125,-0.0673828125,-0.1923828125
1238,0.01953125,-0.0400390625,-0.263671875
1239,-0.0380859375,-0.037109375,-0.3251953125
1240,-0.064453125,-0.0341796875,-0.4228515625
1241,-0.041015625,-0.02734375,-0.5126953125
1242,0.0166015625,-0.0556640625,-0.576171875
1243,0.0498046875,-0.0810546875,-0.5791015625
1244,0.1328125,-0.1396484375,-0.5322265625
1245,0.1923828125,-0.203125,-0.5205078125
1246,0.251953125,-0.25,-0.548828125
1247,0.3046875,-0.287109375,-0.6611328125
1248,0.37109375,-0.3251953125,-0.8232421875
1249,0.412109375,-0.37109375,-1.0751953125
1250,0.453125,-0.4375,-1.4052734375
1251,0.40234375,-0.5078125,-1.7998046875
1252,0.2666015625,-0.587890625,-2.18359375
1253,0.1162109375,-0.7392578125,-2.419921875
1254,0.0048828125,-0.9072265625,-2.2578125
1255,-0.072265625,-1.0703125,-1.2177734375
1256,0.015625,-1.16796875,-0.09765625
1257,0.255859375,-1.259765625,0.501953125
1258,0.611328125,-1.234375,0.3134765625
1259,0.8681640625,-1.0390625,-0.0009765625
1260,1.001953125,-0.787109375,-0.1533203125
1261,1.0419921875,-0.5234375,-0.2236328125
1262,1.001953125,-0.2421875,-0.24609375
1263,0.9169921875,0.0390625,-0.2314453125
1264,0.689453125,0.1689453125,-0.3740234375
1265,0.5537109375,0.2978515625,-0.552734375
1266,0.333984375,0.380859375,-0.7001953125
1267,0.0625,0.5048828125,-0.6123046875
1268,-0.1650390625,0.640625,-0.3974609375
1269,-0.369140625,0.6689453125,-0.2392578125
1270,-0.55859375,0.54296875,-0.2314453125
1271,-0.4140625,0.2998046875,-0.244140625
1272,-0.1201171875,0.1611328125,-0.2080078125
1273,0.0986328125,0.1015625,-0.2607421875
1274,0.275390625,0.044921875,-0.4228515625
1275,0.4091796875,-0.029296875,-0.701171875
1276,0.568359375,-0.056640625,-0.92578125
1277,0.6533203125,-0.05078125,-1.015625
1278,0.669921875,-0.0361328125,-0.958984375
1279,0.8447265625,-0.0078125,-0.7841796875
1280,0.951171875,0.0263671875,-0.5087890625
1281,1.384765625,0.1435546875,-0.298828125
1282,1.1962890625,0.279296875,-0.1064453125
1283,7.9990234375,7.9990234375,-2.34765625
1284,7.29296875,7.9990234375,-8.0
1285,-8.0,-8.0,6.8212890625
1286,0.6572265625,2.8037109375,2.5234375
1287,1.0869140625,3.1767578125,-0.2041015625
1288,2.0009765625,1.0849609375,-3.6484375
1289,4.5703125,0.9130859375,-2.55078125
1290,4.775390625,2.5615234375,-1.357421875
1291,4.755859375,4.626953125,-2.1689453125
1292,4.2099609375,3.4619140625,-5.3017578125
1293,3.19140625,3.6123046875,-6.4619140625
1294,2.248046875,3.6904296875,-7.439453125
1295,1.0537109375,1.7255859375,-6.515625
1296,0.837890625,0.314453125,-4.2373046875
1297,0.3271484375,-0.314453125,-3.216796875
1298,0.8408203125,1.431640625,-1.9912109375
1299,1.1640625,0.8291015625,-2.056640625
1300,0.6982421875,0.107421875,-0.8212890625
1301,1.17578125,0.1962890625,-1.1279296875
1302,0.7294921875,-0.263671875,-0.7451171875
1303,0.6748046875,0.4375,-1.78515625
1304,0.396484375,-0.048828125,-1.0771484375
1305,0.2841796875,-0.150390625,-0.6201171875
1306,0.3974609375,-0.2841796875,-0.6767578125
1307,0.08984375,-0.470703125,-0.1640625
1308,0.3427734375,-0.6318359375,0.05078125
1309,0.5927734375,-0.4384765625,0.0625
1310,0.4453125,0.033203125,-0.26171875
1311,0.2529296875,0.509765625,-0.2119140625
1312,-0.017578125,1.00390625,0.0693359375
1313,-0.201171875,1.083984375,0.212890625
1314,-0.373046875,1.138671875,0.1435546875
1315,-0.3427734375,1.0986328125,0.22265625
1316,-0.185546875,0.810546875,0.228515625
1317,-0.1357421875,0.5341796875,0.017578125
1318,-0.0029296875,0.4345703125,-0.0859375
1319,0.1728515625,0.3583984375,-0.2783203125
1320,0.2822265625,0.3603515625,-0.5205078125
1321,0.328125,0.138671875,-0.552734375
1322,0.302734375,0.1640625,-0.75
1323,0.4052734375,0.2158203125,-0.919921875
1324,0.447265625,0.181640625,-0.826171875
1325,0.400390625,0.0849609375,-0.7763671875
1326,0.4541015625,0.0927734375,-0.8779296875
1327,0.4541015625,0.0947265625,-0.9775390625
1328,0.412109375,0.1884765625,-1.111328125
1329,0.34375,0.2080078125,-0.9150390625
1330,0.291015625,0.12109375,-0.9677734375
1331,0.3017578125,0.4716796875,-1.15625
1332,0.400390625,0.439453125,-1.0927734375
1333,0.3291015625,0.1591796875,-1.1044921875
1334,0.3583984375,0.4072265625,-1.3955078125
1335,0.3671875,0.6650390625,-1.4140625
1336,0.30078125,0.666015625,-1.4345703125
1337,0.20703125,0.6953125,-1.45703125
1338,0.294921875,0.6201171875,-1.478515625
1339,0.291015625,0.615234375,-1.388671875
1340,0.2001953125,0.7314453125,-1.41015625
1341,0.185546875,0.7548828125,-1.3828125
1342,0.111328125,0.6298828125,-1.2890625
1343,0.0986328125,0.4638671875,-1.1787109375
1344,0.080078125,0.345703125,-1.1083984375
1345,0.03125,0.53515625,-1.1279296875
1346,0.0830078125,0.3642578125,-1.0966796875
1347,0.099609375,0.3515625,-1.0947265625
1348,0.0673828125,0.21875,-1.115234375
1349,0.0205078125,0.2900390625,-1.146484375
1350,0.0458984375,0.294921875,-1.091796875
1351,0.037109375,0.3671875,-1.03515625
1352,0.0732421875,0.3232421875,-0.98046875
1353,0.115234375,0.28125,-1.0009765625
1354,0.1259765625,0.2783203125,-1.021484375
1355,0.1357421875,0.24609375,-1.0078125
1356,0.1044921875,0.2265625,-0.998046875
1357,0.0576171875,0.2021484375,-0.9921875
1358,0.041015625,0.18359375,-0.97265625
1359,0.05078125,0.1630859375,-0.9599609375
1360,0.0498046875,0.203125,-0.96484375
1361,0.0419921875,0.1982421875,-0.9853515625
1362,0.0634765625,0.203125,-1.0068359375
1363,0.0654296875,0.2294921875,-0.98828125
1364,0.076171875,0.236328125,-0.9912109375
1365,0.0634765625,0.2333984375,-0.990234375
1366,0.0732421875,0.22265625,-0.994140625
1367,0.0732421875,0.216796875,-1.0068359375
1368,0.0625,0.197265625,-0.99609375
1369,0.04296875,0.1884765625,-1.0166015625
1370,0.044921875,0.181640625,-1.0205078125
1371,0.041015625,0.1904296875,-1.0341796875
1372,0.0400390625,0.1796875,-1.0302734375
1373,0.056640625,0.1982421875,-1.0283203125
1374,0.0625,0.189453125,-1.0302734375
1375,0.0400390625,0.181640625,-1.0517578125
1376,0.03515625,0.224609375,-1.0400390625
1377,0.05078125,0.2333984375,-1.044921875
1378,0.05859375,0.2255859375,-1.064453125
1379,0.0615234375,0.2080078125,-1.060546875
1380,0.0517578125,0.2265625,-1.0732421875
1381,0.0556640625,0.2216796875,-1.076171875
1382,0.056640625,0.23046875,-1.0849609375
1383,0.0234375,0.216796875,-1.0888671875
1384,0.0361328125,0.2470703125,-1.0908203125
1385,0.0302734375,0.248046875,-1.0849609375
1386,0.03125,0.2451171875,-1.0908203125
1387,0.0302734375,0.3212890625,-1.1181640625
1388,0.025390625,0.6748046875,-1.140625
1389,0.0556640625,0.40234375,-1.0478515625
1390,0.0634765625,0.515625,-1.0546875
1391,-0.109375,0.646484375,-1.1318359375
1392,0.025390625,-0.02734375,-1.20703125
1393,0.2001953125,-0.28125,-1.1640625
1394,0.154296875,-0.0166015625,-1.294921875
1395,0.19140625,-0.666015625,-1.189453125
1396,-0.0146484375,-0.7919921875,-1.15625
1397,0.017578125,-0.162109375,-1.0712890625
1398,0.26171875,0.1669921875,-0.9072265625
1399,0.21875,0.294921875,-0.884765625
1400,0.34375,0.033203125,-0.8955078125
1401,0.1826171875,0.08984375,-0.8896484375
1402,0.05078125,0.208984375,-0.9384765625
1403,-0.2001953125,0.1826171875,-0.970703125
1404,0.1875,0.15234375,-0.916015625
1405,0.1669921875,0.1845703125,-0.87109375
1406,0.1474609375,0.1435546875,-0.9033203125
1407,0.185546875,0.1708984375,-0.9580078125
1408,0.1630859375,0.1201171875,-1.00390625
1409,0.1416015625,0.126953125,-1.0390625
1410,0.1328125,0.0703125,-1.08203125
1411,0.1455078125,0.109375,-1.1240234375
1412,0.1328125,0.1474609375,-1.142578125
1413,0.130859375,0.140625,-1.1640625
1414,0.142578125,0.1630859375,-1.1640625
1415,0.130859375,0.1572265625,-1.1533203125
1416,0.1337890625,0.1767578125,-1.1533203125
1417,0.1435546875,0.1728515625,-1.1396484375
1418,0.158203125,0.1708984375,-1.12890625
1419,0.171875,0.166015625,-1.1201171875
1420,0.173828125,0.181640625,-1.111328125
1421,0.1875,0.169921875,-1.087890625
1422,0.201171875,0.1708984375,-1.0771484375
1423,0.1611328125,0.1875,-1.0595703125
1424,0.154296875,0.16015625,-1.0576171875
1425,0.1455078125,0.162109375,-1.0458984375
1426,0.17578125,0.1650390625,-1.0615234375
1427,0.2197265625,0.1826171875,-1.0361328125
1428,0.16015625,0.1806640625,-1.03515625
1429,0.1572265625,0.1748046875,-1.046875
1430,0.19140625,0.1787109375,-1.0302734375
1431,0.18359375,0.1787109375,-1.029296875
1432,0.20703125,0.1728515625,-1.0400390625
1433,0.3369140625,0.2373046875,-0.9951171875
1434,0.1796875,0.16015625,-0.9990234375
1435,0.193359375,0.0693359375,-1.0302734375
1436,0.2236328125,0.041015625,-0.9951171875
1437,0.1962890625,0.099609375,-0.9833984375
1438,0.22265625,0.1455078125,-0.9609375
1439,0.2490234375,0.140625,-0.97265625
1440,0.26171875,0.1591796875,-0.96875
1441,0.251953125,0.1328125,-0.998046875
1442,0.263671875,0.150390625,-1.0146484375
1443,0.2353515625,0.173828125,-1.01171875
1444,0.189453125,0.1455078125,-1.0234375
1445,0.1845703125,0.1943359375,-1.021484375
1446,0.1875,0.2431640625,-1.0107421875
1447,0.224609375,0.25,-1.0263671875
1448,0.1904296875,0.185546875,-1.0068359375
1449,0.2001953125,0.169921875,-1.0224609375
1450,0.2177734375,0.2138671875,-0.9755859375
1451,0.2080078125,0.1943359375,-0.9892578125
1452,0.2109375,0.1865234375,-1.0009765625
1453,0.205078125,0.1845703125,-0.99609375
1454,0.193359375,0.189453125,-0.9951171875
1455,0.197265625,0.1923828125,-0.9912109375
1456,0.1904296875,0.181640625,-0.9892578125
1457,0.189453125,0.1826171875,-0.9921875
1458,0.193359375,0.181640625,-0.99609375
1459,0.1923828125,0.17578125,-1.00390625
1460,0.1904296875,0.1748046875,-0.9892578125
1461,0.18359375,0.17578125,-1.001953125
1462,0.1796875,0.1689453125,-1.0078125
1463,0.1806640625,0.169921875,-1.0068359375
1464,0.1826171875,0.16796875,-1.0185546875
1465,0.18359375,0.162109375,-1.021484375
1466,0.1865234375,0.1650390625,-1.0224609375
1467,0.1845703125,0.1572265625,-1.0234375
1468,0.1875,0.166015625,-1.033203125
1469,0.1787109375,0.1630859375,-1.0322265625
1470,0.1826171875,0.1572265625,-1.0419921875
1471,0.18359375,0.15234375,-1.0390625
1472,0.1806640625,0.1552734375,-1.0419921875
1473,0.1796875,0.1533203125,-1.044921875
1474,0.1767578125,0.15625,-1.0498046875
1475,0.185546875,0.1611328125,-1.05078125
1476,0.1748046875,0.1474609375,-1.0439453125
1477,0.1787109375,0.1513671875,-1.0517578125
1478,0.173828125,0.15234375,-1.0458984375
1479,0.177734375,0.1484375,-1.046875
1480,0.1826171875,0.15234375,-1.048828125
1481,0.171875,0.1513671875,-1.048828125
1482,0.1787109375,0.150390625,-1.0439453125
1483,0.1748046875,0.146484375,-1.0498046875
1484,0.1748046875,0.1513671875,-1.0478515625
1485,0.171875,0.1552734375,-1.0478515625
1486,0.181640625,0.146484375,-1.0478515625
1487,0.173828125,0.150390625,-1.048828125
1488,0.171875,0.1494140625,-1.0458984375
1489,0.1708984375,0.15234375,-1.0458984375
1490,0.1689453125,0.1552734375,-1.044921875
1491,0.1787109375,0.150390625,-1.046875
1492,0.173828125,0.1474609375,-1.0458984375
1493,0.1708984375,0.154296875,-1.0517578125
1494,0.1708984375,0.1513671875,-1.05078125
1495,0.169921875,0.15234375,-1.05078125
1496,0.16796875,0.1513671875,-1.046875
1497,0.1728515625,0.15234375,-1.052734375
1498,0.169921875,0.1572265625,-1.0498046875
1499,0.1689453125,0.158203125,-1.05078125
1500,0.1689453125,0.16015625,-1.0576171875
1501,0.1669921875,0.1591796875,-1.052734375
1502,0.1689453125,0.1552734375,-1.0458984375
1503,0.16796875,0.162109375,-1.0439453125
1504,0.169921875,0.1591796875,-1.0517578125
1505,0.16796875,0.1650390625,-1.041015625
1506,0.1708984375,0.1640625,-1.037109375
1507,0.1689453125,0.166015625,-1.037109375
1508,0.1708984375,0.16015625,-1.041015625
1509,0.1728515625,0.1650390625,-1.0361328125
1510,0.169921875,0.1591796875,-1.0361328125
1511,0.1650390625,0.1650390625,-1.03125
1512,0.1708984375,0.1669921875,-1.03125
1513,0.16796875,0.16796875,-1.029296875
1514,0.1708984375,0.1669921875,-1.0322265625
1515,0.173828125,0.169921875,-1.01953125
1516,0.171875,0.1669921875,-1.0234375
1517,0.173828125,0.169921875,-1.0302734375
1518,0.1767578125,0.1689453125,-1.0322265625
1519,0.1767578125,0.1669921875,-1.0322265625
1520,0.1650390625,0.1708984375,-1.03125
1521,0.1748046875,0.1669921875,-1.0322265625
1522,0.177734375,0.1669921875,-1.0341796875
1523,0.1748046875,0.1689453125,-1.0302734375
1524,0.173828125,0.16796875,-1.033203125
1525,0.173828125,0.1669921875,-1.03515625
1526,0.1796875,0.1669921875,-1.03515625
1527,0.1796875,0.1669921875,-1.03515625
1528,0.177734375,0.16796875,-1.0341796875
1529,0.1796875,0.1630859375,-1.037109375
1530,0.185546875,0.1650390625,-1.033203125
1531,0.18359375,0.166015625,-1.03515625
1532,0.1796875,0.1650390625,-1.0322265625
1533,0.181640625,0.166015625,-1.0322265625
1534,0.17578125,0.1689453125,-1.033203125
1535,0.1865234375,0.162109375,-1.033203125
1536,0.1845703125,0.1630859375,-1.0322265625
1537,0.1875,0.1640625,-1.03515625
1538,0.18359375,0.1640625,-1.0302734375
1539,0.18359375,0.1572265625,-1.0322265625
1540,0.185546875,0.162109375,-1.0341796875
1541,0.181640625,0.16015625,-1.0361328125
1542,0.181640625,0.16015625,-1.037109375
1543,0.1806640625,0.1630859375,-1.037109375
1544,0.185546875,0.154296875,-1.033203125
1545,0.177734375,0.150390625,-1.033203125
1546,0.18359375,0.1611328125,-1.033203125
1547,0.18359375,0.16015625,-1.033203125
1548,0.1884765625,0.158203125,-1.029296875
1549,0.1826171875,0.1591796875,-1.03125
1550,0.1826171875,0.1630859375,-1.0341796875
1551,0.1787109375,0.15625,-1.03515625
1552,0.18359375,0.1591796875,-1.037109375
1553,0.1865234375,0.154296875,-1.0341796875
1554,0.1826171875,0.1611328125,-1.0341796875
1555,0.1796875,0.158203125,-1.0361328125
1556,0.1806640625,0.1669921875,-1.03125
1557,0.1826171875,0.1591796875,-1.03515625
1558,0.1845703125,0.1630859375,-1.0341796875
1559,0.1865234375,0.16015625,-1.03515625
1560,0.18359375,0.1572265625,-1.0380859375
1561,0.18359375,0.1650390625,-1.033203125
1562,0.185546875,0.158203125,-1.0341796875
1563,0.1845703125,0.162109375,-1.033203125
1564,0.17578125,0.1650390625,-1.033203125
1565,0.18359375,0.166015625,-1.03515625
1566,0.177734375,0.166015625,-1.0341796875
1567,0.181640625,0.166015625,-1.033203125
1568,0.1796875,0.16796875,-1.0341796875
1569,0.1767578125,0.1650390625,-1.0390625
1570,0.17578125,0.16015625,-1.037109375
1571,0.1787109375,0.1630859375,-1.0341796875
1572,0.1787109375,0.1640625,-1.03515625
1573,0.1787109375,0.1650390625,-1.0341796875
1574,0.1787109375,0.16796875,-1.0341796875
1575,0.1806640625,0.16015625,-1.03515625
1576,0.173828125,0.1669921875,-1.0361328125
1577,0.1767578125,0.1640625,-1.03515625
1578,0.171875,0.16796875,-1.0380859375
1579,0.177734375,0.169921875,-1.0361328125
1580,0.1787109375,0.1689453125,-1.0341796875
1581,0.173828125,0.16796875,-1.037109375
1582,0.1806640625,0.1650390625,-1.03125
1583,0.1728515625,0.162109375,-1.037109375
1584,0.1767578125,0.1640625,-1.0390625
1585,0.173828125,0.162109375,-1.033203125
1586,0.1796875,0.162109375,-1.03515625
1587,0.171875,0.162109375,-1.03515625
1588,0.1728515625,0.162109375,-1.03515625
1589,0.1708984375,0.1650390625,-1.0341796875
1590,0.1728515625,0.1611328125,-1.0380859375
1591,0.1748046875,0.1650390625,-1.037109375
1592,0.1796875,0.16015625,-1.041015625
1593,0.1767578125,0.1640625,-1.0400390625
1594,0.1728515625,0.166015625,-1.03515625
1595,0.1767578125,0.1572265625,-1.037109375
1596,0.173828125,0.1640625,-1.037109375
1597,0.17578125,0.158203125,-1.0390625
1598,0.1728515625,0.162109375,-1.0322265625
1599,0.173828125,0.1611328125,-1.0361328125
1600,0.1767578125,0.1552734375,-1.0341796875
1601,0.173828125,0.166015625,-1.03515625
1602,0.1728515625,0.1611328125,-1.0341796875
1603,0.171875,0.16015625,-1.0341796875
1604,0.1796875,0.16015625,-1.0380859375
1605,0.171875,0.1591796875,-1.0322265625
1606,0.1748046875,0.1640625,-1.0380859375
1607,0.173828125,0.15625,-1.0390625
1608,0.181640625,0.16015625,-1.037109375
1609,0.1796875,0.158203125,-1.037109375
1610,0.17578125,0.154296875,-1.0322265625
1611,0.17578125,0.1640625,-1.0390625
1612,0.181640625,0.1669921875,-1.03515625
1613,0.1787109375,0.1640625,-1.0390625
1614,0.17578125,0.16015625,-1.03515625
1615,0.17578125,0.1630859375,-1.0361328125
1616,0.1796875,0.1630859375,-1.0322265625
1617,0.177734375,0.166015625,-1.033203125
1618,0.1806640625,0.166015625,-1.03515625
1619,0.1787109375,0.1611328125,-1.0361328125
1620,0.1806640625,0.162109375,-1.0341796875
1621,0.18359375,0.1630859375,-1.0390625
1622,0.1796875,0.1689453125,-1.033203125
1623,0.1767578125,0.1640625,-1.0341796875
1624,0.1748046875,0.166015625,-1.03515625
1625,0.181640625,0.162109375,-1.0341796875
1626,0.1767578125,0.162109375,-1.033203125
1627,0.1796875,0.1630859375,-1.0322265625
1628,0.181640625,0.1630859375,-1.033203125
1629,0.177734375,0.1650390625,-1.03515625
1630,0.1787109375,0.16796875,-1.0322265625
1631,0.1826171875,0.1611328125,-1.0361328125
1632,0.1796875,0.162109375,-1.033203125
1633,0.1796875,0.1669921875,-1.03515625
1634,0.181640625,0.16015625,-1.041015625
1635,0.1787109375,0.1640625,-1.03515625
1636,0.181640625,0.1669921875,-1.0361328125
1637,0.173828125,0.1611328125,-1.0322265625
1638,0.1767578125,0.1630859375,-1.0322265625
1639,0.1796875,0.1669921875,-1.03515625
1640,0.1806640625,0.1650390625,-1.037109375
1641,0.181640625,0.1650390625,-1.033203125
1642,0.181640625,0.1640625,-1.03515625
1643,0.1826171875,0.1669921875,-1.0361328125
1644,0.1787109375,0.166015625,-1.0380859375
1645,0.17578125,0.1669921875,-1.03515625
1646,0.1796875,0.1630859375,-1.0322265625
1647,0.1796875,0.1669921875,-1.0302734375
1648,0.17578125,0.1650390625,-1.0341796875
1649,0.1787109375,0.1611328125,-1.0361328125
1650,0.1767578125,0.1650390625,-1.0380859375
1651,0.171875,0.1650390625,-1.0390625
1652,0.1748046875,0.15625,-1.033203125
1653,0.1826171875,0.1669921875,-1.03515625
1654,0.17578125,0.162109375,-1.03515625
1655,0.1796875,0.16015625,-1.0341796875
1656,0.177734375,0.1591796875,-1.037109375
1657,0.1796875,0.1650390625,-1.03515625
1658,0.1787109375,0.1650390625,-1.0380859375
1659,0.1748046875,0.1669921875,-1.0361328125
1660,0.1787109375,0.16015625,-1.0341796875
1661,0.177734375,0.1640625,-1.0390625
1662,0.1748046875,0.1650390625,-1.0400390625
1663,0.1767578125,0.166015625,-1.0361328125
1664,0.1748046875,0.166015625,-1.0361328125
1665,0.1787109375,0.162109375,-1.03515625
1666,0.177734375,0.166015625,-1.0361328125
1667,0.1767578125,0.1640625,-1.0380859375
1668,0.18359375,0.162109375,-1.037109375
1669,0.173828125,0.1650390625,-1.037109375
1670,0.1767578125,0.1591796875,-1.0341796875
1671,0.173828125,0.1611328125,-1.0400390625
1672,0.1728515625,0.1611328125,-1.0361328125
1673,0.173828125,0.16796875,-1.0400390625
1674,0.17578125,0.16796875,-1.037109375
1675,0.169921875,0.1640625,-1.03125
1676,0.1748046875,0.1650390625,-1.03515625
1677,0.171875,0.158203125,-1.03515625
1678,0.1787109375,0.162109375,-1.0341796875
1679,0.17578125,0.1630859375,-1.0380859375
1680,0.1796875,0.162109375,-1.03515625
1681,0.1826171875,0.162109375,-1.033203125
1682,0.1767578125,0.166015625,-1.041015625
1683,0.1767578125,0.1572265625,-1.0341796875
1684,0.171875,0.166015625,-1.0341796875
1685,0.181640625,0.158203125,-1.0341796875
1686,0.1796875,0.1640625,-1.0322265625
1687,0.177734375,0.16015625,-1.0322265625
1688,0.177734375,0.1640625,-1.033203125
1689,0.1796875,0.162109375,-1.033203125
1690,0.1787109375,0.1591796875,-1.0361328125
1691,0.17578125,0.1630859375,-1.0380859375
1692,0.1748046875,0.1630859375,-1.041015625
1693,0.17578125,0.1630859375,-1.0361328125
1694,0.1728515625,0.1669921875,-1.0390625
1695,0.173828125,0.166015625,-1.0361328125
1696,0.1826171875,0.1591796875,-1.0322265625
1697,0.171875,0.1640625,-1.0380859375
1698,0.1806640625,0.1572265625,-1.0419921875
1699,0.173828125,0.1669921875,-1.037109375
1700,0.1767578125,0.16015625,-1.033203125
1701,0.1806640625,0.1640625,-1.03515625
1702,0.177734375,0.1669921875,-1.033203125
1703,0.173828125,0.16796875,-1.033203125
1704,0.1767578125,0.1689453125,-1.033203125
1705,0.1767578125,0.1630859375,-1.0380859375
1706,0.173828125,0.1650390625,-1.0361328125
1707,0.1826171875,0.1640625,-1.0400390625
1708,0.1787109375,0.1669921875,-1.0361328125
1709,0.171875,0.166015625,-1.0390625
1710,0.17578125,0.1650390625,-1.04296875
1711,0.181640625,0.1591796875,-1.029296875
1712,0.1728515625,0.1611328125,-1.0322265625
1713,0.177734375,0.166015625,-1.037109375
1714,0.17578125,0.1650390625,-1.0341796875
1715,0.177734375,0.166015625,-1.033203125
1716,0.1767578125,0.162109375,-1.0341796875
1717,0.177734375,0.1650390625,-1.03515625
1718,0.177734375,0.166015625,-1.03125
1719,0.1748046875,0.16015625,-1.0341796875
1720,0.1767578125,0.16015625,-1.0341796875
1721,0.1748046875,0.166015625,-1.0380859375
1722,0.1767578125,0.1591796875,-1.0361328125
1723,0.173828125,0.16015625,-1.03515625
1724,0.1787109375,0.1630859375,-1.03515625
1725,0.1796875,0.158203125,-1.0390625
1726,0.173828125,0.1630859375,-1.0390625
1727,0.171875,0.16015625,-1.0380859375
1728,0.1728515625,0.16015625,-1.0341796875
1729,0.1787109375,0.166015625,-1.0380859375
1730,0.169921875,0.1669921875,-1.0390625
1731,0.1748046875,0.158203125,-1.03515625
1732,0.1787109375,0.1650390625,-1.0341796875
1733,0.1787109375,0.1591796875,-1.0361328125
1734,0.1787109375,0.1630859375,-1.041015625
1735,0.1728515625,0.158203125,-1.0341796875
1736,0.1767578125,0.1630859375,-1.03515625
1737,0.1796875,0.1640625,-1.037109375
1738,0.1787109375,0.166015625,-1.0380859375
1739,0.1767578125,0.1611328125,-1.03515625
1740,0.173828125,0.1552734375,-1.03515625
1741,0.1806640625,0.1650390625,-1.03515625
1742,0.1796875,0.1591796875,-1.0390625
1743,0.181640625,0.16015625,-1.0419921875
1744,0.177734375,0.1630859375,-1.0361328125
1745,0.1767578125,0.1650390625,-1.0380859375
1746,0.1728515625,0.16796875,-1.03515625
1747,0.173828125,0.166015625,-1.0361328125
1748,0.177734375,0.1640625,-1.03515625
1749,0.17578125,0.166015625,-1.0322265625
1750,0.17578125,0.166015625,-1.0361328125
1751,0.17578125,0.1630859375,-1.037109375
1752,0.1728515625,0.1650390625,-1.0341796875
1753,0.171875,0.1640625,-1.0390625
1754,0.1748046875,0.1611328125,-1.0361328125
1755,0.177734375,0.1640625,-1.037109375
1756,0.1748046875,0.16015625,-1.0390625
1757,0.1767578125,0.16015625,-1.037109375
1758,0.17578125,0.1650390625,-1.033203125
1759,0.1767578125,0.16015625,-1.03515625
1760,0.173828125,0.162109375,-1.0361328125
1761,0.177734375,0.1630859375,-1.037109375
1762,0.1787109375,0.1611328125,-1.03515625
1763,0.17578125,0.1640625,-1.041015625
1764,0.1767578125,0.1630859375,-1.033203125
1765,0.17578125,0.1650390625,-1.0361328125
1766,0.173828125,0.1572265625,-1.03515625
1767,0.1748046875,0.16015625,-1.03125
1768,0.1796875,0.1640625,-1.0341796875
1769,0.1748046875,0.166015625,-1.0322265625
1770,0.1767578125,0.162109375,-1.033203125
1771,0.1767578125,0.1591796875,-1.0390625
1772,0.1748046875,0.16015625,-1.03515625
1773,0.1767578125,0.1630859375,-1.0361328125
1774,0.1748046875,0.166015625,-1.03515625
1775,0.17578125,0.1630859375,-1.0341796875
1776,0.1796875,0.1572265625,-1.037109375
1777,0.1787109375,0.158203125,-1.0400390625
1778,0.1787109375,0.16015625,-1.037109375
1779,0.1708984375,0.16015625,-1.0390625
1780,0.1787109375,0.1630859375,-1.0341796875
1781,0.1787109375,0.1611328125,-1.03125
1782,0.1796875,0.1572265625,-1.033203125
1783,0.1796875,0.1630859375,-1.037109375
1784,0.177734375,0.1630859375,-1.0322265625
1785,0.1796875,0.162109375,-1.033203125
1786,0.1748046875,0.162109375,-1.03515625
1787,0.177734375,0.1611328125,-1.037109375
1788,0.17578125,0.1591796875,-1.0361328125
1789,0.1845703125,0.1650390625,-1.0341796875
1790,0.173828125,0.1630859375,-1.037109375
1791,0.181640625,0.1640625,-1.03515625
1792,0.17578125,0.158203125,-1.03515625
1793,0.173828125,0.1640625,-1.0361328125
1794,0.177734375,0.1640625,-1.0322265625
1795,0.17578125,0.162109375,-1.03515625
1796,0.1708984375,0.166015625,-1.0400390625
1797,0.1787109375,0.1650390625,-1.0361328125
1798,0.1748046875,0.166015625,-1.0302734375
1799,0.1826171875,0.1640625,-1.037109375
1800,0.1748046875,0.166015625,-1.033203125
1801,0.171875,0.162109375,-1.0322265625
1802,0.1787109375,0.1572265625,-1.0341796875
1803,0.1787109375,0.1630859375,-1.0341796875
1804,0.177734375,0.1630859375,-1.0361328125
1805,0.173828125,0.1611328125,-1.03515625
1806,0.1748046875,0.1640625,-1.0341796875
1807,0.17578125,0.15625,-1.03515625
1808,0.1787109375,0.16015625,-1.03515625
1809,0.1767578125,0.1630859375,-1.033203125
1810,0.1708984375,0.1611328125,-1.0400390625
1811,0.1708984375,0.166015625,-1.0390625
1812,0.1767578125,0.1591796875,-1.029296875
1813,0.1748046875,0.1650390625,-1.0361328125
1814,0.1787109375,0.16015625,-1.0341796875
1815,0.1787109375,0.1591796875,-1.0341796875
1816,0.177734375,0.158203125,-1.0322265625
1817,0.17578125,0.1640625,-1.0341796875
1818,0.17578125,0.1572265625,-1.033203125
1819,0.181640625,0.1572265625,-1.033203125
1820,0.17578125,0.1591796875,-1.03515625
1821,0.1796875,0.162109375,-1.0390625
1822,0.1806640625,0.1630859375,-1.0380859375
1823,0.173828125,0.1650390625,-1.03515625
1824,0.1728515625,0.1611328125,-1.0380859375
1825,0.1748046875,0.1640625,-1.03125
1826,0.1796875,0.1650390625,-1.037109375
1827,0.1787109375,0.1650390625,-1.037109375
1828,0.177734375,0.1630859375,-1.03515625
1829,0.1787109375,0.1650390625,-1.037109375
1830,0.177734375,0.1640625,-1.033203125
1831,0.1748046875,0.1650390625,-1.037109375
1832,0.1767578125,0.162109375,-1.033203125
1833,0.1787109375,0.158203125,-1.03515625
1834,0.17578125,0.16015625,-1.037109375
1835,0.17578125,0.162109375,-1.037109375
1836,0.1767578125,0.1640625,-1.037109375
1837,0.17578125,0.162109375,-1.0380859375
1838,0.173828125,0.1640625,-1.03515625
1839,0.1787109375,0.162109375,-1.03515625
1840,0.1787109375,0.16015625,-1.0322265625
1841,0.1728515625,0.1650390625,-1.0361328125
1842,0.173828125,0.1611328125,-1.033203125
1843,0.177734375,0.1650390625,-1.03125
1844,0.1787109375,0.1572265625,-1.0322265625
1845,0.177734375,0.1630859375,-1.03125
1846,0.1767578125,0.1640625,-1.0341796875
1847,0.177734375,0.166015625,-1.0341796875
1848,0.18359375,0.16015625,-1.0439453125
1849,0.1796875,0.162109375,-1.04296875
1850,0.177734375,0.1611328125,-1.041015625
1851,0.1796875,0.158203125,-1.0380859375
1852,0.17578125,0.16015625,-1.0380859375
1853,0.1748046875,0.1630859375,-1.041015625
1854,0.17578125,0.1630859375,-1.0341796875
1855,0.181640625,0.16015625,-1.0400390625
1856,0.1826171875,0.1591796875,-1.03515625
1857,0.1787109375,0.166015625,-1.03515625
1858,0.1728515625,0.1591796875,-1.0341796875
1859,0.1796875,0.1650390625,-1.0322265625
1860,0.177734375,0.162109375,-1.03515625
1861,0.1826171875,0.1640625,-1.0361328125
1862,0.1796875,0.1611328125,-1.0341796875
1863,0.1767578125,0.1640625,-1.03515625
1864,0.173828125,0.1650390625,-1.0322265625
1865,0.1748046875,0.16796875,-1.0400390625
1866,0.1787109375,0.1630859375,-1.0361328125
1867,0.1796875,0.1640625,-1.037109375
1868,0.1796875,0.1630859375,-1.0341796875
1869,0.1767578125,0.1669921875,-1.0341796875
1870,0.1767578125,0.166015625,-1.03515625
1871,0.1767578125,0.16015625,-1.033203125
1872,0.1767578125,0.162109375,-1.03515625
1873,0.173828125,0.1640625,-1.0283203125
1874,0.177734375,0.166015625,-1.037109375
1875,0.1767578125,0.1640625,-1.0380859375
1876,0.1767578125,0.1640625,-1.03515625
1877,0.17578125,0.1650390625,-1.0341796875
1878,0.177734375,0.162109375,-1.0341796875
1879,0.1787109375,0.1630859375,-1.0390625
1880,0.1767578125,0.1611328125,-1.0380859375
1881,0.1826171875,0.15625,-1.0341796875
1882,0.1728515625,0.16015625,-1.037109375
1883,0.1787109375,0.1591796875,-1.033203125
1884,0.173828125,0.1650390625,-1.0341796875
1885,0.177734375,0.158203125,-1.03515625
1886,0.177734375,0.1640625,-1.03515625
1887,0.171875,0.1630859375,-1.0361328125
1888,0.1796875,0.162109375,-1.03515625
1889,0.173828125,0.162109375,-1.03515625
1890,0.177734375,0.16015625,-1.033203125
1891,0.1787109375,0.1640625,-1.0322265625
1892,0.1748046875,0.1640625,-1.0400390625
1893,0.1796875,0.16015625,-1.04296875
1894,0.1787109375,0.1572265625,-1.03515625
1895,0.1796875,0.166015625,-1.033203125
1896,0.1875,0.1650390625,-1.0341796875
1897,0.1796875,0.1630859375,-1.0361328125
1898,0.1728515625,0.1650390625,-1.0322265625
1899,0.17578125,0.1611328125,-1.0322265625
1900,0.1796875,0.166015625,-1.0341796875
1901,0.1767578125,0.1630859375,-1.0341796875
1902,0.1826171875,0.1572265625,-1.037109375
1903,0.1767578125,0.1611328125,-1.0361328125
1904,0.1826171875,0.1591796875,-1.03515625
1905,0.1865234375,0.166015625,-1.0341796875
1906,0.17578125,0.166015625,-1.0380859375
1907,0.1787109375,0.158203125,-1.0380859375
1908,0.177734375,0.1630859375,-1.0390625
1909,0.181640625,0.162109375,-1.0341796875
1910,0.1748046875,0.1640625,-1.03515625
1911,0.177734375,0.1669921875,-1.037109375
1912,0.1767578125,0.166015625,-1.0341796875
1913,0.1806640625,0.16015625,-1.0361328125
1914,0.1787109375,0.16015625,-1.033203125
1915,0.1796875,0.1591796875,-1.0341796875
1916,0.18359375,0.1630859375,-1.0322265625
1917,0.1796875,0.1669921875,-1.0341796875
1918,0.173828125,0.1669921875,-1.0361328125
1919,0.17578125,0.1591796875,-1.03515625
1920,0.1787109375,0.1640625,-1.0361328125
1921,0.1748046875,0.1591796875,-1.03515625
1922,0.1787109375,0.1650390625,-1.033203125
1923,0.1787109375,0.16015625,-1.037109375
1924,0.1806640625,0.1611328125,-1.0341796875
1925,0.177734375,0.1650390625,-1.033203125
1926,0.177734375,0.1591796875,-1.0322265625
1927,0.1728515625,0.1611328125,-1.033203125
1928,0.177734375,0.1630859375,-1.033203125
1929,0.1806640625,0.16015625,-1.0361328125
1930,0.1787109375,0.162109375,-1.033203125
1931,0.177734375,0.1611328125,-1.037109375
1932,0.1806640625,0.162109375,-1.041015625
1933,0.177734375,0.1611328125,-1.03515625
1934,0.17578125,0.1572265625,-1.0341796875
1935,0.1826171875,0.162109375,-1.03515625
1936,0.1767578125,0.1611328125,-1.0380859375
1937,0.17578125,0.1572265625,-1.03515625
1938,0.1728515625,0.1640625,-1.0341796875
1939,0.1748046875,0.1650390625,-1.0361328125
1940,0.1787109375,0.158203125,-1.0341796875
1941,0.1787109375,0.16015625,-1.041015625
1942,0.177734375,0.16015625,-1.0361328125
1943,0.1767578125,0.1611328125,-1.03515625
1944,0.1767578125,0.16015625,-1.0361328125
1945,0.1796875,0.15625,-1.0361328125
1946,0.171875,0.1650390625,-1.041015625
1947,0.1796875,0.1591796875,-1.037109375
1948,0.1796875,0.1650390625,-1.0322265625
1949,0.1748046875,0.166015625,-1.03515625
1950,0.1806640625,0.1611328125,-1.0361328125
1951,0.177734375,0.1640625,-1.03515625
1952,0.1796875,0.16015625,-1.033203125
1953,0.1796875,0.1640625,-1.0361328125
1954,0.173828125,0.1630859375,-1.0361328125
1955,0.171875,0.1640625,-1.037109375
1956,0.1787109375,0.1572265625,-1.0341796875
1957,0.17578125,0.1611328125,-1.033203125
1958,0.1787109375,0.162109375,-1.0361328125
1959,0.1787109375,0.1591796875,-1.0341796875
1960,0.1787109375,0.158203125,-1.0361328125
1961,0.177734375,0.1630859375,-1.03515625
1962,0.1787109375,0.1611328125,-1.0341796875
1963,0.1787109375,0.1611328125,-1.03515625
1964,0.1767578125,0.16015625,-1.0341796875
1965,0.1767578125,0.16015625,-1.0322265625
1966,0.177734375,0.1552734375,-1.0361328125
1967,0.177734375,0.1640625,-1.0341796875
1968,0.1767578125,0.15625,-1.0361328125
1969,0.1826171875,0.1650390625,-1.0380859375
1970,0.1796875,0.1630859375,-1.0361328125
1971,0.1806640625,0.1611328125,-1.0390625
1972,0.173828125,0.1611328125,-1.03515625
1973,0.1748046875,0.1669921875,-1.0380859375
1974,0.1787109375,0.1640625,-1.033203125
1975,0.1708984375,0.1591796875,-1.037109375
1976,0.17578125,0.16015625,-1.0400390625
1977,0.1728515625,0.158203125,-1.0361328125
1978,0.1787109375,0.16015625,-1.033203125
1979,0.1748046875,0.158203125,-1.0341796875
1980,0.1767578125,0.1611328125,-1.0341796875
1981,0.1796875,0.1611328125,-1.03515625
1982,0.181640625,0.1650390625,-1.03515625
1983,0.171875,0.1640625,-1.0322265625
1984,0.18359375,0.1572265625,-1.033203125
1985,0.1806640625,0.154296875,-1.037109375
1986,0.1796875,0.16015625,-1.033203125
1987,0.1796875,0.1611328125,-1.0361328125
1988,0.173828125,0.1533203125,-1.0400390625
1989,0.17578125,0.15625,-1.0341796875
1990,0.181640625,0.1630859375,-1.0390625
1991,0.17578125,0.1591796875,-1.03515625
1992,0.1767578125,0.1552734375,-1.03515625
1993,0.1767578125,0.1591796875,-1.037109375
1994,0.185546875,0.158203125,-1.0361328125
1995,0.1767578125,0.1611328125,-1.0361328125
1996,0.1796875,0.16015625,-1.03515625
1997,0.1748046875,0.1640625,-1.0361328125
1998,0.1796875,0.1611328125,-1.03515625
1999,0.177734375,0.1669921875,-1.033203125
2000,0.1796875,0.1650390625,-1.033203125
2001,0.17578125,0.1572265625,-1.0361328125
2002,0.177734375,0.1591796875,-1.033203125
2003,0.171875,0.16015625,-1.0361328125
2004,0.177734375,0.1630859375,-1.044921875
2005,0.1748046875,0.1640625,-1.033203125
2006,0.177734375,0.1640625,-1.0380859375
2007,0.1787109375,0.1591796875,-1.0361328125
2008,0.1748046875,0.1552734375,-1.0380859375
2009,0.1708984375,0.1650390625,-1.04296875
2010,0.171875,0.158203125,-1.0341796875
2011,0.1787109375,0.162109375,-1.0341796875
2012,0.1748046875,0.1591796875,-1.0283203125
2013,0.1748046875,0.1611328125,-1.033203125
2014,0.181640625,0.1630859375,-1.0341796875
2015,0.1787109375,0.162109375,-1.033203125
2016,0.1826171875,0.162109375,-1.033203125
2017,0.1826171875,0.1591796875,-1.0458984375
2018,0.173828125,0.15625,-1.0419921875
2019,0.1806640625,0.1591796875,-1.0419921875
2020,0.17578125,0.1640625,-1.0419921875
2021,0.181640625,0.16015625,-1.037109375
2022,0.1826171875,0.1630859375,-1.0390625
2023,0.1806640625,0.1630859375,-1.0341796875
2024,0.1845703125,0.16015625,-1.03515625
2025,0.177734375,0.1689453125,-1.033203125
2026,0.1806640625,0.16015625,-1.033203125
2027,0.1796875,0.166015625,-1.033203125
2028,0.1767578125,0.1650390625,-1.03515625
2029,0.1796875,0.162109375,-1.03515625
2030,0.177734375,0.1640625,-1.0322265625
2031,0.1796875,0.1572265625,-1.0380859375
2032,0.1806640625,0.162109375,-1.03515625
2033,0.1767578125,0.1611328125,-1.03515625
2034,0.1748046875,0.1689453125,-1.0361328125
2035,0.173828125,0.1611328125,-1.0341796875
2036,0.1767578125,0.16015625,-1.041015625
2037,0.18359375,0.1611328125,-1.0341796875
2038,0.1767578125,0.16015625,-1.03515625
2039,0.1806640625,0.1572265625,-1.0341796875
2040,0.1748046875,0.1630859375,-1.0322265625
2041,0.1806640625,0.16015625,-1.0322265625
2042,0.181640625,0.16015625,-1.03125
2043,0.1748046875,0.1611328125,-1.03515625
2044,0.1748046875,0.1611328125,-1.037109375
2045,0.1767578125,0.1591796875,-1.0283203125
2046,0.1767578125,0.162109375,-1.0341796875
2047,0.177734375,0.1650390625,-1.0341796875
2048,0.181640625,0.1533203125,-1.03515625
2049,0.1787109375,0.162109375,-1.03515625
2050,0.181640625,0.1572265625,-1.03515625
2051,0.1787109375,0.15625,-1.0322265625
2052,0.17578125,0.154296875,-1.0341796875
2053,0.173828125,0.1650390625,-1.037109375
2054,0.177734375,0.16015625,-1.0361328125
2055,0.173828125,0.1572265625,-1.041015625
2056,0.17578125,0.15625,-1.0341796875
2057,0.1787109375,0.1611328125,-1.0322265625
2058,0.1806640625,0.1591796875,-1.03515625
2059,0.1796875,0.162109375,-1.0322265625
2060,0.1865234375,0.162109375,-1.033203125
2061,0.181640625,0.166015625,-1.03515625
2062,0.177734375,0.1572265625,-1.03515625
2063,0.17578125,0.1572265625,-1.041015625
2064,0.1767578125,0.16015625,-1.03515625
2065,0.181640625,0.16015625,-1.03515625
2066,0.1748046875,0.158203125,-1.0283203125
2067,0.1787109375,0.16015625,-1.0361328125
2068,0.181640625,0.166015625,-1.0390625
2069,0.1767578125,0.16015625,-1.0361328125
2070,0.1787109375,0.1630859375,-1.033203125
2071,0.17578125,0.158203125,-1.037109375
2072,0.177734375,0.1611328125,-1.0390625
2073,0.17578125,0.1552734375,-1.03515625
2074,0.1787109375,0.1591796875,-1.0361328125
2075,0.1845703125,0.1591796875,-1.0361328125
2076,0.17578125,0.162109375,-1.03515625
2077,0.1787109375,0.162109375,-1.0400390625
2078,0.1806640625,0.162109375,-1.0400390625
2079,0.1826171875,0.162109375,-1.0380859375
2080,0.1796875,0.1640625,-1.0341796875
2081,0.177734375,0.1591796875,-1.0361328125
2082,0.1767578125,0.158203125,-1.0361328125
2083,0.1767578125,0.1630859375,-1.03515625
2084,0.171875,0.1611328125,-1.03515625
2085,0.185546875,0.1630859375,-1.0361328125
2086,0.17578125,0.1572265625,-1.033203125
2087,0.173828125,0.1572265625,-1.0361328125
2088,0.177734375,0.1640625,-1.0341796875
2089,0.1767578125,0.15625,-1.033203125
2090,0.1787109375,0.1611328125,-1.037109375
2091,0.181640625,0.1591796875,-1.033203125
2092,0.18359375,0.1611328125,-1.0322265625
2093,0.17578125,0.1572265625,-1.037109375
2094,0.177734375,0.1611328125,-1.0380859375
2095,0.1796875,0.1650390625,-1.0341796875
2096,0.1767578125,0.1650390625,-1.03515625
2097,0.1806640625,0.1611328125,-1.0341796875
2098,0.181640625,0.16015625,-1.0400390625
2099,0.181640625,0.1669921875,-1.033203125
2100,0.1767578125,0.1611328125,-1.0341796875
2101,0.1728515625,0.16015625,-1.037109375
2102,0.1806640625,0.158203125,-1.03125
2103,0.1826171875,0.1611328125,-1.0380859375
2104,0.1796875,0.1630859375,-1.0361328125
2105,0.177734375,0.1630859375,-1.033203125
2106,0.177734375,0.16015625,-1.037109375
2107,0.177734375,0.15625,-1.0380859375
2108,0.1845703125,0.1611328125,-1.0390625
2109,0.1748046875,0.1630859375,-1.0361328125
2110,0.1787109375,0.158203125,-1.0390625
2111,0.18359375,0.158203125,-1.0341796875
2112,0.17578125,0.158203125,-1.0361328125
2113,0.1748046875,0.16015625,-1.0322265625
2114,0.1787109375,0.166015625,-1.037109375
2115,0.1796875,0.154296875,-1.0361328125
2116,0.1796875,0.16015625,-1.0341796875
2117,0.17578125,0.158203125,-1.037109375
2118,0.177734375,0.1591796875,-1.0400390625
2119,0.1767578125,0.15625,-1.033203125
2120,0.18359375,0.1640625,-1.0302734375
2121,0.1796875,0.1630859375,-1.0380859375
2122,0.177734375,0.15625,-1.0361328125
2123,0.1796875,0.1630859375,-1.0341796875
2124,0.1787109375,0.16015625,-1.037109375
2125,0.1787109375,0.1572265625,-1.037109375
2126,0.17578125,0.16015625,-1.03515625
2127,0.1767578125,0.1572265625,-1.0322265625
2128,0.1748046875,0.1572265625,-1.03125
2129,0.1787109375,0.1572265625,-1.0341796875
2130,0.1767578125,0.1591796875,-1.033203125
2131,0.177734375,0.15625,-1.0302734375
2132,0.177734375,0.1630859375,-1.0322265625
2133,0.1787109375,0.1533203125,-1.03125
2134,0.1787109375,0.16015625,-1.03125
2135,0.1796875,0.16015625,-1.0322265625
2136,0.181640625,0.15625,-1.0322265625
2137,0.1826171875,0.16015625,-1.0361328125
2138,0.1796875,0.166015625,-1.03515625
2139,0.1787109375,0.1630859375,-1.0341796875
2140,0.1865234375,0.16015625,-1.0361328125
2141,0.177734375,0.16015625,-1.033203125
2142,0.18359375,0.1650390625,-1.044921875
2143,0.1767578125,0.162109375,-1.0361328125
2144,0.1796875,0.166015625,-1.0419921875
2145,0.1767578125,0.1640625,-1.0419921875
2146,0.177734375,0.1650390625,-1.04296875
2147,0.1806640625,0.16796875,-1.048828125
2148,0.1767578125,0.166015625,-1.04296875
2149,0.1806640625,0.16015625,-1.0400390625
2150,0.173828125,0.1640625,-1.0400390625
2151,0.177734375,0.1669921875,-1.0361328125
2152,0.171875,0.1640625,-1.0322265625
2153,0.1787109375,0.1572265625,-1.0341796875
2154,0.17578125,0.1650390625,-1.0283203125
2155,0.18359375,0.1611328125,-1.03125
2156,0.17578125,0.1640625,-1.03125
2157,0.17578125,0.1650390625,-1.0322265625
2158,0.17578125,0.1591796875,-1.0341796875
2159,0.177734375,0.1611328125,-1.037109375
2160,0.1787109375,0.1640625,-1.0390625
2161,0.1796875,0.1630859375,-1.0390625
2162,0.1796875,0.166015625,-1.03515625
2163,0.1796875,0.16015625,-1.0361328125
2164,0.1796875,0.1650390625,-1.03515625
2165,0.177734375,0.1640625,-1.03515625
2166,0.181640625,0.1611328125,-1.0390625
2167,0.1748046875,0.162109375,-1.0390625
2168,0.1787109375,0.1630859375,-1.0400390625
2169,0.17578125,0.1591796875,-1.0380859375
2170,0.1787109375,0.1640625,-1.0361328125
2171,0.17578125,0.1611328125,-1.0419921875
2172,0.1767578125,0.15625,-1.03515625
2173,0.1787109375,0.162109375,-1.0361328125
2174,0.177734375,0.162109375,-1.03125
2175,0.1826171875,0.166015625,-1.0283203125
2176,0.1796875,0.158203125,-1.0302734375
2177,0.1767578125,0.1630859375,-1.0322265625
2178,0.1787109375,0.1630859375,-1.0322265625
2179,0.1767578125,0.1611328125,-1.03515625
2180,0.1796875,0.1611328125,-1.04296875
2181,0.171875,0.1630859375,-1.0458984375
2182,0.1767578125,0.1650390625,-1.0498046875
2183,0.177734375,0.1591796875,-1.0478515625
2184,0.1787109375,0.1630859375,-1.0419921875
2185,0.17578125,0.1630859375,-1.04296875
2186,0.18359375,0.1689453125,-1.044921875
2187,0.1796875,0.1640625,-1.0439453125
2188,0.1806640625,0.162109375,-1.0439453125
2189,0.1845703125,0.1650390625,-1.0361328125
2190,0.1826171875,0.15625,-1.0322265625
2191,0.1865234375,0.16796875,-1.0283203125
2192,0.1826171875,0.1650390625,-1.03125
2193,0.1826171875,0.1640625,-1.0283203125
2194,0.1845703125,0.162109375,-1.0341796875
2195,0.1865234375,0.16796875,-1.0302734375
2196,0.1884765625,0.16796875,-1.033203125
2197,0.1845703125,0.169921875,-1.0283203125
2198,0.1884765625,0.166015625,-1.0322265625
2199,0.1796875,0.1591796875,-1.0283203125
2200,0.1806640625,0.166015625,-1.0302734375
2201,0.1875,0.166015625,-1.0322265625
2202,0.181640625,0.1640625,-1.03125
2203,0.18359375,0.1640625,-1.03515625
2204,0.1826171875,0.1630859375,-1.033203125
2205,0.1875,0.166015625,-1.0341796875
2206,0.1826171875,0.1640625,-1.0302734375
2207,0.1845703125,0.158203125,-1.03515625
2208,0.1826171875,0.1669921875,-1.037109375
2209,0.1845703125,0.16015625,-1.0322265625
2210,0.185546875,0.1650390625,-1.029296875
2211,0.18359375,0.1611328125,-1.03515625
2212,0.185546875,0.1640625,-1.029296875
2213,0.1865234375,0.166015625,-1.0322265625
2214,0.1884765625,0.1650390625,-1.0390625
2215,0.1845703125,0.1650390625,-1.0361328125
2216,0.1875,0.1630859375,-1.0380859375
2217,0.1875,0.162109375,-1.0361328125
2218,0.1845703125,0.166015625,-1.0341796875
2219,0.1865234375,0.1630859375,-1.033203125
2220,0.18359375,0.166015625,-1.037109375
2221,0.1865234375,0.1640625,-1.037109375
2222,0.1826171875,0.1611328125,-1.03515625
2223,0.18359375,0.1611328125,-1.0380859375
2224,0.1796875,0.162109375,-1.0341796875
2225,0.1845703125,0.16015625,-1.03515625
2226,0.185546875,0.1669921875,-1.0380859375
2227,0.1865234375,0.16015625,-1.03515625
2228,0.1875,0.1650390625,-1.0322265625
2229,0.1826171875,0.15625,-1.02734375
2230,0.1884765625,0.1650390625,-1.0302734375
2231,0.1875,0.166015625,-1.033203125
2232,0.1875,0.1591796875,-1.03515625
2233,0.1884765625,0.1630859375,-1.033203125
2234,0.1875,0.1650390625,-1.0361328125
2235,0.1884765625,0.162109375,-1.0341796875
2236,0.18359375,0.16015625,-1.0361328125
2237,0.1826171875,0.1591796875,-1.037109375
2238,0.1826171875,0.1591796875,-1.03515625
2239,0.18359375,0.158203125,-1.0419921875
2240,0.1865234375,0.16015625,-1.037109375
2241,0.18359375,0.1591796875,-1.0341796875
2242,0.1845703125,0.1572265625,-1.0322265625
2243,0.1845703125,0.15625,-1.03125
2244,0.1875,0.1640625,-1.0341796875
2245,0.19140625,0.15625,-1.0341796875
2246,0.1865234375,0.1591796875,-1.033203125
2247,0.18359375,0.1591796875,-1.03125
2248,0.1826171875,0.1640625,-1.0341796875
2249,0.1884765625,0.166015625,-1.0322265625
2250,0.1875,0.162109375,-1.03515625
2251,0.1845703125,0.1611328125,-1.03515625
2252,0.1865234375,0.1591796875,-1.033203125
2253,0.185546875,0.1669921875,-1.03515625
2254,0.18359375,0.1611328125,-1.033203125
2255,0.1875,0.1669921875,-1.0322265625
2256,0.1865234375,0.16015625,-1.0341796875
2257,0.1904296875,0.1640625,-1.0341796875
2258,0.1845703125,0.1640625,-1.0322265625
2259,0.189453125,0.1611328125,-1.03125
2260,0.1875,0.162109375,-1.0341796875
2261,0.18359375,0.1669921875,-1.0341796875
2262,0.185546875,0.1572265625,-1.0380859375
2263,0.18359375,0.158203125,-1.0380859375
2264,0.1884765625,0.1611328125,-1.029296875
2265,0.181640625,0.162109375,-1.0341796875
2266,0.1884765625,0.1591796875,-1.033203125
2267,0.1796875,0.16015625,-1.03515625
2268,0.1845703125,0.16015625,-1.033203125
2269,0.1865234375,0.1611328125,-1.0341796875
2270,0.1826171875,0.16015625,-1.033203125
2271,0.1865234375,0.158203125,-1.033203125
2272,0.1826171875,0.162109375,-1.03125
2273,0.1806640625,0.1640625,-1.0380859375
2274,0.1826171875,0.1650390625,-1.0341796875
2275,0.1875,0.16015625,-1.0341796875
2276,0.185546875,0.1640625,-1.0341796875
2277,0.1845703125,0.158203125,-1.0361328125
2278,0.18359375,0.1650390625,-1.03125
2279,0.1875,0.1669921875,-1.0341796875
2280,0.18359375,0.1640625,-1.0341796875
2281,0.18359375,0.1650390625,-1.0322265625
2282,0.1865234375,0.162109375,-1.0400390625
2283,0.189453125,0.15625,-1.0361328125
2284,0.1806640625,0.1630859375,-1.033203125
2285,0.1865234375,0.162109375,-1.03515625
2286,0.1845703125,0.1650390625,-1.0380859375
2287,0.1884765625,0.1630859375,-1.0361328125
2288,0.1884765625,0.162109375,-1.0380859375
2289,0.1875,0.162109375,-1.033203125
2290,0.1787109375,0.1640625,-1.03515625
2291,0.1845703125,0.15625,-1.03515625
2292,0.1875,0.1650390625,-1.033203125
2293,0.18359375,0.162109375,-1.037109375
2294,0.1845703125,0.16015625,-1.0361328125
2295,0.1845703125,0.1611328125,-1.033203125
2296,0.1796875,0.1630859375,-1.0322265625
2297,0.1865234375,0.1591796875,-1.037109375
2298,0.1826171875,0.16015625,-1.0341796875
2299,0.189453125,0.158203125,-1.033203125
2300,0.1806640625,0.1591796875,-1.0322265625
2301,0.1865234375,0.1650390625,-1.0322265625
2302,0.181640625,0.15625,-1.0361328125
2303,0.1884765625,0.1650390625,-1.0341796875
2304,0.1826171875,0.1640625,-1.03515625
2305,0.1865234375,0.1669921875,-1.0361328125
2306,0.181640625,0.1650390625,-1.0341796875
2307,0.1796875,0.1630859375,-1.0380859375
2308,0.1796875,0.162109375,-1.0341796875
2309,0.1875,0.1630859375,-1.033203125
2310,0.1826171875,0.1640625,-1.0322265625
2311,0.1767578125,0.1640625,-1.033203125
2312,0.1865234375,0.16015625,-1.033203125
2313,0.18359375,0.1591796875,-1.03515625
2314,0.1884765625,0.162109375,-1.033203125
2315,0.185546875,0.1669921875,-1.04296875
2316,0.1845703125,0.1533203125,-1.033203125
2317,0.18359375,0.154296875,-1.033203125
2318,0.1875,0.1572265625,-1.03515625
2319,0.18359375,0.1572265625,-1.0341796875
2320,0.1787109375,0.16015625,-1.033203125
2321,0.185546875,0.1611328125,-1.0341796875
2322,0.185546875,0.16796875,-1.0322265625
2323,0.189453125,0.1640625,-1.0361328125
2324,0.1796875,0.1572265625,-1.0361328125
2325,0.1875,0.1611328125,-1.0400390625
2326,0.1796875,0.1640625,-1.0380859375
2327,0.1787109375,0.1630859375,-1.0400390625
2328,0.181640625,0.1591796875,-1.0380859375
2329,0.1875,0.1640625,-1.037109375
2330,0.1865234375,0.1640625,-1.0341796875
2331,0.181640625,0.162109375,-1.03515625
2332,0.1884765625,0.1591796875,-1.0341796875
2333,0.1845703125,0.1640625,-1.0361328125
2334,0.18359375,0.1640625,-1.033203125
2335,0.1875,0.162109375,-1.033203125
2336,0.177734375,0.1572265625,-1.0341796875
2337,0.1796875,0.1611328125,-1.0322265625
2338,0.1787109375,0.1640625,-1.0322265625
2339,0.181640625,0.1640625,-1.03125
2340,0.1796875,0.166015625,-1.0361328125
2341,0.1875,0.1611328125,-1.0283203125
2342,0.1748046875,0.1650390625,-1.03515625
2343,0.1796875,0.1611328125,-1.0322265625
2344,0.181640625,0.1650390625,-1.037109375
2345,0.1767578125,0.16015625,-1.037109375
2346,0.1904296875,0.1669921875,-1.0400390625
2347,0.1845703125,0.1591796875,-1.0419921875
2348,0.177734375,0.1611328125,-1.0380859375
2349,0.185546875,0.1640625,-1.037109375
2350,0.18359375,0.1669921875,-1.037109375
2351,0.181640625,0.1630859375,-1.0322265625
2352,0.1845703125,0.1650390625,-1.03515625
2353,0.1806640625,0.1640625,-1.0380859375
2354,0.185546875,0.1630859375,-1.03515625
2355,0.185546875,0.16015625,-1.0380859375
2356,0.1865234375,0.166015625,-1.037109375
2357,0.1865234375,0.16015625,-1.0341796875
2358,0.1796875,0.166015625,-1.0380859375
2359,0.1865234375,0.16015625,-1.03125
2360,0.1865234375,0.158203125,-1.037109375
2361,0.18359375,0.1572265625,-1.033203125
2362,0.18359375,0.1630859375,-1.03515625
2363,0.1845703125,0.1611328125,-1.0390625
2364,0.1787109375,0.1591796875,-1.0341796875
2365,0.1875,0.1611328125,-1.0341796875
2366,0.177734375,0.1572265625,-1.0361328125
2367,0.1884765625,0.1611328125,-1.033203125
2368,0.1845703125,0.166015625,-1.037109375
2369,0.1845703125,0.1572265625,-1.0341796875
2370,0.1845703125,0.1650390625,-1.037109375
2371,0.181640625,0.1630859375,-1.0341796875
2372,0.1865234375,0.1591796875,-1.03515625
2373,0.1826171875,0.1640625,-1.0390625
2374,0.185546875,0.1591796875,-1.03515625
2375,0.1845703125,0.1640625,-1.0390625
2376,0.181640625,0.166015625,-1.0341796875
2377,0.1865234375,0.16015625,-1.0380859375
2378,0.1826171875,0.1650390625,-1.0322265625
2379,0.1796875,0.1572265625,-1.041015625
2380,0.1796875,0.1630859375,-1.033203125
2381,0.177734375,0.1630859375,-1.0341796875
2382,0.1875,0.1630859375,-1.0322265625
2383,0.1865234375,0.1591796875,-1.033203125
2384,0.18359375,0.1640625,-1.037109375
2385,0.1845703125,0.1630859375,-1.0341796875
2386,0.181640625,0.1591796875,-1.0361328125
2387,0.189453125,0.1591796875,-1.033203125
2388,0.1826171875,0.1533203125,-1.0361328125
2389,0.1845703125,0.1640625,-1.037109375
2390,0.1806640625,0.1591796875,-1.037109375
2391,0.18359375,0.16015625,-1.0419921875
2392,0.18359375,0.1513671875,-1.0341796875
2393,0.1826171875,0.1572265625,-1.0322265625
2394,0.1806640625,0.1611328125,-1.033203125
2395,0.1904296875,0.16015625,-1.03515625
2396,0.1875,0.1591796875,-1.0322265625
2397,0.1875,0.1669921875,-1.03125
2398,0.1865234375,0.16796875,-1.03515625
2399,0.1845703125,0.1572265625,-1.03515625
2400,0.1865234375,0.1572265625,-1.033203125
2401,0.181640625,0.1611328125,-1.0380859375
2402,0.1796875,0.154296875,-1.0341796875
2403,0.1884765625,0.158203125,-1.033203125
2404,0.181640625,0.1572265625,-1.03515625
2405,0.1796875,0.1640625,-1.0341796875
2406,0.185546875,0.1650390625,-1.033203125
2407,0.1904296875,0.166015625,-1.0322265625
2408,0.1865234375,0.1650390625,-1.0341796875
2409,0.1826171875,0.1630859375,-1.0361328125
2410,0.1806640625,0.1669921875,-1.033203125
2411,0.1826171875,0.1572265625,-1.0361328125
2412,0.1796875,0.158203125,-1.0380859375
2413,0.1845703125,0.162109375,-1.03515625
2414,0.18359375,0.16796875,-1.03515625
2415,0.18359375,0.1640625,-1.037109375
2416,0.1865234375,0.1640625,-1.03515625
2417,0.1845703125,0.1591796875,-1.03515625
2418,0.18359375,0.1650390625,-1.03515625
2419,0.1845703125,0.1640625,-1.0341796875
2420,0.1845703125,0.1572265625,-1.0380859375
2421,0.1767578125,0.16015625,-1.03515625
2422,0.181640625,0.158203125,-1.033203125
2423,0.1787109375,0.1591796875,-1.033203125
2424,0.1884765625,0.162109375,-1.0322265625
2425,0.181640625,0.1591796875,-1.0341796875
2426,0.1845703125,0.1611328125,-1.0361328125
2427,0.1796875,0.15625,-1.033203125
2428,0.1826171875,0.158203125,-1.03515625
2429,0.1826171875,0.1533203125,-1.0341796875
2430,0.18359375,0.1611328125,-1.0341796875
2431,0.181640625,0.1630859375,-1.0341796875
2432,0.18359375,0.15625,-1.0361328125
2433,0.18359375,0.162109375,-1.0361328125
2434,0.18359375,0.1630859375,-1.0322265625
2435,0.1806640625,0.1640625,-1.0361328125
2436,0.193359375,0.1533203125,-1.0322265625
2437,0.1748046875,0.1572265625,-1.029296875
2438,0.1875,0.1669921875,-1.03515625
2439,0.185546875,0.1611328125,-1.0390625
2440,0.1865234375,0.1572265625,-1.03515625
2441,0.1796875,0.1552734375,-1.041015625
2442,0.181640625,0.1630859375,-1.033203125
2443,0.17578125,0.1611328125,-1.0341796875
2444,0.18359375,0.1630859375,-1.0361328125
2445,0.1767578125,0.16015625,-1.033203125
2446,0.18359375,0.1640625,-1.0380859375
2447,0.18359375,0.1630859375,-1.0390625
2448,0.1826171875,0.1650390625,-1.0361328125
2449,0.1845703125,0.1640625,-1.0380859375
2450,0.18359375,0.166015625,-1.0400390625
2451,0.1865234375,0.1611328125,-1.03515625
2452,0.1845703125,0.1650390625,-1.0302734375
2453,0.1796875,0.158203125,-1.0341796875
2454,0.185546875,0.16015625,-1.037109375
2455,0.1875,0.1650390625,-1.0322265625
2456,0.185546875,0.162109375,-1.03515625
2457,0.1845703125,0.1513671875,-1.03515625
2458,0.1787109375,0.16015625,-1.0341796875
2459,0.18359375,0.1533203125,-1.033203125
2460,0.18359375,0.15234375,-1.03515625
2461,0.181640625,0.1591796875,-1.0322265625
2462,0.1875,0.158203125,-1.03125
2463,0.181640625,0.1513671875,-1.0302734375
2464,0.1806640625,0.1572265625,-1.03125
2465,0.1865234375,0.16015625,-1.033203125
2466,0.1865234375,0.1572265625,-1.033203125
2467,0.1826171875,0.16015625,-1.033203125
2468,0.185546875,0.1640625,-1.03515625
2469,0.1865234375,0.1640625,-1.04296875
2470,0.1806640625,0.154296875,-1.0419921875
2471,0.1865234375,0.1572265625,-1.041015625
2472,0.1845703125,0.16015625,-1.0380859375
2473,0.1826171875,0.1552734375,-1.04296875
2474,0.1806640625,0.16015625,-1.041015625
2475,0.1767578125,0.1591796875,-1.0419921875
2476,0.18359375,0.1611328125,-1.0341796875
2477,0.1845703125,0.1611328125,-1.03515625
2478,0.1826171875,0.162109375,-1.033203125
2479,0.18359375,0.162109375,-1.029296875
2480,0.185546875,0.1650390625,-1.033203125
2481,0.1865234375,0.154296875,-1.0322265625
2482,0.1875,0.15625,-1.033203125
2483,0.1875,0.1611328125,-1.033203125
2484,0.1845703125,0.1591796875,-1.0322265625
2485,0.181640625,0.16015625,-1.0341796875
2486,0.1845703125,0.158203125,-1.0341796875
2487,0.17578125,0.15625,-1.0341796875
2488,0.1845703125,0.1572265625,-1.03515625
2489,0.1826171875,0.154296875,-1.0361328125
2490,0.1826171875,0.1572265625,-1.0390625
2491,0.1875,0.154296875,-1.0361328125
2492,0.171875,0.1669921875,-1.037109375
2493,0.1845703125,0.15234375,-1.0322265625
2494,0.1806640625,0.158203125,-1.0341796875
2495,0.181640625,0.162109375,-1.033203125
2496,0.1796875,0.1572265625,-1.0361328125
2497,0.181640625,0.1591796875,-1.0361328125
2498,0.18359375,0.154296875,-1.0341796875
2499,0.18359375,0.1611328125,-1.03515625
2500,0.1826171875,0.15234375,-1.041015625
2501,0.1826171875,0.15625,-1.0380859375
2502,0.18359375,0.154296875,-1.03515625
2503,0.1826171875,0.1533203125,-1.033203125
2504,0.1826171875,0.1572265625,-1.0341796875
2505,0.1845703125,0.1591796875,-1.0361328125
2506,0.18359375,0.154296875,-1.0361328125
2507,0.1787109375,0.154296875,-1.03515625
2508,0.1826171875,0.1572265625,-1.037109375
2509,0.1806640625,0.15234375,-1.033203125
2510,0.1796875,0.15234375,-1.033203125
2511,0.1787109375,0.158203125,-1.0380859375
2512,0.1826171875,0.1611328125,-1.033203125
2513,0.1787109375,0.1484375,-1.0390625
2514,0.1845703125,0.1572265625,-1.029296875
2515,0.1826171875,0.1552734375,-1.03125
2516,0.18359375,0.1591796875,-1.0322265625
2517,0.1865234375,0.15625,-1.033203125
2518,0.1884765625,0.1591796875,-1.03515625
2519,0.1845703125,0.1591796875,-1.0322265625
2520,0.1826171875,0.1591796875,-1.0302734375
2521,0.1826171875,0.15625,-1.0361328125
2522,0.1865234375,0.154296875,-1.03515625
2523,0.1845703125,0.158203125,-1.033203125
2524,0.18359375,0.1640625,-1.037109375
2525,0.1884765625,0.158203125,-1.03515625
2526,0.1884765625,0.1669921875,-1.0380859375
2527,0.181640625,0.1572265625,-1.0380859375
2528,0.177734375,0.15625,-1.033203125
2529,0.1826171875,0.1572265625,-1.03515625
2530,0.1787109375,0.1591796875,-1.033203125
2531,0.181640625,0.1640625,-1.033203125
2532,0.1865234375,0.1572265625,-1.0341796875
2533,0.1826171875,0.154296875,-1.033203125
2534,0.1826171875,0.1572265625,-1.0341796875
2535,0.1826171875,0.154296875,-1.0341796875
2536,0.1845703125,0.162109375,-1.0322265625
2537,0.1796875,0.1611328125,-1.037109375
2538,0.1826171875,0.1572265625,-1.033203125
2539,0.1845703125,0.15234375,-1.037109375
2540,0.1748046875,0.1552734375,-1.0380859375
2541,0.1884765625,0.1494140625,-1.0302734375
2542,0.18359375,0.154296875,-1.02734375
2543,0.1865234375,0.1533203125,-1.0419921875
2544,0.1904296875,0.154296875,-1.0419921875
2545,0.185546875,0.1591796875,-1.0400390625
2546,0.181640625,0.154296875,-1.037109375
2547,0.1767578125,0.1552734375,-1.0361328125
2548,0.1845703125,0.162109375,-1.0361328125
2549,0.18359375,0.15625,-1.0322265625
2550,0.181640625,0.1513671875,-1.0322265625
2551,0.1884765625,0.1572265625,-1.0322265625
2552,0.1904296875,0.158203125,-1.0302734375
2553,0.1884765625,0.162109375,-1.033203125
2554,0.1884765625,0.15234375,-1.037109375
2555,0.1796875,0.1630859375,-1.033203125
2556,0.18359375,0.1572265625,-1.0361328125
2557,0.1875,0.1630859375,-1.03515625
2558,0.1875,0.1572265625,-1.03515625
2559,0.1787109375,0.154296875,-1.0341796875
2560,0.1796875,0.16015625,-1.0361328125
2561,0.1787109375,0.162109375,-1.033203125
2562,0.1796875,0.15625,-1.03515625
2563,0.1796875,0.158203125,-1.0400390625
2564,0.18359375,0.1572265625,-1.0322265625
2565,0.185546875,0.1591796875,-1.037109375
2566,0.181640625,0.15234375,-1.033203125
2567,0.18359375,0.15625,-1.0322265625
2568,0.185546875,0.1533203125,-1.0341796875
2569,0.1865234375,0.15234375,-1.0341796875
2570,0.1826171875,0.1572265625,-1.0341796875
2571,0.18359375,0.16015625,-1.03125
2572,0.18359375,0.1572265625,-1.033203125
2573,0.1806640625,0.1533203125,-1.033203125
2574,0.1806640625,0.1572265625,-1.037109375
2575,0.1826171875,0.16015625,-1.033203125
2576,0.1806640625,0.154296875,-1.0361328125
2577,0.181640625,0.1572265625,-1.033203125
2578,0.177734375,0.154296875,-1.0341796875
2579,0.1845703125,0.15625,-1.03515625
2580,0.181640625,0.15234375,-1.029296875
2581,0.181640625,0.15625,-1.03125
2582,0.18359375,0.158203125,-1.0341796875
2583,0.1826171875,0.154296875,-1.03515625
2584,0.1845703125,0.1591796875,-1.03515625
2585,0.1787109375,0.154296875,-1.0380859375
2586,0.181640625,0.1572265625,-1.0341796875
2587,0.181640625,0.15625,-1.037109375
2588,0.1826171875,0.15625,-1.0390625
2589,0.1845703125,0.1591796875,-1.0380859375
2590,0.1806640625,0.158203125,-1.041015625
2591,0.1875,0.1572265625,-1.0400390625
2592,0.1767578125,0.1572265625,-1.0390625
2593,0.18359375,0.1572265625,-1.0439453125
2594,0.1796875,0.16015625,-1.0400390625
2595,0.1845703125,0.1591796875,-1.037109375
2596,0.173828125,0.1591796875,-1.0361328125
2597,0.1787109375,0.1533203125,-1.0400390625
2598,0.1787109375,0.15234375,-1.03515625
2599,0.177734375,0.1552734375,-1.0361328125
2600,0.1845703125,0.1572265625,-1.033203125
2601,0.1806640625,0.1533203125,-1.033203125
2602,0.1806640625,0.154296875,-1.033203125
2603,0.18359375,0.1533203125,-1.0322265625
2604,0.1826171875,0.15625,-1.0341796875
2605,0.181640625,0.150390625,-1.0302734375
2606,0.1767578125,0.1513671875,-1.0322265625
2607,0.181640625,0.16015625,-1.033203125
2608,0.1875,0.1513671875,-1.0283203125
2609,0.18359375,0.150390625,-1.0322265625
2610,0.1796875,0.158203125,-1.0322265625
2611,0.18359375,0.158203125,-1.03515625
2612,0.1875,0.1552734375,-1.0390625
2613,0.1767578125,0.154296875,-1.0361328125
2614,0.177734375,0.15625,-1.0361328125
2615,0.185546875,0.15625,-1.04296875
2616,0.1845703125,0.15625,-1.0390625
2617,0.18359375,0.154296875,-1.03515625
2618,0.177734375,0.1630859375,-1.041015625
2619,0.18359375,0.154296875,-1.03515625
2620,0.1845703125,0.1591796875,-1.0380859375
2621,0.1845703125,0.1591796875,-1.0380859375
2622,0.181640625,0.1552734375,-1.03515625
2623,0.181640625,0.162109375,-1.037109375
2624,0.1875,0.1533203125,-1.033203125
2625,0.1796875,0.15625,-1.033203125
2626,0.1796875,0.16015625,-1.033203125
2627,0.181640625,0.16015625,-1.0341796875
2628,0.1767578125,0.1533203125,-1.0302734375
2629,0.1796875,0.158203125,-1.0322265625
2630,0.18359375,0.1611328125,-1.03125
2631,0.1796875,0.158203125,-1.033203125
2632,0.1787109375,0.16015625,-1.037109375
2633,0.1845703125,0.1513671875,-1.0400390625
2634,0.173828125,0.16015625,-1.0390625
2635,0.181640625,0.1484375,-1.0361328125
2636,0.1826171875,0.1611328125,-1.0361328125
2637,0.1787109375,0.162109375,-1.033203125
2638,0.1806640625,0.1611328125,-1.0341796875
2639,0.1826171875,0.1572265625,-1.0390625
2640,0.1845703125,0.1552734375,-1.037109375
2641,0.181640625,0.154296875,-1.0361328125
2642,0.1865234375,0.1533203125,-1.0322265625
2643,0.1845703125,0.154296875,-1.0322265625
2644,0.1884765625,0.15625,-1.0302734375
2645,0.181640625,0.1591796875,-1.0380859375
2646,0.1826171875,0.158203125,-1.03515625
2647,0.18359375,0.1513671875,-1.04296875
2648,0.1845703125,0.158203125,-1.0380859375
2649,0.17578125,0.15625,-1.037109375
2650,0.1826171875,0.158203125,-1.037109375
2651,0.1796875,0.15625,-1.0400390625
2652,0.1767578125,0.15625,-1.037109375
2653,0.177734375,0.154296875,-1.041015625
2654,0.17578125,0.15234375,-1.037109375
2655,0.1845703125,0.15234375,-1.0361328125
2656,0.18359375,0.15625,-1.0361328125
2657,0.1787109375,0.1513671875,-1.0361328125
2658,0.18359375,0.16015625,-1.037109375
2659,0.18359375,0.1572265625,-1.037109375
2660,0.1826171875,0.1533203125,-1.0322265625
2661,0.1796875,0.1552734375,-1.0380859375
2662,0.1796875,0.162109375,-1.0341796875
2663,0.1787109375,0.1552734375,-1.033203125
2664,0.1796875,0.158203125,-1.033203125
2665,0.1865234375,0.16015625,-1.0361328125
2666,0.1845703125,0.1533203125,-1.0322265625
2667,0.1875,0.154296875,-1.0390625
2668,0.1826171875,0.1572265625,-1.033203125
2669,0.1826171875,0.1591796875,-1.0341796875
2670,0.1767578125,0.1591796875,-1.03515625
2671,0.18359375,0.1533203125,-1.0341796875
2672,0.181640625,0.1591796875,-1.0361328125
2673,0.177734375,0.1572265625,-1.0380859375
2674,0.1826171875,0.158203125,-1.037109375
2675,0.1806640625,0.1552734375,-1.0361328125
2676,0.1796875,0.16015625,-1.0400390625
2677,0.1826171875,0.1591796875,-1.0341796875
2678,0.17578125,0.154296875,-1.0361328125
2679,0.17578125,0.1552734375,-1.0302734375
2680,0.1806640625,0.162109375,-1.0380859375
2681,0.181640625,0.1533203125,-1.033203125
2682,0.1826171875,0.16015625,-1.037109375
2683,0.1826171875,0.1572265625,-1.033203125
2684,0.1787109375,0.158203125,-1.037109375
2685,0.177734375,0.15625,-1.0341796875
2686,0.1806640625,0.15625,-1.0361328125
2687,0.1767578125,0.162109375,-1.037109375
2688,0.1845703125,0.15625,-1.0302734375
2689,0.18359375,0.1572265625,-1.0341796875
2690,0.18359375,0.154296875,-1.03515625
2691,0.1748046875,0.16015625,-1.0322265625
2692,0.1806640625,0.1513671875,-1.03515625
2693,0.1787109375,0.1572265625,-1.0322265625
2694,0.1787109375,0.1552734375,-1.03515625
2695,0.173828125,0.162109375,-1.0322265625
2696,0.181640625,0.1640625,-1.0361328125
2697,0.18359375,0.15625,-1.03515625
2698,0.181640625,0.1552734375,-1.0361328125
2699,0.1845703125,0.154296875,-1.037109375
2700,0.18359375,0.1533203125,-1.033203125
2701,0.1826171875,0.1533203125,-1.033203125
2702,0.1767578125,0.1552734375,-1.0361328125
2703,0.181640625,0.154296875,-1.0341796875
2704,0.181640625,0.15625,-1.033203125
2705,0.1796875,0.1533203125,-1.0361328125
2706,0.18359375,0.1552734375,-1.0361328125
2707,0.1796875,0.15625,-1.03515625
2708,0.18359375,0.1611328125,-1.0322265625
2709,0.1787109375,0.1591796875,-1.0361328125
2710,0.1826171875,0.1591796875,-1.033203125
2711,0.1953125,0.1630859375,-1.03515625
2712,0.1630859375,0.1435546875,-1.033203125
2713,0.1787109375,0.1591796875,-1.0419921875
2714,0.1884765625,0.154296875,-1.0390625
2715,0.1787109375,0.162109375,-1.037109375
2716,0.177734375,0.15625,-1.0390625
2717,0.1787109375,0.15625,-1.03515625
2718,0.1767578125,0.154296875,-1.0361328125
2719,0.173828125,0.158203125,-1.041015625
2720,0.177734375,0.1572265625,-1.0390625
2721,0.1806640625,0.1552734375,-1.041015625
2722,0.181640625,0.1533203125,-1.0380859375
2723,0.1767578125,0.1611328125,-1.0361328125
2724,0.1806640625,0.15625,-1.03515625
2725,0.185546875,0.154296875,-1.03515625
2726,0.1875,0.1591796875,-1.0322265625
2727,0.18359375,0.15234375,-1.03515625
2728,0.1787109375,0.150390625,-1.037109375
2729,0.18359375,0.1513671875,-1.0341796875
2730,0.1806640625,0.1611328125,-1.03515625
2731,0.1806640625,0.1533203125,-1.0341796875
2732,0.18359375,0.15234375,-1.03515625
2733,0.1845703125,0.1572265625,-1.0341796875
2734,0.1806640625,0.158203125,-1.037109375
2735,0.1845703125,0.15234375,-1.0400390625
2736,0.1875,0.158203125,-1.04296875
2737,0.1767578125,0.1533203125,-1.0380859375
2738,0.18359375,0.1533203125,-1.0361328125
2739,0.1767578125,0.15234375,-1.0390625
2740,0.1796875,0.1591796875,-1.0361328125
2741,0.1787109375,0.15625,-1.03515625
2742,0.1826171875,0.16015625,-1.0390625
2743,0.18359375,0.154296875,-1.0380859375
2744,0.177734375,0.150390625,-1.0390625
2745,0.1767578125,0.15625,-1.037109375
2746,0.1806640625,0.154296875,-1.0341796875
2747,0.1826171875,0.162109375,-1.0341796875
2748,0.177734375,0.1572265625,-1.0361328125
2749,0.18359375,0.1513671875,-1.0302734375
2750,0.1796875,0.1533203125,-1.0322265625
2751,0.1767578125,0.154296875,-1.0341796875
2752,0.18359375,0.1552734375,-1.03515625
2753,0.177734375,0.1513671875,-1.033203125
2754,0.173828125,0.154296875,-1.037109375
2755,0.1865234375,0.1474609375,-1.0361328125
2756,0.181640625,0.154296875,-1.0341796875
2757,0.1865234375,0.15234375,-1.0302734375
2758,0.1845703125,0.158203125,-1.0390625
2759,0.18359375,0.150390625,-1.0361328125
2760,0.185546875,0.1552734375,-1.0390625
2761,0.177734375,0.16015625,-1.041015625
2762,0.185546875,0.1552734375,-1.037109375
2763,0.1796875,0.16015625,-1.0390625
2764,0.177734375,0.1591796875,-1.037109375
2765,0.1796875,0.15234375,-1.04296875
2766,0.181640625,0.1552734375,-1.0400390625
2767,0.1787109375,0.1513671875,-1.037109375
2768,0.14453125,0.17578125,-1.052734375
2769,0.1923828125,0.1474609375,-1.021484375
2770,0.18359375,0.1513671875,-1.0302734375
2771,0.181640625,0.1513671875,-1.0341796875
2772,0.1865234375,0.1533203125,-1.03515625
2773,0.181640625,0.150390625,-1.033203125
2774,0.1796875,0.1513671875,-1.0341796875
2775,0.1826171875,0.1552734375,-1.03515625
2776,0.18359375,0.15234375,-1.0380859375
2777,0.185546875,0.1533203125,-1.0341796875
2778,0.1875,0.154296875,-1.0322265625
2779,0.1796875,0.1591796875,-1.033203125
2780,0.1806640625,0.1552734375,-1.0341796875
2781,0.18359375,0.1533203125,-1.0341796875
2782,0.1845703125,0.1533203125,-1.03515625
2783,0.1787109375,0.150390625,-1.0341796875
2784,0.1806640625,0.1572265625,-1.0341796875
2785,0.18359375,0.15234375,-1.037109375
2786,0.1875,0.15234375,-1.033203125
2787,0.1806640625,0.158203125,-1.0361328125
2788,0.1806640625,0.16015625,-1.033203125
2789,0.1875,0.1494140625,-1.029296875
2790,0.1904296875,0.15625,-1.037109375
2791,0.1875,0.15234375,-1.03515625
2792,0.18359375,0.1552734375,-1.0341796875
2793,0.1767578125,0.1474609375,-1.033203125
2794,0.1884765625,0.15234375,-1.0380859375
2795,0.1904296875,0.1533203125,-1.037109375
2796,0.1845703125,0.154296875,-1.0322265625
2797,0.1796875,0.1513671875,-1.0341796875
2798,0.181640625,0.150390625,-1.02734375
2799,0.181640625,0.15234375,-1.0341796875
2800,0.1875,0.1552734375,-1.02734375
2801,0.1904296875,0.15625,-1.0341796875
2802,0.1826171875,0.154296875,-1.0361328125
2803,0.1845703125,0.1533203125,-1.0322265625
2804,0.1826171875,0.146484375,-1.0390625
2805,0.1796875,0.15234375,-1.0361328125
2806,0.1796875,0.1533203125,-1.0390625
2807,0.18359375,0.15234375,-1.03515625
2808,0.185546875,0.1494140625,-1.0380859375
2809,0.1845703125,0.1513671875,-1.0341796875
2810,0.181640625,0.154296875,-1.0400390625
2811,0.185546875,0.1552734375,-1.0361328125
2812,0.1806640625,0.1552734375,-1.0341796875
2813,0.1845703125,0.150390625,-1.033203125
2814,0.18359375,0.15234375,-1.0322265625
2815,0.1875,0.150390625,-1.033203125
2816,0.1884765625,0.15234375,-1.0302734375
2817,0.1845703125,0.1513671875,-1.0244140625
2818,0.1865234375,0.1513671875,-1.033203125
2819,0.1796875,0.146484375,-1.0322265625
2820,0.1865234375,0.1513671875,-1.0322265625
2821,0.1865234375,0.1513671875,-1.033203125
2822,0.1845703125,0.1513671875,-1.0341796875
2823,0.18359375,0.1630859375,-1.0380859375
2824,0.1884765625,0.1474609375,-1.0361328125
2825,0.19140625,0.1435546875,-1.0341796875
2826,0.173828125,0.1572265625,-1.0361328125
2827,0.1728515625,0.1494140625,-1.0361328125
2828,0.193359375,0.1435546875,-1.0341796875
2829,0.16796875,0.1591796875,-1.0322265625
2830,0.1953125,0.1474609375,-1.03515625
2831,0.1865234375,0.1455078125,-1.0341796875
2832,0.17578125,0.1484375,-1.033203125
2833,0.1875,0.1494140625,-1.033203125
2834,0.177734375,0.1572265625,-1.0322265625
2835,0.1875,0.154296875,-1.033203125
2836,0.181640625,0.15234375,-1.0283203125
2837,0.189453125,0.134765625,-1.0419921875
2838,0.189453125,0.1455078125,-1.037109375
2839,0.1787109375,0.146484375,-1.0322265625
2840,0.1806640625,0.1513671875,-1.0390625
2841,0.1796875,0.154296875,-1.041015625
2842,0.1796875,0.15234375,-1.041015625
2843,0.17578125,0.1484375,-1.0390625
2844,0.173828125,0.1591796875,-1.0419921875
2845,0.18359375,0.1572265625,-1.04296875
2846,0.185546875,0.1435546875,-1.041015625
