,accelerometerAccelerationX(G),accelerometerAccelerationY(G),accelerometerAccelerationZ(G)
0,0.0439453125,-0.947265625,0.1181640625
1,0.0478515625,-0.935546875,0.1171875
2,0.0439453125,-0.9296875,0.1171875
3,0.0400390625,-0.9140625,0.1181640625
4,0.0322265625,-0.8984375,0.1123046875
5,0.02734375,-0.8974609375,0.1123046875
6,0.03515625,-0.896484375,0.11328125
7,0.03515625,-0.8974609375,0.1142578125
8,0.037109375,-0.896484375,0.1181640625
9,0.037109375,-0.9052734375,0.123046875
10,0.037109375,-0.9072265625,0.130859375
11,0.033203125,-0.9052734375,0.1318359375
12,0.033203125,-0.9072265625,0.14453125
13,0.0283203125,-0.8955078125,0.1552734375
14,0.0302734375,-0.892578125,0.1650390625
15,0.0244140625,-0.884765625,0.1669921875
16,0.0302734375,-0.8896484375,0.1640625
17,0.0302734375,-0.892578125,0.1552734375
18,0.0283203125,-0.8994140625,0.1357421875
19,0.02734375,-0.9111328125,0.12109375
20,0.029296875,-0.931640625,0.1005859375
21,0.0166015625,-0.953125,0.078125
22,0.0322265625,-0.982421875,0.0517578125
23,0.0322265625,-1.0107421875,0.048828125
24,0.0341796875,-1.04296875,0.0361328125
25,0.041015625,-1.0751953125,0.0302734375
26,0.044921875,-1.0966796875,0.0244140625
27,0.03515625,-1.111328125,0.0205078125
28,0.041015625,-1.126953125,0.015625
29,0.03515625,-1.1318359375,-0.01171875
30,0.029296875,-1.138671875,-0.0390625
31,0.021484375,-1.1435546875,-0.0478515625
32,0.01953125,-1.1552734375,-0.04296875
33,0.0078125,-1.1728515625,-0.0341796875
34,0.0048828125,-1.1904296875,-0.02734375
35,-0.00390625,-1.1904296875,-0.013671875
36,-0.005859375,-1.1767578125,0.0
37,-0.0107421875,-1.1533203125,-0.0029296875
38,-0.017578125,-1.1015625,-0.0009765625
39,-0.0205078125,-1.0419921875,-0.0234375
40,-0.0205078125,-0.9736328125,-0.0322265625
41,-0.0234375,-0.9150390625,-0.017578125
42,-0.0263671875,-0.85546875,0.0029296875
43,-0.0244140625,-0.8203125,0.029296875
44,-0.0107421875,-0.79296875,0.0546875
45,0.001953125,-0.7958984375,0.078125
46,0.0146484375,-0.80859375,0.1103515625
47,0.0185546875,-0.833984375,0.1201171875
48,0.0341796875,-0.87890625,0.1474609375
49,0.0400390625,-0.9267578125,0.1513671875
50,0.046875,-0.953125,0.1533203125
51,0.052734375,-0.9697265625,0.15625
52,0.0537109375,-0.966796875,0.1484375
53,0.052734375,-0.966796875,0.138671875
54,0.056640625,-0.953125,0.12890625
55,0.0537109375,-0.943359375,0.119140625
56,0.0546875,-0.9326171875,0.1171875
57,0.052734375,-0.9248046875,0.1103515625
58,0.0546875,-0.9150390625,0.1123046875
59,0.060546875,-0.90625,0.1123046875
60,0.064453125,-0.8916015625,0.1162109375
61,0.0615234375,-0.8876953125,0.1181640625
62,0.060546875,-0.880859375,0.1181640625
63,0.060546875,-0.8876953125,0.1171875
64,0.0712890625,-0.9013671875,0.11328125
65,0.0712890625,-0.9150390625,0.1064453125
66,0.072265625,-0.9267578125,0.0966796875
67,0.0712890625,-0.94140625,0.0888671875
68,0.068359375,-0.9560546875,0.078125
69,0.07421875,-0.966796875,0.068359375
70,0.0751953125,-0.982421875,0.0556640625
71,0.0771484375,-0.99609375,0.0283203125
72,0.0830078125,-1.017578125,0.0146484375
73,0.080078125,-1.041015625,0.0048828125
74,0.0791015625,-1.060546875,0.017578125
75,0.0732421875,-1.0849609375,0.025390625
76,0.0673828125,-1.0986328125,0.041015625
77,0.0595703125,-1.095703125,0.0546875
78,0.0400390625,-1.0712890625,0.0625
79,0.025390625,-1.033203125,0.0771484375
80,0.0146484375,-0.9736328125,0.095703125
81,0.0126953125,-0.9306640625,0.091796875
82,0.0029296875,-0.8857421875,0.0947265625
83,0.009765625,-0.85546875,0.083984375
84,0.0126953125,-0.8427734375,0.076171875
85,0.01953125,-0.8515625,0.0810546875
86,0.0283203125,-0.8857421875,0.0908203125
87,0.03125,-0.908203125,0.095703125
88,0.041015625,-0.93359375,0.1044921875
89,0.0478515625,-0.958984375,0.115234375
90,0.056640625,-0.982421875,0.1259765625
91,0.0654296875,-1.0048828125,0.1259765625
92,0.0771484375,-1.03125,0.1318359375
93,0.0830078125,-1.0419921875,0.13671875
94,0.08203125,-1.0546875,0.13671875
95,0.083984375,-1.0517578125,0.142578125
96,0.0830078125,-1.0458984375,0.1455078125
97,0.076171875,-1.0361328125,0.146484375
98,0.0791015625,-1.013671875,0.1435546875
99,0.0673828125,-0.9931640625,0.1435546875
100,0.0673828125,-0.9755859375,0.142578125
101,0.0576171875,-0.9580078125,0.140625
102,0.056640625,-0.943359375,0.1357421875
103,0.0517578125,-0.935546875,0.12890625
104,0.0400390625,-0.9296875,0.1171875
105,0.03125,-0.9287109375,0.09765625
106,0.0244140625,-0.9404296875,0.0830078125
107,0.01171875,-0.9521484375,0.080078125
108,0.01171875,-0.9755859375,0.0751953125
109,0.01171875,-0.9970703125,0.07421875
110,0.001953125,-1.0224609375,0.0771484375
111,0.0029296875,-1.0390625,0.0751953125
112,0.009765625,-1.04296875,0.072265625
113,0.005859375,-1.0390625,0.083984375
114,0.0126953125,-1.0068359375,0.0810546875
115,0.013671875,-0.9697265625,0.091796875
116,0.0146484375,-0.935546875,0.0849609375
117,0.01953125,-0.90234375,0.0869140625
118,0.0234375,-0.8818359375,0.08984375
119,0.03125,-0.861328125,0.0927734375
120,0.0439453125,-0.857421875,0.0966796875
121,0.0498046875,-0.8564453125,0.09765625
122,0.0537109375,-0.8642578125,0.103515625
123,0.0537109375,-0.869140625,0.09765625
124,0.0439453125,-0.8876953125,0.10546875
125,0.03515625,-0.884765625,0.1044921875
126,0.02734375,-0.8818359375,0.0966796875
127,0.0126953125,-0.8818359375,0.09765625
128,0.001953125,-0.884765625,0.0966796875
129,-0.0146484375,-0.8857421875,0.087890625
130,-0.029296875,-0.89453125,0.0869140625
131,-0.037109375,-0.8984375,0.0810546875
132,-0.03515625,-0.9033203125,0.080078125
133,-0.0478515625,-0.9052734375,0.0849609375
134,-0.0498046875,-0.9052734375,0.091796875
135,-0.05078125,-0.904296875,0.099609375
136,-0.044921875,-0.908203125,0.103515625
137,-0.0390625,-0.908203125,0.1162109375
138,-0.033203125,-0.9228515625,0.123046875
139,-0.0224609375,-0.939453125,0.1337890625
140,-0.0048828125,-0.9619140625,0.1376953125
141,0.0029296875,-0.9853515625,0.1416015625
142,0.0126953125,-1.013671875,0.1533203125
143,0.0224609375,-1.04296875,0.1513671875
144,0.021484375,-1.0625,0.1513671875
145,0.03515625,-1.0849609375,0.1513671875
146,0.041015625,-1.1025390625,0.14453125
147,0.046875,-1.1220703125,0.1396484375
148,0.046875,-1.134765625,0.1259765625
149,0.044921875,-1.1484375,0.1201171875
150,0.0400390625,-1.146484375,0.111328125
151,0.0390625,-1.146484375,0.103515625
152,0.0380859375,-1.134765625,0.1005859375
153,0.041015625,-1.1142578125,0.1025390625
154,0.0439453125,-1.0888671875,0.111328125
155,0.044921875,-1.0556640625,0.11328125
156,0.048828125,-1.029296875,0.115234375
157,0.0419921875,-0.9951171875,0.1171875
158,0.0439453125,-0.96875,0.119140625
159,0.0390625,-0.9423828125,0.1220703125
160,0.0390625,-0.921875,0.130859375
161,0.0341796875,-0.91015625,0.1337890625
162,0.033203125,-0.900390625,0.142578125
163,0.029296875,-0.892578125,0.134765625
164,0.0263671875,-0.890625,0.1396484375
165,0.029296875,-0.8974609375,0.140625
166,0.025390625,-0.8916015625,0.1357421875
167,0.0224609375,-0.900390625,0.1357421875
168,0.0234375,-0.90625,0.1298828125
169,0.0244140625,-0.919921875,0.1376953125
170,0.0234375,-0.9326171875,0.12890625
171,0.017578125,-0.9453125,0.1318359375
172,0.0224609375,-0.958984375,0.1357421875
173,0.015625,-0.9697265625,0.14453125
174,0.0146484375,-0.970703125,0.1513671875
175,0.0068359375,-0.9638671875,0.1640625
176,0.0009765625,-0.9541015625,0.1669921875
177,-0.009765625,-0.947265625,0.169921875
178,-0.0068359375,-0.9326171875,0.166015625
179,-0.0048828125,-0.9287109375,0.1640625
180,-0.001953125,-0.923828125,0.15625
181,-0.0146484375,-0.92578125,0.15234375
182,-0.0068359375,-0.921875,0.150390625
183,-0.001953125,-0.92578125,0.1357421875
184,-0.009765625,-0.927734375,0.1435546875
185,-0.005859375,-0.9365234375,0.13671875
186,-0.001953125,-0.951171875,0.1416015625
187,-0.0205078125,-0.962890625,0.13671875
188,-0.02734375,-0.9736328125,0.14453125
189,-0.0341796875,-0.9873046875,0.1494140625
190,-0.041015625,-0.99609375,0.150390625
191,-0.06640625,-0.998046875,0.1552734375
192,-0.10546875,-1.0078125,0.177734375
193,-0.11328125,-1.0439453125,0.1923828125
194,-0.0888671875,-1.0498046875,0.1826171875
195,-0.099609375,-0.98828125,0.166015625
196,-0.08984375,-0.955078125,0.1640625
197,-0.0888671875,-0.9326171875,0.1708984375
198,-0.0986328125,-0.91796875,0.1796875
199,-0.09375,-0.8935546875,0.1748046875
200,-0.0888671875,-0.876953125,0.1689453125
201,-0.083984375,-0.85546875,0.16015625
202,-0.0751953125,-0.8603515625,0.16015625
203,-0.08203125,-0.8447265625,0.162109375
204,-0.0634765625,-0.8486328125,0.1630859375
205,-0.0615234375,-0.845703125,0.16015625
206,-0.0634765625,-0.8349609375,0.154296875
207,-0.0615234375,-0.83203125,0.1572265625
208,-0.06640625,-0.8330078125,0.1630859375
209,-0.0615234375,-0.8310546875,0.1474609375
210,-0.0634765625,-0.8310546875,0.150390625
211,-0.0673828125,-0.828125,0.1435546875
212,-0.064453125,-0.818359375,0.1435546875
213,-0.0595703125,-0.81640625,0.146484375
214,-0.056640625,-0.814453125,0.146484375
215,-0.0556640625,-0.8212890625,0.1533203125
216,-0.044921875,-0.82421875,0.154296875
217,-0.0419921875,-0.8193359375,0.16015625
218,-0.041015625,-0.8154296875,0.166015625
219,-0.03125,-0.814453125,0.166015625
220,-0.037109375,-0.8173828125,0.171875
221,-0.0322265625,-0.8291015625,0.177734375
222,-0.0302734375,-0.83984375,0.189453125
223,-0.033203125,-0.8525390625,0.1943359375
224,-0.037109375,-0.8642578125,0.2158203125
225,-0.0439453125,-0.896484375,0.2294921875
226,-0.056640625,-0.9072265625,0.2392578125
227,-0.0595703125,-0.927734375,0.2333984375
228,-0.0615234375,-0.9501953125,0.2373046875
229,-0.0654296875,-0.9716796875,0.2373046875
230,-0.0634765625,-0.994140625,0.2333984375
231,-0.064453125,-1.0234375,0.2470703125
232,-0.060546875,-1.0517578125,0.2470703125
233,-0.0615234375,-1.0654296875,0.251953125
234,-0.0537109375,-1.0791015625,0.25390625
235,-0.0361328125,-1.0849609375,0.255859375
236,-0.03125,-1.0771484375,0.251953125
237,-0.0126953125,-1.0634765625,0.240234375
238,0.0,-1.0556640625,0.2138671875
239,0.001953125,-1.0546875,0.1904296875
240,-0.00390625,-1.0546875,0.158203125
241,-0.0068359375,-1.068359375,0.10546875
242,-0.0263671875,-1.0966796875,0.046875
243,-0.048828125,-1.14453125,-0.013671875
244,-0.0986328125,-1.181640625,-0.1015625
245,-0.150390625,-1.2421875,-0.181640625
246,-0.1875,-1.2958984375,-0.2431640625
247,-0.2138671875,-1.376953125,-0.28125
248,-0.2119140625,-1.4228515625,-0.2978515625
249,-0.1962890625,-1.455078125,-0.3251953125
250,-0.1474609375,-1.46875,-0.3359375
251,-0.0810546875,-1.4287109375,-0.3974609375
252,-0.015625,-1.375,-0.42578125
253,0.09375,-1.2890625,-0.462890625
254,0.1904296875,-1.201171875,-0.4794921875
255,0.2734375,-1.1279296875,-0.4794921875
256,0.35546875,-1.056640625,-0.4794921875
257,0.4423828125,-0.98828125,-0.4619140625
258,0.5234375,-0.9609375,-0.40625
259,0.5625,-0.92578125,-0.353515625
260,0.5927734375,-0.9208984375,-0.291015625
261,0.6025390625,-0.939453125,-0.216796875
262,0.5732421875,-0.970703125,-0.1630859375
263,0.541015625,-1.037109375,-0.111328125
264,0.4833984375,-1.09375,-0.0517578125
265,0.4130859375,-1.1611328125,-0.0087890625
266,0.3056640625,-1.25,0.01171875
267,0.205078125,-1.3115234375,0.0205078125
268,0.09375,-1.3916015625,0.0166015625
269,-0.0380859375,-1.470703125,-0.001953125
270,-0.142578125,-1.548828125,-0.02734375
271,-0.1845703125,-1.6005859375,-0.0556640625
272,-0.208984375,-1.6474609375,-0.0810546875
273,-0.1875,-1.6884765625,-0.1044921875
274,-0.16015625,-1.7236328125,-0.1044921875
275,-0.1064453125,-1.7314453125,-0.130859375
276,-0.0810546875,-1.7109375,-0.1142578125
277,-0.05078125,-1.669921875,-0.0830078125
278,-0.0283203125,-1.6162109375,-0.060546875
279,0.0693359375,-1.5888671875,-0.037109375
280,0.10546875,-1.5283203125,0.0107421875
281,0.1142578125,-1.4609375,0.0498046875
282,0.1435546875,-1.412109375,0.072265625
283,0.1884765625,-1.3935546875,0.095703125
284,0.2490234375,-1.4033203125,0.125
285,0.259765625,-1.376953125,0.1494140625
286,0.2275390625,-1.3359375,0.16796875
287,0.2158203125,-1.3125,0.1728515625
288,0.2421875,-1.2919921875,0.1767578125
289,0.25,-1.263671875,0.169921875
290,0.2255859375,-1.240234375,0.15625
291,0.1982421875,-1.18359375,0.1513671875
292,0.1865234375,-1.13671875,0.1552734375
293,0.17578125,-1.07421875,0.1416015625
294,0.1435546875,-1.017578125,0.1318359375
295,0.1416015625,-0.978515625,0.11328125
296,0.1201171875,-0.9189453125,0.10546875
297,0.0654296875,-0.8388671875,0.09375
298,0.03515625,-0.77734375,0.0771484375
299,-0.001953125,-0.701171875,0.072265625
300,-0.0498046875,-0.634765625,0.068359375
301,-0.0654296875,-0.59375,0.0615234375
302,-0.095703125,-0.5302734375,0.0517578125
303,-0.123046875,-0.4736328125,0.041015625
304,-0.15625,-0.4208984375,0.009765625
305,-0.1962890625,-0.3671875,-0.0224609375
306,-0.1943359375,-0.29296875,-0.0546875
307,-0.1982421875,-0.2421875,-0.0908203125
308,-0.2001953125,-0.189453125,-0.1044921875
309,-0.205078125,-0.1376953125,-0.1083984375
310,-0.1884765625,-0.107421875,-0.107421875
311,-0.154296875,-0.0810546875,-0.1201171875
312,-0.1435546875,-0.0419921875,-0.14453125
313,-0.1279296875,-0.0224609375,-0.1591796875
314,-0.01953125,0.001953125,-0.1494140625
315,-0.09765625,0.0380859375,-0.0986328125
316,-0.212890625,0.0888671875,-0.0634765625
317,-0.1513671875,0.0927734375,-0.0625
318,-0.0625,0.091796875,-0.0693359375
319,-0.052734375,0.0849609375,-0.068359375
320,-0.0576171875,0.0673828125,-0.0498046875
321,-0.0537109375,0.0390625,-0.0146484375
322,-0.0537109375,-0.009765625,0.0322265625
323,-0.0537109375,-0.060546875,0.083984375
324,-0.044921875,-0.115234375,0.1162109375
325,-0.021484375,-0.1689453125,0.1181640625
326,0.0146484375,-0.21484375,0.08203125
327,0.0556640625,-0.2470703125,0.017578125
328,0.09765625,-0.267578125,-0.1064453125
329,0.12890625,-0.2998046875,-0.255859375
330,0.1669921875,-0.3857421875,-0.4111328125
331,0.220703125,-0.47265625,-0.54296875
332,0.28125,-0.564453125,-0.6455078125
333,0.3515625,-0.708984375,-0.724609375
334,0.439453125,-0.951171875,-0.7841796875
335,0.486328125,-1.224609375,-0.83984375
336,0.5166015625,-1.51171875,-0.83203125
337,0.494140625,-1.787109375,-0.7568359375
338,0.4990234375,-2.076171875,-0.68359375
339,0.4853515625,-2.34375,-0.57421875
340,0.3974609375,-2.533203125,-0.4580078125
341,0.1865234375,-2.60546875,-0.359375
342,0.005859375,-2.5625,-0.318359375
343,-0.0634765625,-2.4677734375,-0.2939453125
344,-0.1025390625,-2.30078125,-0.28515625
345,-0.0927734375,-2.11328125,-0.2705078125
346,-0.0283203125,-1.97265625,-0.177734375
347,0.0947265625,-1.7998046875,-0.095703125
348,0.2490234375,-1.751953125,-0.080078125
349,0.26171875,-1.5087890625,-0.1513671875
350,0.337890625,-1.3984375,-0.09765625
351,0.322265625,-1.3662109375,-0.11328125
352,0.27734375,-1.3583984375,-0.1787109375
353,0.2109375,-1.4013671875,-0.23046875
354,0.2470703125,-1.51171875,-0.2783203125
355,0.25390625,-1.623046875,-0.2705078125
356,0.2646484375,-1.7216796875,-0.23828125
357,0.302734375,-1.787109375,-0.2177734375
358,0.33203125,-1.8408203125,-0.1806640625
359,0.3798828125,-1.87890625,-0.12109375
360,0.390625,-1.90625,-0.0673828125
361,0.36328125,-1.9658203125,0.01953125
362,0.3359375,-2.001953125,0.05859375
363,0.302734375,-2.0166015625,0.10546875
364,0.2744140625,-2.0126953125,0.140625
365,0.1943359375,-1.9814453125,0.166015625
366,0.123046875,-1.9130859375,0.1875
367,0.0703125,-1.798828125,0.2080078125
368,0.0,-1.6728515625,0.205078125
369,-0.0673828125,-1.5283203125,0.1708984375
370,-0.17578125,-1.3837890625,0.1494140625
371,-0.26953125,-1.2373046875,0.130859375
372,-0.314453125,-1.0849609375,0.0830078125
373,-0.3544921875,-0.89453125,0.0654296875
374,-0.396484375,-0.7412109375,0.0322265625
375,-0.388671875,-0.5791015625,0.021484375
376,-0.3876953125,-0.4501953125,0.009765625
377,-0.3974609375,-0.3466796875,-0.015625
378,-0.369140625,-0.2666015625,0.005859375
379,-0.2861328125,-0.1982421875,0.0048828125
380,-0.1142578125,-0.0810546875,-0.0966796875
381,-0.072265625,0.0087890625,-0.0419921875
382,-0.00390625,0.11328125,-0.0771484375
383,0.126953125,0.2412109375,-0.1728515625
384,0.2294921875,0.3642578125,-0.244140625
385,0.2939453125,0.3857421875,-0.1982421875
386,0.3125,0.4619140625,-0.205078125
387,0.310546875,0.4833984375,-0.169921875
388,0.4326171875,0.4345703125,-0.2470703125
389,0.3935546875,0.357421875,-0.158203125
390,0.328125,0.2333984375,-0.0654296875
391,0.234375,0.091796875,-0.0126953125
392,0.228515625,-0.0283203125,-0.05859375
393,0.203125,-0.1220703125,-0.08984375
394,0.1376953125,-0.1982421875,-0.0849609375
395,0.1162109375,-0.2666015625,-0.0966796875
396,0.14453125,-0.3115234375,-0.09765625
397,0.1630859375,-0.353515625,-0.111328125
398,0.166015625,-0.3642578125,-0.115234375
399,0.1865234375,-0.3603515625,-0.1455078125
400,0.1689453125,-0.3369140625,-0.1591796875
401,0.1884765625,-0.3134765625,-0.1767578125
402,0.240234375,-0.33203125,-0.2001953125
403,0.1337890625,-0.275390625,-0.2431640625
404,0.072265625,-0.2841796875,-0.27734375
405,0.1318359375,-0.337890625,-0.326171875
406,-0.0869140625,-0.3291015625,-0.4609375
407,-0.08984375,-0.375,-0.505859375
408,-0.201171875,-0.4541015625,-0.609375
409,-0.265625,-0.572265625,-0.6591796875
410,-0.3369140625,-0.7744140625,-0.640625
411,-0.2646484375,-1.0556640625,-0.591796875
412,-0.185546875,-1.3076171875,-0.59375
413,-0.0400390625,-1.62890625,-0.564453125
414,0.0068359375,-2.20703125,-0.4580078125
415,0.142578125,-2.6884765625,-0.3486328125
416,0.2099609375,-3.060546875,-0.333984375
417,0.3095703125,-3.1181640625,-0.169921875
418,0.3623046875,-2.9091796875,-0.134765625
419,0.361328125,-2.5556640625,-0.232421875
420,0.298828125,-2.2724609375,-0.2890625
421,0.2158203125,-1.9951171875,-0.2880859375
422,0.1689453125,-1.7763671875,-0.2666015625
423,0.1376953125,-1.5986328125,-0.2158203125
424,0.087890625,-1.4091796875,-0.1474609375
425,0.0390625,-1.283203125,-0.095703125
426,0.0068359375,-1.185546875,-0.0615234375
427,0.009765625,-1.1904296875,-0.0087890625
428,0.017578125,-1.22265625,0.009765625
429,0.01171875,-1.2978515625,0.044921875
430,-0.001953125,-1.380859375,0.0712890625
431,-0.0439453125,-1.40625,0.099609375
432,-0.0654296875,-1.4326171875,0.13671875
433,-0.0712890625,-1.4814453125,0.1845703125
434,-0.05078125,-1.5546875,0.193359375
435,-0.0322265625,-1.59765625,0.1923828125
436,-0.0224609375,-1.6943359375,0.236328125
437,0.0234375,-1.78125,0.2275390625
438,0.1025390625,-1.8349609375,0.2421875
439,0.119140625,-1.8359375,0.2998046875
440,0.169921875,-1.826171875,0.3564453125
441,0.2734375,-1.7587890625,0.3701171875
442,0.341796875,-1.6337890625,0.365234375
443,0.373046875,-1.4990234375,0.38671875
444,0.3759765625,-1.3876953125,0.359375
445,0.4052734375,-1.26171875,0.333984375
446,0.4091796875,-1.107421875,0.2919921875
447,0.3916015625,-0.9208984375,0.236328125
448,0.326171875,-0.7744140625,0.1708984375
449,0.275390625,-0.6328125,0.095703125
450,0.2041015625,-0.49609375,0.01171875
451,0.1640625,-0.349609375,-0.080078125
452,0.087890625,-0.19921875,-0.1728515625
453,0.0185546875,-0.0634765625,-0.2587890625
454,-0.01953125,0.0419921875,-0.3330078125
455,-0.0283203125,0.111328125,-0.369140625
456,-0.068359375,0.185546875,-0.3681640625
457,-0.134765625,0.294921875,-0.3427734375
458,-0.1953125,0.3388671875,-0.30859375
459,-0.240234375,0.3642578125,-0.279296875
460,-0.2998046875,0.3740234375,-0.2744140625
461,-0.3310546875,0.4013671875,-0.2431640625
462,-0.3427734375,0.365234375,-0.2412109375
463,-0.33984375,0.275390625,-0.255859375
464,-0.361328125,0.1796875,-0.2275390625
465,-0.3359375,0.0654296875,-0.1806640625
466,-0.2890625,-0.044921875,-0.126953125
467,-0.275390625,-0.146484375,-0.0693359375
468,-0.2626953125,-0.224609375,-0.0205078125
469,-0.248046875,-0.2939453125,0.0185546875
470,-0.1923828125,-0.365234375,0.0224609375
471,-0.1064453125,-0.44140625,-0.064453125
472,-0.0439453125,-0.453125,-0.2265625
473,0.0419921875,-0.41796875,-0.40234375
474,0.1962890625,-0.408203125,-0.5927734375
475,0.322265625,-0.4345703125,-0.7294921875
476,0.4521484375,-0.4990234375,-0.8544921875
477,0.6083984375,-0.5908203125,-0.9326171875
478,0.7109375,-0.7236328125,-0.9169921875
479,0.73046875,-0.9248046875,-0.796875
480,0.7060546875,-1.2119140625,-0.6669921875
481,0.658203125,-1.7451171875,-0.5166015625
482,0.625,-2.11328125,-0.4052734375
483,0.4951171875,-2.40234375,-0.3056640625
484,0.2802734375,-2.6220703125,-0.1875
485,-0.025390625,-2.7021484375,-0.1103515625
486,-0.244140625,-2.6337890625,-0.142578125
487,-0.369140625,-2.4267578125,-0.2529296875
488,-0.4150390625,-2.1748046875,-0.41796875
489,-0.388671875,-1.9755859375,-0.5048828125
490,-0.3134765625,-1.849609375,-0.490234375
491,-0.2236328125,-1.7470703125,-0.4091796875
492,-0.08984375,-1.6796875,-0.3125
493,0.02734375,-1.63671875,-0.2607421875
494,0.1396484375,-1.5947265625,-0.2333984375
495,0.2177734375,-1.5712890625,-0.2392578125
496,0.275390625,-1.5673828125,-0.2294921875
497,0.33984375,-1.5615234375,-0.2470703125
498,0.3662109375,-1.58203125,-0.212890625
499,0.4130859375,-1.5859375,-0.216796875
500,0.4404296875,-1.5498046875,-0.1943359375
501,0.4111328125,-1.5888671875,-0.1689453125
502,0.3388671875,-1.6923828125,-0.107421875
503,0.30859375,-1.7431640625,-0.0576171875
504,0.2548828125,-1.7734375,-0.00390625
505,0.19140625,-1.7890625,0.064453125
506,0.1220703125,-1.8076171875,0.0888671875
507,0.0390625,-1.7890625,0.1240234375
508,-0.0556640625,-1.7470703125,0.142578125
509,-0.1337890625,-1.685546875,0.15625
510,-0.1796875,-1.603515625,0.146484375
511,-0.2294921875,-1.4970703125,0.14453125
512,-0.2744140625,-1.376953125,0.146484375
513,-0.2861328125,-1.2451171875,0.142578125
514,-0.298828125,-1.083984375,0.1435546875
515,-0.3232421875,-0.96484375,0.1513671875
516,-0.3037109375,-0.845703125,0.134765625
517,-0.3173828125,-0.7255859375,0.1220703125
518,-0.333984375,-0.615234375,0.10546875
519,-0.3427734375,-0.515625,0.099609375
520,-0.2763671875,-0.4130859375,0.01953125
521,-0.2138671875,-0.3349609375,-0.009765625
522,-0.1728515625,-0.2900390625,-0.0361328125
523,-0.1171875,-0.220703125,-0.0791015625
524,-0.046875,-0.1689453125,-0.173828125
525,0.087890625,-0.046875,-0.341796875
526,0.037109375,0.013671875,-0.314453125
527,0.130859375,0.0634765625,-0.4345703125
528,0.1005859375,0.1328125,-0.4140625
529,0.162109375,0.138671875,-0.5029296875
530,0.203125,0.2509765625,-0.6259765625
531,0.1513671875,0.3017578125,-0.552734375
532,0.25390625,0.33203125,-0.6025390625
533,0.287109375,0.375,-0.5439453125
534,0.2802734375,0.3974609375,-0.43359375
535,0.2626953125,0.353515625,-0.40234375
536,0.2109375,0.2822265625,-0.3623046875
537,0.1904296875,0.1494140625,-0.2734375
538,0.2236328125,0.025390625,-0.2060546875
539,0.2763671875,-0.09765625,-0.154296875
540,0.2978515625,-0.18359375,-0.10546875
541,0.3154296875,-0.259765625,-0.0673828125
542,0.3623046875,-0.3359375,-0.0810546875
543,0.365234375,-0.3955078125,-0.0966796875
544,0.279296875,-0.4072265625,-0.1171875
545,0.1845703125,-0.4365234375,-0.142578125
546,0.1142578125,-0.5048828125,-0.189453125
547,-0.0439453125,-0.6171875,-0.21484375
548,-0.2490234375,-0.7275390625,-0.2529296875
549,-0.44140625,-0.876953125,-0.29296875
550,-0.6171875,-1.0029296875,-0.29296875
551,-0.62890625,-1.275390625,-0.26953125
552,-0.408203125,-1.6103515625,-0.2666015625
553,-0.302734375,-1.9970703125,-0.2880859375
554,-0.23046875,-2.4677734375,-0.2900390625
555,-0.119140625,-2.9755859375,-0.359375
556,0.2099609375,-3.51953125,-0.3935546875
557,0.3251953125,-3.638671875,-0.4111328125
558,0.30078125,-3.259765625,-0.44140625
559,0.2763671875,-2.75,-0.6240234375
560,0.26171875,-2.3447265625,-0.7080078125
561,0.234375,-2.0107421875,-0.6572265625
562,0.1845703125,-1.71484375,-0.556640625
563,0.2138671875,-1.4365234375,-0.478515625
564,0.2255859375,-1.236328125,-0.3798828125
565,0.1904296875,-1.1005859375,-0.30078125
566,0.1484375,-1.0966796875,-0.2158203125
567,0.126953125,-1.123046875,-0.1279296875
568,0.1162109375,-1.17578125,-0.0556640625
569,0.0888671875,-1.2578125,0.0224609375
570,0.060546875,-1.349609375,0.099609375
571,0.025390625,-1.4326171875,0.1435546875
572,0.037109375,-1.5390625,0.15234375
573,0.0390625,-1.62109375,0.16796875
574,0.0576171875,-1.69140625,0.19140625
575,0.08984375,-1.7548828125,0.193359375
576,0.1103515625,-1.78515625,0.19140625
577,0.14453125,-1.80078125,0.2275390625
578,0.1640625,-1.8017578125,0.2568359375
579,0.1904296875,-1.7587890625,0.2783203125
580,0.2548828125,-1.6650390625,0.310546875
581,0.2734375,-1.4912109375,0.3525390625
582,0.2880859375,-1.353515625,0.412109375
583,0.337890625,-1.1611328125,0.4326171875
584,0.33203125,-1.0166015625,0.42578125
585,0.2919921875,-0.8779296875,0.35546875
586,0.259765625,-0.73828125,0.28515625
587,0.2177734375,-0.6181640625,0.1845703125
588,0.173828125,-0.5244140625,0.0869140625
589,0.1181640625,-0.408203125,-0.0166015625
590,0.056640625,-0.2919921875,-0.09765625
591,0.0146484375,-0.19140625,-0.171875
592,-0.0322265625,-0.09375,-0.2431640625
593,-0.05078125,-0.01171875,-0.31640625
594,-0.078125,0.064453125,-0.3564453125
595,-0.109375,0.1435546875,-0.3837890625
596,-0.134765625,0.2275390625,-0.400390625
597,-0.162109375,0.3134765625,-0.3935546875
598,-0.220703125,0.3740234375,-0.357421875
599,-0.2548828125,0.4423828125,-0.3212890625
600,-0.2919921875,0.5126953125,-0.2919921875
601,-0.4111328125,0.5615234375,-0.240234375
602,-0.427734375,0.56640625,-0.2080078125
603,-0.4169921875,0.4912109375,-0.1767578125
604,-0.400390625,0.361328125,-0.16796875
605,-0.3671875,0.1884765625,-0.125
606,-0.330078125,0.0380859375,-0.083984375
607,-0.3125,-0.083984375,-0.0283203125
608,-0.3017578125,-0.1826171875,0.0048828125
609,-0.2861328125,-0.2646484375,0.029296875
610,-0.2431640625,-0.341796875,0.091796875
611,-0.15625,-0.4111328125,0.1376953125
612,-0.0654296875,-0.4765625,0.1669921875
613,0.005859375,-0.5009765625,0.1533203125
614,0.0517578125,-0.498046875,0.064453125
615,0.154296875,-0.484375,-0.1259765625
616,0.291015625,-0.4482421875,-0.4033203125
617,0.4453125,-0.494140625,-0.677734375
618,0.654296875,-0.591796875,-0.98046875
619,0.7978515625,-0.7265625,-1.125
620,0.9208984375,-0.9521484375,-1.1162109375
621,0.9677734375,-1.271484375,-1.0068359375
622,1.0087890625,-1.724609375,-0.9306640625
623,1.0078125,-2.3447265625,-0.8291015625
624,0.962890625,-2.865234375,-0.7177734375
625,0.6259765625,-3.1064453125,-0.5419921875
626,0.22265625,-3.072265625,-0.36328125
627,-0.0849609375,-2.880859375,-0.2900390625
628,-0.322265625,-2.6005859375,-0.29296875
629,-0.525390625,-2.3447265625,-0.3427734375
630,-0.66796875,-2.15625,-0.3671875
631,-0.6474609375,-1.9921875,-0.2509765625
632,-0.55078125,-1.8818359375,-0.0859375
633,-0.6181640625,-1.80078125,0.0107421875
634,-0.578125,-1.7236328125,0.001953125
635,-0.3759765625,-1.6044921875,-0.0048828125
636,-0.052734375,-1.412109375,-0.0205078125
637,0.095703125,-1.2958984375,0.068359375
638,0.2060546875,-1.21484375,0.0673828125
639,0.2900390625,-1.232421875,0.017578125
640,0.3642578125,-1.271484375,-0.0283203125
641,0.435546875,-1.31640625,-0.0712890625
642,0.4921875,-1.376953125,-0.1005859375
643,0.552734375,-1.4384765625,-0.115234375
644,0.5703125,-1.51171875,-0.0595703125
645,0.578125,-1.603515625,0.0302734375
646,0.544921875,-1.64453125,0.1201171875
647,0.5029296875,-1.720703125,0.1455078125
648,0.4208984375,-1.78515625,0.171875
649,0.3623046875,-1.818359375,0.15234375
650,0.2021484375,-1.7822265625,0.150390625
651,0.060546875,-1.7109375,0.1552734375
652,-0.0498046875,-1.599609375,0.1396484375
653,-0.1689453125,-1.4697265625,0.10546875
654,-0.27734375,-1.3212890625,0.1123046875
655,-0.3134765625,-1.119140625,0.099609375
656,-0.3017578125,-0.986328125,0.0869140625
657,-0.3427734375,-0.857421875,0.1474609375
658,-0.3310546875,-0.73828125,0.19140625
659,-0.33203125,-0.654296875,0.173828125
660,-0.3408203125,-0.5634765625,0.166015625
661,-0.27734375,-0.43359375,0.146484375
662,-0.2666015625,-0.310546875,0.068359375
663,-0.2646484375,-0.205078125,0.041015625
664,-0.220703125,-0.0703125,0.013671875
665,-0.1904296875,0.0517578125,-0.056640625
666,-0.2041015625,0.171875,-0.0048828125
667,-0.0263671875,0.296875,-0.146484375
668,-0.0302734375,0.376953125,-0.17578125
669,0.0078125,0.4521484375,-0.3154296875
670,0.0751953125,0.5087890625,-0.3935546875
671,0.1455078125,0.5546875,-0.4892578125
672,0.1416015625,0.5146484375,-0.4501953125
673,0.1689453125,0.462890625,-0.466796875
674,0.1494140625,0.3671875,-0.39453125
675,0.115234375,0.244140625,-0.2998046875
676,0.1376953125,0.1279296875,-0.2490234375
677,0.1611328125,0.03515625,-0.1875
678,0.1982421875,-0.0458984375,-0.1259765625
679,0.232421875,-0.107421875,-0.046875
680,0.251953125,-0.15625,0.015625
681,0.29296875,-0.2138671875,0.048828125
682,0.3232421875,-0.251953125,0.03515625
683,0.3486328125,-0.3037109375,-0.0556640625
684,0.357421875,-0.345703125,-0.1845703125
685,0.2880859375,-0.39453125,-0.3076171875
686,0.1748046875,-0.4755859375,-0.3857421875
687,0.0595703125,-0.5673828125,-0.44921875
688,-0.08203125,-0.685546875,-0.5263671875
689,-0.115234375,-0.869140625,-0.5888671875
690,-0.279296875,-1.0908203125,-0.5732421875
691,-0.291015625,-1.3779296875,-0.49609375
692,-0.119140625,-1.779296875,-0.357421875
693,0.04296875,-2.3447265625,-0.2470703125
694,0.318359375,-3.16015625,0.0166015625
695,0.458984375,-3.80078125,0.146484375
696,0.453125,-4.171875,0.15234375
697,0.3818359375,-4.0546875,0.0400390625
698,0.259765625,-3.767578125,-0.1416015625
699,0.0927734375,-3.3056640625,-0.341796875
700,-0.0390625,-2.689453125,-0.4453125
701,-0.1025390625,-2.044921875,-0.484375
702,-0.0498046875,-1.5390625,-0.46484375
703,0.0146484375,-1.216796875,-0.3974609375
704,0.0712890625,-1.02734375,-0.3125
705,0.0302734375,-0.927734375,-0.244140625
706,0.017578125,-0.8701171875,-0.201171875
707,0.115234375,-0.875,-0.123046875
708,0.1826171875,-0.9541015625,-0.0888671875
709,0.1650390625,-1.0458984375,-0.021484375
710,0.1328125,-1.1298828125,0.041015625
711,0.1162109375,-1.203125,0.0517578125
712,0.099609375,-1.2822265625,0.0634765625
713,0.1015625,-1.3447265625,0.07421875
714,0.1533203125,-1.447265625,0.10546875
715,0.2158203125,-1.546875,0.1298828125
716,0.2470703125,-1.638671875,0.1376953125
717,0.3427734375,-1.744140625,0.1513671875
718,0.3349609375,-1.787109375,0.1767578125
719,0.341796875,-1.7763671875,0.24609375
720,0.392578125,-1.701171875,0.2861328125
721,0.3916015625,-1.556640625,0.326171875
722,0.3974609375,-1.40625,0.37890625
723,0.40625,-1.2119140625,0.3740234375
724,0.353515625,-1.0478515625,0.3525390625
725,0.32421875,-0.8974609375,0.330078125
726,0.275390625,-0.7587890625,0.271484375
727,0.2177734375,-0.64453125,0.1923828125
728,0.16796875,-0.5205078125,0.1083984375
729,0.0888671875,-0.3603515625,0.017578125
730,0.05078125,-0.208984375,-0.095703125
731,0.013671875,-0.0908203125,-0.1923828125
732,-0.033203125,0.046875,-0.2705078125
733,-0.0888671875,0.1904296875,-0.361328125
734,-0.16015625,0.328125,-0.4248046875
735,-0.1767578125,0.4248046875,-0.4501953125
736,-0.15234375,0.470703125,-0.470703125
737,-0.181640625,0.513671875,-0.49609375
738,-0.2177734375,0.5166015625,-0.50390625
739,-0.2822265625,0.5400390625,-0.46484375
740,-0.3486328125,0.5595703125,-0.388671875
741,-0.3984375,0.5166015625,-0.318359375
742,-0.40625,0.4189453125,-0.265625
743,-0.404296875,0.296875,-0.220703125
744,-0.3564453125,0.1396484375,-0.169921875
745,-0.2890625,-0.0048828125,-0.125
746,-0.275390625,-0.12890625,-0.09765625
747,-0.2646484375,-0.251953125,-0.0732421875
748,-0.203125,-0.3603515625,-0.0595703125
749,-0.1298828125,-0.4453125,-0.0146484375
750,-0.0947265625,-0.5087890625,0.0244140625
751,-0.068359375,-0.53125,0.04296875
752,0.001953125,-0.529296875,-0.0078125
753,0.080078125,-0.5029296875,-0.154296875
754,0.1806640625,-0.4580078125,-0.376953125
755,0.3134765625,-0.4443359375,-0.56640625
756,0.5390625,-0.4814453125,-0.7333984375
757,0.7568359375,-0.560546875,-0.87890625
758,0.9208984375,-0.7255859375,-0.91796875
759,1.001953125,-0.9677734375,-0.8505859375
760,0.9853515625,-1.3193359375,-0.7802734375
761,0.99609375,-1.7841796875,-0.814453125
762,0.947265625,-2.283203125,-0.8369140625
763,0.822265625,-2.7900390625,-0.8544921875
764,0.5048828125,-3.1201171875,-0.80859375
765,0.048828125,-3.2138671875,-0.701171875
766,-0.287109375,-3.14453125,-0.615234375
767,-0.4951171875,-2.8876953125,-0.5361328125
768,-0.6591796875,-2.525390625,-0.49609375
769,-0.6611328125,-2.201171875,-0.5390625
770,-0.630859375,-2.0234375,-0.49609375
771,-0.55859375,-1.912109375,-0.4375
772,-0.47265625,-1.806640625,-0.3232421875
773,-0.23828125,-1.658203125,-0.2626953125
774,-0.0361328125,-1.521484375,-0.2060546875
775,0.1611328125,-1.427734375,-0.1513671875
776,0.3115234375,-1.4013671875,-0.078125
777,0.4091796875,-1.3984375,-0.0498046875
778,0.46875,-1.40625,-0.03515625
779,0.51953125,-1.4482421875,-0.076171875
780,0.5654296875,-1.5146484375,-0.1279296875
781,0.6015625,-1.6044921875,-0.1708984375
782,0.6015625,-1.681640625,-0.2001953125
783,0.548828125,-1.763671875,-0.169921875
784,0.4453125,-1.8330078125,-0.111328125
785,0.3671875,-1.8896484375,-0.0771484375
786,0.30078125,-1.8916015625,-0.056640625
787,0.193359375,-1.8603515625,-0.041015625
788,0.0703125,-1.80859375,-0.033203125
789,-0.0263671875,-1.728515625,-0.029296875
790,-0.1494140625,-1.6181640625,-0.0185546875
791,-0.21875,-1.490234375,-0.0146484375
792,-0.2392578125,-1.3349609375,-0.00390625
793,-0.2568359375,-1.2080078125,0.0244140625
794,-0.232421875,-1.09375,0.0390625
795,-0.263671875,-0.96484375,0.0966796875
796,-0.29296875,-0.861328125,0.1513671875
797,-0.2822265625,-0.7578125,0.1904296875
798,-0.291015625,-0.66015625,0.228515625
799,-0.2587890625,-0.5498046875,0.1923828125
800,-0.181640625,-0.4453125,0.173828125
801,-0.0947265625,-0.3291015625,0.078125
802,0.025390625,-0.220703125,0.015625
803,0.0947265625,-0.1162109375,-0.060546875
804,0.1103515625,-0.0048828125,-0.0634765625
805,0.166015625,0.083984375,-0.0927734375
806,0.248046875,0.2109375,-0.2099609375
807,0.244140625,0.30859375,-0.2119140625
808,0.2431640625,0.3798828125,-0.2734375
809,0.2509765625,0.4560546875,-0.3154296875
810,0.2333984375,0.4697265625,-0.333984375
811,0.2119140625,0.4501953125,-0.3349609375
812,0.177734375,0.4052734375,-0.3193359375
813,0.0732421875,0.3056640625,-0.232421875
814,0.033203125,0.1826171875,-0.2021484375
815,0.0517578125,0.0986328125,-0.1826171875
816,0.0859375,0.0185546875,-0.1640625
817,0.12109375,-0.056640625,-0.1455078125
818,0.16015625,-0.1123046875,-0.1318359375
819,0.1318359375,-0.15625,-0.099609375
820,0.1259765625,-0.173828125,-0.0625
821,0.1611328125,-0.1982421875,-0.0556640625
822,0.201171875,-0.208984375,-0.076171875
823,0.19921875,-0.216796875,-0.138671875
824,0.166015625,-0.2138671875,-0.2275390625
825,0.150390625,-0.2314453125,-0.2705078125
826,-0.03125,-0.236328125,-0.3642578125
827,-0.1025390625,-0.291015625,-0.447265625
828,-0.2705078125,-0.3671875,-0.57421875
829,-0.234375,-0.5234375,-0.673828125
830,-0.4375,-0.642578125,-0.775390625
831,-0.369140625,-0.87890625,-0.720703125
832,-0.166015625,-1.287109375,-0.6259765625
833,0.0751953125,-1.6962890625,-0.666015625
834,0.1904296875,-2.2412109375,-0.673828125
835,0.2236328125,-2.7236328125,-0.580078125
836,0.28125,-3.3330078125,-0.51171875
837,0.42578125,-3.8408203125,-0.318359375
838,0.515625,-3.970703125,-0.2958984375
839,0.375,-3.4560546875,-0.34375
840,0.19140625,-2.830078125,-0.4169921875
841,0.0927734375,-2.3037109375,-0.4833984375
842,-0.0078125,-1.923828125,-0.4267578125
843,-0.087890625,-1.583984375,-0.3271484375
844,-0.1328125,-1.330078125,-0.248046875
845,-0.0654296875,-1.2041015625,-0.1640625
846,0.0380859375,-1.142578125,-0.0537109375
847,0.087890625,-1.11328125,-0.015625
848,0.109375,-1.212890625,-0.029296875
849,0.1015625,-1.30078125,-0.0234375
850,0.0859375,-1.380859375,-0.0078125
851,0.072265625,-1.419921875,0.001953125
852,0.08203125,-1.4423828125,0.0078125
853,0.1318359375,-1.5009765625,0.001953125
854,0.1796875,-1.5634765625,0.015625
855,0.2607421875,-1.6201171875,0.017578125
856,0.3017578125,-1.6748046875,0.0458984375
857,0.3525390625,-1.7080078125,0.0517578125
858,0.36328125,-1.7431640625,0.0791015625
859,0.46875,-1.7373046875,0.1015625
860,0.5009765625,-1.6572265625,0.166015625
861,0.48828125,-1.580078125,0.232421875
862,0.4873046875,-1.4931640625,0.27734375
863,0.482421875,-1.3603515625,0.3076171875
864,0.42578125,-1.2216796875,0.3154296875
865,0.3759765625,-1.072265625,0.3037109375
866,0.3349609375,-0.923828125,0.2568359375
867,0.3076171875,-0.798828125,0.1708984375
868,0.2353515625,-0.685546875,0.07421875
869,0.1572265625,-0.568359375,-0.04296875
870,0.08984375,-0.447265625,-0.16796875
871,-0.0107421875,-0.3310546875,-0.2666015625
872,-0.0791015625,-0.171875,-0.3310546875
873,-0.0986328125,-0.0166015625,-0.3740234375
874,-0.1044921875,0.111328125,-0.4326171875
875,-0.12109375,0.228515625,-0.451171875
876,-0.1357421875,0.3193359375,-0.4599609375
877,-0.115234375,0.396484375,-0.4482421875
878,-0.1748046875,0.4775390625,-0.3828125
879,-0.2080078125,0.5478515625,-0.3115234375
880,-0.2646484375,0.5966796875,-0.2119140625
881,-0.1943359375,0.57421875,-0.1455078125
882,-0.404296875,0.55859375,-0.0859375
883,-0.4931640625,0.46875,-0.048828125
884,-0.3828125,0.2509765625,-0.0283203125
885,-0.29296875,0.08203125,-0.01953125
886,-0.271484375,-0.0693359375,-0.015625
887,-0.2900390625,-0.1796875,-0.015625
888,-0.267578125,-0.2919921875,0.0185546875
889,-0.259765625,-0.3701171875,0.0263671875
890,-0.203125,-0.40625,0.00390625
891,-0.193359375,-0.4423828125,-0.02734375
892,-0.1162109375,-0.4453125,-0.1123046875
893,0.05078125,-0.4345703125,-0.2021484375
894,0.208984375,-0.4443359375,-0.3408203125
895,0.326171875,-0.46484375,-0.451171875
896,0.4169921875,-0.5048828125,-0.525390625
897,0.53515625,-0.6044921875,-0.5654296875
898,0.595703125,-0.751953125,-0.5712890625
899,0.6240234375,-0.984375,-0.580078125
900,0.6396484375,-1.3349609375,-0.5830078125
901,0.6064453125,-1.634765625,-0.53515625
902,0.484375,-1.888671875,-0.484375
903,0.3251953125,-2.1162109375,-0.4130859375
904,0.1728515625,-2.283203125,-0.33203125
905,-0.00390625,-2.3759765625,-0.2998046875
906,-0.1494140625,-2.421875,-0.2822265625
907,-0.1982421875,-2.3994140625,-0.3125
908,-0.228515625,-2.3427734375,-0.333984375
909,-0.2412109375,-2.2490234375,-0.3359375
910,-0.23046875,-2.126953125,-0.3037109375
911,-0.119140625,-1.9990234375,-0.2275390625
912,-0.0302734375,-1.8828125,-0.169921875
913,0.05078125,-1.7607421875,-0.111328125
914,0.083984375,-1.6806640625,-0.08203125
915,0.14453125,-1.591796875,-0.0908203125
916,0.212890625,-1.509765625,-0.1181640625
917,0.314453125,-1.5400390625,-0.1240234375
918,0.3154296875,-1.572265625,-0.095703125
919,0.306640625,-1.6318359375,-0.0869140625
920,0.3017578125,-1.7314453125,-0.0986328125
921,0.3310546875,-1.853515625,-0.0791015625
922,0.3271484375,-1.9736328125,-0.0498046875
923,0.2490234375,-2.01953125,0.0244140625
924,0.1533203125,-2.0439453125,0.0966796875
925,-0.04296875,-2.041015625,0.13671875
926,-0.1640625,-1.990234375,0.140625
927,-0.1640625,-1.9091796875,0.126953125
928,-0.228515625,-1.7783203125,0.099609375
929,-0.3759765625,-1.6220703125,0.0810546875
930,-0.443359375,-1.462890625,0.099609375
931,-0.4541015625,-1.2734375,0.1201171875
932,-0.5,-1.107421875,0.1259765625
933,-0.548828125,-0.9892578125,0.1494140625
934,-0.5517578125,-0.8525390625,0.0966796875
935,-0.51953125,-0.7099609375,0.0615234375
936,-0.46484375,-0.5703125,0.0009765625
937,-0.404296875,-0.40234375,-0.025390625
938,-0.337890625,-0.2607421875,-0.0537109375
939,-0.2001953125,-0.1240234375,-0.0791015625
940,-0.0615234375,0.0078125,-0.1435546875
941,0.0400390625,0.125,-0.1640625
942,0.16015625,0.2236328125,-0.2080078125
943,0.2451171875,0.28515625,-0.234375
944,0.3173828125,0.3623046875,-0.3134765625
945,0.375,0.38671875,-0.3203125
946,0.4306640625,0.4228515625,-0.3603515625
947,0.4873046875,0.3837890625,-0.3173828125
948,0.458984375,0.3095703125,-0.3115234375
949,0.5478515625,0.2412109375,-0.298828125
950,0.6162109375,0.1513671875,-0.3046875
951,0.65625,0.0546875,-0.3056640625
952,0.6181640625,-0.0361328125,-0.2802734375
953,0.5537109375,-0.1328125,-0.2333984375
954,0.501953125,-0.2373046875,-0.1748046875
955,0.4814453125,-0.3388671875,-0.1064453125
956,0.484375,-0.439453125,-0.0615234375
957,0.4609375,-0.5390625,-0.021484375
958,0.43359375,-0.6005859375,-0.021484375
959,0.40625,-0.6396484375,-0.060546875
960,0.3916015625,-0.638671875,-0.1376953125
961,0.365234375,-0.58984375,-0.2685546875
962,0.31640625,-0.5224609375,-0.40234375
963,0.2255859375,-0.4833984375,-0.4609375
964,0.056640625,-0.44140625,-0.494140625
965,-0.251953125,-0.5283203125,-0.4267578125
966,-0.3623046875,-0.685546875,-0.4501953125
967,-0.6220703125,-0.8359375,-0.4248046875
968,-0.775390625,-1.0166015625,-0.4619140625
969,-0.9375,-1.349609375,-0.4833984375
970,-0.9580078125,-1.7333984375,-0.46875
971,-0.82421875,-2.16796875,-0.50390625
972,-0.7919921875,-2.6591796875,-0.4208984375
973,-0.5654296875,-3.01953125,-0.369140625
974,-0.3603515625,-3.201171875,-0.4208984375
975,-0.134765625,-3.318359375,-0.3701171875
976,-0.0576171875,-3.1708984375,-0.380859375
977,-0.021484375,-2.8291015625,-0.44140625
978,0.0986328125,-2.55859375,-0.5380859375
979,0.169921875,-2.2255859375,-0.55859375
980,0.224609375,-1.8974609375,-0.4541015625
981,0.2548828125,-1.5947265625,-0.33203125
982,0.3076171875,-1.4697265625,-0.2216796875
983,0.326171875,-1.3935546875,-0.162109375
984,0.3037109375,-1.3642578125,-0.1259765625
985,0.306640625,-1.35546875,-0.1064453125
986,0.2861328125,-1.337890625,-0.10546875
987,0.20703125,-1.3134765625,-0.0859375
988,0.162109375,-1.337890625,-0.080078125
989,0.142578125,-1.45703125,-0.1064453125
990,0.0654296875,-1.576171875,-0.1103515625
991,0.0439453125,-1.6669921875,-0.1083984375
992,-0.0244140625,-1.7138671875,-0.0537109375
993,0.0146484375,-1.7216796875,-0.0107421875
994,0.02734375,-1.7392578125,0.037109375
995,0.056640625,-1.763671875,0.109375
996,0.0712890625,-1.7744140625,0.1240234375
997,0.0859375,-1.744140625,0.150390625
998,0.095703125,-1.6669921875,0.1953125
999,0.1708984375,-1.5390625,0.2177734375
1000,0.2509765625,-1.3779296875,0.2392578125
1001,0.298828125,-1.193359375,0.2607421875
1002,0.330078125,-1.0458984375,0.2666015625
1003,0.31640625,-0.875,0.22265625
1004,0.2109375,-0.7578125,0.1650390625
1005,0.2001953125,-0.67578125,0.09375
1006,0.1455078125,-0.5810546875,0.0107421875
1007,0.1103515625,-0.4296875,-0.0498046875
1008,0.0556640625,-0.2626953125,-0.08984375
1009,0.033203125,-0.1630859375,-0.150390625
1010,-0.015625,0.0048828125,-0.212890625
1011,-0.0576171875,0.1484375,-0.25390625
1012,-0.111328125,0.2939453125,-0.275390625
1013,-0.1513671875,0.435546875,-0.27734375
1014,-0.17578125,0.587890625,-0.279296875
1015,0.029296875,0.568359375,-0.234375
1016,-0.2666015625,0.6376953125,-0.25390625
1017,-0.5166015625,0.748046875,-0.2978515625
1018,-0.5146484375,0.732421875,-0.3076171875
1019,-0.5029296875,0.6298828125,-0.2890625
1020,-0.5,0.4794921875,-0.2607421875
1021,-0.4404296875,0.255859375,-0.203125
1022,-0.345703125,0.041015625,-0.15234375
1023,-0.28515625,-0.130859375,-0.1279296875
1024,-0.279296875,-0.2861328125,-0.0947265625
1025,-0.2822265625,-0.4072265625,-0.0771484375
1026,-0.2294921875,-0.517578125,-0.091796875
1027,-0.185546875,-0.578125,-0.0859375
1028,-0.16015625,-0.5771484375,-0.09375
1029,-0.126953125,-0.53125,-0.0810546875
1030,-0.107421875,-0.4111328125,-0.130859375
1031,-0.0986328125,-0.2890625,-0.1357421875
1032,-0.044921875,-0.208984375,-0.1650390625
1033,0.044921875,-0.1552734375,-0.2158203125
1034,0.1279296875,-0.1328125,-0.3232421875
1035,0.271484375,-0.142578125,-0.4638671875
1036,0.462890625,-0.2158203125,-0.6630859375
1037,0.6142578125,-0.34765625,-0.814453125
1038,0.7333984375,-0.5107421875,-0.9248046875
1039,0.72265625,-0.6953125,-0.9150390625
1040,0.6708984375,-0.951171875,-0.884765625
1041,0.6484375,-1.3486328125,-0.8564453125
1042,0.5947265625,-1.8056640625,-0.8896484375
1043,0.4541015625,-2.34375,-0.89453125
1044,0.3154296875,-2.7978515625,-0.7900390625
1045,0.037109375,-2.98046875,-0.6298828125
1046,-0.22265625,-3.099609375,-0.5263671875
1047,-0.443359375,-3.1806640625,-0.4169921875
1048,-0.5859375,-3.0029296875,-0.333984375
1049,-0.6376953125,-2.8642578125,-0.328125
1050,-0.591796875,-2.72265625,-0.3154296875
1051,-0.439453125,-2.525390625,-0.3173828125
1052,-0.248046875,-2.2529296875,-0.2470703125
1053,-0.0283203125,-1.9619140625,-0.1796875
1054,0.142578125,-1.705078125,-0.13671875
1055,0.263671875,-1.5029296875,-0.1337890625
1056,0.3291015625,-1.40234375,-0.1396484375
1057,0.37109375,-1.345703125,-0.1416015625
1058,0.408203125,-1.3291015625,-0.16796875
1059,0.44921875,-1.3212890625,-0.185546875
1060,0.501953125,-1.3212890625,-0.1923828125
1061,0.5537109375,-1.3408203125,-0.1796875
1062,0.560546875,-1.3681640625,-0.130859375
1063,0.5458984375,-1.4228515625,-0.0859375
1064,0.455078125,-1.4833984375,-0.037109375
1065,0.4111328125,-1.525390625,-0.0078125
1066,0.380859375,-1.6015625,0.0341796875
1067,0.2607421875,-1.6630859375,0.07421875
1068,0.09375,-1.6572265625,0.1181640625
1069,-0.0458984375,-1.63671875,0.173828125
1070,-0.1845703125,-1.564453125,0.185546875
1071,-0.3369140625,-1.3974609375,0.1923828125
1072,-0.431640625,-1.1875,0.1962890625
1073,-0.4833984375,-0.98828125,0.1943359375
1074,-0.5009765625,-0.80078125,0.2021484375
1075,-0.4814453125,-0.625,0.177734375
1076,-0.451171875,-0.4658203125,0.1357421875
1077,-0.435546875,-0.3017578125,0.0849609375
1078,-0.400390625,-0.1416015625,0.01171875
1079,-0.29296875,-0.015625,-0.0234375
1080,-0.18359375,0.0830078125,-0.099609375
1081,-0.0703125,0.2001953125,-0.1318359375
1082,0.046875,0.28515625,-0.2255859375
1083,0.0966796875,0.3642578125,-0.2724609375
1084,0.1875,0.421875,-0.333984375
1085,0.2841796875,0.474609375,-0.3671875
1086,0.3134765625,0.5126953125,-0.3134765625
1087,0.361328125,0.5322265625,-0.28125
1088,0.4052734375,0.4765625,-0.2294921875
1089,0.4150390625,0.3984375,-0.220703125
1090,0.3779296875,0.2744140625,-0.1689453125
1091,0.3505859375,0.1279296875,-0.0888671875
1092,0.34765625,0.00390625,-0.0732421875
1093,0.3642578125,-0.1044921875,-0.0751953125
1094,0.3603515625,-0.20703125,-0.1005859375
1095,0.3486328125,-0.2802734375,-0.1396484375
1096,0.318359375,-0.330078125,-0.1748046875
1097,0.2783203125,-0.3466796875,-0.2001953125
1098,0.263671875,-0.3330078125,-0.208984375
1099,0.2451171875,-0.3046875,-0.171875
1100,0.236328125,-0.283203125,-0.1005859375
1101,0.2373046875,-0.267578125,-0.0517578125
1102,0.1806640625,-0.2451171875,-0.08203125
1103,0.134765625,-0.21875,-0.130859375
1104,0.173828125,-0.2490234375,-0.2646484375
1105,0.0087890625,-0.2080078125,-0.396484375
1106,-0.1748046875,-0.21875,-0.4365234375
1107,-0.421875,-0.24609375,-0.533203125
1108,-0.708984375,-0.3564453125,-0.716796875
1109,-0.7138671875,-0.5390625,-0.8232421875
1110,-0.802734375,-0.810546875,-0.794921875
1111,-0.5986328125,-1.154296875,-0.7607421875
1112,-0.5263671875,-1.6865234375,-0.7236328125
1113,-0.3515625,-2.3525390625,-0.6865234375
1114,-0.1591796875,-3.6396484375,-0.6005859375
1115,0.345703125,-4.2724609375,-0.5458984375
1116,0.5126953125,-4.4052734375,-0.66796875
1117,0.6298828125,-4.390625,-0.390625
1118,0.5751953125,-3.9423828125,-0.30859375
1119,0.486328125,-3.2880859375,-0.2353515625
1120,0.5126953125,-2.669921875,-0.1279296875
1121,0.4716796875,-2.0869140625,-0.046875
1122,0.3642578125,-1.650390625,-0.0029296875
1123,0.271484375,-1.37109375,-0.0078125
1124,0.2041015625,-1.1767578125,-0.0595703125
1125,0.1591796875,-1.1005859375,-0.0791015625
1126,0.0908203125,-1.0771484375,-0.072265625
1127,0.046875,-1.107421875,-0.0615234375
1128,0.0244140625,-1.1630859375,-0.052734375
1129,-0.02734375,-1.1845703125,-0.0478515625
1130,-0.078125,-1.2119140625,-0.0283203125
1131,-0.0908203125,-1.255859375,-0.0361328125
1132,-0.0712890625,-1.263671875,-0.01171875
1133,-0.0185546875,-1.365234375,-0.001953125
1134,0.052734375,-1.4091796875,0.044921875
1135,0.0732421875,-1.4990234375,0.0771484375
1136,0.0673828125,-1.5869140625,0.1162109375
1137,0.107421875,-1.599609375,0.134765625
1138,0.1533203125,-1.56640625,0.1474609375
1139,0.1748046875,-1.5205078125,0.1630859375
1140,0.2119140625,-1.4345703125,0.1875
1141,0.25,-1.3330078125,0.1982421875
1142,0.25390625,-1.20703125,0.2099609375
1143,0.2392578125,-1.091796875,0.201171875
1144,0.2158203125,-0.9541015625,0.189453125
1145,0.1845703125,-0.830078125,0.16015625
1146,0.1416015625,-0.6669921875,0.12890625
1147,0.0771484375,-0.4560546875,0.095703125
1148,0.0322265625,-0.2783203125,0.0380859375
1149,-0.0322265625,-0.11328125,-0.041015625
1150,-0.064453125,0.03515625,-0.1044921875
1151,-0.103515625,0.2158203125,-0.1572265625
1152,-0.1201171875,0.3740234375,-0.2080078125
1153,-0.1884765625,0.5185546875,-0.251953125
1154,-0.2119140625,0.669921875,-0.263671875
1155,-0.22265625,0.8095703125,-0.2470703125
1156,-0.2529296875,0.8701171875,-0.2421875
1157,-0.28125,0.853515625,-0.265625
1158,-0.2861328125,0.7685546875,-0.3154296875
1159,-0.2939453125,0.6103515625,-0.3603515625
1160,-0.33203125,0.4443359375,-0.333984375
1161,-0.3125,0.2255859375,-0.296875
1162,-0.298828125,0.0458984375,-0.244140625
1163,-0.2783203125,-0.134765625,-0.166015625
1164,-0.287109375,-0.2626953125,-0.1640625
1165,-0.271484375,-0.3564453125,-0.103515625
1166,-0.255859375,-0.4189453125,-0.0732421875
1167,-0.1630859375,-0.4931640625,-0.169921875
1168,-0.10546875,-0.482421875,-0.3076171875
1169,-0.0048828125,-0.439453125,-0.44140625
1170,0.1591796875,-0.408203125,-0.5625
1171,0.3486328125,-0.4326171875,-0.6826171875
1172,0.4912109375,-0.5009765625,-0.771484375
1173,0.6123046875,-0.6279296875,-0.83984375
1174,0.6513671875,-0.8115234375,-0.8193359375
1175,0.6484375,-1.115234375,-0.76953125
1176,0.5517578125,-1.515625,-0.7060546875
1177,0.37109375,-1.97265625,-0.646484375
1178,0.287109375,-2.5205078125,-0.6064453125
1179,0.1923828125,-3.03125,-0.5634765625
1180,-0.0185546875,-3.267578125,-0.4541015625
1181,-0.2412109375,-3.1865234375,-0.4150390625
1182,-0.2685546875,-2.890625,-0.400390625
1183,-0.2265625,-2.64453125,-0.453125
1184,-0.2314453125,-2.4462890625,-0.5537109375
1185,-0.1796875,-2.220703125,-0.5546875
1186,-0.12890625,-2.0263671875,-0.466796875
1187,-0.0263671875,-1.7880859375,-0.43359375
1188,0.0712890625,-1.609375,-0.373046875
1189,0.0810546875,-1.4345703125,-0.310546875
1190,0.1806640625,-1.328125,-0.39453125
1191,0.220703125,-1.2890625,-0.478515625
1192,0.2080078125,-1.3095703125,-0.447265625
1193,0.228515625,-1.36328125,-0.3642578125
1194,0.296875,-1.4423828125,-0.3037109375
1195,0.3330078125,-1.5546875,-0.2138671875
1196,0.4267578125,-1.6494140625,-0.1640625
1197,0.4267578125,-1.73828125,-0.0830078125
1198,0.37890625,-1.8056640625,0.00390625
1199,0.314453125,-1.8779296875,0.080078125
1200,0.3857421875,-1.939453125,0.1474609375
1201,0.220703125,-1.9619140625,0.16796875
1202,0.0712890625,-1.9365234375,0.2236328125
1203,-0.0087890625,-1.9560546875,0.2666015625
1204,-0.2021484375,-1.88671875,0.3154296875
1205,-0.33203125,-1.7470703125,0.3349609375
1206,-0.4453125,-1.59375,0.353515625
1207,-0.5517578125,-1.408203125,0.3564453125
1208,-0.607421875,-1.2275390625,0.3291015625
1209,-0.6044921875,-1.0224609375,0.26953125
1210,-0.5771484375,-0.8134765625,0.2275390625
1211,-0.53125,-0.6455078125,0.166015625
1212,-0.4443359375,-0.482421875,0.0947265625
1213,-0.3212890625,-0.3330078125,0.01171875
1214,-0.23046875,-0.1689453125,-0.044921875
1215,-0.1435546875,0.0146484375,-0.140625
1216,-0.0625,0.16015625,-0.259765625
1217,0.0693359375,0.330078125,-0.314453125
1218,0.2177734375,0.4443359375,-0.3369140625
1219,0.4052734375,0.517578125,-0.4384765625
1220,0.48828125,0.58984375,-0.3994140625
1221,0.58203125,0.60546875,-0.3828125
1222,0.66015625,0.591796875,-0.3828125
1223,0.6904296875,0.484375,-0.3525390625
1224,0.6455078125,0.2890625,-0.15625
1225,0.607421875,0.0859375,-0.0283203125
1226,0.5703125,-0.0859375,0.048828125
1227,0.5126953125,-0.234375,0.0888671875
1228,0.421875,-0.3525390625,0.1064453125
1229,0.3330078125,-0.427734375,0.083984375
1230,0.236328125,-0.4658203125,0.0400390625
1231,0.15234375,-0.4833984375,-0.0107421875
1232,0.0830078125,-0.474609375,-0.0556640625
1233,0.0107421875,-0.4482421875,-0.0732421875
1234,-0.009765625,-0.4013671875,-0.1083984375
1235,-0.0224609375,-0.33984375,-0.1201171875
1236,-0.056640625,-0.2646484375,-0.1279296875
1237,-0.1279296875,-0.189453125,-0.1201171875
1238,-0.109375,-0.142578125,-0.1123046875
1239,-0.12109375,-0.0986328125,-0.111328125
1240,-0.2158203125,-0.07421875,-0.078125
1241,-0.2490234375,-0.0869140625,-0.0830078125
1242,-0.30859375,-0.083984375,-0.1376953125
1243,-0.3857421875,-0.119140625,-0.208984375
1244,-0.3671875,-0.224609375,-0.2607421875
1245,-0.4619140625,-0.34765625,-0.3125
1246,-0.515625,-0.4892578125,-0.3720703125
1247,-0.4990234375,-0.7666015625,-0.42578125
1248,-0.44140625,-1.056640625,-0.462890625
1249,-0.333984375,-1.3798828125,-0.546875
1250,-0.1845703125,-1.7451171875,-0.6298828125
1251,0.0126953125,-2.1064453125,-0.6962890625
1252,0.1455078125,-2.416015625,-0.685546875
1253,0.1728515625,-2.6474609375,-0.7236328125
1254,0.298828125,-2.736328125,-0.763671875
1255,0.2353515625,-2.6103515625,-0.7509765625
1256,0.2353515625,-2.458984375,-0.666015625
1257,0.154296875,-2.240234375,-0.564453125
1258,0.0,-1.94921875,-0.4150390625
1259,-0.1025390625,-1.6650390625,-0.2529296875
1260,-0.1826171875,-1.40625,-0.142578125
1261,-0.240234375,-1.1787109375,-0.1044921875
1262,-0.2626953125,-0.9951171875,-0.1064453125
1263,-0.2509765625,-0.912109375,-0.0625
1264,-0.2216796875,-0.91015625,-0.00390625
1265,-0.3212890625,-0.9453125,-0.0009765625
1266,-0.388671875,-1.0341796875,-0.0009765625
1267,-0.349609375,-1.1396484375,-0.0029296875
1268,-0.361328125,-1.240234375,0.0087890625
1269,-0.3330078125,-1.349609375,0.01953125
1270,-0.3232421875,-1.4345703125,0.0380859375
1271,-0.314453125,-1.53515625,0.0888671875
1272,-0.296875,-1.6865234375,0.142578125
1273,-0.1923828125,-1.8154296875,0.177734375
1274,-0.1083984375,-1.90625,0.2080078125
1275,0.0048828125,-1.9755859375,0.1962890625
1276,0.138671875,-2.08984375,0.232421875
1277,0.26171875,-2.056640625,0.2685546875
1278,0.3564453125,-1.94921875,0.283203125
1279,0.4404296875,-1.8388671875,0.2705078125
1280,0.521484375,-1.6650390625,0.275390625
1281,0.5771484375,-1.451171875,0.2451171875
1282,0.5859375,-1.2216796875,0.189453125
1283,0.626953125,-1.0185546875,0.1494140625
1284,0.6181640625,-0.8203125,0.1171875
1285,0.5712890625,-0.6279296875,0.0849609375
1286,0.5400390625,-0.484375,0.009765625
1287,0.52734375,-0.3466796875,-0.0546875
1288,0.4609375,-0.244140625,-0.0673828125
1289,0.33984375,-0.13671875,-0.06640625
1290,0.25390625,-0.0751953125,-0.0224609375
1291,0.173828125,-0.0537109375,0.02734375
1292,0.1357421875,-0.0908203125,0.0537109375
1293,0.0615234375,-0.1494140625,0.0595703125
1294,-0.02734375,-0.1826171875,0.072265625
1295,-0.078125,-0.216796875,0.1044921875
1296,-0.1591796875,-0.2275390625,0.11328125
1297,-0.17578125,-0.2333984375,0.1220703125
1298,-0.173828125,-0.2333984375,0.0947265625
1299,-0.2021484375,-0.21875,0.0380859375
1300,-0.2529296875,-0.1875,-0.029296875
1301,-0.271484375,-0.166015625,-0.09765625
1302,-0.2646484375,-0.15234375,-0.138671875
1303,-0.259765625,-0.173828125,-0.162109375
1304,-0.244140625,-0.2119140625,-0.1484375
1305,-0.236328125,-0.287109375,-0.1083984375
1306,-0.2138671875,-0.3720703125,-0.05859375
1307,-0.1806640625,-0.4638671875,-0.0029296875
1308,-0.1455078125,-0.5224609375,0.0595703125
1309,-0.1171875,-0.552734375,0.1005859375
1310,-0.10546875,-0.5537109375,0.1201171875
1311,-0.0927734375,-0.552734375,0.0986328125
1312,-0.0595703125,-0.546875,0.05078125
1313,-0.0185546875,-0.5673828125,-0.0146484375
1314,0.0888671875,-0.6025390625,-0.080078125
1315,0.216796875,-0.65625,-0.20703125
1316,0.3564453125,-0.70703125,-0.337890625
1317,0.4697265625,-0.759765625,-0.455078125
1318,0.5673828125,-0.818359375,-0.544921875
1319,0.5966796875,-0.8740234375,-0.6171875
1320,0.6064453125,-0.9697265625,-0.642578125
1321,0.5478515625,-1.1025390625,-0.65234375
1322,0.4296875,-1.291015625,-0.6630859375
1323,0.330078125,-1.439453125,-0.6357421875
1324,0.2314453125,-1.546875,-0.5859375
1325,0.1484375,-1.546875,-0.4990234375
1326,-0.0595703125,-1.4833984375,-0.3828125
1327,-0.015625,-1.4091796875,-0.2705078125
1328,-0.09765625,-1.2392578125,-0.12109375
1329,-0.126953125,-1.1201171875,-0.017578125
1330,-0.0771484375,-1.037109375,0.009765625
1331,-0.072265625,-0.978515625,0.0556640625
1332,0.0029296875,-0.9482421875,0.0546875
1333,0.0078125,-0.9150390625,0.0703125
1334,0.119140625,-0.9111328125,0.080078125
1335,0.2919921875,-0.9462890625,0.0673828125
1336,0.376953125,-1.0009765625,0.009765625
1337,0.416015625,-1.0625,-0.0908203125
1338,0.4111328125,-1.119140625,-0.1689453125
1339,0.3818359375,-1.1494140625,-0.232421875
1340,0.31640625,-1.17578125,-0.2744140625
1341,0.2265625,-1.2138671875,-0.26953125
1342,0.126953125,-1.2509765625,-0.220703125
1343,0.0322265625,-1.2412109375,-0.1591796875
1344,-0.0625,-1.19140625,-0.0859375
1345,-0.12109375,-1.1328125,-0.0126953125
1346,-0.1533203125,-1.060546875,0.0390625
1347,-0.20703125,-1.005859375,0.0546875
1348,-0.232421875,-0.9443359375,0.08203125
1349,-0.2783203125,-0.8720703125,0.0732421875
1350,-0.3125,-0.7880859375,0.0361328125
1351,-0.3388671875,-0.6904296875,-0.0068359375
1352,-0.3662109375,-0.5869140625,-0.02734375
1353,-0.3798828125,-0.4970703125,-0.04296875
1354,-0.3466796875,-0.3955078125,-0.0556640625
1355,-0.3017578125,-0.2783203125,-0.076171875
1356,-0.255859375,-0.1474609375,-0.10546875
1357,-0.201171875,-0.0087890625,-0.1328125
1358,-0.14453125,0.1201171875,-0.158203125
1359,-0.0849609375,0.228515625,-0.1474609375
1360,0.01171875,0.3212890625,-0.1435546875
1361,0.1142578125,0.4091796875,-0.1376953125
1362,0.203125,0.48046875,-0.107421875
1363,0.3046875,0.5087890625,-0.076171875
1364,0.396484375,0.517578125,-0.048828125
1365,0.4892578125,0.48046875,-0.041015625
1366,0.5576171875,0.4306640625,-0.0400390625
1367,0.6240234375,0.3544921875,-0.0439453125
1368,0.66015625,0.265625,-0.05078125
1369,0.7197265625,0.1650390625,-0.09375
1370,0.708984375,0.08984375,-0.1474609375
1371,0.7021484375,0.0185546875,-0.23046875
1372,0.7568359375,-0.0439453125,-0.3193359375
1373,0.7353515625,-0.0830078125,-0.390625
1374,0.6337890625,-0.0810546875,-0.4736328125
1375,0.5390625,-0.064453125,-0.541015625
1376,0.5185546875,-0.05078125,-0.5859375
1377,0.3916015625,-0.0166015625,-0.6044921875
1378,0.390625,0.0146484375,-0.6455078125
1379,0.2568359375,0.0693359375,-0.6708984375
1380,0.0224609375,0.1015625,-0.6865234375
1381,-0.1171875,0.1396484375,-0.6923828125
1382,-0.4150390625,0.13671875,-0.7236328125
1383,-0.6572265625,0.2353515625,-0.720703125
1384,-0.8681640625,0.1728515625,-0.6650390625
1385,-1.0849609375,0.126953125,-0.7041015625
1386,-1.1845703125,0.0107421875,-0.732421875
1387,-1.173828125,-0.14453125,-0.8056640625
1388,-1.1240234375,-0.2900390625,-0.94921875
1389,-1.03125,-0.4140625,-1.076171875
1390,-0.9140625,-0.4951171875,-1.1904296875
1391,-0.8193359375,-0.576171875,-1.314453125
1392,-0.712890625,-0.6103515625,-1.4169921875
1393,-0.5966796875,-0.6806640625,-1.509765625
1394,-0.4912109375,-0.7392578125,-1.5791015625
1395,-0.4189453125,-0.7861328125,-1.619140625
1396,-0.3076171875,-0.8388671875,-1.6064453125
1397,-0.2060546875,-0.9130859375,-1.611328125
1398,-0.0966796875,-1.0009765625,-1.5703125
1399,0.048828125,-1.115234375,-1.4951171875
1400,0.1796875,-1.2041015625,-1.3984375
1401,0.2421875,-1.275390625,-1.263671875
1402,0.4384765625,-1.36328125,-1.1591796875
1403,0.509765625,-1.3623046875,-1.03125
1404,0.6572265625,-1.3798828125,-0.8408203125
1405,0.7275390625,-1.36328125,-0.6787109375
1406,0.8125,-1.3408203125,-0.4931640625
1407,0.8173828125,-1.287109375,-0.2890625
1408,0.806640625,-1.302734375,-0.0546875
1409,0.8251953125,-1.27734375,0.1025390625
1410,0.818359375,-1.1923828125,0.2607421875
1411,0.7294921875,-1.0146484375,0.314453125
1412,0.662109375,-0.7626953125,0.248046875
1413,0.6201171875,-0.41015625,0.2626953125
1414,0.6748046875,-0.1591796875,0.3603515625
1415,0.69921875,0.056640625,0.4248046875
1416,0.71875,0.212890625,0.35546875
1417,0.76171875,0.357421875,0.2734375
1418,0.79296875,0.435546875,0.0546875
1419,0.83984375,0.564453125,-0.17578125
1420,0.84765625,0.6552734375,-0.38671875
1421,0.87890625,0.7490234375,-0.6328125
1422,0.5859375,0.341796875,-6.0
1423,7.9990234375,7.9990234375,-8.0
1424,-8.0,5.3701171875,1.09375
1425,-0.0478515625,5.740234375,2.009765625
1426,5.3515625,-0.2158203125,2.09375
1427,-1.84375,-2.4423828125,-0.85546875
1428,-1.3984375,-1.13671875,-0.806640625
1429,0.4853515625,0.1728515625,-3.5400390625
1430,0.8173828125,0.875,-4.357421875
1431,0.7509765625,0.650390625,-5.275390625
1432,0.80859375,0.4580078125,-5.0244140625
1433,1.759765625,-0.03515625,-4.3515625
1434,1.7109375,-1.1376953125,-4.4814453125
1435,1.7333984375,-1.421875,-4.1005859375
1436,1.2802734375,-1.8203125,-3.685546875
1437,0.998046875,-0.5087890625,-3.9951171875
1438,1.8271484375,0.5185546875,-3.6083984375
1439,1.158203125,0.203125,-2.6279296875
1440,0.91015625,0.310546875,-2.3134765625
1441,0.6669921875,1.3076171875,-2.9365234375
1442,0.8701171875,0.783203125,-2.5703125
1443,0.9931640625,0.6474609375,-2.267578125
1444,1.1162109375,0.6357421875,-1.4677734375
1445,0.6083984375,-0.7705078125,-0.8828125
1446,0.8271484375,-0.33984375,-0.9697265625
1447,0.3193359375,0.025390625,-1.240234375
1448,0.701171875,-0.1708984375,-1.0166015625
1449,0.8828125,-0.091796875,-1.16015625
1450,0.7138671875,-0.0361328125,-1.0703125
1451,0.5888671875,0.091796875,-1.1455078125
1452,0.6728515625,0.0107421875,-1.10546875
1453,0.85546875,-0.4453125,-0.9111328125
1454,0.8935546875,-0.3994140625,-0.8095703125
1455,0.47265625,0.12109375,-0.8935546875
1456,0.3017578125,0.43359375,-0.8740234375
1457,0.34375,0.453125,-0.30078125
1458,0.3427734375,0.609375,0.330078125
1459,0.1923828125,0.96875,-0.134765625
1460,-0.0322265625,1.0,-0.8212890625
1461,-0.033203125,1.0009765625,-1.126953125
1462,0.0419921875,1.0078125,-1.2236328125
1463,-0.013671875,1.01953125,-1.138671875
1464,0.10546875,0.986328125,-1.0517578125
1465,0.1298828125,0.8388671875,-0.8505859375
1466,0.0849609375,0.7373046875,-0.671875
1467,0.0537109375,0.5615234375,-0.5693359375
1468,0.134765625,0.4287109375,-0.5068359375
1469,0.2080078125,0.314453125,-0.4521484375
1470,0.2314453125,0.2451171875,-0.44140625
1471,0.2177734375,0.2099609375,-0.4345703125
1472,0.1796875,0.1806640625,-0.44921875
1473,0.06640625,0.12109375,-0.4404296875
1474,-0.0654296875,0.0302734375,-0.3857421875
1475,-0.11328125,-0.0517578125,-0.3642578125
1476,-0.00390625,-0.1015625,-0.3720703125
1477,0.15625,-0.0322265625,-0.4716796875
1478,0.3076171875,0.12109375,-0.5986328125
1479,0.40234375,0.193359375,-0.6650390625
1480,0.2060546875,0.203125,-0.4482421875
1481,0.185546875,0.2021484375,-0.3232421875
1482,0.248046875,0.2529296875,-0.36328125
1483,0.306640625,0.3759765625,-0.455078125
1484,0.4423828125,0.5224609375,-0.4775390625
1485,0.400390625,0.6787109375,-0.478515625
1486,0.4169921875,0.7490234375,-0.4921875
1487,0.427734375,0.8408203125,-0.5068359375
1488,0.45703125,0.83984375,-0.5224609375
1489,0.5087890625,0.8095703125,-0.4912109375
1490,0.5791015625,0.7529296875,-0.53125
1491,0.4677734375,0.6416015625,-0.50390625
1492,0.5029296875,0.58203125,-0.5556640625
1493,0.515625,0.5419921875,-0.642578125
1494,0.5205078125,0.47265625,-0.6845703125
1495,0.3515625,0.4404296875,-0.70703125
1496,0.4150390625,0.412109375,-0.75
1497,0.4208984375,0.4150390625,-0.822265625
1498,0.3505859375,0.3623046875,-0.7880859375
1499,0.4482421875,0.388671875,-0.814453125
1500,0.4140625,0.3955078125,-0.7705078125
1501,0.4453125,0.4130859375,-0.7919921875
1502,0.4736328125,0.4072265625,-0.8037109375
1503,0.5634765625,0.49609375,-0.8388671875
1504,0.46484375,0.4580078125,-0.8203125
1505,0.52734375,0.4541015625,-0.8818359375
1506,0.544921875,0.4609375,-0.896484375
1507,0.46484375,0.5478515625,-0.849609375
1508,0.4560546875,0.533203125,-0.8671875
1509,0.5068359375,0.51171875,-0.8828125
1510,0.51953125,0.5029296875,-0.888671875
1511,0.5087890625,0.46484375,-0.9287109375
1512,0.568359375,0.4931640625,-0.943359375
1513,0.46484375,0.4462890625,-0.951171875
1514,0.541015625,0.470703125,-1.0283203125
1515,0.5341796875,0.5224609375,-1.0322265625
1516,0.59375,0.509765625,-1.0185546875
1517,0.6162109375,0.638671875,-1.04296875
1518,0.568359375,0.509765625,-0.9658203125
1519,0.587890625,0.6064453125,-1.025390625
1520,0.669921875,0.7021484375,-1.0341796875
1521,0.673828125,0.6337890625,-0.9658203125
1522,0.669921875,0.5166015625,-0.943359375
1523,0.623046875,0.583984375,-0.923828125
1524,0.62109375,0.5693359375,-0.9208984375
1525,0.5498046875,0.552734375,-0.92578125
1526,0.458984375,0.626953125,-0.9443359375
1527,0.4560546875,0.4921875,-0.900390625
1528,0.509765625,0.509765625,-0.904296875
1529,0.484375,0.5556640625,-0.8828125
1530,0.501953125,0.6181640625,-0.875
1531,0.5361328125,0.5849609375,-0.814453125
1532,0.552734375,0.4775390625,-0.802734375
1533,0.515625,0.423828125,-0.83203125
1534,0.4296875,0.3876953125,-0.8046875
1535,0.4013671875,0.384765625,-0.787109375
1536,0.40625,0.4111328125,-0.755859375
1537,0.41015625,0.4482421875,-0.7265625
1538,0.4013671875,0.3916015625,-0.6923828125
1539,0.3955078125,0.33203125,-0.673828125
1540,0.3984375,0.2529296875,-0.62109375
1541,0.392578125,0.2158203125,-0.626953125
1542,0.322265625,0.0478515625,-0.5576171875
1543,0.390625,0.1884765625,-0.716796875
1544,0.30078125,0.2431640625,-0.6591796875
1545,0.359375,0.1494140625,-0.6640625
1546,0.3798828125,0.1162109375,-0.671875
1547,0.3955078125,0.1142578125,-0.685546875
1548,0.41015625,0.109375,-0.6875
1549,0.421875,0.1162109375,-0.6962890625
1550,0.4189453125,0.1328125,-0.72265625
1551,0.4111328125,0.154296875,-0.7529296875
1552,0.396484375,0.15234375,-0.783203125
1553,0.4052734375,0.169921875,-0.80859375
1554,0.400390625,0.1728515625,-0.8408203125
1555,0.3837890625,0.1708984375,-0.8486328125
1556,0.390625,0.17578125,-0.8818359375
1557,0.3857421875,0.1650390625,-0.8994140625
1558,0.37890625,0.1533203125,-0.91015625
1559,0.373046875,0.1494140625,-0.92578125
1560,0.3701171875,0.1484375,-0.9326171875
1561,0.384765625,0.1416015625,-0.9560546875
1562,0.3798828125,0.1337890625,-0.95703125
1563,0.3798828125,0.1533203125,-0.9638671875
1564,0.4150390625,0.130859375,-0.9580078125
1565,0.3955078125,0.1279296875,-0.9755859375
1566,0.392578125,0.1220703125,-1.00390625
1567,0.390625,0.1328125,-1.02734375
1568,0.3388671875,0.1142578125,-1.0341796875
1569,0.3212890625,0.1083984375,-1.0576171875
1570,0.3232421875,0.1044921875,-1.068359375
1571,0.3310546875,0.1083984375,-1.0751953125
1572,0.32421875,0.0908203125,-1.0654296875
1573,0.328125,0.0849609375,-1.0556640625
1574,0.3447265625,0.0888671875,-1.04296875
1575,0.3466796875,0.0966796875,-1.03515625
1576,0.3408203125,0.0751953125,-1.0107421875
1577,0.353515625,0.0673828125,-1.0029296875
1578,0.33203125,0.0869140625,-0.962890625
1579,0.33984375,0.0966796875,-0.947265625
1580,0.3583984375,0.095703125,-0.947265625
1581,0.3408203125,0.09765625,-0.947265625
1582,0.34375,0.115234375,-0.953125
1583,0.3369140625,0.115234375,-0.9560546875
1584,0.33984375,0.1103515625,-0.9521484375
1585,0.341796875,0.0986328125,-0.9521484375
1586,0.345703125,0.07421875,-0.962890625
1587,0.3564453125,0.0771484375,-0.9599609375
1588,0.359375,0.0751953125,-0.947265625
1589,0.3662109375,0.09765625,-0.9306640625
1590,0.3583984375,0.115234375,-0.9052734375
1591,0.361328125,0.119140625,-0.8974609375
1592,0.3623046875,0.1103515625,-0.9208984375
1593,0.380859375,0.103515625,-0.9267578125
1594,0.3779296875,0.1005859375,-0.9287109375
1595,0.3779296875,0.107421875,-0.91796875
1596,0.3779296875,0.0947265625,-0.900390625
1597,0.3740234375,0.0947265625,-0.8994140625
1598,0.3828125,0.095703125,-0.8876953125
1599,0.3779296875,0.09765625,-0.8828125
1600,0.373046875,0.1015625,-0.884765625
1601,0.37890625,0.1044921875,-0.880859375
1602,0.3798828125,0.103515625,-0.8740234375
1603,0.384765625,0.11328125,-0.888671875
1604,0.3935546875,0.1025390625,-0.8837890625
1605,0.3984375,0.1015625,-0.876953125
1606,0.3896484375,0.1123046875,-0.876953125
1607,0.404296875,0.1044921875,-0.8642578125
1608,0.3994140625,0.111328125,-0.865234375
1609,0.41015625,0.1064453125,-0.853515625
1610,0.40625,0.115234375,-0.865234375
1611,0.4130859375,0.1201171875,-0.86328125
1612,0.412109375,0.1201171875,-0.884765625
1613,0.42578125,0.1103515625,-0.8798828125
1614,0.4287109375,0.11328125,-0.8759765625
1615,0.4326171875,0.1142578125,-0.8828125
1616,0.4248046875,0.1181640625,-0.884765625
1617,0.421875,0.1142578125,-0.890625
1618,0.419921875,0.115234375,-0.8935546875
1619,0.4248046875,0.115234375,-0.8935546875
1620,0.42578125,0.1171875,-0.8974609375
1621,0.4228515625,0.1142578125,-0.89453125
1622,0.419921875,0.1142578125,-0.8984375
1623,0.4169921875,0.1142578125,-0.9052734375
1624,0.41796875,0.1181640625,-0.8984375
1625,0.4208984375,0.1103515625,-0.900390625
1626,0.419921875,0.115234375,-0.900390625
1627,0.421875,0.11328125,-0.896484375
1628,0.41796875,0.1142578125,-0.8935546875
1629,0.416015625,0.1142578125,-0.896484375
1630,0.4169921875,0.109375,-0.8935546875
1631,0.421875,0.1103515625,-0.89453125
1632,0.4208984375,0.103515625,-0.8857421875
1633,0.4111328125,0.1103515625,-0.888671875
1634,0.408203125,0.109375,-0.8896484375
1635,0.408203125,0.109375,-0.8818359375
1636,0.408203125,0.1083984375,-0.8837890625
1637,0.4140625,0.11328125,-0.8837890625
1638,0.4091796875,0.1083984375,-0.8828125
1639,0.4072265625,0.1123046875,-0.888671875
1640,0.404296875,0.109375,-0.8837890625
1641,0.4052734375,0.1083984375,-0.892578125
1642,0.40234375,0.1103515625,-0.896484375
1643,0.3984375,0.1064453125,-0.890625
1644,0.3994140625,0.107421875,-0.8857421875
1645,0.4052734375,0.11328125,-0.8974609375
1646,0.4052734375,0.1162109375,-0.884765625
1647,0.40234375,0.1123046875,-0.88671875
1648,0.40234375,0.107421875,-0.8916015625
1649,0.400390625,0.107421875,-0.8896484375
1650,0.3974609375,0.1083984375,-0.8955078125
1651,0.3994140625,0.1064453125,-0.890625
1652,0.396484375,0.1044921875,-0.896484375
1653,0.3984375,0.1064453125,-0.896484375
1654,0.4033203125,0.1064453125,-0.9013671875
1655,0.400390625,0.10546875,-0.8935546875
1656,0.4033203125,0.1083984375,-0.89453125
1657,0.400390625,0.11328125,-0.8955078125
1658,0.4013671875,0.1171875,-0.8935546875
1659,0.3974609375,0.1083984375,-0.8994140625
1660,0.4033203125,0.109375,-0.90234375
1661,0.4013671875,0.11328125,-0.8994140625
1662,0.4033203125,0.1123046875,-0.9052734375
1663,0.4013671875,0.1103515625,-0.900390625
1664,0.4013671875,0.109375,-0.904296875
1665,0.4072265625,0.11328125,-0.90625
1666,0.404296875,0.109375,-0.900390625
1667,0.3974609375,0.11328125,-0.904296875
1668,0.404296875,0.1123046875,-0.900390625
1669,0.4013671875,0.111328125,-0.90234375
1670,0.3974609375,0.1103515625,-0.8984375
1671,0.3984375,0.11328125,-0.90234375
1672,0.3994140625,0.111328125,-0.896484375
1673,0.40234375,0.1142578125,-0.900390625
1674,0.3955078125,0.111328125,-0.896484375
1675,0.3984375,0.111328125,-0.8916015625
1676,0.400390625,0.115234375,-0.8955078125
1677,0.400390625,0.1181640625,-0.8994140625
1678,0.4033203125,0.11328125,-0.89453125
1679,0.39453125,0.111328125,-0.8984375
1680,0.396484375,0.111328125,-0.8984375
1681,0.4013671875,0.111328125,-0.8916015625
1682,0.3994140625,0.1123046875,-0.8955078125
1683,0.40234375,0.11328125,-0.89453125
1684,0.3994140625,0.1142578125,-0.89453125
1685,0.40625,0.109375,-0.896484375
1686,0.4013671875,0.107421875,-0.900390625
1687,0.4033203125,0.107421875,-0.8984375
1688,0.400390625,0.109375,-0.8984375
1689,0.3994140625,0.1103515625,-0.9013671875
1690,0.404296875,0.111328125,-0.8974609375
1691,0.400390625,0.109375,-0.890625
1692,0.400390625,0.1083984375,-0.8955078125
1693,0.4013671875,0.1103515625,-0.8896484375
1694,0.4052734375,0.103515625,-0.8837890625
1695,0.4052734375,0.1123046875,-0.8837890625
1696,0.396484375,0.111328125,-0.8974609375
1697,0.392578125,0.109375,-0.8984375
1698,0.3974609375,0.1064453125,-0.8994140625
1699,0.3974609375,0.109375,-0.9072265625
1700,0.39453125,0.1083984375,-0.9111328125
1701,0.392578125,0.1103515625,-0.91015625
1702,0.388671875,0.111328125,-0.9140625
1703,0.388671875,0.111328125,-0.9150390625
1704,0.39453125,0.1123046875,-0.9091796875
1705,0.3935546875,0.1083984375,-0.9111328125
1706,0.392578125,0.1103515625,-0.90625
1707,0.4033203125,0.11328125,-0.9052734375
1708,0.3916015625,0.1142578125,-0.9111328125
1709,0.3935546875,0.1142578125,-0.9111328125
1710,0.3935546875,0.109375,-0.9150390625
1711,0.3896484375,0.115234375,-0.916015625
1712,0.3876953125,0.115234375,-0.9189453125
1713,0.38671875,0.11328125,-0.9208984375
1714,0.3857421875,0.115234375,-0.921875
1715,0.38671875,0.111328125,-0.9189453125
1716,0.388671875,0.111328125,-0.916015625
1717,0.3916015625,0.1064453125,-0.912109375
1718,0.384765625,0.1123046875,-0.9091796875
1719,0.3857421875,0.111328125,-0.908203125
1720,0.3857421875,0.1142578125,-0.9091796875
1721,0.38671875,0.109375,-0.9111328125
1722,0.3857421875,0.11328125,-0.9130859375
1723,0.380859375,0.1171875,-0.9130859375
1724,0.3857421875,0.115234375,-0.9111328125
1725,0.3828125,0.11328125,-0.9130859375
1726,0.38671875,0.1142578125,-0.9052734375
1727,0.380859375,0.115234375,-0.91015625
1728,0.3818359375,0.115234375,-0.91015625
1729,0.3779296875,0.11328125,-0.908203125
1730,0.3837890625,0.1103515625,-0.90625
1731,0.3828125,0.115234375,-0.9091796875
1732,0.3828125,0.109375,-0.90625
1733,0.380859375,0.111328125,-0.90234375
1734,0.3828125,0.1083984375,-0.908203125
1735,0.380859375,0.115234375,-0.9111328125
1736,0.3828125,0.1171875,-0.9072265625
1737,0.380859375,0.1162109375,-0.90625
1738,0.3828125,0.111328125,-0.90234375
1739,0.384765625,0.1103515625,-0.908203125
1740,0.37890625,0.1083984375,-0.9091796875
1741,0.3857421875,0.1123046875,-0.908203125
1742,0.3828125,0.1044921875,-0.9072265625
1743,0.3798828125,0.1064453125,-0.91015625
1744,0.3828125,0.1083984375,-0.9091796875
1745,0.380859375,0.111328125,-0.9091796875
1746,0.3818359375,0.1064453125,-0.90625
1747,0.37890625,0.111328125,-0.908203125
1748,0.380859375,0.1083984375,-0.9091796875
1749,0.384765625,0.1123046875,-0.9052734375
1750,0.37890625,0.1103515625,-0.9052734375
1751,0.3857421875,0.111328125,-0.9072265625
1752,0.384765625,0.1083984375,-0.9072265625
1753,0.384765625,0.1123046875,-0.9072265625
1754,0.3798828125,0.107421875,-0.9111328125
1755,0.384765625,0.107421875,-0.90625
1756,0.3837890625,0.109375,-0.9072265625
1757,0.3876953125,0.111328125,-0.908203125
1758,0.38671875,0.109375,-0.90625
1759,0.3896484375,0.111328125,-0.912109375
1760,0.3935546875,0.1123046875,-0.9072265625
1761,0.3828125,0.1142578125,-0.9140625
1762,0.38671875,0.115234375,-0.916015625
1763,0.3876953125,0.1103515625,-0.91796875
1764,0.3828125,0.1044921875,-0.9189453125
1765,0.380859375,0.111328125,-0.916015625
1766,0.388671875,0.1123046875,-0.9169921875
1767,0.3828125,0.1123046875,-0.91796875
1768,0.3837890625,0.1083984375,-0.9169921875
1769,0.3896484375,0.1123046875,-0.912109375
1770,0.3876953125,0.11328125,-0.9150390625
1771,0.384765625,0.1103515625,-0.9150390625
1772,0.3837890625,0.111328125,-0.9150390625
1773,0.392578125,0.1103515625,-0.9111328125
1774,0.390625,0.1083984375,-0.912109375
1775,0.392578125,0.1064453125,-0.908203125
1776,0.3837890625,0.1142578125,-0.908203125
1777,0.3876953125,0.1123046875,-0.9091796875
1778,0.3896484375,0.11328125,-0.9130859375
1779,0.38671875,0.1083984375,-0.91015625
1780,0.3857421875,0.109375,-0.9111328125
1781,0.388671875,0.111328125,-0.908203125
1782,0.39453125,0.1123046875,-0.9150390625
1783,0.3916015625,0.1064453125,-0.90625
1784,0.3994140625,0.1123046875,-0.912109375
1785,0.384765625,0.1083984375,-0.90625
1786,0.3935546875,0.1103515625,-0.9052734375
1787,0.3876953125,0.11328125,-0.91015625
1788,0.388671875,0.111328125,-0.9111328125
1789,0.3828125,0.1123046875,-0.919921875
1790,0.3828125,0.10546875,-0.9169921875
1791,0.3935546875,0.1064453125,-0.9208984375
1792,0.392578125,0.1064453125,-0.9208984375
1793,0.388671875,0.111328125,-0.9208984375
1794,0.4013671875,0.1044921875,-0.923828125
1795,0.3896484375,0.1142578125,-0.9287109375
1796,0.3916015625,0.11328125,-0.921875
1797,0.3916015625,0.1181640625,-0.912109375
1798,0.3984375,0.11328125,-0.91015625
1799,0.400390625,0.1181640625,-0.904296875
1800,0.4033203125,0.109375,-0.90625
1801,0.40234375,0.109375,-0.9052734375
1802,0.404296875,0.1083984375,-0.896484375
1803,0.40625,0.1015625,-0.8984375
1804,0.400390625,0.1044921875,-0.8974609375
1805,0.400390625,0.1015625,-0.8828125
1806,0.4140625,0.103515625,-0.888671875
1807,0.4091796875,0.103515625,-0.9052734375
1808,0.40234375,0.107421875,-0.9189453125
1809,0.400390625,0.1005859375,-0.919921875
1810,0.40625,0.1044921875,-0.9365234375
1811,0.4013671875,0.1005859375,-0.9248046875
1812,0.3935546875,0.1005859375,-0.916015625
1813,0.404296875,0.099609375,-0.9111328125
1814,0.412109375,0.099609375,-0.9130859375
1815,0.4091796875,0.109375,-0.90625
1816,0.4091796875,0.1123046875,-0.896484375
1817,0.412109375,0.109375,-0.896484375
1818,0.4169921875,0.10546875,-0.8857421875
1819,0.4189453125,0.1103515625,-0.880859375
1820,0.4228515625,0.1044921875,-0.884765625
1821,0.4287109375,0.109375,-0.8671875
1822,0.4169921875,0.103515625,-0.8837890625
1823,0.419921875,0.107421875,-0.8896484375
1824,0.4052734375,0.1044921875,-0.87890625
1825,0.4189453125,0.1044921875,-0.888671875
1826,0.4248046875,0.1083984375,-0.884765625
1827,0.4091796875,0.1083984375,-0.873046875
1828,0.416015625,0.1083984375,-0.8603515625
1829,0.4287109375,0.103515625,-0.86328125
1830,0.427734375,0.1015625,-0.8671875
1831,0.4248046875,0.1025390625,-0.869140625
1832,0.4248046875,0.10546875,-0.873046875
1833,0.41796875,0.109375,-0.8798828125
1834,0.4208984375,0.1083984375,-0.8837890625
1835,0.4169921875,0.1015625,-0.8857421875
1836,0.419921875,0.099609375,-0.8876953125
1837,0.4111328125,0.091796875,-0.875
1838,0.431640625,-0.0439453125,-0.798828125
1839,0.505859375,0.1220703125,-1.033203125
1840,0.4130859375,0.2255859375,-0.9140625
1841,0.4423828125,0.1630859375,-0.794921875
1842,0.412109375,0.1494140625,-0.861328125
1843,0.4306640625,0.1015625,-0.8720703125
1844,0.4228515625,0.0810546875,-0.8896484375
1845,0.416015625,0.0966796875,-0.884765625
1846,0.427734375,0.1025390625,-0.8974609375
1847,0.4306640625,0.1064453125,-0.8935546875
1848,0.4306640625,0.0966796875,-0.8876953125
1849,0.4248046875,0.0947265625,-0.8955078125
1850,0.4267578125,0.1015625,-0.8984375
1851,0.4248046875,0.1064453125,-0.8974609375
1852,0.4208984375,0.10546875,-0.8984375
1853,0.4248046875,0.0927734375,-0.8955078125
1854,0.4189453125,0.095703125,-0.8955078125
1855,0.427734375,0.099609375,-0.89453125
1856,0.4287109375,0.10546875,-0.88671875
1857,0.423828125,0.099609375,-0.884765625
1858,0.4248046875,0.1005859375,-0.884765625
1859,0.4228515625,0.0986328125,-0.8857421875
1860,0.4306640625,0.1005859375,-0.8896484375
1861,0.4248046875,0.0966796875,-0.880859375
1862,0.423828125,0.103515625,-0.8837890625
1863,0.4287109375,0.09765625,-0.888671875
1864,0.4306640625,0.1015625,-0.8857421875
1865,0.4248046875,0.0986328125,-0.8857421875
1866,0.4208984375,0.103515625,-0.88671875
1867,0.4248046875,0.0986328125,-0.8876953125
1868,0.41796875,0.1005859375,-0.884765625
1869,0.41796875,0.1005859375,-0.8818359375
1870,0.419921875,0.10546875,-0.8798828125
1871,0.423828125,0.1015625,-0.8798828125
1872,0.419921875,0.1015625,-0.8798828125
1873,0.421875,0.10546875,-0.876953125
1874,0.423828125,0.1064453125,-0.875
1875,0.4228515625,0.1044921875,-0.875
1876,0.423828125,0.1064453125,-0.8779296875
1877,0.4248046875,0.1025390625,-0.8779296875
1878,0.421875,0.1005859375,-0.876953125
1879,0.421875,0.099609375,-0.875
1880,0.4208984375,0.1005859375,-0.8798828125
1881,0.4228515625,0.103515625,-0.87890625
1882,0.419921875,0.10546875,-0.876953125
1883,0.423828125,0.1044921875,-0.8828125
1884,0.4208984375,0.1005859375,-0.880859375
1885,0.4228515625,0.1015625,-0.87890625
1886,0.4228515625,0.1015625,-0.8740234375
1887,0.4248046875,0.1015625,-0.873046875
1888,0.41796875,0.103515625,-0.876953125
1889,0.421875,0.1025390625,-0.8828125
1890,0.423828125,0.1044921875,-0.880859375
1891,0.421875,0.1015625,-0.8876953125
1892,0.421875,0.1025390625,-0.88671875
1893,0.4248046875,0.1044921875,-0.88671875
1894,0.4228515625,0.0986328125,-0.8828125
1895,0.4296875,0.1015625,-0.88671875
1896,0.42578125,0.1005859375,-0.888671875
1897,0.4228515625,0.0947265625,-0.8798828125
1898,0.421875,0.0927734375,-0.884765625
1899,0.427734375,0.09375,-0.88671875
1900,0.4208984375,0.0966796875,-0.892578125
1901,0.4140625,0.0859375,-0.8896484375
1902,0.4296875,0.0927734375,-0.892578125
1903,0.431640625,0.099609375,-0.890625
1904,0.427734375,0.0947265625,-0.8916015625
1905,0.4267578125,0.0888671875,-0.8974609375
1906,0.4208984375,0.103515625,-0.900390625
1907,0.4228515625,0.1025390625,-0.896484375
1908,0.4228515625,0.1005859375,-0.904296875
1909,0.421875,0.0966796875,-0.8984375
1910,0.423828125,0.1025390625,-0.900390625
1911,0.4248046875,0.1103515625,-0.8955078125
1912,0.423828125,0.10546875,-0.8916015625
1913,0.4345703125,0.09765625,-0.8857421875
1914,0.4296875,0.107421875,-0.89453125
1915,0.421875,0.111328125,-0.890625
1916,0.421875,0.1162109375,-0.8994140625
1917,0.427734375,0.107421875,-0.90234375
1918,0.421875,0.111328125,-0.8984375
1919,0.4228515625,0.1171875,-0.90625
1920,0.4228515625,0.1123046875,-0.9140625
1921,0.42578125,0.1123046875,-0.9111328125
1922,0.42578125,0.10546875,-0.90234375
1923,0.4228515625,0.107421875,-0.8916015625
1924,0.4287109375,0.1103515625,-0.8828125
1925,0.4248046875,0.1162109375,-0.8876953125
1926,0.4267578125,0.11328125,-0.8974609375
1927,0.419921875,0.107421875,-0.8984375
1928,0.421875,0.109375,-0.900390625
1929,0.4130859375,0.111328125,-0.904296875
1930,0.41796875,0.111328125,-0.896484375
1931,0.4169921875,0.1083984375,-0.88671875
1932,0.4130859375,0.107421875,-0.892578125
1933,0.4208984375,0.109375,-0.8935546875
1934,0.41796875,0.111328125,-0.8896484375
1935,0.4169921875,0.1064453125,-0.8896484375
1936,0.421875,0.115234375,-0.880859375
1937,0.419921875,0.1142578125,-0.876953125
1938,0.421875,0.115234375,-0.87890625
1939,0.4208984375,0.1123046875,-0.8876953125
1940,0.4228515625,0.1103515625,-0.8828125
1941,0.4208984375,0.1083984375,-0.8857421875
1942,0.41796875,0.111328125,-0.8857421875
1943,0.4228515625,0.11328125,-0.888671875
1944,0.4228515625,0.111328125,-0.8779296875
1945,0.4130859375,0.1142578125,-0.8837890625
1946,0.4140625,0.1181640625,-0.8974609375
1947,0.419921875,0.107421875,-0.8916015625
1948,0.4208984375,0.10546875,-0.89453125
1949,0.4169921875,0.109375,-0.8935546875
1950,0.4169921875,0.107421875,-0.89453125
1951,0.4169921875,0.11328125,-0.8935546875
1952,0.4189453125,0.1142578125,-0.8916015625
1953,0.4150390625,0.111328125,-0.8896484375
1954,0.421875,0.1123046875,-0.892578125
1955,0.4248046875,0.111328125,-0.89453125
1956,0.4208984375,0.1123046875,-0.896484375
1957,0.4169921875,0.1123046875,-0.8955078125
1958,0.41015625,0.1044921875,-0.892578125
1959,0.4189453125,0.111328125,-0.890625
1960,0.41796875,0.1103515625,-0.890625
1961,0.4140625,0.109375,-0.8916015625
1962,0.4189453125,0.111328125,-0.8857421875
1963,0.41796875,0.1064453125,-0.8896484375
1964,0.41796875,0.109375,-0.890625
1965,0.4169921875,0.109375,-0.890625
1966,0.4208984375,0.1103515625,-0.890625
1967,0.4208984375,0.109375,-0.8876953125
1968,0.412109375,0.11328125,-0.8896484375
1969,0.4130859375,0.1142578125,-0.8935546875
1970,0.4140625,0.111328125,-0.892578125
1971,0.4140625,0.1123046875,-0.892578125
1972,0.4130859375,0.109375,-0.8955078125
1973,0.4111328125,0.1103515625,-0.8974609375
1974,0.41796875,0.1103515625,-0.890625
1975,0.416015625,0.1142578125,-0.8935546875
1976,0.4130859375,0.111328125,-0.8896484375
1977,0.4208984375,0.1142578125,-0.890625
1978,0.4150390625,0.1142578125,-0.900390625
1979,0.412109375,0.1142578125,-0.900390625
1980,0.4140625,0.1142578125,-0.896484375
1981,0.4111328125,0.1123046875,-0.8984375
1982,0.4111328125,0.1142578125,-0.8955078125
1983,0.4111328125,0.11328125,-0.89453125
1984,0.4208984375,0.107421875,-0.88671875
1985,0.4111328125,0.1171875,-0.88671875
1986,0.4140625,0.1142578125,-0.8955078125
1987,0.408203125,0.119140625,-0.8974609375
1988,0.4072265625,0.1123046875,-0.9033203125
1989,0.4150390625,0.11328125,-0.8955078125
1990,0.4111328125,0.11328125,-0.896484375
1991,0.4072265625,0.1162109375,-0.8994140625
1992,0.41015625,0.1142578125,-0.9013671875
1993,0.408203125,0.115234375,-0.90234375
1994,0.4033203125,0.1142578125,-0.9033203125
1995,0.4150390625,0.1201171875,-0.89453125
1996,0.4052734375,0.1171875,-0.89453125
1997,0.4052734375,0.1201171875,-0.9033203125
1998,0.404296875,0.115234375,-0.8994140625
1999,0.408203125,0.1123046875,-0.9091796875
2000,0.4072265625,0.12109375,-0.90234375
2001,0.4072265625,0.115234375,-0.9033203125
2002,0.408203125,0.119140625,-0.8994140625
2003,0.40234375,0.1181640625,-0.9013671875
2004,0.3994140625,0.11328125,-0.8974609375
2005,0.4033203125,0.1142578125,-0.8994140625
2006,0.4013671875,0.1201171875,-0.90234375
2007,0.3974609375,0.1123046875,-0.8994140625
2008,0.4013671875,0.1162109375,-0.8994140625
2009,0.3984375,0.1142578125,-0.9013671875
2010,0.3994140625,0.1171875,-0.900390625
2011,0.40625,0.115234375,-0.896484375
2012,0.3984375,0.1142578125,-0.9033203125
2013,0.404296875,0.1123046875,-0.896484375
2014,0.40234375,0.115234375,-0.8974609375
2015,0.3994140625,0.1142578125,-0.9033203125
2016,0.4013671875,0.1142578125,-0.9052734375
2017,0.3955078125,0.1142578125,-0.9091796875
2018,0.4033203125,0.1162109375,-0.904296875
2019,0.4013671875,0.115234375,-0.900390625
2020,0.3984375,0.1162109375,-0.904296875
2021,0.3974609375,0.11328125,-0.8994140625
2022,0.3994140625,0.1181640625,-0.8984375
2023,0.3955078125,0.1103515625,-0.89453125
2024,0.3984375,0.115234375,-0.9033203125
2025,0.396484375,0.115234375,-0.896484375
2026,0.4013671875,0.1162109375,-0.9033203125
2027,0.3935546875,0.1181640625,-0.90234375
2028,0.400390625,0.1171875,-0.9013671875
2029,0.40234375,0.115234375,-0.900390625
2030,0.39453125,0.1162109375,-0.9072265625
2031,0.39453125,0.1181640625,-0.904296875
2032,0.3984375,0.1142578125,-0.900390625
2033,0.3994140625,0.115234375,-0.904296875
2034,0.4013671875,0.1171875,-0.9013671875
2035,0.3955078125,0.1142578125,-0.8955078125
2036,0.3994140625,0.1171875,-0.90234375
2037,0.3916015625,0.1201171875,-0.90625
2038,0.3935546875,0.111328125,-0.9013671875
2039,0.3955078125,0.1142578125,-0.9013671875
2040,0.3984375,0.1181640625,-0.9013671875
2041,0.3955078125,0.119140625,-0.8974609375
2042,0.396484375,0.1171875,-0.89453125
2043,0.3994140625,0.11328125,-0.896484375
2044,0.3935546875,0.119140625,-0.9033203125
2045,0.390625,0.1181640625,-0.8935546875
2046,0.39453125,0.1181640625,-0.90234375
2047,0.3935546875,0.119140625,-0.900390625
2048,0.396484375,0.115234375,-0.9033203125
2049,0.3896484375,0.1142578125,-0.9013671875
2050,0.3974609375,0.1181640625,-0.900390625
2051,0.39453125,0.1162109375,-0.8994140625
2052,0.38671875,0.1162109375,-0.9013671875
2053,0.396484375,0.11328125,-0.9072265625
2054,0.38671875,0.1181640625,-0.91015625
2055,0.3935546875,0.1142578125,-0.9111328125
2056,0.388671875,0.119140625,-0.9091796875
2057,0.3876953125,0.119140625,-0.912109375
2058,0.3955078125,0.1181640625,-0.9052734375
2059,0.392578125,0.1171875,-0.8955078125
2060,0.3955078125,0.119140625,-0.89453125
2061,0.3916015625,0.12109375,-0.8896484375
2062,0.3994140625,0.1181640625,-0.8876953125
2063,0.39453125,0.1279296875,-0.9140625
2064,0.390625,0.1142578125,-0.9150390625
2065,0.3916015625,0.1123046875,-0.9150390625
2066,0.38671875,0.1162109375,-0.9130859375
2067,0.384765625,0.1181640625,-0.9150390625
2068,0.392578125,0.115234375,-0.908203125
2069,0.38671875,0.115234375,-0.908203125
2070,0.384765625,0.1142578125,-0.9072265625
2071,0.3857421875,0.1171875,-0.9091796875
2072,0.388671875,0.1142578125,-0.904296875
2073,0.3935546875,0.1240234375,-0.9013671875
2074,0.392578125,0.119140625,-0.904296875
2075,0.3916015625,0.1171875,-0.904296875
2076,0.3896484375,0.1201171875,-0.9052734375
2077,0.3896484375,0.115234375,-0.9111328125
2078,0.3876953125,0.1201171875,-0.9111328125
2079,0.3857421875,0.119140625,-0.904296875
2080,0.3896484375,0.1181640625,-0.9052734375
2081,0.3837890625,0.1181640625,-0.908203125
2082,0.388671875,0.1171875,-0.9091796875
2083,0.38671875,0.11328125,-0.9033203125
2084,0.3876953125,0.1162109375,-0.9033203125
2085,0.3876953125,0.1171875,-0.90625
2086,0.384765625,0.1142578125,-0.900390625
2087,0.390625,0.1162109375,-0.9052734375
2088,0.3896484375,0.119140625,-0.908203125
2089,0.392578125,0.1201171875,-0.90234375
2090,0.38671875,0.1181640625,-0.90625
2091,0.38671875,0.1171875,-0.90625
2092,0.390625,0.1201171875,-0.91015625
2093,0.3837890625,0.1162109375,-0.904296875
2094,0.3896484375,0.123046875,-0.91015625
2095,0.384765625,0.1162109375,-0.8994140625
2096,0.3935546875,0.1220703125,-0.90234375
2097,0.3818359375,0.1142578125,-0.904296875
2098,0.39453125,0.1142578125,-0.9033203125
2099,0.3916015625,0.1171875,-0.9091796875
2100,0.388671875,0.1171875,-0.9072265625
2101,0.3916015625,0.12109375,-0.9033203125
2102,0.3935546875,0.119140625,-0.9072265625
2103,0.3916015625,0.1171875,-0.9052734375
2104,0.392578125,0.115234375,-0.908203125
2105,0.392578125,0.1162109375,-0.91015625
2106,0.3896484375,0.1142578125,-0.912109375
2107,0.38671875,0.1142578125,-0.9111328125
2108,0.38671875,0.119140625,-0.90625
2109,0.390625,0.115234375,-0.90625
2110,0.388671875,0.1162109375,-0.9033203125
2111,0.384765625,0.1171875,-0.896484375
2112,0.388671875,0.1142578125,-0.9091796875
2113,0.38671875,0.1142578125,-0.9013671875
2114,0.3876953125,0.1142578125,-0.9072265625
2115,0.3857421875,0.1142578125,-0.904296875
2116,0.388671875,0.1142578125,-0.9033203125
2117,0.388671875,0.1162109375,-0.9091796875
2118,0.388671875,0.115234375,-0.908203125
2119,0.388671875,0.115234375,-0.9072265625
2120,0.38671875,0.115234375,-0.9072265625
2121,0.388671875,0.115234375,-0.9052734375
2122,0.388671875,0.119140625,-0.9072265625
2123,0.38671875,0.1171875,-0.9033203125
2124,0.3876953125,0.1171875,-0.908203125
2125,0.388671875,0.1142578125,-0.9052734375
2126,0.3857421875,0.1142578125,-0.9033203125
2127,0.38671875,0.1181640625,-0.90625
2128,0.3876953125,0.1171875,-0.908203125
2129,0.388671875,0.1220703125,-0.9072265625
2130,0.38671875,0.1162109375,-0.912109375
2131,0.3876953125,0.1171875,-0.9111328125
2132,0.380859375,0.1142578125,-0.9091796875
2133,0.3828125,0.1162109375,-0.91015625
2134,0.3896484375,0.1201171875,-0.9033203125
2135,0.3828125,0.1142578125,-0.908203125
2136,0.384765625,0.1171875,-0.9052734375
2137,0.384765625,0.115234375,-0.90625
2138,0.38671875,0.1171875,-0.9033203125
2139,0.384765625,0.1220703125,-0.9033203125
2140,0.384765625,0.1162109375,-0.904296875
2141,0.3876953125,0.119140625,-0.9033203125
2142,0.38671875,0.119140625,-0.9072265625
2143,0.392578125,0.1162109375,-0.90234375
2144,0.3857421875,0.1181640625,-0.9091796875
2145,0.3876953125,0.123046875,-0.900390625
2146,0.390625,0.1142578125,-0.9033203125
2147,0.3876953125,0.115234375,-0.9072265625
2148,0.3896484375,0.1162109375,-0.9072265625
2149,0.3837890625,0.1171875,-0.9072265625
2150,0.3876953125,0.119140625,-0.9033203125
2151,0.3828125,0.1162109375,-0.908203125
2152,0.38671875,0.1181640625,-0.9091796875
2153,0.3857421875,0.11328125,-0.90625
2154,0.3876953125,0.119140625,-0.9111328125
2155,0.3876953125,0.119140625,-0.908203125
2156,0.3818359375,0.1201171875,-0.9111328125
2157,0.38671875,0.1171875,-0.9140625
2158,0.384765625,0.115234375,-0.9130859375
2159,0.3857421875,0.115234375,-0.9111328125
2160,0.384765625,0.1162109375,-0.9111328125
2161,0.380859375,0.1162109375,-0.9091796875
2162,0.38671875,0.115234375,-0.9072265625
2163,0.38671875,0.1142578125,-0.908203125
2164,0.3828125,0.111328125,-0.912109375
2165,0.3857421875,0.11328125,-0.9130859375
2166,0.384765625,0.1162109375,-0.9091796875
2167,0.3857421875,0.1123046875,-0.912109375
2168,0.380859375,0.1123046875,-0.9111328125
2169,0.38671875,0.11328125,-0.9052734375
2170,0.3828125,0.1162109375,-0.9052734375
2171,0.3857421875,0.111328125,-0.908203125
2172,0.3837890625,0.11328125,-0.9033203125
2173,0.3916015625,0.11328125,-0.9052734375
2174,0.3818359375,0.107421875,-0.908203125
2175,0.384765625,0.1142578125,-0.91015625
2176,0.3896484375,0.115234375,-0.9052734375
2177,0.3798828125,0.115234375,-0.9169921875
2178,0.384765625,0.109375,-0.9130859375
2179,0.3837890625,0.111328125,-0.9091796875
2180,0.3837890625,0.111328125,-0.91015625
2181,0.392578125,0.10546875,-0.912109375
2182,0.3837890625,0.1123046875,-0.9091796875
2183,0.384765625,0.1123046875,-0.9111328125
2184,0.3818359375,0.1083984375,-0.9150390625
2185,0.3857421875,0.1103515625,-0.908203125
2186,0.3779296875,0.109375,-0.9072265625
2187,0.3818359375,0.1083984375,-0.9111328125
2188,0.3857421875,0.107421875,-0.9130859375
2189,0.380859375,0.11328125,-0.90625
2190,0.38671875,0.111328125,-0.908203125
2191,0.3828125,0.111328125,-0.9013671875
2192,0.384765625,0.107421875,-0.8974609375
2193,0.3798828125,0.107421875,-0.8955078125
2194,0.384765625,0.1142578125,-0.888671875
2195,0.3837890625,0.1123046875,-0.8994140625
2196,0.3876953125,0.111328125,-0.9091796875
2197,0.3779296875,0.1064453125,-0.916015625
2198,0.3779296875,0.1123046875,-0.919921875
2199,0.3798828125,0.1103515625,-0.9111328125
2200,0.373046875,0.111328125,-0.9150390625
2201,0.376953125,0.111328125,-0.9169921875
2202,0.376953125,0.1083984375,-0.916015625
2203,0.3759765625,0.115234375,-0.9140625
2204,0.3837890625,0.11328125,-0.912109375
2205,0.380859375,0.1123046875,-0.912109375
2206,0.380859375,0.11328125,-0.908203125
2207,0.3798828125,0.115234375,-0.91015625
2208,0.3837890625,0.1123046875,-0.91015625
2209,0.38671875,0.109375,-0.9052734375
2210,0.380859375,0.11328125,-0.91015625
2211,0.376953125,0.1142578125,-0.9111328125
2212,0.3740234375,0.1142578125,-0.9091796875
2213,0.3779296875,0.1162109375,-0.912109375
2214,0.3779296875,0.1103515625,-0.91796875
2215,0.37890625,0.11328125,-0.9140625
2216,0.3779296875,0.1083984375,-0.9140625
2217,0.3798828125,0.109375,-0.9130859375
2218,0.3798828125,0.1142578125,-0.9130859375
2219,0.3779296875,0.115234375,-0.9091796875
2220,0.3779296875,0.1123046875,-0.908203125
2221,0.3720703125,0.1103515625,-0.908203125
2222,0.376953125,0.1142578125,-0.9111328125
2223,0.37890625,0.1123046875,-0.9111328125
2224,0.37890625,0.1142578125,-0.90625
2225,0.3720703125,0.1142578125,-0.908203125
2226,0.3818359375,0.111328125,-0.9111328125
2227,0.3740234375,0.115234375,-0.9072265625
2228,0.3837890625,0.1123046875,-0.91015625
2229,0.380859375,0.11328125,-0.904296875
2230,0.3798828125,0.1123046875,-0.90625
2231,0.37890625,0.115234375,-0.90625
2232,0.380859375,0.115234375,-0.9052734375
2233,0.37890625,0.1123046875,-0.90625
2234,0.3779296875,0.1103515625,-0.9072265625
2235,0.3798828125,0.1103515625,-0.9072265625
2236,0.376953125,0.1142578125,-0.90234375
2237,0.3818359375,0.1123046875,-0.904296875
2238,0.3837890625,0.1142578125,-0.9072265625
2239,0.3798828125,0.1123046875,-0.91015625
2240,0.3798828125,0.111328125,-0.90625
2241,0.3828125,0.1142578125,-0.9091796875
2242,0.380859375,0.1123046875,-0.9111328125
2243,0.3779296875,0.115234375,-0.904296875
2244,0.3828125,0.1142578125,-0.9052734375
2245,0.37890625,0.11328125,-0.9091796875
2246,0.3798828125,0.1123046875,-0.908203125
2247,0.3779296875,0.115234375,-0.91015625
2248,0.3779296875,0.11328125,-0.9130859375
2249,0.3759765625,0.115234375,-0.9052734375
2250,0.375,0.11328125,-0.9091796875
2251,0.37890625,0.1123046875,-0.9130859375
2252,0.3740234375,0.1171875,-0.912109375
2253,0.376953125,0.1123046875,-0.908203125
2254,0.37890625,0.1171875,-0.90625
2255,0.3759765625,0.115234375,-0.9033203125
2256,0.384765625,0.115234375,-0.90625
2257,0.3779296875,0.119140625,-0.90625
2258,0.37890625,0.1171875,-0.90625
2259,0.3876953125,0.109375,-0.9033203125
2260,0.3779296875,0.1171875,-0.904296875
2261,0.3779296875,0.1201171875,-0.9033203125
2262,0.375,0.11328125,-0.90234375
2263,0.3779296875,0.115234375,-0.9091796875
2264,0.376953125,0.1181640625,-0.9111328125
2265,0.376953125,0.1142578125,-0.9091796875
2266,0.3818359375,0.1162109375,-0.90625
2267,0.37890625,0.1201171875,-0.9052734375
2268,0.3798828125,0.12109375,-0.90234375
2269,0.376953125,0.1181640625,-0.9033203125
2270,0.375,0.1142578125,-0.9033203125
2271,0.3779296875,0.1220703125,-0.9111328125
2272,0.376953125,0.1181640625,-0.912109375
2273,0.3779296875,0.12109375,-0.9052734375
2274,0.3759765625,0.12109375,-0.9091796875
2275,0.375,0.1201171875,-0.90625
2276,0.373046875,0.1201171875,-0.9052734375
2277,0.3779296875,0.119140625,-0.91015625
2278,0.37109375,0.115234375,-0.9033203125
2279,0.37109375,0.1171875,-0.90625
2280,0.373046875,0.1171875,-0.9052734375
2281,0.3779296875,0.12109375,-0.8994140625
2282,0.3720703125,0.1181640625,-0.908203125
2283,0.3720703125,0.1259765625,-0.9111328125
2284,0.373046875,0.1162109375,-0.912109375
2285,0.3759765625,0.1162109375,-0.9140625
2286,0.376953125,0.1240234375,-0.9111328125
2287,0.375,0.125,-0.908203125
2288,0.3759765625,0.12109375,-0.904296875
2289,0.37109375,0.1220703125,-0.908203125
2290,0.3701171875,0.1201171875,-0.908203125
2291,0.3759765625,0.1240234375,-0.9111328125
2292,0.3720703125,0.119140625,-0.91015625
2293,0.369140625,0.1220703125,-0.9072265625
2294,0.3720703125,0.1201171875,-0.9130859375
2295,0.369140625,0.119140625,-0.912109375
2296,0.3740234375,0.1240234375,-0.912109375
2297,0.373046875,0.1201171875,-0.9140625
2298,0.3720703125,0.1220703125,-0.916015625
2299,0.373046875,0.1220703125,-0.912109375
2300,0.3740234375,0.1220703125,-0.9140625
2301,0.3701171875,0.1240234375,-0.9140625
2302,0.3662109375,0.125,-0.9130859375
2303,0.3681640625,0.125,-0.9130859375
2304,0.373046875,0.125,-0.908203125
2305,0.373046875,0.1220703125,-0.9150390625
2306,0.3701171875,0.1240234375,-0.9150390625
2307,0.369140625,0.123046875,-0.916015625
2308,0.37109375,0.126953125,-0.9326171875
2309,0.37109375,0.126953125,-0.9267578125
2310,0.375,0.12890625,-0.9228515625
2311,0.365234375,0.1240234375,-0.9208984375
2312,0.3662109375,0.1259765625,-0.921875
2313,0.3720703125,0.125,-0.9169921875
2314,0.375,0.12109375,-0.9130859375
2315,0.373046875,0.12109375,-0.908203125
2316,0.3671875,0.1201171875,-0.91015625
2317,0.3681640625,0.1201171875,-0.90625
2318,0.3740234375,0.1181640625,-0.90234375
2319,0.3662109375,0.123046875,-0.8984375
2320,0.375,0.12109375,-0.908203125
2321,0.3740234375,0.1220703125,-0.921875
2322,0.375,0.12109375,-0.91796875
2323,0.3740234375,0.1201171875,-0.9150390625
2324,0.37109375,0.1240234375,-0.9189453125
2325,0.369140625,0.119140625,-0.921875
2326,0.3681640625,0.1181640625,-0.9169921875
2327,0.3623046875,0.12109375,-0.9169921875
2328,0.365234375,0.1181640625,-0.9228515625
2329,0.3662109375,0.1162109375,-0.916015625
2330,0.375,0.1220703125,-0.916015625
2331,0.3671875,0.12109375,-0.916015625
2332,0.3740234375,0.1240234375,-0.91796875
2333,0.3720703125,0.1181640625,-0.9130859375
2334,0.369140625,0.1240234375,-0.9130859375
2335,0.3759765625,0.1201171875,-0.9130859375
2336,0.37109375,0.1240234375,-0.912109375
2337,0.37109375,0.12109375,-0.9111328125
2338,0.3662109375,0.1220703125,-0.9130859375
2339,0.3701171875,0.1240234375,-0.9169921875
2340,0.36328125,0.12109375,-0.9169921875
2341,0.365234375,0.115234375,-0.9169921875
2342,0.369140625,0.1162109375,-0.9130859375
2343,0.3681640625,0.119140625,-0.9140625
2344,0.369140625,0.1201171875,-0.91796875
2345,0.36328125,0.1240234375,-0.912109375
2346,0.3681640625,0.1220703125,-0.9140625
2347,0.3681640625,0.1181640625,-0.9130859375
2348,0.3681640625,0.119140625,-0.912109375
2349,0.3662109375,0.1162109375,-0.912109375
2350,0.3671875,0.11328125,-0.912109375
2351,0.3662109375,0.1162109375,-0.91796875
2352,0.365234375,0.1181640625,-0.9111328125
2353,0.3662109375,0.1162109375,-0.9150390625
2354,0.365234375,0.1142578125,-0.9140625
2355,0.3662109375,0.1201171875,-0.91015625
2356,0.3701171875,0.1162109375,-0.912109375
2357,0.3681640625,0.119140625,-0.9130859375
2358,0.365234375,0.1181640625,-0.908203125
2359,0.365234375,0.1181640625,-0.9130859375
2360,0.3662109375,0.115234375,-0.9140625
2361,0.3642578125,0.1201171875,-0.9140625
2362,0.36328125,0.1162109375,-0.91015625
2363,0.3642578125,0.1171875,-0.9140625
2364,0.37109375,0.115234375,-0.9130859375
2365,0.365234375,0.1123046875,-0.9130859375
2366,0.365234375,0.1171875,-0.9140625
2367,0.365234375,0.1142578125,-0.916015625
2368,0.3671875,0.115234375,-0.9150390625
2369,0.3642578125,0.1171875,-0.9111328125
2370,0.3818359375,0.1162109375,-0.916015625
2371,0.3544921875,0.111328125,-0.9140625
2372,0.365234375,0.115234375,-0.9091796875
2373,0.3681640625,0.1171875,-0.916015625
2374,0.369140625,0.115234375,-0.912109375
2375,0.3642578125,0.12109375,-0.91796875
2376,0.3681640625,0.115234375,-0.908203125
2377,0.3662109375,0.115234375,-0.9130859375
2378,0.3662109375,0.115234375,-0.9140625
2379,0.3701171875,0.115234375,-0.9140625
2380,0.3681640625,0.1123046875,-0.9169921875
2381,0.3662109375,0.115234375,-0.916015625
2382,0.3701171875,0.115234375,-0.91015625
2383,0.365234375,0.115234375,-0.9150390625
2384,0.3662109375,0.1162109375,-0.9150390625
2385,0.369140625,0.11328125,-0.91796875
2386,0.3681640625,0.115234375,-0.9130859375
2387,0.3662109375,0.115234375,-0.9150390625
2388,0.3701171875,0.115234375,-0.9169921875
2389,0.3662109375,0.115234375,-0.9150390625
2390,0.3662109375,0.1103515625,-0.9140625
2391,0.3671875,0.119140625,-0.9140625
2392,0.3662109375,0.115234375,-0.9140625
2393,0.3681640625,0.119140625,-0.916015625
2394,0.365234375,0.1181640625,-0.9130859375
2395,0.3662109375,0.1162109375,-0.9111328125
2396,0.369140625,0.115234375,-0.9150390625
2397,0.365234375,0.11328125,-0.9130859375
2398,0.3671875,0.1201171875,-0.9072265625
2399,0.365234375,0.1123046875,-0.912109375
2400,0.3662109375,0.115234375,-0.912109375
2401,0.3671875,0.11328125,-0.9140625
2402,0.3642578125,0.1162109375,-0.9140625
2403,0.36328125,0.115234375,-0.9169921875
2404,0.3662109375,0.115234375,-0.91015625
2405,0.3662109375,0.11328125,-0.9150390625
2406,0.365234375,0.1142578125,-0.9140625
2407,0.3662109375,0.1142578125,-0.9169921875
2408,0.365234375,0.1171875,-0.9150390625
2409,0.365234375,0.115234375,-0.9169921875
2410,0.3671875,0.1142578125,-0.9150390625
2411,0.361328125,0.1162109375,-0.9140625
2412,0.365234375,0.1162109375,-0.9150390625
2413,0.3642578125,0.1142578125,-0.91015625
2414,0.3642578125,0.1181640625,-0.9140625
2415,0.3642578125,0.119140625,-0.91796875
2416,0.365234375,0.115234375,-0.9150390625
2417,0.365234375,0.115234375,-0.9130859375
2418,0.3642578125,0.115234375,-0.9169921875
2419,0.3681640625,0.1162109375,-0.9130859375
2420,0.3779296875,0.115234375,-0.9140625
2421,0.359375,0.115234375,-0.916015625
2422,0.361328125,0.12109375,-0.912109375
2423,0.3642578125,0.1162109375,-0.91015625
2424,0.369140625,0.111328125,-0.9140625
2425,0.3642578125,0.1123046875,-0.916015625
2426,0.3662109375,0.1142578125,-0.912109375
2427,0.361328125,0.115234375,-0.9130859375
2428,0.3662109375,0.119140625,-0.9130859375
2429,0.3623046875,0.1162109375,-0.91796875
2430,0.365234375,0.1162109375,-0.9150390625
2431,0.36328125,0.1162109375,-0.9150390625
2432,0.365234375,0.1162109375,-0.9169921875
2433,0.3662109375,0.1181640625,-0.9140625
2434,0.365234375,0.1142578125,-0.9140625
2435,0.365234375,0.119140625,-0.9091796875
2436,0.3642578125,0.115234375,-0.9091796875
2437,0.369140625,0.1103515625,-0.912109375
2438,0.361328125,0.12109375,-0.90625
2439,0.361328125,0.1181640625,-0.8974609375
2440,0.3662109375,0.1201171875,-0.912109375
2441,0.3662109375,0.1220703125,-0.908203125
2442,0.3623046875,0.12109375,-0.919921875
2443,0.3642578125,0.1181640625,-0.9140625
2444,0.3603515625,0.1142578125,-0.916015625
2445,0.3623046875,0.1171875,-0.916015625
2446,0.3623046875,0.1162109375,-0.9140625
2447,0.361328125,0.1162109375,-0.91796875
2448,0.3681640625,0.1162109375,-0.9169921875
2449,0.369140625,0.1171875,-0.919921875
2450,0.34765625,0.1142578125,-0.9169921875
2451,0.3544921875,0.1142578125,-0.9208984375
2452,0.36328125,0.1220703125,-0.921875
2453,0.3662109375,0.115234375,-0.9228515625
2454,0.369140625,0.1142578125,-0.923828125
2455,0.3642578125,0.11328125,-0.923828125
2456,0.365234375,0.1123046875,-0.9150390625
2457,0.3642578125,0.1162109375,-0.9169921875
2458,0.36328125,0.115234375,-0.91796875
2459,0.3994140625,0.115234375,-0.9287109375
2460,0.349609375,0.115234375,-0.91015625
2461,0.35546875,0.1142578125,-0.919921875
2462,0.3623046875,0.1171875,-0.9169921875
2463,0.3662109375,0.1123046875,-0.91796875
2464,0.365234375,0.1171875,-0.919921875
2465,0.3642578125,0.1171875,-0.9150390625
2466,0.3662109375,0.12109375,-0.9140625
2467,0.36328125,0.119140625,-0.912109375
2468,0.365234375,0.1171875,-0.9130859375
2469,0.3671875,0.119140625,-0.916015625
2470,0.3662109375,0.1181640625,-0.9169921875
2471,0.3681640625,0.123046875,-0.916015625
2472,0.365234375,0.115234375,-0.9169921875
2473,0.365234375,0.1181640625,-0.9130859375
2474,0.36328125,0.1220703125,-0.9072265625
2475,0.369140625,0.119140625,-0.9150390625
2476,0.3662109375,0.1201171875,-0.9130859375
2477,0.3662109375,0.119140625,-0.916015625
2478,0.3623046875,0.1162109375,-0.912109375
2479,0.365234375,0.1171875,-0.9140625
2480,0.365234375,0.1162109375,-0.9140625
2481,0.3701171875,0.1162109375,-0.9140625
2482,0.3681640625,0.12109375,-0.912109375
2483,0.365234375,0.115234375,-0.91015625
2484,0.36328125,0.1181640625,-0.9130859375
2485,0.3642578125,0.12109375,-0.9140625
2486,0.3662109375,0.119140625,-0.912109375
2487,0.3681640625,0.119140625,-0.912109375
2488,0.3701171875,0.12109375,-0.9130859375
2489,0.365234375,0.119140625,-0.9189453125
2490,0.3681640625,0.12109375,-0.9140625
2491,0.3662109375,0.1162109375,-0.9169921875
2492,0.3662109375,0.12109375,-0.91796875
2493,0.3662109375,0.119140625,-0.9150390625
2494,0.365234375,0.119140625,-0.9169921875
2495,0.365234375,0.1162109375,-0.916015625
2496,0.3662109375,0.1201171875,-0.9130859375
2497,0.3603515625,0.1240234375,-0.916015625
2498,0.369140625,0.1220703125,-0.9150390625
2499,0.365234375,0.1220703125,-0.9140625
2500,0.369140625,0.125,-0.9130859375
2501,0.369140625,0.1240234375,-0.91796875
2502,0.3662109375,0.1162109375,-0.9150390625
2503,0.3642578125,0.1171875,-0.912109375
2504,0.3642578125,0.1220703125,-0.9150390625
2505,0.369140625,0.119140625,-0.9150390625
2506,0.3662109375,0.1220703125,-0.9189453125
2507,0.3642578125,0.12109375,-0.912109375
2508,0.36328125,0.1201171875,-0.9169921875
2509,0.3671875,0.1181640625,-0.9150390625
2510,0.365234375,0.119140625,-0.91796875
2511,0.36328125,0.12109375,-0.9140625
2512,0.365234375,0.119140625,-0.9140625
2513,0.3662109375,0.1181640625,-0.9169921875
2514,0.365234375,0.1171875,-0.9130859375
2515,0.365234375,0.1220703125,-0.9140625
2516,0.3662109375,0.1201171875,-0.9140625
2517,0.3642578125,0.12109375,-0.9130859375
2518,0.3671875,0.119140625,-0.91015625
2519,0.3662109375,0.1171875,-0.908203125
2520,0.365234375,0.1142578125,-0.9150390625
2521,0.3671875,0.1240234375,-0.9150390625
2522,0.369140625,0.1201171875,-0.912109375
2523,0.3701171875,0.1181640625,-0.9130859375
2524,0.3623046875,0.12109375,-0.9150390625
2525,0.365234375,0.1171875,-0.9150390625
2526,0.365234375,0.115234375,-0.9150390625
2527,0.3681640625,0.1181640625,-0.916015625
2528,0.36328125,0.1171875,-0.9150390625
2529,0.3701171875,0.1201171875,-0.9140625
2530,0.3662109375,0.1171875,-0.9130859375
2531,0.365234375,0.1201171875,-0.916015625
2532,0.3671875,0.119140625,-0.9140625
2533,0.3671875,0.1220703125,-0.9130859375
2534,0.3642578125,0.123046875,-0.9150390625
2535,0.365234375,0.1171875,-0.9169921875
2536,0.369140625,0.1181640625,-0.916015625
2537,0.3662109375,0.1142578125,-0.9150390625
2538,0.3642578125,0.119140625,-0.9150390625
2539,0.3701171875,0.119140625,-0.9111328125
2540,0.365234375,0.1220703125,-0.9140625
2541,0.3671875,0.115234375,-0.9169921875
2542,0.3662109375,0.1181640625,-0.9150390625
2543,0.3642578125,0.115234375,-0.916015625
2544,0.36328125,0.1181640625,-0.912109375
2545,0.3671875,0.1181640625,-0.916015625
2546,0.369140625,0.115234375,-0.9130859375
2547,0.3671875,0.1201171875,-0.9150390625
2548,0.36328125,0.119140625,-0.9111328125
2549,0.3662109375,0.1181640625,-0.9111328125
2550,0.36328125,0.1142578125,-0.912109375
2551,0.365234375,0.1181640625,-0.9140625
2552,0.36328125,0.1142578125,-0.9150390625
2553,0.3662109375,0.1181640625,-0.9140625
2554,0.36328125,0.119140625,-0.9140625
2555,0.3662109375,0.125,-0.9150390625
2556,0.3701171875,0.12109375,-0.9140625
2557,0.3701171875,0.12109375,-0.9169921875
2558,0.3681640625,0.1201171875,-0.9169921875
2559,0.3671875,0.1162109375,-0.9150390625
2560,0.3681640625,0.1201171875,-0.916015625
2561,0.3662109375,0.1201171875,-0.9111328125
2562,0.3701171875,0.12109375,-0.9111328125
2563,0.369140625,0.1181640625,-0.916015625
2564,0.365234375,0.115234375,-0.904296875
2565,0.3662109375,0.115234375,-0.900390625
2566,0.36328125,0.1171875,-0.9013671875
2567,0.369140625,0.123046875,-0.9033203125
2568,0.369140625,0.12109375,-0.9140625
2569,0.3701171875,0.1181640625,-0.916015625
2570,0.365234375,0.1181640625,-0.9169921875
2571,0.3662109375,0.1220703125,-0.91796875
2572,0.3642578125,0.12109375,-0.9208984375
2573,0.3662109375,0.119140625,-0.916015625
2574,0.3642578125,0.1162109375,-0.927734375
2575,0.3642578125,0.1162109375,-0.916015625
2576,0.3662109375,0.12109375,-0.91796875
2577,0.365234375,0.12109375,-0.9150390625
2578,0.3681640625,0.1220703125,-0.9150390625
2579,0.365234375,0.1181640625,-0.9140625
2580,0.3681640625,0.1181640625,-0.9169921875
2581,0.369140625,0.1181640625,-0.916015625
2582,0.3681640625,0.1181640625,-0.9150390625
2583,0.365234375,0.1171875,-0.9140625
2584,0.3662109375,0.1162109375,-0.9169921875
2585,0.365234375,0.1162109375,-0.9150390625
2586,0.36328125,0.12109375,-0.9111328125
2587,0.3701171875,0.1162109375,-0.91796875
2588,0.3623046875,0.119140625,-0.91796875
2589,0.365234375,0.123046875,-0.9130859375
2590,0.36328125,0.1171875,-0.916015625
2591,0.365234375,0.1201171875,-0.916015625
2592,0.361328125,0.12109375,-0.916015625
2593,0.3662109375,0.119140625,-0.9140625
2594,0.3681640625,0.12109375,-0.91796875
2595,0.369140625,0.115234375,-0.91796875
2596,0.365234375,0.115234375,-0.9169921875
2597,0.36328125,0.12109375,-0.9150390625
2598,0.36328125,0.1142578125,-0.9189453125
2599,0.36328125,0.12109375,-0.9150390625
2600,0.365234375,0.115234375,-0.91796875
2601,0.365234375,0.1162109375,-0.916015625
2602,0.3662109375,0.1162109375,-0.9150390625
2603,0.365234375,0.1171875,-0.9140625
2604,0.365234375,0.1171875,-0.9140625
2605,0.365234375,0.1201171875,-0.91796875
2606,0.3603515625,0.115234375,-0.9228515625
2607,0.3642578125,0.12109375,-0.9091796875
2608,0.3662109375,0.12109375,-0.9169921875
2609,0.3681640625,0.1181640625,-0.9140625
2610,0.3662109375,0.123046875,-0.919921875
2611,0.3623046875,0.1171875,-0.916015625
2612,0.36328125,0.1171875,-0.91796875
2613,0.36328125,0.115234375,-0.9140625
2614,0.361328125,0.115234375,-0.9208984375
2615,0.3623046875,0.1171875,-0.9189453125
2616,0.36328125,0.1220703125,-0.916015625
2617,0.3662109375,0.1142578125,-0.9169921875
2618,0.3642578125,0.1162109375,-0.9150390625
2619,0.3662109375,0.119140625,-0.9150390625
2620,0.365234375,0.1181640625,-0.9111328125
2621,0.36328125,0.119140625,-0.9150390625
2622,0.3623046875,0.115234375,-0.9140625
2623,0.3671875,0.11328125,-0.916015625
2624,0.365234375,0.115234375,-0.916015625
2625,0.36328125,0.115234375,-0.916015625
2626,0.3642578125,0.119140625,-0.9150390625
2627,0.3623046875,0.1201171875,-0.9169921875
2628,0.361328125,0.115234375,-0.916015625
2629,0.361328125,0.1181640625,-0.916015625
2630,0.3642578125,0.1181640625,-0.9140625
2631,0.3642578125,0.1162109375,-0.9140625
2632,0.3662109375,0.12109375,-0.9189453125
2633,0.365234375,0.1181640625,-0.9150390625
2634,0.3642578125,0.1181640625,-0.916015625
2635,0.3603515625,0.12109375,-0.916015625
2636,0.3662109375,0.12109375,-0.9169921875
2637,0.359375,0.1181640625,-0.9169921875
2638,0.3623046875,0.1171875,-0.916015625
2639,0.36328125,0.1171875,-0.9169921875
2640,0.3671875,0.1171875,-0.9169921875
2641,0.3662109375,0.119140625,-0.912109375
2642,0.3642578125,0.1181640625,-0.916015625
2643,0.3642578125,0.12109375,-0.9150390625
2644,0.3662109375,0.12109375,-0.9169921875
2645,0.3623046875,0.125,-0.912109375
2646,0.3671875,0.115234375,-0.91796875
2647,0.3701171875,0.119140625,-0.916015625
2648,0.3662109375,0.115234375,-0.916015625
2649,0.36328125,0.119140625,-0.9169921875
2650,0.3662109375,0.1220703125,-0.9140625
2651,0.365234375,0.125,-0.91796875
2652,0.365234375,0.12109375,-0.916015625
2653,0.3662109375,0.12109375,-0.9150390625
2654,0.3828125,0.12109375,-0.9169921875
2655,0.3525390625,0.1259765625,-0.9072265625
2656,0.3662109375,0.1220703125,-0.91015625
2657,0.3642578125,0.1220703125,-0.9150390625
2658,0.3681640625,0.1220703125,-0.9150390625
2659,0.37109375,0.119140625,-0.9189453125
2660,0.3671875,0.1201171875,-0.916015625
2661,0.3671875,0.119140625,-0.91796875
2662,0.376953125,0.12109375,-0.9189453125
2663,0.3759765625,0.130859375,-0.9150390625
2664,0.3623046875,0.1083984375,-0.9150390625
2665,0.3642578125,0.126953125,-0.9150390625
2666,0.3681640625,0.12109375,-0.912109375
2667,0.376953125,0.1142578125,-0.9111328125
2668,0.3759765625,0.1044921875,-0.9169921875
2669,0.375,0.1328125,-0.9140625
2670,0.361328125,0.1298828125,-0.90625
2671,0.3681640625,0.1181640625,-0.9091796875
2672,0.3896484375,0.115234375,-0.9208984375
2673,0.353515625,0.1201171875,-0.9150390625
2674,0.373046875,0.1240234375,-0.916015625
2675,0.3662109375,0.12109375,-0.9052734375
2676,0.3701171875,0.130859375,-0.908203125
2677,0.3701171875,0.1201171875,-0.9111328125
2678,0.3671875,0.109375,-0.908203125
2679,0.4228515625,0.099609375,-0.9169921875
2680,0.3798828125,0.126953125,-0.9072265625
2681,0.3544921875,0.1484375,-0.890625
2682,0.36328125,0.125,-0.900390625
2683,0.388671875,0.1162109375,-0.9130859375
2684,0.3623046875,0.1044921875,-0.896484375
2685,0.3701171875,0.1083984375,-0.9072265625
2686,0.35546875,0.12109375,-0.900390625
2687,0.357421875,0.1162109375,-0.9033203125
2688,0.419921875,0.111328125,-0.91796875
2689,0.3603515625,0.1171875,-0.8955078125
2690,0.36328125,0.13671875,-0.90234375
2691,0.369140625,0.1201171875,-0.900390625
2692,0.384765625,0.1240234375,-0.919921875
2693,0.37890625,0.1279296875,-0.916015625
2694,0.3701171875,0.12890625,-0.904296875
2695,0.375,0.1142578125,-0.9091796875
2696,0.3857421875,0.1142578125,-0.9091796875
2697,0.3837890625,0.1201171875,-0.9091796875
2698,0.3720703125,0.1259765625,-0.9033203125
2699,0.375,0.1240234375,-0.8955078125
2700,0.3701171875,0.1171875,-0.88671875
2701,0.388671875,0.1171875,-0.8896484375
2702,0.3818359375,0.123046875,-0.89453125
2703,0.375,0.1240234375,-0.90234375
2704,0.380859375,0.123046875,-0.912109375
2705,0.3828125,0.1240234375,-0.9072265625
2706,0.380859375,0.1240234375,-0.90625
2707,0.376953125,0.125,-0.9013671875
2708,0.3720703125,0.1220703125,-0.9091796875
2709,0.376953125,0.125,-0.90234375
2710,0.37890625,0.125,-0.9052734375
2711,0.3759765625,0.125,-0.9072265625
2712,0.3779296875,0.1240234375,-0.9033203125
2713,0.380859375,0.1279296875,-0.904296875
2714,0.3818359375,0.1259765625,-0.8994140625
2715,0.3798828125,0.12890625,-0.9013671875
2716,0.37890625,0.1298828125,-0.9033203125
2717,0.37890625,0.1259765625,-0.908203125
2718,0.376953125,0.1259765625,-0.9111328125
2719,0.376953125,0.12890625,-0.90625
2720,0.3681640625,0.1220703125,-0.9091796875
2721,0.37890625,0.123046875,-0.9130859375
2722,0.3779296875,0.1259765625,-0.908203125
2723,0.37890625,0.1220703125,-0.916015625
2724,0.37109375,0.1279296875,-0.9130859375
2725,0.37890625,0.1220703125,-0.9150390625
2726,0.375,0.1220703125,-0.912109375
2727,0.376953125,0.1259765625,-0.9111328125
2728,0.3720703125,0.1279296875,-0.9091796875
2729,0.375,0.12890625,-0.9072265625
2730,0.3701171875,0.1279296875,-0.91015625
2731,0.3779296875,0.12890625,-0.9052734375
2732,0.37109375,0.1259765625,-0.9140625
2733,0.3681640625,0.1337890625,-0.9150390625
2734,0.3701171875,0.126953125,-0.9091796875
2735,0.3681640625,0.125,-0.9111328125
2736,0.369140625,0.12890625,-0.9111328125
2737,0.3681640625,0.126953125,-0.9130859375
2738,0.3681640625,0.125,-0.9140625
2739,0.3701171875,0.130859375,-0.916015625
2740,0.3662109375,0.126953125,-0.9169921875
2741,0.3662109375,0.1298828125,-0.916015625
2742,0.3681640625,0.130859375,-0.9130859375
2743,0.369140625,0.1279296875,-0.91015625
2744,0.37109375,0.12890625,-0.91796875
2745,0.3671875,0.125,-0.916015625
2746,0.3681640625,0.12890625,-0.9169921875
2747,0.3662109375,0.125,-0.9169921875
2748,0.3642578125,0.126953125,-0.9150390625
2749,0.3662109375,0.125,-0.916015625
2750,0.37109375,0.130859375,-0.912109375
2751,0.3671875,0.130859375,-0.9140625
2752,0.3662109375,0.1279296875,-0.9140625
2753,0.36328125,0.12890625,-0.9130859375
2754,0.365234375,0.1279296875,-0.9091796875
2755,0.361328125,0.1259765625,-0.9140625
2756,0.3671875,0.1328125,-0.9111328125
2757,0.365234375,0.126953125,-0.912109375
2758,0.3671875,0.1259765625,-0.9169921875
2759,0.3681640625,0.126953125,-0.9111328125
2760,0.3662109375,0.12890625,-0.9130859375
2761,0.3681640625,0.1259765625,-0.9140625
2762,0.365234375,0.130859375,-0.9111328125
2763,0.365234375,0.12890625,-0.912109375
2764,0.369140625,0.130859375,-0.9140625
2765,0.3671875,0.12890625,-0.91015625
2766,0.3662109375,0.1298828125,-0.916015625
2767,0.3642578125,0.1298828125,-0.91015625
2768,0.365234375,0.125,-0.9091796875
2769,0.36328125,0.1298828125,-0.9130859375
2770,0.3662109375,0.1328125,-0.91015625
2771,0.36328125,0.1337890625,-0.912109375
2772,0.365234375,0.1337890625,-0.9130859375
2773,0.3642578125,0.1337890625,-0.9150390625
2774,0.3623046875,0.1318359375,-0.9140625
2775,0.36328125,0.1337890625,-0.9150390625
2776,0.36328125,0.134765625,-0.9140625
2777,0.3662109375,0.1318359375,-0.91796875
2778,0.3671875,0.1337890625,-0.91015625
2779,0.3662109375,0.12890625,-0.916015625
2780,0.365234375,0.12890625,-0.9150390625
2781,0.3662109375,0.1279296875,-0.916015625
2782,0.3681640625,0.1328125,-0.916015625
2783,0.3671875,0.1328125,-0.91796875
2784,0.365234375,0.1318359375,-0.9169921875
2785,0.365234375,0.1328125,-0.9150390625
2786,0.3642578125,0.1318359375,-0.9208984375
2787,0.3623046875,0.1328125,-0.927734375
2788,0.36328125,0.130859375,-0.91796875
2789,0.3642578125,0.1318359375,-0.919921875
2790,0.3642578125,0.1279296875,-0.9189453125
2791,0.3603515625,0.1337890625,-0.916015625
2792,0.361328125,0.1337890625,-0.9150390625
2793,0.3642578125,0.126953125,-0.912109375
2794,0.3662109375,0.126953125,-0.9140625
2795,0.361328125,0.1259765625,-0.9111328125
2796,0.361328125,0.1259765625,-0.9111328125
2797,0.365234375,0.130859375,-0.912109375
2798,0.3623046875,0.125,-0.912109375
2799,0.3662109375,0.123046875,-0.9052734375
2800,0.36328125,0.1220703125,-0.9091796875
2801,0.3662109375,0.126953125,-0.908203125
2802,0.3662109375,0.1259765625,-0.916015625
2803,0.3662109375,0.1259765625,-0.9111328125
2804,0.3623046875,0.1279296875,-0.9189453125
2805,0.3642578125,0.1259765625,-0.916015625
2806,0.3623046875,0.123046875,-0.9169921875
2807,0.3681640625,0.1240234375,-0.916015625
2808,0.3642578125,0.1240234375,-0.919921875
2809,0.3681640625,0.1279296875,-0.9140625
2810,0.3603515625,0.123046875,-0.9189453125
2811,0.361328125,0.1259765625,-0.916015625
2812,0.365234375,0.1240234375,-0.9150390625
2813,0.3642578125,0.1259765625,-0.91015625
2814,0.3623046875,0.125,-0.9150390625
2815,0.36328125,0.1259765625,-0.9111328125
2816,0.3681640625,0.1298828125,-0.9169921875
2817,0.3818359375,0.126953125,-0.9169921875
2818,0.34375,0.125,-0.916015625
2819,0.361328125,0.12890625,-0.9130859375
2820,0.3642578125,0.1298828125,-0.9140625
2821,0.36328125,0.125,-0.9140625
2822,0.3671875,0.125,-0.9169921875
2823,0.3623046875,0.123046875,-0.908203125
2824,0.3662109375,0.1318359375,-0.9140625
2825,0.365234375,0.125,-0.912109375
2826,0.3623046875,0.12109375,-0.912109375
2827,0.369140625,0.125,-0.9033203125
2828,0.36328125,0.125,-0.9111328125
2829,0.37109375,0.125,-0.921875
2830,0.3583984375,0.126953125,-0.9140625
2831,0.365234375,0.126953125,-0.9150390625
2832,0.3642578125,0.1279296875,-0.9150390625
2833,0.361328125,0.125,-0.91796875
2834,0.3671875,0.123046875,-0.91796875
2835,0.361328125,0.1259765625,-0.9130859375
2836,0.36328125,0.1220703125,-0.9169921875
2837,0.3642578125,0.126953125,-0.9140625
2838,0.3623046875,0.1259765625,-0.91796875
2839,0.3662109375,0.1259765625,-0.9130859375
2840,0.349609375,0.125,-0.9130859375
2841,0.35546875,0.1259765625,-0.9111328125
2842,0.3662109375,0.126953125,-0.91015625
2843,0.36328125,0.123046875,-0.9111328125
2844,0.36328125,0.125,-0.9140625
