,accelerometerAccelerationX(G),accelerometerAccelerationY(G),accelerometerAccelerationZ(G)
0,0.0009765625,-1.0107421875,0.0859375
1,0.0009765625,-1.0087890625,0.0869140625
2,0.0009765625,-1.009765625,0.0849609375
3,-0.0029296875,-1.0185546875,0.0869140625
4,-0.0048828125,-1.013671875,0.0849609375
5,-0.00390625,-1.0078125,0.0830078125
6,0.0,-1.0126953125,0.0888671875
7,-0.0029296875,-1.0146484375,0.08984375
8,-0.0009765625,-1.0087890625,0.0908203125
9,0.0,-1.0205078125,0.08984375
10,-0.0009765625,-1.0185546875,0.087890625
11,-0.0009765625,-1.029296875,0.08984375
12,-0.0009765625,-1.021484375,0.09375
13,-0.001953125,-1.0361328125,0.0947265625
14,-0.0078125,-1.037109375,0.09375
15,-0.005859375,-1.03515625,0.0908203125
16,-0.0185546875,-1.0380859375,0.08984375
17,-0.015625,-1.03515625,0.0947265625
18,-0.0185546875,-1.0400390625,0.095703125
19,-0.01953125,-1.03515625,0.1025390625
20,-0.0205078125,-1.033203125,0.1103515625
21,-0.015625,-1.04296875,0.1142578125
22,-0.0244140625,-1.0380859375,0.1083984375
23,-0.015625,-1.03515625,0.1015625
24,-0.0146484375,-1.0322265625,0.09765625
25,-0.00390625,-1.0263671875,0.0986328125
26,-0.00390625,-1.0302734375,0.103515625
27,-0.013671875,-1.0322265625,0.111328125
28,-0.01171875,-1.03515625,0.1181640625
29,-0.015625,-1.0341796875,0.1162109375
30,-0.0126953125,-1.0380859375,0.119140625
31,-0.0009765625,-1.0341796875,0.1162109375
32,-0.00390625,-1.0322265625,0.1201171875
33,-0.0078125,-1.0361328125,0.1328125
34,-0.0048828125,-1.037109375,0.1416015625
35,-0.0107421875,-1.0380859375,0.126953125
36,-0.009765625,-1.0322265625,0.115234375
37,-0.0029296875,-1.0322265625,0.1025390625
38,-0.0048828125,-1.0126953125,0.1005859375
39,-0.0078125,-1.0107421875,0.1015625
40,-0.0068359375,-1.017578125,0.1005859375
41,0.001953125,-1.0087890625,0.0927734375
42,0.0009765625,-1.0107421875,0.08203125
43,0.0,-1.005859375,0.0830078125
44,-0.0048828125,-1.0068359375,0.0830078125
45,-0.001953125,-1.005859375,0.0810546875
46,0.0,-1.005859375,0.0791015625
47,0.0068359375,-0.9990234375,0.0791015625
48,0.0185546875,-1.00390625,0.0703125
49,0.0283203125,-0.998046875,0.0654296875
50,0.052734375,-1.005859375,0.05859375
51,0.0615234375,-1.001953125,0.0576171875
52,0.0751953125,-1.0078125,0.0654296875
53,0.0908203125,-0.9990234375,0.0712890625
54,0.1025390625,-0.994140625,0.080078125
55,0.1015625,-0.9873046875,0.0927734375
56,0.1123046875,-0.9931640625,0.09765625
57,0.119140625,-0.9794921875,0.1083984375
58,0.1318359375,-0.9775390625,0.12890625
59,0.134765625,-0.9755859375,0.142578125
60,0.1416015625,-0.970703125,0.1591796875
61,0.134765625,-0.96484375,0.1708984375
62,0.126953125,-0.9755859375,0.1875
63,0.111328125,-0.982421875,0.1806640625
64,0.09765625,-0.9833984375,0.1796875
65,0.08203125,-0.990234375,0.1728515625
66,0.068359375,-0.998046875,0.169921875
67,0.0556640625,-0.990234375,0.1708984375
68,0.048828125,-0.98828125,0.1806640625
69,0.0283203125,-0.9921875,0.1953125
70,0.0439453125,-1.0146484375,0.18359375
71,0.0302734375,-1.0029296875,0.1826171875
72,0.029296875,-1.0009765625,0.16796875
73,0.02734375,-0.982421875,0.16796875
74,0.048828125,-0.9658203125,0.150390625
75,0.0263671875,-0.9658203125,0.1376953125
76,0.0322265625,-0.9560546875,0.158203125
77,0.037109375,-0.9658203125,0.166015625
78,0.017578125,-0.9716796875,0.1669921875
79,0.0322265625,-0.962890625,0.1806640625
80,0.029296875,-0.9658203125,0.169921875
81,0.0234375,-0.97265625,0.1806640625
82,-0.0029296875,-0.91796875,0.2041015625
83,0.0791015625,-1.0048828125,0.15234375
84,0.048828125,-0.9716796875,0.1767578125
85,0.0595703125,-0.974609375,0.1787109375
86,0.060546875,-0.970703125,0.171875
87,0.068359375,-0.9677734375,0.1708984375
88,0.06640625,-0.962890625,0.16796875
89,0.0673828125,-0.962890625,0.1650390625
90,0.06640625,-0.9609375,0.162109375
91,0.0673828125,-0.962890625,0.1591796875
92,0.0703125,-0.95703125,0.16015625
93,0.064453125,-0.9619140625,0.1513671875
94,0.0615234375,-0.95703125,0.1552734375
95,0.0712890625,-0.9638671875,0.15625
96,0.0673828125,-0.96484375,0.16015625
97,0.0703125,-0.9609375,0.166015625
98,0.0751953125,-0.9560546875,0.1708984375
99,0.078125,-0.9697265625,0.169921875
100,0.076171875,-0.9658203125,0.1787109375
101,0.0830078125,-0.9736328125,0.1708984375
102,0.095703125,-0.9794921875,0.16796875
103,0.095703125,-0.9794921875,0.1650390625
104,0.09765625,-0.98828125,0.1611328125
105,0.0986328125,-0.98828125,0.1611328125
106,0.0908203125,-0.9853515625,0.16015625
107,0.083984375,-0.9736328125,0.1630859375
108,0.06640625,-0.9658203125,0.162109375
109,0.0625,-0.9677734375,0.1748046875
110,0.052734375,-0.9609375,0.185546875
111,0.064453125,-0.9599609375,0.1884765625
112,0.0634765625,-0.95703125,0.1962890625
113,0.076171875,-0.9423828125,0.19921875
114,0.0830078125,-0.935546875,0.19921875
115,0.0888671875,-0.943359375,0.2001953125
116,0.087890625,-0.9443359375,0.201171875
117,0.087890625,-0.9462890625,0.2041015625
118,0.0908203125,-0.9521484375,0.2119140625
119,0.0947265625,-0.955078125,0.20703125
120,0.1015625,-0.9619140625,0.2060546875
121,0.10546875,-0.9609375,0.20703125
122,0.10546875,-0.9609375,0.2060546875
123,0.1044921875,-0.9560546875,0.203125
124,0.1005859375,-0.958984375,0.2060546875
125,0.0947265625,-0.951171875,0.205078125
126,0.0927734375,-0.951171875,0.19921875
127,0.0986328125,-0.9521484375,0.1943359375
128,0.09765625,-0.9541015625,0.1875
129,0.1064453125,-0.96484375,0.197265625
130,0.1123046875,-0.9794921875,0.189453125
131,0.1240234375,-1.0029296875,0.193359375
132,0.1357421875,-1.013671875,0.2001953125
133,0.142578125,-1.0400390625,0.2080078125
134,0.15625,-1.0546875,0.2138671875
135,0.1728515625,-1.0693359375,0.216796875
136,0.1796875,-1.0830078125,0.224609375
137,0.193359375,-1.0986328125,0.224609375
138,0.1982421875,-1.1201171875,0.2197265625
139,0.2060546875,-1.1337890625,0.22265625
140,0.2021484375,-1.13671875,0.224609375
141,0.2109375,-1.1484375,0.2314453125
142,0.2177734375,-1.1533203125,0.240234375
143,0.224609375,-1.1474609375,0.2490234375
144,0.2421875,-1.1416015625,0.259765625
145,0.25390625,-1.1328125,0.2548828125
146,0.2685546875,-1.130859375,0.259765625
147,0.2822265625,-1.1259765625,0.2587890625
148,0.2861328125,-1.125,0.259765625
149,0.3017578125,-1.1396484375,0.248046875
150,0.326171875,-1.1884765625,0.234375
151,0.2490234375,-1.2431640625,0.228515625
152,0.1357421875,-1.26171875,0.1826171875
153,0.123046875,-1.287109375,0.0830078125
154,0.189453125,-1.3017578125,0.0361328125
155,0.240234375,-1.3154296875,0.0556640625
156,0.2373046875,-1.322265625,0.0791015625
157,0.2275390625,-1.337890625,0.0771484375
158,0.2353515625,-1.345703125,0.0595703125
159,0.2578125,-1.3173828125,0.0302734375
160,0.275390625,-1.28125,0.02734375
161,0.3427734375,-1.2333984375,0.0419921875
162,0.365234375,-1.1923828125,0.056640625
163,0.3515625,-1.1806640625,0.0634765625
164,0.34375,-1.18359375,0.0546875
165,0.2705078125,-1.1875,0.0419921875
166,0.279296875,-1.1875,0.0263671875
167,0.2783203125,-1.150390625,0.001953125
168,0.2119140625,-1.125,-0.0146484375
169,0.1650390625,-1.1123046875,-0.037109375
170,0.115234375,-1.06640625,-0.06640625
171,0.09765625,-1.001953125,-0.099609375
172,0.072265625,-0.9267578125,-0.130859375
173,0.0673828125,-0.87890625,-0.13671875
174,0.0419921875,-0.8505859375,-0.1611328125
175,0.03515625,-0.8154296875,-0.193359375
176,0.0322265625,-0.77734375,-0.2197265625
177,0.0546875,-0.712890625,-0.24609375
178,0.046875,-0.7080078125,-0.23046875
179,0.04296875,-0.7138671875,-0.208984375
180,0.0712890625,-0.716796875,-0.20703125
181,0.08984375,-0.7392578125,-0.20703125
182,0.103515625,-0.7568359375,-0.2119140625
183,0.1328125,-0.78515625,-0.2275390625
184,0.1435546875,-0.83203125,-0.232421875
185,0.185546875,-0.865234375,-0.240234375
186,0.2080078125,-0.88671875,-0.2421875
187,0.2373046875,-0.9150390625,-0.236328125
188,0.24609375,-0.9541015625,-0.2080078125
189,0.2421875,-0.982421875,-0.1640625
190,0.2373046875,-1.0205078125,-0.1298828125
191,0.2255859375,-1.05078125,-0.0966796875
192,0.203125,-1.060546875,-0.068359375
193,0.18359375,-1.076171875,-0.04296875
194,0.1611328125,-1.0810546875,-0.02734375
195,0.1357421875,-1.07421875,-0.0205078125
196,0.103515625,-1.0595703125,-0.01171875
197,0.0732421875,-1.037109375,-0.0166015625
198,0.0634765625,-1.013671875,-0.0224609375
199,0.0517578125,-0.9990234375,-0.0283203125
200,0.0341796875,-0.982421875,-0.041015625
201,0.0361328125,-0.966796875,-0.060546875
202,0.0322265625,-0.9677734375,-0.078125
203,0.0361328125,-0.9609375,-0.08984375
204,0.056640625,-0.9423828125,-0.09375
205,0.0771484375,-0.9521484375,-0.1015625
206,0.10546875,-0.943359375,-0.103515625
207,0.1171875,-0.9443359375,-0.103515625
208,0.1240234375,-0.939453125,-0.095703125
209,0.142578125,-0.9326171875,-0.0927734375
210,0.1552734375,-0.9306640625,-0.08984375
211,0.15625,-0.9365234375,-0.078125
212,0.162109375,-0.927734375,-0.0703125
213,0.1591796875,-0.92578125,-0.037109375
214,0.138671875,-0.9345703125,-0.021484375
215,0.146484375,-0.923828125,-0.009765625
216,0.1513671875,-0.916015625,0.0146484375
217,0.12109375,-0.9345703125,0.0263671875
218,0.109375,-0.9345703125,0.0361328125
219,0.1201171875,-0.939453125,0.0576171875
220,0.064453125,-0.955078125,0.0576171875
221,0.05859375,-0.953125,0.0615234375
222,0.048828125,-0.947265625,0.0556640625
223,0.05859375,-0.94140625,0.052734375
224,0.0263671875,-0.951171875,0.060546875
225,0.03125,-0.9501953125,0.0654296875
226,0.0322265625,-0.9482421875,0.0732421875
227,0.0517578125,-0.9404296875,0.0810546875
228,0.041015625,-0.9462890625,0.072265625
229,0.0419921875,-0.9384765625,0.0986328125
230,0.0673828125,-0.939453125,0.076171875
231,0.0693359375,-0.9228515625,0.083984375
232,0.0869140625,-0.91015625,0.0927734375
233,0.0830078125,-0.9169921875,0.095703125
234,0.083984375,-0.8994140625,0.103515625
235,0.1005859375,-0.8916015625,0.1025390625
236,0.0986328125,-0.8876953125,0.1123046875
237,0.1005859375,-0.8876953125,0.1142578125
238,0.0908203125,-0.876953125,0.1162109375
239,0.08984375,-0.869140625,0.11328125
240,0.08203125,-0.8671875,0.109375
241,0.078125,-0.8671875,0.1015625
242,0.0751953125,-0.8779296875,0.091796875
243,0.078125,-0.875,0.0859375
244,0.09375,-0.884765625,0.08203125
245,0.1103515625,-0.90234375,0.06640625
246,0.1572265625,-0.908203125,0.04296875
247,0.15234375,-0.9462890625,0.05078125
248,0.1806640625,-0.9853515625,0.0380859375
249,0.2177734375,-1.0107421875,0.03125
250,0.2373046875,-1.046875,0.029296875
251,0.2490234375,-1.080078125,0.037109375
252,0.2421875,-1.1318359375,0.02734375
253,0.2373046875,-1.1435546875,0.04296875
254,0.2119140625,-1.173828125,0.0615234375
255,0.1669921875,-1.1865234375,0.0673828125
256,0.1337890625,-1.19140625,0.0791015625
257,0.0908203125,-1.1875,0.09765625
258,0.0576171875,-1.17578125,0.1064453125
259,0.0224609375,-1.1669921875,0.1279296875
260,-0.00390625,-1.1513671875,0.142578125
261,-0.02734375,-1.1318359375,0.1533203125
262,-0.0595703125,-1.11328125,0.169921875
263,-0.0947265625,-1.0927734375,0.19140625
264,-0.142578125,-1.080078125,0.19921875
265,-0.18359375,-1.080078125,0.18359375
266,-0.17578125,-1.0791015625,0.1806640625
267,-0.205078125,-1.072265625,0.162109375
268,-0.2275390625,-1.068359375,0.1904296875
269,-0.2373046875,-1.0732421875,0.234375
270,-0.24609375,-1.056640625,0.2763671875
271,-0.2578125,-1.0361328125,0.3095703125
272,-0.2568359375,-0.9931640625,0.3310546875
273,-0.2353515625,-0.982421875,0.33984375
274,-0.236328125,-0.9892578125,0.3603515625
275,-0.439453125,-1.1787109375,0.3515625
276,-0.3076171875,-1.2197265625,0.2421875
277,-0.08984375,-1.24609375,0.0986328125
278,-0.0400390625,-1.287109375,-0.1533203125
279,-0.169921875,-1.2890625,-0.259765625
280,-0.19921875,-1.3212890625,-0.126953125
281,-0.140625,-1.357421875,-0.0791015625
282,-0.0712890625,-1.3955078125,-0.0517578125
283,-0.00390625,-1.4130859375,-0.048828125
284,0.037109375,-1.376953125,-0.0615234375
285,0.07421875,-1.3349609375,-0.0966796875
286,0.0908203125,-1.3193359375,-0.146484375
287,0.1064453125,-1.3125,-0.1787109375
288,0.115234375,-1.2734375,-0.234375
289,0.103515625,-1.2431640625,-0.29296875
290,0.09765625,-1.2255859375,-0.30859375
291,0.0947265625,-1.21484375,-0.2998046875
292,0.0966796875,-1.1962890625,-0.2958984375
293,0.083984375,-1.1533203125,-0.341796875
294,0.072265625,-1.1103515625,-0.390625
295,0.0625,-1.05078125,-0.4306640625
296,0.05859375,-0.9912109375,-0.4453125
297,0.0634765625,-0.943359375,-0.4501953125
298,0.07421875,-0.9130859375,-0.4287109375
299,0.0830078125,-0.8828125,-0.390625
300,0.0908203125,-0.869140625,-0.3525390625
301,0.083984375,-0.8447265625,-0.33203125
302,0.06640625,-0.826171875,-0.322265625
303,0.046875,-0.8134765625,-0.291015625
304,0.0185546875,-0.796875,-0.259765625
305,-0.0068359375,-0.8134765625,-0.2197265625
306,-0.0322265625,-0.814453125,-0.189453125
307,-0.0556640625,-0.826171875,-0.171875
308,-0.0732421875,-0.8525390625,-0.1630859375
309,-0.0869140625,-0.8798828125,-0.1474609375
310,-0.1083984375,-0.9013671875,-0.140625
311,-0.09765625,-0.9228515625,-0.138671875
312,-0.1201171875,-0.94921875,-0.1201171875
313,-0.1416015625,-0.9609375,-0.1005859375
314,-0.1298828125,-0.9833984375,-0.099609375
315,-0.15234375,-0.9912109375,-0.091796875
316,-0.15234375,-0.9833984375,-0.08984375
317,-0.1591796875,-0.9814453125,-0.0849609375
318,-0.1650390625,-0.9853515625,-0.076171875
319,-0.1748046875,-0.9970703125,-0.0595703125
320,-0.1708984375,-1.009765625,-0.048828125
321,-0.1640625,-1.01171875,-0.0361328125
322,-0.14453125,-1.0283203125,-0.0380859375
323,-0.0947265625,-1.05078125,-0.0390625
324,-0.0908203125,-1.0546875,-0.0341796875
325,-0.0595703125,-1.05078125,-0.033203125
326,-0.04296875,-1.041015625,-0.017578125
327,-0.0146484375,-1.00390625,-0.021484375
328,-0.0029296875,-0.9921875,-0.03125
329,0.0302734375,-0.96875,-0.0244140625
330,0.033203125,-0.9609375,-0.0283203125
331,0.0458984375,-0.9443359375,-0.0234375
332,0.041015625,-0.9296875,-0.0146484375
333,0.0361328125,-0.92578125,-0.0068359375
334,0.029296875,-0.9228515625,-0.001953125
335,0.03515625,-0.9150390625,0.0029296875
336,0.0498046875,-0.91796875,0.00390625
337,0.05078125,-0.9140625,0.0107421875
338,0.0390625,-0.9150390625,0.0224609375
339,0.0654296875,-0.8994140625,0.029296875
340,0.07421875,-0.8984375,0.041015625
341,0.068359375,-0.892578125,0.056640625
342,0.0498046875,-0.8994140625,0.0537109375
343,0.0888671875,-0.8837890625,0.0576171875
344,0.078125,-0.8779296875,0.06640625
345,0.08203125,-0.865234375,0.0634765625
346,0.0693359375,-0.8447265625,0.06640625
347,0.080078125,-0.8359375,0.0576171875
348,0.0673828125,-0.822265625,0.0546875
349,0.072265625,-0.798828125,0.0517578125
350,0.0634765625,-0.7783203125,0.046875
351,0.0478515625,-0.7685546875,0.0458984375
352,0.0283203125,-0.7734375,0.0537109375
353,0.0185546875,-0.7548828125,0.0576171875
354,-0.0068359375,-0.7802734375,0.0693359375
355,-0.02734375,-0.818359375,0.0810546875
356,-0.052734375,-0.841796875,0.08984375
357,-0.0390625,-0.8466796875,0.109375
358,-0.0458984375,-0.884765625,0.1376953125
359,-0.0380859375,-0.9287109375,0.1748046875
360,-0.021484375,-0.962890625,0.2060546875
361,0.009765625,-1.001953125,0.23828125
362,0.013671875,-1.044921875,0.2529296875
363,-0.009765625,-1.048828125,0.28515625
364,-0.0029296875,-1.0791015625,0.267578125
365,-0.0078125,-1.1064453125,0.2568359375
366,0.009765625,-1.119140625,0.2421875
367,0.025390625,-1.123046875,0.234375
368,0.05078125,-1.1220703125,0.2255859375
369,0.0732421875,-1.130859375,0.2236328125
370,0.087890625,-1.1259765625,0.2138671875
371,0.0869140625,-1.1123046875,0.2158203125
372,0.064453125,-1.09765625,0.2138671875
373,0.0380859375,-1.080078125,0.2138671875
374,0.0029296875,-1.0615234375,0.224609375
375,-0.01171875,-1.0478515625,0.2353515625
376,0.001953125,-1.0244140625,0.2724609375
377,0.03125,-1.015625,0.2763671875
378,0.0595703125,-1.0322265625,0.234375
379,0.0537109375,-1.046875,0.2158203125
380,0.1220703125,-1.068359375,0.21484375
381,0.1787109375,-1.1044921875,0.234375
382,0.2685546875,-1.1953125,0.2724609375
383,0.4130859375,-1.30078125,0.318359375
384,0.4833984375,-1.3515625,0.27734375
385,0.466796875,-1.42578125,0.091796875
386,0.5302734375,-1.52734375,-0.1015625
387,0.62890625,-1.6103515625,-0.10546875
388,0.630859375,-1.654296875,-0.0673828125
389,0.6015625,-1.6689453125,-0.1015625
390,0.5537109375,-1.6337890625,-0.1796875
391,0.51953125,-1.5673828125,-0.197265625
392,0.443359375,-1.4794921875,-0.140625
393,0.3359375,-1.4150390625,-0.0419921875
394,0.21484375,-1.3779296875,0.0205078125
395,0.0791015625,-1.3203125,-0.0146484375
396,-0.0517578125,-1.263671875,-0.0751953125
397,-0.119140625,-1.1455078125,-0.1591796875
398,-0.15234375,-1.0400390625,-0.244140625
399,-0.1591796875,-0.92578125,-0.318359375
400,-0.1669921875,-0.83984375,-0.3828125
401,-0.1611328125,-0.7587890625,-0.4404296875
402,-0.1611328125,-0.7158203125,-0.4853515625
403,-0.17578125,-0.6923828125,-0.4609375
404,-0.1884765625,-0.6904296875,-0.40625
405,-0.173828125,-0.7197265625,-0.341796875
406,-0.1494140625,-0.7744140625,-0.2109375
407,-0.125,-0.8076171875,-0.234375
408,-0.0849609375,-0.861328125,-0.216796875
409,-0.0205078125,-0.90234375,-0.197265625
410,0.0615234375,-0.970703125,-0.1474609375
411,0.12109375,-1.025390625,-0.0869140625
412,0.1865234375,-1.0712890625,-0.041015625
413,0.23828125,-1.1025390625,-0.0185546875
414,0.2841796875,-1.1240234375,0.005859375
415,0.3056640625,-1.1181640625,0.001953125
416,0.333984375,-1.1005859375,-0.005859375
417,0.3544921875,-1.078125,-0.0126953125
418,0.3525390625,-1.046875,-0.021484375
419,0.3291015625,-1.01953125,-0.0068359375
420,0.3310546875,-0.9912109375,0.00390625
421,0.306640625,-0.9482421875,0.0078125
422,0.283203125,-0.91796875,-0.0068359375
423,0.24609375,-0.892578125,-0.0361328125
424,0.2265625,-0.8955078125,-0.0595703125
425,0.2119140625,-0.8984375,-0.0849609375
426,0.1767578125,-0.90234375,-0.0830078125
427,0.14453125,-0.9033203125,-0.083984375
428,0.119140625,-0.9091796875,-0.072265625
429,0.107421875,-0.916015625,-0.0693359375
430,0.103515625,-0.8984375,-0.0703125
431,0.083984375,-0.90234375,-0.052734375
432,0.0888671875,-0.892578125,-0.0537109375
433,0.0732421875,-0.875,-0.048828125
434,0.076171875,-0.8583984375,-0.048828125
435,0.076171875,-0.8427734375,-0.0380859375
436,0.07421875,-0.8173828125,-0.0341796875
437,0.0634765625,-0.8076171875,-0.03125
438,0.064453125,-0.7880859375,-0.01953125
439,0.0517578125,-0.783203125,-0.009765625
440,0.0498046875,-0.7734375,0.0009765625
441,0.029296875,-0.7890625,0.0244140625
442,0.0185546875,-0.78125,0.04296875
443,0.0244140625,-0.78125,0.048828125
444,-0.001953125,-0.810546875,0.048828125
445,-0.0107421875,-0.8173828125,0.0517578125
446,-0.0078125,-0.8330078125,0.0546875
447,-0.02734375,-0.8544921875,0.0546875
448,-0.033203125,-0.8564453125,0.0654296875
449,-0.025390625,-0.876953125,0.0703125
450,-0.013671875,-0.8876953125,0.0771484375
451,-0.0322265625,-0.91015625,0.099609375
452,-0.0126953125,-0.91796875,0.1025390625
453,-0.0126953125,-0.9267578125,0.109375
454,-0.00390625,-0.935546875,0.115234375
455,0.009765625,-0.9375,0.115234375
456,0.0078125,-0.9384765625,0.1328125
457,0.0166015625,-0.943359375,0.1396484375
458,0.0078125,-0.95703125,0.1513671875
459,0.0068359375,-0.951171875,0.1708984375
460,0.001953125,-0.9453125,0.1904296875
461,-0.013671875,-0.955078125,0.2138671875
462,-0.0263671875,-0.966796875,0.228515625
463,-0.0244140625,-0.9794921875,0.2294921875
464,-0.0166015625,-0.9970703125,0.2314453125
465,-0.005859375,-0.998046875,0.224609375
466,0.0244140625,-1.001953125,0.2158203125
467,0.0390625,-1.017578125,0.2138671875
468,0.07421875,-1.021484375,0.2041015625
469,0.1181640625,-1.009765625,0.193359375
470,0.115234375,-1.037109375,0.1796875
471,0.138671875,-1.01953125,0.169921875
472,0.1640625,-0.9951171875,0.16796875
473,0.1005859375,-1.064453125,0.1787109375
474,0.1162109375,-1.056640625,0.1669921875
475,0.1171875,-1.0654296875,0.1787109375
476,0.119140625,-1.091796875,0.1923828125
477,0.134765625,-1.0869140625,0.201171875
478,0.1220703125,-1.091796875,0.2119140625
479,0.0654296875,-1.095703125,0.2333984375
480,0.001953125,-1.09765625,0.2587890625
481,-0.0947265625,-1.103515625,0.2880859375
482,-0.1865234375,-1.115234375,0.28125
483,-0.1953125,-1.12109375,0.279296875
484,-0.2509765625,-1.107421875,0.26953125
485,-0.2861328125,-1.0947265625,0.283203125
486,-0.3046875,-1.091796875,0.3251953125
487,-0.345703125,-1.099609375,0.3857421875
488,-0.5771484375,-1.251953125,0.4501953125
489,-0.462890625,-1.2744140625,0.3564453125
490,-0.2939453125,-1.375,0.1953125
491,-0.2294921875,-1.4482421875,-0.048828125
492,-0.3125,-1.453125,-0.2314453125
493,-0.34765625,-1.4814453125,-0.1708984375
494,-0.2822265625,-1.4970703125,-0.158203125
495,-0.1787109375,-1.5078125,-0.14453125
496,-0.0625,-1.466796875,-0.0869140625
497,-0.005859375,-1.40625,0.0
498,0.02734375,-1.359375,0.048828125
499,0.06640625,-1.3603515625,0.0595703125
500,0.0869140625,-1.3583984375,0.0185546875
501,0.140625,-1.30078125,-0.076171875
502,0.193359375,-1.2001953125,-0.205078125
503,0.2470703125,-1.091796875,-0.3388671875
504,0.2919921875,-0.98828125,-0.4306640625
505,0.31640625,-0.921875,-0.4970703125
506,0.3291015625,-0.875,-0.5205078125
507,0.330078125,-0.8408203125,-0.521484375
508,0.3173828125,-0.818359375,-0.4990234375
509,0.3125,-0.818359375,-0.455078125
510,0.3076171875,-0.841796875,-0.41015625
511,0.2783203125,-0.8779296875,-0.365234375
512,0.2255859375,-0.908203125,-0.314453125
513,0.1572265625,-0.9521484375,-0.2265625
514,0.0751953125,-1.0224609375,-0.17578125
515,0.025390625,-1.056640625,-0.126953125
516,-0.0283203125,-1.080078125,-0.0810546875
517,-0.0849609375,-1.1025390625,-0.05859375
518,-0.1328125,-1.1083984375,-0.0498046875
519,-0.1875,-1.1240234375,-0.0654296875
520,-0.2255859375,-1.138671875,-0.07421875
521,-0.26171875,-1.123046875,-0.076171875
522,-0.296875,-1.125,-0.0732421875
523,-0.3154296875,-1.1044921875,-0.0517578125
524,-0.318359375,-1.0810546875,-0.03515625
525,-0.3154296875,-1.0439453125,-0.0185546875
526,-0.3154296875,-0.9931640625,-0.025390625
527,-0.2919921875,-0.98828125,-0.0546875
528,-0.2802734375,-0.9619140625,-0.0908203125
529,-0.2568359375,-0.966796875,-0.119140625
530,-0.2421875,-0.9697265625,-0.12109375
531,-0.2470703125,-0.9853515625,-0.1181640625
532,-0.2216796875,-0.9951171875,-0.109375
533,-0.2041015625,-0.9697265625,-0.0966796875
534,-0.169921875,-0.982421875,-0.08984375
535,-0.1298828125,-0.9833984375,-0.0810546875
536,-0.1142578125,-0.9697265625,-0.0732421875
537,-0.091796875,-0.9580078125,-0.0615234375
538,-0.0390625,-0.9345703125,-0.056640625
539,-0.0166015625,-0.912109375,-0.0498046875
540,0.01953125,-0.8798828125,-0.0458984375
541,0.0498046875,-0.8603515625,-0.04296875
542,0.052734375,-0.84765625,-0.03125
543,0.068359375,-0.8291015625,-0.0244140625
544,0.076171875,-0.8173828125,-0.01171875
545,0.068359375,-0.82421875,-0.001953125
546,0.09765625,-0.8388671875,0.0205078125
547,0.0927734375,-0.84765625,0.0244140625
548,0.08984375,-0.84765625,0.0419921875
549,0.09765625,-0.8544921875,0.0712890625
550,0.1123046875,-0.8642578125,0.0810546875
551,0.1123046875,-0.8798828125,0.0986328125
552,0.125,-0.8798828125,0.1142578125
553,0.138671875,-0.869140625,0.12109375
554,0.1435546875,-0.8505859375,0.126953125
555,0.1484375,-0.841796875,0.130859375
556,0.1474609375,-0.82421875,0.125
557,0.1376953125,-0.8134765625,0.1240234375
558,0.126953125,-0.78515625,0.1181640625
559,0.11328125,-0.7900390625,0.109375
560,0.1083984375,-0.7509765625,0.099609375
561,0.095703125,-0.751953125,0.08984375
562,0.0849609375,-0.7421875,0.0888671875
563,0.06640625,-0.748046875,0.09765625
564,0.0576171875,-0.7666015625,0.10546875
565,0.03125,-0.783203125,0.1279296875
566,0.0126953125,-0.822265625,0.15234375
567,-0.0068359375,-0.869140625,0.1884765625
568,-0.0126953125,-0.8984375,0.216796875
569,-0.03125,-0.943359375,0.2392578125
570,-0.056640625,-0.9912109375,0.2578125
571,-0.0888671875,-1.0341796875,0.2509765625
572,-0.107421875,-1.0732421875,0.25
573,-0.1142578125,-1.1064453125,0.232421875
574,-0.1201171875,-1.0869140625,0.23046875
575,-0.1025390625,-1.0947265625,0.2021484375
576,-0.0830078125,-1.0966796875,0.197265625
577,-0.0625,-1.1025390625,0.193359375
578,-0.0400390625,-1.0927734375,0.189453125
579,-0.0283203125,-1.0712890625,0.2021484375
580,-0.0302734375,-1.0615234375,0.2138671875
581,-0.0458984375,-1.06640625,0.2275390625
582,-0.04296875,-1.0732421875,0.24609375
583,-0.0390625,-1.08984375,0.2646484375
584,-0.021484375,-1.1044921875,0.30859375
585,0.0068359375,-1.123046875,0.341796875
586,0.05078125,-1.1298828125,0.3671875
587,0.1044921875,-1.12109375,0.37890625
588,0.146484375,-1.123046875,0.34765625
589,0.158203125,-1.1142578125,0.3095703125
590,0.154296875,-1.1044921875,0.2822265625
591,0.1806640625,-1.1123046875,0.298828125
592,0.2861328125,-1.23046875,0.318359375
593,0.427734375,-1.287109375,0.38671875
594,0.439453125,-1.3056640625,0.3076171875
595,0.4111328125,-1.3798828125,0.0595703125
596,0.4697265625,-1.466796875,-0.1318359375
597,0.5205078125,-1.5390625,-0.0859375
598,0.490234375,-1.5712890625,-0.005859375
599,0.4453125,-1.5576171875,0.00390625
600,0.3955078125,-1.515625,-0.0283203125
601,0.345703125,-1.4541015625,-0.02734375
602,0.271484375,-1.4072265625,-0.013671875
603,0.203125,-1.3740234375,0.0068359375
604,0.1259765625,-1.3037109375,-0.013671875
605,0.025390625,-1.2451171875,-0.0625
606,-0.044921875,-1.1806640625,-0.1162109375
607,-0.0849609375,-1.1025390625,-0.1484375
608,-0.09375,-1.029296875,-0.1865234375
609,-0.099609375,-0.92578125,-0.2412109375
610,-0.1044921875,-0.8515625,-0.2890625
611,-0.1064453125,-0.791015625,-0.3369140625
612,-0.1005859375,-0.7470703125,-0.3359375
613,-0.13671875,-0.728515625,-0.3095703125
614,-0.1591796875,-0.724609375,-0.267578125
615,-0.150390625,-0.7373046875,-0.2392578125
616,-0.1259765625,-0.7587890625,-0.201171875
617,-0.0947265625,-0.8310546875,-0.169921875
618,-0.0263671875,-0.8916015625,-0.1572265625
619,0.0244140625,-0.9521484375,-0.138671875
620,0.0927734375,-1.0166015625,-0.1044921875
621,0.134765625,-1.0654296875,-0.0712890625
622,0.18359375,-1.09765625,-0.052734375
623,0.2275390625,-1.126953125,-0.0390625
624,0.251953125,-1.1318359375,-0.044921875
625,0.2822265625,-1.1357421875,-0.0478515625
626,0.29296875,-1.12890625,-0.0625
627,0.3095703125,-1.1064453125,-0.0703125
628,0.3154296875,-1.07421875,-0.0654296875
629,0.3193359375,-1.04296875,-0.0458984375
630,0.330078125,-0.9912109375,-0.0302734375
631,0.3271484375,-0.9599609375,-0.0263671875
632,0.2998046875,-0.927734375,-0.0146484375
633,0.2802734375,-0.8974609375,-0.0341796875
634,0.28125,-0.9033203125,-0.0703125
635,0.2607421875,-0.896484375,-0.09765625
636,0.2431640625,-0.876953125,-0.125
637,0.2177734375,-0.884765625,-0.142578125
638,0.2119140625,-0.89453125,-0.1455078125
639,0.1943359375,-0.896484375,-0.1552734375
640,0.166015625,-0.904296875,-0.134765625
641,0.1484375,-0.900390625,-0.1240234375
642,0.1376953125,-0.904296875,-0.1171875
643,0.0947265625,-0.8837890625,-0.0966796875
644,0.0673828125,-0.8671875,-0.095703125
645,0.046875,-0.8583984375,-0.091796875
646,0.025390625,-0.8408203125,-0.08984375
647,0.0078125,-0.8291015625,-0.078125
648,0.0,-0.8271484375,-0.07421875
649,-0.0166015625,-0.8193359375,-0.0595703125
650,-0.0166015625,-0.818359375,-0.0498046875
651,-0.076171875,-0.8193359375,-0.01171875
652,-0.06640625,-0.833984375,0.0087890625
653,-0.0634765625,-0.8408203125,0.0087890625
654,-0.0537109375,-0.849609375,0.0361328125
655,-0.068359375,-0.8701171875,0.0615234375
656,-0.08203125,-0.884765625,0.0703125
657,-0.0634765625,-0.88671875,0.091796875
658,-0.1103515625,-0.904296875,0.0830078125
659,-0.109375,-0.912109375,0.1064453125
660,-0.0927734375,-0.9169921875,0.111328125
661,-0.0908203125,-0.92578125,0.109375
662,-0.0654296875,-0.9345703125,0.1240234375
663,-0.0361328125,-0.935546875,0.1328125
664,-0.037109375,-0.951171875,0.1435546875
665,-0.0400390625,-0.9462890625,0.1474609375
666,-0.0380859375,-0.962890625,0.1455078125
667,-0.0234375,-0.9541015625,0.1474609375
668,-0.0244140625,-0.951171875,0.154296875
669,-0.01171875,-0.94921875,0.1474609375
670,-0.0009765625,-0.9423828125,0.154296875
671,0.0,-0.9375,0.1591796875
672,0.00390625,-0.9326171875,0.1572265625
673,0.0087890625,-0.9287109375,0.1630859375
674,0.0107421875,-0.9306640625,0.1748046875
675,0.0234375,-0.9384765625,0.1787109375
676,0.0439453125,-0.94921875,0.193359375
677,0.0302734375,-0.978515625,0.216796875
678,0.095703125,-0.986328125,0.2177734375
679,0.11328125,-1.01171875,0.2197265625
680,0.1357421875,-1.04296875,0.201171875
681,0.1533203125,-1.0712890625,0.1865234375
682,0.197265625,-1.0771484375,0.16796875
683,0.1806640625,-1.119140625,0.1474609375
684,0.1435546875,-1.158203125,0.1640625
685,0.1484375,-1.1572265625,0.15234375
686,0.1328125,-1.166015625,0.1513671875
687,0.1318359375,-1.1611328125,0.1640625
688,0.130859375,-1.1572265625,0.185546875
689,0.12890625,-1.14453125,0.20703125
690,0.103515625,-1.1376953125,0.2294921875
691,0.0146484375,-1.1513671875,0.2080078125
692,0.0107421875,-1.154296875,0.2236328125
693,-0.0556640625,-1.15625,0.205078125
694,-0.119140625,-1.140625,0.224609375
695,-0.169921875,-1.1435546875,0.279296875
696,-0.2177734375,-1.1318359375,0.341796875
697,-0.265625,-1.11328125,0.38671875
698,-0.29296875,-1.0830078125,0.4072265625
699,-0.3056640625,-1.041015625,0.4033203125
700,-0.314453125,-1.0146484375,0.4140625
701,-0.33203125,-1.0302734375,0.4306640625
702,-0.5693359375,-1.1796875,0.4013671875
703,-0.412109375,-1.2412109375,0.41015625
704,-0.123046875,-1.3203125,0.294921875
705,-0.0732421875,-1.3583984375,0.017578125
706,-0.1953125,-1.3505859375,-0.1796875
707,-0.2060546875,-1.35546875,-0.134765625
708,-0.1435546875,-1.4072265625,-0.1240234375
709,-0.1005859375,-1.4052734375,-0.1044921875
710,-0.0595703125,-1.37109375,-0.0771484375
711,-0.0146484375,-1.3095703125,-0.0517578125
712,0.0166015625,-1.2529296875,-0.072265625
713,0.033203125,-1.205078125,-0.0966796875
714,0.0361328125,-1.1884765625,-0.1591796875
715,0.07421875,-1.1474609375,-0.2138671875
716,0.1298828125,-1.1064453125,-0.2958984375
717,0.185546875,-1.0498046875,-0.361328125
718,0.240234375,-0.9765625,-0.3896484375
719,0.279296875,-0.9326171875,-0.412109375
720,0.2998046875,-0.890625,-0.4169921875
721,0.3056640625,-0.8544921875,-0.4072265625
722,0.2919921875,-0.8330078125,-0.388671875
723,0.263671875,-0.8232421875,-0.3701171875
724,0.232421875,-0.8212890625,-0.33984375
725,0.193359375,-0.83203125,-0.29296875
726,0.14453125,-0.833984375,-0.259765625
727,0.076171875,-0.8525390625,-0.2197265625
728,0.0166015625,-0.8798828125,-0.1796875
729,-0.029296875,-0.9150390625,-0.142578125
730,-0.0791015625,-0.9521484375,-0.109375
731,-0.1162109375,-0.98828125,-0.08203125
732,-0.154296875,-1.044921875,-0.0625
733,-0.1875,-1.0888671875,-0.0546875
734,-0.220703125,-1.1357421875,-0.060546875
735,-0.248046875,-1.1435546875,-0.0791015625
736,-0.2587890625,-1.1640625,-0.087890625
737,-0.2509765625,-1.16796875,-0.05078125
738,-0.2353515625,-1.1689453125,-0.044921875
739,-0.2216796875,-1.1318359375,-0.056640625
740,-0.220703125,-1.1142578125,-0.0517578125
741,-0.2197265625,-1.08203125,-0.05859375
742,-0.232421875,-1.1171875,-0.0517578125
743,-0.232421875,-1.1083984375,-0.0537109375
744,-0.232421875,-1.107421875,-0.060546875
745,-0.2265625,-1.10546875,-0.0703125
746,-0.2216796875,-1.1123046875,-0.083984375
747,-0.22265625,-1.1103515625,-0.052734375
748,-0.2041015625,-1.0869140625,-0.05078125
749,-0.1484375,-1.06640625,-0.0712890625
750,-0.1455078125,-1.009765625,-0.0615234375
751,-0.1044921875,-0.958984375,-0.05859375
752,-0.0751953125,-0.9208984375,-0.0517578125
753,-0.0517578125,-0.8837890625,-0.037109375
754,-0.0546875,-0.865234375,-0.0166015625
755,0.0146484375,-0.802734375,-0.015625
756,0.0478515625,-0.771484375,-0.017578125
757,0.0556640625,-0.7568359375,0.0
758,0.0859375,-0.7470703125,0.0107421875
759,0.08984375,-0.755859375,0.02734375
760,0.1435546875,-0.7412109375,0.0283203125
761,0.1572265625,-0.74609375,0.044921875
762,0.16015625,-0.759765625,0.05859375
763,0.1875,-0.7578125,0.05859375
764,0.1923828125,-0.7666015625,0.0654296875
765,0.177734375,-0.771484375,0.080078125
766,0.16015625,-0.783203125,0.0810546875
767,0.169921875,-0.7763671875,0.087890625
768,0.162109375,-0.79296875,0.0947265625
769,0.14453125,-0.796875,0.095703125
770,0.1328125,-0.8173828125,0.1005859375
771,0.1328125,-0.8212890625,0.1044921875
772,0.115234375,-0.828125,0.1015625
773,0.099609375,-0.828125,0.1064453125
774,0.0869140625,-0.837890625,0.107421875
775,0.076171875,-0.84765625,0.1142578125
776,0.0625,-0.84765625,0.1259765625
777,0.05859375,-0.841796875,0.1416015625
778,0.0419921875,-0.8603515625,0.1416015625
779,0.025390625,-0.884765625,0.1533203125
780,0.01953125,-0.90234375,0.1787109375
781,0.0068359375,-0.9365234375,0.2001953125
782,0.0146484375,-0.951171875,0.2197265625
783,0.0087890625,-0.9697265625,0.2265625
784,-0.00390625,-0.9970703125,0.2333984375
785,-0.005859375,-1.0400390625,0.2392578125
786,-0.0244140625,-1.0615234375,0.2451171875
787,-0.029296875,-1.083984375,0.2421875
788,-0.0380859375,-1.1025390625,0.234375
789,-0.0478515625,-1.1044921875,0.228515625
790,-0.046875,-1.111328125,0.2119140625
791,-0.0458984375,-1.1064453125,0.2021484375
792,-0.0546875,-1.095703125,0.2021484375
793,-0.0615234375,-1.0908203125,0.2216796875
794,-0.0791015625,-1.076171875,0.23828125
795,-0.09375,-1.076171875,0.2568359375
796,-0.1142578125,-1.068359375,0.2685546875
797,-0.125,-1.05859375,0.287109375
798,-0.095703125,-1.07421875,0.2939453125
799,-0.0263671875,-1.0947265625,0.2275390625
800,-0.0234375,-1.1044921875,0.208984375
801,0.0703125,-1.119140625,0.2265625
802,0.169921875,-1.1240234375,0.2353515625
803,0.228515625,-1.12109375,0.2841796875
804,0.275390625,-1.1123046875,0.3388671875
805,0.3251953125,-1.10546875,0.3564453125
806,0.353515625,-1.1044921875,0.3603515625
807,0.375,-1.0859375,0.3515625
808,0.4111328125,-1.14453125,0.3310546875
809,0.59765625,-1.25390625,0.3642578125
810,0.5009765625,-1.255859375,0.4873046875
811,0.4013671875,-1.3779296875,0.1357421875
812,0.46875,-1.4287109375,-0.1806640625
813,0.517578125,-1.4912109375,-0.1669921875
814,0.4775390625,-1.5458984375,-0.017578125
815,0.4140625,-1.5888671875,0.025390625
816,0.3564453125,-1.578125,-0.05078125
817,0.2802734375,-1.5400390625,-0.134765625
818,0.2421875,-1.5009765625,-0.1728515625
819,0.2294921875,-1.455078125,-0.1416015625
820,0.1953125,-1.38671875,-0.1318359375
821,0.1640625,-1.28125,-0.23046875
822,0.154296875,-1.1669921875,-0.3515625
823,0.1640625,-1.0771484375,-0.41796875
824,0.166015625,-0.9541015625,-0.4423828125
825,0.138671875,-0.8837890625,-0.4189453125
826,0.0791015625,-0.8193359375,-0.384765625
827,-0.0009765625,-0.7685546875,-0.34765625
828,-0.0693359375,-0.748046875,-0.2724609375
829,-0.115234375,-0.7265625,-0.2626953125
830,-0.1259765625,-0.744140625,-0.24609375
831,-0.1298828125,-0.7744140625,-0.2373046875
832,-0.1416015625,-0.8330078125,-0.2197265625
833,-0.140625,-0.8798828125,-0.19140625
834,-0.115234375,-0.9365234375,-0.1591796875
835,-0.08984375,-0.9931640625,-0.123046875
836,-0.0400390625,-1.0498046875,-0.0869140625
837,0.013671875,-1.09765625,-0.0478515625
838,0.068359375,-1.119140625,-0.0322265625
839,0.1123046875,-1.1279296875,-0.029296875
840,0.16015625,-1.115234375,-0.0341796875
841,0.1884765625,-1.1005859375,-0.03515625
842,0.2138671875,-1.087890625,-0.0302734375
843,0.234375,-1.08203125,-0.02734375
844,0.25,-1.0673828125,-0.033203125
845,0.263671875,-1.041015625,-0.037109375
846,0.2744140625,-1.0185546875,-0.0341796875
847,0.2724609375,-0.9921875,-0.0283203125
848,0.2646484375,-0.9697265625,-0.037109375
849,0.25,-0.96484375,-0.029296875
850,0.2509765625,-0.96484375,-0.02734375
851,0.1982421875,-0.9580078125,-0.01171875
852,0.1611328125,-0.951171875,-0.0087890625
853,0.1357421875,-0.9501953125,0.0
854,0.1142578125,-0.9326171875,-0.01171875
855,0.087890625,-0.9111328125,-0.013671875
856,0.0771484375,-0.8818359375,-0.01953125
857,0.052734375,-0.85546875,-0.0185546875
858,0.0498046875,-0.84375,-0.0380859375
859,0.0224609375,-0.830078125,-0.037109375
860,-0.0009765625,-0.8271484375,-0.0322265625
861,-0.025390625,-0.81640625,-0.0205078125
862,-0.025390625,-0.810546875,-0.01953125
863,-0.0283203125,-0.7880859375,0.0048828125
864,-0.0380859375,-0.783203125,0.0244140625
865,-0.037109375,-0.779296875,0.0361328125
866,-0.048828125,-0.814453125,0.0302734375
867,-0.0498046875,-0.810546875,0.033203125
868,-0.060546875,-0.822265625,0.04296875
869,-0.078125,-0.8291015625,0.0634765625
870,-0.0517578125,-0.8310546875,0.0546875
871,-0.0771484375,-0.8525390625,0.0625
872,-0.0732421875,-0.84765625,0.0712890625
873,-0.0654296875,-0.857421875,0.072265625
874,-0.0625,-0.8828125,0.0791015625
875,-0.0517578125,-0.8740234375,0.0849609375
876,-0.0341796875,-0.888671875,0.1005859375
877,-0.0263671875,-0.916015625,0.0966796875
878,-0.0087890625,-0.916015625,0.103515625
879,0.0126953125,-0.9169921875,0.0986328125
880,0.0390625,-0.9326171875,0.1025390625
881,0.052734375,-0.947265625,0.1123046875
882,0.0810546875,-0.943359375,0.109375
883,0.10546875,-0.9580078125,0.12109375
884,0.125,-0.9658203125,0.1259765625
885,0.1298828125,-0.96484375,0.1318359375
886,0.1396484375,-0.9716796875,0.1455078125
887,0.1240234375,-0.9794921875,0.1376953125
888,0.111328125,-0.97265625,0.146484375
889,0.1025390625,-0.9892578125,0.1611328125
890,0.099609375,-1.0009765625,0.1591796875
891,0.1015625,-1.021484375,0.1806640625
892,0.0439453125,-1.076171875,0.193359375
893,0.044921875,-1.083984375,0.19921875
894,0.0322265625,-1.1171875,0.2060546875
895,0.0322265625,-1.12890625,0.2099609375
896,0.0146484375,-1.162109375,0.2109375
897,0.009765625,-1.15234375,0.2158203125
898,0.0078125,-1.1650390625,0.2158203125
899,0.021484375,-1.1826171875,0.21484375
900,-0.0078125,-1.19921875,0.20703125
901,0.0029296875,-1.2001953125,0.212890625
902,0.013671875,-1.203125,0.2216796875
903,0.0107421875,-1.19140625,0.228515625
904,0.0029296875,-1.1708984375,0.24609375
905,0.0087890625,-1.15625,0.2587890625
906,-0.0302734375,-1.15234375,0.294921875
907,-0.0341796875,-1.1025390625,0.298828125
908,-0.05078125,-1.0810546875,0.306640625
909,-0.0732421875,-1.0673828125,0.3251953125
910,-0.0966796875,-1.0625,0.35546875
911,-0.1181640625,-1.0546875,0.3681640625
912,-0.1533203125,-1.0419921875,0.3720703125
913,-0.1826171875,-1.0234375,0.3642578125
914,-0.2236328125,-0.9931640625,0.349609375
915,-0.2548828125,-0.9716796875,0.341796875
916,-0.2958984375,-0.9609375,0.3447265625
917,-0.3271484375,-0.966796875,0.365234375
918,-0.3603515625,-0.9892578125,0.337890625
919,-0.41015625,-1.015625,0.3037109375
920,-0.4453125,-1.0576171875,0.2490234375
921,-0.453125,-1.1123046875,0.19140625
922,-0.447265625,-1.16796875,0.12890625
923,-0.4091796875,-1.2373046875,0.0947265625
924,-0.373046875,-1.2978515625,0.0859375
925,-0.3232421875,-1.3330078125,0.08984375
926,-0.2509765625,-1.34765625,0.0791015625
927,-0.201171875,-1.328125,0.048828125
928,-0.1298828125,-1.302734375,0.01953125
929,-0.064453125,-1.275390625,-0.033203125
930,0.0048828125,-1.23828125,-0.1044921875
931,0.048828125,-1.19140625,-0.201171875
932,0.0859375,-1.15234375,-0.294921875
933,0.1015625,-1.1201171875,-0.3720703125
934,0.123046875,-1.1123046875,-0.4111328125
935,0.16015625,-1.1201171875,-0.4111328125
936,0.2001953125,-1.1259765625,-0.4091796875
937,0.22265625,-1.1328125,-0.408203125
938,0.24609375,-1.1494140625,-0.404296875
939,0.2470703125,-1.1650390625,-0.400390625
940,0.2197265625,-1.1689453125,-0.392578125
941,0.18359375,-1.1611328125,-0.3974609375
942,0.150390625,-1.1455078125,-0.38671875
943,0.11328125,-1.1201171875,-0.3779296875
944,0.0791015625,-1.1064453125,-0.3671875
945,0.0361328125,-1.09375,-0.357421875
946,0.0068359375,-1.099609375,-0.3583984375
947,-0.02734375,-1.0712890625,-0.3369140625
948,-0.05859375,-1.06640625,-0.328125
949,-0.0947265625,-1.0712890625,-0.2880859375
950,-0.1142578125,-1.080078125,-0.26953125
951,-0.1416015625,-1.087890625,-0.248046875
952,-0.162109375,-1.0986328125,-0.228515625
953,-0.1630859375,-1.1103515625,-0.205078125
954,-0.1611328125,-1.15234375,-0.126953125
955,-0.1630859375,-1.15234375,-0.1396484375
956,-0.15234375,-1.140625,-0.1279296875
957,-0.150390625,-1.1455078125,-0.130859375
958,-0.134765625,-1.12890625,-0.1181640625
959,-0.12890625,-1.119140625,-0.103515625
960,-0.1181640625,-1.1103515625,-0.099609375
961,-0.119140625,-1.1220703125,-0.0732421875
962,-0.111328125,-1.0712890625,-0.0693359375
963,-0.0859375,-1.05078125,-0.0693359375
964,-0.0556640625,-1.0390625,-0.0771484375
965,-0.06640625,-1.013671875,-0.068359375
966,-0.0732421875,-0.998046875,-0.0634765625
967,-0.0380859375,-0.95703125,-0.0654296875
968,-0.021484375,-0.9453125,-0.06640625
969,-0.005859375,-0.921875,-0.046875
970,-0.0166015625,-0.916015625,-0.03515625
971,-0.0009765625,-0.8916015625,-0.021484375
972,0.0078125,-0.8896484375,-0.0234375
973,0.005859375,-0.8662109375,-0.015625
974,0.0087890625,-0.853515625,-0.0205078125
975,-0.0068359375,-0.8564453125,-0.0283203125
976,0.0576171875,-0.8330078125,-0.03125
977,0.0869140625,-0.822265625,-0.0234375
978,0.04296875,-0.8212890625,-0.017578125
979,0.0068359375,-0.8125,0.0107421875
980,0.0068359375,-0.8388671875,0.01171875
981,0.0625,-0.8447265625,0.0234375
982,0.115234375,-0.853515625,0.0263671875
983,0.1201171875,-0.8642578125,0.048828125
984,0.1240234375,-0.8603515625,0.0693359375
985,0.126953125,-0.8603515625,0.083984375
986,0.1201171875,-0.8583984375,0.08984375
987,0.091796875,-0.841796875,0.09375
988,0.1357421875,-0.8583984375,0.0595703125
989,0.10546875,-0.837890625,0.0830078125
990,0.0888671875,-0.828125,0.09375
991,0.0703125,-0.828125,0.0986328125
992,0.0556640625,-0.8203125,0.1142578125
993,0.0,-0.8671875,0.1103515625
994,0.013671875,-0.8544921875,0.1201171875
995,-0.0087890625,-0.8369140625,0.15234375
996,-0.017578125,-0.826171875,0.158203125
997,-0.013671875,-0.8046875,0.1669921875
998,-0.009765625,-0.7890625,0.16796875
999,-0.0146484375,-0.767578125,0.1669921875
1000,-0.0126953125,-0.751953125,0.162109375
1001,0.0166015625,-0.73046875,0.15625
1002,0.0126953125,-0.7158203125,0.15234375
1003,0.0068359375,-0.7080078125,0.1484375
1004,0.0341796875,-0.6904296875,0.14453125
1005,0.0419921875,-0.7021484375,0.138671875
1006,0.01953125,-0.712890625,0.1396484375
1007,0.0478515625,-0.72265625,0.1435546875
1008,0.046875,-0.7587890625,0.150390625
1009,0.0498046875,-0.8212890625,0.162109375
1010,0.0556640625,-0.841796875,0.18359375
1011,0.04296875,-0.8935546875,0.2041015625
1012,0.0361328125,-0.939453125,0.2236328125
1013,0.0263671875,-0.9453125,0.23046875
1014,0.0244140625,-0.9765625,0.2421875
1015,0.0400390625,-0.98828125,0.24609375
1016,0.0556640625,-0.9990234375,0.25
1017,0.0751953125,-1.0,0.259765625
1018,0.1103515625,-0.9951171875,0.271484375
1019,0.1201171875,-1.0078125,0.294921875
1020,0.1611328125,-1.0390625,0.3017578125
1021,0.1748046875,-1.0517578125,0.2919921875
1022,0.177734375,-1.0478515625,0.27734375
1023,0.1767578125,-1.04296875,0.263671875
1024,0.16796875,-1.046875,0.24609375
1025,0.162109375,-1.05859375,0.2412109375
1026,0.16015625,-1.0751953125,0.2353515625
1027,0.1611328125,-1.072265625,0.25390625
1028,0.1806640625,-1.08984375,0.2724609375
1029,0.1962890625,-1.1005859375,0.2919921875
1030,0.21875,-1.115234375,0.2880859375
1031,0.2587890625,-1.11328125,0.279296875
1032,0.3212890625,-1.13671875,0.287109375
1033,0.37890625,-1.1767578125,0.2412109375
1034,0.4638671875,-1.2255859375,0.185546875
1035,0.5244140625,-1.296875,0.1328125
1036,0.5419921875,-1.375,0.07421875
1037,0.53515625,-1.4560546875,0.0068359375
1038,0.494140625,-1.5341796875,-0.048828125
1039,0.4365234375,-1.58984375,-0.0791015625
1040,0.3818359375,-1.6123046875,-0.044921875
1041,0.3349609375,-1.6005859375,0.017578125
1042,0.2978515625,-1.564453125,0.0625
1043,0.2431640625,-1.515625,0.060546875
1044,0.185546875,-1.4423828125,0.0048828125
1045,0.1220703125,-1.37890625,-0.0546875
1046,0.0771484375,-1.31640625,-0.1123046875
1047,0.041015625,-1.2744140625,-0.1455078125
1048,0.013671875,-1.21484375,-0.16796875
1049,-0.005859375,-1.162109375,-0.1748046875
1050,-0.021484375,-1.111328125,-0.201171875
1051,-0.02734375,-1.056640625,-0.2236328125
1052,-0.02734375,-0.9951171875,-0.25390625
1053,-0.03125,-0.9462890625,-0.2607421875
1054,-0.0537109375,-0.9140625,-0.2509765625
1055,-0.072265625,-0.89453125,-0.228515625
1056,-0.0771484375,-0.8876953125,-0.1845703125
1057,-0.0810546875,-0.8642578125,-0.1787109375
1058,-0.080078125,-0.853515625,-0.1728515625
1059,-0.0673828125,-0.84375,-0.1630859375
1060,-0.033203125,-0.8427734375,-0.1552734375
1061,-0.0146484375,-0.8466796875,-0.1494140625
1062,0.0185546875,-0.857421875,-0.138671875
1063,0.0712890625,-0.8681640625,-0.14453125
1064,0.1240234375,-0.876953125,-0.1416015625
1065,0.166015625,-0.890625,-0.1240234375
1066,0.1962890625,-0.9072265625,-0.1044921875
1067,0.21875,-0.9208984375,-0.0908203125
1068,0.234375,-0.943359375,-0.0810546875
1069,0.234375,-0.95703125,-0.0703125
1070,0.2333984375,-0.98046875,-0.068359375
1071,0.23828125,-0.9765625,-0.068359375
1072,0.240234375,-0.986328125,-0.0595703125
1073,0.2529296875,-0.9931640625,-0.056640625
1074,0.263671875,-0.990234375,-0.0703125
1075,0.2509765625,-0.9833984375,-0.0859375
1076,0.244140625,-0.984375,-0.0771484375
1077,0.2392578125,-1.001953125,-0.083984375
1078,0.2373046875,-1.033203125,-0.080078125
1079,0.228515625,-1.0341796875,-0.0693359375
1080,0.228515625,-1.029296875,-0.0693359375
1081,0.2197265625,-1.0361328125,-0.0517578125
1082,0.2119140625,-1.033203125,-0.0439453125
1083,0.201171875,-1.0322265625,-0.033203125
1084,0.1953125,-1.013671875,-0.0302734375
1085,0.1728515625,-0.990234375,-0.0244140625
1086,0.1572265625,-0.9794921875,-0.0126953125
1087,0.1416015625,-0.96484375,-0.0146484375
1088,0.123046875,-0.9560546875,-0.0166015625
1089,0.0859375,-0.9482421875,-0.0185546875
1090,0.0771484375,-0.94140625,-0.015625
1091,0.037109375,-0.9443359375,-0.0146484375
1092,0.015625,-0.9375,-0.017578125
1093,-0.00390625,-0.93359375,-0.0234375
1094,-0.04296875,-0.931640625,-0.0283203125
1095,-0.0634765625,-0.912109375,-0.0234375
1096,-0.064453125,-0.9072265625,-0.0302734375
1097,-0.046875,-0.9189453125,-0.0322265625
1098,-0.0751953125,-0.904296875,-0.013671875
1099,-0.111328125,-0.9169921875,-0.0068359375
1100,-0.09765625,-0.904296875,0.013671875
1101,-0.076171875,-0.8759765625,0.0009765625
1102,-0.0888671875,-0.8916015625,0.01171875
1103,-0.0888671875,-0.89453125,0.0322265625
1104,-0.078125,-0.908203125,0.0478515625
1105,-0.064453125,-0.919921875,0.0576171875
1106,-0.0498046875,-0.9306640625,0.0751953125
1107,-0.0341796875,-0.92578125,0.080078125
1108,-0.021484375,-0.9345703125,0.0888671875
1109,-0.0166015625,-0.927734375,0.103515625
1110,0.01171875,-0.927734375,0.10546875
1111,0.0126953125,-0.91796875,0.109375
1112,0.0126953125,-0.9296875,0.1044921875
1113,0.017578125,-0.9140625,0.1005859375
1114,0.0185546875,-0.908203125,0.1025390625
1115,0.0244140625,-0.9013671875,0.0966796875
1116,0.01953125,-0.900390625,0.091796875
1117,0.005859375,-0.8974609375,0.1015625
1118,0.0,-0.892578125,0.1103515625
1119,-0.00390625,-0.8984375,0.1201171875
1120,-0.0107421875,-0.9072265625,0.1337890625
1121,-0.0244140625,-0.9169921875,0.146484375
1122,-0.0166015625,-0.91796875,0.1533203125
1123,-0.0615234375,-0.9541015625,0.1689453125
1124,-0.064453125,-0.9638671875,0.169921875
1125,-0.072265625,-0.9765625,0.1708984375
1126,-0.078125,-0.990234375,0.1806640625
1127,-0.08203125,-1.00390625,0.1845703125
1128,-0.0654296875,-1.0078125,0.189453125
1129,-0.0927734375,-1.0341796875,0.189453125
1130,-0.0859375,-1.01953125,0.1943359375
1131,-0.060546875,-1.0048828125,0.1923828125
1132,-0.05859375,-0.9833984375,0.1943359375
1133,-0.0400390625,-0.9873046875,0.1884765625
1134,-0.0341796875,-0.9609375,0.1875
1135,0.0087890625,-0.9521484375,0.185546875
1136,0.0322265625,-0.9453125,0.177734375
1137,0.0751953125,-0.931640625,0.173828125
1138,0.0732421875,-0.9404296875,0.1904296875
1139,0.091796875,-0.9501953125,0.197265625
1140,0.0888671875,-0.94921875,0.208984375
1141,0.0673828125,-0.9755859375,0.25
1142,0.056640625,-0.9755859375,0.265625
1143,0.0302734375,-0.9912109375,0.296875
1144,0.0185546875,-1.0029296875,0.318359375
1145,-0.001953125,-1.005859375,0.3212890625
1146,-0.03125,-1.0048828125,0.3388671875
1147,-0.064453125,-1.0029296875,0.34765625
1148,-0.1181640625,-0.9990234375,0.3544921875
1149,-0.1650390625,-0.9990234375,0.3642578125
1150,-0.205078125,-0.9853515625,0.3515625
1151,-0.234375,-0.9951171875,0.341796875
1152,-0.26171875,-0.9892578125,0.326171875
1153,-0.28515625,-0.998046875,0.3076171875
1154,-0.3173828125,-1.033203125,0.2861328125
1155,-0.341796875,-1.06640625,0.248046875
1156,-0.3388671875,-1.107421875,0.1953125
1157,-0.3359375,-1.15234375,0.103515625
1158,-0.3330078125,-1.203125,0.001953125
1159,-0.33203125,-1.2470703125,-0.0830078125
1160,-0.3447265625,-1.287109375,-0.173828125
1161,-0.3427734375,-1.337890625,-0.1943359375
1162,-0.330078125,-1.3623046875,-0.234375
1163,-0.3076171875,-1.3515625,-0.259765625
1164,-0.275390625,-1.3193359375,-0.2822265625
1165,-0.2353515625,-1.2861328125,-0.294921875
1166,-0.2001953125,-1.244140625,-0.2919921875
1167,-0.16796875,-1.203125,-0.2900390625
1168,-0.1455078125,-1.15234375,-0.2822265625
1169,-0.1142578125,-1.1044921875,-0.283203125
1170,-0.0888671875,-1.044921875,-0.279296875
1171,-0.060546875,-0.990234375,-0.2705078125
1172,-0.0390625,-0.9443359375,-0.25390625
1173,-0.021484375,-0.90625,-0.2392578125
1174,-0.001953125,-0.8720703125,-0.228515625
1175,0.0107421875,-0.859375,-0.2275390625
1176,0.0185546875,-0.859375,-0.216796875
1177,0.00390625,-0.8603515625,-0.224609375
1178,-0.009765625,-0.87890625,-0.2216796875
1179,-0.041015625,-0.890625,-0.232421875
1180,-0.072265625,-0.921875,-0.224609375
1181,-0.111328125,-0.939453125,-0.21484375
1182,-0.140625,-0.966796875,-0.2041015625
1183,-0.1767578125,-0.998046875,-0.1396484375
1184,-0.1982421875,-1.0087890625,-0.14453125
1185,-0.21875,-1.0185546875,-0.1435546875
1186,-0.2470703125,-1.029296875,-0.1259765625
1187,-0.25,-0.978515625,-0.119140625
1188,-0.26953125,-0.9609375,-0.111328125
1189,-0.27734375,-0.951171875,-0.0966796875
1190,-0.279296875,-0.9404296875,-0.1044921875
1191,-0.2744140625,-0.9326171875,-0.1083984375
1192,-0.2783203125,-0.9365234375,-0.107421875
1193,-0.26953125,-0.9423828125,-0.111328125
1194,-0.208984375,-0.943359375,-0.107421875
1195,-0.189453125,-0.9462890625,-0.1015625
1196,-0.107421875,-0.96875,-0.1025390625
1197,-0.12109375,-0.9833984375,-0.1015625
1198,-0.162109375,-0.9833984375,-0.1162109375
1199,-0.1455078125,-0.951171875,-0.1259765625
1200,-0.1240234375,-0.9599609375,-0.130859375
1201,-0.1181640625,-0.927734375,-0.1455078125
1202,-0.091796875,-0.884765625,-0.1787109375
1203,-0.0830078125,-0.876953125,-0.2060546875
1204,0.017578125,-0.8798828125,-0.1953125
1205,-0.03515625,-0.859375,-0.1826171875
1206,-0.0126953125,-0.8447265625,-0.19140625
1207,0.0068359375,-0.8291015625,-0.1845703125
1208,0.0263671875,-0.8212890625,-0.1630859375
1209,0.048828125,-0.7998046875,-0.150390625
1210,0.0859375,-0.802734375,-0.1357421875
1211,0.1162109375,-0.8046875,-0.1240234375
1212,0.1376953125,-0.7958984375,-0.1201171875
1213,0.142578125,-0.76953125,-0.119140625
1214,0.140625,-0.7646484375,-0.115234375
1215,0.1435546875,-0.748046875,-0.1064453125
1216,0.134765625,-0.73828125,-0.1015625
1217,0.138671875,-0.7109375,-0.10546875
1218,0.1279296875,-0.68359375,-0.107421875
1219,0.1181640625,-0.642578125,-0.1201171875
1220,0.1181640625,-0.6201171875,-0.126953125
1221,0.095703125,-0.6015625,-0.1259765625
1222,0.0908203125,-0.5908203125,-0.10546875
1223,0.1025390625,-0.5888671875,-0.083984375
1224,0.1142578125,-0.5888671875,-0.0556640625
1225,0.1474609375,-0.58203125,-0.048828125
1226,0.1748046875,-0.5771484375,-0.04296875
1227,0.19140625,-0.583984375,-0.0400390625
1228,0.2021484375,-0.587890625,-0.0341796875
1229,0.2060546875,-0.5966796875,-0.021484375
1230,0.1953125,-0.6162109375,-0.005859375
1231,0.181640625,-0.62109375,0.0048828125
1232,0.1572265625,-0.6162109375,0.0
1233,0.142578125,-0.5986328125,-0.0185546875
1234,0.1318359375,-0.580078125,-0.0458984375
1235,0.1220703125,-0.564453125,-0.0576171875
1236,0.1044921875,-0.5537109375,-0.0673828125
1237,0.1025390625,-0.541015625,-0.0888671875
1238,0.0966796875,-0.5361328125,-0.119140625
1239,0.115234375,-0.5078125,-0.1328125
1240,0.1171875,-0.474609375,-0.1435546875
1241,0.1240234375,-0.44921875,-0.1533203125
1242,0.140625,-0.431640625,-0.17578125
1243,0.166015625,-0.431640625,-0.181640625
1244,0.1865234375,-0.4375,-0.189453125
1245,0.20703125,-0.4443359375,-0.18359375
1246,0.2275390625,-0.4404296875,-0.17578125
1247,0.2587890625,-0.4375,-0.17578125
1248,0.291015625,-0.41796875,-0.16796875
1249,0.318359375,-0.421875,-0.1494140625
1250,0.3310546875,-0.4189453125,-0.1328125
1251,0.33203125,-0.39453125,-0.1376953125
1252,0.3232421875,-0.3974609375,-0.14453125
1253,0.314453125,-0.4072265625,-0.1484375
1254,0.306640625,-0.4072265625,-0.138671875
1255,0.3076171875,-0.41015625,-0.1123046875
1256,0.3203125,-0.408203125,-0.10546875
1257,0.3447265625,-0.39453125,-0.109375
1258,0.3828125,-0.3828125,-0.126953125
1259,0.455078125,-0.373046875,-0.1376953125
1260,0.513671875,-0.361328125,-0.142578125
1261,0.5625,-0.359375,-0.1689453125
1262,0.552734375,-0.373046875,-0.1787109375
1263,0.517578125,-0.4130859375,-0.1826171875
1264,0.4638671875,-0.4453125,-0.212890625
1265,0.3818359375,-0.4794921875,-0.1875
1266,0.31640625,-0.5546875,-0.0751953125
1267,0.2880859375,-0.630859375,-0.017578125
1268,0.2822265625,-0.7216796875,0.044921875
1269,0.2939453125,-0.7685546875,0.0546875
1270,0.318359375,-0.806640625,0.0712890625
1271,0.384765625,-0.8525390625,0.0830078125
1272,0.4736328125,-0.8896484375,0.095703125
1273,0.54296875,-0.892578125,0.0947265625
1274,0.5849609375,-0.8642578125,0.06640625
1275,0.607421875,-0.7861328125,-0.0439453125
1276,0.57421875,-0.689453125,-0.1826171875
1277,0.5478515625,-0.5869140625,-0.3154296875
1278,0.4736328125,-0.5224609375,-0.3408203125
1279,0.40234375,-0.5283203125,-0.3466796875
1280,0.337890625,-0.5869140625,-0.3193359375
1281,0.2666015625,-0.681640625,-0.25390625
1282,0.1591796875,-0.7705078125,-0.1640625
1283,0.1064453125,-0.9013671875,-0.1064453125
1284,0.0205078125,-1.0537109375,-0.078125
1285,-0.1103515625,-1.1181640625,-0.0810546875
1286,-0.2265625,-1.1767578125,-0.083984375
1287,-0.34765625,-1.1923828125,-0.0966796875
1288,-0.4365234375,-1.2021484375,-0.1298828125
1289,-0.4189453125,-1.3173828125,-0.2080078125
1290,-0.462890625,-1.1875,-0.1650390625
1291,-0.4228515625,-1.1220703125,-0.201171875
1292,-0.404296875,-1.0634765625,-0.1884765625
1293,-0.462890625,-0.7314453125,-0.056640625
1294,-0.3427734375,-1.0283203125,-0.302734375
1295,-0.330078125,-1.005859375,-0.3603515625
1296,-0.341796875,-0.8583984375,-0.3583984375
1297,-0.373046875,-0.8076171875,-0.41015625
1298,-0.40234375,-0.9462890625,-0.4814453125
1299,-0.4462890625,-1.076171875,-0.619140625
1300,-0.4345703125,-1.203125,-0.677734375
1301,-0.4521484375,-1.1572265625,-0.576171875
1302,-0.4072265625,-1.4677734375,-0.6982421875
1303,-0.40234375,-1.6044921875,-0.568359375
1304,-0.4423828125,-1.78125,-0.490234375
1305,-0.494140625,-1.837890625,-0.3623046875
1306,-0.5654296875,-1.7138671875,-0.201171875
1307,-0.662109375,-1.5751953125,0.0087890625
1308,-0.7646484375,-1.4765625,0.1533203125
1309,-0.8291015625,-1.451171875,0.1552734375
1310,-0.80078125,-1.09765625,0.2236328125
1311,-0.705078125,-0.6005859375,0.177734375
1312,-0.6416015625,-0.6064453125,0.1611328125
1313,-0.599609375,-0.6171875,0.2373046875
1314,-0.66796875,-0.6240234375,0.267578125
1315,-0.78125,-0.6416015625,0.3681640625
1316,-0.9052734375,-1.185546875,0.4365234375
1317,-0.7080078125,-1.15234375,0.3671875
1318,-1.0263671875,-1.0859375,0.4375
1319,-1.3037109375,-1.1875,0.5625
1320,-1.583984375,-1.2470703125,0.5673828125
1321,-1.9150390625,-1.3134765625,0.62890625
1322,-2.2666015625,-1.5458984375,0.7001953125
1323,-2.634765625,-1.890625,0.7646484375
1324,-3.1513671875,-2.2490234375,0.853515625
1325,-3.6025390625,-2.5849609375,0.9296875
1326,-4.0283203125,-2.8935546875,0.96484375
1327,-4.1767578125,-3.109375,0.859375
1328,-4.1767578125,-3.115234375,0.6044921875
1329,-3.775390625,-2.716796875,0.28125
1330,-2.5986328125,-2.2392578125,0.4873046875
1331,-1.57421875,-1.802734375,0.5703125
1332,-0.8310546875,-1.5341796875,0.5078125
1333,-0.3154296875,-1.234375,0.4443359375
1334,0.015625,-0.86328125,0.482421875
1335,0.203125,-0.498046875,0.5390625
1336,0.130859375,-0.1806640625,0.560546875
1337,-0.1328125,0.0693359375,0.6416015625
1338,-0.3876953125,0.08984375,0.76171875
1339,-0.5830078125,-0.0390625,0.857421875
1340,-0.7734375,-0.259765625,0.7568359375
1341,-0.740234375,-0.4521484375,0.6083984375
1342,-0.751953125,-0.599609375,0.4189453125
1343,-0.677734375,-0.71484375,0.3212890625
1344,-0.68359375,-0.7998046875,0.345703125
1345,-0.6201171875,-0.8701171875,0.3876953125
1346,-0.6240234375,-0.900390625,0.3671875
1347,-0.5244140625,-0.84375,0.345703125
1348,-0.505859375,-0.716796875,0.3212890625
1349,-0.412109375,-0.53515625,0.30859375
1350,-0.341796875,-0.3251953125,0.3076171875
1351,-0.37890625,-0.130859375,0.3369140625
1352,-0.33203125,-0.0244140625,0.34765625
1353,-0.3994140625,-0.05078125,0.34375
1354,-0.318359375,-0.1494140625,0.3212890625
1355,-0.1884765625,-0.126953125,0.134765625
1356,-0.2041015625,-0.1025390625,0.0751953125
1357,-0.287109375,-0.1044921875,0.1064453125
1358,-0.35546875,-0.099609375,0.169921875
1359,-0.3564453125,-0.10546875,0.2177734375
1360,-0.4033203125,-0.1318359375,0.232421875
1361,-0.671875,-0.091796875,0.3505859375
1362,-0.556640625,-0.103515625,0.4130859375
1363,-0.5478515625,-0.0556640625,0.3427734375
1364,-0.5556640625,-0.0322265625,0.3876953125
1365,-0.53515625,-0.0078125,0.42578125
1366,-0.6474609375,0.0849609375,0.498046875
1367,-0.787109375,0.1650390625,0.5732421875
1368,-0.818359375,0.2119140625,0.5625
1369,-0.8779296875,0.29296875,0.4931640625
1370,-0.9697265625,0.361328125,0.48828125
1371,-1.0185546875,0.3974609375,0.453125
1372,-1.0830078125,0.3896484375,0.4892578125
1373,-1.2890625,0.4296875,0.5498046875
1374,-1.3349609375,0.4306640625,0.568359375
1375,-1.3984375,0.4775390625,0.5
1376,-1.40234375,0.4677734375,0.435546875
1377,-1.3779296875,0.498046875,0.423828125
1378,-1.38671875,0.4853515625,0.470703125
1379,-1.3603515625,0.48828125,0.42578125
1380,-1.3359375,0.498046875,0.44140625
1381,-1.2607421875,0.4736328125,0.4873046875
1382,-1.2763671875,0.521484375,0.4755859375
1383,-1.26171875,0.51171875,0.4208984375
1384,-1.2392578125,0.50390625,0.2587890625
1385,-1.2021484375,0.564453125,0.087890625
1386,-1.2421875,0.7314453125,0.0576171875
1387,-1.2978515625,0.8955078125,0.0849609375
1388,-1.4111328125,1.029296875,0.13671875
1389,-1.435546875,1.0986328125,0.201171875
1390,-1.5048828125,1.078125,0.2158203125
1391,-1.4375,0.9912109375,0.1953125
1392,-1.3642578125,0.8349609375,0.20703125
1393,-1.26953125,0.7646484375,0.20703125
1394,-1.169921875,0.69921875,0.15625
1395,-1.015625,0.6015625,0.322265625
1396,-0.943359375,0.49609375,0.46484375
1397,-0.8134765625,0.408203125,0.529296875
1398,-0.689453125,0.3701171875,0.5654296875
1399,-0.505859375,0.35546875,0.5
1400,-0.3642578125,0.3662109375,0.421875
1401,-0.271484375,0.3828125,0.3173828125
1402,-0.1962890625,0.3759765625,0.2470703125
1403,-0.1005859375,0.3603515625,0.220703125
1404,-0.0439453125,0.3623046875,0.2060546875
1405,-0.013671875,0.3759765625,0.1826171875
1406,-0.0126953125,0.384765625,0.1748046875
1407,-0.0546875,0.3984375,0.2001953125
1408,-0.1201171875,0.4208984375,0.236328125
1409,-0.1923828125,0.4111328125,0.2861328125
1410,-0.2783203125,0.4150390625,0.3251953125
1411,-0.3291015625,0.396484375,0.33203125
1412,-0.4130859375,0.3994140625,0.3505859375
1413,-0.4921875,0.41015625,0.3798828125
1414,-0.525390625,0.4306640625,0.4052734375
1415,-0.5400390625,0.45703125,0.4345703125
1416,-0.5654296875,0.4755859375,0.4150390625
1417,-0.5908203125,0.55078125,0.4228515625
1418,-0.654296875,0.595703125,0.384765625
1419,-0.671875,0.646484375,0.3544921875
1420,-0.7216796875,0.685546875,0.3330078125
1421,-0.791015625,0.7041015625,0.3330078125
1422,-0.8310546875,0.6982421875,0.3466796875
1423,-0.8544921875,0.6826171875,0.34375
1424,-0.8876953125,0.65234375,0.34765625
1425,-0.8955078125,0.6455078125,0.3681640625
1426,-0.951171875,0.6162109375,0.412109375
1427,-0.974609375,0.615234375,0.47265625
1428,-1.001953125,0.6123046875,0.5009765625
1429,-1.0146484375,0.603515625,0.4970703125
1430,-1.015625,0.599609375,0.4990234375
1431,-0.97265625,0.568359375,0.49609375
1432,-0.9638671875,0.529296875,0.5048828125
1433,-0.9404296875,0.515625,0.5029296875
1434,-0.9248046875,0.47265625,0.4794921875
1435,-0.8994140625,0.47265625,0.47265625
1436,-0.859375,0.435546875,0.4423828125
1437,-0.8310546875,0.408203125,0.41015625
1438,-0.7998046875,0.388671875,0.396484375
1439,-0.810546875,0.3525390625,0.3984375
1440,-0.8662109375,0.33203125,0.4248046875
1441,-0.8876953125,0.2841796875,0.45703125
1442,-0.88671875,0.2548828125,0.4697265625
1443,-0.9111328125,0.2216796875,0.4755859375
1444,-0.9111328125,0.19140625,0.4931640625
1445,-0.9189453125,0.1728515625,0.5029296875
1446,-0.9404296875,0.1533203125,0.51953125
1447,-0.94140625,0.150390625,0.5205078125
1448,-0.9296875,0.1591796875,0.5029296875
1449,-0.927734375,0.158203125,0.4892578125
1450,-0.90625,0.162109375,0.4833984375
1451,-0.8828125,0.166015625,0.46875
1452,-0.8740234375,0.1552734375,0.4462890625
1453,-0.8466796875,0.1552734375,0.4150390625
1454,-0.841796875,0.140625,0.3984375
1455,-0.8212890625,0.130859375,0.3857421875
1456,-0.8349609375,0.1201171875,0.3857421875
1457,-0.7998046875,0.1044921875,0.39453125
1458,-0.796875,0.103515625,0.3916015625
1459,-0.810546875,0.095703125,0.4228515625
1460,-0.8232421875,0.0986328125,0.419921875
1461,-0.84375,0.0810546875,0.427734375
1462,-0.8505859375,0.0654296875,0.4404296875
1463,-0.859375,0.05859375,0.41796875
1464,-0.8740234375,0.05859375,0.4208984375
1465,-0.8798828125,0.0400390625,0.419921875
1466,-0.8701171875,0.0087890625,0.4169921875
1467,-0.87890625,-0.033203125,0.4267578125
1468,-0.87109375,-0.0576171875,0.4189453125
1469,-0.80859375,-0.048828125,0.4091796875
1470,-0.7998046875,0.0771484375,0.4248046875
1471,-0.875,0.162109375,0.3505859375
1472,-0.896484375,0.115234375,0.1884765625
1473,-0.96875,0.244140625,0.212890625
1474,-0.9658203125,0.1455078125,0.1650390625
1475,-0.9521484375,0.0498046875,0.234375
1476,-0.96484375,-0.0751953125,0.3427734375
1477,-0.974609375,-0.1552734375,0.419921875
1478,-0.9921875,-0.2109375,0.4609375
1479,-1.005859375,-0.2177734375,0.4755859375
1480,-1.01171875,-0.1826171875,0.4599609375
1481,-1.0146484375,-0.1416015625,0.419921875
1482,-0.9990234375,-0.0966796875,0.3857421875
1483,-0.9833984375,-0.0478515625,0.349609375
1484,-0.9638671875,-0.029296875,0.3076171875
1485,-0.962890625,0.0,0.322265625
1486,-0.9951171875,0.0224609375,0.3271484375
1487,-0.966796875,0.00390625,0.330078125
1488,-0.9443359375,-0.021484375,0.3369140625
1489,-0.9208984375,-0.04296875,0.3466796875
1490,-0.9228515625,-0.072265625,0.34375
1491,-0.91015625,-0.0791015625,0.345703125
1492,-0.9189453125,-0.09765625,0.3701171875
1493,-0.912109375,-0.0966796875,0.3671875
1494,-0.9072265625,-0.0947265625,0.353515625
1495,-0.908203125,-0.091796875,0.349609375
1496,-0.900390625,-0.0927734375,0.3359375
1497,-0.89453125,-0.099609375,0.3203125
1498,-0.90234375,-0.109375,0.3203125
1499,-0.9189453125,-0.0869140625,0.322265625
1500,-0.9130859375,-0.1083984375,0.3095703125
1501,-0.904296875,-0.1083984375,0.3125
1502,-0.9033203125,-0.111328125,0.3173828125
1503,-0.9091796875,-0.1005859375,0.3095703125
1504,-0.9189453125,-0.0859375,0.30859375
1505,-0.9140625,-0.0537109375,0.2958984375
1506,-0.9248046875,-0.044921875,0.287109375
1507,-0.927734375,-0.0185546875,0.2783203125
1508,-0.943359375,-0.0048828125,0.2734375
1509,-0.947265625,0.013671875,0.267578125
1510,-0.9619140625,0.029296875,0.251953125
1511,-0.96875,0.0400390625,0.248046875
1512,-0.9736328125,0.0400390625,0.244140625
1513,-0.9814453125,0.0322265625,0.234375
1514,-0.9775390625,0.01171875,0.2333984375
1515,-0.9765625,0.0166015625,0.228515625
1516,-0.9765625,0.01171875,0.224609375
1517,-0.970703125,0.01171875,0.2294921875
1518,-0.9609375,0.0078125,0.2373046875
1519,-0.9443359375,0.0,0.2412109375
1520,-0.93359375,-0.001953125,0.2607421875
1521,-0.9267578125,0.0107421875,0.2685546875
1522,-0.921875,0.0,0.279296875
1523,-0.91796875,0.00390625,0.3056640625
1524,-0.9091796875,0.029296875,0.31640625
1525,-0.921875,0.0205078125,0.337890625
1526,-0.9169921875,0.0361328125,0.33984375
1527,-0.921875,0.0458984375,0.3388671875
1528,-0.9150390625,0.0634765625,0.3388671875
1529,-0.9150390625,0.080078125,0.3388671875
1530,-0.923828125,0.0849609375,0.3427734375
1531,-0.8974609375,0.09375,0.3466796875
1532,-0.8837890625,0.05859375,0.3583984375
1533,-0.7880859375,0.005859375,0.3115234375
1534,-0.3115234375,-0.2958984375,0.2568359375
1535,-0.48828125,-0.359375,0.302734375
1536,-1.01171875,0.0498046875,0.3798828125
1537,-1.3115234375,0.119140625,0.490234375
1538,-1.220703125,0.244140625,0.5654296875
1539,-1.0888671875,0.3583984375,0.484375
1540,-1.1181640625,0.4658203125,0.46875
1541,-1.0341796875,0.4580078125,0.3779296875
1542,-1.013671875,0.4267578125,0.314453125
1543,-0.9990234375,0.3662109375,0.2958984375
1544,-0.9775390625,0.2998046875,0.294921875
1545,-0.9970703125,0.25,0.2998046875
1546,-0.9716796875,0.201171875,0.3017578125
1547,-0.966796875,0.16796875,0.291015625
1548,-0.9560546875,0.154296875,0.2890625
1549,-0.9482421875,0.1328125,0.294921875
1550,-0.9384765625,0.1240234375,0.3017578125
1551,-0.9365234375,0.123046875,0.3056640625
1552,-0.9296875,0.1337890625,0.3115234375
1553,-0.9150390625,0.1337890625,0.31640625
1554,-0.9111328125,0.138671875,0.314453125
1555,-0.90234375,0.1396484375,0.3193359375
1556,-0.90234375,0.1357421875,0.33203125
1557,-0.900390625,0.130859375,0.37890625
1558,-0.9072265625,0.130859375,0.357421875
1559,-0.8984375,0.12109375,0.3701171875
1560,-0.9072265625,0.1318359375,0.388671875
1561,-0.8837890625,0.09765625,0.373046875
1562,-0.888671875,0.091796875,0.3828125
1563,-0.8857421875,0.0947265625,0.3642578125
1564,-0.8876953125,0.1044921875,0.359375
1565,-0.91015625,0.1552734375,0.33984375
1566,-0.9072265625,0.1513671875,0.3662109375
1567,-0.8974609375,0.1455078125,0.3671875
1568,-0.888671875,0.126953125,0.3857421875
1569,-0.8857421875,0.1298828125,0.4033203125
1570,-0.8662109375,0.07421875,0.4296875
1571,-0.857421875,0.0244140625,0.42578125
1572,-0.8759765625,0.068359375,0.4189453125
1573,-0.873046875,0.0693359375,0.4150390625
1574,-0.8798828125,0.099609375,0.4208984375
1575,-0.888671875,0.1044921875,0.4345703125
1576,-0.87890625,0.09375,0.4345703125
1577,-0.8740234375,0.1083984375,0.44140625
1578,-0.875,0.095703125,0.4404296875
1579,-0.8876953125,0.09765625,0.44921875
1580,-0.8701171875,0.0986328125,0.44140625
1581,-0.8720703125,0.103515625,0.453125
1582,-0.8720703125,0.0966796875,0.45703125
1583,-0.861328125,0.0908203125,0.45703125
1584,-0.8623046875,0.087890625,0.455078125
1585,-0.8603515625,0.087890625,0.4599609375
1586,-0.86328125,0.0859375,0.458984375
1587,-0.8642578125,0.0869140625,0.4580078125
1588,-0.861328125,0.0859375,0.4609375
1589,-0.8544921875,0.08203125,0.4580078125
1590,-0.8525390625,0.0791015625,0.455078125
1591,-0.857421875,0.0859375,0.45703125
1592,-0.8544921875,0.083984375,0.4638671875
1593,-0.8544921875,0.0791015625,0.4619140625
1594,-0.84765625,0.0791015625,0.466796875
1595,-0.845703125,0.078125,0.4609375
1596,-0.8447265625,0.078125,0.4619140625
1597,-0.8427734375,0.0810546875,0.4716796875
1598,-0.841796875,0.08203125,0.46484375
1599,-0.8359375,0.08203125,0.4638671875
1600,-0.8359375,0.083984375,0.466796875
1601,-0.8388671875,0.0908203125,0.466796875
1602,-0.8388671875,0.087890625,0.46875
1603,-0.84375,0.078125,0.478515625
1604,-0.8388671875,0.0751953125,0.484375
1605,-0.8359375,0.0517578125,0.4853515625
1606,-0.8388671875,0.0654296875,0.5029296875
1607,-0.8388671875,0.0615234375,0.5029296875
1608,-0.8359375,0.0498046875,0.505859375
1609,-0.84375,0.0537109375,0.5068359375
1610,-0.8359375,0.0654296875,0.501953125
1611,-0.83984375,0.072265625,0.494140625
1612,-0.84375,0.078125,0.486328125
1613,-0.841796875,0.080078125,0.478515625
1614,-0.8466796875,0.0849609375,0.4794921875
1615,-0.845703125,0.0908203125,0.4775390625
1616,-0.8447265625,0.095703125,0.478515625
1617,-0.8408203125,0.08984375,0.4775390625
1618,-0.8349609375,0.099609375,0.484375
1619,-0.8408203125,0.0986328125,0.4775390625
1620,-0.845703125,0.08984375,0.484375
1621,-0.8427734375,0.0947265625,0.486328125
1622,-0.8427734375,0.0947265625,0.4833984375
1623,-0.841796875,0.099609375,0.486328125
1624,-0.845703125,0.099609375,0.484375
1625,-0.8447265625,0.103515625,0.482421875
1626,-0.8427734375,0.1142578125,0.4755859375
1627,-0.86328125,0.1337890625,0.4853515625
1628,-0.853515625,0.12109375,0.4677734375
1629,-0.853515625,0.11328125,0.4775390625
1630,-0.861328125,0.1083984375,0.470703125
1631,-0.8544921875,0.1103515625,0.4599609375
1632,-0.8603515625,0.1142578125,0.4716796875
1633,-0.8486328125,0.0869140625,0.4755859375
1634,-0.857421875,0.1005859375,0.455078125
1635,-0.8662109375,0.1220703125,0.4482421875
1636,-0.8583984375,0.1064453125,0.4580078125
1637,-0.859375,0.1015625,0.4619140625
1638,-0.8642578125,0.09765625,0.4580078125
1639,-0.8583984375,0.1171875,0.443359375
1640,-0.869140625,0.1171875,0.4541015625
1641,-0.8720703125,0.11328125,0.4560546875
1642,-0.869140625,0.1181640625,0.4560546875
1643,-0.8681640625,0.103515625,0.453125
1644,-0.8740234375,0.111328125,0.4541015625
1645,-0.8720703125,0.115234375,0.453125
1646,-0.873046875,0.1171875,0.4423828125
1647,-0.87890625,0.119140625,0.4482421875
1648,-0.8759765625,0.11328125,0.453125
1649,-0.88671875,0.1064453125,0.4580078125
1650,-0.8818359375,0.1005859375,0.458984375
1651,-0.8828125,0.1044921875,0.45703125
1652,-0.873046875,0.09765625,0.4521484375
1653,-0.8701171875,0.09375,0.45703125
1654,-0.876953125,0.09765625,0.451171875
1655,-0.8681640625,0.0810546875,0.4453125
1656,-0.8798828125,0.0830078125,0.4521484375
1657,-0.875,0.083984375,0.4423828125
1658,-0.8720703125,0.09375,0.4521484375
1659,-0.8701171875,0.087890625,0.453125
1660,-0.8740234375,0.08984375,0.4501953125
1661,-0.865234375,0.083984375,0.451171875
1662,-0.865234375,0.095703125,0.455078125
1663,-0.853515625,0.0673828125,0.4560546875
1664,-0.861328125,0.076171875,0.4482421875
1665,-0.8525390625,0.09765625,0.4521484375
1666,-0.875,0.1044921875,0.45703125
1667,-0.87109375,0.0927734375,0.455078125
1668,-0.8583984375,0.0830078125,0.4521484375
1669,-0.880859375,0.1171875,0.4423828125
1670,-0.865234375,0.109375,0.4375
1671,-0.88671875,0.1494140625,0.4287109375
1672,-0.873046875,0.1484375,0.447265625
1673,-0.875,0.09375,0.4599609375
1674,-0.8486328125,0.0068359375,0.44921875
1675,-0.8427734375,-0.001953125,0.4482421875
1676,-0.861328125,0.0654296875,0.431640625
1677,-0.857421875,0.0869140625,0.43359375
1678,-0.81640625,0.0556640625,0.4541015625
1679,-0.935546875,0.0927734375,0.47265625
1680,-0.8291015625,0.1171875,0.4296875
1681,-0.8291015625,0.0791015625,0.4404296875
1682,-0.8935546875,0.0654296875,0.4677734375
1683,-0.8701171875,0.119140625,0.439453125
1684,-0.8701171875,0.1298828125,0.4208984375
1685,-0.876953125,0.111328125,0.4462890625
1686,-0.87109375,0.080078125,0.455078125
1687,-0.8603515625,0.08984375,0.46875
1688,-0.880859375,0.0859375,0.47265625
1689,-0.890625,0.1171875,0.4736328125
1690,-0.8681640625,0.1298828125,0.4814453125
1691,-0.8701171875,0.0986328125,0.451171875
1692,-0.8662109375,0.080078125,0.447265625
1693,-0.841796875,0.0400390625,0.4521484375
1694,-0.8486328125,0.0654296875,0.435546875
1695,-0.876953125,0.09375,0.41015625
1696,-0.873046875,0.1201171875,0.44921875
1697,-0.8876953125,0.1396484375,0.46875
1698,-0.845703125,0.111328125,0.4697265625
1699,-0.8740234375,0.109375,0.4736328125
1700,-0.853515625,0.091796875,0.46875
1701,-0.861328125,0.0986328125,0.462890625
1702,-0.8798828125,0.103515625,0.48046875
1703,-0.8759765625,0.1015625,0.4365234375
1704,-0.865234375,0.125,0.4501953125
1705,-0.861328125,0.0810546875,0.458984375
1706,-0.86328125,0.1064453125,0.4384765625
1707,-0.85546875,0.09765625,0.4521484375
1708,-0.8583984375,0.078125,0.4462890625
1709,-0.8662109375,0.0771484375,0.4609375
1710,-0.8388671875,0.02734375,0.4736328125
1711,-0.88671875,0.05078125,0.4697265625
1712,-0.896484375,0.12109375,0.4423828125
1713,-0.8447265625,0.09375,0.451171875
1714,-0.8681640625,0.0908203125,0.4375
1715,-0.861328125,0.103515625,0.439453125
1716,-0.87109375,0.1201171875,0.4365234375
1717,-0.875,0.1328125,0.451171875
1718,-0.857421875,0.095703125,0.4599609375
1719,-0.86328125,0.0791015625,0.451171875
1720,-0.8623046875,0.09765625,0.4541015625
1721,-0.87109375,0.1123046875,0.4482421875
1722,-0.8720703125,0.1171875,0.451171875
1723,-0.869140625,0.1103515625,0.45703125
1724,-0.8740234375,0.107421875,0.4541015625
1725,-0.873046875,0.1025390625,0.4521484375
1726,-0.8671875,0.0966796875,0.4580078125
1727,-0.8662109375,0.0908203125,0.4599609375
1728,-0.8681640625,0.087890625,0.4599609375
1729,-0.8681640625,0.0947265625,0.451171875
1730,-0.869140625,0.091796875,0.4501953125
1731,-0.8740234375,0.1015625,0.453125
1732,-0.8671875,0.099609375,0.451171875
1733,-0.86328125,0.08984375,0.451171875
1734,-0.8642578125,0.091796875,0.451171875
1735,-0.8662109375,0.0927734375,0.443359375
1736,-0.8671875,0.0966796875,0.447265625
1737,-0.8681640625,0.09375,0.4453125
1738,-0.8662109375,0.095703125,0.4501953125
1739,-0.8662109375,0.095703125,0.4462890625
1740,-0.8623046875,0.0947265625,0.44921875
1741,-0.8662109375,0.095703125,0.4501953125
1742,-0.8662109375,0.1005859375,0.44921875
1743,-0.8642578125,0.0947265625,0.4501953125
1744,-0.86328125,0.095703125,0.44921875
1745,-0.865234375,0.1015625,0.453125
1746,-0.8642578125,0.1025390625,0.4541015625
1747,-0.8662109375,0.0966796875,0.45703125
1748,-0.8671875,0.09765625,0.4521484375
1749,-0.8671875,0.0986328125,0.455078125
1750,-0.8671875,0.099609375,0.45703125
1751,-0.8671875,0.0986328125,0.45703125
1752,-0.8671875,0.099609375,0.453125
1753,-0.8681640625,0.103515625,0.455078125
1754,-0.869140625,0.1025390625,0.4501953125
1755,-0.8720703125,0.099609375,0.455078125
1756,-0.8662109375,0.1015625,0.447265625
1757,-0.869140625,0.1025390625,0.451171875
1758,-0.8701171875,0.0966796875,0.4521484375
1759,-0.8681640625,0.0986328125,0.4521484375
1760,-0.8701171875,0.09765625,0.447265625
1761,-0.865234375,0.09765625,0.4521484375
1762,-0.87109375,0.1015625,0.453125
1763,-0.8671875,0.0986328125,0.4541015625
1764,-0.8671875,0.1005859375,0.453125
1765,-0.865234375,0.099609375,0.4560546875
1766,-0.8671875,0.095703125,0.4541015625
1767,-0.8642578125,0.091796875,0.4541015625
1768,-0.861328125,0.091796875,0.455078125
1769,-0.861328125,0.09375,0.4560546875
1770,-0.8642578125,0.08984375,0.45703125
1771,-0.8671875,0.0908203125,0.4599609375
1772,-0.86328125,0.0849609375,0.4599609375
1773,-0.86328125,0.0859375,0.45703125
1774,-0.8671875,0.08984375,0.45703125
1775,-0.8642578125,0.0947265625,0.45703125
1776,-0.8671875,0.0888671875,0.4560546875
1777,-0.865234375,0.08984375,0.4560546875
1778,-0.8681640625,0.091796875,0.458984375
1779,-0.8671875,0.087890625,0.4521484375
1780,-0.8681640625,0.0908203125,0.451171875
1781,-0.8623046875,0.0947265625,0.4541015625
1782,-0.8662109375,0.0888671875,0.4541015625
1783,-0.86328125,0.095703125,0.451171875
1784,-0.86328125,0.091796875,0.453125
1785,-0.869140625,0.0927734375,0.4521484375
1786,-0.8662109375,0.09375,0.4453125
1787,-0.859375,0.08984375,0.4482421875
1788,-0.8662109375,0.09765625,0.4521484375
1789,-0.861328125,0.095703125,0.4521484375
1790,-0.8662109375,0.095703125,0.455078125
1791,-0.86328125,0.091796875,0.4521484375
1792,-0.861328125,0.0859375,0.455078125
1793,-0.8603515625,0.091796875,0.455078125
1794,-0.86328125,0.087890625,0.4609375
1795,-0.86328125,0.0947265625,0.458984375
1796,-0.865234375,0.0966796875,0.4560546875
1797,-0.865234375,0.0966796875,0.4658203125
1798,-0.8662109375,0.095703125,0.4638671875
1799,-0.86328125,0.095703125,0.4609375
1800,-0.8623046875,0.09375,0.4580078125
1801,-0.86328125,0.09375,0.458984375
1802,-0.869140625,0.0908203125,0.4521484375
1803,-0.865234375,0.09375,0.4521484375
1804,-0.86328125,0.0986328125,0.455078125
1805,-0.8603515625,0.09375,0.453125
1806,-0.861328125,0.095703125,0.4541015625
1807,-0.8603515625,0.091796875,0.45703125
1808,-0.865234375,0.09375,0.4501953125
1809,-0.859375,0.08984375,0.451171875
1810,-0.8603515625,0.0869140625,0.44921875
1811,-0.859375,0.09375,0.4482421875
1812,-0.857421875,0.0908203125,0.451171875
1813,-0.859375,0.087890625,0.4462890625
1814,-0.8623046875,0.0869140625,0.451171875
1815,-0.8583984375,0.0849609375,0.4423828125
1816,-0.859375,0.09375,0.447265625
1817,-0.8662109375,0.091796875,0.4482421875
1818,-0.8681640625,0.0908203125,0.451171875
1819,-0.87109375,0.095703125,0.44921875
1820,-0.8720703125,0.0986328125,0.447265625
1821,-0.869140625,0.0986328125,0.44921875
1822,-0.869140625,0.0966796875,0.451171875
1823,-0.869140625,0.0986328125,0.451171875
1824,-0.869140625,0.0966796875,0.453125
1825,-0.8671875,0.099609375,0.455078125
1826,-0.869140625,0.0966796875,0.455078125
1827,-0.8662109375,0.09765625,0.45703125
1828,-0.8671875,0.095703125,0.45703125
1829,-0.8662109375,0.095703125,0.4619140625
1830,-0.8623046875,0.0966796875,0.458984375
1831,-0.859375,0.0947265625,0.458984375
1832,-0.8623046875,0.0908203125,0.4560546875
1833,-0.859375,0.0966796875,0.4609375
1834,-0.8603515625,0.0908203125,0.4609375
1835,-0.861328125,0.0908203125,0.4619140625
1836,-0.8623046875,0.0888671875,0.4580078125
1837,-0.859375,0.08984375,0.466796875
1838,-0.8603515625,0.0888671875,0.458984375
1839,-0.8623046875,0.0927734375,0.458984375
1840,-0.865234375,0.0966796875,0.4619140625
1841,-0.8642578125,0.0927734375,0.453125
1842,-0.8642578125,0.095703125,0.455078125
1843,-0.865234375,0.0927734375,0.4580078125
1844,-0.8681640625,0.095703125,0.4609375
1845,-0.8671875,0.0947265625,0.4580078125
1846,-0.8681640625,0.0927734375,0.4619140625
1847,-0.86328125,0.09375,0.4580078125
1848,-0.8642578125,0.0947265625,0.4638671875
1849,-0.861328125,0.0927734375,0.4599609375
1850,-0.861328125,0.091796875,0.458984375
1851,-0.86328125,0.09765625,0.45703125
1852,-0.86328125,0.1005859375,0.45703125
1853,-0.8623046875,0.1044921875,0.4599609375
1854,-0.8623046875,0.09765625,0.455078125
1855,-0.859375,0.0966796875,0.4580078125
1856,-0.861328125,0.1005859375,0.453125
1857,-0.861328125,0.1015625,0.4521484375
1858,-0.86328125,0.095703125,0.458984375
1859,-0.861328125,0.1025390625,0.4580078125
1860,-0.8583984375,0.1015625,0.453125
1861,-0.861328125,0.1015625,0.458984375
1862,-0.8603515625,0.1025390625,0.46484375
1863,-0.861328125,0.0986328125,0.458984375
1864,-0.8603515625,0.0966796875,0.458984375
1865,-0.861328125,0.1025390625,0.4619140625
1866,-0.8623046875,0.099609375,0.4619140625
1867,-0.861328125,0.1015625,0.4619140625
1868,-0.859375,0.103515625,0.4619140625
1869,-0.8642578125,0.1044921875,0.4619140625
1870,-0.8671875,0.103515625,0.4609375
1871,-0.8583984375,0.1044921875,0.462890625
1872,-0.861328125,0.1005859375,0.4638671875
1873,-0.859375,0.1044921875,0.462890625
1874,-0.8642578125,0.103515625,0.46484375
1875,-0.8583984375,0.107421875,0.462890625
1876,-0.857421875,0.1025390625,0.46484375
1877,-0.857421875,0.1015625,0.4658203125
1878,-0.8623046875,0.103515625,0.4638671875
1879,-0.8603515625,0.1025390625,0.4658203125
1880,-0.857421875,0.103515625,0.4619140625
1881,-0.8564453125,0.1064453125,0.4609375
1882,-0.85546875,0.10546875,0.462890625
1883,-0.859375,0.1025390625,0.462890625
1884,-0.857421875,0.1005859375,0.4599609375
1885,-0.8583984375,0.1025390625,0.4599609375
1886,-0.857421875,0.1083984375,0.466796875
1887,-0.859375,0.1025390625,0.462890625
1888,-0.861328125,0.099609375,0.4619140625
1889,-0.859375,0.1025390625,0.4658203125
1890,-0.8583984375,0.1015625,0.4619140625
1891,-0.8603515625,0.0986328125,0.46484375
1892,-0.8564453125,0.0986328125,0.4658203125
1893,-0.859375,0.1015625,0.4658203125
1894,-0.859375,0.0986328125,0.4658203125
1895,-0.8603515625,0.1005859375,0.4599609375
1896,-0.8603515625,0.1005859375,0.462890625
1897,-0.8564453125,0.1025390625,0.4609375
1898,-0.8564453125,0.10546875,0.46484375
1899,-0.8564453125,0.1005859375,0.4609375
1900,-0.8564453125,0.0986328125,0.4619140625
1901,-0.859375,0.1015625,0.4619140625
1902,-0.8564453125,0.10546875,0.46484375
1903,-0.861328125,0.103515625,0.4619140625
1904,-0.8583984375,0.1005859375,0.462890625
1905,-0.8544921875,0.1044921875,0.455078125
1906,-0.857421875,0.1083984375,0.46484375
1907,-0.857421875,0.1103515625,0.4599609375
1908,-0.859375,0.10546875,0.4609375
1909,-0.859375,0.103515625,0.4638671875
1910,-0.8583984375,0.107421875,0.4560546875
1911,-0.8623046875,0.1083984375,0.462890625
1912,-0.8623046875,0.099609375,0.46484375
1913,-0.8583984375,0.109375,0.4609375
1914,-0.8623046875,0.1044921875,0.4619140625
1915,-0.86328125,0.1025390625,0.4638671875
1916,-0.861328125,0.1025390625,0.4677734375
1917,-0.857421875,0.103515625,0.4609375
1918,-0.8583984375,0.1064453125,0.462890625
1919,-0.8564453125,0.10546875,0.4599609375
1920,-0.857421875,0.111328125,0.4580078125
1921,-0.857421875,0.1015625,0.4609375
1922,-0.8642578125,0.107421875,0.4619140625
1923,-0.861328125,0.103515625,0.4599609375
1924,-0.8603515625,0.111328125,0.45703125
1925,-0.859375,0.107421875,0.466796875
1926,-0.8662109375,0.1025390625,0.4619140625
1927,-0.859375,0.10546875,0.4599609375
1928,-0.857421875,0.1005859375,0.4599609375
1929,-0.8623046875,0.0986328125,0.46484375
1930,-0.8544921875,0.103515625,0.46484375
1931,-0.859375,0.1015625,0.466796875
1932,-0.859375,0.107421875,0.466796875
1933,-0.8642578125,0.1103515625,0.47265625
1934,-0.861328125,0.1064453125,0.4697265625
1935,-0.8642578125,0.0986328125,0.46484375
1936,-0.861328125,0.1005859375,0.4638671875
1937,-0.8642578125,0.1083984375,0.4638671875
1938,-0.861328125,0.10546875,0.4580078125
1939,-0.859375,0.1015625,0.455078125
1940,-0.8623046875,0.103515625,0.4599609375
1941,-0.85546875,0.11328125,0.4609375
1942,-0.8583984375,0.1064453125,0.4599609375
1943,-0.86328125,0.1103515625,0.4658203125
1944,-0.857421875,0.1083984375,0.46484375
1945,-0.8544921875,0.107421875,0.4677734375
1946,-0.859375,0.1044921875,0.466796875
1947,-0.8603515625,0.107421875,0.4638671875
1948,-0.857421875,0.10546875,0.466796875
1949,-0.8515625,0.1044921875,0.4619140625
1950,-0.8564453125,0.109375,0.4638671875
1951,-0.85546875,0.10546875,0.4638671875
1952,-0.8564453125,0.1044921875,0.462890625
1953,-0.8564453125,0.115234375,0.4658203125
1954,-0.85546875,0.111328125,0.4677734375
1955,-0.859375,0.115234375,0.4638671875
1956,-0.8583984375,0.1064453125,0.4677734375
1957,-0.857421875,0.11328125,0.466796875
1958,-0.8583984375,0.1083984375,0.4638671875
1959,-0.857421875,0.1103515625,0.46484375
1960,-0.85546875,0.1142578125,0.4677734375
1961,-0.8564453125,0.1171875,0.4716796875
1962,-0.8583984375,0.11328125,0.462890625
1963,-0.8583984375,0.1142578125,0.4677734375
1964,-0.859375,0.1123046875,0.4619140625
1965,-0.8623046875,0.1171875,0.4609375
1966,-0.857421875,0.11328125,0.462890625
1967,-0.857421875,0.111328125,0.4638671875
1968,-0.861328125,0.111328125,0.4609375
1969,-0.85546875,0.11328125,0.4609375
1970,-0.8583984375,0.1123046875,0.4658203125
1971,-0.859375,0.1142578125,0.46484375
1972,-0.859375,0.1123046875,0.46484375
1973,-0.8583984375,0.1142578125,0.466796875
1974,-0.8525390625,0.1103515625,0.4677734375
1975,-0.8583984375,0.10546875,0.46875
1976,-0.8564453125,0.1103515625,0.466796875
1977,-0.8564453125,0.1123046875,0.470703125
1978,-0.859375,0.1083984375,0.470703125
1979,-0.8564453125,0.107421875,0.46484375
1980,-0.85546875,0.1123046875,0.4619140625
1981,-0.8525390625,0.115234375,0.46484375
1982,-0.8583984375,0.109375,0.462890625
1983,-0.8544921875,0.1044921875,0.462890625
1984,-0.8623046875,0.115234375,0.4716796875
1985,-0.8583984375,0.1123046875,0.4677734375
1986,-0.8544921875,0.1142578125,0.46484375
1987,-0.8603515625,0.1083984375,0.46484375
1988,-0.857421875,0.1083984375,0.46484375
1989,-0.857421875,0.1064453125,0.46484375
1990,-0.8583984375,0.107421875,0.4658203125
1991,-0.857421875,0.1123046875,0.4599609375
1992,-0.857421875,0.1162109375,0.4619140625
1993,-0.8603515625,0.1123046875,0.462890625
1994,-0.857421875,0.115234375,0.466796875
1995,-0.859375,0.11328125,0.4677734375
1996,-0.857421875,0.1162109375,0.466796875
1997,-0.859375,0.1162109375,0.46484375
1998,-0.86328125,0.1162109375,0.466796875
1999,-0.8525390625,0.109375,0.466796875
2000,-0.85546875,0.11328125,0.466796875
2001,-0.8583984375,0.1103515625,0.4697265625
2002,-0.857421875,0.1123046875,0.466796875
2003,-0.8544921875,0.1083984375,0.4658203125
2004,-0.8583984375,0.10546875,0.4638671875
2005,-0.857421875,0.1103515625,0.4638671875
2006,-0.8564453125,0.1142578125,0.46484375
2007,-0.8583984375,0.1142578125,0.470703125
2008,-0.85546875,0.115234375,0.4599609375
2009,-0.8603515625,0.1142578125,0.4697265625
2010,-0.85546875,0.115234375,0.4677734375
2011,-0.8583984375,0.1142578125,0.46484375
2012,-0.8583984375,0.1142578125,0.466796875
2013,-0.853515625,0.1162109375,0.4677734375
2014,-0.85546875,0.1123046875,0.4677734375
2015,-0.859375,0.1142578125,0.4619140625
2016,-0.85546875,0.111328125,0.4658203125
2017,-0.8603515625,0.1181640625,0.46484375
2018,-0.8583984375,0.111328125,0.4658203125
2019,-0.8603515625,0.1181640625,0.466796875
2020,-0.857421875,0.1171875,0.4638671875
2021,-0.8564453125,0.111328125,0.4658203125
2022,-0.857421875,0.11328125,0.4677734375
2023,-0.857421875,0.1162109375,0.4599609375
2024,-0.859375,0.1162109375,0.46875
2025,-0.8642578125,0.1142578125,0.4658203125
2026,-0.8583984375,0.1162109375,0.4658203125
2027,-0.859375,0.115234375,0.462890625
2028,-0.8544921875,0.1083984375,0.4677734375
2029,-0.8564453125,0.111328125,0.4697265625
2030,-0.861328125,0.1171875,0.4658203125
2031,-0.8603515625,0.1171875,0.466796875
2032,-0.857421875,0.1171875,0.4619140625
2033,-0.8583984375,0.1162109375,0.4658203125
2034,-0.8544921875,0.1142578125,0.46484375
2035,-0.8564453125,0.1142578125,0.466796875
2036,-0.85546875,0.11328125,0.462890625
2037,-0.8583984375,0.1123046875,0.4619140625
2038,-0.8564453125,0.1171875,0.462890625
2039,-0.859375,0.11328125,0.4638671875
2040,-0.8583984375,0.115234375,0.4599609375
2041,-0.8564453125,0.109375,0.4619140625
2042,-0.859375,0.11328125,0.45703125
2043,-0.8603515625,0.1162109375,0.46484375
2044,-0.8603515625,0.1142578125,0.466796875
2045,-0.8564453125,0.1064453125,0.4638671875
2046,-0.8583984375,0.1103515625,0.4638671875
2047,-0.861328125,0.115234375,0.4638671875
2048,-0.8564453125,0.1142578125,0.462890625
2049,-0.8544921875,0.1162109375,0.462890625
2050,-0.859375,0.1171875,0.46484375
2051,-0.8603515625,0.1123046875,0.4619140625
2052,-0.85546875,0.1142578125,0.46484375
2053,-0.861328125,0.1162109375,0.46484375
2054,-0.8583984375,0.1171875,0.458984375
2055,-0.861328125,0.1142578125,0.46484375
2056,-0.8583984375,0.1162109375,0.4619140625
2057,-0.859375,0.1171875,0.4609375
2058,-0.859375,0.1171875,0.462890625
2059,-0.8583984375,0.1171875,0.4677734375
2060,-0.8583984375,0.1181640625,0.46875
2061,-0.857421875,0.115234375,0.46484375
2062,-0.853515625,0.11328125,0.4658203125
2063,-0.8564453125,0.115234375,0.466796875
2064,-0.857421875,0.1142578125,0.4716796875
2065,-0.859375,0.1162109375,0.4619140625
2066,-0.8583984375,0.1181640625,0.46484375
2067,-0.857421875,0.1171875,0.4658203125
2068,-0.8583984375,0.119140625,0.462890625
2069,-0.857421875,0.119140625,0.466796875
2070,-0.857421875,0.1171875,0.46484375
2071,-0.8603515625,0.12109375,0.4658203125
2072,-0.8564453125,0.119140625,0.4638671875
2073,-0.8564453125,0.1181640625,0.4658203125
2074,-0.8583984375,0.1162109375,0.4658203125
2075,-0.859375,0.1162109375,0.4677734375
2076,-0.8603515625,0.1181640625,0.4619140625
2077,-0.8603515625,0.115234375,0.4619140625
2078,-0.853515625,0.1181640625,0.46484375
2079,-0.8603515625,0.1123046875,0.462890625
2080,-0.857421875,0.115234375,0.466796875
2081,-0.85546875,0.115234375,0.4599609375
2082,-0.8544921875,0.11328125,0.466796875
2083,-0.8544921875,0.1171875,0.4677734375
2084,-0.85546875,0.1123046875,0.466796875
2085,-0.8525390625,0.109375,0.466796875
2086,-0.859375,0.1103515625,0.4716796875
2087,-0.861328125,0.1123046875,0.47265625
2088,-0.8544921875,0.1123046875,0.4736328125
2089,-0.8544921875,0.111328125,0.46875
2090,-0.859375,0.1044921875,0.4599609375
2091,-0.857421875,0.1142578125,0.4580078125
2092,-0.859375,0.1181640625,0.4619140625
2093,-0.85546875,0.1162109375,0.462890625
2094,-0.85546875,0.1142578125,0.4638671875
2095,-0.8564453125,0.115234375,0.4619140625
2096,-0.8505859375,0.1142578125,0.46484375
2097,-0.8544921875,0.115234375,0.466796875
2098,-0.853515625,0.1181640625,0.46875
2099,-0.8564453125,0.12109375,0.4658203125
2100,-0.853515625,0.119140625,0.466796875
2101,-0.853515625,0.1142578125,0.466796875
2102,-0.8544921875,0.1171875,0.4658203125
2103,-0.8564453125,0.1162109375,0.462890625
2104,-0.8525390625,0.119140625,0.462890625
2105,-0.857421875,0.1171875,0.466796875
2106,-0.857421875,0.119140625,0.4658203125
2107,-0.859375,0.1171875,0.4697265625
2108,-0.85546875,0.119140625,0.466796875
2109,-0.8583984375,0.115234375,0.4677734375
2110,-0.859375,0.119140625,0.4658203125
2111,-0.8564453125,0.119140625,0.4658203125
2112,-0.8564453125,0.1171875,0.4658203125
2113,-0.859375,0.11328125,0.4677734375
2114,-0.857421875,0.1181640625,0.4638671875
2115,-0.8583984375,0.1142578125,0.46875
2116,-0.85546875,0.1171875,0.4658203125
2117,-0.8544921875,0.1181640625,0.46484375
2118,-0.859375,0.1181640625,0.466796875
2119,-0.85546875,0.1181640625,0.4658203125
2120,-0.8583984375,0.1162109375,0.46875
2121,-0.857421875,0.1181640625,0.466796875
2122,-0.861328125,0.119140625,0.4638671875
2123,-0.8564453125,0.1142578125,0.4619140625
2124,-0.857421875,0.1181640625,0.4609375
2125,-0.857421875,0.1142578125,0.46484375
2126,-0.8564453125,0.1142578125,0.4638671875
2127,-0.85546875,0.1171875,0.46484375
2128,-0.857421875,0.1162109375,0.4609375
2129,-0.8544921875,0.11328125,0.4609375
2130,-0.85546875,0.1171875,0.462890625
2131,-0.859375,0.1171875,0.4619140625
2132,-0.857421875,0.115234375,0.4580078125
2133,-0.8603515625,0.115234375,0.458984375
2134,-0.8583984375,0.1171875,0.458984375
2135,-0.857421875,0.1162109375,0.462890625
2136,-0.861328125,0.1142578125,0.46484375
2137,-0.8564453125,0.115234375,0.4599609375
2138,-0.8583984375,0.115234375,0.4638671875
2139,-0.861328125,0.1181640625,0.4638671875
2140,-0.8603515625,0.1171875,0.4619140625
2141,-0.857421875,0.1181640625,0.4658203125
2142,-0.8603515625,0.119140625,0.4599609375
2143,-0.8603515625,0.1181640625,0.46484375
2144,-0.859375,0.1142578125,0.462890625
2145,-0.859375,0.1162109375,0.4619140625
2146,-0.857421875,0.1181640625,0.4599609375
2147,-0.859375,0.119140625,0.462890625
2148,-0.859375,0.1171875,0.4658203125
2149,-0.85546875,0.1181640625,0.4658203125
2150,-0.8583984375,0.1142578125,0.466796875
2151,-0.857421875,0.1181640625,0.4638671875
2152,-0.86328125,0.1162109375,0.46484375
2153,-0.8583984375,0.1162109375,0.4638671875
2154,-0.857421875,0.1142578125,0.4609375
2155,-0.853515625,0.1142578125,0.46484375
2156,-0.857421875,0.115234375,0.462890625
2157,-0.8583984375,0.1142578125,0.4580078125
2158,-0.8583984375,0.1181640625,0.4658203125
2159,-0.8564453125,0.1162109375,0.4609375
2160,-0.8603515625,0.11328125,0.45703125
2161,-0.8564453125,0.115234375,0.462890625
2162,-0.8583984375,0.1181640625,0.4619140625
2163,-0.859375,0.1171875,0.4658203125
2164,-0.861328125,0.1181640625,0.462890625
2165,-0.8583984375,0.119140625,0.46875
2166,-0.859375,0.1181640625,0.46484375
2167,-0.8603515625,0.1171875,0.4658203125
2168,-0.853515625,0.119140625,0.466796875
2169,-0.861328125,0.1171875,0.4658203125
2170,-0.859375,0.1181640625,0.46484375
2171,-0.85546875,0.119140625,0.46484375
2172,-0.8544921875,0.107421875,0.4638671875
2173,-0.85546875,0.115234375,0.4697265625
2174,-0.857421875,0.1123046875,0.46484375
2175,-0.85546875,0.11328125,0.4697265625
2176,-0.857421875,0.11328125,0.46875
2177,-0.8603515625,0.1181640625,0.466796875
2178,-0.8583984375,0.115234375,0.470703125
2179,-0.8583984375,0.1162109375,0.4677734375
2180,-0.8583984375,0.1171875,0.46875
2181,-0.8564453125,0.1083984375,0.4677734375
2182,-0.8525390625,0.11328125,0.466796875
2183,-0.857421875,0.115234375,0.4658203125
2184,-0.8564453125,0.111328125,0.4658203125
2185,-0.853515625,0.11328125,0.4638671875
2186,-0.8544921875,0.107421875,0.462890625
2187,-0.8564453125,0.1103515625,0.45703125
2188,-0.8544921875,0.115234375,0.4658203125
2189,-0.857421875,0.1162109375,0.458984375
2190,-0.861328125,0.1142578125,0.4638671875
2191,-0.857421875,0.11328125,0.4619140625
2192,-0.857421875,0.1171875,0.458984375
2193,-0.861328125,0.115234375,0.46484375
2194,-0.8564453125,0.1171875,0.46484375
2195,-0.857421875,0.1162109375,0.466796875
2196,-0.8564453125,0.1162109375,0.4609375
2197,-0.857421875,0.1142578125,0.4638671875
2198,-0.8564453125,0.115234375,0.4658203125
2199,-0.85546875,0.11328125,0.466796875
2200,-0.8583984375,0.1123046875,0.462890625
2201,-0.85546875,0.1162109375,0.4658203125
2202,-0.8583984375,0.119140625,0.46484375
2203,-0.8525390625,0.1142578125,0.4697265625
2204,-0.8544921875,0.119140625,0.4658203125
2205,-0.8583984375,0.1171875,0.4697265625
2206,-0.8564453125,0.1162109375,0.4658203125
2207,-0.853515625,0.119140625,0.4658203125
2208,-0.857421875,0.1201171875,0.4599609375
2209,-0.8564453125,0.1201171875,0.4619140625
2210,-0.859375,0.1171875,0.4677734375
2211,-0.857421875,0.1162109375,0.4638671875
2212,-0.85546875,0.119140625,0.4619140625
2213,-0.8544921875,0.119140625,0.46875
2214,-0.8544921875,0.1162109375,0.46484375
2215,-0.8564453125,0.11328125,0.4658203125
2216,-0.8544921875,0.119140625,0.4609375
2217,-0.857421875,0.119140625,0.46484375
2218,-0.8583984375,0.1171875,0.4658203125
2219,-0.8603515625,0.115234375,0.4658203125
2220,-0.8564453125,0.1162109375,0.4638671875
2221,-0.859375,0.1181640625,0.46484375
2222,-0.8603515625,0.1162109375,0.466796875
2223,-0.857421875,0.11328125,0.46875
2224,-0.857421875,0.111328125,0.46484375
2225,-0.857421875,0.1142578125,0.4580078125
2226,-0.861328125,0.11328125,0.4609375
2227,-0.8564453125,0.11328125,0.4609375
2228,-0.859375,0.1123046875,0.4658203125
2229,-0.8544921875,0.115234375,0.4638671875
2230,-0.8623046875,0.1162109375,0.4599609375
2231,-0.859375,0.115234375,0.4599609375
2232,-0.8544921875,0.115234375,0.4609375
2233,-0.8623046875,0.109375,0.4638671875
2234,-0.8603515625,0.1123046875,0.4609375
2235,-0.861328125,0.1171875,0.466796875
2236,-0.8603515625,0.1162109375,0.46484375
2237,-0.859375,0.11328125,0.4658203125
2238,-0.857421875,0.1162109375,0.46484375
2239,-0.857421875,0.11328125,0.462890625
2240,-0.85546875,0.1171875,0.4609375
2241,-0.8603515625,0.1162109375,0.4619140625
2242,-0.861328125,0.115234375,0.4609375
2243,-0.8623046875,0.1142578125,0.462890625
2244,-0.8583984375,0.1171875,0.4638671875
2245,-0.857421875,0.119140625,0.4619140625
2246,-0.85546875,0.1171875,0.458984375
2247,-0.859375,0.1142578125,0.4619140625
2248,-0.853515625,0.1181640625,0.46484375
2249,-0.853515625,0.115234375,0.4599609375
2250,-0.8525390625,0.1123046875,0.462890625
2251,-0.85546875,0.115234375,0.466796875
2252,-0.8603515625,0.1123046875,0.4619140625
2253,-0.8583984375,0.1171875,0.466796875
2254,-0.8603515625,0.1171875,0.4677734375
2255,-0.8603515625,0.1171875,0.4658203125
2256,-0.8583984375,0.115234375,0.4619140625
2257,-0.8583984375,0.115234375,0.4599609375
2258,-0.859375,0.1162109375,0.458984375
2259,-0.857421875,0.119140625,0.458984375
2260,-0.8564453125,0.119140625,0.4560546875
2261,-0.859375,0.1171875,0.4609375
2262,-0.8583984375,0.1142578125,0.462890625
2263,-0.857421875,0.111328125,0.4658203125
2264,-0.857421875,0.11328125,0.4609375
2265,-0.8564453125,0.1142578125,0.4677734375
2266,-0.85546875,0.1171875,0.46875
2267,-0.859375,0.115234375,0.4599609375
2268,-0.857421875,0.1162109375,0.4677734375
2269,-0.8564453125,0.1142578125,0.4638671875
2270,-0.8583984375,0.1123046875,0.46484375
2271,-0.8525390625,0.1181640625,0.462890625
2272,-0.85546875,0.1201171875,0.4638671875
2273,-0.8564453125,0.1181640625,0.4658203125
2274,-0.85546875,0.1162109375,0.466796875
2275,-0.8564453125,0.119140625,0.4638671875
2276,-0.8583984375,0.1181640625,0.470703125
2277,-0.85546875,0.1201171875,0.4677734375
2278,-0.8583984375,0.1171875,0.466796875
2279,-0.8583984375,0.1181640625,0.4619140625
2280,-0.859375,0.1162109375,0.4609375
2281,-0.8603515625,0.119140625,0.4619140625
2282,-0.8564453125,0.1181640625,0.4638671875
2283,-0.8564453125,0.1162109375,0.4619140625
2284,-0.8583984375,0.119140625,0.462890625
2285,-0.8623046875,0.1181640625,0.46484375
2286,-0.8583984375,0.1142578125,0.4638671875
2287,-0.857421875,0.119140625,0.4638671875
2288,-0.85546875,0.119140625,0.4638671875
2289,-0.859375,0.119140625,0.458984375
2290,-0.8583984375,0.1162109375,0.4697265625
2291,-0.857421875,0.115234375,0.466796875
2292,-0.8564453125,0.1142578125,0.4658203125
2293,-0.85546875,0.11328125,0.4658203125
2294,-0.8564453125,0.1181640625,0.46484375
2295,-0.8564453125,0.1083984375,0.4638671875
2296,-0.859375,0.111328125,0.466796875
2297,-0.8583984375,0.1142578125,0.46484375
2298,-0.857421875,0.1142578125,0.4638671875
2299,-0.8564453125,0.119140625,0.4658203125
2300,-0.857421875,0.1171875,0.4619140625
2301,-0.8603515625,0.1171875,0.46484375
2302,-0.857421875,0.119140625,0.4609375
2303,-0.8544921875,0.1171875,0.4609375
2304,-0.857421875,0.1162109375,0.458984375
2305,-0.859375,0.119140625,0.4580078125
2306,-0.8564453125,0.1171875,0.4638671875
2307,-0.857421875,0.119140625,0.4619140625
2308,-0.8564453125,0.12109375,0.462890625
2309,-0.8623046875,0.1201171875,0.462890625
2310,-0.85546875,0.123046875,0.4638671875
2311,-0.8623046875,0.1181640625,0.4619140625
2312,-0.8623046875,0.119140625,0.4658203125
2313,-0.8603515625,0.1171875,0.462890625
2314,-0.859375,0.1162109375,0.4638671875
2315,-0.8583984375,0.1171875,0.466796875
2316,-0.8583984375,0.115234375,0.46875
2317,-0.857421875,0.1162109375,0.466796875
2318,-0.85546875,0.1162109375,0.466796875
2319,-0.8544921875,0.1162109375,0.4677734375
2320,-0.857421875,0.1142578125,0.4716796875
2321,-0.8525390625,0.115234375,0.46875
2322,-0.8525390625,0.111328125,0.4697265625
2323,-0.8564453125,0.107421875,0.46875
2324,-0.8525390625,0.1044921875,0.4677734375
2325,-0.8515625,0.1083984375,0.46875
2326,-0.8515625,0.107421875,0.4677734375
2327,-0.853515625,0.1171875,0.4697265625
2328,-0.853515625,0.11328125,0.466796875
2329,-0.853515625,0.111328125,0.4677734375
2330,-0.85546875,0.1162109375,0.46484375
2331,-0.857421875,0.1162109375,0.466796875
2332,-0.85546875,0.1142578125,0.4677734375
2333,-0.853515625,0.111328125,0.46875
2334,-0.85546875,0.1171875,0.4638671875
2335,-0.8544921875,0.111328125,0.46484375
2336,-0.853515625,0.1123046875,0.462890625
2337,-0.857421875,0.115234375,0.46484375
2338,-0.8583984375,0.115234375,0.4638671875
2339,-0.8603515625,0.1142578125,0.4658203125
2340,-0.8603515625,0.115234375,0.4638671875
2341,-0.8603515625,0.115234375,0.462890625
2342,-0.8583984375,0.119140625,0.46484375
2343,-0.857421875,0.119140625,0.4609375
2344,-0.8603515625,0.1181640625,0.4609375
2345,-0.8583984375,0.1142578125,0.4677734375
2346,-0.8583984375,0.1181640625,0.462890625
2347,-0.8564453125,0.1181640625,0.4638671875
2348,-0.8564453125,0.1171875,0.462890625
2349,-0.8564453125,0.119140625,0.4638671875
2350,-0.85546875,0.1181640625,0.4609375
2351,-0.8564453125,0.119140625,0.470703125
2352,-0.85546875,0.1162109375,0.46484375
2353,-0.8583984375,0.1123046875,0.46484375
2354,-0.857421875,0.1162109375,0.4638671875
2355,-0.85546875,0.115234375,0.4677734375
2356,-0.8544921875,0.1162109375,0.46484375
2357,-0.8623046875,0.119140625,0.46484375
2358,-0.85546875,0.1142578125,0.4619140625
2359,-0.8583984375,0.1181640625,0.462890625
2360,-0.857421875,0.1103515625,0.46484375
2361,-0.8564453125,0.111328125,0.46484375
2362,-0.8544921875,0.1162109375,0.4609375
2363,-0.85546875,0.1181640625,0.4609375
2364,-0.8603515625,0.11328125,0.4599609375
2365,-0.85546875,0.1181640625,0.4619140625
2366,-0.861328125,0.1181640625,0.4609375
2367,-0.861328125,0.1162109375,0.4599609375
2368,-0.8603515625,0.1162109375,0.462890625
2369,-0.85546875,0.115234375,0.4677734375
2370,-0.8603515625,0.1142578125,0.4619140625
2371,-0.8583984375,0.1142578125,0.466796875
2372,-0.8583984375,0.111328125,0.4638671875
2373,-0.857421875,0.1142578125,0.4638671875
2374,-0.857421875,0.1142578125,0.4658203125
2375,-0.8583984375,0.1142578125,0.46875
2376,-0.857421875,0.109375,0.466796875
2377,-0.8544921875,0.11328125,0.46484375
2378,-0.8564453125,0.1162109375,0.4658203125
2379,-0.8583984375,0.109375,0.470703125
2380,-0.8603515625,0.11328125,0.466796875
2381,-0.85546875,0.1083984375,0.4658203125
2382,-0.857421875,0.111328125,0.466796875
2383,-0.857421875,0.107421875,0.4677734375
2384,-0.8603515625,0.103515625,0.46484375
2385,-0.857421875,0.11328125,0.46484375
2386,-0.8564453125,0.1181640625,0.4609375
2387,-0.857421875,0.107421875,0.466796875
2388,-0.8564453125,0.1181640625,0.4619140625
2389,-0.857421875,0.11328125,0.458984375
2390,-0.857421875,0.1064453125,0.4619140625
2391,-0.857421875,0.107421875,0.462890625
2392,-0.8544921875,0.107421875,0.458984375
2393,-0.857421875,0.1123046875,0.4619140625
2394,-0.861328125,0.1103515625,0.45703125
2395,-0.8564453125,0.1171875,0.4638671875
2396,-0.8544921875,0.111328125,0.4658203125
2397,-0.861328125,0.115234375,0.4658203125
2398,-0.8544921875,0.1162109375,0.4609375
2399,-0.859375,0.111328125,0.462890625
2400,-0.8564453125,0.1171875,0.4697265625
2401,-0.85546875,0.111328125,0.4658203125
2402,-0.857421875,0.1123046875,0.466796875
2403,-0.857421875,0.115234375,0.466796875
2404,-0.8564453125,0.1123046875,0.4638671875
2405,-0.8603515625,0.109375,0.4638671875
2406,-0.8564453125,0.111328125,0.4658203125
2407,-0.85546875,0.1142578125,0.462890625
2408,-0.8544921875,0.1181640625,0.4609375
2409,-0.8544921875,0.1142578125,0.462890625
2410,-0.857421875,0.1142578125,0.4638671875
2411,-0.85546875,0.109375,0.46875
2412,-0.853515625,0.1123046875,0.46484375
2413,-0.8544921875,0.11328125,0.4697265625
2414,-0.853515625,0.103515625,0.46875
2415,-0.853515625,0.107421875,0.466796875
2416,-0.857421875,0.1064453125,0.4638671875
2417,-0.85546875,0.107421875,0.466796875
2418,-0.861328125,0.1083984375,0.47265625
2419,-0.8623046875,0.1103515625,0.4794921875
2420,-0.857421875,0.111328125,0.4716796875
2421,-0.853515625,0.1142578125,0.4697265625
2422,-0.8564453125,0.111328125,0.462890625
2423,-0.859375,0.11328125,0.462890625
2424,-0.853515625,0.11328125,0.4609375
2425,-0.8564453125,0.1162109375,0.4619140625
2426,-0.8515625,0.1142578125,0.4638671875
2427,-0.8564453125,0.1142578125,0.4638671875
2428,-0.8544921875,0.115234375,0.4677734375
2429,-0.8583984375,0.1044921875,0.4716796875
2430,-0.8544921875,0.1142578125,0.46875
2431,-0.853515625,0.107421875,0.4658203125
2432,-0.8564453125,0.11328125,0.47265625
2433,-0.85546875,0.1083984375,0.4677734375
2434,-0.85546875,0.109375,0.46484375
2435,-0.85546875,0.1181640625,0.46484375
2436,-0.85546875,0.1171875,0.462890625
2437,-0.853515625,0.1162109375,0.4638671875
2438,-0.8544921875,0.115234375,0.46484375
2439,-0.8544921875,0.119140625,0.458984375
2440,-0.8603515625,0.119140625,0.466796875
2441,-0.8603515625,0.1171875,0.4658203125
2442,-0.85546875,0.1181640625,0.4658203125
2443,-0.857421875,0.1181640625,0.4677734375
2444,-0.859375,0.1181640625,0.466796875
2445,-0.859375,0.1123046875,0.4599609375
2446,-0.8564453125,0.115234375,0.46484375
2447,-0.8544921875,0.119140625,0.4677734375
2448,-0.8583984375,0.1162109375,0.46484375
2449,-0.8564453125,0.115234375,0.462890625
2450,-0.8564453125,0.111328125,0.4609375
2451,-0.859375,0.1142578125,0.4658203125
2452,-0.8603515625,0.11328125,0.4609375
2453,-0.8564453125,0.1162109375,0.4619140625
2454,-0.857421875,0.1123046875,0.4619140625
2455,-0.85546875,0.1083984375,0.4658203125
2456,-0.8564453125,0.11328125,0.4619140625
2457,-0.8564453125,0.107421875,0.4658203125
2458,-0.8525390625,0.103515625,0.462890625
2459,-0.859375,0.1083984375,0.4609375
2460,-0.857421875,0.11328125,0.4609375
2461,-0.85546875,0.1064453125,0.4619140625
2462,-0.859375,0.107421875,0.458984375
2463,-0.8564453125,0.1103515625,0.4580078125
2464,-0.8583984375,0.109375,0.458984375
2465,-0.857421875,0.1064453125,0.46484375
2466,-0.8564453125,0.11328125,0.46484375
2467,-0.8544921875,0.109375,0.4658203125
2468,-0.8583984375,0.107421875,0.4658203125
2469,-0.859375,0.103515625,0.462890625
2470,-0.8564453125,0.107421875,0.46484375
2471,-0.859375,0.107421875,0.4658203125
2472,-0.8564453125,0.109375,0.462890625
2473,-0.8583984375,0.11328125,0.4638671875
2474,-0.85546875,0.1064453125,0.4619140625
2475,-0.859375,0.1123046875,0.4658203125
2476,-0.8603515625,0.1142578125,0.462890625
2477,-0.857421875,0.11328125,0.466796875
2478,-0.859375,0.1123046875,0.4638671875
2479,-0.8564453125,0.1123046875,0.4658203125
2480,-0.8544921875,0.1123046875,0.458984375
2481,-0.8564453125,0.1162109375,0.4619140625
2482,-0.8564453125,0.115234375,0.470703125
2483,-0.861328125,0.1123046875,0.46484375
2484,-0.8564453125,0.1123046875,0.466796875
2485,-0.8564453125,0.1162109375,0.466796875
2486,-0.857421875,0.1142578125,0.4658203125
2487,-0.8564453125,0.1142578125,0.46484375
2488,-0.853515625,0.1162109375,0.4658203125
2489,-0.859375,0.11328125,0.4658203125
2490,-0.857421875,0.1171875,0.4658203125
2491,-0.859375,0.1181640625,0.46484375
2492,-0.8583984375,0.1201171875,0.4697265625
2493,-0.857421875,0.119140625,0.4677734375
2494,-0.8564453125,0.1201171875,0.47265625
2495,-0.85546875,0.1171875,0.466796875
2496,-0.8544921875,0.1171875,0.4697265625
2497,-0.8525390625,0.1181640625,0.4677734375
2498,-0.8583984375,0.115234375,0.46875
2499,-0.85546875,0.1171875,0.470703125
2500,-0.8564453125,0.115234375,0.4638671875
2501,-0.8564453125,0.1181640625,0.462890625
2502,-0.853515625,0.1181640625,0.4609375
2503,-0.85546875,0.1162109375,0.46484375
2504,-0.859375,0.119140625,0.4658203125
2505,-0.85546875,0.1162109375,0.46875
2506,-0.8583984375,0.119140625,0.46484375
2507,-0.859375,0.119140625,0.466796875
2508,-0.8564453125,0.115234375,0.46484375
2509,-0.857421875,0.115234375,0.4638671875
2510,-0.857421875,0.1171875,0.462890625
2511,-0.857421875,0.1171875,0.46484375
2512,-0.8583984375,0.1201171875,0.4638671875
2513,-0.8564453125,0.119140625,0.4638671875
2514,-0.8525390625,0.1162109375,0.4638671875
2515,-0.8583984375,0.1142578125,0.4619140625
2516,-0.8583984375,0.1181640625,0.4638671875
2517,-0.8564453125,0.1171875,0.4609375
2518,-0.8564453125,0.1142578125,0.4619140625
2519,-0.857421875,0.115234375,0.4658203125
2520,-0.859375,0.1103515625,0.4658203125
2521,-0.8525390625,0.1142578125,0.4677734375
2522,-0.857421875,0.115234375,0.4677734375
2523,-0.859375,0.115234375,0.466796875
2524,-0.85546875,0.1171875,0.4697265625
2525,-0.84765625,0.1171875,0.46484375
2526,-0.857421875,0.115234375,0.4677734375
2527,-0.8515625,0.1201171875,0.4736328125
2528,-0.853515625,0.1171875,0.46875
2529,-0.8525390625,0.115234375,0.47265625
2530,-0.853515625,0.1162109375,0.4755859375
2531,-0.857421875,0.1171875,0.4716796875
2532,-0.8505859375,0.1162109375,0.4697265625
2533,-0.8564453125,0.1162109375,0.474609375
2534,-0.8505859375,0.1181640625,0.46875
2535,-0.853515625,0.1171875,0.47265625
2536,-0.853515625,0.111328125,0.4716796875
2537,-0.859375,0.1181640625,0.4697265625
2538,-0.8515625,0.1142578125,0.4736328125
2539,-0.8525390625,0.115234375,0.4697265625
2540,-0.84765625,0.1162109375,0.46484375
2541,-0.85546875,0.111328125,0.4736328125
2542,-0.8525390625,0.119140625,0.4658203125
2543,-0.8525390625,0.1142578125,0.4716796875
2544,-0.8564453125,0.1201171875,0.4775390625
2545,-0.853515625,0.115234375,0.4697265625
2546,-0.8505859375,0.1171875,0.4697265625
2547,-0.8544921875,0.1181640625,0.46875
2548,-0.8515625,0.1171875,0.4716796875
2549,-0.8544921875,0.1142578125,0.4677734375
2550,-0.8544921875,0.1181640625,0.4716796875
2551,-0.857421875,0.119140625,0.4677734375
2552,-0.8564453125,0.1123046875,0.4716796875
2553,-0.85546875,0.1171875,0.46875
2554,-0.857421875,0.119140625,0.466796875
2555,-0.853515625,0.1162109375,0.4658203125
2556,-0.85546875,0.1181640625,0.4716796875
2557,-0.853515625,0.12109375,0.47265625
2558,-0.85546875,0.1201171875,0.4697265625
2559,-0.8583984375,0.119140625,0.4677734375
2560,-0.8525390625,0.119140625,0.4697265625
2561,-0.853515625,0.1171875,0.466796875
2562,-0.853515625,0.1181640625,0.470703125
2563,-0.8583984375,0.1181640625,0.470703125
2564,-0.859375,0.1181640625,0.466796875
2565,-0.859375,0.119140625,0.4677734375
2566,-0.8544921875,0.1171875,0.466796875
2567,-0.8603515625,0.1201171875,0.4697265625
2568,-0.8583984375,0.1181640625,0.466796875
2569,-0.8603515625,0.119140625,0.46484375
2570,-0.857421875,0.1220703125,0.466796875
2571,-0.85546875,0.119140625,0.462890625
2572,-0.8525390625,0.12109375,0.466796875
2573,-0.8544921875,0.1162109375,0.4599609375
2574,-0.8525390625,0.1171875,0.470703125
2575,-0.8544921875,0.1162109375,0.470703125
2576,-0.853515625,0.109375,0.4716796875
2577,-0.8564453125,0.1171875,0.474609375
2578,-0.8525390625,0.1162109375,0.47265625
2579,-0.857421875,0.1162109375,0.474609375
2580,-0.85546875,0.115234375,0.4697265625
2581,-0.8623046875,0.1103515625,0.470703125
2582,-0.8583984375,0.1171875,0.4619140625
2583,-0.8525390625,0.111328125,0.4609375
2584,-0.853515625,0.1181640625,0.4619140625
2585,-0.8515625,0.1181640625,0.4658203125
2586,-0.8525390625,0.1171875,0.474609375
2587,-0.8515625,0.11328125,0.4716796875
2588,-0.8544921875,0.1162109375,0.4755859375
2589,-0.853515625,0.119140625,0.478515625
2590,-0.8525390625,0.115234375,0.474609375
2591,-0.8525390625,0.1142578125,0.4697265625
2592,-0.8515625,0.111328125,0.4736328125
2593,-0.8515625,0.1171875,0.4736328125
2594,-0.8525390625,0.1171875,0.4716796875
2595,-0.8525390625,0.1201171875,0.4775390625
2596,-0.85546875,0.1142578125,0.466796875
2597,-0.8486328125,0.119140625,0.4658203125
2598,-0.8525390625,0.111328125,0.470703125
2599,-0.8544921875,0.1201171875,0.4755859375
2600,-0.8544921875,0.1181640625,0.46484375
2601,-0.8564453125,0.1201171875,0.470703125
2602,-0.8544921875,0.1162109375,0.4677734375
2603,-0.85546875,0.119140625,0.4697265625
2604,-0.8583984375,0.119140625,0.470703125
2605,-0.857421875,0.1171875,0.4677734375
2606,-0.8583984375,0.1220703125,0.470703125
2607,-0.853515625,0.12109375,0.46875
2608,-0.8583984375,0.1181640625,0.4658203125
2609,-0.8583984375,0.1181640625,0.466796875
2610,-0.8544921875,0.1181640625,0.4677734375
2611,-0.861328125,0.1220703125,0.4697265625
2612,-0.859375,0.1201171875,0.4697265625
2613,-0.85546875,0.119140625,0.4638671875
2614,-0.8603515625,0.1171875,0.4677734375
2615,-0.8544921875,0.1181640625,0.46484375
2616,-0.8544921875,0.119140625,0.4677734375
2617,-0.85546875,0.119140625,0.4638671875
2618,-0.8564453125,0.1181640625,0.4677734375
2619,-0.8505859375,0.119140625,0.4697265625
2620,-0.8564453125,0.115234375,0.46875
2621,-0.8505859375,0.1181640625,0.466796875
2622,-0.85546875,0.1142578125,0.46484375
2623,-0.853515625,0.1171875,0.4619140625
2624,-0.85546875,0.1201171875,0.46875
2625,-0.8583984375,0.1220703125,0.4677734375
2626,-0.853515625,0.119140625,0.47265625
2627,-0.85546875,0.119140625,0.4697265625
2628,-0.8544921875,0.1181640625,0.46875
2629,-0.8505859375,0.1181640625,0.4658203125
2630,-0.853515625,0.119140625,0.4736328125
2631,-0.8525390625,0.1162109375,0.4697265625
2632,-0.853515625,0.1201171875,0.46875
2633,-0.85546875,0.1171875,0.46875
2634,-0.85546875,0.12109375,0.470703125
2635,-0.85546875,0.1181640625,0.4697265625
2636,-0.8564453125,0.1181640625,0.470703125
2637,-0.8525390625,0.1181640625,0.4716796875
2638,-0.85546875,0.1171875,0.46875
2639,-0.85546875,0.1201171875,0.46875
2640,-0.8525390625,0.1162109375,0.47265625
2641,-0.8564453125,0.1201171875,0.4716796875
2642,-0.853515625,0.119140625,0.47265625
2643,-0.8544921875,0.1171875,0.47265625
2644,-0.8525390625,0.119140625,0.4716796875
2645,-0.853515625,0.1201171875,0.474609375
2646,-0.849609375,0.115234375,0.4716796875
2647,-0.853515625,0.111328125,0.4716796875
2648,-0.8505859375,0.1181640625,0.470703125
2649,-0.8525390625,0.1162109375,0.47265625
2650,-0.853515625,0.119140625,0.47265625
2651,-0.8525390625,0.119140625,0.4697265625
2652,-0.853515625,0.12109375,0.46875
2653,-0.8525390625,0.1162109375,0.4677734375
2654,-0.8525390625,0.1181640625,0.4697265625
2655,-0.8505859375,0.1171875,0.4755859375
2656,-0.853515625,0.1171875,0.4697265625
2657,-0.8515625,0.115234375,0.4697265625
2658,-0.8525390625,0.1181640625,0.466796875
2659,-0.8466796875,0.1181640625,0.4716796875
2660,-0.8515625,0.1201171875,0.46875
2661,-0.8515625,0.119140625,0.4716796875
2662,-0.853515625,0.1181640625,0.470703125
2663,-0.8525390625,0.1181640625,0.4716796875
2664,-0.853515625,0.119140625,0.474609375
2665,-0.8544921875,0.1171875,0.470703125
2666,-0.85546875,0.1181640625,0.46875
2667,-0.853515625,0.1201171875,0.470703125
2668,-0.859375,0.1181640625,0.4697265625
2669,-0.857421875,0.1201171875,0.4697265625
2670,-0.8525390625,0.1171875,0.4755859375
2671,-0.857421875,0.115234375,0.47265625
2672,-0.8544921875,0.1171875,0.470703125
2673,-0.8544921875,0.119140625,0.4697265625
2674,-0.8544921875,0.1181640625,0.466796875
2675,-0.8544921875,0.119140625,0.4677734375
2676,-0.8525390625,0.1181640625,0.4716796875
2677,-0.849609375,0.1162109375,0.46875
2678,-0.8515625,0.115234375,0.4658203125
2679,-0.8505859375,0.12109375,0.4677734375
2680,-0.8525390625,0.1171875,0.4716796875
2681,-0.8525390625,0.1201171875,0.474609375
2682,-0.8583984375,0.1201171875,0.4794921875
2683,-0.8564453125,0.1201171875,0.4736328125
2684,-0.85546875,0.1201171875,0.4794921875
2685,-0.857421875,0.1201171875,0.48046875
2686,-0.8583984375,0.12109375,0.4794921875
2687,-0.8564453125,0.1181640625,0.4775390625
2688,-0.859375,0.119140625,0.474609375
2689,-0.859375,0.123046875,0.4736328125
2690,-0.857421875,0.1171875,0.466796875
2691,-0.85546875,0.119140625,0.4658203125
2692,-0.8544921875,0.1181640625,0.4697265625
2693,-0.8544921875,0.119140625,0.4658203125
2694,-0.85546875,0.1142578125,0.46484375
2695,-0.8525390625,0.119140625,0.4658203125
2696,-0.849609375,0.1171875,0.4638671875
2697,-0.8525390625,0.119140625,0.466796875
2698,-0.85546875,0.1162109375,0.46875
2699,-0.8525390625,0.1181640625,0.46875
2700,-0.8525390625,0.1123046875,0.4677734375
2701,-0.8525390625,0.1162109375,0.466796875
2702,-0.853515625,0.119140625,0.466796875
2703,-0.8525390625,0.119140625,0.470703125
2704,-0.8525390625,0.1181640625,0.4677734375
2705,-0.853515625,0.1162109375,0.4638671875
2706,-0.8544921875,0.1171875,0.46875
2707,-0.8525390625,0.1181640625,0.466796875
2708,-0.853515625,0.1142578125,0.466796875
2709,-0.853515625,0.11328125,0.466796875
2710,-0.8544921875,0.119140625,0.466796875
2711,-0.8544921875,0.1162109375,0.4638671875
2712,-0.857421875,0.1171875,0.4716796875
2713,-0.853515625,0.1103515625,0.4658203125
2714,-0.8564453125,0.1181640625,0.4677734375
2715,-0.8544921875,0.1181640625,0.4697265625
2716,-0.857421875,0.11328125,0.4677734375
2717,-0.8515625,0.115234375,0.470703125
2718,-0.853515625,0.11328125,0.4716796875
2719,-0.857421875,0.1162109375,0.4755859375
2720,-0.8544921875,0.1162109375,0.470703125
2721,-0.8515625,0.11328125,0.4755859375
2722,-0.8564453125,0.119140625,0.4736328125
2723,-0.8544921875,0.119140625,0.47265625
2724,-0.853515625,0.1123046875,0.474609375
2725,-0.8525390625,0.111328125,0.478515625
2726,-0.853515625,0.1123046875,0.48046875
2727,-0.85546875,0.119140625,0.4736328125
2728,-0.853515625,0.1103515625,0.4716796875
2729,-0.853515625,0.1171875,0.4716796875
2730,-0.853515625,0.1181640625,0.478515625
2731,-0.8544921875,0.1201171875,0.4755859375
2732,-0.85546875,0.1162109375,0.478515625
2733,-0.8525390625,0.1171875,0.48046875
2734,-0.8515625,0.119140625,0.4794921875
2735,-0.8515625,0.1201171875,0.47265625
2736,-0.8515625,0.1181640625,0.4736328125
2737,-0.85546875,0.1171875,0.470703125
2738,-0.85546875,0.1171875,0.4697265625
2739,-0.85546875,0.1201171875,0.47265625
2740,-0.85546875,0.119140625,0.470703125
2741,-0.8525390625,0.115234375,0.4677734375
2742,-0.8525390625,0.1142578125,0.4658203125
2743,-0.849609375,0.111328125,0.4658203125
2744,-0.8505859375,0.1142578125,0.4697265625
2745,-0.8515625,0.111328125,0.4609375
2746,-0.8525390625,0.103515625,0.466796875
2747,-0.8515625,0.111328125,0.46875
2748,-0.853515625,0.1103515625,0.4716796875
2749,-0.85546875,0.1064453125,0.4736328125
2750,-0.8525390625,0.107421875,0.4736328125
2751,-0.853515625,0.1083984375,0.47265625
2752,-0.8544921875,0.1083984375,0.4736328125
2753,-0.8564453125,0.107421875,0.4716796875
2754,-0.8505859375,0.111328125,0.4677734375
2755,-0.8544921875,0.1123046875,0.466796875
2756,-0.8583984375,0.1123046875,0.4677734375
2757,-0.853515625,0.1142578125,0.462890625
2758,-0.8544921875,0.111328125,0.4697265625
2759,-0.85546875,0.115234375,0.466796875
2760,-0.853515625,0.1162109375,0.470703125
2761,-0.853515625,0.1162109375,0.46875
2762,-0.8525390625,0.109375,0.470703125
2763,-0.8583984375,0.1123046875,0.4755859375
2764,-0.8544921875,0.1044921875,0.470703125
2765,-0.85546875,0.1064453125,0.4736328125
2766,-0.85546875,0.1123046875,0.466796875
2767,-0.849609375,0.1123046875,0.46875
2768,-0.8515625,0.10546875,0.46875
2769,-0.8505859375,0.1123046875,0.47265625
2770,-0.85546875,0.11328125,0.4697265625
2771,-0.857421875,0.119140625,0.466796875
2772,-0.8515625,0.11328125,0.470703125
2773,-0.8525390625,0.115234375,0.4736328125
2774,-0.857421875,0.1162109375,0.474609375
2775,-0.8525390625,0.1181640625,0.470703125
2776,-0.853515625,0.1171875,0.478515625
2777,-0.85546875,0.115234375,0.4736328125
2778,-0.859375,0.1142578125,0.4697265625
2779,-0.8505859375,0.1142578125,0.47265625
2780,-0.85546875,0.1142578125,0.47265625
2781,-0.8564453125,0.11328125,0.47265625
2782,-0.853515625,0.1142578125,0.47265625
2783,-0.85546875,0.11328125,0.4697265625
2784,-0.8515625,0.111328125,0.4697265625
2785,-0.857421875,0.11328125,0.466796875
2786,-0.85546875,0.1162109375,0.4716796875
2787,-0.85546875,0.1123046875,0.46875
2788,-0.8564453125,0.1103515625,0.4755859375
2789,-0.8544921875,0.11328125,0.474609375
2790,-0.853515625,0.1142578125,0.47265625
2791,-0.8544921875,0.1044921875,0.4736328125
2792,-0.8544921875,0.107421875,0.46875
2793,-0.857421875,0.109375,0.4736328125
2794,-0.8544921875,0.1103515625,0.470703125
2795,-0.8525390625,0.1064453125,0.4736328125
2796,-0.853515625,0.1142578125,0.46875
2797,-0.8544921875,0.115234375,0.4697265625
2798,-0.849609375,0.1142578125,0.4697265625
2799,-0.853515625,0.107421875,0.4716796875
2800,-0.849609375,0.111328125,0.4697265625
2801,-0.8515625,0.1103515625,0.4697265625
2802,-0.853515625,0.111328125,0.4697265625
2803,-0.853515625,0.10546875,0.4716796875
2804,-0.853515625,0.1083984375,0.4765625
2805,-0.8515625,0.103515625,0.47265625
2806,-0.8505859375,0.10546875,0.470703125
2807,-0.8525390625,0.1123046875,0.47265625
2808,-0.85546875,0.11328125,0.474609375
2809,-0.8525390625,0.111328125,0.4716796875
2810,-0.8583984375,0.1123046875,0.4736328125
2811,-0.853515625,0.1123046875,0.470703125
2812,-0.8544921875,0.109375,0.474609375
2813,-0.8505859375,0.1123046875,0.478515625
2814,-0.8515625,0.1162109375,0.474609375
2815,-0.853515625,0.109375,0.4755859375
2816,-0.8544921875,0.1083984375,0.470703125
2817,-0.8525390625,0.107421875,0.474609375
2818,-0.8544921875,0.107421875,0.4775390625
2819,-0.85546875,0.107421875,0.470703125
2820,-0.8486328125,0.11328125,0.4736328125
2821,-0.853515625,0.1103515625,0.47265625
2822,-0.8486328125,0.1083984375,0.4736328125
2823,-0.8505859375,0.111328125,0.4716796875
2824,-0.8515625,0.11328125,0.4716796875
2825,-0.853515625,0.1103515625,0.470703125
2826,-0.853515625,0.107421875,0.47265625
2827,-0.8525390625,0.1123046875,0.474609375
2828,-0.853515625,0.111328125,0.4736328125
2829,-0.853515625,0.111328125,0.4755859375
2830,-0.8515625,0.109375,0.47265625
2831,-0.85546875,0.111328125,0.4736328125
2832,-0.85546875,0.1083984375,0.4716796875
2833,-0.853515625,0.1123046875,0.47265625
2834,-0.849609375,0.11328125,0.4755859375
2835,-0.8544921875,0.1103515625,0.4716796875
2836,-0.8544921875,0.111328125,0.4755859375
2837,-0.8564453125,0.1162109375,0.4765625
2838,-0.857421875,0.1171875,0.47265625
2839,-0.8564453125,0.1123046875,0.4716796875
2840,-0.85546875,0.1123046875,0.4697265625
2841,-0.853515625,0.1103515625,0.4716796875
2842,-0.8564453125,0.1103515625,0.47265625
2843,-0.8583984375,0.107421875,0.474609375
2844,-0.853515625,0.1103515625,0.47265625
2845,-0.8525390625,0.109375,0.470703125
2846,-0.8544921875,0.1044921875,0.470703125
2847,-0.853515625,0.107421875,0.4677734375
2848,-0.85546875,0.1103515625,0.46484375
