,accelerometerAccelerationX(G),accelerometerAccelerationY(G),accelerometerAccelerationZ(G)
0,0.1201171875,-0.9287109375,0.1103515625
1,0.1220703125,-0.9287109375,0.111328125
2,0.1279296875,-0.9306640625,0.11328125
3,0.1298828125,-0.9326171875,0.119140625
4,0.1318359375,-0.9287109375,0.1181640625
5,0.1337890625,-0.9345703125,0.1259765625
6,0.1318359375,-0.9375,0.1181640625
7,0.130859375,-0.94140625,0.1220703125
8,0.1259765625,-0.9453125,0.1201171875
9,0.130859375,-0.9453125,0.1201171875
10,0.1259765625,-0.9482421875,0.119140625
11,0.1318359375,-0.9501953125,0.12109375
12,0.134765625,-0.9560546875,0.1201171875
13,0.1357421875,-0.9658203125,0.1259765625
14,0.134765625,-0.970703125,0.1201171875
15,0.14453125,-0.962890625,0.123046875
16,0.1484375,-0.9560546875,0.123046875
17,0.1474609375,-0.9501953125,0.123046875
18,0.1494140625,-0.943359375,0.1259765625
19,0.154296875,-0.9345703125,0.130859375
20,0.154296875,-0.9287109375,0.1337890625
21,0.1474609375,-0.9267578125,0.1328125
22,0.15234375,-0.9267578125,0.13671875
23,0.15234375,-0.9267578125,0.13671875
24,0.1494140625,-0.92578125,0.134765625
25,0.142578125,-0.9267578125,0.134765625
26,0.1572265625,-0.931640625,0.1357421875
27,0.1572265625,-0.9365234375,0.1337890625
28,0.166015625,-0.9384765625,0.134765625
29,0.1689453125,-0.9365234375,0.13671875
30,0.1796875,-0.9375,0.125
31,0.1826171875,-0.9345703125,0.1220703125
32,0.1767578125,-0.93359375,0.1259765625
33,0.1748046875,-0.931640625,0.123046875
34,0.171875,-0.9306640625,0.12109375
35,0.1630859375,-0.9287109375,0.1220703125
36,0.16015625,-0.9296875,0.1220703125
37,0.158203125,-0.919921875,0.1201171875
38,0.154296875,-0.9228515625,0.125
39,0.1494140625,-0.9248046875,0.1279296875
40,0.146484375,-0.9287109375,0.1416015625
41,0.150390625,-0.93359375,0.1455078125
42,0.1513671875,-0.931640625,0.140625
43,0.1435546875,-0.9345703125,0.1474609375
44,0.1455078125,-0.9365234375,0.1337890625
45,0.138671875,-0.939453125,0.13671875
46,0.125,-0.9423828125,0.1259765625
47,0.130859375,-0.939453125,0.12109375
48,0.1279296875,-0.9326171875,0.1123046875
49,0.1337890625,-0.9326171875,0.1083984375
50,0.1357421875,-0.9228515625,0.1220703125
51,0.1357421875,-0.92578125,0.1240234375
52,0.1357421875,-0.9267578125,0.1376953125
53,0.1376953125,-0.9267578125,0.1416015625
54,0.1435546875,-0.92578125,0.14453125
55,0.13671875,-0.927734375,0.1494140625
56,0.12890625,-0.931640625,0.154296875
57,0.123046875,-0.9267578125,0.162109375
58,0.1220703125,-0.9326171875,0.169921875
59,0.1162109375,-0.9375,0.1748046875
60,0.1083984375,-0.93359375,0.181640625
61,0.103515625,-0.9345703125,0.1728515625
62,0.09375,-0.939453125,0.1748046875
63,0.0908203125,-0.9345703125,0.1728515625
64,0.0869140625,-0.935546875,0.1748046875
65,0.08203125,-0.92578125,0.181640625
66,0.0908203125,-0.9287109375,0.1884765625
67,0.0927734375,-0.9208984375,0.1982421875
68,0.0966796875,-0.919921875,0.1904296875
69,0.0908203125,-0.9150390625,0.197265625
70,0.09375,-0.9091796875,0.19921875
71,0.095703125,-0.9072265625,0.197265625
72,0.0927734375,-0.8974609375,0.201171875
73,0.0986328125,-0.8955078125,0.1943359375
74,0.10546875,-0.900390625,0.1953125
75,0.10546875,-0.8984375,0.1806640625
76,0.1171875,-0.9033203125,0.1826171875
77,0.119140625,-0.9091796875,0.1865234375
78,0.11328125,-0.9150390625,0.1728515625
79,0.10546875,-0.91015625,0.18359375
80,0.1201171875,-0.923828125,0.169921875
81,0.1181640625,-0.9287109375,0.166015625
82,0.1328125,-0.947265625,0.1689453125
83,0.1484375,-0.9521484375,0.1640625
84,0.1533203125,-0.96484375,0.1611328125
85,0.1689453125,-0.9765625,0.1611328125
86,0.1728515625,-0.9755859375,0.1640625
87,0.1826171875,-0.9765625,0.158203125
88,0.1806640625,-0.9658203125,0.1572265625
89,0.18359375,-0.9501953125,0.1650390625
90,0.189453125,-0.9443359375,0.1669921875
91,0.181640625,-0.9306640625,0.1640625
92,0.181640625,-0.921875,0.15234375
93,0.1533203125,-0.873046875,0.1298828125
94,0.15625,-0.890625,0.142578125
95,0.1689453125,-0.939453125,0.15625
96,0.140625,-0.978515625,0.181640625
97,0.1259765625,-0.994140625,0.1923828125
98,0.1181640625,-1.0068359375,0.193359375
99,0.111328125,-1.0107421875,0.17578125
100,0.111328125,-1.0048828125,0.1708984375
101,0.0966796875,-0.994140625,0.171875
102,0.09765625,-0.990234375,0.1728515625
103,0.0908203125,-0.978515625,0.1708984375
104,0.0810546875,-0.9794921875,0.1689453125
105,0.0771484375,-0.970703125,0.17578125
106,0.076171875,-0.9560546875,0.1767578125
107,0.0634765625,-0.9501953125,0.1865234375
108,0.0556640625,-0.9482421875,0.1953125
109,0.0478515625,-0.953125,0.1953125
110,0.037109375,-0.9541015625,0.1982421875
111,0.033203125,-0.9609375,0.1884765625
112,0.0224609375,-0.9765625,0.1865234375
113,0.021484375,-0.98828125,0.17578125
114,0.009765625,-0.9970703125,0.1728515625
115,0.0009765625,-0.9921875,0.16796875
116,-0.01171875,-0.9921875,0.158203125
117,-0.0244140625,-0.98828125,0.154296875
118,-0.0322265625,-0.982421875,0.146484375
119,-0.048828125,-0.9775390625,0.138671875
120,-0.0634765625,-0.9716796875,0.1328125
121,-0.0712890625,-0.9697265625,0.1240234375
122,-0.078125,-0.962890625,0.12109375
123,-0.0810546875,-0.9580078125,0.119140625
124,-0.087890625,-0.9541015625,0.115234375
125,-0.0810546875,-0.9609375,0.099609375
126,-0.0703125,-0.95703125,0.0908203125
127,-0.0576171875,-0.9599609375,0.0791015625
128,-0.0380859375,-0.9755859375,0.0732421875
129,-0.029296875,-0.974609375,0.064453125
130,-0.0322265625,-0.974609375,0.0556640625
131,-0.0263671875,-0.9765625,0.04296875
132,-0.0302734375,-0.970703125,0.0380859375
133,-0.029296875,-0.962890625,0.037109375
134,-0.0341796875,-0.95703125,0.0390625
135,-0.0322265625,-0.953125,0.0439453125
136,-0.03515625,-0.9501953125,0.0498046875
137,-0.037109375,-0.9482421875,0.0546875
138,-0.0390625,-0.94140625,0.056640625
139,-0.0556640625,-0.94140625,0.0625
140,-0.05859375,-0.939453125,0.0634765625
141,-0.0576171875,-0.93359375,0.072265625
142,-0.0615234375,-0.93359375,0.0791015625
143,-0.0634765625,-0.92578125,0.0849609375
144,-0.0654296875,-0.9287109375,0.0849609375
145,-0.072265625,-0.9208984375,0.0810546875
146,-0.0703125,-0.9228515625,0.0869140625
147,-0.072265625,-0.9228515625,0.083984375
148,-0.0751953125,-0.9140625,0.083984375
149,-0.0751953125,-0.919921875,0.091796875
150,-0.0712890625,-0.91015625,0.095703125
151,-0.06640625,-0.91015625,0.09765625
152,-0.0576171875,-0.9072265625,0.1025390625
153,-0.0478515625,-0.9072265625,0.1044921875
154,-0.044921875,-0.9072265625,0.1064453125
155,-0.0390625,-0.9072265625,0.1044921875
156,-0.0400390625,-0.9013671875,0.1103515625
157,-0.03515625,-0.9033203125,0.103515625
158,-0.0419921875,-0.904296875,0.1005859375
159,-0.0390625,-0.9169921875,0.0986328125
160,-0.03515625,-0.921875,0.1025390625
161,-0.03125,-0.927734375,0.0986328125
162,-0.021484375,-0.9326171875,0.091796875
163,-0.013671875,-0.9384765625,0.095703125
164,0.00390625,-0.9462890625,0.0966796875
165,0.01953125,-0.951171875,0.1015625
166,0.0302734375,-0.9521484375,0.099609375
167,0.0419921875,-0.9501953125,0.1025390625
168,0.0478515625,-0.953125,0.1025390625
169,0.0537109375,-0.955078125,0.099609375
170,0.060546875,-0.953125,0.103515625
171,0.0576171875,-0.9560546875,0.09765625
172,0.0556640625,-0.94921875,0.099609375
173,0.0517578125,-0.962890625,0.1025390625
174,0.0537109375,-0.9765625,0.10546875
175,0.05078125,-0.9853515625,0.1103515625
176,0.0439453125,-0.9921875,0.1171875
177,0.046875,-1.0078125,0.1298828125
178,0.0419921875,-1.01953125,0.140625
179,0.0400390625,-1.0146484375,0.150390625
180,0.03515625,-1.0205078125,0.1591796875
181,0.03125,-1.0224609375,0.1650390625
182,0.02734375,-1.0244140625,0.1728515625
183,0.0244140625,-1.021484375,0.1826171875
184,0.0205078125,-1.0205078125,0.1904296875
185,0.015625,-1.0087890625,0.201171875
186,0.013671875,-1.00390625,0.20703125
187,0.0078125,-0.990234375,0.2177734375
188,0.0087890625,-0.984375,0.2216796875
189,0.01171875,-0.9775390625,0.2255859375
190,0.009765625,-0.966796875,0.234375
191,0.017578125,-0.9560546875,0.2421875
192,0.0234375,-0.9541015625,0.2490234375
193,0.0283203125,-0.9521484375,0.2568359375
194,0.0390625,-0.95703125,0.25390625
195,0.0439453125,-0.9560546875,0.2353515625
196,0.064453125,-0.953125,0.19921875
197,0.076171875,-0.9560546875,0.154296875
198,0.0546875,-0.98828125,0.1064453125
199,-0.00390625,-1.0400390625,0.072265625
200,-0.0947265625,-1.1064453125,0.0234375
201,-0.173828125,-1.185546875,-0.033203125
202,-0.2373046875,-1.2626953125,-0.0888671875
203,-0.28515625,-1.326171875,-0.1328125
204,-0.30859375,-1.3671875,-0.1728515625
205,-0.2919921875,-1.3642578125,-0.1806640625
206,-0.2509765625,-1.3251953125,-0.1376953125
207,-0.1484375,-1.3125,-0.166015625
208,-0.1298828125,-1.2490234375,-0.1640625
209,-0.0810546875,-1.1865234375,-0.1328125
210,-0.025390625,-1.146484375,-0.091796875
211,0.0107421875,-1.1171875,-0.048828125
212,0.056640625,-1.126953125,-0.0576171875
213,0.0859375,-1.08203125,-0.06640625
214,0.119140625,-0.9970703125,-0.111328125
215,0.1103515625,-0.8623046875,-0.125
216,0.1142578125,-0.7763671875,-0.0869140625
217,0.091796875,-0.7412109375,-0.09375
218,0.060546875,-0.72265625,-0.158203125
219,0.0234375,-0.72265625,-0.2060546875
220,0.0068359375,-0.7265625,-0.244140625
221,-0.0126953125,-0.7353515625,-0.2685546875
222,-0.0185546875,-0.7578125,-0.2890625
223,-0.0166015625,-0.783203125,-0.306640625
224,-0.0126953125,-0.8193359375,-0.30859375
225,-0.0078125,-0.869140625,-0.302734375
226,0.0,-0.9267578125,-0.291015625
227,0.005859375,-0.994140625,-0.279296875
228,0.00390625,-1.0478515625,-0.2626953125
229,-0.0146484375,-1.0947265625,-0.248046875
230,-0.025390625,-1.119140625,-0.212890625
231,-0.03515625,-1.140625,-0.1826171875
232,-0.0625,-1.1455078125,-0.162109375
233,-0.0869140625,-1.154296875,-0.1328125
234,-0.1201171875,-1.1474609375,-0.0986328125
235,-0.146484375,-1.1181640625,-0.0869140625
236,-0.1767578125,-1.087890625,-0.06640625
237,-0.2099609375,-1.064453125,-0.0537109375
238,-0.224609375,-1.0234375,-0.0234375
239,-0.2392578125,-0.9892578125,-0.03515625
240,-0.2412109375,-0.9541015625,-0.046875
241,-0.2578125,-0.9296875,-0.01171875
242,-0.2568359375,-0.892578125,-0.01953125
243,-0.248046875,-0.873046875,-0.01953125
244,-0.2236328125,-0.84765625,-0.0234375
245,-0.203125,-0.822265625,-0.0283203125
246,-0.1767578125,-0.796875,-0.0302734375
247,-0.1513671875,-0.77734375,-0.0302734375
248,-0.115234375,-0.763671875,-0.03515625
249,-0.0908203125,-0.7568359375,-0.0419921875
250,-0.0478515625,-0.7578125,-0.0400390625
251,-0.0146484375,-0.755859375,-0.048828125
252,0.0185546875,-0.765625,-0.060546875
253,0.0439453125,-0.7744140625,-0.0595703125
254,0.0703125,-0.7861328125,-0.046875
255,0.095703125,-0.8115234375,-0.046875
256,0.1123046875,-0.828125,-0.044921875
257,0.11328125,-0.84375,-0.0400390625
258,0.119140625,-0.8564453125,-0.03125
259,0.1015625,-0.8720703125,-0.0234375
260,0.0947265625,-0.8818359375,-0.0283203125
261,0.080078125,-0.892578125,-0.0322265625
262,0.0625,-0.8876953125,-0.03125
263,0.0546875,-0.88671875,-0.01953125
264,0.0400390625,-0.875,-0.02734375
265,0.03125,-0.8681640625,-0.0244140625
266,0.0205078125,-0.85546875,-0.0322265625
267,0.0185546875,-0.8388671875,-0.03515625
268,0.017578125,-0.826171875,-0.04296875
269,0.0078125,-0.818359375,-0.0458984375
270,-0.0009765625,-0.8154296875,-0.048828125
271,-0.009765625,-0.8173828125,-0.05078125
272,-0.0205078125,-0.81640625,-0.0537109375
273,-0.01953125,-0.8212890625,-0.046875
274,-0.021484375,-0.8232421875,-0.052734375
275,-0.01953125,-0.8271484375,-0.0498046875
276,-0.017578125,-0.8330078125,-0.0439453125
277,-0.017578125,-0.84375,-0.044921875
278,-0.0068359375,-0.87890625,-0.0380859375
279,0.0,-0.9033203125,-0.033203125
280,0.017578125,-0.9345703125,-0.0234375
281,0.013671875,-0.9765625,-0.02734375
282,0.0185546875,-0.9990234375,-0.017578125
283,0.0185546875,-1.017578125,-0.0078125
284,0.0205078125,-1.03515625,-0.001953125
285,0.0185546875,-1.044921875,0.0048828125
286,0.017578125,-1.048828125,0.015625
287,0.0126953125,-1.0576171875,0.0234375
288,0.009765625,-1.0634765625,0.0322265625
289,0.00390625,-1.0634765625,0.0390625
290,0.0009765625,-1.0595703125,0.048828125
291,0.0029296875,-1.0615234375,0.0615234375
292,0.0126953125,-1.0634765625,0.0712890625
293,0.009765625,-1.0673828125,0.087890625
294,0.013671875,-1.0654296875,0.09765625
295,0.01171875,-1.0654296875,0.1015625
296,0.0185546875,-1.0634765625,0.1162109375
297,0.0146484375,-1.0654296875,0.126953125
298,0.009765625,-1.0654296875,0.1416015625
299,0.0078125,-1.0654296875,0.1484375
300,-0.00390625,-1.060546875,0.1572265625
301,-0.0078125,-1.056640625,0.166015625
302,-0.0205078125,-1.056640625,0.1767578125
303,-0.0263671875,-1.0537109375,0.19140625
304,-0.0361328125,-1.0419921875,0.1865234375
305,-0.0380859375,-1.02734375,0.1865234375
306,-0.048828125,-1.0185546875,0.1875
307,-0.0546875,-1.0126953125,0.1787109375
308,-0.0576171875,-1.01953125,0.17578125
309,-0.0634765625,-1.029296875,0.185546875
310,-0.0654296875,-1.046875,0.1943359375
311,-0.064453125,-1.0576171875,0.2041015625
312,-0.0634765625,-1.064453125,0.2177734375
313,-0.0703125,-1.064453125,0.22265625
314,-0.0703125,-1.0458984375,0.2314453125
315,-0.0791015625,-1.03515625,0.2421875
316,-0.08984375,-1.015625,0.255859375
317,-0.1064453125,-0.986328125,0.265625
318,-0.1123046875,-0.9541015625,0.267578125
319,-0.12890625,-0.9091796875,0.26171875
320,-0.1474609375,-0.8828125,0.2333984375
321,-0.169921875,-0.8828125,0.21484375
322,-0.138671875,-0.9208984375,0.1962890625
323,-0.08984375,-0.9853515625,0.119140625
324,-0.0322265625,-1.1103515625,0.0478515625
325,0.021484375,-1.2470703125,-0.044921875
326,0.0869140625,-1.404296875,-0.171875
327,0.15234375,-1.5390625,-0.3173828125
328,0.1875,-1.6162109375,-0.453125
329,0.1982421875,-1.625,-0.53515625
330,0.171875,-1.5673828125,-0.5615234375
331,0.1083984375,-1.4208984375,-0.5341796875
332,0.02734375,-1.1767578125,-0.498046875
333,-0.03515625,-0.998046875,-0.455078125
334,-0.107421875,-0.826171875,-0.41796875
335,-0.177734375,-0.68359375,-0.3837890625
336,-0.25,-0.5380859375,-0.353515625
337,-0.3154296875,-0.4560546875,-0.3017578125
338,-0.369140625,-0.3837890625,-0.2548828125
339,-0.3701171875,-0.36328125,-0.203125
340,-0.3671875,-0.4169921875,-0.1396484375
341,-0.3173828125,-0.529296875,-0.091796875
342,-0.28125,-0.6728515625,-0.04296875
343,-0.255859375,-0.828125,-0.0126953125
344,-0.2109375,-0.994140625,-0.0087890625
345,-0.109375,-1.080078125,-0.033203125
346,-0.029296875,-1.150390625,-0.056640625
347,0.04296875,-1.1875,-0.0556640625
348,0.115234375,-1.2236328125,-0.0537109375
349,0.1796875,-1.2529296875,-0.0478515625
350,0.189453125,-1.2783203125,-0.0478515625
351,0.1806640625,-1.2568359375,-0.060546875
352,0.1806640625,-1.220703125,-0.0859375
353,0.17578125,-1.1533203125,-0.103515625
354,0.1689453125,-1.0986328125,-0.12890625
355,0.162109375,-1.03515625,-0.134765625
356,0.15234375,-0.9716796875,-0.13671875
357,0.123046875,-0.8935546875,-0.1328125
358,0.1083984375,-0.8447265625,-0.130859375
359,0.0927734375,-0.8056640625,-0.1220703125
360,0.07421875,-0.7626953125,-0.12109375
361,0.0634765625,-0.7197265625,-0.1201171875
362,0.0546875,-0.6884765625,-0.1044921875
363,0.0361328125,-0.6630859375,-0.0966796875
364,0.0263671875,-0.6396484375,-0.08984375
365,0.01171875,-0.6357421875,-0.111328125
366,0.00390625,-0.630859375,-0.12890625
367,-0.015625,-0.6181640625,-0.0888671875
368,0.0107421875,-0.625,-0.0966796875
369,0.0546875,-0.658203125,-0.1259765625
370,-0.0732421875,-0.6416015625,-0.0419921875
371,-0.0224609375,-0.71484375,-0.0224609375
372,0.0224609375,-0.7841796875,-0.041015625
373,-0.0244140625,-0.7822265625,-0.02734375
374,-0.056640625,-0.8251953125,-0.0107421875
375,-0.0458984375,-0.9033203125,0.015625
376,-0.0302734375,-0.97265625,0.0166015625
377,-0.048828125,-1.005859375,0.0234375
378,-0.0712890625,-1.0439453125,0.029296875
379,-0.10546875,-1.0556640625,0.02734375
380,-0.130859375,-1.05859375,0.0185546875
381,-0.1533203125,-1.0390625,0.009765625
382,-0.1748046875,-1.029296875,0.0126953125
383,-0.203125,-1.0029296875,0.017578125
384,-0.2216796875,-0.9833984375,0.015625
385,-0.234375,-0.958984375,0.0166015625
386,-0.2431640625,-0.943359375,0.0205078125
387,-0.244140625,-0.9296875,0.0263671875
388,-0.244140625,-0.923828125,0.041015625
389,-0.2412109375,-0.912109375,0.0517578125
390,-0.2421875,-0.912109375,0.068359375
391,-0.2294921875,-0.9208984375,0.080078125
392,-0.2158203125,-0.92578125,0.0986328125
393,-0.2041015625,-0.931640625,0.1142578125
394,-0.1826171875,-0.9296875,0.12890625
395,-0.169921875,-0.9267578125,0.146484375
396,-0.1513671875,-0.9228515625,0.15234375
397,-0.1396484375,-0.9169921875,0.1533203125
398,-0.1298828125,-0.9091796875,0.15625
399,-0.1171875,-0.904296875,0.158203125
400,-0.1015625,-0.904296875,0.1572265625
401,-0.091796875,-0.9052734375,0.15625
402,-0.0693359375,-0.9052734375,0.1591796875
403,-0.05859375,-0.90625,0.1552734375
404,-0.05078125,-0.9140625,0.15625
405,-0.037109375,-0.931640625,0.150390625
406,-0.0419921875,-0.947265625,0.1435546875
407,-0.0380859375,-0.9765625,0.130859375
408,-0.0361328125,-0.9931640625,0.1162109375
409,-0.02734375,-1.0,0.1015625
410,-0.033203125,-1.0087890625,0.0966796875
411,-0.03125,-1.0087890625,0.0869140625
412,-0.0322265625,-1.005859375,0.0859375
413,-0.03125,-1.0078125,0.07421875
414,-0.0244140625,-0.998046875,0.076171875
415,-0.021484375,-0.994140625,0.072265625
416,-0.0146484375,-0.9951171875,0.080078125
417,-0.005859375,-0.99609375,0.087890625
418,-0.0009765625,-0.9970703125,0.109375
419,0.009765625,-1.0107421875,0.1357421875
420,0.02734375,-1.0166015625,0.1767578125
421,0.048828125,-1.0166015625,0.205078125
422,0.0732421875,-1.0224609375,0.2412109375
423,0.095703125,-1.0146484375,0.2783203125
424,0.1298828125,-1.0087890625,0.322265625
425,0.1494140625,-0.9951171875,0.3427734375
426,0.146484375,-0.9755859375,0.337890625
427,0.189453125,-0.9912109375,0.38671875
428,0.1806640625,-1.072265625,0.310546875
429,0.0703125,-1.1533203125,0.21875
430,0.001953125,-1.2744140625,0.1318359375
431,-0.0712890625,-1.390625,0.0546875
432,-0.1728515625,-1.521484375,0.0185546875
433,-0.162109375,-1.6943359375,-0.1904296875
434,-0.2421875,-1.78125,-0.318359375
435,-0.333984375,-1.7314453125,-0.3828125
436,-0.384765625,-1.58203125,-0.421875
437,-0.396484375,-1.3759765625,-0.4345703125
438,-0.392578125,-1.1337890625,-0.44921875
439,-0.36328125,-0.9111328125,-0.455078125
440,-0.3056640625,-0.7666015625,-0.453125
441,-0.2373046875,-0.654296875,-0.43359375
442,-0.1611328125,-0.58203125,-0.3857421875
443,-0.0927734375,-0.537109375,-0.3447265625
444,-0.02734375,-0.5126953125,-0.3076171875
445,0.0244140625,-0.5283203125,-0.2626953125
446,0.0615234375,-0.59375,-0.1953125
447,0.0703125,-0.72265625,-0.1513671875
448,0.0439453125,-0.8486328125,-0.1181640625
449,-0.01171875,-0.947265625,-0.1123046875
450,-0.08203125,-1.0322265625,-0.111328125
451,-0.140625,-1.0830078125,-0.1064453125
452,-0.20703125,-1.111328125,-0.1123046875
453,-0.27734375,-1.125,-0.087890625
454,-0.3203125,-1.125,-0.0849609375
455,-0.3544921875,-1.1123046875,-0.0771484375
456,-0.40234375,-1.0830078125,-0.064453125
457,-0.43359375,-1.0634765625,-0.0556640625
458,-0.4091796875,-1.03125,-0.0810546875
459,-0.4228515625,-0.9853515625,-0.1015625
460,-0.4443359375,-0.9365234375,-0.087890625
461,-0.4169921875,-0.9033203125,-0.107421875
462,-0.4287109375,-0.8671875,-0.09765625
463,-0.4052734375,-0.83203125,-0.1005859375
464,-0.3642578125,-0.8095703125,-0.109375
465,-0.3330078125,-0.7919921875,-0.1005859375
466,-0.271484375,-0.7763671875,-0.1064453125
467,-0.2138671875,-0.7646484375,-0.08984375
468,-0.138671875,-0.763671875,-0.0791015625
469,-0.0732421875,-0.7734375,-0.0654296875
470,-0.0244140625,-0.759765625,-0.0654296875
471,0.029296875,-0.7587890625,-0.0458984375
472,0.07421875,-0.740234375,-0.0625
473,0.099609375,-0.75,-0.0517578125
474,0.11328125,-0.732421875,-0.0361328125
475,0.1298828125,-0.7353515625,0.005859375
476,0.1494140625,-0.7705078125,0.0224609375
477,0.123046875,-0.8017578125,0.005859375
478,0.09765625,-0.822265625,-0.0263671875
479,0.08984375,-0.837890625,-0.0341796875
480,0.0517578125,-0.8505859375,-0.0263671875
481,0.0576171875,-0.8818359375,-0.0322265625
482,0.0595703125,-0.89453125,-0.0400390625
483,0.0595703125,-0.91015625,-0.044921875
484,0.0654296875,-0.921875,-0.0458984375
485,0.0576171875,-0.9248046875,-0.0341796875
486,0.07421875,-0.9404296875,-0.0263671875
487,0.095703125,-0.9560546875,-0.0224609375
488,0.041015625,-0.94921875,-0.0087890625
489,0.0419921875,-0.9443359375,0.0107421875
490,0.05859375,-0.93359375,0.021484375
491,0.072265625,-0.92578125,0.0185546875
492,0.080078125,-0.9140625,0.0283203125
493,0.091796875,-0.8984375,0.0283203125
494,0.0546875,-0.8818359375,0.0361328125
495,0.083984375,-0.8798828125,0.0439453125
496,0.04296875,-0.8603515625,0.05078125
497,0.0517578125,-0.8662109375,0.0634765625
498,0.0068359375,-0.865234375,0.0751953125
499,0.0009765625,-0.873046875,0.0771484375
500,-0.017578125,-0.884765625,0.076171875
501,-0.0244140625,-0.896484375,0.080078125
502,-0.02734375,-0.927734375,0.0859375
503,-0.03125,-0.947265625,0.083984375
504,-0.0322265625,-0.958984375,0.08203125
505,-0.0244140625,-0.97265625,0.068359375
506,-0.015625,-0.982421875,0.0654296875
507,-0.0361328125,-0.98828125,0.0654296875
508,-0.0556640625,-1.0,0.0830078125
509,-0.0693359375,-1.0087890625,0.0869140625
510,-0.0576171875,-1.0205078125,0.0927734375
511,-0.072265625,-1.0263671875,0.0908203125
512,-0.0732421875,-1.0380859375,0.095703125
513,-0.06640625,-1.044921875,0.1044921875
514,-0.05859375,-1.046875,0.1123046875
515,-0.0419921875,-1.044921875,0.1162109375
516,-0.021484375,-1.0263671875,0.1123046875
517,0.0087890625,-1.0166015625,0.1083984375
518,0.0302734375,-1.0078125,0.1083984375
519,0.056640625,-1.005859375,0.1005859375
520,0.0595703125,-1.001953125,0.0927734375
521,0.056640625,-1.009765625,0.0908203125
522,0.060546875,-1.0224609375,0.099609375
523,0.04296875,-1.033203125,0.119140625
524,0.01953125,-1.0634765625,0.1396484375
525,0.0048828125,-1.0712890625,0.1640625
526,-0.015625,-1.0712890625,0.19140625
527,-0.029296875,-1.0625,0.2177734375
528,-0.05859375,-1.0498046875,0.234375
529,-0.078125,-1.0234375,0.255859375
530,-0.107421875,-0.9931640625,0.2685546875
531,-0.1328125,-0.9833984375,0.275390625
532,-0.1865234375,-0.9833984375,0.275390625
533,-0.2158203125,-1.0166015625,0.2744140625
534,-0.2294921875,-1.087890625,0.248046875
535,-0.23046875,-1.1953125,0.2119140625
536,-0.208984375,-1.375,0.142578125
537,-0.1748046875,-1.5078125,0.0556640625
538,-0.126953125,-1.6044921875,-0.0693359375
539,-0.072265625,-1.650390625,-0.2119140625
540,-0.0234375,-1.6171875,-0.32421875
541,0.0029296875,-1.5322265625,-0.361328125
542,0.013671875,-1.40625,-0.34375
543,0.0166015625,-1.2685546875,-0.302734375
544,0.001953125,-1.1240234375,-0.2734375
545,-0.0283203125,-0.986328125,-0.259765625
546,-0.0810546875,-0.8447265625,-0.2587890625
547,-0.130859375,-0.7080078125,-0.2646484375
548,-0.2001953125,-0.5712890625,-0.2900390625
549,-0.31640625,-0.4345703125,-0.306640625
550,-0.3623046875,-0.3740234375,-0.296875
551,-0.392578125,-0.359375,-0.26953125
552,-0.38671875,-0.412109375,-0.2421875
553,-0.3828125,-0.5234375,-0.185546875
554,-0.36328125,-0.6689453125,-0.134765625
555,-0.3369140625,-0.81640625,-0.0986328125
556,-0.2783203125,-0.9345703125,-0.0712890625
557,-0.21875,-1.0439453125,-0.0576171875
558,-0.150390625,-1.1142578125,-0.044921875
559,-0.091796875,-1.1552734375,-0.0380859375
560,-0.0400390625,-1.1728515625,-0.0263671875
561,0.005859375,-1.1826171875,-0.01171875
562,0.0302734375,-1.173828125,-0.01953125
563,0.0546875,-1.14453125,-0.041015625
564,0.068359375,-1.1171875,-0.072265625
565,0.0869140625,-1.0849609375,-0.1064453125
566,0.1044921875,-1.0419921875,-0.142578125
567,0.103515625,-1.013671875,-0.169921875
568,0.1240234375,-0.9775390625,-0.1982421875
569,0.111328125,-0.9248046875,-0.248046875
570,0.1337890625,-0.8798828125,-0.2666015625
571,0.1494140625,-0.841796875,-0.2568359375
572,0.1171875,-0.806640625,-0.22265625
573,0.041015625,-0.7392578125,-0.1904296875
574,-0.0185546875,-0.71875,-0.1181640625
575,-0.0029296875,-0.72265625,-0.1474609375
576,-0.0107421875,-0.7255859375,-0.13671875
577,0.013671875,-0.7744140625,-0.14453125
578,-0.015625,-0.75,-0.1591796875
579,-0.0625,-0.73046875,-0.140625
580,-0.060546875,-0.763671875,-0.078125
581,-0.09765625,-0.7841796875,-0.015625
582,-0.1279296875,-0.818359375,0.0908203125
583,-0.0185546875,-0.8837890625,-0.0009765625
584,-0.1435546875,-0.859375,0.064453125
585,0.001953125,-0.9326171875,-0.0380859375
586,-0.078125,-0.8955078125,0.03125
587,-0.1083984375,-0.88671875,0.021484375
588,-0.0263671875,-0.943359375,0.0380859375
589,-0.05078125,-0.9521484375,0.03515625
590,-0.06640625,-0.98046875,0.029296875
591,-0.1005859375,-0.9755859375,0.025390625
592,-0.138671875,-0.986328125,0.03515625
593,-0.171875,-0.986328125,0.0361328125
594,-0.1884765625,-0.98828125,0.029296875
595,-0.2099609375,-0.97265625,0.0244140625
596,-0.232421875,-0.943359375,0.0205078125
597,-0.240234375,-0.93359375,0.0205078125
598,-0.2451171875,-0.927734375,0.0400390625
599,-0.2470703125,-0.92578125,0.052734375
600,-0.244140625,-0.91015625,0.0810546875
601,-0.20703125,-0.912109375,0.0791015625
602,-0.1923828125,-0.8994140625,0.099609375
603,-0.1865234375,-0.884765625,0.1328125
604,-0.1650390625,-0.8671875,0.158203125
605,-0.14453125,-0.857421875,0.1728515625
606,-0.1328125,-0.8427734375,0.1904296875
607,-0.12109375,-0.8330078125,0.197265625
608,-0.12109375,-0.8291015625,0.1982421875
609,-0.1083984375,-0.828125,0.1962890625
610,-0.103515625,-0.8251953125,0.1884765625
611,-0.1015625,-0.83203125,0.1826171875
612,-0.1044921875,-0.84765625,0.171875
613,-0.1015625,-0.8701171875,0.1572265625
614,-0.1015625,-0.8818359375,0.1494140625
615,-0.09765625,-0.890625,0.1298828125
616,-0.0927734375,-0.8935546875,0.1162109375
617,-0.09765625,-0.89453125,0.1015625
618,-0.0927734375,-0.888671875,0.08984375
619,-0.0986328125,-0.880859375,0.072265625
620,-0.10546875,-0.8818359375,0.060546875
621,-0.115234375,-0.8779296875,0.0517578125
622,-0.1181640625,-0.8837890625,0.0439453125
623,-0.123046875,-0.904296875,0.04296875
624,-0.1328125,-0.908203125,0.0302734375
625,-0.1240234375,-0.94921875,0.05859375
626,-0.1181640625,-0.98046875,0.0732421875
627,-0.0986328125,-1.025390625,0.10546875
628,-0.08203125,-1.0361328125,0.1259765625
629,-0.0517578125,-1.056640625,0.1875
630,-0.0390625,-1.072265625,0.220703125
631,0.0029296875,-1.0732421875,0.2392578125
632,0.1474609375,-1.13671875,0.275390625
633,0.0869140625,-1.216796875,0.2568359375
634,-0.005859375,-1.3095703125,0.248046875
635,-0.029296875,-1.4423828125,0.220703125
636,-0.0556640625,-1.6044921875,0.146484375
637,-0.0107421875,-1.80859375,-0.087890625
638,-0.0146484375,-1.916015625,-0.263671875
639,-0.0166015625,-1.904296875,-0.40234375
640,-0.0625,-1.77734375,-0.4228515625
641,-0.1416015625,-1.5673828125,-0.419921875
642,-0.2333984375,-1.33984375,-0.375
643,-0.27734375,-1.109375,-0.3515625
644,-0.294921875,-0.900390625,-0.359375
645,-0.298828125,-0.736328125,-0.3486328125
646,-0.25390625,-0.6103515625,-0.3466796875
647,-0.1875,-0.53515625,-0.3310546875
648,-0.111328125,-0.5048828125,-0.318359375
649,-0.0087890625,-0.5341796875,-0.302734375
650,0.1005859375,-0.6337890625,-0.2646484375
651,0.1767578125,-0.783203125,-0.2119140625
652,0.1943359375,-0.89453125,-0.1787109375
653,0.1845703125,-0.994140625,-0.1474609375
654,0.1552734375,-1.078125,-0.140625
655,0.1005859375,-1.1357421875,-0.1376953125
656,0.0556640625,-1.16015625,-0.1328125
657,-0.0068359375,-1.17578125,-0.1279296875
658,-0.0908203125,-1.1806640625,-0.1171875
659,-0.1533203125,-1.171875,-0.0986328125
660,-0.22265625,-1.138671875,-0.072265625
661,-0.2509765625,-1.0849609375,-0.099609375
662,-0.2705078125,-1.0107421875,-0.1181640625
663,-0.2978515625,-0.92578125,-0.1103515625
664,-0.3056640625,-0.869140625,-0.115234375
665,-0.330078125,-0.822265625,-0.119140625
666,-0.333984375,-0.7861328125,-0.1025390625
667,-0.3291015625,-0.7568359375,-0.109375
668,-0.3076171875,-0.7177734375,-0.087890625
669,-0.296875,-0.7021484375,-0.0673828125
670,-0.2783203125,-0.6845703125,-0.0634765625
671,-0.2421875,-0.671875,-0.0625
672,-0.2060546875,-0.669921875,-0.06640625
673,-0.1552734375,-0.685546875,-0.0556640625
674,-0.1181640625,-0.6943359375,-0.0458984375
675,-0.0908203125,-0.7216796875,-0.0400390625
676,-0.056640625,-0.75390625,-0.0390625
677,-0.017578125,-0.771484375,-0.033203125
678,0.0009765625,-0.779296875,-0.0380859375
679,0.0048828125,-0.80078125,-0.0390625
680,-0.0009765625,-0.8095703125,-0.0341796875
681,-0.005859375,-0.8310546875,-0.0244140625
682,-0.01953125,-0.8515625,-0.0341796875
683,-0.025390625,-0.8583984375,-0.048828125
684,-0.021484375,-0.8525390625,-0.04296875
685,-0.0263671875,-0.841796875,-0.041015625
686,-0.033203125,-0.8427734375,-0.0439453125
687,-0.04296875,-0.853515625,-0.037109375
688,-0.0361328125,-0.859375,-0.041015625
689,-0.0283203125,-0.87109375,-0.037109375
690,-0.0185546875,-0.875,-0.033203125
691,0.0048828125,-0.8818359375,-0.0283203125
692,0.0166015625,-0.8837890625,-0.0166015625
693,0.0341796875,-0.892578125,-0.005859375
694,0.046875,-0.8974609375,0.01171875
695,0.07421875,-0.900390625,0.0244140625
696,0.0869140625,-0.90234375,0.03515625
697,0.0927734375,-0.9169921875,0.0517578125
698,0.1044921875,-0.9248046875,0.064453125
699,0.109375,-0.9345703125,0.080078125
700,0.1044921875,-0.9384765625,0.0927734375
701,0.095703125,-0.9443359375,0.1064453125
702,0.07421875,-0.966796875,0.12109375
703,0.0576171875,-0.96875,0.1337890625
704,0.0390625,-0.98046875,0.1376953125
705,0.025390625,-0.9873046875,0.1396484375
706,0.0166015625,-0.9853515625,0.1318359375
707,0.0078125,-0.990234375,0.1220703125
708,0.0078125,-0.9912109375,0.1201171875
709,-0.00390625,-0.986328125,0.1201171875
710,-0.009765625,-0.958984375,0.123046875
711,-0.0087890625,-0.9541015625,0.1318359375
712,-0.0078125,-0.94140625,0.1328125
713,-0.00390625,-0.9326171875,0.123046875
714,-0.0009765625,-0.93359375,0.1123046875
715,-0.0029296875,-0.939453125,0.1005859375
716,-0.0029296875,-0.955078125,0.0927734375
717,-0.009765625,-0.982421875,0.0810546875
718,-0.0146484375,-1.0087890625,0.0771484375
719,-0.015625,-1.03125,0.068359375
720,-0.0244140625,-1.0517578125,0.072265625
721,-0.0322265625,-1.068359375,0.0869140625
722,-0.0380859375,-1.0791015625,0.099609375
723,-0.041015625,-1.091796875,0.1044921875
724,-0.0498046875,-1.1005859375,0.1142578125
725,-0.0546875,-1.111328125,0.125
726,-0.0595703125,-1.107421875,0.138671875
727,-0.0576171875,-1.1064453125,0.15625
728,-0.052734375,-1.09375,0.1748046875
729,-0.0390625,-1.0732421875,0.2001953125
730,-0.0283203125,-1.0556640625,0.224609375
731,-0.0185546875,-1.0283203125,0.2587890625
732,-0.0107421875,-1.0,0.29296875
733,-0.01171875,-0.9775390625,0.3271484375
734,-0.029296875,-0.947265625,0.330078125
735,-0.0576171875,-0.947265625,0.328125
736,-0.0625,-0.9833984375,0.291015625
737,-0.0517578125,-1.0537109375,0.2578125
738,-0.0419921875,-1.1669921875,0.205078125
739,-0.0166015625,-1.310546875,0.1142578125
740,0.01171875,-1.42578125,0.0439453125
741,0.01953125,-1.498046875,-0.0458984375
742,0.03125,-1.5263671875,-0.154296875
743,0.0458984375,-1.5234375,-0.2490234375
744,0.0302734375,-1.46875,-0.3125
745,0.0126953125,-1.388671875,-0.333984375
746,-0.0087890625,-1.2978515625,-0.33203125
747,-0.04296875,-1.189453125,-0.3447265625
748,-0.0966796875,-1.09375,-0.34375
749,-0.18359375,-0.986328125,-0.33203125
750,-0.2919921875,-0.87890625,-0.31640625
751,-0.375,-0.783203125,-0.2978515625
752,-0.455078125,-0.697265625,-0.275390625
753,-0.5517578125,-0.6240234375,-0.2705078125
754,-0.5830078125,-0.583984375,-0.2685546875
755,-0.6005859375,-0.568359375,-0.26953125
756,-0.576171875,-0.5830078125,-0.25390625
757,-0.5458984375,-0.630859375,-0.236328125
758,-0.4677734375,-0.7060546875,-0.20703125
759,-0.375,-0.8095703125,-0.1728515625
760,-0.2783203125,-0.89453125,-0.1435546875
761,-0.1875,-0.984375,-0.115234375
762,-0.0859375,-1.0185546875,-0.0947265625
763,0.0107421875,-1.0498046875,-0.0791015625
764,0.0810546875,-1.0732421875,-0.048828125
765,0.1552734375,-1.025390625,-0.0673828125
766,0.21484375,-1.001953125,-0.03515625
767,0.1953125,-0.978515625,-0.01953125
768,0.1689453125,-0.958984375,-0.013671875
769,0.1337890625,-0.955078125,-0.025390625
770,0.1142578125,-0.9541015625,-0.04296875
771,0.1220703125,-0.96875,-0.0458984375
772,0.1142578125,-0.97265625,-0.0654296875
773,0.1083984375,-0.9638671875,-0.111328125
774,0.1484375,-0.9775390625,-0.130859375
775,0.158203125,-0.9541015625,-0.146484375
776,0.115234375,-0.923828125,-0.1552734375
777,0.0615234375,-0.876953125,-0.15625
778,-0.0107421875,-0.83203125,-0.0947265625
779,0.0263671875,-0.8310546875,-0.1376953125
780,-0.029296875,-0.7880859375,-0.12890625
781,0.025390625,-0.8193359375,-0.17578125
782,-0.013671875,-0.7841796875,-0.16015625
783,-0.0771484375,-0.7314453125,-0.1171875
784,-0.10546875,-0.6806640625,-0.09375
785,-0.10546875,-0.6904296875,-0.0537109375
786,-0.1748046875,-0.7001953125,0.0205078125
787,-0.2197265625,-0.7333984375,0.1005859375
788,-0.0400390625,-0.8193359375,-0.013671875
789,-0.2294921875,-0.75,0.0546875
790,-0.0830078125,-0.837890625,0.01171875
791,0.00390625,-0.8701171875,0.0048828125
792,-0.0087890625,-0.865234375,0.0126953125
793,-0.0380859375,-0.884765625,0.064453125
794,-0.0771484375,-0.904296875,0.1015625
795,-0.08203125,-0.93359375,0.1025390625
796,-0.1357421875,-0.935546875,0.10546875
797,-0.1318359375,-0.9833984375,0.123046875
798,-0.1025390625,-1.005859375,0.0458984375
799,-0.134765625,-0.99609375,0.033203125
800,-0.1591796875,-0.9990234375,0.0439453125
801,-0.173828125,-0.9853515625,0.0654296875
802,-0.17578125,-0.9853515625,0.0654296875
803,-0.1748046875,-0.9775390625,0.06640625
804,-0.1689453125,-0.955078125,0.0732421875
805,-0.1708984375,-0.9365234375,0.0869140625
806,-0.1748046875,-0.9267578125,0.119140625
807,-0.1123046875,-0.943359375,0.115234375
808,-0.10546875,-0.939453125,0.119140625
809,-0.1005859375,-0.931640625,0.1416015625
810,-0.08984375,-0.919921875,0.1611328125
811,-0.087890625,-0.9013671875,0.1748046875
812,-0.078125,-0.88671875,0.181640625
813,-0.0830078125,-0.8798828125,0.1845703125
814,-0.0908203125,-0.86328125,0.1845703125
815,-0.0947265625,-0.8583984375,0.177734375
816,-0.095703125,-0.85546875,0.162109375
817,-0.1103515625,-0.84765625,0.15625
818,-0.11328125,-0.861328125,0.140625
819,-0.1171875,-0.87109375,0.125
820,-0.125,-0.89453125,0.111328125
821,-0.134765625,-0.9140625,0.1064453125
822,-0.1162109375,-0.943359375,0.095703125
823,-0.0927734375,-0.974609375,0.080078125
824,-0.0810546875,-0.986328125,0.0595703125
825,-0.0732421875,-0.9931640625,0.0634765625
826,-0.0634765625,-0.9970703125,0.068359375
827,-0.0537109375,-1.0087890625,0.076171875
828,-0.052734375,-1.0205078125,0.0869140625
829,-0.052734375,-1.0283203125,0.1064453125
830,-0.052734375,-1.0576171875,0.123046875
831,-0.0615234375,-1.0810546875,0.142578125
832,-0.072265625,-1.095703125,0.1630859375
833,-0.080078125,-1.1064453125,0.18359375
834,-0.0947265625,-1.1103515625,0.205078125
835,-0.103515625,-1.111328125,0.23046875
836,-0.109375,-1.1015625,0.2548828125
837,-0.107421875,-1.087890625,0.287109375
838,-0.1015625,-1.072265625,0.3232421875
839,-0.0927734375,-1.0498046875,0.3525390625
840,-0.08984375,-1.025390625,0.369140625
841,-0.1083984375,-0.9658203125,0.4443359375
842,0.1669921875,-1.046875,0.3720703125
843,0.1279296875,-1.0908203125,0.3203125
844,0.060546875,-1.2236328125,0.31640625
845,0.0126953125,-1.4111328125,0.2529296875
846,-0.029296875,-1.5712890625,0.083984375
847,-0.060546875,-1.681640625,-0.1201171875
848,-0.1044921875,-1.71875,-0.2978515625
849,-0.1611328125,-1.6494140625,-0.392578125
850,-0.2353515625,-1.5224609375,-0.4150390625
851,-0.3056640625,-1.3818359375,-0.40625
852,-0.3466796875,-1.220703125,-0.400390625
853,-0.34375,-1.083984375,-0.3916015625
854,-0.3359375,-0.966796875,-0.39453125
855,-0.2822265625,-0.8603515625,-0.3935546875
856,-0.2373046875,-0.8056640625,-0.388671875
857,-0.1923828125,-0.76171875,-0.3896484375
858,-0.1123046875,-0.736328125,-0.39453125
859,-0.0498046875,-0.71875,-0.400390625
860,0.03125,-0.7373046875,-0.3828125
861,0.0888671875,-0.7763671875,-0.3583984375
862,0.1484375,-0.8203125,-0.3330078125
863,0.1904296875,-0.857421875,-0.306640625
864,0.2216796875,-0.88671875,-0.2802734375
865,0.2353515625,-0.9150390625,-0.2578125
866,0.228515625,-0.9443359375,-0.21875
867,0.1953125,-0.98046875,-0.16796875
868,0.138671875,-0.99609375,-0.1240234375
869,0.0810546875,-0.9892578125,-0.1064453125
870,0.0185546875,-0.9658203125,-0.087890625
871,-0.048828125,-0.9375,-0.0791015625
872,-0.115234375,-0.91796875,-0.0810546875
873,-0.1748046875,-0.884765625,-0.0712890625
874,-0.2265625,-0.8623046875,-0.06640625
875,-0.259765625,-0.84765625,-0.0693359375
876,-0.294921875,-0.8349609375,-0.0810546875
877,-0.3388671875,-0.82421875,-0.0791015625
878,-0.3486328125,-0.8193359375,-0.1142578125
879,-0.3984375,-0.8046875,-0.109375
880,-0.4267578125,-0.7861328125,-0.08203125
881,-0.4296875,-0.78125,-0.0751953125
882,-0.431640625,-0.7705078125,-0.068359375
883,-0.4140625,-0.765625,-0.0634765625
884,-0.3798828125,-0.7685546875,-0.068359375
885,-0.345703125,-0.7802734375,-0.0625
886,-0.2939453125,-0.7890625,-0.0546875
887,-0.2451171875,-0.8056640625,-0.0693359375
888,-0.197265625,-0.8203125,-0.044921875
889,-0.13671875,-0.8408203125,-0.0078125
890,-0.0869140625,-0.8603515625,-0.0009765625
891,-0.037109375,-0.8720703125,0.0078125
892,0.005859375,-0.88671875,-0.00390625
893,0.033203125,-0.87890625,0.013671875
894,0.0615234375,-0.8779296875,0.013671875
895,0.0888671875,-0.873046875,0.0146484375
896,0.1015625,-0.869140625,0.0224609375
897,0.1162109375,-0.8701171875,0.0263671875
898,0.123046875,-0.8662109375,0.0283203125
899,0.119140625,-0.87109375,0.029296875
900,0.1083984375,-0.875,0.037109375
901,0.0947265625,-0.8779296875,0.0390625
902,0.09375,-0.888671875,0.03515625
903,0.078125,-0.900390625,0.0380859375
904,0.06640625,-0.90625,0.0419921875
905,0.0732421875,-0.9072265625,0.041015625
906,0.064453125,-0.9013671875,0.041015625
907,0.078125,-0.89453125,0.0439453125
908,0.083984375,-0.8896484375,0.0576171875
909,0.0947265625,-0.8818359375,0.068359375
910,0.095703125,-0.8701171875,0.072265625
911,0.1044921875,-0.8583984375,0.0859375
912,0.103515625,-0.84765625,0.1025390625
913,0.0947265625,-0.8505859375,0.09765625
914,0.0849609375,-0.841796875,0.1025390625
915,0.07421875,-0.85546875,0.099609375
916,0.0576171875,-0.8662109375,0.1005859375
917,0.0380859375,-0.8837890625,0.0966796875
918,0.0107421875,-0.900390625,0.0927734375
919,-0.013671875,-0.9287109375,0.09765625
920,-0.0361328125,-0.9453125,0.095703125
921,-0.05859375,-0.9638671875,0.09375
922,-0.0673828125,-0.9794921875,0.08203125
923,-0.0791015625,-0.9912109375,0.0693359375
924,-0.0849609375,-0.9951171875,0.0556640625
925,-0.0859375,-1.0107421875,0.04296875
926,-0.0908203125,-1.0107421875,0.033203125
927,-0.0810546875,-1.0234375,0.0283203125
928,-0.07421875,-1.0419921875,0.021484375
929,-0.083984375,-1.0634765625,0.03125
930,-0.0908203125,-1.0712890625,0.044921875
931,-0.0947265625,-1.0927734375,0.0615234375
932,-0.1083984375,-1.119140625,0.0654296875
933,-0.1220703125,-1.1396484375,0.076171875
934,-0.130859375,-1.150390625,0.0947265625
935,-0.1376953125,-1.1630859375,0.10546875
936,-0.140625,-1.162109375,0.119140625
937,-0.12890625,-1.15234375,0.1337890625
938,-0.1201171875,-1.142578125,0.1513671875
939,-0.0908203125,-1.1220703125,0.1650390625
940,-0.05859375,-1.1005859375,0.1865234375
941,-0.0234375,-1.07421875,0.2080078125
942,0.0078125,-1.05078125,0.232421875
943,0.017578125,-1.02734375,0.2578125
944,0.017578125,-0.98828125,0.291015625
945,0.005859375,-0.9638671875,0.3212890625
946,-0.013671875,-0.9365234375,0.3447265625
947,-0.029296875,-0.921875,0.3701171875
948,-0.0595703125,-0.916015625,0.38671875
949,-0.115234375,-0.923828125,0.3623046875
950,-0.1357421875,-0.9814453125,0.3515625
951,-0.1005859375,-1.0439453125,0.318359375
952,-0.08203125,-1.130859375,0.291015625
953,-0.078125,-1.28125,0.2255859375
954,-0.04296875,-1.4658203125,0.0986328125
955,0.0107421875,-1.6279296875,-0.068359375
956,0.0751953125,-1.7294921875,-0.326171875
957,0.146484375,-1.677734375,-0.4833984375
958,0.1591796875,-1.5068359375,-0.51953125
959,0.1513671875,-1.30859375,-0.486328125
960,0.109375,-1.1103515625,-0.4287109375
961,0.0673828125,-0.9365234375,-0.4111328125
962,-0.0048828125,-0.794921875,-0.41796875
963,-0.1015625,-0.6640625,-0.4189453125
964,-0.173828125,-0.548828125,-0.4111328125
965,-0.2431640625,-0.4638671875,-0.4013671875
966,-0.306640625,-0.4189453125,-0.37109375
967,-0.3564453125,-0.4208984375,-0.3330078125
968,-0.3828125,-0.474609375,-0.296875
969,-0.3857421875,-0.5732421875,-0.23828125
970,-0.369140625,-0.734375,-0.19921875
971,-0.3466796875,-0.8603515625,-0.169921875
972,-0.3046875,-0.986328125,-0.1552734375
973,-0.25390625,-1.078125,-0.142578125
974,-0.1767578125,-1.1337890625,-0.1328125
975,-0.107421875,-1.1630859375,-0.1015625
976,-0.033203125,-1.1630859375,-0.0712890625
977,0.0283203125,-1.1396484375,-0.0390625
978,0.07421875,-1.109375,-0.0185546875
979,0.107421875,-1.0732421875,-0.0068359375
980,0.1220703125,-1.052734375,-0.017578125
981,0.1396484375,-1.0283203125,-0.0400390625
982,0.146484375,-1.0068359375,-0.1162109375
983,0.1396484375,-0.953125,-0.1376953125
984,0.1728515625,-0.962890625,-0.1572265625
985,0.16796875,-0.9716796875,-0.1748046875
986,0.13671875,-0.9521484375,-0.1640625
987,0.115234375,-0.9501953125,-0.146484375
988,0.1220703125,-0.94921875,-0.134765625
989,0.0966796875,-0.943359375,-0.1396484375
990,0.046875,-0.9013671875,-0.12890625
991,-0.017578125,-0.8740234375,-0.103515625
992,-0.07421875,-0.8564453125,-0.0556640625
993,-0.0927734375,-0.8388671875,-0.076171875
994,-0.134765625,-0.8232421875,-0.05078125
995,-0.1591796875,-0.8017578125,-0.0673828125
996,-0.1640625,-0.7978515625,-0.0498046875
997,-0.18359375,-0.80859375,0.0126953125
998,-0.1669921875,-0.8388671875,0.052734375
999,-0.1376953125,-0.8544921875,0.0517578125
1000,-0.1513671875,-0.8583984375,0.0693359375
1001,-0.162109375,-0.859375,0.0888671875
1002,-0.1669921875,-0.873046875,0.1474609375
1003,-0.099609375,-0.876953125,0.09375
1004,-0.0693359375,-0.880859375,0.08203125
1005,-0.1865234375,-0.8408203125,0.1357421875
1006,-0.0703125,-0.875,0.130859375
1007,-0.0068359375,-0.8876953125,0.0576171875
1008,-0.0625,-0.875,0.0673828125
1009,-0.052734375,-0.87890625,0.076171875
1010,-0.0791015625,-0.8623046875,0.0869140625
1011,-0.064453125,-0.8720703125,0.046875
1012,-0.099609375,-0.865234375,0.0517578125
1013,-0.11328125,-0.861328125,0.05078125
1014,-0.1171875,-0.8671875,0.04296875
1015,-0.1298828125,-0.865234375,0.046875
1016,-0.1318359375,-0.8720703125,0.03125
1017,-0.1474609375,-0.8662109375,0.037109375
1018,-0.158203125,-0.8671875,0.05078125
1019,-0.1435546875,-0.86328125,0.056640625
1020,-0.15234375,-0.869140625,0.0673828125
1021,-0.16015625,-0.8720703125,0.0810546875
1022,-0.1630859375,-0.876953125,0.099609375
1023,-0.1572265625,-0.87890625,0.111328125
1024,-0.1650390625,-0.8837890625,0.119140625
1025,-0.166015625,-0.8916015625,0.130859375
1026,-0.1689453125,-0.90234375,0.1435546875
1027,-0.171875,-0.9169921875,0.1513671875
1028,-0.177734375,-0.9208984375,0.1494140625
1029,-0.1787109375,-0.927734375,0.1455078125
1030,-0.1728515625,-0.9306640625,0.1396484375
1031,-0.16796875,-0.927734375,0.1298828125
1032,-0.158203125,-0.9384765625,0.125
1033,-0.1416015625,-0.951171875,0.119140625
1034,-0.1357421875,-0.9736328125,0.1103515625
1035,-0.1318359375,-0.9892578125,0.1025390625
1036,-0.1357421875,-1.013671875,0.091796875
1037,-0.1396484375,-1.0224609375,0.0888671875
1038,-0.138671875,-1.029296875,0.087890625
1039,-0.1396484375,-1.0283203125,0.091796875
1040,-0.1318359375,-1.0234375,0.0966796875
1041,-0.125,-1.0263671875,0.107421875
1042,-0.1142578125,-1.0224609375,0.123046875
1043,-0.1025390625,-1.0205078125,0.138671875
1044,-0.0947265625,-1.0185546875,0.1611328125
1045,-0.091796875,-1.0224609375,0.1884765625
1046,-0.087890625,-1.02734375,0.2109375
1047,-0.0810546875,-1.0302734375,0.2236328125
1048,-0.076171875,-1.02734375,0.2412109375
1049,-0.0703125,-1.029296875,0.26171875
1050,-0.0615234375,-1.021484375,0.2861328125
1051,-0.0390625,-1.0107421875,0.3193359375
1052,-0.00390625,-0.9990234375,0.3388671875
1053,0.0244140625,-0.9765625,0.3623046875
1054,0.060546875,-0.9560546875,0.3798828125
1055,0.0166015625,-0.9150390625,0.4365234375
1056,0.1669921875,-0.9560546875,0.388671875
1057,0.33984375,-1.0859375,0.3232421875
1058,0.2578125,-1.150390625,0.25390625
1059,0.146484375,-1.28515625,0.1923828125
1060,0.0869140625,-1.431640625,0.1416015625
1061,0.015625,-1.568359375,0.05859375
1062,-0.0693359375,-1.6748046875,-0.1015625
1063,-0.1943359375,-1.73046875,-0.27734375
1064,-0.287109375,-1.7021484375,-0.41015625
1065,-0.36328125,-1.6162109375,-0.4345703125
1066,-0.4208984375,-1.482421875,-0.3935546875
1067,-0.447265625,-1.3173828125,-0.35546875
1068,-0.4560546875,-1.1220703125,-0.3359375
1069,-0.4189453125,-0.927734375,-0.3310546875
1070,-0.34765625,-0.7763671875,-0.333984375
1071,-0.2431640625,-0.6318359375,-0.328125
1072,-0.1005859375,-0.5625,-0.3369140625
1073,0.0048828125,-0.537109375,-0.3447265625
1074,0.0986328125,-0.552734375,-0.3447265625
1075,0.1650390625,-0.6142578125,-0.326171875
1076,0.208984375,-0.67578125,-0.3037109375
1077,0.2314453125,-0.7451171875,-0.275390625
1078,0.232421875,-0.8115234375,-0.2373046875
1079,0.2197265625,-0.8681640625,-0.1962890625
1080,0.1923828125,-0.916015625,-0.1484375
1081,0.1513671875,-0.96875,-0.1142578125
1082,0.0947265625,-1.005859375,-0.0830078125
1083,0.029296875,-1.025390625,-0.0625
1084,-0.033203125,-1.0400390625,-0.0458984375
1085,-0.123046875,-1.0244140625,-0.0439453125
1086,-0.1728515625,-1.00390625,-0.0478515625
1087,-0.2392578125,-0.9775390625,-0.041015625
1088,-0.275390625,-0.9384765625,-0.0556640625
1089,-0.3076171875,-0.9150390625,-0.0810546875
1090,-0.3486328125,-0.8916015625,-0.0791015625
1091,-0.3818359375,-0.8779296875,-0.0859375
1092,-0.3935546875,-0.8642578125,-0.115234375
1093,-0.3935546875,-0.84375,-0.1025390625
1094,-0.3984375,-0.841796875,-0.095703125
1095,-0.404296875,-0.828125,-0.0703125
1096,-0.3759765625,-0.8349609375,-0.056640625
1097,-0.3544921875,-0.8095703125,-0.0634765625
1098,-0.330078125,-0.8017578125,-0.05078125
1099,-0.2958984375,-0.7861328125,-0.037109375
1100,-0.24609375,-0.79296875,-0.00390625
1101,-0.185546875,-0.80078125,0.02734375
1102,-0.1298828125,-0.791015625,0.052734375
1103,-0.10546875,-0.7978515625,0.07421875
1104,-0.076171875,-0.810546875,0.0693359375
1105,-0.0478515625,-0.8251953125,0.056640625
1106,-0.0205078125,-0.83203125,0.05859375
1107,0.0146484375,-0.8359375,0.0625
1108,0.046875,-0.833984375,0.0615234375
1109,0.052734375,-0.8330078125,0.0595703125
1110,0.0498046875,-0.8359375,0.064453125
1111,0.0458984375,-0.833984375,0.046875
1112,0.0185546875,-0.8427734375,0.05078125
1113,0.0234375,-0.849609375,0.037109375
1114,0.025390625,-0.8564453125,0.033203125
1115,0.0048828125,-0.859375,0.037109375
1116,0.0048828125,-0.875,0.0380859375
1117,0.0048828125,-0.880859375,0.03125
1118,0.00390625,-0.8916015625,0.033203125
1119,0.0087890625,-0.90625,0.0302734375
1120,0.017578125,-0.9033203125,0.0302734375
1121,0.0322265625,-0.9091796875,0.0224609375
1122,0.025390625,-0.90625,0.0244140625
1123,0.0419921875,-0.908203125,0.0234375
1124,0.060546875,-0.908203125,0.0302734375
1125,0.0732421875,-0.9169921875,0.01953125
1126,0.0888671875,-0.9208984375,0.0283203125
1127,0.0791015625,-0.927734375,0.0322265625
1128,0.0869140625,-0.9248046875,0.0361328125
1129,0.078125,-0.9306640625,0.0439453125
1130,0.0703125,-0.9384765625,0.0546875
1131,0.056640625,-0.9384765625,0.0654296875
1132,0.0419921875,-0.94140625,0.072265625
1133,0.0390625,-0.9482421875,0.072265625
1134,0.02734375,-0.9599609375,0.0751953125
1135,0.0205078125,-0.9765625,0.076171875
1136,0.0166015625,-0.9833984375,0.076171875
1137,0.0087890625,-0.98828125,0.0791015625
1138,0.0107421875,-0.9931640625,0.0810546875
1139,0.0126953125,-1.0,0.0869140625
1140,0.0068359375,-1.00390625,0.08203125
1141,0.009765625,-1.013671875,0.087890625
1142,0.0078125,-1.0244140625,0.09375
1143,0.0048828125,-1.0341796875,0.09375
1144,-0.0048828125,-1.044921875,0.1064453125
1145,-0.017578125,-1.052734375,0.1123046875
1146,-0.0205078125,-1.05859375,0.1162109375
1147,-0.0244140625,-1.056640625,0.123046875
1148,-0.0517578125,-1.052734375,0.1298828125
1149,-0.0712890625,-1.0498046875,0.140625
1150,-0.0908203125,-1.0439453125,0.1435546875
1151,-0.1044921875,-1.0302734375,0.1455078125
1152,-0.1123046875,-1.0283203125,0.14453125
1153,-0.109375,-1.0263671875,0.1533203125
1154,-0.1083984375,-1.021484375,0.15625
1155,-0.0986328125,-1.03125,0.158203125
1156,-0.08203125,-1.033203125,0.1650390625
1157,-0.05859375,-1.041015625,0.169921875
1158,-0.04296875,-1.041015625,0.1865234375
1159,-0.03125,-1.033203125,0.205078125
1160,-0.01953125,-1.0185546875,0.2333984375
1161,-0.015625,-1.009765625,0.2685546875
1162,-0.015625,-0.998046875,0.2900390625
1163,-0.0224609375,-0.9853515625,0.3125
1164,-0.01953125,-0.9765625,0.3251953125
1165,-0.0322265625,-0.974609375,0.326171875
1166,-0.0712890625,-0.9853515625,0.3203125
1167,-0.0888671875,-1.029296875,0.296875
1168,-0.0859375,-1.083984375,0.2705078125
1169,-0.080078125,-1.1943359375,0.248046875
1170,-0.0703125,-1.330078125,0.1982421875
1171,-0.041015625,-1.4697265625,0.103515625
1172,0.00390625,-1.568359375,-0.01171875
1173,0.060546875,-1.5810546875,-0.1591796875
1174,0.1142578125,-1.4814453125,-0.2373046875
1175,0.1484375,-1.34765625,-0.2353515625
1176,0.189453125,-1.1943359375,-0.2236328125
1177,0.2041015625,-1.0546875,-0.2353515625
1178,0.189453125,-0.9375,-0.2490234375
1179,0.1279296875,-0.857421875,-0.2841796875
1180,0.0830078125,-0.7841796875,-0.353515625
1181,-0.0029296875,-0.71875,-0.3837890625
1182,-0.0771484375,-0.66796875,-0.3828125
1183,-0.1591796875,-0.6328125,-0.3486328125
1184,-0.2392578125,-0.619140625,-0.31640625
1185,-0.3037109375,-0.623046875,-0.2734375
1186,-0.3486328125,-0.6669921875,-0.2431640625
1187,-0.40234375,-0.73828125,-0.22265625
1188,-0.4189453125,-0.8203125,-0.203125
1189,-0.41796875,-0.9091796875,-0.181640625
1190,-0.408203125,-1.0009765625,-0.16796875
1191,-0.3583984375,-1.0712890625,-0.1396484375
1192,-0.298828125,-1.115234375,-0.1181640625
1193,-0.2470703125,-1.140625,-0.091796875
1194,-0.1689453125,-1.142578125,-0.0732421875
1195,-0.103515625,-1.126953125,-0.0478515625
1196,-0.029296875,-1.1044921875,-0.033203125
1197,0.0234375,-1.0712890625,-0.017578125
1198,0.0693359375,-1.0458984375,-0.0146484375
1199,0.109375,-1.01953125,-0.025390625
1200,0.1337890625,-1.013671875,-0.044921875
1201,0.16796875,-1.00390625,-0.0654296875
1202,0.193359375,-1.0009765625,-0.0830078125
1203,0.2138671875,-1.00390625,-0.091796875
1204,0.2294921875,-0.9912109375,-0.0986328125
1205,0.1962890625,-0.978515625,-0.0791015625
1206,0.19921875,-0.95703125,-0.08203125
1207,0.2373046875,-0.984375,-0.115234375
1208,0.15625,-0.9208984375,-0.0908203125
1209,0.18359375,-0.912109375,-0.1025390625
1210,0.1865234375,-0.9130859375,-0.1123046875
1211,0.1318359375,-0.8740234375,-0.10546875
1212,0.0673828125,-0.818359375,-0.08984375
1213,-0.265625,-0.640625,0.001953125
1214,-0.0810546875,-0.759765625,-0.0390625
1215,0.0537109375,-0.8193359375,-0.0478515625
1216,0.0634765625,-0.8056640625,-0.0986328125
1217,0.0009765625,-0.775390625,-0.076171875
1218,-0.0439453125,-0.775390625,-0.013671875
1219,-0.0751953125,-0.771484375,0.048828125
1220,-0.103515625,-0.7724609375,0.0712890625
1221,-0.1181640625,-0.7822265625,0.078125
1222,-0.185546875,-0.7685546875,0.076171875
1223,-0.1611328125,-0.80859375,0.1162109375
1224,-0.0908203125,-0.8466796875,0.060546875
1225,-0.125,-0.8525390625,0.0439453125
1226,-0.162109375,-0.8671875,0.0654296875
1227,-0.302734375,-0.822265625,0.1171875
1228,-0.220703125,-0.8896484375,0.095703125
1229,-0.1474609375,-0.931640625,0.0625
1230,-0.1748046875,-0.931640625,0.0478515625
1231,-0.2138671875,-0.921875,0.046875
1232,-0.23828125,-0.9169921875,0.05078125
1233,-0.25390625,-0.900390625,0.0625
1234,-0.2548828125,-0.8984375,0.0625
1235,-0.26953125,-0.89453125,0.06640625
1236,-0.275390625,-0.8994140625,0.0732421875
1237,-0.2724609375,-0.9013671875,0.091796875
1238,-0.267578125,-0.892578125,0.091796875
1239,-0.25390625,-0.8837890625,0.11328125
1240,-0.234375,-0.87890625,0.1142578125
1241,-0.228515625,-0.8759765625,0.1357421875
1242,-0.20703125,-0.873046875,0.15625
1243,-0.1904296875,-0.8779296875,0.1552734375
1244,-0.1650390625,-0.87109375,0.15234375
1245,-0.1640625,-0.875,0.15625
1246,-0.1591796875,-0.8798828125,0.1611328125
1247,-0.1533203125,-0.8857421875,0.1630859375
1248,-0.15234375,-0.900390625,0.16796875
1249,-0.134765625,-0.9228515625,0.171875
1250,-0.1337890625,-0.953125,0.162109375
1251,-0.1220703125,-0.978515625,0.1630859375
1252,-0.1201171875,-0.998046875,0.154296875
1253,-0.111328125,-1.025390625,0.154296875
1254,-0.099609375,-1.0498046875,0.1435546875
1255,-0.09375,-1.0634765625,0.1416015625
1256,-0.080078125,-1.07421875,0.138671875
1257,-0.0712890625,-1.076171875,0.140625
1258,-0.0625,-1.0712890625,0.14453125
1259,-0.0576171875,-1.0654296875,0.14453125
1260,-0.05078125,-1.056640625,0.1494140625
1261,-0.0478515625,-1.044921875,0.16015625
1262,-0.0439453125,-1.0263671875,0.169921875
1263,-0.0458984375,-1.017578125,0.1748046875
1264,-0.0546875,-1.0029296875,0.1865234375
1265,-0.0703125,-0.9970703125,0.19140625
1266,-0.08984375,-0.9921875,0.197265625
1267,-0.095703125,-0.9912109375,0.2001953125
1268,-0.10546875,-0.9892578125,0.2041015625
1269,-0.1162109375,-0.9892578125,0.220703125
1270,-0.109375,-0.9892578125,0.2314453125
1271,-0.099609375,-0.9853515625,0.244140625
1272,-0.0810546875,-0.9794921875,0.26953125
1273,-0.0517578125,-0.9638671875,0.291015625
1274,-0.0205078125,-0.94921875,0.3193359375
1275,0.0048828125,-0.9375,0.3525390625
1276,0.013671875,-0.9248046875,0.390625
1277,0.0283203125,-0.9130859375,0.38671875
1278,0.0390625,-0.916015625,0.3681640625
1279,0.1533203125,-0.9267578125,0.345703125
1280,0.201171875,-0.9521484375,0.32421875
1281,0.1240234375,-1.0546875,0.3076171875
1282,0.052734375,-1.1953125,0.236328125
1283,0.0078125,-1.3515625,0.158203125
1284,-0.037109375,-1.4755859375,0.0439453125
1285,-0.10546875,-1.552734375,-0.1123046875
1286,-0.1689453125,-1.5859375,-0.2734375
1287,-0.20703125,-1.552734375,-0.3837890625
1288,-0.2216796875,-1.4345703125,-0.4169921875
1289,-0.2666015625,-1.326171875,-0.3720703125
1290,-0.2998046875,-1.2119140625,-0.318359375
1291,-0.3154296875,-1.119140625,-0.296875
1292,-0.28515625,-1.033203125,-0.310546875
1293,-0.224609375,-0.9521484375,-0.3310546875
1294,-0.13671875,-0.8779296875,-0.359375
1295,-0.0498046875,-0.8125,-0.390625
1296,0.03515625,-0.767578125,-0.404296875
1297,0.1064453125,-0.7392578125,-0.4072265625
1298,0.185546875,-0.7353515625,-0.3955078125
1299,0.23828125,-0.751953125,-0.390625
1300,0.2861328125,-0.787109375,-0.3671875
1301,0.3232421875,-0.841796875,-0.3310546875
1302,0.31640625,-0.8837890625,-0.3017578125
1303,0.2890625,-0.93359375,-0.2607421875
1304,0.244140625,-0.994140625,-0.2119140625
1305,0.1806640625,-1.033203125,-0.162109375
1306,0.1025390625,-1.0576171875,-0.12890625
1307,0.025390625,-1.0634765625,-0.1064453125
1308,-0.060546875,-1.0458984375,-0.115234375
1309,-0.1337890625,-1.0224609375,-0.125
1310,-0.197265625,-0.9912109375,-0.1240234375
1311,-0.248046875,-0.9580078125,-0.130859375
1312,-0.2890625,-0.9306640625,-0.1328125
1313,-0.3232421875,-0.904296875,-0.126953125
1314,-0.359375,-0.900390625,-0.1162109375
1315,-0.3818359375,-0.8994140625,-0.10546875
1316,-0.39453125,-0.89453125,-0.1025390625
1317,-0.3974609375,-0.8955078125,-0.087890625
1318,-0.4013671875,-0.8916015625,-0.0810546875
1319,-0.390625,-0.8837890625,-0.068359375
1320,-0.3681640625,-0.8740234375,-0.056640625
1321,-0.3603515625,-0.859375,-0.04296875
1322,-0.326171875,-0.84375,-0.02734375
1323,-0.283203125,-0.83203125,-0.0146484375
1324,-0.2587890625,-0.8193359375,0.0
1325,-0.2333984375,-0.80859375,0.0361328125
1326,-0.2119140625,-0.8017578125,0.0546875
1327,-0.1337890625,-0.8017578125,0.05078125
1328,-0.115234375,-0.7880859375,0.0419921875
1329,-0.06640625,-0.78125,0.0546875
1330,-0.001953125,-0.822265625,0.1103515625
1331,0.05859375,-0.861328125,0.1396484375
1332,0.119140625,-0.8955078125,0.1083984375
1333,0.068359375,-0.8837890625,0.0732421875
1334,0.078125,-0.904296875,0.078125
1335,0.123046875,-0.921875,0.0576171875
1336,0.08203125,-0.9296875,0.0615234375
1337,0.0712890625,-0.9208984375,0.060546875
1338,0.0869140625,-0.919921875,0.0625
1339,0.091796875,-0.9326171875,0.0673828125
1340,0.0947265625,-0.9384765625,0.0712890625
1341,0.0947265625,-0.953125,0.0703125
1342,0.09375,-0.97265625,0.0732421875
1343,0.0947265625,-0.9755859375,0.072265625
1344,0.0927734375,-0.9755859375,0.0751953125
1345,0.1015625,-0.9775390625,0.07421875
1346,0.1025390625,-0.9814453125,0.0751953125
1347,0.1015625,-0.98828125,0.0654296875
1348,0.1044921875,-0.9794921875,0.0546875
1349,0.09375,-0.9833984375,0.046875
1350,0.0810546875,-0.9658203125,0.0458984375
1351,0.0712890625,-0.9453125,0.04296875
1352,0.0537109375,-0.93359375,0.04296875
1353,0.0361328125,-0.921875,0.04296875
1354,0.03515625,-0.9072265625,0.046875
1355,0.033203125,-0.8974609375,0.0556640625
1356,0.00390625,-0.892578125,0.0546875
1357,-0.0224609375,-0.88671875,0.080078125
1358,-0.0419921875,-0.876953125,0.0859375
1359,-0.0458984375,-0.8828125,0.0859375
1360,-0.0537109375,-0.88671875,0.087890625
1361,-0.060546875,-0.8837890625,0.087890625
1362,-0.07421875,-0.8798828125,0.095703125
1363,-0.09375,-0.8720703125,0.0986328125
1364,-0.0966796875,-0.869140625,0.09375
1365,-0.1201171875,-0.8583984375,0.09375
1366,-0.13671875,-0.8505859375,0.0947265625
1367,-0.1630859375,-0.83203125,0.095703125
1368,-0.1630859375,-0.83203125,0.103515625
1369,-0.162109375,-0.83984375,0.1005859375
1370,-0.15234375,-0.84765625,0.1025390625
1371,-0.146484375,-0.8603515625,0.1015625
1372,-0.13671875,-0.8544921875,0.1015625
1373,-0.1220703125,-0.8544921875,0.09765625
1374,-0.0927734375,-0.8583984375,0.091796875
1375,-0.064453125,-0.8720703125,0.0908203125
1376,-0.033203125,-0.87890625,0.0751953125
1377,-0.0078125,-0.892578125,0.0673828125
1378,0.0205078125,-0.89453125,0.0625
1379,0.052734375,-0.904296875,0.0546875
1380,0.0712890625,-0.9091796875,0.0439453125
1381,0.0927734375,-0.91796875,0.0380859375
1382,0.1025390625,-0.9228515625,0.044921875
1383,0.107421875,-0.931640625,0.048828125
1384,0.10546875,-0.9521484375,0.056640625
1385,0.0869140625,-0.9931640625,0.0634765625
1386,0.0576171875,-1.0244140625,0.0595703125
1387,0.0400390625,-1.091796875,0.05078125
1388,0.0205078125,-1.1728515625,0.015625
1389,0.021484375,-1.29296875,-0.0400390625
1390,0.01953125,-1.4609375,-0.16796875
1391,0.0029296875,-1.58203125,-0.2841796875
1392,-0.0234375,-1.6669921875,-0.3828125
1393,-0.056640625,-1.6845703125,-0.43359375
1394,-0.109375,-1.626953125,-0.3818359375
1395,-0.1689453125,-1.5146484375,-0.26171875
1396,-0.25390625,-1.384765625,-0.1142578125
1397,-0.3251953125,-1.2607421875,-0.0048828125
1398,-0.361328125,-1.1611328125,0.0546875
1399,-0.3984375,-1.0849609375,0.07421875
1400,-0.46484375,-1.0048828125,0.060546875
1401,-0.494140625,-0.9423828125,0.0390625
1402,-0.47265625,-0.90625,-0.0078125
1403,-0.3984375,-0.87109375,-0.0361328125
1404,-0.3134765625,-0.869140625,-0.0283203125
1405,-0.220703125,-0.87890625,-0.0166015625
1406,-0.134765625,-0.8828125,-0.001953125
1407,-0.0634765625,-0.8857421875,0.0068359375
1408,0.0107421875,-0.8828125,-0.0126953125
1409,0.0732421875,-0.896484375,-0.0400390625
1410,0.1142578125,-0.8798828125,-0.0849609375
1411,0.1357421875,-0.83203125,-0.1513671875
1412,0.1552734375,-0.78125,-0.1904296875
1413,0.1533203125,-0.7548828125,-0.20703125
1414,0.1201171875,-0.724609375,-0.21875
1415,0.0693359375,-0.7216796875,-0.232421875
1416,0.0078125,-0.7333984375,-0.2412109375
1417,-0.0380859375,-0.7578125,-0.24609375
1418,-0.07421875,-0.771484375,-0.2490234375
1419,-0.1142578125,-0.7900390625,-0.251953125
1420,-0.14453125,-0.8251953125,-0.2451171875
1421,-0.1728515625,-0.8544921875,-0.2265625
1422,-0.1943359375,-0.896484375,-0.2041015625
1423,-0.20703125,-0.94140625,-0.173828125
1424,-0.2119140625,-1.00390625,-0.1533203125
1425,-0.2109375,-1.05078125,-0.130859375
1426,-0.2099609375,-1.0830078125,-0.1220703125
1427,-0.1767578125,-1.1220703125,-0.1044921875
1428,-0.1591796875,-1.1494140625,-0.087890625
1429,-0.12890625,-1.1494140625,-0.0859375
1430,-0.1064453125,-1.1376953125,-0.095703125
1431,-0.0732421875,-1.09765625,-0.1201171875
1432,-0.0498046875,-1.029296875,-0.142578125
1433,-0.0244140625,-0.9521484375,-0.16796875
1434,-0.0078125,-0.87890625,-0.18359375
1435,-0.0009765625,-0.814453125,-0.1796875
1436,0.0087890625,-0.7783203125,-0.1708984375
1437,0.01171875,-0.75,-0.150390625
1438,0.0087890625,-0.7412109375,-0.1318359375
1439,0.0087890625,-0.755859375,-0.1201171875
1440,0.0048828125,-0.7705078125,-0.103515625
1441,-0.0068359375,-0.814453125,-0.09765625
1442,-0.029296875,-0.837890625,-0.0947265625
1443,-0.052734375,-0.8720703125,-0.0908203125
1444,-0.08203125,-0.9072265625,-0.0859375
1445,-0.1103515625,-0.9560546875,-0.0830078125
1446,-0.1416015625,-0.9970703125,-0.0732421875
1447,-0.166015625,-1.0205078125,-0.0625
1448,-0.18359375,-1.044921875,-0.0498046875
1449,-0.2001953125,-1.05078125,-0.0458984375
1450,-0.2021484375,-1.05078125,-0.0361328125
1451,-0.19140625,-1.05078125,-0.037109375
1452,-0.1787109375,-1.0400390625,-0.04296875
1453,-0.1630859375,-1.0244140625,-0.0458984375
1454,-0.140625,-0.998046875,-0.0458984375
1455,-0.1201171875,-0.9873046875,-0.052734375
1456,-0.103515625,-0.95703125,-0.0498046875
1457,-0.0810546875,-0.939453125,-0.0498046875
1458,-0.0634765625,-0.923828125,-0.044921875
1459,-0.044921875,-0.908203125,-0.0439453125
1460,-0.0419921875,-0.8994140625,-0.0400390625
1461,-0.037109375,-0.8896484375,-0.0458984375
1462,-0.03515625,-0.884765625,-0.0361328125
1463,-0.0390625,-0.8828125,-0.0380859375
1464,-0.0458984375,-0.880859375,-0.0341796875
1465,-0.0546875,-0.8837890625,-0.037109375
1466,-0.064453125,-0.8857421875,-0.03125
1467,-0.0625,-0.8994140625,-0.0302734375
1468,-0.0693359375,-0.904296875,-0.033203125
1469,-0.0615234375,-0.9140625,-0.0400390625
1470,-0.0615234375,-0.9248046875,-0.0419921875
1471,-0.0595703125,-0.9326171875,-0.04296875
1472,-0.0625,-0.94140625,-0.04296875
1473,-0.072265625,-0.94921875,-0.0439453125
1474,-0.0927734375,-0.9736328125,-0.0419921875
1475,-0.10546875,-0.986328125,-0.0400390625
1476,-0.1328125,-1.0029296875,-0.044921875
1477,-0.162109375,-1.02734375,-0.05078125
1478,-0.189453125,-1.0634765625,-0.0517578125
1479,-0.2236328125,-1.0986328125,-0.08203125
1480,-0.271484375,-1.13671875,-0.0966796875
1481,-0.30859375,-1.1669921875,-0.115234375
1482,-0.34375,-1.1904296875,-0.1416015625
1483,-0.369140625,-1.2041015625,-0.1611328125
1484,-0.39453125,-1.203125,-0.1865234375
1485,-0.41015625,-1.1806640625,-0.19921875
1486,-0.4091796875,-1.142578125,-0.203125
1487,-0.4091796875,-1.0966796875,-0.1962890625
1488,-0.3974609375,-1.0224609375,-0.17578125
1489,-0.3720703125,-0.9443359375,-0.146484375
1490,-0.34765625,-0.86328125,-0.1201171875
1491,-0.31640625,-0.7744140625,-0.12109375
1492,-0.25390625,-0.67578125,-0.080078125
1493,-0.19140625,-0.642578125,-0.0400390625
1494,-0.15625,-0.6435546875,-0.013671875
1495,-0.1083984375,-0.6748046875,-0.015625
1496,-0.095703125,-0.716796875,-0.0283203125
1497,-0.1064453125,-0.763671875,-0.0205078125
1498,-0.115234375,-0.791015625,-0.0126953125
1499,-0.1201171875,-0.818359375,-0.005859375
1500,-0.1181640625,-0.853515625,-0.01171875
1501,-0.1123046875,-0.884765625,-0.0107421875
1502,-0.115234375,-0.9189453125,-0.01953125
1503,-0.10546875,-0.9453125,-0.03515625
1504,-0.1005859375,-0.97265625,-0.0478515625
1505,-0.0888671875,-0.98046875,-0.0537109375
1506,-0.083984375,-0.98046875,-0.0693359375
1507,-0.0751953125,-0.978515625,-0.083984375
1508,-0.0703125,-0.9658203125,-0.0927734375
1509,-0.0693359375,-0.947265625,-0.1025390625
1510,-0.0595703125,-0.94140625,-0.111328125
1511,-0.064453125,-0.9267578125,-0.1162109375
1512,-0.05859375,-0.91796875,-0.126953125
1513,-0.0537109375,-0.912109375,-0.138671875
1514,-0.048828125,-0.9013671875,-0.1513671875
1515,-0.0419921875,-0.8974609375,-0.150390625
1516,-0.0478515625,-0.89453125,-0.15234375
1517,-0.0595703125,-0.8876953125,-0.1513671875
1518,-0.0625,-0.8896484375,-0.1552734375
1519,-0.06640625,-0.888671875,-0.138671875
1520,-0.07421875,-0.8994140625,-0.1337890625
1521,-0.072265625,-0.90234375,-0.130859375
1522,-0.0693359375,-0.9208984375,-0.1220703125
1523,-0.0673828125,-0.9365234375,-0.11328125
1524,-0.0625,-0.947265625,-0.1064453125
1525,-0.0556640625,-0.962890625,-0.1005859375
1526,-0.0498046875,-0.96484375,-0.1015625
1527,-0.0439453125,-0.982421875,-0.1044921875
1528,-0.0390625,-0.9833984375,-0.1123046875
1529,-0.033203125,-0.98046875,-0.111328125
1530,-0.0234375,-0.9765625,-0.115234375
1531,-0.0185546875,-0.953125,-0.11328125
1532,-0.01171875,-0.9462890625,-0.107421875
1533,-0.0029296875,-0.9443359375,-0.099609375
1534,-0.005859375,-0.931640625,-0.0810546875
1535,-0.005859375,-0.935546875,-0.07421875
1536,-0.0068359375,-0.93359375,-0.0478515625
1537,-0.0087890625,-0.9404296875,-0.0341796875
1538,-0.0107421875,-0.9482421875,-0.017578125
1539,-0.0068359375,-0.953125,-0.0087890625
1540,-0.0078125,-0.9716796875,-0.0068359375
1541,-0.0029296875,-0.9609375,-0.0048828125
1542,-0.0146484375,-0.9541015625,-0.017578125
1543,-0.0029296875,-0.9638671875,-0.033203125
1544,-0.00390625,-0.955078125,-0.0419921875
1545,0.0048828125,-0.9560546875,-0.0634765625
1546,0.01171875,-0.951171875,-0.0791015625
1547,0.025390625,-0.9521484375,-0.0849609375
1548,0.0478515625,-0.9609375,-0.09765625
1549,0.0517578125,-0.9560546875,-0.078125
1550,0.080078125,-0.9765625,-0.1005859375
1551,0.09765625,-0.986328125,-0.107421875
1552,0.111328125,-1.0009765625,-0.107421875
1553,0.125,-1.01171875,-0.123046875
1554,0.1357421875,-1.021484375,-0.1279296875
1555,0.1181640625,-1.021484375,-0.1435546875
1556,0.1123046875,-1.0244140625,-0.1484375
1557,0.0869140625,-1.0,-0.138671875
1558,0.0673828125,-0.984375,-0.1220703125
1559,0.0498046875,-0.9677734375,-0.1025390625
1560,0.037109375,-0.955078125,-0.080078125
1561,0.03125,-0.9677734375,-0.068359375
1562,0.0419921875,-0.98046875,-0.0732421875
1563,0.05078125,-0.99609375,-0.0947265625
1564,0.0556640625,-1.013671875,-0.111328125
1565,0.060546875,-1.02734375,-0.125
1566,0.0625,-1.025390625,-0.1220703125
1567,0.0859375,-1.0234375,-0.1259765625
1568,0.1220703125,-1.0244140625,-0.1494140625
1569,0.1396484375,-1.00390625,-0.1513671875
1570,0.15234375,-0.9873046875,-0.166015625
1571,0.15234375,-0.962890625,-0.1748046875
1572,0.1298828125,-0.939453125,-0.189453125
1573,0.103515625,-0.9267578125,-0.2060546875
1574,0.07421875,-0.90625,-0.21484375
1575,0.0419921875,-0.89453125,-0.2236328125
1576,0.0205078125,-0.884765625,-0.2216796875
1577,-0.0048828125,-0.8759765625,-0.2138671875
1578,-0.0302734375,-0.87890625,-0.2041015625
1579,-0.0458984375,-0.8662109375,-0.1904296875
1580,-0.06640625,-0.8642578125,-0.173828125
1581,-0.0615234375,-0.8642578125,-0.154296875
1582,-0.0625,-0.853515625,-0.146484375
1583,-0.0576171875,-0.859375,-0.1376953125
1584,-0.041015625,-0.85546875,-0.1298828125
1585,-0.025390625,-0.857421875,-0.1279296875
1586,-0.0146484375,-0.849609375,-0.123046875
1587,-0.001953125,-0.8388671875,-0.1220703125
1588,0.021484375,-0.8330078125,-0.130859375
1589,0.0224609375,-0.8203125,-0.130859375
1590,0.0322265625,-0.810546875,-0.1376953125
1591,0.0205078125,-0.80859375,-0.134765625
1592,0.0400390625,-0.8095703125,-0.138671875
1593,0.0419921875,-0.8203125,-0.15234375
1594,0.04296875,-0.833984375,-0.140625
1595,0.0439453125,-0.833984375,-0.1396484375
1596,0.0400390625,-0.83203125,-0.1318359375
1597,0.03515625,-0.8447265625,-0.1318359375
1598,0.033203125,-0.8408203125,-0.1259765625
1599,0.0234375,-0.841796875,-0.1220703125
1600,0.017578125,-0.837890625,-0.119140625
1601,0.0185546875,-0.8349609375,-0.109375
1602,0.0126953125,-0.83203125,-0.1103515625
1603,0.0166015625,-0.830078125,-0.1083984375
1604,0.021484375,-0.82421875,-0.1083984375
1605,0.0380859375,-0.8271484375,-0.12109375
1606,0.046875,-0.826171875,-0.1337890625
1607,0.0537109375,-0.81640625,-0.1533203125
1608,0.068359375,-0.8203125,-0.1572265625
1609,0.0654296875,-0.8154296875,-0.162109375
1610,0.0634765625,-0.80078125,-0.1513671875
1611,0.0703125,-0.783203125,-0.1494140625
1612,0.07421875,-0.7724609375,-0.1494140625
1613,0.0810546875,-0.7607421875,-0.146484375
1614,0.09375,-0.7373046875,-0.150390625
1615,0.1005859375,-0.720703125,-0.1494140625
1616,0.1103515625,-0.6962890625,-0.166015625
1617,0.12890625,-0.6650390625,-0.177734375
1618,0.134765625,-0.6435546875,-0.1923828125
1619,0.1435546875,-0.6259765625,-0.216796875
1620,0.1494140625,-0.5859375,-0.23828125
1621,0.142578125,-0.5595703125,-0.2421875
1622,0.1357421875,-0.5400390625,-0.25
1623,0.1259765625,-0.5146484375,-0.2451171875
1624,0.1279296875,-0.5087890625,-0.2490234375
1625,0.1328125,-0.5087890625,-0.2568359375
1626,0.1376953125,-0.5029296875,-0.2646484375
1627,0.1376953125,-0.484375,-0.2646484375
1628,0.140625,-0.458984375,-0.271484375
1629,0.1513671875,-0.4267578125,-0.275390625
1630,0.1591796875,-0.400390625,-0.27734375
1631,0.1708984375,-0.3603515625,-0.2724609375
1632,0.1728515625,-0.30859375,-0.25390625
1633,0.1708984375,-0.271484375,-0.22265625
1634,0.1591796875,-0.2333984375,-0.1787109375
1635,0.146484375,-0.2138671875,-0.134765625
1636,0.1240234375,-0.212890625,-0.10546875
1637,0.0927734375,-0.1982421875,-0.0791015625
1638,0.06640625,-0.2001953125,-0.0947265625
1639,0.01171875,-0.2001953125,-0.111328125
1640,-0.0458984375,-0.1845703125,-0.134765625
1641,-0.1015625,-0.162109375,-0.138671875
1642,-0.138671875,-0.1298828125,-0.1552734375
1643,-0.173828125,-0.09375,-0.1611328125
1644,-0.19140625,-0.05078125,-0.1494140625
1645,-0.2060546875,-0.013671875,-0.134765625
1646,-0.2353515625,0.0126953125,-0.123046875
1647,-0.271484375,0.033203125,-0.0751953125
1648,-0.3037109375,0.0498046875,-0.046875
1649,-0.3466796875,0.046875,-0.0390625
1650,-0.3720703125,0.048828125,-0.044921875
1651,-0.4013671875,0.033203125,-0.06640625
1652,-0.4365234375,0.01953125,-0.0869140625
1653,-0.4541015625,0.017578125,-0.09765625
1654,-0.478515625,0.00390625,-0.1298828125
1655,-0.51171875,-0.009765625,-0.1181640625
1656,-0.5361328125,-0.0263671875,-0.1015625
1657,-0.552734375,-0.03515625,-0.09375
1658,-0.56640625,-0.0498046875,-0.0712890625
1659,-0.546875,-0.0517578125,-0.060546875
1660,-0.505859375,-0.0615234375,-0.0927734375
1661,-0.484375,-0.080078125,-0.140625
1662,-0.474609375,-0.1142578125,-0.1708984375
1663,-0.4677734375,-0.1357421875,-0.1767578125
1664,-0.4794921875,-0.16796875,-0.1982421875
1665,-0.51171875,-0.1904296875,-0.25
1666,-0.5576171875,-0.2353515625,-0.2626953125
1667,-0.599609375,-0.2939453125,-0.3017578125
1668,-0.6630859375,-0.3505859375,-0.318359375
1669,-0.744140625,-0.4267578125,-0.3134765625
1670,-0.7744140625,-0.513671875,-0.30859375
1671,-0.86328125,-0.646484375,-0.28125
1672,-0.9091796875,-0.7734375,-0.2275390625
1673,-0.9716796875,-0.8603515625,-0.1640625
1674,-1.0146484375,-0.9111328125,-0.111328125
1675,-1.013671875,-0.951171875,-0.09375
1676,-1.0419921875,-1.0322265625,-0.1708984375
1677,-1.0361328125,-1.0751953125,-0.30078125
1678,-0.998046875,-1.119140625,-0.46484375
1679,-0.9091796875,-1.1767578125,-0.634765625
1680,-0.8525390625,-1.265625,-0.771484375
1681,-0.796875,-1.365234375,-0.849609375
1682,-0.759765625,-1.439453125,-0.8642578125
1683,-0.7138671875,-1.5400390625,-0.783203125
1684,-0.7509765625,-1.6875,-0.6904296875
1685,-0.78515625,-1.8603515625,-0.6279296875
1686,-0.89453125,-1.9794921875,-0.609375
1687,-1.0576171875,-1.974609375,-0.6611328125
1688,-1.2001953125,-1.962890625,-0.6640625
1689,-1.328125,-1.900390625,-0.60546875
1690,-1.4306640625,-1.798828125,-0.5498046875
1691,-1.5419921875,-1.779296875,-0.4306640625
1692,-1.56640625,-1.7841796875,-0.3291015625
1693,-1.6181640625,-1.7861328125,-0.283203125
1694,-1.6826171875,-1.7822265625,-0.3505859375
1695,-1.7392578125,-1.7685546875,-0.490234375
1696,-1.7958984375,-1.7744140625,-0.74609375
1697,-1.955078125,-1.8564453125,-0.8447265625
1698,-2.0498046875,-1.916015625,-0.8681640625
1699,-2.224609375,-2.083984375,-0.7421875
1700,-2.359375,-2.3154296875,-0.6025390625
1701,-2.412109375,-2.5849609375,-0.3994140625
1702,-2.306640625,-2.6220703125,-0.2578125
1703,-1.98046875,-2.486328125,-0.2177734375
1704,-1.58984375,-2.1513671875,-0.166015625
1705,-1.099609375,-1.6728515625,0.0
1706,-0.486328125,-1.25,0.2744140625
1707,0.0341796875,-0.919921875,0.568359375
1708,0.3095703125,-0.650390625,0.8193359375
1709,0.32421875,-0.314453125,0.806640625
1710,0.1103515625,-0.1044921875,0.6640625
1711,-0.146484375,0.078125,0.3828125
1712,-0.451171875,0.2197265625,0.22265625
1713,-0.6396484375,0.3154296875,0.15625
1714,-0.75,0.3349609375,0.162109375
1715,-0.8427734375,0.3046875,0.2333984375
1716,-0.958984375,0.2373046875,0.478515625
1717,-1.1884765625,0.0654296875,0.6298828125
1718,-1.3017578125,-0.1240234375,0.728515625
1719,-1.259765625,-0.3095703125,0.8046875
1720,-1.0859375,-0.470703125,0.8154296875
1721,-0.970703125,-0.673828125,0.9189453125
1722,-0.8779296875,-0.6962890625,0.9150390625
1723,-0.828125,-0.5595703125,0.908203125
1724,-0.818359375,-0.4853515625,0.91796875
1725,-0.9033203125,-0.2900390625,0.857421875
1726,-0.958984375,-0.0703125,1.05859375
1727,-1.21484375,0.2470703125,1.4306640625
1728,-1.5537109375,0.7001953125,1.767578125
1729,-1.888671875,1.19921875,2.1435546875
1730,-2.2001953125,1.78125,2.5712890625
1731,-2.3857421875,2.3125,2.83984375
1732,-2.4736328125,2.615234375,2.6142578125
1733,-2.44140625,2.4462890625,1.8486328125
1734,-2.12109375,2.0478515625,0.7900390625
1735,-1.599609375,1.783203125,0.8623046875
1736,-1.06640625,1.337890625,1.0576171875
1737,-0.6572265625,0.8330078125,0.869140625
1738,-0.283203125,0.4130859375,1.0205078125
1739,-0.1787109375,-0.0078125,0.8095703125
1740,-0.166015625,-0.455078125,0.4931640625
1741,-0.28125,-0.841796875,0.16796875
1742,-0.5029296875,-1.1943359375,-0.09765625
1743,-0.6875,-1.388671875,-0.1767578125
1744,-0.90625,-1.4404296875,-0.0947265625
1745,-1.0361328125,-1.25,-0.0556640625
1746,-1.06640625,-0.8818359375,-0.0009765625
1747,-0.986328125,-0.365234375,0.0361328125
1748,-0.87109375,0.02734375,0.1328125
1749,-0.7880859375,0.4287109375,0.3173828125
1750,-0.650390625,0.765625,0.46875
1751,-0.552734375,1.0595703125,0.60546875
1752,-0.4658203125,1.2451171875,0.734375
1753,-0.412109375,1.2919921875,0.810546875
1754,-0.3544921875,1.203125,0.7939453125
1755,-0.330078125,1.048828125,0.6962890625
1756,-0.2451171875,0.857421875,0.5859375
1757,-0.173828125,0.6328125,0.5087890625
1758,-0.1318359375,0.41796875,0.4541015625
1759,-0.0849609375,0.2900390625,0.4287109375
1760,-0.087890625,0.2236328125,0.3818359375
1761,-0.0712890625,0.154296875,0.3759765625
1762,-0.0341796875,0.1298828125,0.3505859375
1763,-0.1259765625,0.189453125,0.400390625
1764,-0.046875,0.2041015625,0.375
1765,-0.0068359375,0.2958984375,0.3994140625
1766,0.078125,0.3916015625,0.462890625
1767,0.1064453125,0.484375,0.5390625
1768,0.123046875,0.544921875,0.609375
1769,0.1591796875,0.5869140625,0.6630859375
1770,0.166015625,0.62890625,0.7001953125
1771,0.173828125,0.6396484375,0.73046875
1772,0.1953125,0.6416015625,0.701171875
1773,0.2958984375,0.6572265625,0.6748046875
1774,0.380859375,0.6630859375,0.662109375
1775,0.3984375,0.587890625,0.69921875
1776,0.42578125,0.5703125,0.6923828125
1777,0.4365234375,0.5712890625,0.6806640625
1778,0.4580078125,0.5810546875,0.6826171875
1779,0.4951171875,0.5888671875,0.69921875
1780,0.4931640625,0.5537109375,0.7841796875
1781,0.5380859375,0.5078125,0.76953125
1782,0.517578125,0.455078125,0.7890625
1783,0.4931640625,0.435546875,0.7744140625
1784,0.564453125,0.375,0.8125
1785,0.4765625,0.35546875,0.8466796875
1786,0.3935546875,0.3193359375,0.8623046875
1787,0.3193359375,0.2998046875,0.8857421875
1788,0.2861328125,0.2822265625,0.9287109375
1789,0.2431640625,0.2685546875,0.9638671875
1790,0.1630859375,0.2744140625,1.0302734375
1791,0.091796875,0.2705078125,1.1240234375
1792,0.0458984375,0.255859375,1.1962890625
1793,-0.0029296875,0.21484375,1.30078125
1794,-0.0234375,0.1552734375,1.3896484375
1795,-0.0791015625,0.103515625,1.4443359375
1796,-0.1416015625,0.0751953125,1.5
1797,-0.185546875,0.041015625,1.5634765625
1798,-0.2490234375,-0.025390625,1.6318359375
1799,-0.3349609375,-0.0830078125,1.7236328125
1800,-0.4189453125,-0.1474609375,1.814453125
1801,-0.4765625,-0.185546875,1.828125
1802,-0.548828125,-0.2236328125,1.81640625
1803,-0.5673828125,-0.251953125,1.7646484375
1804,-0.58203125,-0.283203125,1.74609375
1805,-0.5791015625,-0.3447265625,1.69921875
1806,-0.5322265625,-0.39453125,1.6064453125
1807,-0.4697265625,-0.4384765625,1.501953125
1808,-0.4775390625,-0.48828125,1.42578125
1809,-0.5068359375,-0.5146484375,1.359375
1810,-0.451171875,-0.515625,1.2587890625
1811,-0.380859375,-0.5029296875,1.21484375
1812,-0.3583984375,-0.4951171875,1.1962890625
1813,-0.326171875,-0.484375,1.1689453125
1814,-0.2353515625,-0.5107421875,1.1064453125
1815,-0.1728515625,-0.462890625,1.060546875
1816,-0.08203125,-0.408203125,1.0341796875
1817,-0.0546875,-0.349609375,1.0078125
1818,-0.0849609375,-0.28125,0.974609375
1819,-0.1064453125,-0.1943359375,0.9208984375
1820,-0.1318359375,-0.087890625,0.859375
1821,-0.1494140625,0.025390625,0.81640625
1822,-0.169921875,0.1298828125,0.7890625
1823,-0.1943359375,0.216796875,0.748046875
1824,-0.2109375,0.25,0.69140625
1825,-0.2451171875,0.2509765625,0.6064453125
1826,-0.248046875,0.2177734375,0.541015625
1827,-0.2880859375,0.158203125,0.4990234375
1828,-0.310546875,0.0751953125,0.4482421875
1829,-0.341796875,0.0048828125,0.4208984375
1830,-0.37890625,-0.0673828125,0.39453125
1831,-0.3955078125,-0.11328125,0.3740234375
1832,-0.439453125,-0.146484375,0.396484375
1833,-0.4775390625,-0.1650390625,0.361328125
1834,-0.51953125,-0.166015625,0.3544921875
1835,-0.556640625,-0.154296875,0.3505859375
1836,-0.6044921875,-0.1474609375,0.3828125
1837,-0.65625,-0.1083984375,0.388671875
1838,-0.6875,-0.099609375,0.4169921875
1839,-0.7109375,-0.068359375,0.4453125
1840,-0.7373046875,-0.0419921875,0.4794921875
1841,-0.7998046875,-0.0380859375,0.5263671875
1842,-0.830078125,-0.0361328125,0.55859375
1843,-0.87109375,-0.046875,0.607421875
1844,-0.8974609375,-0.0546875,0.6474609375
1845,-0.9453125,-0.103515625,0.6806640625
1846,-0.994140625,-0.171875,0.7158203125
1847,-1.0419921875,-0.22265625,0.72265625
1848,-1.08984375,-0.2578125,0.7236328125
1849,-1.142578125,-0.2890625,0.712890625
1850,-1.1630859375,-0.294921875,0.69921875
1851,-1.18359375,-0.306640625,0.6865234375
1852,-1.216796875,-0.30078125,0.6630859375
1853,-1.25,-0.2822265625,0.63671875
1854,-1.2626953125,-0.236328125,0.5830078125
1855,-1.244140625,-0.19140625,0.5517578125
1856,-1.2421875,-0.14453125,0.5234375
1857,-1.2197265625,-0.11328125,0.4892578125
1858,-1.20703125,-0.080078125,0.458984375
1859,-1.169921875,-0.0537109375,0.44921875
1860,-1.1337890625,-0.0361328125,0.43359375
1861,-1.1044921875,-0.0146484375,0.4189453125
1862,-1.0537109375,-0.00390625,0.4248046875
1863,-1.0263671875,0.0087890625,0.439453125
1864,-0.9775390625,0.01171875,0.4541015625
1865,-0.9404296875,0.0126953125,0.4716796875
1866,-0.90234375,0.00390625,0.4794921875
1867,-0.865234375,0.009765625,0.4892578125
1868,-0.830078125,0.0126953125,0.5048828125
1869,-0.80078125,0.0078125,0.505859375
1870,-0.765625,0.0087890625,0.498046875
1871,-0.744140625,0.001953125,0.501953125
1872,-0.73828125,0.0087890625,0.5048828125
1873,-0.7783203125,0.0302734375,0.5234375
1874,-0.8369140625,0.0400390625,0.541015625
1875,-0.8681640625,0.0478515625,0.5419921875
1876,-0.8935546875,0.05078125,0.54296875
1877,-0.90625,0.041015625,0.5458984375
1878,-0.904296875,0.0478515625,0.5556640625
1879,-0.876953125,0.0380859375,0.56640625
1880,-0.8564453125,0.0400390625,0.578125
1881,-0.83203125,0.0390625,0.587890625
1882,-0.8154296875,0.04296875,0.6123046875
1883,-0.8056640625,0.037109375,0.6298828125
1884,-0.7705078125,0.0283203125,0.65234375
1885,-0.74609375,0.0185546875,0.666015625
1886,-0.7275390625,0.0166015625,0.6845703125
1887,-0.7119140625,0.001953125,0.7021484375
1888,-0.70703125,-0.01171875,0.7197265625
1889,-0.6982421875,-0.01953125,0.734375
1890,-0.681640625,-0.0244140625,0.74609375
1891,-0.662109375,-0.0400390625,0.7607421875
1892,-0.6396484375,-0.05078125,0.7734375
1893,-0.6171875,-0.056640625,0.7880859375
1894,-0.599609375,-0.064453125,0.8056640625
1895,-0.591796875,-0.05859375,0.8232421875
1896,-0.5791015625,-0.0625,0.8330078125
1897,-0.5693359375,-0.0693359375,0.8427734375
1898,-0.552734375,-0.0751953125,0.8525390625
1899,-0.5556640625,-0.0595703125,0.8701171875
1900,-0.53515625,-0.044921875,0.89453125
1901,-0.529296875,-0.0419921875,0.8984375
1902,-0.5126953125,-0.05078125,0.9169921875
1903,-0.4873046875,-0.0478515625,0.92578125
1904,-0.4912109375,-0.064453125,0.9267578125
1905,-0.5009765625,-0.0751953125,0.90234375
1906,-0.48828125,-0.068359375,0.9013671875
1907,-0.4716796875,-0.0634765625,0.9130859375
1908,-0.4609375,-0.0546875,0.9169921875
1909,-0.4462890625,-0.0556640625,0.921875
1910,-0.4375,-0.056640625,0.9169921875
1911,-0.431640625,-0.05859375,0.9072265625
1912,-0.4296875,-0.05078125,0.9013671875
1913,-0.435546875,-0.0478515625,0.8994140625
1914,-0.4375,-0.0546875,0.90625
1915,-0.4521484375,-0.060546875,0.9208984375
1916,-0.408203125,-0.0673828125,0.900390625
1917,-0.42578125,-0.0791015625,0.912109375
1918,-0.419921875,-0.0771484375,0.900390625
1919,-0.4345703125,-0.076171875,0.900390625
1920,-0.4423828125,-0.080078125,0.90234375
1921,-0.453125,-0.099609375,0.8916015625
1922,-0.4560546875,-0.10546875,0.8828125
1923,-0.4619140625,-0.1064453125,0.87109375
1924,-0.46875,-0.099609375,0.8642578125
1925,-0.474609375,-0.0947265625,0.859375
1926,-0.4853515625,-0.08984375,0.853515625
1927,-0.4931640625,-0.0908203125,0.8466796875
1928,-0.5634765625,-0.10546875,0.8955078125
1929,-0.64453125,-0.083984375,0.8955078125
1930,-0.5546875,-0.095703125,0.8251953125
1931,-0.498046875,-0.095703125,0.7998046875
1932,-0.4521484375,-0.091796875,0.791015625
1933,-0.4130859375,-0.087890625,0.759765625
1934,-0.466796875,-0.0908203125,0.787109375
1935,-0.5283203125,-0.0791015625,0.7998046875
1936,-0.572265625,-0.072265625,0.8017578125
1937,-0.59765625,-0.06640625,0.7978515625
1938,-0.6103515625,-0.0634765625,0.791015625
1939,-0.6181640625,-0.0615234375,0.7802734375
1940,-0.6162109375,-0.056640625,0.779296875
1941,-0.623046875,-0.06640625,0.7841796875
1942,-0.6298828125,-0.0693359375,0.7822265625
1943,-0.6328125,-0.076171875,0.78515625
1944,-0.6455078125,-0.08203125,0.783203125
1945,-0.640625,-0.087890625,0.77734375
1946,-0.6484375,-0.095703125,0.7783203125
1947,-0.6591796875,-0.0986328125,0.7763671875
1948,-0.66015625,-0.1044921875,0.7744140625
1949,-0.66015625,-0.1064453125,0.7626953125
1950,-0.6708984375,-0.11328125,0.7685546875
1951,-0.6630859375,-0.1064453125,0.7666015625
1952,-0.6630859375,-0.109375,0.7685546875
1953,-0.6533203125,-0.1162109375,0.775390625
1954,-0.6494140625,-0.1181640625,0.77734375
1955,-0.6513671875,-0.1279296875,0.7802734375
1956,-0.6357421875,-0.1279296875,0.78125
1957,-0.6318359375,-0.126953125,0.7783203125
1958,-0.6240234375,-0.123046875,0.78125
1959,-0.623046875,-0.119140625,0.7822265625
1960,-0.6162109375,-0.1162109375,0.787109375
1961,-0.611328125,-0.1123046875,0.791015625
1962,-0.6025390625,-0.1103515625,0.7890625
1963,-0.6005859375,-0.10546875,0.79296875
1964,-0.5888671875,-0.0966796875,0.79296875
1965,-0.5849609375,-0.09765625,0.7998046875
1966,-0.5830078125,-0.0927734375,0.794921875
1967,-0.57421875,-0.09375,0.7978515625
1968,-0.57421875,-0.0849609375,0.798828125
1969,-0.5703125,-0.091796875,0.802734375
1970,-0.5693359375,-0.09375,0.802734375
1971,-0.5634765625,-0.08984375,0.8017578125
1972,-0.56640625,-0.0888671875,0.8037109375
1973,-0.5634765625,-0.0869140625,0.806640625
1974,-0.55859375,-0.0849609375,0.8095703125
1975,-0.5615234375,-0.0771484375,0.8134765625
1976,-0.5556640625,-0.0830078125,0.8095703125
1977,-0.5576171875,-0.08203125,0.814453125
1978,-0.5517578125,-0.078125,0.8203125
1979,-0.5498046875,-0.076171875,0.8232421875
1980,-0.5498046875,-0.080078125,0.8271484375
1981,-0.5498046875,-0.0791015625,0.8310546875
1982,-0.55078125,-0.0830078125,0.833984375
1983,-0.548828125,-0.0859375,0.8388671875
1984,-0.55078125,-0.080078125,0.8369140625
1985,-0.5517578125,-0.0830078125,0.8359375
1986,-0.5537109375,-0.0712890625,0.8359375
1987,-0.5546875,-0.0810546875,0.8388671875
1988,-0.5537109375,-0.0771484375,0.84375
1989,-0.5498046875,-0.08203125,0.83984375
1990,-0.5537109375,-0.0830078125,0.8388671875
1991,-0.5546875,-0.0810546875,0.83984375
1992,-0.5537109375,-0.080078125,0.83984375
1993,-0.5537109375,-0.0830078125,0.8408203125
1994,-0.5576171875,-0.0810546875,0.83203125
1995,-0.556640625,-0.0791015625,0.8330078125
1996,-0.5625,-0.072265625,0.828125
1997,-0.5673828125,-0.0703125,0.8193359375
1998,-0.5693359375,-0.068359375,0.8193359375
1999,-0.57421875,-0.064453125,0.814453125
2000,-0.5791015625,-0.064453125,0.8154296875
2001,-0.5791015625,-0.064453125,0.8173828125
2002,-0.5849609375,-0.064453125,0.8115234375
2003,-0.587890625,-0.064453125,0.810546875
2004,-0.58984375,-0.0625,0.8017578125
2005,-0.5986328125,-0.0634765625,0.7978515625
2006,-0.6005859375,-0.0615234375,0.7958984375
2007,-0.607421875,-0.06640625,0.7919921875
2008,-0.607421875,-0.0634765625,0.791015625
2009,-0.609375,-0.0634765625,0.7939453125
2010,-0.6142578125,-0.06640625,0.7841796875
2011,-0.6142578125,-0.07421875,0.7841796875
2012,-0.6181640625,-0.0712890625,0.7841796875
2013,-0.623046875,-0.0703125,0.7802734375
2014,-0.626953125,-0.072265625,0.78125
2015,-0.625,-0.0693359375,0.78515625
2016,-0.6240234375,-0.068359375,0.7783203125
2017,-0.6259765625,-0.068359375,0.78125
2018,-0.6279296875,-0.06640625,0.7822265625
2019,-0.634765625,-0.0673828125,0.78125
2020,-0.63671875,-0.064453125,0.78125
2021,-0.6357421875,-0.072265625,0.787109375
2022,-0.634765625,-0.08203125,0.7841796875
2023,-0.6357421875,-0.0859375,0.78125
2024,-0.6318359375,-0.08984375,0.7841796875
2025,-0.626953125,-0.095703125,0.7822265625
2026,-0.62890625,-0.0927734375,0.7880859375
2027,-0.6220703125,-0.09375,0.7822265625
2028,-0.6162109375,-0.087890625,0.7939453125
2029,-0.6201171875,-0.091796875,0.7958984375
2030,-0.615234375,-0.0849609375,0.7939453125
2031,-0.615234375,-0.0849609375,0.7939453125
2032,-0.6123046875,-0.0771484375,0.7958984375
2033,-0.607421875,-0.0791015625,0.7919921875
2034,-0.6103515625,-0.080078125,0.7939453125
2035,-0.60546875,-0.083984375,0.7900390625
2036,-0.6005859375,-0.0810546875,0.796875
2037,-0.599609375,-0.078125,0.796875
2038,-0.5966796875,-0.083984375,0.8037109375
2039,-0.58984375,-0.087890625,0.802734375
2040,-0.587890625,-0.0859375,0.80859375
2041,-0.583984375,-0.0830078125,0.8056640625
2042,-0.5830078125,-0.0849609375,0.7998046875
2043,-0.5849609375,-0.08203125,0.8046875
2044,-0.5849609375,-0.0810546875,0.7998046875
2045,-0.5810546875,-0.0751953125,0.7998046875
2046,-0.5791015625,-0.072265625,0.80078125
2047,-0.5830078125,-0.068359375,0.802734375
2048,-0.5712890625,-0.0703125,0.8037109375
2049,-0.5751953125,-0.064453125,0.802734375
2050,-0.578125,-0.0673828125,0.8076171875
2051,-0.57421875,-0.0625,0.8056640625
2052,-0.576171875,-0.0634765625,0.8115234375
2053,-0.5732421875,-0.0634765625,0.806640625
2054,-0.5712890625,-0.0654296875,0.810546875
2055,-0.5693359375,-0.0634765625,0.8154296875
2056,-0.5703125,-0.0693359375,0.8125
2057,-0.5712890625,-0.064453125,0.814453125
2058,-0.572265625,-0.064453125,0.814453125
2059,-0.5693359375,-0.0654296875,0.818359375
2060,-0.5712890625,-0.0634765625,0.8193359375
2061,-0.572265625,-0.0634765625,0.8173828125
2062,-0.5712890625,-0.0654296875,0.8125
2063,-0.572265625,-0.0634765625,0.814453125
2064,-0.572265625,-0.0654296875,0.81640625
2065,-0.5751953125,-0.068359375,0.8095703125
2066,-0.578125,-0.0712890625,0.8017578125
2067,-0.572265625,-0.0732421875,0.791015625
2068,-0.576171875,-0.072265625,0.7939453125
2069,-0.580078125,-0.068359375,0.7978515625
2070,-0.5771484375,-0.07421875,0.7958984375
2071,-0.578125,-0.0693359375,0.79296875
2072,-0.578125,-0.0654296875,0.796875
2073,-0.5791015625,-0.0615234375,0.8017578125
2074,-0.580078125,-0.0634765625,0.802734375
2075,-0.58203125,-0.064453125,0.8056640625
2076,-0.5810546875,-0.06640625,0.806640625
2077,-0.5849609375,-0.0693359375,0.8095703125
2078,-0.5830078125,-0.0732421875,0.8115234375
2079,-0.576171875,-0.0712890625,0.8095703125
2080,-0.5849609375,-0.0810546875,0.806640625
2081,-0.587890625,-0.083984375,0.8115234375
2082,-0.5810546875,-0.0830078125,0.80859375
2083,-0.5859375,-0.080078125,0.806640625
2084,-0.58203125,-0.0751953125,0.8095703125
2085,-0.5859375,-0.087890625,0.8037109375
2086,-0.5830078125,-0.072265625,0.8076171875
2087,-0.5830078125,-0.0712890625,0.80078125
2088,-0.5791015625,-0.0810546875,0.80078125
2089,-0.5771484375,-0.076171875,0.8017578125
2090,-0.580078125,-0.072265625,0.7939453125
2091,-0.5771484375,-0.076171875,0.7998046875
2092,-0.580078125,-0.076171875,0.802734375
2093,-0.58203125,-0.07421875,0.798828125
2094,-0.5849609375,-0.0732421875,0.798828125
2095,-0.58203125,-0.076171875,0.8037109375
2096,-0.5830078125,-0.068359375,0.8076171875
2097,-0.583984375,-0.0703125,0.8037109375
2098,-0.5859375,-0.0732421875,0.8056640625
2099,-0.5908203125,-0.0751953125,0.810546875
2100,-0.5830078125,-0.0732421875,0.8125
2101,-0.5859375,-0.0849609375,0.8125
2102,-0.5888671875,-0.07421875,0.8134765625
2103,-0.5869140625,-0.0732421875,0.8134765625
2104,-0.5859375,-0.0732421875,0.8134765625
2105,-0.5869140625,-0.07421875,0.8115234375
2106,-0.58984375,-0.0712890625,0.810546875
2107,-0.591796875,-0.0693359375,0.8095703125
2108,-0.5947265625,-0.068359375,0.8056640625
2109,-0.5888671875,-0.0693359375,0.8046875
2110,-0.583984375,-0.0673828125,0.8037109375
2111,-0.59375,-0.068359375,0.8017578125
2112,-0.5927734375,-0.06640625,0.8046875
2113,-0.5908203125,-0.0634765625,0.806640625
2114,-0.59765625,-0.0654296875,0.802734375
2115,-0.5947265625,-0.064453125,0.80078125
2116,-0.5947265625,-0.06640625,0.802734375
2117,-0.59375,-0.06640625,0.798828125
2118,-0.59765625,-0.064453125,0.8037109375
2119,-0.6015625,-0.0654296875,0.8017578125
2120,-0.6005859375,-0.0615234375,0.802734375
2121,-0.6005859375,-0.05859375,0.8046875
2122,-0.599609375,-0.0595703125,0.8017578125
2123,-0.5966796875,-0.0595703125,0.8017578125
2124,-0.5986328125,-0.060546875,0.8046875
2125,-0.59375,-0.056640625,0.7998046875
2126,-0.5927734375,-0.064453125,0.8037109375
2127,-0.5927734375,-0.0654296875,0.8017578125
2128,-0.58984375,-0.0703125,0.802734375
2129,-0.591796875,-0.0712890625,0.7998046875
2130,-0.591796875,-0.072265625,0.796875
2131,-0.587890625,-0.068359375,0.796875
2132,-0.59375,-0.0712890625,0.7978515625
2133,-0.599609375,-0.0634765625,0.80078125
2134,-0.6005859375,-0.0654296875,0.80078125
2135,-0.5888671875,-0.0615234375,0.8037109375
2136,-0.59375,-0.0634765625,0.7978515625
2137,-0.58984375,-0.0634765625,0.8046875
2138,-0.5927734375,-0.068359375,0.8017578125
2139,-0.59375,-0.0751953125,0.80078125
2140,-0.5908203125,-0.076171875,0.8037109375
2141,-0.5869140625,-0.080078125,0.8076171875
2142,-0.591796875,-0.08203125,0.802734375
2143,-0.5888671875,-0.083984375,0.8037109375
2144,-0.5791015625,-0.0771484375,0.7998046875
2145,-0.5908203125,-0.087890625,0.8056640625
2146,-0.5859375,-0.0888671875,0.8017578125
2147,-0.5849609375,-0.0859375,0.796875
2148,-0.5849609375,-0.083984375,0.796875
2149,-0.591796875,-0.0810546875,0.7939453125
2150,-0.5859375,-0.0712890625,0.798828125
2151,-0.5830078125,-0.076171875,0.794921875
2152,-0.5859375,-0.068359375,0.794921875
2153,-0.5771484375,-0.0703125,0.794921875
2154,-0.58203125,-0.0712890625,0.794921875
2155,-0.5830078125,-0.080078125,0.796875
2156,-0.583984375,-0.0810546875,0.7978515625
2157,-0.583984375,-0.0869140625,0.798828125
2158,-0.583984375,-0.08203125,0.802734375
2159,-0.5869140625,-0.0791015625,0.8017578125
2160,-0.5859375,-0.0859375,0.8046875
2161,-0.5888671875,-0.078125,0.8056640625
2162,-0.595703125,-0.072265625,0.80078125
2163,-0.5908203125,-0.072265625,0.8076171875
2164,-0.599609375,-0.0771484375,0.8046875
2165,-0.591796875,-0.076171875,0.806640625
2166,-0.599609375,-0.076171875,0.8076171875
2167,-0.6025390625,-0.0673828125,0.8115234375
2168,-0.6025390625,-0.0693359375,0.802734375
2169,-0.6005859375,-0.072265625,0.8115234375
2170,-0.6025390625,-0.072265625,0.806640625
2171,-0.599609375,-0.0654296875,0.8046875
2172,-0.599609375,-0.06640625,0.8056640625
2173,-0.6005859375,-0.0693359375,0.8046875
2174,-0.6015625,-0.0673828125,0.80859375
2175,-0.6005859375,-0.0693359375,0.8037109375
2176,-0.5927734375,-0.07421875,0.80859375
2177,-0.58984375,-0.0703125,0.810546875
2178,-0.5927734375,-0.0732421875,0.8056640625
2179,-0.5849609375,-0.0732421875,0.8076171875
2180,-0.5908203125,-0.0712890625,0.8095703125
2181,-0.5869140625,-0.08203125,0.8095703125
2182,-0.5849609375,-0.0771484375,0.810546875
2183,-0.5791015625,-0.0732421875,0.8046875
2184,-0.578125,-0.0751953125,0.8076171875
2185,-0.580078125,-0.0712890625,0.8076171875
2186,-0.587890625,-0.0771484375,0.8125
2187,-0.5859375,-0.076171875,0.814453125
2188,-0.5810546875,-0.0693359375,0.80859375
2189,-0.5791015625,-0.0703125,0.814453125
2190,-0.5771484375,-0.0751953125,0.810546875
2191,-0.57421875,-0.078125,0.8095703125
2192,-0.5771484375,-0.0849609375,0.8095703125
2193,-0.5830078125,-0.08984375,0.8115234375
2194,-0.5771484375,-0.0908203125,0.806640625
2195,-0.5771484375,-0.0908203125,0.806640625
2196,-0.5791015625,-0.0908203125,0.806640625
2197,-0.5810546875,-0.0927734375,0.810546875
2198,-0.576171875,-0.0908203125,0.8056640625
2199,-0.5830078125,-0.087890625,0.8125
2200,-0.5751953125,-0.087890625,0.8095703125
2201,-0.57421875,-0.08984375,0.80859375
2202,-0.5771484375,-0.08203125,0.8125
2203,-0.578125,-0.0859375,0.80859375
2204,-0.572265625,-0.08984375,0.810546875
2205,-0.576171875,-0.0947265625,0.810546875
2206,-0.5732421875,-0.0947265625,0.8115234375
2207,-0.5791015625,-0.0927734375,0.8095703125
2208,-0.5771484375,-0.09375,0.8125
2209,-0.5771484375,-0.0947265625,0.8095703125
2210,-0.58203125,-0.087890625,0.8046875
2211,-0.5791015625,-0.0849609375,0.806640625
2212,-0.5810546875,-0.083984375,0.802734375
2213,-0.58203125,-0.0888671875,0.80078125
2214,-0.5888671875,-0.0869140625,0.802734375
2215,-0.58984375,-0.0869140625,0.7958984375
2216,-0.591796875,-0.08203125,0.80078125
2217,-0.595703125,-0.0830078125,0.7998046875
2218,-0.595703125,-0.083984375,0.798828125
2219,-0.5927734375,-0.08203125,0.8037109375
2220,-0.5966796875,-0.0732421875,0.806640625
2221,-0.599609375,-0.0859375,0.8037109375
2222,-0.599609375,-0.0751953125,0.8017578125
2223,-0.5986328125,-0.08203125,0.8037109375
2224,-0.6005859375,-0.0751953125,0.8017578125
2225,-0.6005859375,-0.0732421875,0.8056640625
2226,-0.6005859375,-0.0703125,0.7998046875
2227,-0.59375,-0.072265625,0.806640625
2228,-0.595703125,-0.078125,0.8017578125
2229,-0.5927734375,-0.0771484375,0.8076171875
2230,-0.5869140625,-0.080078125,0.80078125
2231,-0.587890625,-0.07421875,0.8056640625
2232,-0.58984375,-0.0732421875,0.806640625
2233,-0.5869140625,-0.076171875,0.8046875
2234,-0.5888671875,-0.076171875,0.8046875
2235,-0.5849609375,-0.0771484375,0.810546875
2236,-0.5888671875,-0.0712890625,0.8095703125
2237,-0.5849609375,-0.0810546875,0.802734375
2238,-0.583984375,-0.08984375,0.8037109375
2239,-0.5849609375,-0.0888671875,0.802734375
2240,-0.583984375,-0.0830078125,0.798828125
2241,-0.5849609375,-0.0869140625,0.7958984375
2242,-0.5888671875,-0.0859375,0.7978515625
2243,-0.5869140625,-0.07421875,0.798828125
2244,-0.580078125,-0.0810546875,0.8017578125
2245,-0.5927734375,-0.0810546875,0.8017578125
2246,-0.5859375,-0.087890625,0.796875
2247,-0.5908203125,-0.0888671875,0.7958984375
2248,-0.5869140625,-0.0810546875,0.798828125
2249,-0.591796875,-0.080078125,0.802734375
2250,-0.6005859375,-0.080078125,0.802734375
2251,-0.58984375,-0.0810546875,0.8056640625
2252,-0.5888671875,-0.0810546875,0.80859375
2253,-0.5947265625,-0.0810546875,0.8046875
2254,-0.599609375,-0.0849609375,0.8046875
2255,-0.6005859375,-0.0791015625,0.80078125
2256,-0.5986328125,-0.0810546875,0.794921875
2257,-0.599609375,-0.0859375,0.796875
2258,-0.6005859375,-0.078125,0.7978515625
2259,-0.5966796875,-0.0810546875,0.79296875
2260,-0.591796875,-0.072265625,0.8017578125
2261,-0.5927734375,-0.0888671875,0.80078125
2262,-0.5869140625,-0.0869140625,0.8046875
2263,-0.5908203125,-0.0859375,0.8017578125
2264,-0.5859375,-0.087890625,0.802734375
2265,-0.5869140625,-0.0849609375,0.802734375
2266,-0.587890625,-0.0830078125,0.80078125
2267,-0.5888671875,-0.08984375,0.80078125
2268,-0.587890625,-0.0859375,0.8017578125
2269,-0.5830078125,-0.0830078125,0.798828125
2270,-0.5869140625,-0.08984375,0.8046875
2271,-0.583984375,-0.0927734375,0.798828125
2272,-0.5830078125,-0.087890625,0.8017578125
2273,-0.5849609375,-0.0869140625,0.8046875
2274,-0.5859375,-0.0849609375,0.806640625
2275,-0.5830078125,-0.0859375,0.8076171875
2276,-0.5849609375,-0.0849609375,0.8095703125
2277,-0.587890625,-0.0859375,0.806640625
2278,-0.5888671875,-0.0849609375,0.80859375
2279,-0.5869140625,-0.08203125,0.8076171875
2280,-0.5849609375,-0.08984375,0.8134765625
2281,-0.583984375,-0.0869140625,0.8076171875
2282,-0.583984375,-0.0859375,0.80859375
2283,-0.5859375,-0.083984375,0.8134765625
2284,-0.587890625,-0.08984375,0.80859375
2285,-0.5908203125,-0.0869140625,0.814453125
2286,-0.5888671875,-0.0869140625,0.8115234375
2287,-0.59375,-0.087890625,0.8125
2288,-0.59375,-0.08984375,0.8076171875
2289,-0.5966796875,-0.0888671875,0.8095703125
2290,-0.5888671875,-0.0869140625,0.8076171875
2291,-0.591796875,-0.0869140625,0.8056640625
2292,-0.5849609375,-0.0849609375,0.8046875
2293,-0.5849609375,-0.0849609375,0.8056640625
2294,-0.587890625,-0.0859375,0.8046875
2295,-0.5888671875,-0.083984375,0.806640625
2296,-0.5859375,-0.083984375,0.8056640625
2297,-0.5908203125,-0.0869140625,0.8017578125
2298,-0.5859375,-0.08203125,0.80078125
2299,-0.5869140625,-0.0908203125,0.7978515625
2300,-0.591796875,-0.087890625,0.80078125
2301,-0.5888671875,-0.087890625,0.7998046875
2302,-0.5859375,-0.083984375,0.8017578125
2303,-0.5869140625,-0.0869140625,0.8017578125
2304,-0.5869140625,-0.08984375,0.8056640625
2305,-0.58984375,-0.087890625,0.798828125
2306,-0.587890625,-0.087890625,0.802734375
2307,-0.583984375,-0.0849609375,0.806640625
2308,-0.58984375,-0.087890625,0.8095703125
2309,-0.5869140625,-0.0908203125,0.8095703125
2310,-0.587890625,-0.09375,0.8046875
2311,-0.5830078125,-0.08984375,0.802734375
2312,-0.5859375,-0.09375,0.8046875
2313,-0.5908203125,-0.091796875,0.8056640625
2314,-0.5888671875,-0.09375,0.802734375
2315,-0.5888671875,-0.095703125,0.8017578125
2316,-0.5859375,-0.0908203125,0.798828125
2317,-0.58984375,-0.08984375,0.8017578125
2318,-0.5869140625,-0.08984375,0.796875
2319,-0.58984375,-0.08203125,0.796875
2320,-0.58984375,-0.083984375,0.7919921875
2321,-0.5888671875,-0.08203125,0.80078125
2322,-0.5908203125,-0.087890625,0.802734375
2323,-0.595703125,-0.083984375,0.802734375
2324,-0.5908203125,-0.08984375,0.798828125
2325,-0.5947265625,-0.0830078125,0.802734375
2326,-0.5908203125,-0.0849609375,0.80078125
2327,-0.591796875,-0.0859375,0.794921875
2328,-0.5908203125,-0.0849609375,0.7998046875
2329,-0.5947265625,-0.080078125,0.80078125
2330,-0.59375,-0.0830078125,0.7978515625
2331,-0.587890625,-0.0810546875,0.8017578125
2332,-0.5888671875,-0.0830078125,0.7998046875
2333,-0.5888671875,-0.0791015625,0.8046875
2334,-0.5859375,-0.0830078125,0.8017578125
2335,-0.58984375,-0.076171875,0.8017578125
2336,-0.59375,-0.0791015625,0.8076171875
2337,-0.5927734375,-0.076171875,0.8046875
2338,-0.5947265625,-0.0869140625,0.802734375
2339,-0.5927734375,-0.0810546875,0.8017578125
2340,-0.5927734375,-0.08203125,0.8017578125
2341,-0.5888671875,-0.080078125,0.80078125
2342,-0.5927734375,-0.0849609375,0.798828125
2343,-0.6005859375,-0.08203125,0.798828125
2344,-0.5859375,-0.076171875,0.7958984375
2345,-0.595703125,-0.0849609375,0.7978515625
2346,-0.59765625,-0.0751953125,0.80078125
2347,-0.5966796875,-0.068359375,0.794921875
2348,-0.5966796875,-0.080078125,0.80078125
2349,-0.5986328125,-0.0791015625,0.8046875
2350,-0.5966796875,-0.0751953125,0.7958984375
2351,-0.5966796875,-0.08203125,0.796875
2352,-0.5986328125,-0.0810546875,0.7978515625
2353,-0.595703125,-0.08203125,0.8046875
2354,-0.5947265625,-0.0771484375,0.8017578125
2355,-0.59765625,-0.0751953125,0.8037109375
2356,-0.59765625,-0.076171875,0.8017578125
2357,-0.599609375,-0.076171875,0.7998046875
2358,-0.5908203125,-0.068359375,0.7998046875
2359,-0.599609375,-0.072265625,0.798828125
2360,-0.587890625,-0.072265625,0.8037109375
2361,-0.591796875,-0.072265625,0.796875
2362,-0.5947265625,-0.072265625,0.7998046875
2363,-0.5849609375,-0.076171875,0.796875
2364,-0.5908203125,-0.076171875,0.798828125
2365,-0.5859375,-0.0830078125,0.80078125
2366,-0.5966796875,-0.0732421875,0.80078125
2367,-0.5888671875,-0.0791015625,0.80078125
2368,-0.5849609375,-0.076171875,0.8046875
2369,-0.5888671875,-0.08203125,0.8056640625
2370,-0.5859375,-0.0810546875,0.798828125
2371,-0.58984375,-0.08203125,0.8017578125
2372,-0.58984375,-0.076171875,0.8017578125
2373,-0.591796875,-0.0712890625,0.8017578125
2374,-0.5927734375,-0.076171875,0.7998046875
2375,-0.5966796875,-0.0732421875,0.7998046875
2376,-0.59765625,-0.0751953125,0.7958984375
2377,-0.59765625,-0.0673828125,0.798828125
2378,-0.6005859375,-0.068359375,0.796875
2379,-0.5986328125,-0.0703125,0.794921875
2380,-0.595703125,-0.0732421875,0.794921875
2381,-0.5986328125,-0.0712890625,0.794921875
2382,-0.5966796875,-0.0703125,0.7958984375
2383,-0.59375,-0.0712890625,0.796875
2384,-0.591796875,-0.0751953125,0.80078125
2385,-0.587890625,-0.0751953125,0.7978515625
2386,-0.5849609375,-0.07421875,0.8017578125
2387,-0.5908203125,-0.078125,0.802734375
2388,-0.591796875,-0.080078125,0.7978515625
2389,-0.5947265625,-0.076171875,0.7958984375
2390,-0.5986328125,-0.07421875,0.7998046875
2391,-0.595703125,-0.072265625,0.798828125
2392,-0.5947265625,-0.076171875,0.7978515625
2393,-0.6005859375,-0.0810546875,0.7978515625
2394,-0.5986328125,-0.072265625,0.798828125
2395,-0.6025390625,-0.0751953125,0.796875
2396,-0.5986328125,-0.0673828125,0.7978515625
2397,-0.6015625,-0.0703125,0.7958984375
2398,-0.59765625,-0.068359375,0.7900390625
2399,-0.603515625,-0.0712890625,0.7958984375
2400,-0.6025390625,-0.0654296875,0.794921875
2401,-0.603515625,-0.064453125,0.7958984375
2402,-0.6064453125,-0.068359375,0.79296875
2403,-0.6005859375,-0.0654296875,0.7958984375
2404,-0.6025390625,-0.0654296875,0.7958984375
2405,-0.6015625,-0.0654296875,0.7978515625
2406,-0.6015625,-0.0693359375,0.802734375
2407,-0.59765625,-0.0634765625,0.7958984375
2408,-0.6015625,-0.068359375,0.7978515625
2409,-0.6005859375,-0.0732421875,0.7998046875
2410,-0.595703125,-0.072265625,0.7998046875
2411,-0.6044921875,-0.0693359375,0.796875
2412,-0.599609375,-0.064453125,0.80078125
2413,-0.6044921875,-0.0654296875,0.798828125
2414,-0.603515625,-0.0654296875,0.80078125
2415,-0.599609375,-0.0673828125,0.80078125
2416,-0.6005859375,-0.0673828125,0.796875
2417,-0.6015625,-0.0673828125,0.7978515625
2418,-0.6005859375,-0.0654296875,0.796875
2419,-0.6025390625,-0.06640625,0.7978515625
2420,-0.5986328125,-0.0673828125,0.796875
2421,-0.599609375,-0.0673828125,0.79296875
2422,-0.603515625,-0.068359375,0.7998046875
2423,-0.6015625,-0.0673828125,0.794921875
2424,-0.6015625,-0.06640625,0.7978515625
2425,-0.6005859375,-0.0634765625,0.796875
2426,-0.603515625,-0.068359375,0.7939453125
2427,-0.6044921875,-0.060546875,0.7919921875
2428,-0.611328125,-0.064453125,0.796875
2429,-0.603515625,-0.060546875,0.794921875
2430,-0.603515625,-0.060546875,0.79296875
2431,-0.603515625,-0.06640625,0.796875
2432,-0.6025390625,-0.0673828125,0.7978515625
2433,-0.6025390625,-0.064453125,0.7958984375
2434,-0.599609375,-0.0703125,0.7939453125
2435,-0.6025390625,-0.0693359375,0.79296875
2436,-0.6025390625,-0.072265625,0.7900390625
2437,-0.6015625,-0.068359375,0.79296875
2438,-0.6005859375,-0.072265625,0.791015625
2439,-0.6044921875,-0.06640625,0.791015625
2440,-0.6005859375,-0.0634765625,0.7958984375
2441,-0.60546875,-0.064453125,0.7958984375
2442,-0.603515625,-0.064453125,0.794921875
2443,-0.6064453125,-0.0625,0.794921875
2444,-0.599609375,-0.0615234375,0.7880859375
2445,-0.6005859375,-0.064453125,0.79296875
2446,-0.6015625,-0.060546875,0.79296875
2447,-0.599609375,-0.064453125,0.7939453125
2448,-0.603515625,-0.0673828125,0.79296875
2449,-0.6025390625,-0.06640625,0.7939453125
2450,-0.6015625,-0.0703125,0.794921875
2451,-0.6015625,-0.064453125,0.79296875
2452,-0.603515625,-0.064453125,0.7939453125
2453,-0.60546875,-0.0654296875,0.7900390625
2454,-0.6025390625,-0.0634765625,0.79296875
2455,-0.599609375,-0.064453125,0.7919921875
2456,-0.607421875,-0.064453125,0.7900390625
2457,-0.6044921875,-0.0634765625,0.7900390625
2458,-0.6025390625,-0.0615234375,0.787109375
2459,-0.599609375,-0.064453125,0.7919921875
2460,-0.6044921875,-0.0615234375,0.7978515625
2461,-0.6025390625,-0.064453125,0.7958984375
2462,-0.6015625,-0.060546875,0.7939453125
2463,-0.599609375,-0.0615234375,0.791015625
2464,-0.603515625,-0.06640625,0.7978515625
2465,-0.6005859375,-0.0625,0.794921875
2466,-0.6015625,-0.0634765625,0.796875
2467,-0.6025390625,-0.064453125,0.7978515625
2468,-0.5986328125,-0.0634765625,0.796875
2469,-0.6025390625,-0.064453125,0.796875
2470,-0.6015625,-0.0615234375,0.7958984375
2471,-0.6015625,-0.0654296875,0.794921875
2472,-0.607421875,-0.0654296875,0.794921875
2473,-0.6044921875,-0.0673828125,0.79296875
2474,-0.60546875,-0.0673828125,0.79296875
2475,-0.6044921875,-0.0654296875,0.7890625
2476,-0.6015625,-0.0615234375,0.7900390625
2477,-0.60546875,-0.0625,0.79296875
2478,-0.6064453125,-0.0615234375,0.7978515625
2479,-0.607421875,-0.0634765625,0.796875
2480,-0.6044921875,-0.05859375,0.80078125
2481,-0.6044921875,-0.0595703125,0.796875
2482,-0.6064453125,-0.0595703125,0.7978515625
2483,-0.6015625,-0.060546875,0.7958984375
2484,-0.6005859375,-0.06640625,0.798828125
2485,-0.6005859375,-0.0615234375,0.796875
2486,-0.6103515625,-0.064453125,0.794921875
2487,-0.6005859375,-0.06640625,0.796875
2488,-0.6005859375,-0.0625,0.79296875
2489,-0.6015625,-0.0615234375,0.79296875
2490,-0.599609375,-0.0595703125,0.796875
2491,-0.6005859375,-0.0634765625,0.7958984375
2492,-0.6015625,-0.0634765625,0.794921875
2493,-0.6005859375,-0.06640625,0.794921875
2494,-0.60546875,-0.076171875,0.7939453125
2495,-0.603515625,-0.068359375,0.79296875
2496,-0.603515625,-0.0634765625,0.794921875
2497,-0.6025390625,-0.0654296875,0.7890625
2498,-0.607421875,-0.068359375,0.7880859375
2499,-0.60546875,-0.064453125,0.787109375
2500,-0.6083984375,-0.0615234375,0.7939453125
2501,-0.6083984375,-0.064453125,0.79296875
2502,-0.6083984375,-0.0693359375,0.79296875
2503,-0.6015625,-0.068359375,0.794921875
2504,-0.599609375,-0.068359375,0.7939453125
2505,-0.603515625,-0.06640625,0.7919921875
2506,-0.5986328125,-0.06640625,0.796875
2507,-0.5966796875,-0.068359375,0.7978515625
2508,-0.59765625,-0.072265625,0.8056640625
2509,-0.5908203125,-0.076171875,0.802734375
2510,-0.595703125,-0.07421875,0.806640625
2511,-0.59765625,-0.0703125,0.802734375
2512,-0.5966796875,-0.0712890625,0.7978515625
2513,-0.5986328125,-0.0654296875,0.798828125
2514,-0.59375,-0.064453125,0.7978515625
2515,-0.595703125,-0.06640625,0.7958984375
2516,-0.599609375,-0.0693359375,0.7958984375
2517,-0.6005859375,-0.064453125,0.7958984375
2518,-0.599609375,-0.06640625,0.7958984375
2519,-0.599609375,-0.0654296875,0.7958984375
2520,-0.59765625,-0.06640625,0.796875
2521,-0.6005859375,-0.06640625,0.7978515625
2522,-0.6015625,-0.0673828125,0.798828125
2523,-0.6005859375,-0.0654296875,0.798828125
2524,-0.6015625,-0.064453125,0.796875
2525,-0.6015625,-0.064453125,0.798828125
2526,-0.5966796875,-0.064453125,0.798828125
2527,-0.5986328125,-0.064453125,0.798828125
2528,-0.6005859375,-0.0673828125,0.8017578125
2529,-0.6015625,-0.0693359375,0.796875
2530,-0.6025390625,-0.064453125,0.802734375
2531,-0.5966796875,-0.0654296875,0.7978515625
2532,-0.59765625,-0.0693359375,0.80078125
2533,-0.6005859375,-0.0654296875,0.7978515625
2534,-0.6005859375,-0.0693359375,0.8017578125
2535,-0.5986328125,-0.064453125,0.7958984375
2536,-0.59765625,-0.06640625,0.7998046875
2537,-0.6005859375,-0.0654296875,0.796875
2538,-0.591796875,-0.06640625,0.7958984375
2539,-0.6044921875,-0.0654296875,0.7978515625
2540,-0.59765625,-0.068359375,0.796875
2541,-0.599609375,-0.0693359375,0.796875
2542,-0.59765625,-0.06640625,0.794921875
2543,-0.5986328125,-0.0654296875,0.796875
2544,-0.599609375,-0.06640625,0.79296875
2545,-0.6005859375,-0.07421875,0.796875
2546,-0.591796875,-0.068359375,0.7978515625
2547,-0.5947265625,-0.0693359375,0.7958984375
2548,-0.6005859375,-0.0693359375,0.80078125
2549,-0.5947265625,-0.0703125,0.80078125
2550,-0.6015625,-0.0654296875,0.794921875
2551,-0.5986328125,-0.064453125,0.798828125
2552,-0.6005859375,-0.064453125,0.80078125
2553,-0.59765625,-0.0654296875,0.7998046875
2554,-0.599609375,-0.0654296875,0.796875
2555,-0.59765625,-0.068359375,0.7998046875
2556,-0.6005859375,-0.072265625,0.7919921875
2557,-0.5966796875,-0.0712890625,0.7978515625
2558,-0.59765625,-0.0732421875,0.796875
2559,-0.5986328125,-0.0849609375,0.791015625
2560,-0.595703125,-0.0751953125,0.7939453125
2561,-0.5966796875,-0.0673828125,0.7939453125
2562,-0.5986328125,-0.0693359375,0.79296875
2563,-0.5966796875,-0.0712890625,0.7978515625
2564,-0.5966796875,-0.0693359375,0.7978515625
2565,-0.599609375,-0.068359375,0.796875
2566,-0.59765625,-0.072265625,0.794921875
2567,-0.5986328125,-0.0712890625,0.794921875
2568,-0.5986328125,-0.0703125,0.7998046875
2569,-0.5986328125,-0.072265625,0.796875
2570,-0.59375,-0.072265625,0.7998046875
2571,-0.5966796875,-0.0693359375,0.7958984375
2572,-0.595703125,-0.078125,0.7978515625
2573,-0.5947265625,-0.0732421875,0.7958984375
2574,-0.5986328125,-0.0771484375,0.796875
2575,-0.59375,-0.0703125,0.7978515625
2576,-0.59765625,-0.0703125,0.8037109375
2577,-0.5986328125,-0.0703125,0.7998046875
2578,-0.5986328125,-0.0712890625,0.794921875
2579,-0.6005859375,-0.0693359375,0.794921875
2580,-0.5947265625,-0.078125,0.7978515625
2581,-0.59765625,-0.0771484375,0.7998046875
2582,-0.5927734375,-0.0751953125,0.798828125
2583,-0.59765625,-0.0703125,0.7958984375
2584,-0.6015625,-0.0712890625,0.802734375
2585,-0.595703125,-0.0703125,0.796875
2586,-0.6015625,-0.0703125,0.7978515625
2587,-0.5966796875,-0.0654296875,0.796875
2588,-0.5966796875,-0.0673828125,0.7939453125
2589,-0.599609375,-0.0654296875,0.7958984375
2590,-0.595703125,-0.0693359375,0.796875
2591,-0.599609375,-0.0673828125,0.798828125
2592,-0.6005859375,-0.0654296875,0.7978515625
2593,-0.599609375,-0.0673828125,0.7978515625
2594,-0.5966796875,-0.0712890625,0.7958984375
2595,-0.5986328125,-0.0693359375,0.7978515625
2596,-0.5947265625,-0.0771484375,0.7958984375
2597,-0.5947265625,-0.0703125,0.8037109375
2598,-0.5947265625,-0.07421875,0.796875
2599,-0.5947265625,-0.0810546875,0.802734375
2600,-0.591796875,-0.076171875,0.7998046875
2601,-0.5927734375,-0.080078125,0.796875
2602,-0.59375,-0.0791015625,0.802734375
2603,-0.5986328125,-0.076171875,0.80078125
2604,-0.58984375,-0.0771484375,0.8095703125
2605,-0.5966796875,-0.0810546875,0.80859375
2606,-0.5908203125,-0.076171875,0.8056640625
2607,-0.58984375,-0.076171875,0.8017578125
2608,-0.5908203125,-0.08203125,0.7998046875
2609,-0.595703125,-0.0810546875,0.7998046875
2610,-0.591796875,-0.0791015625,0.802734375
2611,-0.59765625,-0.0791015625,0.8056640625
2612,-0.5908203125,-0.07421875,0.80078125
2613,-0.5859375,-0.08203125,0.8017578125
2614,-0.58984375,-0.08203125,0.8046875
2615,-0.5869140625,-0.0810546875,0.8095703125
2616,-0.5927734375,-0.087890625,0.8046875
2617,-0.5888671875,-0.0859375,0.7998046875
2618,-0.59375,-0.0849609375,0.80078125
2619,-0.5927734375,-0.08203125,0.7998046875
2620,-0.5947265625,-0.080078125,0.806640625
2621,-0.5947265625,-0.076171875,0.802734375
2622,-0.5966796875,-0.08203125,0.8017578125
2623,-0.591796875,-0.0830078125,0.798828125
2624,-0.5927734375,-0.072265625,0.806640625
2625,-0.5986328125,-0.076171875,0.8056640625
2626,-0.599609375,-0.0810546875,0.7978515625
2627,-0.591796875,-0.08203125,0.796875
2628,-0.5947265625,-0.0849609375,0.798828125
2629,-0.5966796875,-0.087890625,0.7998046875
2630,-0.5947265625,-0.0859375,0.798828125
2631,-0.5947265625,-0.078125,0.8017578125
2632,-0.591796875,-0.0830078125,0.802734375
2633,-0.59375,-0.083984375,0.802734375
2634,-0.5888671875,-0.0869140625,0.802734375
2635,-0.595703125,-0.078125,0.798828125
2636,-0.595703125,-0.07421875,0.796875
2637,-0.58984375,-0.08203125,0.7958984375
2638,-0.5908203125,-0.0810546875,0.798828125
2639,-0.58984375,-0.0859375,0.7978515625
2640,-0.58984375,-0.0830078125,0.7978515625
2641,-0.5888671875,-0.0791015625,0.796875
2642,-0.5947265625,-0.078125,0.802734375
2643,-0.5966796875,-0.083984375,0.7978515625
2644,-0.58984375,-0.0830078125,0.79296875
2645,-0.5869140625,-0.0859375,0.7998046875
2646,-0.5859375,-0.0859375,0.80078125
2647,-0.5869140625,-0.0791015625,0.8037109375
2648,-0.5966796875,-0.0849609375,0.8037109375
2649,-0.59375,-0.080078125,0.802734375
2650,-0.59375,-0.0830078125,0.8037109375
2651,-0.5859375,-0.0888671875,0.8017578125
2652,-0.5888671875,-0.0810546875,0.806640625
2653,-0.5947265625,-0.0830078125,0.8017578125
2654,-0.587890625,-0.0869140625,0.806640625
2655,-0.591796875,-0.0859375,0.8037109375
2656,-0.591796875,-0.0830078125,0.8037109375
2657,-0.591796875,-0.0869140625,0.8017578125
2658,-0.5869140625,-0.087890625,0.8046875
2659,-0.5888671875,-0.087890625,0.7998046875
2660,-0.5986328125,-0.0810546875,0.798828125
2661,-0.591796875,-0.0888671875,0.80078125
2662,-0.591796875,-0.0830078125,0.7998046875
2663,-0.5927734375,-0.083984375,0.8017578125
2664,-0.583984375,-0.0859375,0.8017578125
2665,-0.59765625,-0.0869140625,0.80078125
2666,-0.5927734375,-0.0869140625,0.796875
2667,-0.591796875,-0.091796875,0.80078125
2668,-0.59375,-0.0859375,0.802734375
2669,-0.59375,-0.0849609375,0.8017578125
2670,-0.595703125,-0.087890625,0.80078125
2671,-0.5947265625,-0.087890625,0.7978515625
2672,-0.5927734375,-0.08203125,0.80078125
2673,-0.58984375,-0.087890625,0.7998046875
2674,-0.58984375,-0.0830078125,0.7998046875
2675,-0.5986328125,-0.0888671875,0.8017578125
2676,-0.591796875,-0.087890625,0.8017578125
2677,-0.5986328125,-0.0869140625,0.8017578125
2678,-0.5927734375,-0.0810546875,0.8056640625
2679,-0.59375,-0.0830078125,0.7978515625
2680,-0.58984375,-0.08203125,0.8046875
2681,-0.591796875,-0.087890625,0.796875
2682,-0.5927734375,-0.087890625,0.8046875
2683,-0.5859375,-0.0908203125,0.8017578125
2684,-0.595703125,-0.0888671875,0.7998046875
2685,-0.58984375,-0.0869140625,0.8017578125
2686,-0.591796875,-0.0888671875,0.80078125
2687,-0.5908203125,-0.0859375,0.8017578125
2688,-0.5927734375,-0.0888671875,0.80078125
2689,-0.5888671875,-0.0859375,0.796875
2690,-0.59375,-0.0908203125,0.798828125
2691,-0.5888671875,-0.0869140625,0.8037109375
2692,-0.591796875,-0.08984375,0.798828125
2693,-0.5966796875,-0.087890625,0.7978515625
2694,-0.59375,-0.08984375,0.8017578125
2695,-0.5908203125,-0.0908203125,0.8017578125
2696,-0.5927734375,-0.0869140625,0.8056640625
2697,-0.5908203125,-0.08984375,0.8017578125
2698,-0.59765625,-0.08984375,0.8037109375
2699,-0.5927734375,-0.08984375,0.802734375
2700,-0.5869140625,-0.087890625,0.7998046875
2701,-0.58984375,-0.08984375,0.8017578125
2702,-0.5908203125,-0.091796875,0.7998046875
2703,-0.5888671875,-0.087890625,0.80078125
2704,-0.5888671875,-0.08984375,0.802734375
2705,-0.5927734375,-0.0888671875,0.80078125
2706,-0.5908203125,-0.0830078125,0.7978515625
2707,-0.5908203125,-0.0859375,0.8017578125
2708,-0.591796875,-0.0830078125,0.798828125
2709,-0.58984375,-0.087890625,0.8017578125
2710,-0.5908203125,-0.0849609375,0.798828125
2711,-0.59765625,-0.08203125,0.798828125
2712,-0.58984375,-0.0888671875,0.80078125
2713,-0.5947265625,-0.0859375,0.8017578125
2714,-0.5908203125,-0.087890625,0.796875
2715,-0.5966796875,-0.087890625,0.798828125
2716,-0.5927734375,-0.0830078125,0.7978515625
2717,-0.59375,-0.0849609375,0.796875
2718,-0.5908203125,-0.08203125,0.7958984375
2719,-0.591796875,-0.0830078125,0.798828125
2720,-0.5908203125,-0.08203125,0.80078125
2721,-0.5947265625,-0.0849609375,0.80078125
2722,-0.5888671875,-0.0869140625,0.80078125
2723,-0.591796875,-0.0849609375,0.798828125
2724,-0.5966796875,-0.0849609375,0.7978515625
2725,-0.5947265625,-0.083984375,0.798828125
2726,-0.59765625,-0.08984375,0.798828125
2727,-0.591796875,-0.087890625,0.796875
2728,-0.5947265625,-0.0888671875,0.7978515625
2729,-0.59375,-0.08984375,0.7978515625
2730,-0.59375,-0.0927734375,0.7958984375
2731,-0.591796875,-0.0908203125,0.796875
2732,-0.59765625,-0.0947265625,0.796875
2733,-0.599609375,-0.0859375,0.80078125
2734,-0.5986328125,-0.0869140625,0.798828125
2735,-0.6005859375,-0.0830078125,0.8046875
2736,-0.5986328125,-0.0859375,0.80078125
2737,-0.5927734375,-0.08984375,0.796875
2738,-0.6005859375,-0.08984375,0.8017578125
2739,-0.599609375,-0.0888671875,0.7998046875
2740,-0.5966796875,-0.091796875,0.7958984375
2741,-0.5927734375,-0.0830078125,0.794921875
2742,-0.59765625,-0.08203125,0.794921875
2743,-0.6005859375,-0.0849609375,0.8017578125
2744,-0.58984375,-0.0859375,0.796875
2745,-0.5869140625,-0.0869140625,0.802734375
2746,-0.5888671875,-0.0791015625,0.802734375
2747,-0.5849609375,-0.083984375,0.7998046875
2748,-0.5849609375,-0.0869140625,0.8056640625
2749,-0.587890625,-0.091796875,0.802734375
2750,-0.587890625,-0.091796875,0.8037109375
2751,-0.59375,-0.0830078125,0.8037109375
2752,-0.5849609375,-0.0791015625,0.8056640625
2753,-0.58984375,-0.0859375,0.8037109375
2754,-0.58984375,-0.087890625,0.810546875
2755,-0.58984375,-0.0908203125,0.806640625
2756,-0.5888671875,-0.0908203125,0.8046875
2757,-0.5927734375,-0.0869140625,0.80078125
2758,-0.5888671875,-0.0927734375,0.8056640625
2759,-0.5927734375,-0.0908203125,0.802734375
2760,-0.59375,-0.0908203125,0.8076171875
2761,-0.5908203125,-0.0927734375,0.8076171875
2762,-0.6005859375,-0.087890625,0.80078125
2763,-0.5966796875,-0.0888671875,0.80078125
2764,-0.5927734375,-0.0849609375,0.8076171875
2765,-0.59375,-0.087890625,0.8017578125
2766,-0.587890625,-0.0908203125,0.8056640625
2767,-0.5908203125,-0.091796875,0.8037109375
2768,-0.5859375,-0.0888671875,0.80078125
2769,-0.5908203125,-0.0888671875,0.798828125
2770,-0.58984375,-0.087890625,0.8037109375
2771,-0.587890625,-0.08203125,0.8017578125
2772,-0.583984375,-0.0888671875,0.8017578125
2773,-0.5888671875,-0.08984375,0.8046875
2774,-0.58984375,-0.09375,0.802734375
2775,-0.5869140625,-0.0927734375,0.8017578125
2776,-0.587890625,-0.0927734375,0.806640625
2777,-0.587890625,-0.0888671875,0.8056640625
2778,-0.58984375,-0.09375,0.8037109375
2779,-0.5888671875,-0.0859375,0.8037109375
2780,-0.5927734375,-0.0859375,0.80078125
2781,-0.5927734375,-0.083984375,0.8017578125
2782,-0.59375,-0.0849609375,0.8017578125
2783,-0.587890625,-0.091796875,0.798828125
2784,-0.5908203125,-0.0859375,0.7978515625
2785,-0.5947265625,-0.083984375,0.7958984375
2786,-0.5927734375,-0.0869140625,0.7998046875
2787,-0.5888671875,-0.0888671875,0.8037109375
2788,-0.58984375,-0.0849609375,0.80078125
2789,-0.5908203125,-0.0859375,0.80078125
2790,-0.5966796875,-0.0888671875,0.7998046875
2791,-0.59765625,-0.0859375,0.806640625
2792,-0.59375,-0.08203125,0.7978515625
2793,-0.591796875,-0.0888671875,0.8017578125
2794,-0.5927734375,-0.087890625,0.7998046875
2795,-0.59765625,-0.08984375,0.7978515625
2796,-0.595703125,-0.0888671875,0.7958984375
2797,-0.59375,-0.0859375,0.798828125
2798,-0.59375,-0.0859375,0.7958984375
2799,-0.5947265625,-0.0888671875,0.7958984375
2800,-0.59375,-0.087890625,0.796875
2801,-0.6025390625,-0.08984375,0.7958984375
2802,-0.595703125,-0.08203125,0.798828125
2803,-0.5947265625,-0.087890625,0.794921875
2804,-0.5966796875,-0.083984375,0.798828125
2805,-0.59765625,-0.08203125,0.796875
2806,-0.603515625,-0.0849609375,0.796875
2807,-0.5986328125,-0.08203125,0.7978515625
2808,-0.599609375,-0.08203125,0.794921875
2809,-0.599609375,-0.0849609375,0.796875
2810,-0.6015625,-0.076171875,0.798828125
2811,-0.6005859375,-0.0830078125,0.7998046875
2812,-0.6005859375,-0.08203125,0.79296875
2813,-0.5966796875,-0.0830078125,0.7958984375
2814,-0.599609375,-0.0830078125,0.79296875
