,accelerometerAccelerationX(G),accelerometerAccelerationY(G),accelerometerAccelerationZ(G)
0,-0.0654296875,-0.96875,-0.0751953125
1,-0.072265625,-0.966796875,-0.0693359375
2,-0.076171875,-0.9697265625,-0.068359375
3,-0.0751953125,-0.9599609375,-0.06640625
4,-0.07421875,-0.9638671875,-0.0654296875
5,-0.0712890625,-0.9697265625,-0.0654296875
6,-0.0771484375,-0.9638671875,-0.0673828125
7,-0.072265625,-0.9697265625,-0.0673828125
8,-0.0693359375,-0.96875,-0.0654296875
9,-0.0712890625,-0.9619140625,-0.0625
10,-0.0712890625,-0.9599609375,-0.0615234375
11,-0.068359375,-0.9521484375,-0.0615234375
12,-0.0693359375,-0.9482421875,-0.0654296875
13,-0.06640625,-0.9521484375,-0.0634765625
14,-0.06640625,-0.953125,-0.05859375
15,-0.0634765625,-0.953125,-0.05859375
16,-0.0625,-0.966796875,-0.05859375
17,-0.064453125,-0.9599609375,-0.0546875
18,-0.056640625,-0.9755859375,-0.056640625
19,-0.0625,-0.9765625,-0.0556640625
20,-0.064453125,-0.9873046875,-0.0634765625
21,-0.06640625,-0.9892578125,-0.0634765625
22,-0.0712890625,-0.9892578125,-0.0625
23,-0.078125,-0.9873046875,-0.056640625
24,-0.076171875,-0.986328125,-0.0595703125
25,-0.0771484375,-0.982421875,-0.060546875
26,-0.0791015625,-0.9697265625,-0.0625
27,-0.08203125,-0.962890625,-0.068359375
28,-0.078125,-0.9599609375,-0.068359375
29,-0.083984375,-0.9580078125,-0.072265625
30,-0.0830078125,-0.958984375,-0.0693359375
31,-0.080078125,-0.955078125,-0.06640625
32,-0.0810546875,-0.9541015625,-0.060546875
33,-0.0810546875,-0.953125,-0.05859375
34,-0.0771484375,-0.953125,-0.0595703125
35,-0.0732421875,-0.958984375,-0.0546875
36,-0.07421875,-0.958984375,-0.0546875
37,-0.068359375,-0.9638671875,-0.0537109375
38,-0.0751953125,-0.96875,-0.0517578125
39,-0.0712890625,-0.9619140625,-0.0537109375
40,-0.0693359375,-0.974609375,-0.0546875
41,-0.0654296875,-0.974609375,-0.0625
42,-0.068359375,-0.9658203125,-0.0615234375
43,-0.068359375,-0.9736328125,-0.0654296875
44,-0.068359375,-0.962890625,-0.064453125
45,-0.0654296875,-0.970703125,-0.064453125
46,-0.0673828125,-0.958984375,-0.068359375
47,-0.0703125,-0.96875,-0.06640625
48,-0.0693359375,-0.9599609375,-0.064453125
49,-0.078125,-0.9609375,-0.05859375
50,-0.07421875,-0.95703125,-0.05859375
51,-0.07421875,-0.9609375,-0.0556640625
52,-0.0712890625,-0.9638671875,-0.05859375
53,-0.0751953125,-0.955078125,-0.056640625
54,-0.0732421875,-0.9638671875,-0.0556640625
55,-0.0693359375,-0.9599609375,-0.0576171875
56,-0.0732421875,-0.962890625,-0.05859375
57,-0.0703125,-0.958984375,-0.0634765625
58,-0.0712890625,-0.9619140625,-0.0595703125
59,-0.07421875,-0.962890625,-0.0595703125
60,-0.07421875,-0.9775390625,-0.060546875
61,-0.0732421875,-0.96875,-0.0615234375
62,-0.0673828125,-0.9619140625,-0.0634765625
63,-0.0673828125,-0.974609375,-0.05859375
64,-0.0693359375,-0.9755859375,-0.0556640625
65,-0.0693359375,-0.96875,-0.05859375
66,-0.0693359375,-0.96484375,-0.05859375
67,-0.0673828125,-0.9677734375,-0.0595703125
68,-0.0732421875,-0.9697265625,-0.060546875
69,-0.0732421875,-0.9716796875,-0.05859375
70,-0.076171875,-0.9677734375,-0.060546875
71,-0.078125,-0.9697265625,-0.0615234375
72,-0.07421875,-0.9560546875,-0.0595703125
73,-0.078125,-0.953125,-0.0595703125
74,-0.07421875,-0.958984375,-0.0537109375
75,-0.0712890625,-0.962890625,-0.0576171875
76,-0.0732421875,-0.9609375,-0.0556640625
77,-0.07421875,-0.958984375,-0.052734375
78,-0.07421875,-0.953125,-0.0517578125
79,-0.0703125,-0.9580078125,-0.0537109375
80,-0.0732421875,-0.95703125,-0.05078125
81,-0.0703125,-0.953125,-0.048828125
82,-0.0751953125,-0.958984375,-0.0537109375
83,-0.0732421875,-0.9599609375,-0.0517578125
84,-0.0751953125,-0.9599609375,-0.0556640625
85,-0.0732421875,-0.9580078125,-0.052734375
86,-0.0732421875,-0.962890625,-0.0498046875
87,-0.0693359375,-0.9638671875,-0.0546875
88,-0.07421875,-0.9755859375,-0.0615234375
89,-0.0712890625,-0.9697265625,-0.05859375
90,-0.0703125,-0.9677734375,-0.0615234375
91,-0.0703125,-0.9697265625,-0.060546875
92,-0.0751953125,-0.9599609375,-0.060546875
93,-0.0712890625,-0.958984375,-0.05859375
94,-0.072265625,-0.958984375,-0.0546875
95,-0.0732421875,-0.9619140625,-0.0546875
96,-0.07421875,-0.9609375,-0.0537109375
97,-0.076171875,-0.95703125,-0.0556640625
98,-0.07421875,-0.9609375,-0.05859375
99,-0.0712890625,-0.95703125,-0.0556640625
100,-0.072265625,-0.958984375,-0.0546875
101,-0.07421875,-0.9697265625,-0.0556640625
102,-0.0673828125,-0.9638671875,-0.0537109375
103,-0.0751953125,-0.974609375,-0.0546875
104,-0.07421875,-0.970703125,-0.060546875
105,-0.072265625,-0.962890625,-0.05859375
106,-0.0712890625,-0.9609375,-0.05859375
107,-0.0712890625,-0.9638671875,-0.0576171875
108,-0.0732421875,-0.9677734375,-0.0625
109,-0.0693359375,-0.9599609375,-0.0625
110,-0.0693359375,-0.9677734375,-0.05859375
111,-0.068359375,-0.966796875,-0.0654296875
112,-0.0693359375,-0.955078125,-0.0634765625
113,-0.0712890625,-0.95703125,-0.0625
114,-0.0673828125,-0.9599609375,-0.060546875
115,-0.0673828125,-0.9609375,-0.060546875
116,-0.0693359375,-0.9609375,-0.0595703125
117,-0.0712890625,-0.9580078125,-0.0595703125
118,-0.07421875,-0.9560546875,-0.0595703125
119,-0.0751953125,-0.9580078125,-0.0634765625
120,-0.072265625,-0.9541015625,-0.0595703125
121,-0.0732421875,-0.9638671875,-0.0625
122,-0.0732421875,-0.962890625,-0.060546875
123,-0.0751953125,-0.9677734375,-0.0625
124,-0.0712890625,-0.9677734375,-0.0595703125
125,-0.068359375,-0.9716796875,-0.05859375
126,-0.072265625,-0.96875,-0.05859375
127,-0.0751953125,-0.9638671875,-0.0625
128,-0.0712890625,-0.958984375,-0.0556640625
129,-0.076171875,-0.9580078125,-0.060546875
130,-0.0732421875,-0.955078125,-0.060546875
131,-0.0703125,-0.9580078125,-0.060546875
132,-0.072265625,-0.953125,-0.060546875
133,-0.0693359375,-0.95703125,-0.0576171875
134,-0.0673828125,-0.9609375,-0.05859375
135,-0.0712890625,-0.962890625,-0.0546875
136,-0.0712890625,-0.9638671875,-0.060546875
137,-0.068359375,-0.9716796875,-0.0595703125
138,-0.064453125,-0.9853515625,-0.060546875
139,-0.0712890625,-0.9873046875,-0.05859375
140,-0.068359375,-0.982421875,-0.0625
141,-0.068359375,-0.970703125,-0.0625
142,-0.072265625,-0.9736328125,-0.0576171875
143,-0.0703125,-0.9736328125,-0.0556640625
144,-0.0732421875,-0.9619140625,-0.0546875
145,-0.07421875,-0.9755859375,-0.0546875
146,-0.076171875,-0.9609375,-0.052734375
147,-0.0693359375,-0.958984375,-0.056640625
148,-0.07421875,-0.9521484375,-0.0595703125
149,-0.076171875,-0.9580078125,-0.0634765625
150,-0.07421875,-0.9580078125,-0.060546875
151,-0.07421875,-0.955078125,-0.05859375
152,-0.07421875,-0.9560546875,-0.0576171875
153,-0.0751953125,-0.958984375,-0.0576171875
154,-0.0703125,-0.958984375,-0.0537109375
155,-0.0693359375,-0.9580078125,-0.0537109375
156,-0.0693359375,-0.9697265625,-0.05859375
157,-0.068359375,-0.9677734375,-0.0595703125
158,-0.0703125,-0.9736328125,-0.056640625
159,-0.06640625,-0.9638671875,-0.0537109375
160,-0.0703125,-0.9765625,-0.06640625
161,-0.068359375,-0.9736328125,-0.060546875
162,-0.0654296875,-0.974609375,-0.064453125
163,-0.0673828125,-0.95703125,-0.064453125
164,-0.0673828125,-0.9609375,-0.0615234375
165,-0.0703125,-0.9560546875,-0.0625
166,-0.0693359375,-0.958984375,-0.06640625
167,-0.068359375,-0.95703125,-0.0615234375
168,-0.06640625,-0.9560546875,-0.0654296875
169,-0.07421875,-0.9658203125,-0.0595703125
170,-0.0732421875,-0.9580078125,-0.05859375
171,-0.068359375,-0.962890625,-0.05859375
172,-0.072265625,-0.9638671875,-0.060546875
173,-0.0732421875,-0.974609375,-0.0615234375
174,-0.0712890625,-0.9697265625,-0.0634765625
175,-0.07421875,-0.962890625,-0.0634765625
176,-0.076171875,-0.9677734375,-0.0625
177,-0.0654296875,-0.974609375,-0.0634765625
178,-0.076171875,-0.962890625,-0.0634765625
179,-0.0732421875,-0.95703125,-0.0654296875
180,-0.072265625,-0.9697265625,-0.0625
181,-0.0693359375,-0.9599609375,-0.0615234375
182,-0.072265625,-0.95703125,-0.05859375
183,-0.0673828125,-0.9599609375,-0.056640625
184,-0.0673828125,-0.9619140625,-0.0595703125
185,-0.0693359375,-0.97265625,-0.05859375
186,-0.0703125,-0.962890625,-0.0595703125
187,-0.072265625,-0.970703125,-0.064453125
188,-0.06640625,-0.9697265625,-0.064453125
189,-0.068359375,-0.98046875,-0.06640625
190,-0.0712890625,-0.974609375,-0.0615234375
191,-0.068359375,-0.96875,-0.0634765625
192,-0.068359375,-0.9716796875,-0.0654296875
193,-0.0703125,-0.96875,-0.0615234375
194,-0.0712890625,-0.9619140625,-0.0625
195,-0.0712890625,-0.962890625,-0.060546875
196,-0.07421875,-0.9609375,-0.05859375
197,-0.064453125,-0.9599609375,-0.0634765625
198,-0.0712890625,-0.958984375,-0.060546875
199,-0.0654296875,-0.9609375,-0.0615234375
200,-0.072265625,-0.96484375,-0.0595703125
201,-0.0693359375,-0.966796875,-0.0537109375
202,-0.0634765625,-0.9609375,-0.0576171875
203,-0.0703125,-0.974609375,-0.0546875
204,-0.068359375,-0.9599609375,-0.05859375
205,-0.0703125,-0.96484375,-0.060546875
206,-0.068359375,-0.9609375,-0.0576171875
207,-0.0634765625,-0.96875,-0.0625
208,-0.0712890625,-0.966796875,-0.0634765625
209,-0.0634765625,-0.9638671875,-0.06640625
210,-0.0693359375,-0.970703125,-0.0634765625
211,-0.064453125,-0.9638671875,-0.0654296875
212,-0.06640625,-0.9765625,-0.060546875
213,-0.0654296875,-0.9775390625,-0.0625
214,-0.0712890625,-0.958984375,-0.0595703125
215,-0.0673828125,-0.9619140625,-0.0595703125
216,-0.07421875,-0.9755859375,-0.056640625
217,-0.0712890625,-0.9658203125,-0.056640625
218,-0.0693359375,-0.958984375,-0.056640625
219,-0.0693359375,-0.96484375,-0.0576171875
220,-0.068359375,-0.9638671875,-0.05859375
221,-0.06640625,-0.9619140625,-0.0595703125
222,-0.0673828125,-0.96484375,-0.060546875
223,-0.0693359375,-0.962890625,-0.056640625
224,-0.0732421875,-0.9697265625,-0.0595703125
225,-0.0673828125,-0.96875,-0.0615234375
226,-0.0693359375,-0.96484375,-0.0615234375
227,-0.068359375,-0.9716796875,-0.064453125
228,-0.068359375,-0.9609375,-0.0634765625
229,-0.0732421875,-0.9697265625,-0.064453125
230,-0.0712890625,-0.958984375,-0.06640625
231,-0.0693359375,-0.9658203125,-0.060546875
232,-0.0703125,-0.9599609375,-0.06640625
233,-0.06640625,-0.9619140625,-0.060546875
234,-0.072265625,-0.958984375,-0.0634765625
235,-0.0673828125,-0.96875,-0.0625
236,-0.072265625,-0.958984375,-0.060546875
237,-0.0673828125,-0.9638671875,-0.0634765625
238,-0.0693359375,-0.958984375,-0.0634765625
239,-0.0693359375,-0.9609375,-0.06640625
240,-0.0712890625,-0.9609375,-0.05859375
241,-0.072265625,-0.9619140625,-0.056640625
242,-0.07421875,-0.96875,-0.0615234375
243,-0.068359375,-0.9677734375,-0.05859375
244,-0.0654296875,-0.9619140625,-0.0625
245,-0.0654296875,-0.9619140625,-0.0615234375
246,-0.0654296875,-0.9609375,-0.0595703125
247,-0.0693359375,-0.9638671875,-0.05859375
248,-0.0703125,-0.9599609375,-0.0654296875
249,-0.07421875,-0.962890625,-0.0595703125
250,-0.0693359375,-0.9599609375,-0.0615234375
251,-0.06640625,-0.9580078125,-0.064453125
252,-0.0673828125,-0.9580078125,-0.0625
253,-0.072265625,-0.9609375,-0.060546875
254,-0.0703125,-0.96875,-0.060546875
255,-0.068359375,-0.962890625,-0.0595703125
256,-0.0693359375,-0.9755859375,-0.0634765625
257,-0.0732421875,-0.9794921875,-0.0634765625
258,-0.0703125,-0.984375,-0.0625
259,-0.072265625,-0.984375,-0.0634765625
260,-0.072265625,-0.984375,-0.0615234375
261,-0.0703125,-0.9794921875,-0.0693359375
262,-0.07421875,-0.984375,-0.064453125
263,-0.068359375,-0.9794921875,-0.068359375
264,-0.0771484375,-0.9775390625,-0.06640625
265,-0.072265625,-0.962890625,-0.06640625
266,-0.0693359375,-0.9619140625,-0.0693359375
267,-0.0712890625,-0.9599609375,-0.0703125
268,-0.0673828125,-0.9521484375,-0.0625
269,-0.0712890625,-0.951171875,-0.064453125
270,-0.068359375,-0.9501953125,-0.060546875
271,-0.07421875,-0.94921875,-0.06640625
272,-0.072265625,-0.951171875,-0.0595703125
273,-0.0703125,-0.9541015625,-0.0634765625
274,-0.0751953125,-0.95703125,-0.060546875
275,-0.07421875,-0.9599609375,-0.0576171875
276,-0.0771484375,-0.95703125,-0.060546875
277,-0.076171875,-0.970703125,-0.0615234375
278,-0.0732421875,-0.9697265625,-0.0634765625
279,-0.0712890625,-0.9716796875,-0.0576171875
280,-0.0693359375,-0.9638671875,-0.0615234375
281,-0.068359375,-0.98046875,-0.0576171875
282,-0.0703125,-0.9794921875,-0.060546875
283,-0.0712890625,-0.9794921875,-0.0634765625
284,-0.0703125,-0.974609375,-0.06640625
285,-0.0712890625,-0.96875,-0.05859375
286,-0.0693359375,-0.9794921875,-0.064453125
287,-0.0712890625,-0.970703125,-0.0625
288,-0.0732421875,-0.96484375,-0.0654296875
289,-0.072265625,-0.9697265625,-0.0693359375
290,-0.0732421875,-0.9599609375,-0.0625
291,-0.0693359375,-0.9580078125,-0.06640625
292,-0.07421875,-0.9580078125,-0.064453125
293,-0.0703125,-0.958984375,-0.068359375
294,-0.0703125,-0.9638671875,-0.06640625
295,-0.072265625,-0.958984375,-0.064453125
296,-0.0673828125,-0.962890625,-0.0654296875
297,-0.068359375,-0.962890625,-0.0654296875
298,-0.0732421875,-0.9619140625,-0.0673828125
299,-0.07421875,-0.9638671875,-0.0634765625
300,-0.0703125,-0.9658203125,-0.0634765625
301,-0.0654296875,-0.9599609375,-0.068359375
302,-0.0693359375,-0.9619140625,-0.0693359375
303,-0.0693359375,-0.96875,-0.0703125
304,-0.064453125,-0.9716796875,-0.072265625
305,-0.06640625,-0.9775390625,-0.068359375
306,-0.06640625,-0.98046875,-0.072265625
307,-0.0634765625,-0.974609375,-0.07421875
308,-0.0654296875,-0.9677734375,-0.0693359375
309,-0.0654296875,-0.974609375,-0.0654296875
310,-0.064453125,-0.96875,-0.0654296875
311,-0.0703125,-0.97265625,-0.0615234375
312,-0.068359375,-0.9736328125,-0.064453125
313,-0.06640625,-0.9599609375,-0.064453125
314,-0.0673828125,-0.958984375,-0.064453125
315,-0.0732421875,-0.9609375,-0.05859375
316,-0.0732421875,-0.962890625,-0.0595703125
317,-0.0703125,-0.9560546875,-0.06640625
318,-0.068359375,-0.9560546875,-0.0634765625
319,-0.064453125,-0.95703125,-0.064453125
320,-0.0634765625,-0.9560546875,-0.0595703125
321,-0.06640625,-0.9609375,-0.0595703125
322,-0.06640625,-0.9560546875,-0.05859375
323,-0.0703125,-0.9677734375,-0.0634765625
324,-0.07421875,-0.96484375,-0.0634765625
325,-0.072265625,-0.9638671875,-0.060546875
326,-0.0693359375,-0.962890625,-0.0654296875
327,-0.0703125,-0.9638671875,-0.064453125
328,-0.0712890625,-0.9697265625,-0.0615234375
329,-0.068359375,-0.96875,-0.064453125
330,-0.0693359375,-0.9755859375,-0.060546875
331,-0.0693359375,-0.9755859375,-0.06640625
332,-0.0703125,-0.974609375,-0.060546875
333,-0.0712890625,-0.9638671875,-0.060546875
334,-0.0703125,-0.962890625,-0.0595703125
335,-0.06640625,-0.970703125,-0.0546875
336,-0.0703125,-0.9609375,-0.05859375
337,-0.072265625,-0.958984375,-0.0595703125
338,-0.0673828125,-0.966796875,-0.060546875
339,-0.07421875,-0.9658203125,-0.0615234375
340,-0.0712890625,-0.9677734375,-0.05859375
341,-0.072265625,-0.970703125,-0.0615234375
342,-0.068359375,-0.9658203125,-0.0634765625
343,-0.072265625,-0.96875,-0.06640625
344,-0.0712890625,-0.9697265625,-0.05859375
345,-0.068359375,-0.9609375,-0.0595703125
346,-0.0732421875,-0.9619140625,-0.0654296875
347,-0.072265625,-0.970703125,-0.0615234375
348,-0.0703125,-0.974609375,-0.0615234375
349,-0.06640625,-0.9619140625,-0.0625
350,-0.072265625,-0.9609375,-0.0615234375
351,-0.0654296875,-0.9697265625,-0.0576171875
352,-0.068359375,-0.9697265625,-0.0625
353,-0.068359375,-0.96875,-0.0625
354,-0.0673828125,-0.962890625,-0.060546875
355,-0.064453125,-0.9697265625,-0.0625
356,-0.06640625,-0.9619140625,-0.0654296875
357,-0.0732421875,-0.9609375,-0.0673828125
358,-0.0634765625,-0.9541015625,-0.064453125
359,-0.0703125,-0.9541015625,-0.0634765625
360,-0.0673828125,-0.958984375,-0.0673828125
361,-0.0703125,-0.9658203125,-0.068359375
362,-0.0625,-0.9638671875,-0.0654296875
363,-0.06640625,-0.9619140625,-0.068359375
364,-0.0654296875,-0.966796875,-0.064453125
365,-0.0654296875,-0.958984375,-0.0625
366,-0.0634765625,-0.9658203125,-0.060546875
367,-0.06640625,-0.96875,-0.0595703125
368,-0.0654296875,-0.9755859375,-0.0615234375
369,-0.0732421875,-0.9599609375,-0.0576171875
370,-0.07421875,-0.9638671875,-0.05859375
371,-0.076171875,-0.9638671875,-0.0576171875
372,-0.072265625,-0.95703125,-0.0625
373,-0.076171875,-0.958984375,-0.060546875
374,-0.0732421875,-0.9609375,-0.05859375
375,-0.078125,-0.966796875,-0.0556640625
376,-0.07421875,-0.970703125,-0.0634765625
377,-0.076171875,-0.9736328125,-0.0595703125
378,-0.07421875,-0.9755859375,-0.05859375
379,-0.0751953125,-0.98046875,-0.0595703125
380,-0.076171875,-0.98828125,-0.05859375
381,-0.072265625,-0.98046875,-0.0556640625
382,-0.0732421875,-0.9853515625,-0.0546875
383,-0.0732421875,-0.97265625,-0.056640625
384,-0.0751953125,-0.9716796875,-0.0556640625
385,-0.07421875,-0.9697265625,-0.060546875
386,-0.072265625,-0.9658203125,-0.05859375
387,-0.07421875,-0.962890625,-0.05859375
388,-0.07421875,-0.9541015625,-0.0625
389,-0.0732421875,-0.9541015625,-0.0595703125
390,-0.076171875,-0.951171875,-0.0537109375
391,-0.0751953125,-0.9560546875,-0.0546875
392,-0.07421875,-0.9501953125,-0.052734375
393,-0.0751953125,-0.9541015625,-0.044921875
394,-0.078125,-0.9560546875,-0.052734375
395,-0.080078125,-0.962890625,-0.0517578125
396,-0.0732421875,-0.962890625,-0.0517578125
397,-0.0751953125,-0.9677734375,-0.0498046875
398,-0.07421875,-0.9716796875,-0.05078125
399,-0.076171875,-0.974609375,-0.0576171875
400,-0.078125,-0.9775390625,-0.05859375
401,-0.0712890625,-0.9765625,-0.0576171875
402,-0.0673828125,-0.9794921875,-0.0595703125
403,-0.0693359375,-0.9794921875,-0.05859375
404,-0.0703125,-0.96875,-0.0556640625
405,-0.072265625,-0.96875,-0.0615234375
406,-0.068359375,-0.9736328125,-0.0546875
407,-0.068359375,-0.96484375,-0.056640625
408,-0.0703125,-0.974609375,-0.0576171875
409,-0.0654296875,-0.9658203125,-0.0576171875
410,-0.0693359375,-0.962890625,-0.0634765625
411,-0.0712890625,-0.96484375,-0.0576171875
412,-0.0693359375,-0.9609375,-0.0595703125
413,-0.0703125,-0.95703125,-0.0634765625
414,-0.0703125,-0.9599609375,-0.060546875
415,-0.072265625,-0.9599609375,-0.0517578125
416,-0.0673828125,-0.9599609375,-0.0576171875
417,-0.0693359375,-0.9609375,-0.05859375
418,-0.0673828125,-0.958984375,-0.0595703125
419,-0.0654296875,-0.9658203125,-0.0576171875
420,-0.0654296875,-0.958984375,-0.056640625
421,-0.068359375,-0.96875,-0.056640625
422,-0.0654296875,-0.96875,-0.05859375
423,-0.0693359375,-0.9765625,-0.0595703125
424,-0.0693359375,-0.9775390625,-0.056640625
425,-0.0703125,-0.9755859375,-0.0615234375
426,-0.0693359375,-0.9619140625,-0.060546875
427,-0.068359375,-0.9697265625,-0.060546875
428,-0.06640625,-0.974609375,-0.05859375
429,-0.0673828125,-0.962890625,-0.05859375
430,-0.0654296875,-0.9619140625,-0.0576171875
431,-0.06640625,-0.9599609375,-0.0556640625
432,-0.0654296875,-0.96484375,-0.052734375
433,-0.072265625,-0.962890625,-0.052734375
434,-0.0703125,-0.966796875,-0.0537109375
435,-0.0693359375,-0.9677734375,-0.0537109375
436,-0.0693359375,-0.9609375,-0.0576171875
437,-0.06640625,-0.958984375,-0.0595703125
438,-0.064453125,-0.958984375,-0.0546875
439,-0.0654296875,-0.966796875,-0.05078125
440,-0.064453125,-0.9697265625,-0.046875
441,-0.068359375,-0.962890625,-0.0556640625
442,-0.0654296875,-0.9609375,-0.052734375
443,-0.064453125,-0.9609375,-0.05078125
444,-0.064453125,-0.9638671875,-0.05078125
445,-0.06640625,-0.9619140625,-0.05078125
446,-0.0673828125,-0.9638671875,-0.0498046875
447,-0.064453125,-0.9638671875,-0.048828125
448,-0.0625,-0.9619140625,-0.05078125
449,-0.0673828125,-0.9638671875,-0.0498046875
450,-0.068359375,-0.9677734375,-0.046875
451,-0.0693359375,-0.970703125,-0.0478515625
452,-0.0673828125,-0.96484375,-0.048828125
453,-0.0654296875,-0.9599609375,-0.05078125
454,-0.06640625,-0.9638671875,-0.0458984375
455,-0.06640625,-0.9609375,-0.0498046875
456,-0.0693359375,-0.9599609375,-0.048828125
457,-0.0615234375,-0.966796875,-0.0498046875
458,-0.064453125,-0.9638671875,-0.052734375
459,-0.0673828125,-0.9619140625,-0.0517578125
460,-0.0615234375,-0.9677734375,-0.0517578125
461,-0.0654296875,-0.96875,-0.05078125
462,-0.0703125,-0.962890625,-0.046875
463,-0.0654296875,-0.9619140625,-0.0517578125
464,-0.0634765625,-0.962890625,-0.0498046875
465,-0.0654296875,-0.962890625,-0.0498046875
466,-0.0654296875,-0.9736328125,-0.0478515625
467,-0.0634765625,-0.970703125,-0.0458984375
468,-0.064453125,-0.9609375,-0.05078125
469,-0.0634765625,-0.974609375,-0.0517578125
470,-0.064453125,-0.9677734375,-0.05078125
471,-0.068359375,-0.970703125,-0.0537109375
472,-0.068359375,-0.96875,-0.05078125
473,-0.068359375,-0.9775390625,-0.0478515625
474,-0.0693359375,-0.96484375,-0.05078125
475,-0.06640625,-0.962890625,-0.0498046875
476,-0.0673828125,-0.9677734375,-0.0517578125
477,-0.07421875,-0.9638671875,-0.056640625
478,-0.072265625,-0.958984375,-0.05078125
479,-0.064453125,-0.951171875,-0.046875
480,-0.0703125,-0.962890625,-0.046875
481,-0.0673828125,-0.95703125,-0.046875
482,-0.06640625,-0.970703125,-0.048828125
483,-0.068359375,-0.95703125,-0.044921875
484,-0.060546875,-0.9580078125,-0.0439453125
485,-0.060546875,-0.9619140625,-0.044921875
486,-0.0654296875,-0.96875,-0.0400390625
487,-0.0712890625,-0.9619140625,-0.0380859375
488,-0.068359375,-0.962890625,-0.0390625
489,-0.0712890625,-0.9619140625,-0.04296875
490,-0.068359375,-0.9697265625,-0.0419921875
491,-0.0732421875,-0.9638671875,-0.0439453125
492,-0.072265625,-0.9697265625,-0.041015625
493,-0.07421875,-0.9609375,-0.046875
494,-0.0732421875,-0.9580078125,-0.0439453125
495,-0.0703125,-0.9619140625,-0.0419921875
496,-0.072265625,-0.962890625,-0.037109375
497,-0.0654296875,-0.9638671875,-0.044921875
498,-0.06640625,-0.96875,-0.044921875
499,-0.0654296875,-0.9794921875,-0.04296875
500,-0.0615234375,-0.9814453125,-0.048828125
501,-0.068359375,-0.986328125,-0.046875
502,-0.0654296875,-0.9873046875,-0.04296875
503,-0.068359375,-0.9814453125,-0.046875
504,-0.0654296875,-0.9814453125,-0.0419921875
505,-0.0654296875,-0.974609375,-0.0390625
506,-0.068359375,-0.9716796875,-0.0419921875
507,-0.0654296875,-0.9638671875,-0.0419921875
508,-0.064453125,-0.958984375,-0.0458984375
509,-0.0693359375,-0.9580078125,-0.044921875
510,-0.064453125,-0.951171875,-0.0439453125
511,-0.0673828125,-0.9541015625,-0.0419921875
512,-0.068359375,-0.951171875,-0.0361328125
513,-0.0712890625,-0.953125,-0.037109375
514,-0.0673828125,-0.953125,-0.0380859375
515,-0.06640625,-0.9560546875,-0.0341796875
516,-0.0732421875,-0.9638671875,-0.0341796875
517,-0.0693359375,-0.9697265625,-0.0419921875
518,-0.0693359375,-0.9794921875,-0.0380859375
519,-0.0693359375,-0.98046875,-0.0419921875
520,-0.0673828125,-0.982421875,-0.04296875
521,-0.0693359375,-0.98046875,-0.0419921875
522,-0.060546875,-0.9794921875,-0.0478515625
523,-0.0634765625,-0.9716796875,-0.04296875
524,-0.0615234375,-0.9765625,-0.048828125
525,-0.0654296875,-0.966796875,-0.0478515625
526,-0.064453125,-0.97265625,-0.0439453125
527,-0.0654296875,-0.966796875,-0.0517578125
528,-0.068359375,-0.96875,-0.048828125
529,-0.0634765625,-0.9580078125,-0.0498046875
530,-0.06640625,-0.953125,-0.0546875
531,-0.06640625,-0.955078125,-0.0419921875
532,-0.0693359375,-0.9580078125,-0.04296875
533,-0.068359375,-0.95703125,-0.041015625
534,-0.072265625,-0.958984375,-0.0458984375
535,-0.0693359375,-0.9541015625,-0.046875
536,-0.06640625,-0.955078125,-0.0419921875
537,-0.0712890625,-0.955078125,-0.041015625
538,-0.0703125,-0.955078125,-0.0439453125
539,-0.068359375,-0.9580078125,-0.04296875
540,-0.068359375,-0.9619140625,-0.0419921875
541,-0.072265625,-0.962890625,-0.041015625
542,-0.068359375,-0.9755859375,-0.0361328125
543,-0.0673828125,-0.974609375,-0.0390625
544,-0.068359375,-0.9765625,-0.044921875
545,-0.0673828125,-0.9794921875,-0.0380859375
546,-0.068359375,-0.984375,-0.0380859375
547,-0.068359375,-0.974609375,-0.0380859375
548,-0.0654296875,-0.9677734375,-0.0341796875
549,-0.0693359375,-0.9765625,-0.0419921875
550,-0.0712890625,-0.9736328125,-0.0400390625
551,-0.068359375,-0.9638671875,-0.0478515625
552,-0.07421875,-0.966796875,-0.044921875
553,-0.06640625,-0.95703125,-0.04296875
554,-0.0712890625,-0.955078125,-0.0380859375
555,-0.0732421875,-0.9609375,-0.0390625
556,-0.06640625,-0.9560546875,-0.037109375
557,-0.068359375,-0.9638671875,-0.03515625
558,-0.0732421875,-0.966796875,-0.033203125
559,-0.0712890625,-0.9580078125,-0.03515625
560,-0.07421875,-0.96484375,-0.03125
561,-0.07421875,-0.966796875,-0.0341796875
562,-0.0732421875,-0.9619140625,-0.037109375
563,-0.07421875,-0.9638671875,-0.0322265625
564,-0.07421875,-0.9677734375,-0.037109375
565,-0.0703125,-0.9716796875,-0.0380859375
566,-0.07421875,-0.96875,-0.037109375
567,-0.0751953125,-0.9755859375,-0.0322265625
568,-0.0703125,-0.96875,-0.0390625
569,-0.0703125,-0.9619140625,-0.0390625
570,-0.0712890625,-0.9736328125,-0.0419921875
571,-0.068359375,-0.9609375,-0.037109375
572,-0.0732421875,-0.9736328125,-0.03125
573,-0.0703125,-0.96484375,-0.0322265625
574,-0.0751953125,-0.9697265625,-0.0302734375
575,-0.076171875,-0.966796875,-0.033203125
576,-0.0712890625,-0.9619140625,-0.03125
577,-0.0732421875,-0.9658203125,-0.03125
578,-0.0751953125,-0.9697265625,-0.0341796875
579,-0.0732421875,-0.9580078125,-0.0341796875
580,-0.07421875,-0.9677734375,-0.0302734375
581,-0.0703125,-0.9580078125,-0.0419921875
582,-0.0751953125,-0.962890625,-0.0390625
583,-0.0693359375,-0.9599609375,-0.0400390625
584,-0.072265625,-0.974609375,-0.0400390625
585,-0.07421875,-0.9609375,-0.0380859375
586,-0.0732421875,-0.9658203125,-0.0419921875
587,-0.0693359375,-0.9609375,-0.048828125
588,-0.0693359375,-0.9638671875,-0.046875
589,-0.068359375,-0.9638671875,-0.0361328125
590,-0.0693359375,-0.9580078125,-0.0341796875
591,-0.0693359375,-0.9638671875,-0.037109375
592,-0.0712890625,-0.96484375,-0.0380859375
593,-0.068359375,-0.9609375,-0.0283203125
594,-0.07421875,-0.9697265625,-0.0361328125
595,-0.072265625,-0.9677734375,-0.0322265625
596,-0.0712890625,-0.9755859375,-0.0390625
597,-0.0712890625,-0.9697265625,-0.0302734375
598,-0.0732421875,-0.9599609375,-0.0341796875
599,-0.072265625,-0.966796875,-0.0302734375
600,-0.0751953125,-0.9609375,-0.037109375
601,-0.0732421875,-0.97265625,-0.029296875
602,-0.0732421875,-0.962890625,-0.025390625
603,-0.0751953125,-0.9677734375,-0.03125
604,-0.0751953125,-0.9599609375,-0.025390625
605,-0.07421875,-0.9619140625,-0.0283203125
606,-0.07421875,-0.958984375,-0.0283203125
607,-0.0751953125,-0.966796875,-0.029296875
608,-0.07421875,-0.96875,-0.029296875
609,-0.0771484375,-0.9638671875,-0.03125
610,-0.072265625,-0.9609375,-0.02734375
611,-0.072265625,-0.9619140625,-0.03515625
612,-0.07421875,-0.9697265625,-0.033203125
613,-0.0751953125,-0.9599609375,-0.03515625
614,-0.068359375,-0.962890625,-0.033203125
615,-0.072265625,-0.9638671875,-0.033203125
616,-0.0703125,-0.96875,-0.0283203125
617,-0.0703125,-0.9619140625,-0.029296875
618,-0.0693359375,-0.966796875,-0.0302734375
619,-0.0654296875,-0.958984375,-0.0244140625
620,-0.0654296875,-0.9794921875,-0.0263671875
621,-0.0712890625,-0.982421875,-0.0244140625
622,-0.07421875,-0.9736328125,-0.0205078125
623,-0.0751953125,-0.9794921875,-0.0205078125
624,-0.076171875,-0.978515625,-0.0234375
625,-0.076171875,-0.962890625,-0.021484375
626,-0.08203125,-0.96875,-0.0146484375
627,-0.076171875,-0.95703125,-0.01953125
628,-0.078125,-0.955078125,-0.0166015625
629,-0.0771484375,-0.958984375,-0.0224609375
630,-0.07421875,-0.953125,-0.025390625
631,-0.080078125,-0.95703125,-0.029296875
632,-0.0810546875,-0.9541015625,-0.0302734375
633,-0.0791015625,-0.9541015625,-0.021484375
634,-0.0791015625,-0.958984375,-0.021484375
635,-0.0810546875,-0.958984375,-0.021484375
636,-0.0791015625,-0.9619140625,-0.025390625
637,-0.0751953125,-0.958984375,-0.01953125
638,-0.0771484375,-0.9638671875,-0.017578125
639,-0.07421875,-0.9560546875,-0.0234375
640,-0.072265625,-0.970703125,-0.0205078125
641,-0.0732421875,-0.9765625,-0.021484375
642,-0.07421875,-0.9814453125,-0.0244140625
643,-0.0673828125,-0.970703125,-0.029296875
644,-0.06640625,-0.9697265625,-0.033203125
645,-0.06640625,-0.962890625,-0.02734375
646,-0.068359375,-0.9677734375,-0.029296875
647,-0.068359375,-0.9560546875,-0.02734375
648,-0.0703125,-0.95703125,-0.0302734375
649,-0.072265625,-0.9599609375,-0.0283203125
650,-0.07421875,-0.9560546875,-0.029296875
651,-0.076171875,-0.951171875,-0.021484375
652,-0.07421875,-0.9541015625,-0.0263671875
653,-0.0751953125,-0.953125,-0.0224609375
654,-0.0791015625,-0.9580078125,-0.0234375
655,-0.076171875,-0.9580078125,-0.0224609375
656,-0.0771484375,-0.958984375,-0.0234375
657,-0.076171875,-0.9541015625,-0.02734375
658,-0.076171875,-0.9609375,-0.0244140625
659,-0.078125,-0.9560546875,-0.0322265625
660,-0.0771484375,-0.9599609375,-0.0244140625
661,-0.0732421875,-0.955078125,-0.0244140625
662,-0.068359375,-0.962890625,-0.0166015625
663,-0.0703125,-0.9697265625,-0.0302734375
664,-0.076171875,-0.96875,-0.0234375
665,-0.0703125,-0.9609375,-0.0244140625
666,-0.072265625,-0.9736328125,-0.029296875
667,-0.072265625,-0.9697265625,-0.0263671875
668,-0.0712890625,-0.9755859375,-0.0283203125
669,-0.0712890625,-0.9697265625,-0.0263671875
670,-0.072265625,-0.9638671875,-0.0244140625
671,-0.0751953125,-0.974609375,-0.0263671875
672,-0.078125,-0.9619140625,-0.0234375
673,-0.0751953125,-0.958984375,-0.021484375
674,-0.0751953125,-0.955078125,-0.0126953125
675,-0.076171875,-0.958984375,-0.017578125
676,-0.0771484375,-0.9541015625,-0.0166015625
677,-0.0791015625,-0.95703125,-0.01953125
678,-0.0791015625,-0.962890625,-0.0185546875
679,-0.076171875,-0.955078125,-0.017578125
680,-0.0732421875,-0.958984375,-0.01953125
681,-0.0751953125,-0.958984375,-0.01953125
682,-0.076171875,-0.9677734375,-0.0185546875
683,-0.07421875,-0.9638671875,-0.0146484375
684,-0.07421875,-0.9619140625,-0.0146484375
685,-0.072265625,-0.9638671875,-0.017578125
686,-0.0751953125,-0.96875,-0.021484375
687,-0.0712890625,-0.962890625,-0.01953125
688,-0.0751953125,-0.962890625,-0.01953125
689,-0.0703125,-0.9716796875,-0.017578125
690,-0.07421875,-0.96875,-0.0185546875
691,-0.07421875,-0.9638671875,-0.0166015625
692,-0.072265625,-0.9599609375,-0.021484375
693,-0.072265625,-0.9677734375,-0.017578125
694,-0.0771484375,-0.9697265625,-0.015625
695,-0.0751953125,-0.962890625,-0.017578125
696,-0.076171875,-0.9619140625,-0.0166015625
697,-0.0810546875,-0.9619140625,-0.0185546875
698,-0.0751953125,-0.9619140625,-0.0185546875
699,-0.078125,-0.966796875,-0.0205078125
700,-0.078125,-0.9677734375,-0.0185546875
701,-0.0751953125,-0.9599609375,-0.01953125
702,-0.07421875,-0.9619140625,-0.01953125
703,-0.078125,-0.95703125,-0.0205078125
704,-0.0712890625,-0.9599609375,-0.013671875
705,-0.0751953125,-0.9638671875,-0.0126953125
706,-0.0791015625,-0.9609375,-0.013671875
707,-0.0751953125,-0.962890625,-0.017578125
708,-0.076171875,-0.9599609375,-0.01953125
709,-0.07421875,-0.96875,-0.015625
710,-0.07421875,-0.9619140625,-0.01953125
711,-0.076171875,-0.96484375,-0.01953125
712,-0.07421875,-0.962890625,-0.0126953125
713,-0.072265625,-0.96875,-0.015625
714,-0.076171875,-0.9638671875,-0.0166015625
715,-0.0751953125,-0.9609375,-0.0166015625
716,-0.0732421875,-0.9638671875,-0.0185546875
717,-0.076171875,-0.97265625,-0.0205078125
718,-0.0751953125,-0.970703125,-0.013671875
719,-0.0771484375,-0.9609375,-0.0126953125
720,-0.0751953125,-0.966796875,-0.0146484375
721,-0.0771484375,-0.958984375,-0.017578125
722,-0.0751953125,-0.9697265625,-0.013671875
723,-0.076171875,-0.95703125,-0.0166015625
724,-0.07421875,-0.95703125,-0.0185546875
725,-0.0771484375,-0.9599609375,-0.0087890625
726,-0.076171875,-0.9609375,-0.0087890625
727,-0.0751953125,-0.9580078125,-0.0048828125
728,-0.0732421875,-0.95703125,-0.00390625
729,-0.076171875,-0.9599609375,-0.0068359375
730,-0.0703125,-0.9638671875,-0.013671875
731,-0.0673828125,-0.9609375,-0.0068359375
732,-0.0703125,-0.962890625,-0.0078125
733,-0.0751953125,-0.9521484375,-0.0107421875
734,-0.0791015625,-0.9716796875,-0.0107421875
735,-0.0732421875,-0.96484375,-0.01171875
736,-0.076171875,-0.9599609375,-0.0068359375
737,-0.0712890625,-0.9580078125,-0.009765625
738,-0.07421875,-0.9609375,-0.009765625
739,-0.0654296875,-0.9609375,-0.0068359375
740,-0.07421875,-0.974609375,-0.0126953125
741,-0.0693359375,-0.9794921875,-0.0068359375
742,-0.0673828125,-0.982421875,-0.009765625
743,-0.07421875,-0.9794921875,-0.013671875
744,-0.076171875,-0.9794921875,-0.01171875
745,-0.0751953125,-0.984375,-0.01171875
746,-0.078125,-0.9736328125,-0.0048828125
747,-0.0771484375,-0.9697265625,-0.0048828125
748,-0.07421875,-0.9716796875,-0.00390625
749,-0.072265625,-0.9619140625,-0.00390625
750,-0.078125,-0.9560546875,-0.0068359375
751,-0.0751953125,-0.953125,-0.009765625
752,-0.078125,-0.9580078125,-0.0126953125
753,-0.0751953125,-0.953125,-0.0087890625
754,-0.080078125,-0.951171875,-0.0126953125
755,-0.076171875,-0.953125,-0.009765625
756,-0.08203125,-0.9560546875,-0.0048828125
757,-0.0810546875,-0.95703125,-0.0048828125
758,-0.0771484375,-0.9609375,-0.0029296875
759,-0.0771484375,-0.9599609375,-0.0068359375
760,-0.0732421875,-0.9697265625,-0.0068359375
761,-0.0751953125,-0.97265625,-0.0078125
762,-0.0751953125,-0.96875,-0.009765625
763,-0.0751953125,-0.974609375,-0.01171875
764,-0.07421875,-0.974609375,-0.0166015625
765,-0.0732421875,-0.9765625,-0.015625
766,-0.07421875,-0.9716796875,-0.009765625
767,-0.07421875,-0.9755859375,-0.0107421875
768,-0.0712890625,-0.96875,-0.013671875
769,-0.076171875,-0.96875,-0.0078125
770,-0.0732421875,-0.9619140625,-0.005859375
771,-0.0771484375,-0.958984375,-0.0107421875
772,-0.076171875,-0.9638671875,-0.0078125
773,-0.076171875,-0.955078125,-0.0166015625
774,-0.07421875,-0.953125,-0.0078125
775,-0.076171875,-0.95703125,-0.0087890625
776,-0.07421875,-0.9521484375,-0.0107421875
777,-0.0791015625,-0.95703125,-0.0068359375
778,-0.0751953125,-0.955078125,-0.0068359375
779,-0.07421875,-0.9599609375,-0.0078125
780,-0.0810546875,-0.9599609375,-0.0107421875
781,-0.0771484375,-0.9560546875,-0.0107421875
782,-0.0791015625,-0.958984375,-0.0078125
783,-0.0771484375,-0.958984375,-0.0087890625
784,-0.0771484375,-0.9560546875,-0.0048828125
785,-0.076171875,-0.9609375,-0.005859375
786,-0.076171875,-0.9619140625,-0.0048828125
787,-0.0751953125,-0.9697265625,-0.0029296875
788,-0.0751953125,-0.9609375,-0.005859375
789,-0.0732421875,-0.96875,-0.0068359375
790,-0.0771484375,-0.962890625,-0.0078125
791,-0.0732421875,-0.970703125,-0.0048828125
792,-0.07421875,-0.974609375,-0.013671875
793,-0.078125,-0.9736328125,-0.0107421875
794,-0.07421875,-0.9697265625,-0.01171875
795,-0.076171875,-0.978515625,-0.005859375
796,-0.0751953125,-0.9775390625,-0.0078125
797,-0.078125,-0.958984375,-0.0087890625
798,-0.0830078125,-0.9677734375,-0.00390625
799,-0.0771484375,-0.9638671875,-0.00390625
800,-0.0771484375,-0.9609375,-0.0087890625
801,-0.076171875,-0.962890625,-0.0048828125
802,-0.0771484375,-0.9541015625,-0.005859375
803,-0.0751953125,-0.9541015625,-0.00390625
804,-0.0771484375,-0.955078125,-0.00390625
805,-0.0771484375,-0.955078125,0.0
806,-0.080078125,-0.9541015625,-0.0009765625
807,-0.0771484375,-0.9560546875,-0.00390625
808,-0.076171875,-0.9619140625,-0.00390625
809,-0.080078125,-0.9658203125,-0.00390625
810,-0.0771484375,-0.9580078125,-0.001953125
811,-0.07421875,-0.96875,-0.0009765625
812,-0.0751953125,-0.962890625,-0.0029296875
813,-0.0751953125,-0.9736328125,-0.001953125
814,-0.0791015625,-0.9794921875,-0.0078125
815,-0.0771484375,-0.9658203125,-0.0029296875
816,-0.07421875,-0.96484375,-0.0078125
817,-0.0771484375,-0.970703125,-0.0048828125
818,-0.076171875,-0.9580078125,-0.0009765625
819,-0.076171875,-0.9677734375,0.0
820,-0.078125,-0.9658203125,-0.0029296875
821,-0.078125,-0.96875,0.0
822,-0.078125,-0.962890625,-0.0009765625
823,-0.08203125,-0.9619140625,0.0
824,-0.08203125,-0.95703125,-0.0029296875
825,-0.0810546875,-0.9609375,-0.0068359375
826,-0.078125,-0.95703125,-0.0048828125
827,-0.080078125,-0.958984375,-0.005859375
828,-0.0810546875,-0.958984375,-0.005859375
829,-0.0771484375,-0.9609375,-0.00390625
830,-0.076171875,-0.9541015625,-0.009765625
831,-0.0751953125,-0.9541015625,-0.0029296875
832,-0.0771484375,-0.958984375,-0.005859375
833,-0.07421875,-0.9609375,-0.0048828125
834,-0.078125,-0.962890625,-0.0068359375
835,-0.078125,-0.970703125,-0.005859375
836,-0.0751953125,-0.9609375,-0.00390625
837,-0.0771484375,-0.9560546875,-0.001953125
838,-0.078125,-0.974609375,-0.0078125
839,-0.0771484375,-0.962890625,-0.001953125
840,-0.076171875,-0.9736328125,0.0
841,-0.0771484375,-0.96875,-0.001953125
842,-0.0751953125,-0.978515625,-0.00390625
843,-0.080078125,-0.9697265625,-0.0048828125
844,-0.076171875,-0.96875,-0.005859375
845,-0.0771484375,-0.9658203125,-0.00390625
846,-0.0771484375,-0.962890625,-0.0048828125
847,-0.0791015625,-0.9619140625,-0.0048828125
848,-0.0751953125,-0.96484375,-0.00390625
849,-0.076171875,-0.966796875,-0.0078125
850,-0.076171875,-0.955078125,-0.0068359375
851,-0.076171875,-0.9580078125,-0.0029296875
852,-0.0791015625,-0.9599609375,-0.00390625
853,-0.0791015625,-0.9541015625,-0.0029296875
854,-0.0810546875,-0.9619140625,-0.005859375
855,-0.080078125,-0.9580078125,-0.0078125
856,-0.078125,-0.9599609375,-0.0078125
857,-0.0751953125,-0.9609375,-0.0107421875
858,-0.0751953125,-0.962890625,-0.0068359375
859,-0.0751953125,-0.96875,-0.00390625
860,-0.076171875,-0.962890625,-0.0078125
861,-0.0810546875,-0.9599609375,-0.0029296875
862,-0.0771484375,-0.958984375,-0.00390625
863,-0.080078125,-0.9580078125,-0.00390625
864,-0.0810546875,-0.9541015625,-0.0048828125
865,-0.080078125,-0.9580078125,-0.00390625
866,-0.078125,-0.95703125,-0.0048828125
867,-0.0791015625,-0.95703125,-0.0078125
868,-0.076171875,-0.9638671875,-0.0029296875
869,-0.0712890625,-0.958984375,-0.0078125
870,-0.0791015625,-0.9736328125,-0.0087890625
871,-0.0771484375,-0.982421875,-0.0068359375
872,-0.0771484375,-0.9833984375,-0.0068359375
873,-0.0791015625,-0.982421875,-0.005859375
874,-0.08203125,-0.98828125,-0.0048828125
875,-0.080078125,-0.98046875,-0.005859375
876,-0.0751953125,-0.9814453125,-0.005859375
877,-0.076171875,-0.974609375,-0.005859375
878,-0.076171875,-0.9697265625,-0.0087890625
879,-0.07421875,-0.9599609375,-0.0087890625
880,-0.0732421875,-0.955078125,-0.0068359375
881,-0.076171875,-0.9501953125,-0.0107421875
882,-0.0751953125,-0.947265625,-0.009765625
883,-0.0771484375,-0.9501953125,-0.0107421875
884,-0.072265625,-0.951171875,-0.0068359375
885,-0.076171875,-0.9501953125,-0.0029296875
886,-0.08203125,-0.9462890625,-0.0029296875
887,-0.076171875,-0.94921875,-0.0009765625
888,-0.0810546875,-0.9609375,0.0
889,-0.0791015625,-0.9599609375,-0.0009765625
890,-0.080078125,-0.970703125,-0.0087890625
891,-0.0751953125,-0.96875,-0.0029296875
892,-0.0751953125,-0.9736328125,-0.005859375
893,-0.080078125,-0.9794921875,-0.005859375
894,-0.078125,-0.9716796875,-0.00390625
895,-0.0751953125,-0.9814453125,-0.0107421875
896,-0.076171875,-0.9794921875,-0.0078125
897,-0.076171875,-0.974609375,-0.009765625
898,-0.072265625,-0.9658203125,-0.013671875
899,-0.078125,-0.962890625,-0.0078125
900,-0.0732421875,-0.96484375,-0.00390625
901,-0.0751953125,-0.9638671875,-0.0048828125
902,-0.078125,-0.9619140625,-0.0009765625
903,-0.0771484375,-0.958984375,-0.0029296875
904,-0.0751953125,-0.9541015625,-0.005859375
905,-0.078125,-0.955078125,-0.00390625
906,-0.0732421875,-0.9541015625,-0.00390625
907,-0.078125,-0.9609375,-0.009765625
908,-0.0771484375,-0.9599609375,-0.0048828125
909,-0.072265625,-0.96484375,-0.0068359375
910,-0.0751953125,-0.9677734375,-0.009765625
911,-0.0732421875,-0.95703125,-0.009765625
912,-0.0732421875,-0.9580078125,-0.0029296875
913,-0.078125,-0.9541015625,-0.0029296875
914,-0.072265625,-0.9580078125,-0.001953125
915,-0.072265625,-0.9609375,-0.0029296875
916,-0.072265625,-0.9619140625,-0.00390625
917,-0.072265625,-0.9677734375,-0.0068359375
918,-0.07421875,-0.962890625,-0.005859375
919,-0.076171875,-0.9619140625,-0.009765625
920,-0.0751953125,-0.962890625,-0.0078125
921,-0.0751953125,-0.970703125,-0.00390625
922,-0.076171875,-0.9619140625,-0.0078125
923,-0.0751953125,-0.962890625,-0.00390625
924,-0.07421875,-0.9697265625,-0.005859375
925,-0.080078125,-0.962890625,-0.0068359375
926,-0.07421875,-0.9697265625,-0.0068359375
927,-0.0751953125,-0.96875,-0.00390625
928,-0.0751953125,-0.9677734375,-0.0029296875
929,-0.0771484375,-0.9599609375,-0.0029296875
930,-0.0791015625,-0.9638671875,-0.0048828125
931,-0.0791015625,-0.9599609375,-0.001953125
932,-0.076171875,-0.958984375,-0.00390625
933,-0.078125,-0.9609375,-0.0029296875
934,-0.0771484375,-0.966796875,0.0
935,-0.0771484375,-0.95703125,-0.0048828125
936,-0.076171875,-0.962890625,-0.0029296875
937,-0.0810546875,-0.9599609375,0.0
938,-0.078125,-0.9580078125,-0.00390625
939,-0.076171875,-0.9609375,-0.0029296875
940,-0.07421875,-0.958984375,-0.0048828125
941,-0.08203125,-0.974609375,-0.00390625
942,-0.0751953125,-0.962890625,-0.0078125
943,-0.0771484375,-0.9580078125,-0.0009765625
944,-0.078125,-0.9736328125,-0.0048828125
945,-0.078125,-0.970703125,-0.001953125
946,-0.078125,-0.9736328125,-0.0009765625
947,-0.076171875,-0.9619140625,0.0009765625
948,-0.076171875,-0.9638671875,-0.00390625
949,-0.0771484375,-0.9697265625,-0.0068359375
950,-0.078125,-0.9619140625,-0.0009765625
951,-0.0751953125,-0.9619140625,-0.0029296875
952,-0.0732421875,-0.958984375,-0.0029296875
953,-0.0751953125,-0.9599609375,0.0
954,-0.0751953125,-0.958984375,-0.0078125
955,-0.0751953125,-0.966796875,-0.00390625
956,-0.07421875,-0.9697265625,-0.0048828125
957,-0.0732421875,-0.9619140625,-0.0087890625
958,-0.076171875,-0.9609375,-0.0078125
959,-0.076171875,-0.958984375,-0.009765625
960,-0.0751953125,-0.9697265625,-0.0029296875
961,-0.076171875,-0.9658203125,-0.0048828125
962,-0.076171875,-0.9638671875,-0.005859375
963,-0.078125,-0.96875,-0.0078125
964,-0.0732421875,-0.9619140625,-0.0029296875
965,-0.072265625,-0.966796875,-0.005859375
966,-0.0771484375,-0.9658203125,-0.0029296875
967,-0.0771484375,-0.9658203125,-0.0048828125
968,-0.0791015625,-0.95703125,-0.001953125
969,-0.072265625,-0.9580078125,-0.005859375
970,-0.076171875,-0.970703125,-0.0029296875
971,-0.072265625,-0.9677734375,-0.0029296875
972,-0.07421875,-0.958984375,-0.00390625
973,-0.0732421875,-0.96875,-0.0048828125
974,-0.07421875,-0.966796875,-0.0029296875
975,-0.078125,-0.9794921875,0.0029296875
976,-0.0791015625,-0.9873046875,0.0009765625
977,-0.0751953125,-0.958984375,-0.01171875
978,-0.0693359375,-0.9501953125,-0.005859375
979,-0.072265625,-0.9580078125,-0.00390625
980,-0.0673828125,-0.9609375,-0.0009765625
981,-0.07421875,-0.9541015625,-0.001953125
982,-0.0732421875,-0.9560546875,-0.0009765625
983,-0.0732421875,-0.9599609375,0.0068359375
984,-0.0703125,-0.9619140625,0.0
985,-0.07421875,-0.970703125,0.001953125
986,-0.0703125,-0.9677734375,0.0
987,-0.072265625,-0.962890625,0.00390625
988,-0.0751953125,-0.9765625,0.001953125
989,-0.076171875,-0.978515625,0.0048828125
990,-0.07421875,-0.9638671875,-0.0009765625
991,-0.076171875,-0.9677734375,0.001953125
992,-0.0732421875,-0.9599609375,0.0
993,-0.076171875,-0.9697265625,-0.001953125
994,-0.076171875,-0.9619140625,-0.0068359375
995,-0.0771484375,-0.96875,-0.0048828125
996,-0.072265625,-0.9755859375,-0.001953125
997,-0.0693359375,-0.96875,-0.0078125
998,-0.07421875,-0.970703125,0.0009765625
999,-0.07421875,-0.96484375,0.0
1000,-0.07421875,-0.9599609375,0.0048828125
1001,-0.0791015625,-0.9609375,0.0009765625
1002,-0.07421875,-0.9599609375,0.0009765625
1003,-0.0771484375,-0.9521484375,0.001953125
1004,-0.076171875,-0.9501953125,0.0009765625
1005,-0.076171875,-0.9541015625,-0.0009765625
1006,-0.078125,-0.9541015625,0.0009765625
1007,-0.0703125,-0.953125,-0.0009765625
1008,-0.0732421875,-0.9560546875,-0.0009765625
1009,-0.0693359375,-0.9609375,-0.00390625
1010,-0.0703125,-0.970703125,-0.00390625
1011,-0.064453125,-0.98046875,-0.0029296875
1012,-0.0693359375,-0.986328125,-0.0009765625
1013,-0.068359375,-0.9892578125,0.0
1014,-0.0712890625,-0.9853515625,-0.0009765625
1015,-0.0673828125,-0.9833984375,0.0029296875
1016,-0.068359375,-0.974609375,-0.0009765625
1017,-0.068359375,-0.970703125,0.005859375
1018,-0.0703125,-0.95703125,0.0009765625
1019,-0.06640625,-0.953125,-0.0029296875
1020,-0.0703125,-0.9541015625,0.0
1021,-0.0712890625,-0.9482421875,0.0
1022,-0.078125,-0.9501953125,0.00390625
1023,-0.0732421875,-0.9521484375,0.0107421875
1024,-0.076171875,-0.9501953125,0.0087890625
1025,-0.0751953125,-0.9541015625,0.0107421875
1026,-0.080078125,-0.9560546875,0.009765625
1027,-0.0830078125,-0.9580078125,0.009765625
1028,-0.0771484375,-0.9736328125,0.0068359375
1029,-0.083984375,-0.9697265625,0.005859375
1030,-0.0810546875,-0.97265625,0.0107421875
1031,-0.0791015625,-0.970703125,0.0078125
1032,-0.0771484375,-0.9765625,0.0078125
1033,-0.0732421875,-0.9794921875,0.005859375
1034,-0.0712890625,-0.9697265625,0.0107421875
1035,-0.076171875,-0.9697265625,0.0009765625
1036,-0.07421875,-0.974609375,0.0087890625
1037,-0.0712890625,-0.9697265625,0.005859375
1038,-0.072265625,-0.9619140625,0.0068359375
1039,-0.076171875,-0.96875,0.0048828125
1040,-0.072265625,-0.9736328125,0.0078125
1041,-0.076171875,-0.9697265625,0.0029296875
1042,-0.0771484375,-0.970703125,0.001953125
1043,-0.0771484375,-0.9677734375,-0.001953125
1044,-0.0771484375,-0.9638671875,-0.00390625
1045,-0.0751953125,-0.958984375,0.0
1046,-0.076171875,-0.95703125,0.0
1047,-0.0771484375,-0.9599609375,0.0029296875
1048,-0.07421875,-0.95703125,0.001953125
1049,-0.076171875,-0.9638671875,-0.001953125
1050,-0.0732421875,-0.9609375,0.001953125
1051,-0.0771484375,-0.95703125,0.005859375
1052,-0.0771484375,-0.9609375,0.005859375
1053,-0.0771484375,-0.9580078125,0.009765625
1054,-0.0703125,-0.95703125,0.0068359375
1055,-0.0712890625,-0.9599609375,0.005859375
1056,-0.072265625,-0.9609375,0.00390625
1057,-0.0751953125,-0.9609375,0.0029296875
1058,-0.0751953125,-0.970703125,0.0029296875
1059,-0.0751953125,-0.9794921875,-0.001953125
1060,-0.0771484375,-0.9619140625,-0.0009765625
1061,-0.078125,-0.970703125,-0.0009765625
1062,-0.0791015625,-0.9736328125,-0.0009765625
1063,-0.08203125,-0.982421875,-0.0029296875
1064,-0.0849609375,-0.9853515625,-0.001953125
1065,-0.0849609375,-0.98828125,-0.001953125
1066,-0.087890625,-0.98046875,-0.0107421875
1067,-0.08984375,-0.986328125,-0.01171875
1068,-0.087890625,-0.984375,-0.0078125
1069,-0.080078125,-0.9833984375,-0.013671875
1070,-0.078125,-0.9765625,-0.0107421875
1071,-0.076171875,-0.9638671875,-0.0146484375
1072,-0.072265625,-0.9580078125,-0.0107421875
1073,-0.0634765625,-0.9482421875,-0.0146484375
1074,-0.064453125,-0.951171875,-0.0107421875
1075,-0.0576171875,-0.9443359375,-0.0048828125
1076,-0.05859375,-0.953125,0.0
1077,-0.048828125,-0.9521484375,0.009765625
1078,-0.0498046875,-0.96484375,0.015625
1079,-0.05859375,-0.9775390625,0.0205078125
1080,-0.0546875,-0.978515625,0.0185546875
1081,-0.0615234375,-0.9814453125,0.01953125
1082,-0.06640625,-0.9755859375,0.0205078125
1083,-0.0712890625,-0.978515625,0.021484375
1084,-0.0693359375,-0.9599609375,0.0244140625
1085,-0.076171875,-0.955078125,0.0244140625
1086,-0.078125,-0.951171875,0.01953125
1087,-0.07421875,-0.9443359375,0.025390625
1088,-0.0810546875,-0.931640625,0.0234375
1089,-0.0810546875,-0.935546875,0.025390625
1090,-0.0810546875,-0.9453125,0.01953125
1091,-0.0830078125,-0.943359375,0.0244140625
1092,-0.083984375,-0.9482421875,0.021484375
1093,-0.0869140625,-0.9521484375,0.029296875
1094,-0.0927734375,-0.9521484375,0.0244140625
1095,-0.09375,-0.95703125,0.025390625
1096,-0.09765625,-0.9755859375,0.03125
1097,-0.0947265625,-0.9765625,0.02734375
1098,-0.09375,-0.9892578125,0.0263671875
1099,-0.08984375,-0.9912109375,0.017578125
1100,-0.087890625,-0.994140625,0.01953125
1101,-0.0869140625,-0.9892578125,0.015625
1102,-0.0859375,-0.9921875,0.017578125
1103,-0.08203125,-0.9833984375,0.015625
1104,-0.08203125,-0.984375,0.0146484375
1105,-0.080078125,-0.9697265625,0.01171875
1106,-0.080078125,-0.966796875,0.0107421875
1107,-0.0751953125,-0.958984375,0.0126953125
1108,-0.08203125,-0.9580078125,0.015625
1109,-0.0791015625,-0.955078125,0.0126953125
1110,-0.0810546875,-0.955078125,0.017578125
1111,-0.08203125,-0.9501953125,0.0205078125
1112,-0.091796875,-0.951171875,0.015625
1113,-0.0966796875,-0.94921875,0.017578125
1114,-0.09765625,-0.9541015625,0.01171875
1115,-0.1025390625,-0.953125,0.0166015625
1116,-0.111328125,-0.955078125,0.0146484375
1117,-0.109375,-0.9521484375,0.0224609375
1118,-0.1162109375,-0.953125,0.0224609375
1119,-0.115234375,-0.9521484375,0.02734375
1120,-0.1171875,-0.95703125,0.025390625
1121,-0.1181640625,-0.9453125,0.0322265625
1122,-0.12890625,-0.943359375,0.0341796875
1123,-0.119140625,-0.9501953125,0.02734375
1124,-0.119140625,-0.951171875,0.02734375
1125,-0.123046875,-0.9443359375,0.03125
1126,-0.119140625,-0.9462890625,0.0283203125
1127,-0.1240234375,-0.9453125,0.0322265625
1128,-0.1171875,-0.9541015625,0.025390625
1129,-0.119140625,-0.958984375,0.025390625
1130,-0.1298828125,-0.955078125,0.0322265625
1131,-0.126953125,-0.9599609375,0.03125
1132,-0.1279296875,-0.962890625,0.0302734375
1133,-0.1337890625,-0.9609375,0.03515625
1134,-0.130859375,-0.9609375,0.03125
1135,-0.12890625,-0.9638671875,0.0283203125
1136,-0.12890625,-0.9775390625,0.0302734375
1137,-0.1279296875,-0.9697265625,0.029296875
1138,-0.119140625,-0.96875,0.033203125
1139,-0.1171875,-0.9697265625,0.029296875
1140,-0.109375,-0.9736328125,0.0302734375
1141,-0.103515625,-0.9677734375,0.025390625
1142,-0.1015625,-0.9775390625,0.0283203125
1143,-0.0947265625,-0.9697265625,0.029296875
1144,-0.08984375,-0.97265625,0.03125
1145,-0.0908203125,-0.9697265625,0.0380859375
1146,-0.08203125,-0.9599609375,0.0322265625
1147,-0.078125,-0.951171875,0.0390625
1148,-0.0810546875,-0.955078125,0.044921875
1149,-0.0771484375,-0.951171875,0.05078125
1150,-0.0771484375,-0.9521484375,0.0576171875
1151,-0.0771484375,-0.9482421875,0.0556640625
1152,-0.0830078125,-0.9521484375,0.05859375
1153,-0.076171875,-0.955078125,0.0654296875
1154,-0.078125,-0.958984375,0.0634765625
1155,-0.07421875,-0.955078125,0.0634765625
1156,-0.0703125,-0.958984375,0.0615234375
1157,-0.06640625,-0.9609375,0.0595703125
1158,-0.060546875,-0.962890625,0.056640625
1159,-0.0615234375,-0.97265625,0.0498046875
1160,-0.0517578125,-0.970703125,0.0595703125
1161,-0.05078125,-0.9619140625,0.0615234375
1162,-0.0478515625,-0.9541015625,0.0615234375
1163,-0.0419921875,-0.9521484375,0.0673828125
1164,-0.041015625,-0.9560546875,0.0673828125
1165,-0.0458984375,-0.9580078125,0.0732421875
1166,-0.048828125,-0.96484375,0.076171875
1167,-0.048828125,-0.9677734375,0.0791015625
1168,-0.060546875,-0.966796875,0.080078125
1169,-0.0576171875,-0.9697265625,0.0908203125
1170,-0.0654296875,-0.9638671875,0.0927734375
1171,-0.06640625,-0.95703125,0.0888671875
1172,-0.0673828125,-0.953125,0.091796875
1173,-0.072265625,-0.9482421875,0.083984375
1174,-0.078125,-0.9404296875,0.08203125
1175,-0.0712890625,-0.9296875,0.078125
1176,-0.080078125,-0.912109375,0.0810546875
1177,-0.0791015625,-0.9013671875,0.0810546875
1178,-0.0791015625,-0.90234375,0.083984375
1179,-0.08203125,-0.8896484375,0.0888671875
1180,-0.0771484375,-0.892578125,0.09375
1181,-0.087890625,-0.88671875,0.099609375
1182,-0.091796875,-0.8837890625,0.0986328125
1183,-0.099609375,-0.88671875,0.1005859375
1184,-0.1005859375,-0.8955078125,0.099609375
1185,-0.103515625,-0.9013671875,0.1044921875
1186,-0.1044921875,-0.9033203125,0.10546875
1187,-0.111328125,-0.9111328125,0.1083984375
1188,-0.1162109375,-0.9130859375,0.1123046875
1189,-0.1103515625,-0.916015625,0.1103515625
1190,-0.1171875,-0.9208984375,0.1103515625
1191,-0.115234375,-0.927734375,0.1181640625
1192,-0.1162109375,-0.93359375,0.1181640625
1193,-0.1240234375,-0.9365234375,0.1181640625
1194,-0.126953125,-0.943359375,0.1201171875
1195,-0.134765625,-0.9501953125,0.115234375
1196,-0.1328125,-0.953125,0.1123046875
1197,-0.1318359375,-0.9580078125,0.107421875
1198,-0.1337890625,-0.9619140625,0.10546875
1199,-0.1259765625,-0.9560546875,0.103515625
1200,-0.123046875,-0.9580078125,0.1044921875
1201,-0.1201171875,-0.958984375,0.103515625
1202,-0.1171875,-0.953125,0.1044921875
1203,-0.1064453125,-0.953125,0.109375
1204,-0.1123046875,-0.9501953125,0.1123046875
1205,-0.0986328125,-0.9404296875,0.1083984375
1206,-0.10546875,-0.9404296875,0.1083984375
1207,-0.09765625,-0.9306640625,0.10546875
1208,-0.0986328125,-0.931640625,0.099609375
1209,-0.095703125,-0.9248046875,0.0947265625
1210,-0.091796875,-0.9267578125,0.0966796875
1211,-0.0859375,-0.9169921875,0.0859375
1212,-0.0830078125,-0.9169921875,0.08203125
1213,-0.0869140625,-0.9150390625,0.0810546875
1214,-0.0859375,-0.919921875,0.0849609375
1215,-0.083984375,-0.919921875,0.0849609375
1216,-0.09375,-0.923828125,0.0869140625
1217,-0.0908203125,-0.9326171875,0.0888671875
1218,-0.08984375,-0.9365234375,0.083984375
1219,-0.09375,-0.9423828125,0.0849609375
1220,-0.09765625,-0.94921875,0.08984375
1221,-0.095703125,-0.9462890625,0.0859375
1222,-0.10546875,-0.951171875,0.0849609375
1223,-0.1015625,-0.955078125,0.080078125
1224,-0.107421875,-0.9501953125,0.0771484375
1225,-0.099609375,-0.9580078125,0.076171875
1226,-0.1025390625,-0.9599609375,0.0654296875
1227,-0.1103515625,-0.95703125,0.0693359375
1228,-0.1064453125,-0.955078125,0.06640625
1229,-0.109375,-0.9609375,0.06640625
1230,-0.1083984375,-0.9677734375,0.06640625
1231,-0.10546875,-0.9580078125,0.0625
1232,-0.099609375,-0.9609375,0.0634765625
1233,-0.1025390625,-0.95703125,0.060546875
1234,-0.1044921875,-0.9501953125,0.0615234375
1235,-0.095703125,-0.953125,0.0556640625
1236,-0.0869140625,-0.943359375,0.0546875
1237,-0.0810546875,-0.9345703125,0.0478515625
1238,-0.0791015625,-0.9326171875,0.048828125
1239,-0.078125,-0.9287109375,0.0390625
1240,-0.072265625,-0.921875,0.0380859375
1241,-0.07421875,-0.9208984375,0.0341796875
1242,-0.068359375,-0.919921875,0.037109375
1243,-0.0595703125,-0.923828125,0.0361328125
1244,-0.0546875,-0.9326171875,0.033203125
1245,-0.05078125,-0.9326171875,0.0283203125
1246,-0.0517578125,-0.939453125,0.0263671875
1247,-0.04296875,-0.9423828125,0.0205078125
1248,-0.0419921875,-0.9482421875,0.0166015625
1249,-0.044921875,-0.955078125,0.015625
1250,-0.0341796875,-0.951171875,0.0078125
1251,-0.0341796875,-0.9521484375,0.0048828125
1252,-0.03515625,-0.9462890625,0.0
1253,-0.03125,-0.9453125,-0.0029296875
1254,-0.0234375,-0.939453125,-0.0107421875
1255,-0.0263671875,-0.9404296875,-0.0234375
1256,-0.0166015625,-0.935546875,-0.0224609375
1257,-0.01953125,-0.931640625,-0.02734375
1258,-0.01953125,-0.931640625,-0.0234375
1259,-0.013671875,-0.93359375,-0.01953125
1260,-0.0048828125,-0.939453125,-0.0185546875
1261,-0.0107421875,-0.9404296875,-0.01171875
1262,-0.0107421875,-0.9580078125,-0.0087890625
1263,-0.017578125,-0.9853515625,-0.00390625
1264,-0.01953125,-0.9951171875,0.0009765625
1265,-0.0224609375,-1.0078125,-0.0048828125
1266,-0.0244140625,-1.0205078125,-0.0068359375
1267,-0.0341796875,-1.0322265625,-0.0126953125
1268,-0.0380859375,-1.03125,-0.0087890625
1269,-0.056640625,-1.033203125,-0.009765625
1270,-0.0703125,-1.033203125,-0.013671875
1271,-0.0771484375,-1.0146484375,-0.0068359375
1272,-0.0810546875,-1.001953125,0.0
1273,-0.0927734375,-0.9873046875,-0.0029296875
1274,-0.0986328125,-0.9609375,0.0068359375
1275,-0.1044921875,-0.94140625,0.0107421875
1276,-0.1064453125,-0.91796875,0.0029296875
1277,-0.109375,-0.900390625,-0.0029296875
1278,-0.115234375,-0.8837890625,-0.0107421875
1279,-0.1220703125,-0.880859375,-0.0234375
1280,-0.125,-0.8720703125,-0.0322265625
1281,-0.119140625,-0.8701171875,-0.033203125
1282,-0.1171875,-0.869140625,-0.0322265625
1283,-0.111328125,-0.873046875,-0.02734375
1284,-0.1083984375,-0.880859375,-0.029296875
1285,-0.1015625,-0.8984375,-0.0302734375
1286,-0.0927734375,-0.9140625,-0.033203125
1287,-0.08984375,-0.9365234375,-0.0478515625
1288,-0.0908203125,-0.9638671875,-0.0595703125
1289,-0.087890625,-0.990234375,-0.07421875
1290,-0.080078125,-1.0048828125,-0.0947265625
1291,-0.0771484375,-1.0185546875,-0.11328125
1292,-0.0859375,-1.01953125,-0.1181640625
1293,-0.0849609375,-1.015625,-0.1220703125
1294,-0.078125,-1.0087890625,-0.1171875
1295,-0.0703125,-0.9990234375,-0.1103515625
1296,-0.068359375,-0.9970703125,-0.1044921875
1297,-0.0693359375,-0.9921875,-0.09765625
1298,-0.0625,-0.9873046875,-0.091796875
1299,-0.05859375,-0.96484375,-0.0927734375
1300,-0.0654296875,-0.9580078125,-0.0859375
1301,-0.0654296875,-0.9482421875,-0.0859375
1302,-0.0654296875,-0.951171875,-0.0947265625
1303,-0.0615234375,-0.94921875,-0.091796875
1304,-0.0732421875,-0.951171875,-0.0966796875
1305,-0.0654296875,-0.9541015625,-0.099609375
1306,-0.0625,-0.9619140625,-0.1015625
1307,-0.0634765625,-0.9677734375,-0.1162109375
1308,-0.0634765625,-0.962890625,-0.125
1309,-0.044921875,-0.966796875,-0.138671875
1310,-0.0390625,-0.9619140625,-0.146484375
1311,-0.02734375,-0.966796875,-0.154296875
1312,-0.029296875,-0.966796875,-0.1640625
1313,-0.0263671875,-0.9560546875,-0.1796875
1314,-0.0205078125,-0.9482421875,-0.18359375
1315,-0.0068359375,-0.94140625,-0.1904296875
1316,-0.0126953125,-0.9384765625,-0.193359375
1317,-0.0166015625,-0.921875,-0.189453125
1318,-0.02734375,-0.9208984375,-0.1943359375
1319,-0.0166015625,-0.912109375,-0.1962890625
1320,-0.0205078125,-0.9091796875,-0.1943359375
1321,-0.015625,-0.9130859375,-0.1923828125
1322,-0.015625,-0.9169921875,-0.2001953125
1323,-0.0185546875,-0.916015625,-0.2109375
1324,-0.0126953125,-0.9150390625,-0.21484375
1325,-0.0185546875,-0.9150390625,-0.2275390625
1326,-0.017578125,-0.916015625,-0.2373046875
1327,-0.021484375,-0.9248046875,-0.255859375
1328,-0.0302734375,-0.927734375,-0.263671875
1329,-0.0322265625,-0.931640625,-0.27734375
1330,-0.0400390625,-0.9423828125,-0.2841796875
1331,-0.0439453125,-0.9365234375,-0.28515625
1332,-0.0439453125,-0.94921875,-0.28125
1333,-0.0478515625,-0.943359375,-0.2802734375
1334,-0.044921875,-0.9482421875,-0.27734375
1335,-0.0400390625,-0.9453125,-0.2734375
1336,-0.0439453125,-0.953125,-0.283203125
1337,-0.037109375,-0.9521484375,-0.291015625
1338,-0.0361328125,-0.94921875,-0.291015625
1339,-0.037109375,-0.9453125,-0.3046875
1340,-0.037109375,-0.9443359375,-0.3115234375
1341,-0.0322265625,-0.943359375,-0.318359375
1342,-0.033203125,-0.939453125,-0.326171875
1343,-0.0263671875,-0.93359375,-0.333984375
1344,-0.03125,-0.9248046875,-0.341796875
1345,-0.03515625,-0.9091796875,-0.33984375
1346,-0.033203125,-0.908203125,-0.341796875
1347,-0.0205078125,-0.90625,-0.3505859375
1348,-0.029296875,-0.9052734375,-0.3603515625
1349,-0.025390625,-0.900390625,-0.369140625
1350,-0.033203125,-0.91015625,-0.3671875
1351,-0.0263671875,-0.908203125,-0.3759765625
1352,-0.0302734375,-0.9150390625,-0.3798828125
1353,-0.02734375,-0.91015625,-0.3740234375
1354,-0.025390625,-0.9150390625,-0.37890625
1355,-0.0234375,-0.9150390625,-0.376953125
1356,-0.0234375,-0.9208984375,-0.388671875
1357,-0.029296875,-0.921875,-0.392578125
1358,-0.0263671875,-0.9140625,-0.3984375
1359,-0.0322265625,-0.9169921875,-0.4091796875
1360,-0.03515625,-0.91015625,-0.4150390625
1361,-0.0400390625,-0.9091796875,-0.4130859375
1362,-0.0390625,-0.90625,-0.4130859375
1363,-0.0419921875,-0.8974609375,-0.4130859375
1364,-0.0419921875,-0.890625,-0.4013671875
1365,-0.0341796875,-0.884765625,-0.392578125
1366,-0.033203125,-0.8818359375,-0.380859375
1367,-0.0283203125,-0.892578125,-0.3896484375
1368,-0.0302734375,-0.8935546875,-0.40625
1369,-0.033203125,-0.8984375,-0.4267578125
1370,-0.0380859375,-0.908203125,-0.4521484375
1371,-0.0341796875,-0.9052734375,-0.47265625
1372,-0.0361328125,-0.9130859375,-0.48828125
1373,-0.03515625,-0.9130859375,-0.5107421875
1374,-0.033203125,-0.916015625,-0.5185546875
1375,-0.03125,-0.9306640625,-0.529296875
1376,-0.0283203125,-0.92578125,-0.53515625
1377,-0.029296875,-0.9189453125,-0.521484375
1378,-0.0185546875,-0.921875,-0.515625
1379,-0.017578125,-0.91796875,-0.517578125
1380,-0.0078125,-0.9150390625,-0.5048828125
1381,-0.021484375,-0.900390625,-0.5107421875
1382,-0.0185546875,-0.90234375,-0.5078125
1383,-0.017578125,-0.89453125,-0.4970703125
1384,-0.02734375,-0.8955078125,-0.49609375
1385,-0.03515625,-0.890625,-0.5
1386,-0.037109375,-0.8798828125,-0.521484375
1387,-0.0263671875,-0.8720703125,-0.541015625
1388,-0.021484375,-0.8671875,-0.55078125
1389,-0.0205078125,-0.859375,-0.5634765625
1390,-0.0244140625,-0.8583984375,-0.572265625
1391,-0.0244140625,-0.8505859375,-0.5771484375
1392,-0.021484375,-0.8486328125,-0.5810546875
1393,-0.029296875,-0.84765625,-0.58203125
1394,-0.02734375,-0.8486328125,-0.591796875
1395,-0.0302734375,-0.849609375,-0.599609375
1396,-0.021484375,-0.85546875,-0.6044921875
1397,-0.017578125,-0.861328125,-0.6025390625
1398,-0.0205078125,-0.865234375,-0.611328125
1399,-0.0166015625,-0.87109375,-0.60546875
1400,-0.0185546875,-0.8671875,-0.60546875
1401,-0.015625,-0.87109375,-0.607421875
1402,-0.0205078125,-0.875,-0.6015625
1403,-0.0224609375,-0.87109375,-0.599609375
1404,-0.03125,-0.87109375,-0.6103515625
1405,-0.0205078125,-0.8720703125,-0.6201171875
1406,-0.01171875,-0.873046875,-0.6328125
1407,-0.009765625,-0.875,-0.6474609375
1408,0.0048828125,-0.8671875,-0.6484375
1409,0.005859375,-0.8544921875,-0.6630859375
1410,0.001953125,-0.849609375,-0.658203125
1411,0.005859375,-0.8505859375,-0.66796875
1412,-0.0048828125,-0.84765625,-0.6689453125
1413,-0.0068359375,-0.845703125,-0.67578125
1414,-0.0068359375,-0.8427734375,-0.677734375
1415,-0.0146484375,-0.83984375,-0.6865234375
1416,-0.0224609375,-0.8349609375,-0.6923828125
1417,-0.0234375,-0.83203125,-0.693359375
1418,-0.01953125,-0.8349609375,-0.6962890625
1419,-0.0224609375,-0.83203125,-0.69140625
1420,-0.015625,-0.833984375,-0.689453125
1421,-0.0166015625,-0.830078125,-0.689453125
1422,-0.015625,-0.8408203125,-0.6875
1423,-0.01953125,-0.841796875,-0.6884765625
1424,-0.021484375,-0.845703125,-0.6865234375
1425,-0.0234375,-0.8359375,-0.6826171875
1426,-0.025390625,-0.8369140625,-0.6826171875
1427,-0.0224609375,-0.83203125,-0.67578125
1428,-0.021484375,-0.830078125,-0.673828125
1429,-0.0224609375,-0.8173828125,-0.6728515625
1430,-0.013671875,-0.8115234375,-0.6796875
1431,-0.015625,-0.8134765625,-0.68359375
1432,-0.015625,-0.8037109375,-0.6875
1433,-0.01171875,-0.796875,-0.6806640625
1434,-0.0126953125,-0.794921875,-0.6806640625
1435,-0.0166015625,-0.78515625,-0.67578125
1436,-0.01953125,-0.783203125,-0.6796875
1437,-0.0224609375,-0.7744140625,-0.6767578125
1438,-0.0244140625,-0.7744140625,-0.68359375
1439,-0.021484375,-0.771484375,-0.6875
1440,-0.0244140625,-0.7744140625,-0.6845703125
1441,-0.017578125,-0.7763671875,-0.6904296875
1442,-0.01171875,-0.7724609375,-0.685546875
1443,-0.0068359375,-0.7763671875,-0.6884765625
1444,-0.001953125,-0.767578125,-0.689453125
1445,-0.001953125,-0.7626953125,-0.68359375
1446,0.0048828125,-0.7626953125,-0.6865234375
1447,0.005859375,-0.7490234375,-0.689453125
1448,0.0087890625,-0.7490234375,-0.6826171875
1449,0.00390625,-0.7373046875,-0.681640625
1450,0.005859375,-0.7294921875,-0.6796875
1451,-0.0029296875,-0.728515625,-0.6845703125
1452,-0.0068359375,-0.73046875,-0.6904296875
1453,-0.01171875,-0.724609375,-0.6923828125
1454,-0.0166015625,-0.7265625,-0.6943359375
1455,-0.01953125,-0.7265625,-0.697265625
1456,-0.0234375,-0.7294921875,-0.6923828125
1457,-0.0302734375,-0.73046875,-0.693359375
1458,-0.02734375,-0.7216796875,-0.6943359375
1459,-0.0234375,-0.7197265625,-0.6904296875
1460,-0.025390625,-0.716796875,-0.6875
1461,-0.0185546875,-0.71484375,-0.6884765625
1462,-0.015625,-0.720703125,-0.6875
1463,-0.0087890625,-0.7216796875,-0.689453125
1464,-0.005859375,-0.716796875,-0.6923828125
1465,-0.0029296875,-0.71484375,-0.6953125
1466,0.0029296875,-0.72265625,-0.6953125
1467,0.0048828125,-0.72265625,-0.70703125
1468,-0.0009765625,-0.728515625,-0.7001953125
1469,0.0009765625,-0.7255859375,-0.7119140625
1470,0.005859375,-0.7275390625,-0.7177734375
1471,0.0078125,-0.716796875,-0.7158203125
1472,0.00390625,-0.7119140625,-0.7216796875
1473,0.0087890625,-0.7138671875,-0.7255859375
1474,0.0078125,-0.7109375,-0.724609375
1475,0.0087890625,-0.7119140625,-0.72265625
1476,0.0087890625,-0.708984375,-0.7236328125
1477,0.0087890625,-0.7138671875,-0.7294921875
1478,0.0078125,-0.7197265625,-0.7333984375
1479,0.0068359375,-0.7236328125,-0.7373046875
1480,0.0009765625,-0.72265625,-0.7333984375
1481,-0.0029296875,-0.724609375,-0.7333984375
1482,-0.0068359375,-0.72265625,-0.7294921875
1483,-0.0107421875,-0.71875,-0.7265625
1484,-0.009765625,-0.7177734375,-0.7275390625
1485,-0.0078125,-0.7119140625,-0.7236328125
1486,-0.0068359375,-0.7099609375,-0.7236328125
1487,-0.0146484375,-0.712890625,-0.734375
1488,-0.015625,-0.7138671875,-0.7236328125
1489,-0.017578125,-0.7109375,-0.7255859375
1490,-0.0146484375,-0.703125,-0.720703125
1491,-0.013671875,-0.7109375,-0.720703125
1492,-0.01953125,-0.7099609375,-0.72265625
1493,-0.0146484375,-0.7099609375,-0.7255859375
1494,-0.013671875,-0.708984375,-0.728515625
1495,-0.015625,-0.712890625,-0.7236328125
1496,-0.015625,-0.7041015625,-0.7255859375
1497,-0.0146484375,-0.703125,-0.720703125
1498,-0.0107421875,-0.6982421875,-0.724609375
1499,-0.0126953125,-0.6962890625,-0.728515625
1500,-0.0087890625,-0.69140625,-0.7275390625
1501,-0.0087890625,-0.6904296875,-0.72265625
1502,-0.0107421875,-0.693359375,-0.7265625
1503,-0.0048828125,-0.689453125,-0.724609375
1504,-0.0068359375,-0.69140625,-0.71875
1505,-0.005859375,-0.6884765625,-0.7177734375
1506,-0.0078125,-0.6884765625,-0.71484375
1507,-0.001953125,-0.6865234375,-0.7177734375
1508,-0.005859375,-0.68359375,-0.71484375
1509,0.00390625,-0.67578125,-0.71484375
1510,0.001953125,-0.6806640625,-0.7138671875
1511,0.001953125,-0.677734375,-0.7119140625
1512,0.0029296875,-0.669921875,-0.703125
1513,0.0087890625,-0.6640625,-0.7041015625
1514,0.0048828125,-0.6630859375,-0.697265625
1515,0.01171875,-0.6552734375,-0.7041015625
1516,0.0146484375,-0.654296875,-0.697265625
1517,0.0087890625,-0.6533203125,-0.7021484375
1518,0.0126953125,-0.650390625,-0.701171875
1519,0.013671875,-0.646484375,-0.69921875
1520,0.0126953125,-0.6474609375,-0.7041015625
1521,0.009765625,-0.6455078125,-0.701171875
1522,0.0068359375,-0.6435546875,-0.701171875
1523,0.0009765625,-0.64453125,-0.7001953125
1524,0.001953125,-0.64453125,-0.712890625
1525,-0.0068359375,-0.6494140625,-0.7099609375
1526,-0.0068359375,-0.6484375,-0.703125
1527,-0.0126953125,-0.650390625,-0.708984375
1528,-0.015625,-0.65234375,-0.7138671875
1529,-0.021484375,-0.6533203125,-0.7138671875
1530,-0.0185546875,-0.6533203125,-0.716796875
1531,-0.0205078125,-0.65234375,-0.720703125
1532,-0.009765625,-0.6474609375,-0.7197265625
1533,-0.0087890625,-0.654296875,-0.71875
1534,-0.005859375,-0.6513671875,-0.7158203125
1535,-0.005859375,-0.642578125,-0.7236328125
1536,0.0068359375,-0.646484375,-0.73046875
1537,0.009765625,-0.646484375,-0.73046875
1538,0.0087890625,-0.6435546875,-0.7333984375
1539,0.01171875,-0.6376953125,-0.7373046875
1540,0.0126953125,-0.6474609375,-0.7373046875
1541,0.015625,-0.642578125,-0.7451171875
1542,0.01953125,-0.642578125,-0.7412109375
1543,0.017578125,-0.6396484375,-0.7431640625
1544,0.017578125,-0.642578125,-0.748046875
1545,0.01953125,-0.6435546875,-0.748046875
1546,0.0244140625,-0.640625,-0.7529296875
1547,0.0263671875,-0.640625,-0.75
1548,0.025390625,-0.638671875,-0.755859375
1549,0.021484375,-0.640625,-0.7578125
1550,0.0234375,-0.6396484375,-0.7626953125
1551,0.0205078125,-0.642578125,-0.7578125
1552,0.0146484375,-0.63671875,-0.767578125
1553,0.015625,-0.63671875,-0.763671875
1554,0.01953125,-0.6396484375,-0.7685546875
1555,0.0126953125,-0.646484375,-0.7734375
1556,0.01171875,-0.64453125,-0.775390625
1557,0.01953125,-0.6455078125,-0.771484375
1558,0.0185546875,-0.6396484375,-0.771484375
1559,0.021484375,-0.6357421875,-0.7734375
1560,0.0263671875,-0.63671875,-0.7734375
1561,0.03125,-0.63671875,-0.7734375
1562,0.0361328125,-0.62890625,-0.775390625
1563,0.0380859375,-0.62890625,-0.7763671875
1564,0.0341796875,-0.634765625,-0.7822265625
1565,0.0322265625,-0.638671875,-0.78515625
1566,0.0361328125,-0.6337890625,-0.787109375
1567,0.025390625,-0.642578125,-0.7822265625
1568,0.021484375,-0.6376953125,-0.7841796875
1569,0.01953125,-0.6357421875,-0.783203125
1570,0.0146484375,-0.62890625,-0.779296875
1571,0.017578125,-0.62109375,-0.7861328125
1572,0.015625,-0.625,-0.78125
1573,0.013671875,-0.6171875,-0.7841796875
1574,0.0087890625,-0.6162109375,-0.7861328125
1575,0.00390625,-0.62109375,-0.7890625
1576,-0.00390625,-0.6220703125,-0.7880859375
1577,-0.0029296875,-0.62109375,-0.7900390625
1578,-0.013671875,-0.623046875,-0.7939453125
1579,-0.0166015625,-0.6181640625,-0.7919921875
1580,-0.0146484375,-0.6201171875,-0.787109375
1581,-0.017578125,-0.6171875,-0.7890625
1582,-0.0126953125,-0.6171875,-0.791015625
1583,-0.0087890625,-0.6142578125,-0.7939453125
1584,-0.005859375,-0.6181640625,-0.7919921875
1585,0.0009765625,-0.611328125,-0.794921875
1586,-0.0048828125,-0.61328125,-0.7958984375
1587,0.001953125,-0.6083984375,-0.7958984375
1588,-0.0009765625,-0.607421875,-0.794921875
1589,0.0009765625,-0.599609375,-0.796875
1590,0.0048828125,-0.5966796875,-0.79296875
1591,0.0068359375,-0.5888671875,-0.794921875
1592,0.01171875,-0.58984375,-0.7890625
1593,0.01171875,-0.5908203125,-0.7900390625
1594,0.0185546875,-0.591796875,-0.7890625
1595,0.0224609375,-0.59375,-0.7939453125
1596,0.0234375,-0.599609375,-0.794921875
1597,0.02734375,-0.591796875,-0.7880859375
1598,0.029296875,-0.5966796875,-0.794921875
1599,0.0283203125,-0.5947265625,-0.787109375
1600,0.0302734375,-0.5888671875,-0.7900390625
1601,0.0263671875,-0.5849609375,-0.78515625
1602,0.0263671875,-0.5888671875,-0.7822265625
1603,0.029296875,-0.580078125,-0.7822265625
1604,0.0234375,-0.5791015625,-0.7802734375
1605,0.025390625,-0.5849609375,-0.77734375
1606,0.033203125,-0.5830078125,-0.7744140625
1607,0.0244140625,-0.5888671875,-0.7685546875
1608,0.0263671875,-0.5986328125,-0.7705078125
1609,0.0166015625,-0.611328125,-0.7666015625
1610,0.0078125,-0.6318359375,-0.7734375
1611,0.0068359375,-0.6298828125,-0.7724609375
1612,-0.0009765625,-0.6357421875,-0.7744140625
1613,0.0,-0.6357421875,-0.7880859375
1614,-0.0087890625,-0.6357421875,-0.7939453125
1615,-0.0166015625,-0.634765625,-0.79296875
1616,-0.0087890625,-0.6259765625,-0.7939453125
1617,0.001953125,-0.6220703125,-0.7978515625
1618,-0.005859375,-0.619140625,-0.7880859375
1619,-0.00390625,-0.6240234375,-0.7666015625
1620,0.0234375,-0.615234375,-0.7685546875
1621,0.0224609375,-0.62109375,-0.7548828125
1622,0.0185546875,-0.62109375,-0.74609375
1623,0.0205078125,-0.6240234375,-0.73828125
1624,0.021484375,-0.6220703125,-0.7216796875
1625,0.021484375,-0.623046875,-0.7158203125
1626,0.0302734375,-0.6220703125,-0.70703125
1627,0.037109375,-0.5908203125,-0.69140625
1628,0.0498046875,-0.5634765625,-0.67578125
1629,0.06640625,-0.525390625,-0.6708984375
1630,0.068359375,-0.5,-0.6669921875
1631,0.0703125,-0.49609375,-0.6689453125
1632,0.07421875,-0.50390625,-0.6708984375
1633,0.087890625,-0.5322265625,-0.66796875
1634,0.08984375,-0.564453125,-0.6689453125
1635,0.109375,-0.5888671875,-0.6875
1636,0.125,-0.625,-0.71875
1637,0.111328125,-0.6513671875,-0.7470703125
1638,0.115234375,-0.6640625,-0.7783203125
1639,0.10546875,-0.6669921875,-0.7900390625
1640,0.0947265625,-0.65625,-0.7958984375
1641,0.09375,-0.6220703125,-0.7802734375
1642,0.0791015625,-0.5703125,-0.74609375
1643,0.0634765625,-0.5224609375,-0.7109375
1644,0.04296875,-0.4833984375,-0.6630859375
1645,0.03125,-0.4443359375,-0.615234375
1646,0.0068359375,-0.4189453125,-0.583984375
1647,-0.015625,-0.42578125,-0.5595703125
1648,-0.03125,-0.4638671875,-0.546875
1649,-0.056640625,-0.5146484375,-0.5517578125
1650,-0.07421875,-0.5732421875,-0.5576171875
1651,-0.0751953125,-0.6279296875,-0.576171875
1652,-0.0810546875,-0.6728515625,-0.607421875
1653,-0.087890625,-0.7041015625,-0.6201171875
1654,-0.091796875,-0.7236328125,-0.6484375
1655,-0.09375,-0.7265625,-0.6787109375
1656,-0.08984375,-0.7275390625,-0.705078125
1657,-0.08984375,-0.7099609375,-0.728515625
1658,-0.0771484375,-0.6904296875,-0.751953125
1659,-0.052734375,-0.66796875,-0.763671875
1660,-0.03125,-0.642578125,-0.7578125
1661,-0.0048828125,-0.5986328125,-0.7568359375
1662,0.0244140625,-0.58203125,-0.73828125
1663,0.044921875,-0.56640625,-0.7109375
1664,0.0634765625,-0.5654296875,-0.6845703125
1665,0.083984375,-0.578125,-0.677734375
1666,0.1044921875,-0.587890625,-0.6669921875
1667,0.1142578125,-0.619140625,-0.66015625
1668,0.1298828125,-0.6318359375,-0.646484375
1669,0.130859375,-0.6494140625,-0.6435546875
1670,0.134765625,-0.6494140625,-0.6298828125
1671,0.1533203125,-0.6689453125,-0.6220703125
1672,0.16796875,-0.6728515625,-0.6142578125
1673,0.1904296875,-0.6748046875,-0.603515625
1674,0.2021484375,-0.6591796875,-0.5908203125
1675,0.2080078125,-0.6396484375,-0.599609375
1676,0.208984375,-0.6318359375,-0.609375
1677,0.2041015625,-0.6220703125,-0.6318359375
1678,0.2021484375,-0.6103515625,-0.6484375
1679,0.1943359375,-0.5947265625,-0.6484375
1680,0.17578125,-0.5732421875,-0.6416015625
1681,0.1650390625,-0.56640625,-0.615234375
1682,0.150390625,-0.5673828125,-0.55859375
1683,0.1328125,-0.533203125,-0.470703125
1684,0.1103515625,-0.5068359375,-0.3798828125
1685,0.048828125,-0.490234375,-0.2685546875
1686,0.015625,-0.4814453125,-0.171875
1687,-0.0107421875,-0.46875,-0.0751953125
1688,-0.017578125,-0.4638671875,0.0107421875
1689,-0.021484375,-0.458984375,0.0751953125
1690,-0.025390625,-0.4462890625,0.17578125
1691,-0.037109375,-0.42578125,0.28125
1692,-0.0498046875,-0.3701171875,0.390625
1693,-0.046875,-0.298828125,0.4111328125
1694,-0.04296875,-0.2294921875,0.328125
1695,-0.0380859375,-0.1767578125,0.1484375
1696,-0.0625,-0.1455078125,-0.025390625
1697,-0.0712890625,-0.1572265625,-0.21875
1698,-0.0068359375,-0.208984375,-0.400390625
1699,-0.0732421875,-0.484375,-0.5341796875
1700,-0.205078125,-0.3271484375,-0.7451171875
1701,-0.3837890625,-0.328125,-0.8935546875
1702,-0.490234375,-0.3125,-1.076171875
1703,-0.5439453125,-0.3037109375,-1.18359375
1704,-0.62109375,-0.2822265625,-1.2626953125
1705,-0.689453125,-0.255859375,-1.2724609375
1706,-0.740234375,-0.21875,-1.251953125
1707,-0.7470703125,-0.15625,-1.201171875
1708,-0.6953125,-0.109375,-1.1904296875
1709,-0.6162109375,-0.029296875,-1.1669921875
1710,-0.56640625,0.0166015625,-1.1552734375
1711,-0.48046875,0.0361328125,-1.13671875
1712,-0.4208984375,0.0595703125,-1.154296875
1713,-0.384765625,0.0732421875,-1.181640625
1714,-0.3232421875,0.0654296875,-1.18359375
1715,-0.2548828125,0.05078125,-1.2021484375
1716,-0.2255859375,0.0244140625,-1.2568359375
1717,-0.1806640625,-0.00390625,-1.28125
1718,-0.1494140625,-0.0244140625,-1.310546875
1719,-0.12890625,-0.03125,-1.3154296875
1720,-0.1015625,-0.0390625,-1.3125
1721,-0.080078125,-0.0439453125,-1.296875
1722,-0.076171875,-0.0595703125,-1.2431640625
1723,-0.072265625,-0.0556640625,-1.1376953125
1724,-0.0693359375,-0.044921875,-1.052734375
1725,-0.048828125,-0.03125,-0.9580078125
1726,-0.0400390625,0.0029296875,-0.8837890625
1727,-0.1005859375,0.0361328125,-0.7255859375
1728,-0.2177734375,0.07421875,-0.607421875
1729,-0.3193359375,0.12109375,-0.5673828125
1730,-0.4326171875,0.12890625,-0.5859375
1731,-0.5537109375,0.0830078125,-0.640625
1732,-0.6181640625,0.0234375,-0.7685546875
1733,-0.669921875,-0.046875,-0.916015625
1734,-0.7451171875,-0.0986328125,-1.0703125
1735,-0.841796875,-0.146484375,-1.20703125
1736,-0.9189453125,-0.1689453125,-1.35546875
1737,-0.98046875,-0.1796875,-1.474609375
1738,-1.033203125,-0.1767578125,-1.6396484375
1739,-1.0322265625,-0.1357421875,-1.7314453125
1740,-1.0634765625,-0.0498046875,-1.7734375
1741,-1.04296875,0.0087890625,-1.7763671875
1742,-1.0537109375,0.072265625,-1.7607421875
1743,-1.0322265625,0.109375,-1.6396484375
1744,-1.11328125,0.296875,-1.5849609375
1745,-1.2021484375,0.4296875,-1.52734375
1746,-1.2197265625,0.5078125,-1.3662109375
1747,-1.1953125,0.548828125,-1.1591796875
1748,-1.2900390625,0.44140625,-1.0908203125
1749,-1.5166015625,0.6669921875,-1.2568359375
1750,-1.7529296875,0.7978515625,-1.4150390625
1751,-2.0546875,0.791015625,-1.6171875
1752,-2.1591796875,0.712890625,-1.86328125
1753,-2.17578125,0.580078125,-1.9501953125
1754,-2.0859375,0.5009765625,-2.1044921875
1755,-1.73046875,0.5302734375,-2.0908203125
1756,-1.560546875,0.5078125,-1.798828125
1757,-1.3974609375,0.4375,-1.7626953125
1758,-1.3740234375,0.392578125,-1.6474609375
1759,-1.45703125,0.4375,-1.6875
1760,-1.5361328125,0.3447265625,-1.69140625
1761,-1.5390625,0.2021484375,-1.6875
1762,-1.4677734375,0.126953125,-1.630859375
1763,-1.3681640625,0.0478515625,-1.4755859375
1764,-1.2666015625,-0.001953125,-1.3466796875
1765,-1.1953125,-0.0595703125,-1.1494140625
1766,-1.16796875,-0.078125,-0.935546875
1767,-1.185546875,-0.0478515625,-0.7412109375
1768,-1.1982421875,-0.01171875,-0.57421875
1769,-1.2099609375,0.0478515625,-0.4990234375
1770,-1.2158203125,0.1025390625,-0.4931640625
1771,-1.203125,0.091796875,-0.54296875
1772,-1.1669921875,0.0849609375,-0.62890625
1773,-1.11328125,0.0908203125,-0.705078125
1774,-1.078125,0.1015625,-0.7412109375
1775,-1.0078125,0.09765625,-0.71484375
1776,-0.9013671875,0.03515625,-0.5791015625
1777,-0.7919921875,-0.0302734375,-0.4130859375
1778,-0.7412109375,-0.0986328125,-0.3056640625
1779,-0.724609375,-0.16796875,-0.2314453125
1780,-0.67578125,-0.2333984375,-0.17578125
1781,-0.6591796875,-0.314453125,-0.140625
1782,-0.654296875,-0.3779296875,-0.11328125
1783,-0.68359375,-0.4052734375,-0.1171875
1784,-0.736328125,-0.4072265625,-0.1279296875
1785,-0.7724609375,-0.375,-0.14453125
1786,-0.791015625,-0.3203125,-0.1435546875
1787,-0.8095703125,-0.2685546875,-0.138671875
1788,-0.837890625,-0.1767578125,-0.1865234375
1789,-0.8740234375,-0.0361328125,-0.2705078125
1790,-0.884765625,0.0751953125,-0.3583984375
1791,-0.87109375,0.1689453125,-0.4296875
1792,-0.8466796875,0.26171875,-0.45703125
1793,-0.76953125,0.3056640625,-0.44140625
1794,-0.7265625,0.318359375,-0.4052734375
1795,-0.6689453125,0.2880859375,-0.40234375
1796,-0.634765625,0.2490234375,-0.40234375
1797,-0.615234375,0.20703125,-0.416015625
1798,-0.6201171875,0.1767578125,-0.4365234375
1799,-0.677734375,0.169921875,-0.4775390625
1800,-0.765625,0.1435546875,-0.5048828125
1801,-0.8681640625,0.125,-0.513671875
1802,-0.931640625,0.0947265625,-0.501953125
1803,-1.005859375,0.0732421875,-0.490234375
1804,-1.0107421875,0.05078125,-0.48828125
1805,-1.001953125,0.0400390625,-0.4990234375
1806,-0.9560546875,0.044921875,-0.5283203125
1807,-0.931640625,0.0458984375,-0.5439453125
1808,-0.947265625,0.0654296875,-0.556640625
1809,-0.953125,0.0849609375,-0.564453125
1810,-0.966796875,0.09765625,-0.5888671875
1811,-1.0126953125,0.11328125,-0.5712890625
1812,-1.0625,0.1904296875,-0.5537109375
1813,-1.0859375,0.25,-0.5078125
1814,-1.1201171875,0.28515625,-0.4609375
1815,-1.1611328125,0.31640625,-0.423828125
1816,-1.1728515625,0.3310546875,-0.404296875
1817,-1.150390625,0.3447265625,-0.4052734375
1818,-1.1123046875,0.3359375,-0.4140625
1819,-1.064453125,0.3095703125,-0.41796875
1820,-1.0078125,0.294921875,-0.423828125
1821,-1.0,0.2685546875,-0.4150390625
1822,-1.00390625,0.2666015625,-0.380859375
1823,-0.95703125,0.2646484375,-0.3779296875
1824,-0.90625,0.2353515625,-0.353515625
1825,-0.8701171875,0.2353515625,-0.328125
1826,-0.8603515625,0.2333984375,-0.2958984375
1827,-0.8330078125,0.23046875,-0.2841796875
1828,-0.841796875,0.234375,-0.2900390625
1829,-0.8525390625,0.2294921875,-0.296875
1830,-0.86328125,0.251953125,-0.3076171875
1831,-0.861328125,0.271484375,-0.318359375
1832,-0.8720703125,0.283203125,-0.3095703125
1833,-0.875,0.283203125,-0.283203125
1834,-0.8916015625,0.302734375,-0.2333984375
1835,-0.865234375,0.3291015625,-0.216796875
1836,-0.87109375,0.328125,-0.1982421875
1837,-0.857421875,0.3193359375,-0.1826171875
1838,-0.8505859375,0.3017578125,-0.189453125
1839,-0.84765625,0.2978515625,-0.181640625
1840,-0.8388671875,0.31640625,-0.2158203125
1841,-0.849609375,0.3115234375,-0.224609375
1842,-0.84765625,0.3017578125,-0.2412109375
1843,-0.84375,0.283203125,-0.2470703125
1844,-0.8369140625,0.2724609375,-0.23828125
1845,-0.8310546875,0.2353515625,-0.2412109375
1846,-0.828125,0.2001953125,-0.24609375
1847,-0.85546875,0.1689453125,-0.240234375
1848,-0.8935546875,0.12890625,-0.2294921875
1849,-0.939453125,0.09375,-0.228515625
1850,-0.990234375,0.07421875,-0.2412109375
1851,-1.0283203125,0.0634765625,-0.265625
1852,-1.0654296875,0.0458984375,-0.310546875
1853,-1.091796875,0.0478515625,-0.3701171875
1854,-1.1064453125,0.048828125,-0.4306640625
1855,-1.1240234375,0.0654296875,-0.4921875
1856,-1.119140625,0.0791015625,-0.53125
1857,-1.1142578125,0.0751953125,-0.5322265625
1858,-1.0869140625,0.0634765625,-0.521484375
1859,-1.0537109375,0.046875,-0.5009765625
1860,-1.025390625,0.0224609375,-0.4814453125
1861,-1.0009765625,0.001953125,-0.4765625
1862,-0.9716796875,-0.0107421875,-0.462890625
1863,-0.9619140625,-0.0146484375,-0.455078125
1864,-0.9501953125,-0.0234375,-0.4345703125
1865,-0.9345703125,-0.0283203125,-0.421875
1866,-0.91796875,-0.037109375,-0.3984375
1867,-0.9033203125,-0.046875,-0.392578125
1868,-0.888671875,-0.052734375,-0.3837890625
1869,-0.8857421875,-0.05859375,-0.37890625
1870,-0.8798828125,-0.0625,-0.388671875
1871,-0.8916015625,-0.0693359375,-0.380859375
1872,-0.892578125,-0.07421875,-0.3857421875
1873,-0.89453125,-0.078125,-0.392578125
1874,-0.90625,-0.0908203125,-0.400390625
1875,-0.9130859375,-0.09375,-0.3896484375
1876,-0.9169921875,-0.1064453125,-0.3837890625
1877,-0.91796875,-0.1025390625,-0.3828125
1878,-0.91015625,-0.142578125,-0.36328125
1879,-0.9091796875,-0.140625,-0.34765625
1880,-0.8876953125,-0.1376953125,-0.3623046875
1881,-0.88671875,-0.158203125,-0.341796875
1882,-0.8583984375,-0.1689453125,-0.359375
1883,-0.8642578125,-0.17578125,-0.341796875
1884,-0.859375,-0.1884765625,-0.3349609375
1885,-0.8642578125,-0.189453125,-0.333984375
1886,-0.8759765625,-0.19921875,-0.3349609375
1887,-0.875,-0.1962890625,-0.3271484375
1888,-0.87890625,-0.189453125,-0.3359375
1889,-0.8896484375,-0.181640625,-0.3388671875
1890,-0.8994140625,-0.162109375,-0.34765625
1891,-0.9189453125,-0.1484375,-0.3505859375
1892,-0.91015625,-0.140625,-0.33984375
1893,-0.8642578125,-0.1513671875,-0.36328125
1894,-0.9013671875,-0.0986328125,-0.38671875
1895,-0.9970703125,-0.099609375,-0.365234375
1896,-1.0263671875,-0.076171875,-0.341796875
1897,-1.0068359375,-0.1005859375,-0.3095703125
1898,-1.025390625,-0.16015625,-0.263671875
1899,-1.02734375,-0.18359375,-0.2509765625
1900,-1.0126953125,-0.21875,-0.234375
1901,-0.9658203125,-0.2333984375,-0.216796875
1902,-0.9384765625,-0.2197265625,-0.2197265625
1903,-0.89453125,-0.23828125,-0.2861328125
1904,-0.546875,-0.2529296875,-0.5234375
1905,-0.1435546875,-0.3037109375,-0.69140625
1906,-0.361328125,-0.2001953125,-0.6640625
1907,-0.509765625,-0.1513671875,-0.509765625
1908,-0.4912109375,-0.0986328125,-0.3828125
1909,-0.5546875,-0.0908203125,-0.2548828125
1910,-0.921875,-0.048828125,-0.1103515625
1911,-1.1728515625,-0.0478515625,0.0126953125
1912,-1.400390625,-0.06640625,0.056640625
1913,-1.5302734375,-0.1103515625,0.0751953125
1914,-1.5537109375,-0.1669921875,0.0849609375
1915,-1.4833984375,-0.2314453125,0.0859375
1916,-1.4375,-0.2939453125,0.044921875
1917,-1.4169921875,-0.322265625,0.0068359375
1918,-1.37890625,-0.3408203125,-0.048828125
1919,-1.32421875,-0.333984375,-0.1025390625
1920,-1.2275390625,-0.2919921875,-0.14453125
1921,-1.146484375,-0.240234375,-0.177734375
1922,-1.0703125,-0.1943359375,-0.2109375
1923,-1.0048828125,-0.154296875,-0.2294921875
1924,-0.9658203125,-0.1142578125,-0.23046875
1925,-0.916015625,-0.0830078125,-0.232421875
1926,-0.900390625,-0.060546875,-0.23046875
1927,-0.873046875,-0.0400390625,-0.2333984375
1928,-0.869140625,-0.0205078125,-0.234375
1929,-0.8759765625,-0.013671875,-0.2373046875
1930,-0.9052734375,-0.0048828125,-0.244140625
1931,-0.9072265625,-0.0107421875,-0.255859375
1932,-0.92578125,-0.0068359375,-0.2373046875
1933,-0.939453125,-0.0078125,-0.2333984375
1934,-0.9462890625,-0.021484375,-0.2275390625
1935,-0.9482421875,-0.02734375,-0.2255859375
1936,-0.9560546875,-0.02734375,-0.23046875
1937,-0.951171875,-0.0361328125,-0.234375
1938,-0.9482421875,-0.041015625,-0.2421875
1939,-0.9375,-0.0458984375,-0.255859375
1940,-0.93359375,-0.046875,-0.2646484375
1941,-0.9248046875,-0.0576171875,-0.2763671875
1942,-0.9248046875,-0.0615234375,-0.2734375
1943,-0.91796875,-0.0595703125,-0.28515625
1944,-0.91796875,-0.05078125,-0.2890625
1945,-0.9169921875,-0.0498046875,-0.28515625
1946,-0.9189453125,-0.0400390625,-0.291015625
1947,-0.923828125,-0.037109375,-0.291015625
1948,-0.9208984375,-0.033203125,-0.29296875
1949,-0.91796875,-0.03125,-0.294921875
1950,-0.9267578125,-0.033203125,-0.2939453125
1951,-0.9326171875,-0.033203125,-0.29296875
1952,-0.947265625,-0.0400390625,-0.294921875
1953,-0.9501953125,-0.0419921875,-0.29296875
1954,-0.9541015625,-0.0458984375,-0.2998046875
1955,-0.958984375,-0.0419921875,-0.298828125
1956,-0.9599609375,-0.046875,-0.2978515625
1957,-0.962890625,-0.0458984375,-0.296875
1958,-0.958984375,-0.0537109375,-0.3037109375
1959,-0.958984375,-0.0595703125,-0.3017578125
1960,-0.9541015625,-0.060546875,-0.302734375
1961,-0.9541015625,-0.064453125,-0.30078125
1962,-0.951171875,-0.0595703125,-0.2958984375
1963,-0.943359375,-0.05859375,-0.298828125
1964,-0.9501953125,-0.056640625,-0.2958984375
1965,-0.951171875,-0.05859375,-0.2958984375
1966,-0.9501953125,-0.0576171875,-0.2958984375
1967,-0.953125,-0.0595703125,-0.2998046875
1968,-0.9501953125,-0.0546875,-0.298828125
1969,-0.9580078125,-0.056640625,-0.30078125
1970,-0.95703125,-0.0634765625,-0.2998046875
1971,-0.9609375,-0.0625,-0.2978515625
1972,-0.962890625,-0.06640625,-0.2978515625
1973,-0.9638671875,-0.080078125,-0.2890625
1974,-0.9765625,-0.0791015625,-0.2890625
1975,-0.9736328125,-0.078125,-0.2900390625
1976,-0.98046875,-0.0849609375,-0.279296875
1977,-0.982421875,-0.0888671875,-0.2802734375
1978,-0.978515625,-0.0859375,-0.2802734375
1979,-0.9736328125,-0.0869140625,-0.2734375
1980,-0.974609375,-0.0859375,-0.2763671875
1981,-0.9716796875,-0.091796875,-0.2783203125
1982,-0.9765625,-0.087890625,-0.2783203125
1983,-0.9765625,-0.0859375,-0.279296875
1984,-0.974609375,-0.0908203125,-0.2783203125
1985,-0.9775390625,-0.0927734375,-0.2763671875
1986,-0.970703125,-0.1025390625,-0.2802734375
1987,-0.96875,-0.1044921875,-0.2763671875
1988,-0.96484375,-0.1064453125,-0.2705078125
1989,-0.96875,-0.1025390625,-0.2685546875
1990,-0.9658203125,-0.1083984375,-0.26953125
1991,-0.9599609375,-0.111328125,-0.2646484375
1992,-0.9609375,-0.1083984375,-0.267578125
1993,-0.9580078125,-0.109375,-0.2626953125
1994,-0.9580078125,-0.111328125,-0.2578125
1995,-0.962890625,-0.1083984375,-0.2529296875
1996,-0.9638671875,-0.107421875,-0.2470703125
1997,-0.9609375,-0.115234375,-0.244140625
1998,-0.9609375,-0.11328125,-0.2353515625
1999,-0.958984375,-0.1181640625,-0.2353515625
2000,-0.9541015625,-0.1220703125,-0.2373046875
2001,-0.9580078125,-0.1201171875,-0.2431640625
2002,-0.9580078125,-0.1201171875,-0.240234375
2003,-0.958984375,-0.12109375,-0.2548828125
2004,-0.958984375,-0.119140625,-0.2490234375
2005,-0.9580078125,-0.1201171875,-0.248046875
2006,-0.9599609375,-0.123046875,-0.251953125
2007,-0.9677734375,-0.1171875,-0.2470703125
2008,-0.970703125,-0.123046875,-0.24609375
2009,-0.96875,-0.123046875,-0.2490234375
2010,-0.97265625,-0.11328125,-0.244140625
2011,-0.97265625,-0.1162109375,-0.2451171875
2012,-0.9775390625,-0.1181640625,-0.2421875
2013,-0.98828125,-0.111328125,-0.2412109375
2014,-0.974609375,-0.115234375,-0.2412109375
2015,-0.9775390625,-0.109375,-0.2490234375
2016,-0.9765625,-0.111328125,-0.2373046875
2017,-0.9765625,-0.111328125,-0.232421875
2018,-0.98046875,-0.109375,-0.236328125
2019,-0.9814453125,-0.1103515625,-0.2373046875
2020,-0.9814453125,-0.111328125,-0.236328125
2021,-0.978515625,-0.1142578125,-0.2412109375
2022,-0.9765625,-0.11328125,-0.2392578125
2023,-0.9775390625,-0.1064453125,-0.23828125
2024,-0.9775390625,-0.10546875,-0.2451171875
2025,-0.9765625,-0.1044921875,-0.24609375
2026,-0.9775390625,-0.0966796875,-0.2412109375
2027,-0.97265625,-0.095703125,-0.2509765625
2028,-0.9736328125,-0.09375,-0.2490234375
2029,-0.966796875,-0.08984375,-0.255859375
2030,-0.9697265625,-0.083984375,-0.2578125
2031,-0.966796875,-0.0859375,-0.2548828125
2032,-0.96484375,-0.0849609375,-0.255859375
2033,-0.96484375,-0.080078125,-0.2626953125
2034,-0.955078125,-0.0869140625,-0.26171875
2035,-0.9599609375,-0.0791015625,-0.265625
2036,-0.958984375,-0.0859375,-0.26171875
2037,-0.9609375,-0.0810546875,-0.259765625
2038,-0.9599609375,-0.0771484375,-0.26171875
2039,-0.9560546875,-0.0771484375,-0.263671875
2040,-0.958984375,-0.0751953125,-0.267578125
2041,-0.95703125,-0.07421875,-0.2646484375
2042,-0.9560546875,-0.07421875,-0.26953125
2043,-0.95703125,-0.076171875,-0.265625
2044,-0.95703125,-0.068359375,-0.265625
2045,-0.9580078125,-0.07421875,-0.267578125
2046,-0.9521484375,-0.07421875,-0.2626953125
2047,-0.9609375,-0.076171875,-0.2666015625
2048,-0.9599609375,-0.0771484375,-0.2685546875
2049,-0.958984375,-0.08203125,-0.2705078125
2050,-0.962890625,-0.0810546875,-0.26953125
2051,-0.962890625,-0.076171875,-0.265625
2052,-0.9619140625,-0.0771484375,-0.26171875
2053,-0.96484375,-0.078125,-0.265625
2054,-0.9638671875,-0.076171875,-0.26953125
2055,-0.966796875,-0.078125,-0.263671875
2056,-0.96484375,-0.080078125,-0.2607421875
2057,-0.9609375,-0.078125,-0.2666015625
2058,-0.9697265625,-0.0830078125,-0.2607421875
2059,-0.9697265625,-0.08203125,-0.2587890625
2060,-0.970703125,-0.083984375,-0.2490234375
2061,-0.9716796875,-0.0888671875,-0.2548828125
2062,-0.9736328125,-0.08203125,-0.251953125
2063,-0.9736328125,-0.0849609375,-0.251953125
2064,-0.96484375,-0.083984375,-0.2529296875
2065,-0.970703125,-0.091796875,-0.2529296875
2066,-0.966796875,-0.0830078125,-0.2548828125
2067,-0.9716796875,-0.0986328125,-0.2490234375
2068,-0.9658203125,-0.0947265625,-0.2451171875
2069,-0.9697265625,-0.0927734375,-0.24609375
2070,-0.970703125,-0.0986328125,-0.248046875
2071,-0.96875,-0.0927734375,-0.2451171875
2072,-0.9736328125,-0.08984375,-0.24609375
2073,-0.966796875,-0.0849609375,-0.240234375
2074,-0.97265625,-0.083984375,-0.2421875
2075,-0.970703125,-0.0908203125,-0.2412109375
2076,-0.970703125,-0.0888671875,-0.24609375
2077,-0.974609375,-0.0810546875,-0.2470703125
2078,-0.96875,-0.0908203125,-0.251953125
2079,-0.966796875,-0.0849609375,-0.2470703125
2080,-0.96875,-0.083984375,-0.248046875
2081,-0.9736328125,-0.08984375,-0.2548828125
2082,-0.9716796875,-0.09765625,-0.251953125
2083,-0.97265625,-0.09765625,-0.2509765625
2084,-0.978515625,-0.0986328125,-0.255859375
2085,-0.97265625,-0.09765625,-0.255859375
2086,-0.974609375,-0.099609375,-0.2587890625
2087,-0.97265625,-0.1025390625,-0.2578125
2088,-0.9716796875,-0.1015625,-0.2548828125
2089,-0.9658203125,-0.1015625,-0.2548828125
2090,-0.96484375,-0.103515625,-0.25390625
2091,-0.9609375,-0.1025390625,-0.255859375
2092,-0.9619140625,-0.1025390625,-0.255859375
2093,-0.9609375,-0.1025390625,-0.2548828125
2094,-0.9619140625,-0.103515625,-0.2568359375
2095,-0.962890625,-0.1044921875,-0.25390625
2096,-0.96484375,-0.1005859375,-0.2587890625
2097,-0.9609375,-0.1015625,-0.255859375
2098,-0.9609375,-0.09765625,-0.2587890625
2099,-0.9677734375,-0.095703125,-0.2568359375
2100,-0.96484375,-0.0947265625,-0.255859375
2101,-0.9599609375,-0.09765625,-0.251953125
2102,-0.9609375,-0.0947265625,-0.259765625
2103,-0.9599609375,-0.0859375,-0.2529296875
2104,-0.958984375,-0.0859375,-0.2529296875
2105,-0.9599609375,-0.0869140625,-0.251953125
2106,-0.958984375,-0.0947265625,-0.2578125
2107,-0.95703125,-0.087890625,-0.2548828125
2108,-0.9599609375,-0.0908203125,-0.25
2109,-0.9619140625,-0.0908203125,-0.251953125
2110,-0.958984375,-0.0927734375,-0.2509765625
2111,-0.962890625,-0.0986328125,-0.248046875
2112,-0.9609375,-0.0947265625,-0.25390625
2113,-0.9619140625,-0.095703125,-0.248046875
2114,-0.9658203125,-0.0947265625,-0.251953125
2115,-0.9658203125,-0.095703125,-0.2568359375
2116,-0.96484375,-0.091796875,-0.2568359375
2117,-0.97265625,-0.099609375,-0.2587890625
2118,-0.97265625,-0.0927734375,-0.2548828125
2119,-0.96875,-0.08984375,-0.2529296875
2120,-0.9677734375,-0.0927734375,-0.2578125
2121,-0.96875,-0.095703125,-0.2529296875
2122,-0.9638671875,-0.0947265625,-0.2509765625
2123,-0.9638671875,-0.0966796875,-0.2529296875
2124,-0.97265625,-0.09765625,-0.2509765625
2125,-0.970703125,-0.1015625,-0.2578125
2126,-0.9677734375,-0.0966796875,-0.2548828125
2127,-0.974609375,-0.1005859375,-0.24609375
2128,-0.9765625,-0.09375,-0.24609375
2129,-0.9736328125,-0.0947265625,-0.240234375
2130,-0.9755859375,-0.091796875,-0.2490234375
2131,-0.9736328125,-0.0908203125,-0.2490234375
2132,-0.974609375,-0.091796875,-0.24609375
2133,-0.974609375,-0.08984375,-0.2568359375
2134,-0.9736328125,-0.0830078125,-0.2509765625
2135,-0.9716796875,-0.0869140625,-0.25390625
2136,-0.9697265625,-0.0859375,-0.2529296875
2137,-0.9716796875,-0.0859375,-0.2529296875
2138,-0.9775390625,-0.09375,-0.25
2139,-0.9716796875,-0.0869140625,-0.24609375
2140,-0.9765625,-0.0947265625,-0.2431640625
2141,-0.9765625,-0.09375,-0.2451171875
2142,-0.9697265625,-0.0947265625,-0.2431640625
2143,-0.974609375,-0.09375,-0.240234375
2144,-0.97265625,-0.0927734375,-0.23828125
2145,-0.962890625,-0.0966796875,-0.2421875
2146,-0.9619140625,-0.0986328125,-0.2412109375
2147,-0.9599609375,-0.09765625,-0.2451171875
2148,-0.9560546875,-0.095703125,-0.248046875
2149,-0.9599609375,-0.0986328125,-0.244140625
2150,-0.9619140625,-0.09375,-0.2431640625
2151,-0.9599609375,-0.09765625,-0.2451171875
2152,-0.9619140625,-0.0947265625,-0.2451171875
2153,-0.9599609375,-0.091796875,-0.2431640625
2154,-0.9609375,-0.0947265625,-0.2421875
2155,-0.9619140625,-0.095703125,-0.2431640625
2156,-0.9658203125,-0.0927734375,-0.2421875
2157,-0.966796875,-0.099609375,-0.2412109375
2158,-0.9658203125,-0.09375,-0.240234375
2159,-0.9677734375,-0.08984375,-0.2451171875
2160,-0.9638671875,-0.0908203125,-0.2451171875
2161,-0.9599609375,-0.0966796875,-0.2451171875
2162,-0.9677734375,-0.095703125,-0.24609375
2163,-0.97265625,-0.099609375,-0.2431640625
2164,-0.9736328125,-0.0986328125,-0.2412109375
2165,-0.974609375,-0.0927734375,-0.2470703125
2166,-0.9697265625,-0.0888671875,-0.2421875
2167,-0.9697265625,-0.0908203125,-0.244140625
2168,-0.96875,-0.08984375,-0.2421875
2169,-0.970703125,-0.0927734375,-0.2470703125
2170,-0.962890625,-0.087890625,-0.2412109375
2171,-0.9658203125,-0.08984375,-0.2451171875
2172,-0.966796875,-0.08984375,-0.23828125
2173,-0.9638671875,-0.0888671875,-0.23828125
2174,-0.9697265625,-0.0849609375,-0.2373046875
2175,-0.962890625,-0.0849609375,-0.2421875
2176,-0.9677734375,-0.08984375,-0.24609375
2177,-0.96484375,-0.0927734375,-0.2451171875
2178,-0.955078125,-0.0927734375,-0.2431640625
2179,-0.9619140625,-0.083984375,-0.2392578125
2180,-0.9677734375,-0.095703125,-0.236328125
2181,-0.96484375,-0.09375,-0.2412109375
2182,-0.9599609375,-0.0966796875,-0.2421875
2183,-0.9697265625,-0.087890625,-0.2412109375
2184,-0.962890625,-0.0947265625,-0.23828125
2185,-0.970703125,-0.0888671875,-0.2451171875
2186,-0.9736328125,-0.0849609375,-0.23828125
2187,-0.9658203125,-0.080078125,-0.2421875
2188,-0.96484375,-0.0859375,-0.2421875
2189,-0.9755859375,-0.0849609375,-0.2412109375
2190,-0.966796875,-0.0888671875,-0.2392578125
2191,-0.96484375,-0.087890625,-0.2431640625
2192,-0.9677734375,-0.087890625,-0.244140625
2193,-0.9677734375,-0.0888671875,-0.2373046875
2194,-0.966796875,-0.0859375,-0.244140625
2195,-0.9677734375,-0.08203125,-0.2431640625
2196,-0.970703125,-0.08984375,-0.2490234375
2197,-0.96875,-0.0810546875,-0.2509765625
2198,-0.9697265625,-0.0830078125,-0.2431640625
2199,-0.9697265625,-0.0859375,-0.244140625
2200,-0.966796875,-0.08984375,-0.2421875
2201,-0.966796875,-0.083984375,-0.2421875
2202,-0.9619140625,-0.0908203125,-0.244140625
2203,-0.9599609375,-0.0849609375,-0.2412109375
2204,-0.962890625,-0.091796875,-0.2451171875
2205,-0.96484375,-0.08984375,-0.2412109375
2206,-0.96875,-0.0869140625,-0.234375
2207,-0.96484375,-0.0888671875,-0.2412109375
2208,-0.9638671875,-0.08984375,-0.234375
2209,-0.9638671875,-0.087890625,-0.234375
2210,-0.9619140625,-0.0927734375,-0.2431640625
2211,-0.966796875,-0.0859375,-0.2392578125
2212,-0.970703125,-0.0869140625,-0.234375
2213,-0.9736328125,-0.0908203125,-0.2373046875
2214,-0.9755859375,-0.083984375,-0.2373046875
2215,-0.9853515625,-0.083984375,-0.2353515625
2216,-0.9951171875,-0.0947265625,-0.2353515625
2217,-0.990234375,-0.09375,-0.2333984375
2218,-0.99609375,-0.09765625,-0.2353515625
2219,-0.9853515625,-0.095703125,-0.2314453125
2220,-0.9892578125,-0.1005859375,-0.23046875
2221,-0.9794921875,-0.099609375,-0.2333984375
2222,-0.978515625,-0.0986328125,-0.2314453125
2223,-0.9755859375,-0.1015625,-0.23828125
2224,-0.970703125,-0.0947265625,-0.2294921875
2225,-0.96484375,-0.0966796875,-0.240234375
2226,-0.966796875,-0.1015625,-0.236328125
2227,-0.970703125,-0.0966796875,-0.23828125
2228,-0.9638671875,-0.0986328125,-0.236328125
2229,-0.966796875,-0.0927734375,-0.244140625
2230,-0.9677734375,-0.09375,-0.240234375
2231,-0.9638671875,-0.0947265625,-0.2373046875
2232,-0.9638671875,-0.087890625,-0.244140625
2233,-0.9638671875,-0.09375,-0.24609375
2234,-0.9619140625,-0.0947265625,-0.2373046875
2235,-0.958984375,-0.0908203125,-0.2421875
2236,-0.9638671875,-0.08984375,-0.2412109375
2237,-0.962890625,-0.0927734375,-0.2451171875
2238,-0.9619140625,-0.0888671875,-0.2470703125
2239,-0.9609375,-0.0888671875,-0.2470703125
2240,-0.9619140625,-0.087890625,-0.2412109375
2241,-0.962890625,-0.087890625,-0.248046875
2242,-0.962890625,-0.08984375,-0.2470703125
2243,-0.9638671875,-0.0791015625,-0.2431640625
2244,-0.9638671875,-0.087890625,-0.23828125
2245,-0.962890625,-0.076171875,-0.244140625
2246,-0.9638671875,-0.0791015625,-0.240234375
2247,-0.9638671875,-0.083984375,-0.2373046875
2248,-0.9658203125,-0.083984375,-0.2373046875
2249,-0.970703125,-0.0830078125,-0.236328125
2250,-0.9697265625,-0.083984375,-0.234375
2251,-0.96484375,-0.080078125,-0.234375
2252,-0.9677734375,-0.080078125,-0.2353515625
2253,-0.9638671875,-0.083984375,-0.2373046875
2254,-0.96484375,-0.0810546875,-0.2333984375
2255,-0.9677734375,-0.0830078125,-0.23828125
2256,-0.970703125,-0.08203125,-0.2373046875
2257,-0.96875,-0.080078125,-0.2333984375
2258,-0.97265625,-0.08984375,-0.23046875
2259,-0.96875,-0.0830078125,-0.23046875
2260,-0.9765625,-0.087890625,-0.232421875
2261,-0.974609375,-0.0908203125,-0.23046875
2262,-0.9755859375,-0.08984375,-0.2314453125
2263,-0.9794921875,-0.08203125,-0.2373046875
2264,-0.98046875,-0.08984375,-0.234375
2265,-0.978515625,-0.0830078125,-0.234375
2266,-0.9697265625,-0.0908203125,-0.2353515625
2267,-0.978515625,-0.095703125,-0.2412109375
2268,-0.9716796875,-0.0927734375,-0.24609375
2269,-0.9697265625,-0.08984375,-0.240234375
2270,-0.97265625,-0.087890625,-0.2373046875
2271,-0.974609375,-0.08984375,-0.2451171875
2272,-0.970703125,-0.083984375,-0.236328125
2273,-0.974609375,-0.0908203125,-0.2373046875
2274,-0.9775390625,-0.0966796875,-0.2412109375
2275,-0.978515625,-0.091796875,-0.23828125
2276,-0.9775390625,-0.0849609375,-0.24609375
2277,-0.9716796875,-0.09765625,-0.2431640625
2278,-0.9765625,-0.08984375,-0.251953125
2279,-0.9697265625,-0.095703125,-0.240234375
2280,-0.9697265625,-0.08984375,-0.2451171875
2281,-0.96875,-0.0869140625,-0.2451171875
2282,-0.97265625,-0.0908203125,-0.244140625
2283,-0.96484375,-0.0849609375,-0.2412109375
2284,-0.966796875,-0.0869140625,-0.2353515625
2285,-0.9677734375,-0.078125,-0.236328125
2286,-0.9638671875,-0.0849609375,-0.232421875
2287,-0.958984375,-0.0947265625,-0.23046875
2288,-0.9638671875,-0.095703125,-0.2353515625
2289,-0.9619140625,-0.095703125,-0.23046875
2290,-0.9599609375,-0.0947265625,-0.2353515625
2291,-0.9599609375,-0.099609375,-0.232421875
2292,-0.9609375,-0.0966796875,-0.240234375
2293,-0.96875,-0.0947265625,-0.2431640625
2294,-0.966796875,-0.09765625,-0.2353515625
2295,-0.96875,-0.1044921875,-0.2353515625
2296,-0.9677734375,-0.1005859375,-0.2333984375
2297,-0.97265625,-0.1025390625,-0.2392578125
2298,-0.970703125,-0.1044921875,-0.232421875
2299,-0.9638671875,-0.1025390625,-0.2412109375
2300,-0.9736328125,-0.095703125,-0.236328125
2301,-0.9736328125,-0.0947265625,-0.23828125
2302,-0.96875,-0.099609375,-0.23828125
2303,-0.9716796875,-0.095703125,-0.2412109375
2304,-0.96484375,-0.09765625,-0.23828125
2305,-0.9677734375,-0.091796875,-0.2373046875
2306,-0.96484375,-0.0888671875,-0.244140625
2307,-0.96484375,-0.09375,-0.23828125
2308,-0.96875,-0.08984375,-0.23828125
2309,-0.970703125,-0.0908203125,-0.236328125
2310,-0.9716796875,-0.0947265625,-0.2412109375
2311,-0.9658203125,-0.0859375,-0.236328125
2312,-0.970703125,-0.087890625,-0.2421875
2313,-0.9658203125,-0.080078125,-0.240234375
2314,-0.9619140625,-0.087890625,-0.23828125
2315,-0.9638671875,-0.080078125,-0.240234375
2316,-0.9599609375,-0.08203125,-0.24609375
2317,-0.9677734375,-0.0810546875,-0.244140625
2318,-0.9599609375,-0.083984375,-0.2451171875
2319,-0.962890625,-0.0830078125,-0.2421875
2320,-0.9638671875,-0.087890625,-0.2392578125
2321,-0.9638671875,-0.08984375,-0.2392578125
2322,-0.9677734375,-0.083984375,-0.236328125
2323,-0.9619140625,-0.08984375,-0.2421875
2324,-0.9658203125,-0.083984375,-0.23828125
2325,-0.962890625,-0.0908203125,-0.24609375
2326,-0.96875,-0.0859375,-0.240234375
2327,-0.9697265625,-0.0927734375,-0.2451171875
2328,-0.9697265625,-0.08203125,-0.23828125
2329,-0.966796875,-0.083984375,-0.2421875
2330,-0.97265625,-0.0859375,-0.25
2331,-0.97265625,-0.0908203125,-0.2421875
2332,-0.970703125,-0.0908203125,-0.2412109375
2333,-0.97265625,-0.09375,-0.23828125
2334,-0.9775390625,-0.0947265625,-0.24609375
2335,-0.9716796875,-0.0888671875,-0.24609375
2336,-0.9658203125,-0.0908203125,-0.2451171875
2337,-0.970703125,-0.0927734375,-0.2490234375
2338,-0.978515625,-0.0849609375,-0.2451171875
2339,-0.97265625,-0.08203125,-0.2470703125
2340,-0.9677734375,-0.0869140625,-0.244140625
2341,-0.9677734375,-0.0859375,-0.24609375
2342,-0.96484375,-0.083984375,-0.2490234375
2343,-0.9677734375,-0.0849609375,-0.2451171875
2344,-0.962890625,-0.0830078125,-0.2421875
2345,-0.970703125,-0.08984375,-0.2421875
2346,-0.966796875,-0.08984375,-0.2451171875
2347,-0.9697265625,-0.0947265625,-0.2353515625
2348,-0.9677734375,-0.08984375,-0.2373046875
2349,-0.9658203125,-0.09765625,-0.240234375
2350,-0.96484375,-0.0927734375,-0.2373046875
2351,-0.96875,-0.0927734375,-0.2431640625
2352,-0.9697265625,-0.0947265625,-0.234375
2353,-0.96484375,-0.09375,-0.240234375
2354,-0.9658203125,-0.091796875,-0.2412109375
2355,-0.966796875,-0.0986328125,-0.24609375
2356,-0.9638671875,-0.095703125,-0.240234375
2357,-0.966796875,-0.0966796875,-0.2421875
2358,-0.9736328125,-0.09375,-0.2451171875
2359,-0.9697265625,-0.091796875,-0.2412109375
2360,-0.966796875,-0.0927734375,-0.2490234375
2361,-0.9677734375,-0.09375,-0.25
2362,-0.9755859375,-0.0908203125,-0.2451171875
2363,-0.974609375,-0.0986328125,-0.2509765625
2364,-0.982421875,-0.0966796875,-0.2529296875
2365,-0.9775390625,-0.099609375,-0.2451171875
2366,-0.9765625,-0.1015625,-0.25
2367,-0.9814453125,-0.1015625,-0.2421875
2368,-0.9794921875,-0.10546875,-0.2470703125
2369,-0.978515625,-0.103515625,-0.25
2370,-0.9775390625,-0.1015625,-0.2509765625
2371,-0.974609375,-0.0986328125,-0.2490234375
2372,-0.9755859375,-0.099609375,-0.251953125
2373,-0.96875,-0.095703125,-0.2431640625
2374,-0.97265625,-0.095703125,-0.24609375
2375,-0.97265625,-0.095703125,-0.2431640625
2376,-0.96484375,-0.0869140625,-0.2490234375
2377,-0.9638671875,-0.1005859375,-0.2421875
2378,-0.962890625,-0.0966796875,-0.244140625
2379,-0.966796875,-0.0986328125,-0.2451171875
2380,-0.9599609375,-0.099609375,-0.248046875
2381,-0.9619140625,-0.1005859375,-0.2431640625
2382,-0.9599609375,-0.095703125,-0.2529296875
2383,-0.962890625,-0.0986328125,-0.248046875
2384,-0.95703125,-0.103515625,-0.244140625
2385,-0.9580078125,-0.0947265625,-0.2470703125
2386,-0.958984375,-0.0986328125,-0.251953125
2387,-0.95703125,-0.0908203125,-0.2470703125
2388,-0.95703125,-0.095703125,-0.248046875
2389,-0.9541015625,-0.0966796875,-0.251953125
2390,-0.958984375,-0.09765625,-0.24609375
2391,-0.9609375,-0.09375,-0.2490234375
2392,-0.9609375,-0.0947265625,-0.2421875
2393,-0.96875,-0.0966796875,-0.2451171875
2394,-0.9638671875,-0.09375,-0.248046875
2395,-0.9638671875,-0.095703125,-0.23828125
2396,-0.962890625,-0.0986328125,-0.2421875
2397,-0.9677734375,-0.0986328125,-0.244140625
2398,-0.962890625,-0.095703125,-0.2421875
2399,-0.9658203125,-0.099609375,-0.244140625
2400,-0.9697265625,-0.08984375,-0.2451171875
2401,-0.962890625,-0.0908203125,-0.25
2402,-0.96484375,-0.087890625,-0.248046875
2403,-0.9609375,-0.0908203125,-0.2412109375
2404,-0.9658203125,-0.09765625,-0.2431640625
2405,-0.9716796875,-0.0947265625,-0.2490234375
2406,-0.96875,-0.099609375,-0.2451171875
2407,-0.96875,-0.09765625,-0.248046875
2408,-0.9716796875,-0.1015625,-0.251953125
2409,-0.9765625,-0.0986328125,-0.2509765625
2410,-0.974609375,-0.0986328125,-0.2509765625
2411,-0.97265625,-0.09765625,-0.2587890625
2412,-0.9736328125,-0.0830078125,-0.2578125
2413,-0.9765625,-0.0888671875,-0.259765625
2414,-0.97265625,-0.0810546875,-0.25390625
2415,-0.9755859375,-0.0849609375,-0.255859375
2416,-0.974609375,-0.0849609375,-0.2548828125
2417,-0.96875,-0.09375,-0.2470703125
2418,-0.962890625,-0.0869140625,-0.24609375
2419,-0.9599609375,-0.0859375,-0.244140625
2420,-0.9599609375,-0.0830078125,-0.240234375
2421,-0.962890625,-0.091796875,-0.2431640625
2422,-0.9599609375,-0.0966796875,-0.2412109375
2423,-0.9619140625,-0.0927734375,-0.2373046875
2424,-0.958984375,-0.103515625,-0.234375
2425,-0.9541015625,-0.1025390625,-0.234375
2426,-0.9619140625,-0.1025390625,-0.23828125
2427,-0.95703125,-0.103515625,-0.2421875
2428,-0.9599609375,-0.103515625,-0.240234375
2429,-0.9599609375,-0.0986328125,-0.2421875
2430,-0.9619140625,-0.1025390625,-0.244140625
2431,-0.96875,-0.099609375,-0.2470703125
2432,-0.9658203125,-0.099609375,-0.2421875
2433,-0.9697265625,-0.099609375,-0.2451171875
2434,-0.970703125,-0.1044921875,-0.244140625
2435,-0.9677734375,-0.1015625,-0.2470703125
2436,-0.966796875,-0.1025390625,-0.2431640625
2437,-0.9677734375,-0.1025390625,-0.2490234375
2438,-0.9677734375,-0.103515625,-0.2490234375
2439,-0.9697265625,-0.1064453125,-0.248046875
2440,-0.97265625,-0.1044921875,-0.251953125
2441,-0.9755859375,-0.1015625,-0.2529296875
2442,-0.9736328125,-0.099609375,-0.248046875
2443,-0.974609375,-0.09765625,-0.2509765625
2444,-0.970703125,-0.1025390625,-0.25
2445,-0.97265625,-0.1025390625,-0.251953125
2446,-0.9697265625,-0.095703125,-0.2509765625
2447,-0.96484375,-0.0966796875,-0.2529296875
2448,-0.9638671875,-0.0966796875,-0.2509765625
2449,-0.96484375,-0.0966796875,-0.251953125
2450,-0.9619140625,-0.095703125,-0.25390625
2451,-0.9677734375,-0.0908203125,-0.25
2452,-0.9609375,-0.095703125,-0.2529296875
2453,-0.962890625,-0.0947265625,-0.2490234375
2454,-0.96875,-0.08984375,-0.25390625
2455,-0.962890625,-0.095703125,-0.2568359375
2456,-0.9677734375,-0.0927734375,-0.2548828125
2457,-0.966796875,-0.1044921875,-0.25390625
2458,-0.962890625,-0.099609375,-0.2568359375
2459,-0.962890625,-0.099609375,-0.2568359375
2460,-0.958984375,-0.1044921875,-0.248046875
2461,-0.9638671875,-0.1005859375,-0.2509765625
2462,-0.9638671875,-0.0966796875,-0.2509765625
2463,-0.9677734375,-0.0947265625,-0.2490234375
2464,-0.9619140625,-0.09375,-0.25
2465,-0.9638671875,-0.0830078125,-0.2529296875
2466,-0.962890625,-0.0927734375,-0.248046875
2467,-0.96484375,-0.087890625,-0.2470703125
2468,-0.9638671875,-0.091796875,-0.2490234375
2469,-0.962890625,-0.095703125,-0.2470703125
2470,-0.962890625,-0.09765625,-0.2470703125
2471,-0.9658203125,-0.0947265625,-0.248046875
2472,-0.96875,-0.1005859375,-0.2509765625
2473,-0.96484375,-0.0986328125,-0.2548828125
2474,-0.9716796875,-0.09765625,-0.2490234375
2475,-0.9736328125,-0.1015625,-0.2578125
2476,-0.96875,-0.09765625,-0.2568359375
2477,-0.9697265625,-0.0986328125,-0.25390625
2478,-0.9716796875,-0.1005859375,-0.2548828125
2479,-0.9658203125,-0.09375,-0.2578125
2480,-0.9697265625,-0.09765625,-0.2509765625
2481,-0.9677734375,-0.0947265625,-0.25
2482,-0.9716796875,-0.0908203125,-0.2470703125
2483,-0.9638671875,-0.0966796875,-0.24609375
2484,-0.9638671875,-0.0966796875,-0.2470703125
2485,-0.9658203125,-0.0986328125,-0.2470703125
2486,-0.9638671875,-0.09765625,-0.2421875
2487,-0.96484375,-0.0966796875,-0.240234375
2488,-0.962890625,-0.0966796875,-0.24609375
2489,-0.9677734375,-0.099609375,-0.2412109375
2490,-0.9677734375,-0.0966796875,-0.24609375
2491,-0.966796875,-0.1015625,-0.2421875
2492,-0.966796875,-0.099609375,-0.2431640625
2493,-0.9658203125,-0.0986328125,-0.2509765625
2494,-0.96484375,-0.095703125,-0.24609375
2495,-0.9716796875,-0.099609375,-0.2421875
2496,-0.962890625,-0.1005859375,-0.25
2497,-0.9716796875,-0.0947265625,-0.24609375
2498,-0.9697265625,-0.087890625,-0.2470703125
2499,-0.9658203125,-0.091796875,-0.2412109375
2500,-0.966796875,-0.095703125,-0.2451171875
2501,-0.9658203125,-0.0966796875,-0.2470703125
2502,-0.96875,-0.08984375,-0.2421875
2503,-0.9638671875,-0.095703125,-0.25
2504,-0.962890625,-0.1025390625,-0.2451171875
2505,-0.962890625,-0.09765625,-0.2470703125
2506,-0.9677734375,-0.1005859375,-0.248046875
2507,-0.96484375,-0.1005859375,-0.24609375
2508,-0.96484375,-0.0966796875,-0.248046875
2509,-0.9658203125,-0.1025390625,-0.2470703125
2510,-0.970703125,-0.095703125,-0.24609375
2511,-0.97265625,-0.0966796875,-0.248046875
2512,-0.96875,-0.09375,-0.248046875
2513,-0.970703125,-0.0927734375,-0.248046875
2514,-0.97265625,-0.0966796875,-0.2509765625
2515,-0.9716796875,-0.0947265625,-0.2470703125
2516,-0.9638671875,-0.0947265625,-0.2451171875
2517,-0.96875,-0.0927734375,-0.2392578125
2518,-0.9697265625,-0.091796875,-0.248046875
2519,-0.96484375,-0.0927734375,-0.2470703125
2520,-0.9638671875,-0.0986328125,-0.248046875
2521,-0.9658203125,-0.1015625,-0.24609375
2522,-0.962890625,-0.0947265625,-0.25
2523,-0.9697265625,-0.1015625,-0.24609375
2524,-0.962890625,-0.09765625,-0.2431640625
2525,-0.962890625,-0.09375,-0.2451171875
2526,-0.966796875,-0.0986328125,-0.24609375
2527,-0.962890625,-0.099609375,-0.2412109375
2528,-0.9658203125,-0.0986328125,-0.2421875
2529,-0.9677734375,-0.09375,-0.2421875
2530,-0.96875,-0.0966796875,-0.244140625
2531,-0.96484375,-0.095703125,-0.2412109375
2532,-0.9638671875,-0.0986328125,-0.2451171875
2533,-0.962890625,-0.0986328125,-0.2431640625
2534,-0.966796875,-0.1005859375,-0.244140625
2535,-0.9697265625,-0.1005859375,-0.2431640625
2536,-0.970703125,-0.1005859375,-0.2451171875
2537,-0.96875,-0.095703125,-0.24609375
2538,-0.96875,-0.0927734375,-0.240234375
2539,-0.966796875,-0.099609375,-0.244140625
2540,-0.9697265625,-0.095703125,-0.24609375
2541,-0.966796875,-0.1025390625,-0.2392578125
2542,-0.9677734375,-0.099609375,-0.244140625
2543,-0.96484375,-0.1015625,-0.24609375
2544,-0.9736328125,-0.1005859375,-0.244140625
2545,-0.9697265625,-0.099609375,-0.24609375
2546,-0.9677734375,-0.1005859375,-0.24609375
2547,-0.96875,-0.0986328125,-0.248046875
2548,-0.9677734375,-0.0986328125,-0.2548828125
2549,-0.97265625,-0.09375,-0.24609375
2550,-0.9716796875,-0.0927734375,-0.2548828125
2551,-0.9697265625,-0.0888671875,-0.25390625
2552,-0.9677734375,-0.08984375,-0.2568359375
2553,-0.962890625,-0.0947265625,-0.255859375
2554,-0.962890625,-0.0908203125,-0.25
2555,-0.9619140625,-0.1005859375,-0.2490234375
2556,-0.9658203125,-0.095703125,-0.2529296875
2557,-0.9619140625,-0.095703125,-0.24609375
2558,-0.966796875,-0.0927734375,-0.244140625
2559,-0.96875,-0.09375,-0.2373046875
2560,-0.962890625,-0.0888671875,-0.232421875
2561,-0.9599609375,-0.095703125,-0.2392578125
2562,-0.9609375,-0.091796875,-0.232421875
2563,-0.9599609375,-0.1015625,-0.240234375
2564,-0.9599609375,-0.099609375,-0.234375
2565,-0.96484375,-0.1005859375,-0.240234375
2566,-0.962890625,-0.1015625,-0.244140625
2567,-0.962890625,-0.09765625,-0.240234375
2568,-0.966796875,-0.0986328125,-0.2353515625
2569,-0.966796875,-0.09765625,-0.240234375
2570,-0.9658203125,-0.1025390625,-0.244140625
2571,-0.96875,-0.09765625,-0.236328125
2572,-0.97265625,-0.0966796875,-0.2412109375
2573,-0.970703125,-0.1025390625,-0.2353515625
2574,-0.9736328125,-0.099609375,-0.2412109375
2575,-0.9716796875,-0.0986328125,-0.2451171875
2576,-0.9755859375,-0.0966796875,-0.2470703125
2577,-0.974609375,-0.091796875,-0.2451171875
2578,-0.97265625,-0.0966796875,-0.2451171875
2579,-0.9765625,-0.09375,-0.2470703125
2580,-0.9736328125,-0.1005859375,-0.2451171875
2581,-0.9755859375,-0.091796875,-0.2431640625
2582,-0.9697265625,-0.0927734375,-0.2509765625
2583,-0.97265625,-0.0927734375,-0.25
2584,-0.97265625,-0.0927734375,-0.24609375
2585,-0.96875,-0.08984375,-0.244140625
2586,-0.9677734375,-0.087890625,-0.248046875
2587,-0.96484375,-0.0927734375,-0.2451171875
2588,-0.962890625,-0.0927734375,-0.2451171875
2589,-0.9638671875,-0.0869140625,-0.2490234375
2590,-0.9658203125,-0.0888671875,-0.244140625
2591,-0.962890625,-0.0947265625,-0.24609375
2592,-0.9619140625,-0.08984375,-0.25
2593,-0.9560546875,-0.08984375,-0.248046875
2594,-0.96875,-0.087890625,-0.2451171875
2595,-0.9658203125,-0.09375,-0.2412109375
2596,-0.96484375,-0.0966796875,-0.2431640625
2597,-0.96484375,-0.1005859375,-0.244140625
2598,-0.966796875,-0.09375,-0.244140625
2599,-0.9677734375,-0.0986328125,-0.24609375
2600,-0.970703125,-0.0947265625,-0.248046875
2601,-0.9619140625,-0.0888671875,-0.2451171875
2602,-0.9658203125,-0.09765625,-0.244140625
2603,-0.9609375,-0.0869140625,-0.244140625
2604,-0.96484375,-0.0927734375,-0.2451171875
2605,-0.9609375,-0.087890625,-0.2412109375
2606,-0.9609375,-0.0869140625,-0.2451171875
2607,-0.96484375,-0.0869140625,-0.2421875
2608,-0.9638671875,-0.0888671875,-0.244140625
2609,-0.9609375,-0.09375,-0.2421875
2610,-0.9658203125,-0.095703125,-0.23828125
2611,-0.9677734375,-0.095703125,-0.2412109375
2612,-0.9716796875,-0.09375,-0.2431640625
2613,-0.9736328125,-0.099609375,-0.2431640625
2614,-0.970703125,-0.095703125,-0.2509765625
2615,-0.9755859375,-0.0966796875,-0.2470703125
2616,-0.9755859375,-0.0966796875,-0.24609375
2617,-0.9736328125,-0.0908203125,-0.25
2618,-0.9716796875,-0.0927734375,-0.248046875
2619,-0.96875,-0.0908203125,-0.2451171875
2620,-0.96875,-0.08984375,-0.2431640625
2621,-0.9599609375,-0.091796875,-0.244140625
2622,-0.9638671875,-0.08984375,-0.2470703125
2623,-0.96484375,-0.0927734375,-0.24609375
2624,-0.9619140625,-0.095703125,-0.24609375
2625,-0.9658203125,-0.09375,-0.2412109375
2626,-0.9658203125,-0.091796875,-0.236328125
2627,-0.96484375,-0.0908203125,-0.244140625
2628,-0.96875,-0.09375,-0.236328125
2629,-0.9658203125,-0.09375,-0.2333984375
2630,-0.966796875,-0.0908203125,-0.2412109375
2631,-0.966796875,-0.0908203125,-0.240234375
2632,-0.970703125,-0.08984375,-0.236328125
2633,-0.966796875,-0.0888671875,-0.240234375
2634,-0.9638671875,-0.0947265625,-0.2412109375
2635,-0.96484375,-0.09375,-0.2421875
2636,-0.9716796875,-0.0947265625,-0.23828125
2637,-0.9638671875,-0.0908203125,-0.2412109375
2638,-0.966796875,-0.0908203125,-0.2421875
2639,-0.9677734375,-0.0888671875,-0.2431640625
2640,-0.96484375,-0.095703125,-0.240234375
2641,-0.9638671875,-0.0947265625,-0.23828125
2642,-0.96484375,-0.0927734375,-0.2412109375
2643,-0.9658203125,-0.0927734375,-0.244140625
2644,-0.97265625,-0.091796875,-0.2431640625
2645,-0.9697265625,-0.09375,-0.2412109375
2646,-0.966796875,-0.0888671875,-0.25
2647,-0.97265625,-0.08984375,-0.2373046875
2648,-0.974609375,-0.083984375,-0.2373046875
2649,-0.9736328125,-0.0908203125,-0.23828125
2650,-0.97265625,-0.0830078125,-0.23828125
2651,-0.970703125,-0.080078125,-0.2412109375
2652,-0.97265625,-0.0859375,-0.240234375
2653,-0.966796875,-0.080078125,-0.2373046875
2654,-0.9697265625,-0.0859375,-0.2353515625
2655,-0.966796875,-0.0869140625,-0.2412109375
2656,-0.9697265625,-0.0849609375,-0.23828125
2657,-0.966796875,-0.0908203125,-0.236328125
2658,-0.9716796875,-0.0849609375,-0.2373046875
2659,-0.970703125,-0.0947265625,-0.2392578125
2660,-0.96875,-0.08984375,-0.2373046875
2661,-0.9677734375,-0.0830078125,-0.2412109375
2662,-0.9658203125,-0.091796875,-0.2333984375
2663,-0.9716796875,-0.0927734375,-0.240234375
2664,-0.97265625,-0.0947265625,-0.234375
2665,-0.9716796875,-0.0927734375,-0.236328125
2666,-0.9755859375,-0.0927734375,-0.240234375
2667,-0.9755859375,-0.09765625,-0.23828125
2668,-0.9736328125,-0.09375,-0.23828125
2669,-0.974609375,-0.087890625,-0.2412109375
2670,-0.974609375,-0.0927734375,-0.2421875
2671,-0.9755859375,-0.087890625,-0.240234375
2672,-0.9716796875,-0.08984375,-0.2431640625
2673,-0.96875,-0.0849609375,-0.23828125
2674,-0.978515625,-0.0888671875,-0.23828125
2675,-0.970703125,-0.0888671875,-0.236328125
2676,-0.966796875,-0.095703125,-0.2373046875
2677,-0.96875,-0.091796875,-0.234375
2678,-0.9716796875,-0.0927734375,-0.236328125
2679,-0.9677734375,-0.09765625,-0.236328125
2680,-0.970703125,-0.0947265625,-0.2373046875
2681,-0.9638671875,-0.095703125,-0.23828125
2682,-0.970703125,-0.0908203125,-0.2373046875
2683,-0.96875,-0.087890625,-0.2373046875
2684,-0.970703125,-0.0830078125,-0.2353515625
2685,-0.9736328125,-0.0849609375,-0.23828125
2686,-0.970703125,-0.087890625,-0.2392578125
2687,-0.970703125,-0.0810546875,-0.2392578125
2688,-0.970703125,-0.099609375,-0.2431640625
2689,-0.966796875,-0.0888671875,-0.240234375
2690,-0.9697265625,-0.0966796875,-0.23828125
2691,-0.9677734375,-0.0966796875,-0.23828125
2692,-0.96875,-0.0888671875,-0.2470703125
2693,-0.9677734375,-0.091796875,-0.2431640625
2694,-0.9736328125,-0.080078125,-0.2421875
2695,-0.970703125,-0.0849609375,-0.2431640625
2696,-0.97265625,-0.083984375,-0.2509765625
2697,-0.974609375,-0.0869140625,-0.248046875
2698,-0.96875,-0.083984375,-0.24609375
2699,-0.96875,-0.0849609375,-0.25
2700,-0.966796875,-0.0888671875,-0.25
2701,-0.9658203125,-0.087890625,-0.2529296875
2702,-0.9716796875,-0.08984375,-0.2412109375
2703,-0.966796875,-0.0869140625,-0.2451171875
2704,-0.962890625,-0.0849609375,-0.2412109375
2705,-0.966796875,-0.087890625,-0.23828125
2706,-0.962890625,-0.0849609375,-0.236328125
2707,-0.9677734375,-0.083984375,-0.232421875
2708,-0.958984375,-0.083984375,-0.2333984375
2709,-0.951171875,-0.0869140625,-0.236328125
2710,-0.9638671875,-0.08984375,-0.2314453125
2711,-0.9658203125,-0.0859375,-0.2353515625
2712,-0.958984375,-0.0849609375,-0.228515625
2713,-0.9677734375,-0.0830078125,-0.232421875
2714,-0.96484375,-0.0849609375,-0.2333984375
2715,-0.9638671875,-0.0810546875,-0.2333984375
2716,-0.9658203125,-0.0908203125,-0.2314453125
2717,-0.970703125,-0.0947265625,-0.2333984375
2718,-0.9697265625,-0.0966796875,-0.2314453125
2719,-0.970703125,-0.08984375,-0.236328125
2720,-0.9697265625,-0.09375,-0.2333984375
2721,-0.9697265625,-0.095703125,-0.232421875
2722,-0.970703125,-0.0908203125,-0.2412109375
2723,-0.98046875,-0.087890625,-0.232421875
2724,-0.978515625,-0.0947265625,-0.2392578125
2725,-0.978515625,-0.087890625,-0.2421875
2726,-0.9755859375,-0.0888671875,-0.2373046875
2727,-0.9794921875,-0.0849609375,-0.234375
2728,-0.974609375,-0.0927734375,-0.2412109375
2729,-0.97265625,-0.0859375,-0.2373046875
2730,-0.97265625,-0.0859375,-0.2412109375
2731,-0.97265625,-0.0849609375,-0.232421875
2732,-0.9765625,-0.087890625,-0.23828125
2733,-0.9697265625,-0.0869140625,-0.2353515625
2734,-0.974609375,-0.0791015625,-0.236328125
2735,-0.974609375,-0.08203125,-0.236328125
2736,-0.97265625,-0.0849609375,-0.236328125
2737,-0.962890625,-0.0849609375,-0.236328125
2738,-0.9658203125,-0.08984375,-0.2353515625
2739,-0.9677734375,-0.0888671875,-0.236328125
2740,-0.9677734375,-0.0849609375,-0.2373046875
2741,-0.96875,-0.0947265625,-0.2353515625
2742,-0.96484375,-0.09375,-0.234375
2743,-0.9658203125,-0.083984375,-0.232421875
2744,-0.96875,-0.08203125,-0.232421875
2745,-0.9658203125,-0.0859375,-0.2333984375
2746,-0.970703125,-0.087890625,-0.236328125
2747,-0.96484375,-0.09375,-0.234375
2748,-0.97265625,-0.087890625,-0.2392578125
2749,-0.9638671875,-0.0849609375,-0.232421875
2750,-0.970703125,-0.0859375,-0.2333984375
2751,-0.9560546875,-0.0791015625,-0.23828125
2752,-0.978515625,-0.0771484375,-0.23828125
2753,-0.9697265625,-0.08984375,-0.2294921875
2754,-0.9716796875,-0.087890625,-0.234375
2755,-0.97265625,-0.087890625,-0.234375
2756,-0.966796875,-0.087890625,-0.234375
2757,-0.9697265625,-0.0888671875,-0.2353515625
2758,-0.9716796875,-0.0849609375,-0.236328125
2759,-0.96875,-0.0810546875,-0.232421875
2760,-0.96875,-0.0859375,-0.234375
2761,-0.966796875,-0.0830078125,-0.240234375
2762,-0.962890625,-0.0869140625,-0.2373046875
2763,-0.9755859375,-0.080078125,-0.232421875
2764,-0.9697265625,-0.08984375,-0.234375
2765,-0.9697265625,-0.0859375,-0.2373046875
2766,-0.974609375,-0.0849609375,-0.23828125
2767,-0.9697265625,-0.087890625,-0.2373046875
2768,-0.9677734375,-0.0869140625,-0.2373046875
2769,-0.9716796875,-0.083984375,-0.234375
