,accelerometerAccelerationX(G),accelerometerAccelerationY(G),accelerometerAccelerationZ(G)
0,0.001953125,-0.943359375,-0.2451171875
1,-0.00390625,-0.943359375,-0.2490234375
2,0.00390625,-0.9423828125,-0.2490234375
3,0.0078125,-0.9404296875,-0.248046875
4,0.0107421875,-0.943359375,-0.2421875
5,0.0078125,-0.951171875,-0.2470703125
6,0.013671875,-0.947265625,-0.2412109375
7,0.0107421875,-0.9462890625,-0.24609375
8,0.009765625,-0.9501953125,-0.2412109375
9,0.0107421875,-0.9501953125,-0.2353515625
10,0.01171875,-0.9462890625,-0.240234375
11,0.0146484375,-0.9501953125,-0.2451171875
12,0.0107421875,-0.9462890625,-0.240234375
13,0.013671875,-0.951171875,-0.2412109375
14,0.0078125,-0.943359375,-0.25
15,0.005859375,-0.943359375,-0.2421875
16,0.0087890625,-0.9482421875,-0.2421875
17,0.0087890625,-0.9482421875,-0.2431640625
18,0.01171875,-0.9453125,-0.24609375
19,0.01171875,-0.9501953125,-0.24609375
20,0.0107421875,-0.9453125,-0.2421875
21,0.0087890625,-0.943359375,-0.248046875
22,0.0126953125,-0.947265625,-0.24609375
23,0.0078125,-0.94921875,-0.2431640625
24,0.0107421875,-0.94921875,-0.2451171875
25,0.0087890625,-0.947265625,-0.2470703125
26,0.013671875,-0.94921875,-0.248046875
27,0.009765625,-0.943359375,-0.248046875
28,0.0107421875,-0.9462890625,-0.2529296875
29,0.013671875,-0.9453125,-0.2509765625
30,0.0107421875,-0.943359375,-0.2490234375
31,0.0078125,-0.94921875,-0.251953125
32,0.0107421875,-0.9443359375,-0.2490234375
33,0.0087890625,-0.9443359375,-0.2509765625
34,0.0126953125,-0.9423828125,-0.2529296875
35,0.0078125,-0.9423828125,-0.2529296875
36,0.009765625,-0.943359375,-0.251953125
37,0.0068359375,-0.9453125,-0.2548828125
38,0.009765625,-0.9423828125,-0.2548828125
39,0.009765625,-0.9462890625,-0.259765625
40,0.009765625,-0.939453125,-0.2568359375
41,0.0126953125,-0.9453125,-0.2578125
42,0.01171875,-0.9404296875,-0.259765625
43,0.01171875,-0.9404296875,-0.2578125
44,0.0146484375,-0.9453125,-0.259765625
45,0.0107421875,-0.9453125,-0.2646484375
46,0.013671875,-0.9501953125,-0.2578125
47,0.0107421875,-0.9541015625,-0.259765625
48,0.015625,-0.94921875,-0.263671875
49,0.0146484375,-0.9453125,-0.2626953125
50,0.015625,-0.9443359375,-0.2587890625
51,0.01171875,-0.94140625,-0.255859375
52,0.009765625,-0.9404296875,-0.2607421875
53,0.009765625,-0.9345703125,-0.2626953125
54,0.0107421875,-0.9423828125,-0.26171875
55,0.0078125,-0.947265625,-0.2666015625
56,0.009765625,-0.939453125,-0.2626953125
57,0.0087890625,-0.9404296875,-0.2626953125
58,0.0107421875,-0.9443359375,-0.2646484375
59,0.0078125,-0.94140625,-0.265625
60,0.015625,-0.9384765625,-0.259765625
61,0.009765625,-0.9453125,-0.2626953125
62,0.009765625,-0.9375,-0.2607421875
63,0.0078125,-0.931640625,-0.2646484375
64,0.0078125,-0.94140625,-0.2666015625
65,0.005859375,-0.9404296875,-0.26171875
66,0.01171875,-0.9384765625,-0.2626953125
67,0.0078125,-0.939453125,-0.26171875
68,0.005859375,-0.94140625,-0.259765625
69,0.0078125,-0.9453125,-0.2626953125
70,0.0048828125,-0.9423828125,-0.2685546875
71,0.0107421875,-0.943359375,-0.259765625
72,0.0068359375,-0.943359375,-0.2607421875
73,0.009765625,-0.939453125,-0.2587890625
74,0.0166015625,-0.9404296875,-0.2578125
75,0.009765625,-0.9384765625,-0.2578125
76,0.01171875,-0.939453125,-0.2578125
77,0.01953125,-0.9375,-0.259765625
78,0.015625,-0.939453125,-0.259765625
79,0.01171875,-0.939453125,-0.26171875
80,0.013671875,-0.9404296875,-0.259765625
81,0.013671875,-0.939453125,-0.263671875
82,0.0126953125,-0.9423828125,-0.265625
83,0.015625,-0.9384765625,-0.2666015625
84,0.0107421875,-0.943359375,-0.2666015625
85,0.0107421875,-0.9443359375,-0.2685546875
86,0.0048828125,-0.9423828125,-0.26953125
87,0.013671875,-0.9453125,-0.2705078125
88,0.0078125,-0.943359375,-0.2666015625
89,0.0126953125,-0.9365234375,-0.2685546875
90,0.0126953125,-0.9423828125,-0.271484375
91,0.0146484375,-0.939453125,-0.2685546875
92,0.0087890625,-0.94921875,-0.26953125
93,0.009765625,-0.9482421875,-0.265625
94,0.0078125,-0.9453125,-0.2666015625
95,0.01171875,-0.9521484375,-0.267578125
96,0.013671875,-0.953125,-0.2666015625
97,0.0146484375,-0.943359375,-0.2646484375
98,0.0146484375,-0.943359375,-0.265625
99,0.0166015625,-0.9453125,-0.2705078125
100,0.015625,-0.9453125,-0.2705078125
101,0.015625,-0.94140625,-0.26953125
102,0.009765625,-0.94140625,-0.265625
103,0.01171875,-0.9384765625,-0.2685546875
104,0.0107421875,-0.943359375,-0.2685546875
105,0.0146484375,-0.943359375,-0.26953125
106,0.009765625,-0.9462890625,-0.271484375
107,0.017578125,-0.94140625,-0.267578125
108,0.013671875,-0.9443359375,-0.265625
109,0.0107421875,-0.9443359375,-0.275390625
110,0.013671875,-0.9453125,-0.26953125
111,0.0126953125,-0.947265625,-0.271484375
112,0.0146484375,-0.9462890625,-0.2724609375
113,0.0166015625,-0.9384765625,-0.275390625
114,0.01171875,-0.94140625,-0.2666015625
115,0.015625,-0.9384765625,-0.265625
116,0.0166015625,-0.9423828125,-0.263671875
117,0.021484375,-0.939453125,-0.2705078125
118,0.0146484375,-0.9404296875,-0.2666015625
119,0.01953125,-0.9423828125,-0.267578125
120,0.0185546875,-0.947265625,-0.265625
121,0.01171875,-0.943359375,-0.2626953125
122,0.0146484375,-0.9375,-0.2607421875
123,0.015625,-0.9384765625,-0.265625
124,0.0146484375,-0.939453125,-0.2685546875
125,0.0166015625,-0.9404296875,-0.2666015625
126,0.0146484375,-0.94140625,-0.2607421875
127,0.0146484375,-0.943359375,-0.2607421875
128,0.013671875,-0.94140625,-0.26171875
129,0.013671875,-0.9404296875,-0.2607421875
130,0.00390625,-0.939453125,-0.2607421875
131,0.0107421875,-0.94140625,-0.2626953125
132,0.009765625,-0.935546875,-0.26171875
133,0.0078125,-0.9404296875,-0.267578125
134,0.0068359375,-0.935546875,-0.2646484375
135,0.015625,-0.9365234375,-0.2646484375
136,0.0126953125,-0.9345703125,-0.2626953125
137,0.009765625,-0.9384765625,-0.26953125
138,0.01171875,-0.9482421875,-0.263671875
139,0.01171875,-0.939453125,-0.2666015625
140,0.0107421875,-0.947265625,-0.263671875
141,0.009765625,-0.9443359375,-0.265625
142,0.0146484375,-0.947265625,-0.26171875
143,0.0126953125,-0.9462890625,-0.2607421875
144,0.0146484375,-0.9453125,-0.2626953125
145,0.0146484375,-0.939453125,-0.2646484375
146,0.0146484375,-0.943359375,-0.265625
147,0.013671875,-0.94140625,-0.2666015625
148,0.01171875,-0.9404296875,-0.2666015625
149,0.013671875,-0.94140625,-0.2666015625
150,0.0078125,-0.94140625,-0.2626953125
151,0.01171875,-0.94140625,-0.267578125
152,0.015625,-0.943359375,-0.26953125
153,0.0146484375,-0.943359375,-0.2607421875
154,0.013671875,-0.9462890625,-0.267578125
155,0.0107421875,-0.9453125,-0.2666015625
156,0.01171875,-0.943359375,-0.2646484375
157,0.0126953125,-0.9453125,-0.2666015625
158,0.009765625,-0.9453125,-0.2607421875
159,0.013671875,-0.943359375,-0.2646484375
160,0.013671875,-0.94140625,-0.26171875
161,0.0068359375,-0.94140625,-0.2666015625
162,0.013671875,-0.9462890625,-0.265625
163,0.01171875,-0.9404296875,-0.2685546875
164,0.0146484375,-0.9453125,-0.265625
165,0.0107421875,-0.947265625,-0.2646484375
166,0.0107421875,-0.9453125,-0.2607421875
167,0.0078125,-0.9384765625,-0.2626953125
168,0.013671875,-0.9453125,-0.263671875
169,0.0107421875,-0.947265625,-0.2626953125
170,0.0068359375,-0.9423828125,-0.263671875
171,0.0146484375,-0.9443359375,-0.2607421875
172,0.015625,-0.9384765625,-0.2666015625
173,0.0166015625,-0.9462890625,-0.263671875
174,0.0126953125,-0.94140625,-0.26171875
175,0.01171875,-0.9482421875,-0.259765625
176,0.0107421875,-0.9423828125,-0.259765625
177,0.015625,-0.94140625,-0.26171875
178,0.005859375,-0.9423828125,-0.2626953125
179,0.009765625,-0.9462890625,-0.2607421875
180,0.0078125,-0.9423828125,-0.26171875
181,0.009765625,-0.943359375,-0.263671875
182,0.0048828125,-0.9365234375,-0.259765625
183,0.0048828125,-0.9375,-0.259765625
184,0.0087890625,-0.9375,-0.2578125
185,0.0078125,-0.943359375,-0.2578125
186,0.00390625,-0.9423828125,-0.2607421875
187,0.0,-0.9443359375,-0.259765625
188,0.001953125,-0.9384765625,-0.265625
189,0.0009765625,-0.94140625,-0.2578125
190,0.0009765625,-0.943359375,-0.259765625
191,0.001953125,-0.9443359375,-0.26171875
192,0.0,-0.947265625,-0.26171875
193,0.0,-0.947265625,-0.2646484375
194,-0.0048828125,-0.947265625,-0.2646484375
195,0.0048828125,-0.939453125,-0.265625
196,0.0009765625,-0.9423828125,-0.2607421875
197,0.0029296875,-0.943359375,-0.2666015625
198,0.0087890625,-0.9345703125,-0.2626953125
199,0.0068359375,-0.94140625,-0.259765625
200,0.015625,-0.94140625,-0.263671875
201,0.01171875,-0.943359375,-0.2626953125
202,0.0107421875,-0.9423828125,-0.259765625
203,0.0146484375,-0.939453125,-0.2578125
204,0.01171875,-0.939453125,-0.2578125
205,0.01171875,-0.9404296875,-0.259765625
206,0.01171875,-0.935546875,-0.2529296875
207,0.009765625,-0.94140625,-0.25
208,0.0126953125,-0.943359375,-0.25
209,0.01171875,-0.9423828125,-0.251953125
210,0.001953125,-0.9453125,-0.25390625
211,0.0087890625,-0.9462890625,-0.2529296875
212,0.009765625,-0.9453125,-0.2568359375
213,0.0107421875,-0.951171875,-0.255859375
214,0.0087890625,-0.9453125,-0.2587890625
215,0.009765625,-0.9443359375,-0.2578125
216,0.005859375,-0.9443359375,-0.2568359375
217,0.009765625,-0.9453125,-0.2548828125
218,0.0048828125,-0.94921875,-0.255859375
219,0.005859375,-0.947265625,-0.2587890625
220,0.005859375,-0.9482421875,-0.2607421875
221,0.0009765625,-0.94921875,-0.2578125
222,0.0078125,-0.9462890625,-0.26171875
223,0.0029296875,-0.9453125,-0.2578125
224,0.005859375,-0.9501953125,-0.2578125
225,0.0078125,-0.9501953125,-0.2490234375
226,0.0087890625,-0.943359375,-0.2548828125
227,0.0107421875,-0.94921875,-0.25390625
228,0.009765625,-0.94921875,-0.2548828125
229,0.015625,-0.951171875,-0.2529296875
230,0.009765625,-0.951171875,-0.25
231,0.009765625,-0.9521484375,-0.2529296875
232,0.0107421875,-0.94921875,-0.251953125
233,0.015625,-0.9501953125,-0.255859375
234,0.005859375,-0.94921875,-0.2490234375
235,0.0078125,-0.943359375,-0.24609375
236,0.005859375,-0.9423828125,-0.2529296875
237,0.001953125,-0.94140625,-0.2578125
238,0.0087890625,-0.9404296875,-0.25
239,0.0048828125,-0.947265625,-0.2529296875
240,0.0048828125,-0.9453125,-0.248046875
241,0.005859375,-0.94140625,-0.251953125
242,0.009765625,-0.9384765625,-0.251953125
243,0.013671875,-0.943359375,-0.2548828125
244,0.0087890625,-0.9462890625,-0.2548828125
245,0.009765625,-0.9462890625,-0.255859375
246,0.01171875,-0.9462890625,-0.25390625
247,0.0146484375,-0.9453125,-0.2509765625
248,0.0107421875,-0.943359375,-0.25390625
249,0.0126953125,-0.9482421875,-0.2548828125
250,0.013671875,-0.9501953125,-0.2490234375
251,0.0107421875,-0.943359375,-0.25
252,0.01171875,-0.947265625,-0.2490234375
253,0.01171875,-0.9521484375,-0.251953125
254,0.009765625,-0.9453125,-0.2490234375
255,0.0087890625,-0.943359375,-0.248046875
256,0.0087890625,-0.943359375,-0.251953125
257,0.009765625,-0.9462890625,-0.244140625
258,0.0107421875,-0.9443359375,-0.24609375
259,0.0068359375,-0.94140625,-0.2451171875
260,0.0087890625,-0.939453125,-0.248046875
261,0.0068359375,-0.9453125,-0.2412109375
262,0.0126953125,-0.9453125,-0.24609375
263,0.013671875,-0.9482421875,-0.248046875
264,0.009765625,-0.9501953125,-0.24609375
265,0.0107421875,-0.9453125,-0.2431640625
266,0.009765625,-0.9453125,-0.2412109375
267,0.0126953125,-0.9443359375,-0.2509765625
268,0.01171875,-0.94921875,-0.2509765625
269,0.009765625,-0.947265625,-0.25
270,0.009765625,-0.9462890625,-0.24609375
271,0.0068359375,-0.9462890625,-0.2490234375
272,0.0078125,-0.9453125,-0.2490234375
273,-0.0009765625,-0.947265625,-0.24609375
274,0.0048828125,-0.94140625,-0.2451171875
275,0.001953125,-0.947265625,-0.24609375
276,0.00390625,-0.9462890625,-0.244140625
277,0.00390625,-0.9423828125,-0.2412109375
278,0.0048828125,-0.9423828125,-0.2451171875
279,0.0048828125,-0.94140625,-0.2353515625
280,0.0048828125,-0.9453125,-0.240234375
281,0.001953125,-0.939453125,-0.244140625
282,-0.0009765625,-0.9462890625,-0.2392578125
283,-0.0009765625,-0.9482421875,-0.23828125
284,0.00390625,-0.9501953125,-0.236328125
285,0.0048828125,-0.947265625,-0.2412109375
286,0.0009765625,-0.9501953125,-0.2392578125
287,-0.0009765625,-0.9541015625,-0.2314453125
288,-0.001953125,-0.9580078125,-0.236328125
289,0.0009765625,-0.9541015625,-0.236328125
290,0.001953125,-0.9501953125,-0.23828125
291,0.0,-0.951171875,-0.2373046875
292,0.0029296875,-0.94921875,-0.236328125
293,-0.0009765625,-0.9521484375,-0.236328125
294,-0.0048828125,-0.9453125,-0.232421875
295,-0.0029296875,-0.94921875,-0.234375
296,-0.0009765625,-0.943359375,-0.2373046875
297,-0.0029296875,-0.9453125,-0.23828125
298,-0.005859375,-0.9453125,-0.23828125
299,0.0009765625,-0.9453125,-0.23828125
300,0.0048828125,-0.9462890625,-0.23828125
301,0.00390625,-0.94921875,-0.2353515625
302,-0.001953125,-0.9501953125,-0.2333984375
303,0.0029296875,-0.9560546875,-0.236328125
304,0.0009765625,-0.9521484375,-0.236328125
305,0.001953125,-0.951171875,-0.2294921875
306,0.0009765625,-0.9462890625,-0.2333984375
307,-0.001953125,-0.9501953125,-0.232421875
308,0.0068359375,-0.9521484375,-0.2314453125
309,-0.00390625,-0.9453125,-0.23046875
310,0.0,-0.9482421875,-0.228515625
311,0.0,-0.94921875,-0.236328125
312,0.0,-0.9521484375,-0.23046875
313,-0.00390625,-0.9482421875,-0.234375
314,-0.0009765625,-0.951171875,-0.23046875
315,0.0009765625,-0.9501953125,-0.23046875
316,0.0048828125,-0.94921875,-0.232421875
317,-0.0009765625,-0.9453125,-0.23046875
318,0.00390625,-0.9453125,-0.2353515625
319,-0.001953125,-0.951171875,-0.232421875
320,-0.001953125,-0.9521484375,-0.232421875
321,0.0009765625,-0.951171875,-0.2294921875
322,0.00390625,-0.9482421875,-0.2275390625
323,0.001953125,-0.9521484375,-0.228515625
324,0.00390625,-0.9482421875,-0.234375
325,0.0087890625,-0.9482421875,-0.224609375
326,0.009765625,-0.94921875,-0.2294921875
327,0.0078125,-0.951171875,-0.2333984375
328,0.0087890625,-0.943359375,-0.2314453125
329,0.0126953125,-0.953125,-0.2294921875
330,0.001953125,-0.9453125,-0.2275390625
331,0.0009765625,-0.94921875,-0.2275390625
332,0.00390625,-0.9482421875,-0.2265625
333,-0.005859375,-0.9541015625,-0.228515625
334,0.0009765625,-0.9580078125,-0.2197265625
335,-0.005859375,-0.951171875,-0.23046875
336,0.0048828125,-0.9541015625,-0.23046875
337,0.0068359375,-0.9697265625,-0.2353515625
338,0.0048828125,-0.9912109375,-0.2255859375
339,0.0107421875,-0.970703125,-0.2265625
340,0.013671875,-0.9482421875,-0.2197265625
341,0.0048828125,-0.9287109375,-0.220703125
342,0.005859375,-0.9228515625,-0.2236328125
343,0.0,-0.923828125,-0.21875
344,0.001953125,-0.9443359375,-0.216796875
345,0.0048828125,-0.9482421875,-0.2236328125
346,0.0146484375,-0.9560546875,-0.2216796875
347,0.017578125,-0.953125,-0.228515625
348,0.02734375,-0.9580078125,-0.23046875
349,0.021484375,-0.9501953125,-0.2236328125
350,0.01953125,-0.953125,-0.2197265625
351,0.0146484375,-0.953125,-0.2197265625
352,0.0126953125,-0.9541015625,-0.2138671875
353,0.00390625,-0.958984375,-0.2158203125
354,0.001953125,-0.958984375,-0.224609375
355,-0.00390625,-0.9609375,-0.224609375
356,-0.0068359375,-0.951171875,-0.22265625
357,-0.005859375,-0.9375,-0.22265625
358,-0.0068359375,-0.939453125,-0.2236328125
359,-0.00390625,-0.93359375,-0.220703125
360,-0.00390625,-0.93359375,-0.2177734375
361,-0.005859375,-0.935546875,-0.21875
362,0.0009765625,-0.9404296875,-0.2265625
363,0.005859375,-0.947265625,-0.2265625
364,0.00390625,-0.953125,-0.2265625
365,0.00390625,-0.9521484375,-0.2275390625
366,0.0048828125,-0.958984375,-0.2255859375
367,0.0,-0.955078125,-0.2197265625
368,-0.0009765625,-0.95703125,-0.2275390625
369,0.0009765625,-0.955078125,-0.2236328125
370,-0.0029296875,-0.955078125,-0.228515625
371,0.0009765625,-0.955078125,-0.21875
372,-0.001953125,-0.9501953125,-0.2265625
373,0.0009765625,-0.9521484375,-0.220703125
374,0.0078125,-0.9560546875,-0.21875
375,0.0068359375,-0.9501953125,-0.2177734375
376,0.0068359375,-0.9453125,-0.21484375
377,0.00390625,-0.9482421875,-0.2138671875
378,0.005859375,-0.94921875,-0.21875
379,-0.0009765625,-0.94140625,-0.216796875
380,0.0,-0.9453125,-0.212890625
381,0.0029296875,-0.943359375,-0.216796875
382,-0.0068359375,-0.947265625,-0.2177734375
383,0.001953125,-0.94140625,-0.2177734375
384,-0.001953125,-0.94921875,-0.2138671875
385,-0.0029296875,-0.9482421875,-0.2158203125
386,0.0,-0.9501953125,-0.2177734375
387,-0.00390625,-0.9501953125,-0.21484375
388,0.005859375,-0.947265625,-0.2177734375
389,0.001953125,-0.9521484375,-0.220703125
390,0.00390625,-0.951171875,-0.2177734375
391,0.001953125,-0.9580078125,-0.220703125
392,0.0009765625,-0.95703125,-0.21875
393,-0.001953125,-0.9521484375,-0.224609375
394,0.0009765625,-0.9580078125,-0.2197265625
395,0.0029296875,-0.9521484375,-0.220703125
396,-0.001953125,-0.9580078125,-0.2255859375
397,-0.001953125,-0.947265625,-0.2236328125
398,0.00390625,-0.94921875,-0.228515625
399,0.0048828125,-0.9501953125,-0.23046875
400,-0.0009765625,-0.947265625,-0.224609375
401,0.0068359375,-0.9521484375,-0.2236328125
402,0.00390625,-0.9521484375,-0.2275390625
403,0.005859375,-0.953125,-0.23046875
404,0.005859375,-0.958984375,-0.2216796875
405,0.001953125,-0.9501953125,-0.224609375
406,0.0,-0.9609375,-0.2236328125
407,0.0087890625,-0.955078125,-0.2265625
408,0.005859375,-0.951171875,-0.2255859375
409,0.0087890625,-0.9501953125,-0.2265625
410,0.0068359375,-0.9453125,-0.22265625
411,0.005859375,-0.9482421875,-0.220703125
412,0.005859375,-0.9501953125,-0.2197265625
413,0.0029296875,-0.943359375,-0.2265625
414,0.0048828125,-0.951171875,-0.2216796875
415,0.00390625,-0.9462890625,-0.2216796875
416,0.001953125,-0.9521484375,-0.2275390625
417,0.0068359375,-0.9462890625,-0.2255859375
418,-0.0009765625,-0.9541015625,-0.2265625
419,0.001953125,-0.9521484375,-0.228515625
420,-0.0009765625,-0.955078125,-0.2265625
421,0.0,-0.96484375,-0.2216796875
422,0.0,-0.9482421875,-0.2216796875
423,0.001953125,-0.9521484375,-0.2255859375
424,0.005859375,-0.951171875,-0.2265625
425,0.005859375,-0.9541015625,-0.2265625
426,0.0048828125,-0.9482421875,-0.228515625
427,0.005859375,-0.951171875,-0.2265625
428,0.0068359375,-0.951171875,-0.23046875
429,0.0087890625,-0.9521484375,-0.2294921875
430,0.0087890625,-0.947265625,-0.2333984375
431,0.0126953125,-0.9482421875,-0.2333984375
432,0.009765625,-0.943359375,-0.2314453125
433,0.0048828125,-0.947265625,-0.2333984375
434,0.0048828125,-0.9453125,-0.2314453125
435,0.009765625,-0.943359375,-0.2333984375
436,0.0009765625,-0.947265625,-0.2373046875
437,0.0048828125,-0.947265625,-0.232421875
438,0.015625,-0.951171875,-0.236328125
439,0.0087890625,-0.9580078125,-0.2333984375
440,0.0087890625,-0.94921875,-0.2294921875
441,0.0078125,-0.951171875,-0.2333984375
442,0.00390625,-0.9462890625,-0.236328125
443,0.00390625,-0.9482421875,-0.2353515625
444,0.0,-0.9482421875,-0.234375
445,0.0,-0.9453125,-0.234375
446,0.005859375,-0.94921875,-0.240234375
447,0.005859375,-0.9462890625,-0.244140625
448,0.0078125,-0.94921875,-0.23828125
449,0.0078125,-0.9443359375,-0.2392578125
450,0.001953125,-0.9501953125,-0.2421875
451,0.0107421875,-0.947265625,-0.240234375
452,0.0078125,-0.9501953125,-0.2431640625
453,0.009765625,-0.953125,-0.2412109375
454,0.0078125,-0.9541015625,-0.2412109375
455,0.01171875,-0.9482421875,-0.2412109375
456,0.009765625,-0.951171875,-0.2392578125
457,0.013671875,-0.9521484375,-0.24609375
458,0.01171875,-0.943359375,-0.2373046875
459,0.01171875,-0.943359375,-0.2353515625
460,0.01171875,-0.947265625,-0.2333984375
461,0.01171875,-0.9462890625,-0.23828125
462,0.0107421875,-0.9443359375,-0.2373046875
463,0.015625,-0.94921875,-0.23828125
464,0.009765625,-0.951171875,-0.2470703125
465,0.0087890625,-0.94921875,-0.240234375
466,0.0087890625,-0.947265625,-0.2451171875
467,0.013671875,-0.947265625,-0.2509765625
468,0.009765625,-0.943359375,-0.248046875
469,0.0048828125,-0.9453125,-0.24609375
470,0.0078125,-0.947265625,-0.2412109375
471,0.0107421875,-0.9365234375,-0.2392578125
472,0.0087890625,-0.94140625,-0.2421875
473,0.0078125,-0.943359375,-0.240234375
474,0.005859375,-0.94140625,-0.244140625
475,0.0087890625,-0.9453125,-0.240234375
476,0.009765625,-0.943359375,-0.2451171875
477,0.0068359375,-0.94921875,-0.244140625
478,0.013671875,-0.947265625,-0.2412109375
479,0.0087890625,-0.9521484375,-0.251953125
480,0.005859375,-0.947265625,-0.2431640625
481,0.0009765625,-0.94921875,-0.24609375
482,0.0078125,-0.94921875,-0.2509765625
483,0.0107421875,-0.943359375,-0.25
484,0.009765625,-0.943359375,-0.251953125
485,0.0107421875,-0.94140625,-0.24609375
486,0.0078125,-0.94921875,-0.2509765625
487,0.01171875,-0.947265625,-0.24609375
488,0.01171875,-0.94921875,-0.251953125
489,0.0146484375,-0.9462890625,-0.2470703125
490,0.0078125,-0.947265625,-0.2431640625
491,0.0078125,-0.9482421875,-0.244140625
492,0.0029296875,-0.9462890625,-0.248046875
493,0.0087890625,-0.9443359375,-0.248046875
494,0.005859375,-0.9453125,-0.244140625
495,0.0048828125,-0.9462890625,-0.25
496,0.0078125,-0.9482421875,-0.25
497,0.0048828125,-0.947265625,-0.2490234375
498,0.0068359375,-0.943359375,-0.2451171875
499,0.0078125,-0.943359375,-0.2490234375
500,0.0048828125,-0.9404296875,-0.25
501,0.005859375,-0.9462890625,-0.248046875
502,0.0048828125,-0.9453125,-0.255859375
503,0.001953125,-0.9482421875,-0.2509765625
504,0.00390625,-0.943359375,-0.2490234375
505,0.00390625,-0.94921875,-0.255859375
506,0.0048828125,-0.9580078125,-0.2509765625
507,0.0029296875,-0.9482421875,-0.251953125
508,0.009765625,-0.94921875,-0.255859375
509,0.0087890625,-0.947265625,-0.2529296875
510,0.0107421875,-0.9462890625,-0.2509765625
511,0.0087890625,-0.9482421875,-0.2548828125
512,0.0068359375,-0.951171875,-0.255859375
513,0.0068359375,-0.947265625,-0.2529296875
514,0.0048828125,-0.9443359375,-0.2548828125
515,0.001953125,-0.9482421875,-0.2548828125
516,0.0068359375,-0.943359375,-0.255859375
517,0.0068359375,-0.9443359375,-0.25390625
518,0.0068359375,-0.939453125,-0.255859375
519,0.00390625,-0.9423828125,-0.2529296875
520,0.001953125,-0.9453125,-0.255859375
521,0.0078125,-0.94140625,-0.2587890625
522,0.0078125,-0.9443359375,-0.2548828125
523,0.0107421875,-0.943359375,-0.255859375
524,0.0087890625,-0.9404296875,-0.2548828125
525,0.005859375,-0.94140625,-0.2509765625
526,0.0087890625,-0.9453125,-0.2568359375
527,0.0087890625,-0.943359375,-0.2568359375
528,0.01171875,-0.9453125,-0.2626953125
529,0.0087890625,-0.9423828125,-0.26171875
530,0.01171875,-0.943359375,-0.2578125
531,0.0048828125,-0.951171875,-0.2578125
532,0.0078125,-0.943359375,-0.26171875
533,0.01171875,-0.9462890625,-0.259765625
534,0.0126953125,-0.943359375,-0.2587890625
535,0.0068359375,-0.947265625,-0.255859375
536,-0.0009765625,-0.9423828125,-0.255859375
537,0.0068359375,-0.94921875,-0.2578125
538,0.0068359375,-0.94140625,-0.2578125
539,0.009765625,-0.9462890625,-0.2607421875
540,0.00390625,-0.9384765625,-0.2578125
541,0.00390625,-0.9453125,-0.2666015625
542,0.0078125,-0.9404296875,-0.2587890625
543,0.0078125,-0.9375,-0.26171875
544,0.0107421875,-0.9306640625,-0.263671875
545,0.00390625,-0.9365234375,-0.2626953125
546,0.005859375,-0.9423828125,-0.263671875
547,0.0029296875,-0.943359375,-0.26171875
548,0.005859375,-0.9462890625,-0.2587890625
549,0.0068359375,-0.9443359375,-0.2626953125
550,0.0078125,-0.9423828125,-0.2626953125
551,0.0078125,-0.9423828125,-0.2626953125
552,0.0048828125,-0.943359375,-0.2607421875
553,0.0048828125,-0.9482421875,-0.2607421875
554,0.005859375,-0.951171875,-0.2587890625
555,0.01171875,-0.9521484375,-0.259765625
556,0.0068359375,-0.9453125,-0.2578125
557,0.0009765625,-0.9462890625,-0.26171875
558,0.00390625,-0.947265625,-0.263671875
559,0.001953125,-0.9501953125,-0.2607421875
560,0.005859375,-0.943359375,-0.2607421875
561,0.0029296875,-0.939453125,-0.259765625
562,0.0087890625,-0.9384765625,-0.263671875
563,0.0078125,-0.9365234375,-0.26171875
564,0.0146484375,-0.93359375,-0.259765625
565,0.01171875,-0.935546875,-0.26171875
566,0.0146484375,-0.935546875,-0.2685546875
567,0.015625,-0.9375,-0.2646484375
568,0.0166015625,-0.935546875,-0.2666015625
569,0.0107421875,-0.9384765625,-0.263671875
570,0.0078125,-0.94140625,-0.2626953125
571,0.0068359375,-0.9384765625,-0.2646484375
572,0.0107421875,-0.9423828125,-0.2666015625
573,0.0078125,-0.9423828125,-0.2646484375
574,0.0126953125,-0.9404296875,-0.2646484375
575,0.0078125,-0.9453125,-0.267578125
576,0.013671875,-0.9423828125,-0.26953125
577,0.0087890625,-0.9462890625,-0.267578125
578,0.0126953125,-0.94140625,-0.2666015625
579,0.009765625,-0.943359375,-0.2705078125
580,0.0126953125,-0.9423828125,-0.271484375
581,0.013671875,-0.943359375,-0.271484375
582,0.013671875,-0.9384765625,-0.267578125
583,0.013671875,-0.9453125,-0.2705078125
584,0.01171875,-0.943359375,-0.26953125
585,0.0107421875,-0.943359375,-0.26953125
586,0.0078125,-0.9443359375,-0.2734375
587,0.0068359375,-0.94140625,-0.26953125
588,0.009765625,-0.9462890625,-0.2724609375
589,0.01171875,-0.947265625,-0.2685546875
590,0.015625,-0.947265625,-0.267578125
591,0.0146484375,-0.94140625,-0.2685546875
592,0.01171875,-0.9375,-0.2646484375
593,0.0087890625,-0.9423828125,-0.263671875
594,0.01171875,-0.943359375,-0.263671875
595,0.009765625,-0.9443359375,-0.2607421875
596,0.0078125,-0.939453125,-0.265625
597,0.0078125,-0.935546875,-0.2763671875
598,0.0087890625,-0.9423828125,-0.265625
599,0.0048828125,-0.935546875,-0.263671875
600,0.0107421875,-0.939453125,-0.2705078125
601,0.0068359375,-0.9384765625,-0.2685546875
602,0.009765625,-0.9404296875,-0.2646484375
603,0.01171875,-0.9453125,-0.2607421875
604,0.01171875,-0.939453125,-0.267578125
605,0.017578125,-0.9453125,-0.2705078125
606,0.0126953125,-0.94140625,-0.265625
607,0.0166015625,-0.943359375,-0.267578125
608,0.0107421875,-0.9453125,-0.2666015625
609,0.009765625,-0.9423828125,-0.26171875
610,0.013671875,-0.9365234375,-0.267578125
611,0.0078125,-0.943359375,-0.26953125
612,0.013671875,-0.94140625,-0.267578125
613,0.0078125,-0.9404296875,-0.2646484375
614,0.0126953125,-0.943359375,-0.2666015625
615,0.0107421875,-0.9384765625,-0.2607421875
616,0.0087890625,-0.9423828125,-0.259765625
617,0.009765625,-0.94140625,-0.2646484375
618,0.005859375,-0.9384765625,-0.271484375
619,0.009765625,-0.9462890625,-0.265625
620,0.015625,-0.94140625,-0.2626953125
621,0.0185546875,-0.9453125,-0.2666015625
622,0.0087890625,-0.94140625,-0.26171875
623,0.01171875,-0.9453125,-0.2646484375
624,0.0087890625,-0.9453125,-0.26171875
625,0.0126953125,-0.9453125,-0.26953125
626,0.0166015625,-0.947265625,-0.265625
627,0.013671875,-0.939453125,-0.2626953125
628,0.0078125,-0.94140625,-0.259765625
629,0.0087890625,-0.9453125,-0.2626953125
630,0.0087890625,-0.939453125,-0.267578125
631,0.0107421875,-0.9384765625,-0.26171875
632,0.0087890625,-0.9453125,-0.2646484375
633,0.0126953125,-0.9453125,-0.2666015625
634,0.009765625,-0.94140625,-0.2646484375
635,0.0078125,-0.9453125,-0.259765625
636,0.015625,-0.9404296875,-0.263671875
637,0.009765625,-0.9423828125,-0.2646484375
638,0.0087890625,-0.943359375,-0.263671875
639,0.009765625,-0.9482421875,-0.2626953125
640,0.0126953125,-0.939453125,-0.2646484375
641,0.013671875,-0.943359375,-0.2666015625
642,0.0087890625,-0.943359375,-0.2646484375
643,0.0126953125,-0.9453125,-0.2626953125
644,0.0107421875,-0.9423828125,-0.2607421875
645,0.0107421875,-0.9453125,-0.2626953125
646,0.01171875,-0.943359375,-0.26171875
647,0.0068359375,-0.94140625,-0.2626953125
648,0.0068359375,-0.9462890625,-0.2626953125
649,0.009765625,-0.9423828125,-0.2607421875
650,0.0029296875,-0.947265625,-0.26171875
651,0.0068359375,-0.9404296875,-0.267578125
652,0.0068359375,-0.9453125,-0.2626953125
653,0.005859375,-0.9453125,-0.2607421875
654,0.0068359375,-0.9423828125,-0.2666015625
655,0.0078125,-0.9453125,-0.2646484375
656,0.0078125,-0.943359375,-0.26171875
657,0.005859375,-0.9482421875,-0.2646484375
658,0.0087890625,-0.9423828125,-0.2626953125
659,0.0087890625,-0.9482421875,-0.259765625
660,0.0107421875,-0.9423828125,-0.26171875
661,0.0107421875,-0.943359375,-0.2626953125
662,0.0087890625,-0.94140625,-0.265625
663,0.0068359375,-0.9375,-0.2607421875
664,0.00390625,-0.9404296875,-0.26171875
665,0.0078125,-0.9345703125,-0.2646484375
666,0.0078125,-0.9384765625,-0.263671875
667,0.01171875,-0.935546875,-0.26171875
668,0.0107421875,-0.9423828125,-0.2578125
669,0.0107421875,-0.9443359375,-0.2607421875
670,0.0048828125,-0.947265625,-0.2607421875
671,0.0068359375,-0.94140625,-0.2587890625
672,0.0087890625,-0.943359375,-0.2607421875
673,0.005859375,-0.9443359375,-0.2626953125
674,0.0078125,-0.9375,-0.2607421875
675,0.005859375,-0.9384765625,-0.2607421875
676,0.0029296875,-0.9365234375,-0.2646484375
677,0.009765625,-0.9453125,-0.259765625
678,0.005859375,-0.94921875,-0.259765625
679,0.0068359375,-0.94921875,-0.26171875
680,0.0087890625,-0.94921875,-0.2646484375
681,0.0087890625,-0.9423828125,-0.26171875
682,0.001953125,-0.9375,-0.2587890625
683,0.005859375,-0.939453125,-0.2578125
684,0.005859375,-0.9365234375,-0.2548828125
685,0.0068359375,-0.93359375,-0.2568359375
686,0.009765625,-0.935546875,-0.25390625
687,0.005859375,-0.935546875,-0.2587890625
688,0.0048828125,-0.9423828125,-0.2587890625
689,0.0087890625,-0.9453125,-0.2587890625
690,0.009765625,-0.94140625,-0.259765625
691,0.0087890625,-0.947265625,-0.255859375
692,0.013671875,-0.9482421875,-0.259765625
693,0.0087890625,-0.951171875,-0.2587890625
694,0.01171875,-0.9482421875,-0.255859375
695,0.013671875,-0.943359375,-0.2578125
696,0.01171875,-0.943359375,-0.255859375
697,0.0068359375,-0.939453125,-0.2587890625
698,0.013671875,-0.9375,-0.2548828125
699,0.0078125,-0.9375,-0.2568359375
700,0.0087890625,-0.9375,-0.2548828125
701,0.005859375,-0.943359375,-0.2548828125
702,0.015625,-0.939453125,-0.25390625
703,0.0087890625,-0.94140625,-0.255859375
704,0.0126953125,-0.947265625,-0.2578125
705,0.0078125,-0.9404296875,-0.2490234375
706,0.0166015625,-0.9521484375,-0.2548828125
707,0.005859375,-0.94921875,-0.25
708,0.013671875,-0.939453125,-0.25
709,0.009765625,-0.9423828125,-0.25390625
710,0.005859375,-0.94140625,-0.2548828125
711,0.0126953125,-0.939453125,-0.25390625
712,0.0087890625,-0.947265625,-0.25390625
713,0.009765625,-0.9443359375,-0.2509765625
714,0.0087890625,-0.9384765625,-0.25390625
715,0.0107421875,-0.943359375,-0.2509765625
716,0.0068359375,-0.9521484375,-0.25
717,0.0107421875,-0.951171875,-0.2490234375
718,0.0078125,-0.9541015625,-0.2490234375
719,0.005859375,-0.951171875,-0.2509765625
720,0.0078125,-0.9560546875,-0.2490234375
721,0.0087890625,-0.95703125,-0.2509765625
722,0.0087890625,-0.951171875,-0.2509765625
723,0.0029296875,-0.94921875,-0.2548828125
724,0.0078125,-0.94921875,-0.251953125
725,0.0078125,-0.947265625,-0.251953125
726,0.0068359375,-0.947265625,-0.2470703125
727,0.01171875,-0.94921875,-0.248046875
728,0.0078125,-0.943359375,-0.25
729,0.0087890625,-0.9443359375,-0.2451171875
730,0.009765625,-0.94140625,-0.25
731,0.013671875,-0.9423828125,-0.2490234375
732,0.009765625,-0.947265625,-0.2470703125
733,0.009765625,-0.943359375,-0.2392578125
734,0.0107421875,-0.9462890625,-0.2431640625
735,0.0107421875,-0.943359375,-0.240234375
736,0.0107421875,-0.9482421875,-0.2421875
737,0.0087890625,-0.9482421875,-0.2392578125
738,0.0068359375,-0.9462890625,-0.2333984375
739,0.005859375,-0.9501953125,-0.2412109375
740,0.0048828125,-0.947265625,-0.2373046875
741,0.0029296875,-0.9462890625,-0.2412109375
742,0.0,-0.9423828125,-0.2431640625
743,0.0078125,-0.9482421875,-0.2412109375
744,0.00390625,-0.94921875,-0.23828125
745,0.0107421875,-0.9501953125,-0.2451171875
746,0.0048828125,-0.94921875,-0.2392578125
747,0.0068359375,-0.9482421875,-0.236328125
748,0.01171875,-0.9443359375,-0.2451171875
749,0.0078125,-0.953125,-0.236328125
750,0.0068359375,-0.9453125,-0.2392578125
751,0.0068359375,-0.9423828125,-0.240234375
752,0.005859375,-0.9501953125,-0.2412109375
753,0.0078125,-0.9482421875,-0.2412109375
754,0.01171875,-0.947265625,-0.2412109375
755,0.009765625,-0.9462890625,-0.2421875
756,0.00390625,-0.951171875,-0.2412109375
757,0.0048828125,-0.9521484375,-0.2431640625
758,0.0078125,-0.953125,-0.24609375
759,0.00390625,-0.9501953125,-0.24609375
760,0.005859375,-0.95703125,-0.2392578125
761,0.005859375,-0.9462890625,-0.240234375
762,0.0068359375,-0.9521484375,-0.2392578125
763,0.0048828125,-0.953125,-0.244140625
764,0.0068359375,-0.9521484375,-0.24609375
765,0.0048828125,-0.947265625,-0.236328125
766,0.00390625,-0.9443359375,-0.23828125
767,0.0009765625,-0.9462890625,-0.23828125
768,0.0,-0.947265625,-0.2392578125
769,0.00390625,-0.9482421875,-0.2421875
770,0.00390625,-0.9462890625,-0.2373046875
771,0.0009765625,-0.9501953125,-0.2373046875
772,0.0009765625,-0.9501953125,-0.2392578125
773,-0.001953125,-0.9453125,-0.2353515625
774,-0.0009765625,-0.9453125,-0.234375
775,-0.0009765625,-0.947265625,-0.2431640625
776,-0.0029296875,-0.94921875,-0.2373046875
777,-0.001953125,-0.94921875,-0.2373046875
778,-0.0029296875,-0.94921875,-0.2373046875
779,-0.001953125,-0.9482421875,-0.2314453125
780,0.0009765625,-0.94921875,-0.2373046875
781,-0.0009765625,-0.9443359375,-0.234375
782,0.0068359375,-0.9482421875,-0.2353515625
783,0.0,-0.951171875,-0.2373046875
784,0.0009765625,-0.9423828125,-0.236328125
785,-0.001953125,-0.9501953125,-0.2314453125
786,-0.001953125,-0.9462890625,-0.2392578125
787,-0.0009765625,-0.9462890625,-0.240234375
788,0.0009765625,-0.9482421875,-0.236328125
789,0.0009765625,-0.951171875,-0.2431640625
790,0.001953125,-0.94921875,-0.2353515625
791,0.0,-0.943359375,-0.23828125
792,0.0,-0.9443359375,-0.2373046875
793,0.0048828125,-0.947265625,-0.2314453125
794,-0.0009765625,-0.9482421875,-0.234375
795,0.0048828125,-0.94921875,-0.2333984375
796,0.00390625,-0.947265625,-0.2333984375
797,0.00390625,-0.94921875,-0.228515625
798,0.005859375,-0.947265625,-0.2314453125
799,0.0009765625,-0.94921875,-0.2392578125
800,0.001953125,-0.953125,-0.2333984375
801,0.00390625,-0.9462890625,-0.2353515625
802,0.001953125,-0.947265625,-0.2333984375
803,-0.0009765625,-0.9453125,-0.2294921875
804,0.0,-0.94921875,-0.2353515625
805,0.0009765625,-0.9482421875,-0.236328125
806,0.00390625,-0.947265625,-0.236328125
807,0.001953125,-0.9453125,-0.2353515625
808,0.0,-0.9501953125,-0.2353515625
809,0.0009765625,-0.9521484375,-0.2353515625
810,0.0,-0.9482421875,-0.232421875
811,-0.0029296875,-0.9443359375,-0.2333984375
812,-0.001953125,-0.947265625,-0.2314453125
813,-0.001953125,-0.9521484375,-0.23046875
814,-0.0029296875,-0.9453125,-0.234375
815,-0.0048828125,-0.951171875,-0.234375
816,0.0048828125,-0.9423828125,-0.232421875
817,0.0009765625,-0.939453125,-0.2255859375
818,0.001953125,-0.9482421875,-0.2275390625
819,0.0,-0.953125,-0.2255859375
820,0.00390625,-0.94921875,-0.2255859375
821,0.001953125,-0.9521484375,-0.2333984375
822,-0.0029296875,-0.947265625,-0.2294921875
823,0.0009765625,-0.9482421875,-0.2275390625
824,-0.001953125,-0.94921875,-0.2333984375
825,0.00390625,-0.9521484375,-0.2314453125
826,0.001953125,-0.9521484375,-0.232421875
827,0.0,-0.951171875,-0.2314453125
828,0.0068359375,-0.947265625,-0.232421875
829,0.005859375,-0.951171875,-0.2265625
830,0.0078125,-0.953125,-0.2265625
831,0.00390625,-0.9521484375,-0.232421875
832,0.0087890625,-0.9521484375,-0.228515625
833,0.0048828125,-0.9501953125,-0.2314453125
834,0.009765625,-0.9501953125,-0.232421875
835,0.0078125,-0.94921875,-0.232421875
836,0.0078125,-0.9453125,-0.23046875
837,0.0087890625,-0.939453125,-0.2294921875
838,0.0107421875,-0.943359375,-0.2255859375
839,0.0087890625,-0.94140625,-0.2294921875
840,0.0048828125,-0.9462890625,-0.23046875
841,0.0068359375,-0.9501953125,-0.2294921875
842,0.0078125,-0.94921875,-0.23046875
843,0.001953125,-0.9501953125,-0.2255859375
844,0.001953125,-0.951171875,-0.2236328125
845,0.00390625,-0.9453125,-0.21875
846,0.01171875,-0.9501953125,-0.2197265625
847,0.0009765625,-0.9501953125,-0.2197265625
848,0.0068359375,-0.947265625,-0.220703125
849,-0.0029296875,-0.9482421875,-0.2236328125
850,0.0,-0.9453125,-0.2216796875
851,0.0009765625,-0.94140625,-0.22265625
852,0.00390625,-0.9482421875,-0.2216796875
853,0.001953125,-0.9501953125,-0.224609375
854,0.0048828125,-0.943359375,-0.2236328125
855,0.005859375,-0.947265625,-0.2216796875
856,0.0068359375,-0.9501953125,-0.2216796875
857,0.005859375,-0.9501953125,-0.220703125
858,-0.001953125,-0.9453125,-0.2294921875
859,0.0087890625,-0.9541015625,-0.216796875
860,0.001953125,-0.9462890625,-0.2314453125
861,0.0,-0.94921875,-0.224609375
862,-0.001953125,-0.9482421875,-0.2275390625
863,0.001953125,-0.9541015625,-0.220703125
864,0.0048828125,-0.94921875,-0.2197265625
865,0.0009765625,-0.951171875,-0.2236328125
866,-0.0009765625,-0.951171875,-0.2275390625
867,-0.0009765625,-0.951171875,-0.2275390625
868,-0.0009765625,-0.9501953125,-0.224609375
869,-0.005859375,-0.9482421875,-0.2216796875
870,-0.0029296875,-0.943359375,-0.2294921875
871,0.0,-0.9462890625,-0.2275390625
872,-0.0029296875,-0.9462890625,-0.2255859375
873,-0.0009765625,-0.94921875,-0.228515625
874,-0.001953125,-0.9501953125,-0.228515625
875,0.0,-0.947265625,-0.2216796875
876,-0.0009765625,-0.951171875,-0.2236328125
877,0.001953125,-0.9462890625,-0.22265625
878,0.00390625,-0.94921875,-0.224609375
879,0.0068359375,-0.9462890625,-0.2275390625
880,0.00390625,-0.9482421875,-0.228515625
881,0.0107421875,-0.9541015625,-0.2294921875
882,0.0029296875,-0.951171875,-0.2314453125
883,0.0068359375,-0.9541015625,-0.2314453125
884,0.013671875,-0.951171875,-0.2333984375
885,0.01171875,-0.951171875,-0.232421875
886,0.01171875,-0.94921875,-0.2314453125
887,0.009765625,-0.953125,-0.2265625
888,0.0078125,-0.958984375,-0.228515625
889,0.0068359375,-0.947265625,-0.2314453125
890,0.005859375,-0.9501953125,-0.2314453125
891,0.005859375,-0.94921875,-0.234375
892,0.005859375,-0.9404296875,-0.232421875
893,0.0048828125,-0.9462890625,-0.234375
894,0.0009765625,-0.9462890625,-0.232421875
895,0.001953125,-0.94140625,-0.240234375
896,0.0048828125,-0.9443359375,-0.23828125
897,0.0048828125,-0.9462890625,-0.2373046875
898,0.009765625,-0.9453125,-0.240234375
899,0.013671875,-0.939453125,-0.2421875
900,0.0126953125,-0.9384765625,-0.23828125
901,0.0087890625,-0.9423828125,-0.2451171875
902,0.01171875,-0.94140625,-0.2392578125
903,0.009765625,-0.9375,-0.23828125
904,0.0087890625,-0.939453125,-0.244140625
905,0.0107421875,-0.9365234375,-0.2431640625
906,0.0048828125,-0.9404296875,-0.240234375
907,0.0078125,-0.93359375,-0.2431640625
908,0.0029296875,-0.9345703125,-0.244140625
909,0.001953125,-0.935546875,-0.2451171875
910,0.005859375,-0.935546875,-0.2470703125
911,0.0009765625,-0.9453125,-0.2529296875
912,-0.0009765625,-0.9423828125,-0.2470703125
913,0.00390625,-0.9453125,-0.24609375
914,-0.0009765625,-0.951171875,-0.25390625
915,-0.0078125,-0.9423828125,-0.251953125
916,-0.005859375,-0.9501953125,-0.255859375
917,-0.001953125,-0.9423828125,-0.259765625
918,-0.0068359375,-0.9384765625,-0.255859375
919,-0.0087890625,-0.9453125,-0.2578125
920,-0.01171875,-0.9482421875,-0.2587890625
921,-0.00390625,-0.943359375,-0.2607421875
922,-0.0048828125,-0.9501953125,-0.26171875
923,-0.001953125,-0.9453125,-0.26171875
924,-0.001953125,-0.943359375,-0.2646484375
925,-0.005859375,-0.9453125,-0.26171875
926,-0.005859375,-0.939453125,-0.263671875
927,-0.00390625,-0.94140625,-0.2626953125
928,-0.0087890625,-0.935546875,-0.263671875
929,-0.0068359375,-0.939453125,-0.2626953125
930,-0.0068359375,-0.9345703125,-0.2626953125
931,-0.00390625,-0.9326171875,-0.2607421875
932,-0.0078125,-0.9345703125,-0.2646484375
933,-0.0029296875,-0.9365234375,-0.26171875
934,-0.0048828125,-0.9306640625,-0.26171875
935,-0.00390625,-0.935546875,-0.259765625
936,-0.0029296875,-0.9404296875,-0.2646484375
937,-0.005859375,-0.939453125,-0.2607421875
938,-0.0068359375,-0.9462890625,-0.267578125
939,-0.005859375,-0.9482421875,-0.26171875
940,-0.005859375,-0.951171875,-0.2646484375
941,-0.0078125,-0.951171875,-0.2666015625
942,-0.0087890625,-0.94921875,-0.2626953125
943,-0.0087890625,-0.94921875,-0.2626953125
944,-0.0107421875,-0.951171875,-0.2578125
945,-0.0068359375,-0.9453125,-0.263671875
946,-0.0087890625,-0.9443359375,-0.2646484375
947,-0.0146484375,-0.9453125,-0.263671875
948,-0.0068359375,-0.9443359375,-0.267578125
949,-0.00390625,-0.9384765625,-0.267578125
950,0.001953125,-0.9404296875,-0.2734375
951,0.00390625,-0.931640625,-0.2744140625
952,0.0087890625,-0.9326171875,-0.2744140625
953,0.0126953125,-0.9287109375,-0.2705078125
954,0.0185546875,-0.92578125,-0.2802734375
955,0.0234375,-0.916015625,-0.2841796875
956,0.0205078125,-0.9140625,-0.2880859375
957,0.03125,-0.908203125,-0.28515625
958,0.029296875,-0.9140625,-0.294921875
959,0.0283203125,-0.904296875,-0.291015625
960,0.0263671875,-0.904296875,-0.2978515625
961,0.02734375,-0.9033203125,-0.3037109375
962,0.021484375,-0.9091796875,-0.3056640625
963,0.021484375,-0.9091796875,-0.3056640625
964,0.0166015625,-0.9150390625,-0.3046875
965,0.0166015625,-0.919921875,-0.30859375
966,0.009765625,-0.9228515625,-0.3095703125
967,0.001953125,-0.91796875,-0.31640625
968,-0.00390625,-0.91015625,-0.3212890625
969,-0.001953125,-0.908203125,-0.3291015625
970,-0.001953125,-0.9111328125,-0.3330078125
971,0.0048828125,-0.916015625,-0.33203125
972,0.0068359375,-0.9169921875,-0.3310546875
973,0.015625,-0.908203125,-0.326171875
974,0.0107421875,-0.9111328125,-0.3251953125
975,0.0146484375,-0.90625,-0.32421875
976,0.017578125,-0.912109375,-0.3359375
977,0.0185546875,-0.904296875,-0.3427734375
978,0.0234375,-0.8935546875,-0.3408203125
979,0.029296875,-0.8916015625,-0.3505859375
980,0.025390625,-0.8955078125,-0.349609375
981,0.0166015625,-0.888671875,-0.3525390625
982,0.013671875,-0.88671875,-0.3642578125
983,0.0068359375,-0.8828125,-0.3701171875
984,0.0087890625,-0.869140625,-0.3818359375
985,0.0068359375,-0.8662109375,-0.3876953125
986,0.00390625,-0.865234375,-0.3935546875
987,0.00390625,-0.8671875,-0.396484375
988,0.00390625,-0.869140625,-0.40234375
989,0.0087890625,-0.8701171875,-0.3935546875
990,0.0107421875,-0.8662109375,-0.4033203125
991,0.0,-0.8662109375,-0.3935546875
992,-0.0009765625,-0.86328125,-0.38671875
993,-0.00390625,-0.8583984375,-0.40234375
994,-0.0087890625,-0.8583984375,-0.4052734375
995,-0.0078125,-0.8564453125,-0.4111328125
996,-0.0107421875,-0.849609375,-0.4111328125
997,-0.0087890625,-0.8447265625,-0.408203125
998,0.0,-0.84375,-0.404296875
999,0.0009765625,-0.8408203125,-0.41015625
1000,0.001953125,-0.84765625,-0.4091796875
1001,0.00390625,-0.8486328125,-0.4033203125
1002,0.005859375,-0.84765625,-0.408203125
1003,0.005859375,-0.849609375,-0.41015625
1004,0.005859375,-0.853515625,-0.41796875
1005,0.00390625,-0.849609375,-0.4296875
1006,0.00390625,-0.8447265625,-0.4365234375
1007,0.009765625,-0.8369140625,-0.4443359375
1008,0.0009765625,-0.8369140625,-0.44921875
1009,-0.0009765625,-0.8232421875,-0.443359375
1010,0.0087890625,-0.81640625,-0.4482421875
1011,0.0087890625,-0.8251953125,-0.439453125
1012,0.01171875,-0.826171875,-0.4404296875
1013,0.0185546875,-0.82421875,-0.4443359375
1014,0.01953125,-0.826171875,-0.4482421875
1015,0.0185546875,-0.828125,-0.4462890625
1016,0.017578125,-0.833984375,-0.44140625
1017,0.015625,-0.837890625,-0.4443359375
1018,0.017578125,-0.8369140625,-0.447265625
1019,0.025390625,-0.8349609375,-0.4619140625
1020,0.0283203125,-0.8291015625,-0.4638671875
1021,0.03125,-0.822265625,-0.4775390625
1022,0.037109375,-0.8125,-0.4814453125
1023,0.04296875,-0.7939453125,-0.486328125
1024,0.0517578125,-0.791015625,-0.4814453125
1025,0.0556640625,-0.77734375,-0.4736328125
1026,0.0625,-0.76171875,-0.47265625
1027,0.05078125,-0.75,-0.47265625
1028,0.05078125,-0.740234375,-0.470703125
1029,0.0498046875,-0.734375,-0.474609375
1030,0.05078125,-0.7314453125,-0.46484375
1031,0.046875,-0.732421875,-0.4638671875
1032,0.044921875,-0.73828125,-0.453125
1033,0.048828125,-0.7412109375,-0.44921875
1034,0.0419921875,-0.75,-0.453125
1035,0.0390625,-0.7587890625,-0.462890625
1036,0.0322265625,-0.759765625,-0.4697265625
1037,0.0302734375,-0.7744140625,-0.4775390625
1038,0.0283203125,-0.779296875,-0.4921875
1039,0.0341796875,-0.7841796875,-0.494140625
1040,0.029296875,-0.802734375,-0.498046875
1041,0.0087890625,-0.8115234375,-0.4970703125
1042,0.005859375,-0.8095703125,-0.4970703125
1043,-0.009765625,-0.796875,-0.494140625
1044,-0.01171875,-0.7900390625,-0.4990234375
1045,-0.0185546875,-0.7822265625,-0.5009765625
1046,-0.0166015625,-0.7734375,-0.5
1047,-0.01953125,-0.7626953125,-0.5078125
1048,-0.01953125,-0.74609375,-0.5078125
1049,-0.0205078125,-0.748046875,-0.515625
1050,-0.0146484375,-0.7509765625,-0.53515625
1051,-0.013671875,-0.7568359375,-0.53515625
1052,-0.0078125,-0.7578125,-0.5341796875
1053,-0.0048828125,-0.775390625,-0.533203125
1054,-0.0009765625,-0.787109375,-0.537109375
1055,0.001953125,-0.80078125,-0.54296875
1056,0.0009765625,-0.8173828125,-0.546875
1057,-0.0009765625,-0.8330078125,-0.5458984375
1058,0.0048828125,-0.845703125,-0.552734375
1059,0.0087890625,-0.845703125,-0.5576171875
1060,0.0068359375,-0.8486328125,-0.5751953125
1061,0.009765625,-0.8466796875,-0.5869140625
1062,0.017578125,-0.8330078125,-0.5908203125
1063,0.0244140625,-0.8232421875,-0.59375
1064,0.03515625,-0.8046875,-0.5947265625
1065,0.0458984375,-0.7841796875,-0.6015625
1066,0.056640625,-0.76171875,-0.595703125
1067,0.078125,-0.7431640625,-0.591796875
1068,0.0869140625,-0.7509765625,-0.5849609375
1069,0.099609375,-0.744140625,-0.5703125
1070,0.1064453125,-0.763671875,-0.556640625
1071,0.1044921875,-0.7763671875,-0.533203125
1072,0.109375,-0.7763671875,-0.537109375
1073,0.1103515625,-0.7861328125,-0.53515625
1074,0.0888671875,-0.794921875,-0.533203125
1075,0.080078125,-0.80078125,-0.5517578125
1076,0.08203125,-0.810546875,-0.5830078125
1077,0.0751953125,-0.8134765625,-0.61328125
1078,0.0732421875,-0.818359375,-0.634765625
1079,0.0791015625,-0.81640625,-0.66796875
1080,0.0703125,-0.8115234375,-0.6806640625
1081,0.0615234375,-0.8251953125,-0.68359375
1082,0.0400390625,-0.818359375,-0.6806640625
1083,0.03515625,-0.8134765625,-0.6728515625
1084,0.046875,-0.80078125,-0.669921875
1085,0.0732421875,-0.80078125,-0.666015625
1086,0.078125,-0.7841796875,-0.650390625
1087,0.1005859375,-0.79296875,-0.6669921875
1088,0.1025390625,-0.7900390625,-0.65234375
1089,0.1123046875,-0.7919921875,-0.65625
1090,0.1083984375,-0.80078125,-0.67578125
1091,0.1103515625,-0.78125,-0.66796875
1092,0.1201171875,-0.783203125,-0.681640625
1093,0.111328125,-0.771484375,-0.6787109375
1094,0.119140625,-0.7685546875,-0.6875
1095,0.125,-0.76171875,-0.693359375
1096,0.1318359375,-0.7548828125,-0.6982421875
1097,0.1318359375,-0.7412109375,-0.689453125
1098,0.12890625,-0.74609375,-0.6982421875
1099,0.130859375,-0.74609375,-0.70703125
1100,0.1279296875,-0.765625,-0.720703125
1101,0.1201171875,-0.736328125,-0.7138671875
1102,0.125,-0.734375,-0.7119140625
1103,0.12890625,-0.73046875,-0.7109375
1104,0.1240234375,-0.720703125,-0.701171875
1105,0.1201171875,-0.7255859375,-0.703125
1106,0.111328125,-0.716796875,-0.7041015625
1107,0.10546875,-0.703125,-0.70703125
1108,0.1015625,-0.6962890625,-0.71484375
1109,0.09765625,-0.6865234375,-0.720703125
1110,0.099609375,-0.6767578125,-0.7236328125
1111,0.1015625,-0.681640625,-0.7333984375
1112,0.11328125,-0.685546875,-0.7392578125
1113,0.1044921875,-0.685546875,-0.7392578125
1114,0.1064453125,-0.6923828125,-0.7421875
1115,0.1025390625,-0.6943359375,-0.740234375
1116,0.1123046875,-0.662109375,-0.7255859375
1117,0.1005859375,-0.6962890625,-0.7373046875
1118,0.0859375,-0.703125,-0.734375
1119,0.09375,-0.6943359375,-0.7421875
1120,0.0927734375,-0.6806640625,-0.751953125
1121,0.09765625,-0.6748046875,-0.75390625
1122,0.1162109375,-0.6748046875,-0.7705078125
1123,0.1123046875,-0.677734375,-0.7724609375
1124,0.1044921875,-0.67578125,-0.7734375
1125,0.1103515625,-0.6728515625,-0.7861328125
1126,0.126953125,-0.732421875,-0.7900390625
1127,0.107421875,-0.646484375,-0.7900390625
1128,0.126953125,-0.6572265625,-0.8037109375
1129,0.1162109375,-0.6533203125,-0.80078125
1130,0.1279296875,-0.642578125,-0.802734375
1131,0.12109375,-0.638671875,-0.796875
1132,0.1201171875,-0.63671875,-0.8056640625
1133,0.1240234375,-0.640625,-0.7978515625
1134,0.1171875,-0.6337890625,-0.794921875
1135,0.126953125,-0.62109375,-0.7783203125
1136,0.134765625,-0.6337890625,-0.7783203125
1137,0.1357421875,-0.634765625,-0.76171875
1138,0.140625,-0.638671875,-0.76171875
1139,0.14453125,-0.646484375,-0.7607421875
1140,0.1357421875,-0.6494140625,-0.7646484375
1141,0.1318359375,-0.6494140625,-0.775390625
1142,0.1318359375,-0.6572265625,-0.798828125
1143,0.1279296875,-0.6533203125,-0.80859375
1144,0.1259765625,-0.65625,-0.8310546875
1145,0.1474609375,-0.6591796875,-0.84765625
1146,0.15234375,-0.654296875,-0.85546875
1147,0.1533203125,-0.646484375,-0.853515625
1148,0.166015625,-0.6455078125,-0.8525390625
1149,0.16015625,-0.630859375,-0.83984375
1150,0.166015625,-0.62890625,-0.8369140625
1151,0.1865234375,-0.6240234375,-0.8408203125
1152,0.193359375,-0.609375,-0.841796875
1153,0.17578125,-0.6005859375,-0.83203125
1154,0.1669921875,-0.578125,-0.8173828125
1155,0.1689453125,-0.576171875,-0.8125
1156,0.1484375,-0.5849609375,-0.814453125
1157,0.12890625,-0.5869140625,-0.8076171875
1158,0.125,-0.5859375,-0.8037109375
1159,0.125,-0.5888671875,-0.8046875
1160,0.109375,-0.58984375,-0.810546875
1161,0.1005859375,-0.587890625,-0.814453125
1162,0.0859375,-0.599609375,-0.82421875
1163,0.1025390625,-0.6171875,-0.841796875
1164,0.0869140625,-0.623046875,-0.8583984375
1165,0.0830078125,-0.625,-0.87890625
1166,0.091796875,-0.6240234375,-0.884765625
1167,0.10546875,-0.6025390625,-0.873046875
1168,0.1435546875,-0.6083984375,-0.8994140625
1169,0.15625,-0.5908203125,-0.8876953125
1170,0.1689453125,-0.5859375,-0.8876953125
1171,0.1865234375,-0.5830078125,-0.8876953125
1172,0.1884765625,-0.5771484375,-0.888671875
1173,0.189453125,-0.5634765625,-0.8828125
1174,0.1826171875,-0.5576171875,-0.8740234375
1175,0.1650390625,-0.5556640625,-0.8740234375
1176,0.1591796875,-0.5517578125,-0.8798828125
1177,0.1435546875,-0.537109375,-0.884765625
1178,0.146484375,-0.537109375,-0.875
1179,0.1357421875,-0.5400390625,-0.853515625
1180,0.11328125,-0.544921875,-0.8466796875
1181,0.0966796875,-0.564453125,-0.8427734375
1182,0.087890625,-0.58203125,-0.8388671875
1183,0.0771484375,-0.54296875,-0.837890625
1184,0.1064453125,-0.5556640625,-0.8388671875
1185,0.099609375,-0.552734375,-0.8388671875
1186,0.1015625,-0.546875,-0.8408203125
1187,0.1279296875,-0.552734375,-0.8447265625
1188,0.1796875,-0.5361328125,-0.8583984375
1189,0.203125,-0.55078125,-0.8369140625
1190,0.2021484375,-0.568359375,-0.8095703125
1191,0.203125,-0.548828125,-0.8076171875
1192,0.21875,-0.5322265625,-0.794921875
1193,0.2373046875,-0.513671875,-0.80078125
1194,0.21875,-0.48046875,-0.7919921875
1195,0.224609375,-0.46484375,-0.7958984375
1196,0.2119140625,-0.4306640625,-0.7939453125
1197,0.205078125,-0.4130859375,-0.8037109375
1198,0.1875,-0.4052734375,-0.796875
1199,0.1728515625,-0.3984375,-0.802734375
1200,0.169921875,-0.3974609375,-0.7880859375
1201,0.1611328125,-0.396484375,-0.791015625
1202,0.16796875,-0.41015625,-0.7861328125
1203,0.1611328125,-0.412109375,-0.7861328125
1204,0.15625,-0.3974609375,-0.791015625
1205,0.1533203125,-0.404296875,-0.779296875
1206,0.1494140625,-0.3935546875,-0.771484375
1207,0.1572265625,-0.3876953125,-0.765625
1208,0.1552734375,-0.3759765625,-0.7646484375
1209,0.166015625,-0.3828125,-0.7490234375
1210,0.1728515625,-0.37890625,-0.7412109375
1211,0.1767578125,-0.4140625,-0.7236328125
1212,0.16796875,-0.3857421875,-0.69921875
1213,0.1630859375,-0.39453125,-0.6962890625
1214,0.1689453125,-0.40625,-0.6796875
1215,0.166015625,-0.4091796875,-0.6787109375
1216,0.1767578125,-0.3974609375,-0.69140625
1217,0.1484375,-0.39453125,-0.685546875
1218,0.1259765625,-0.384765625,-0.6748046875
1219,0.126953125,-0.3623046875,-0.6806640625
1220,0.1328125,-0.3359375,-0.6767578125
1221,0.1142578125,-0.3076171875,-0.6611328125
1222,0.0986328125,-0.2841796875,-0.642578125
1223,0.095703125,-0.2705078125,-0.6337890625
1224,0.0859375,-0.255859375,-0.6181640625
1225,0.0859375,-0.240234375,-0.6103515625
1226,0.0859375,-0.2236328125,-0.609375
1227,0.0908203125,-0.21484375,-0.6064453125
1228,0.1044921875,-0.21484375,-0.57421875
1229,0.13671875,-0.2314453125,-0.5625
1230,0.162109375,-0.2705078125,-0.5400390625
1231,0.1875,-0.2890625,-0.5322265625
1232,0.17578125,-0.279296875,-0.5390625
1233,0.169921875,-0.26171875,-0.544921875
1234,0.154296875,-0.2353515625,-0.56640625
1235,0.1416015625,-0.2255859375,-0.55859375
1236,0.146484375,-0.2265625,-0.5478515625
1237,0.13671875,-0.2666015625,-0.5146484375
1238,0.1279296875,-0.2978515625,-0.4765625
1239,0.109375,-0.328125,-0.4365234375
1240,0.080078125,-0.34375,-0.38671875
1241,0.0673828125,-0.34765625,-0.37109375
1242,0.06640625,-0.32421875,-0.3779296875
1243,0.0537109375,-0.3125,-0.3701171875
1244,0.033203125,-0.318359375,-0.3369140625
1245,0.0146484375,-0.33203125,-0.2919921875
1246,0.02734375,-0.3251953125,-0.2724609375
1247,0.0458984375,-0.279296875,-0.279296875
1248,0.0966796875,-0.23046875,-0.234375
1249,0.1279296875,-0.2080078125,-0.212890625
1250,0.15625,-0.2080078125,-0.1787109375
1251,0.203125,-0.2578125,-0.1904296875
1252,0.23828125,-0.2705078125,-0.25
1253,0.18359375,-0.2451171875,-0.3095703125
1254,0.1484375,-0.2216796875,-0.3349609375
1255,0.11328125,-0.205078125,-0.3642578125
1256,0.03515625,-0.1865234375,-0.3427734375
1257,-0.0126953125,-0.1650390625,-0.2802734375
1258,-0.0048828125,-0.1484375,-0.251953125
1259,0.017578125,-0.1240234375,-0.3037109375
1260,0.0654296875,-0.091796875,-0.4111328125
1261,0.11328125,-0.04296875,-0.515625
1262,0.1494140625,0.0107421875,-0.5732421875
1263,0.1337890625,0.09375,-0.6787109375
1264,0.1240234375,0.1591796875,-0.7802734375
1265,0.1044921875,0.228515625,-0.7646484375
1266,0.06640625,0.3046875,-0.7607421875
1267,0.05859375,0.359375,-0.810546875
1268,0.033203125,0.408203125,-0.8505859375
1269,0.0234375,0.4267578125,-0.8466796875
1270,-0.052734375,0.412109375,-0.837890625
1271,-0.20703125,0.3701171875,-0.900390625
1272,-0.3779296875,0.3203125,-1.0087890625
1273,-0.48828125,0.3076171875,-1.037109375
1274,-0.6044921875,0.236328125,-1.0380859375
1275,-0.7119140625,0.1396484375,-1.03515625
1276,-0.796875,0.0556640625,-1.01953125
1277,-0.8798828125,0.00390625,-0.9951171875
1278,-0.9453125,-0.0244140625,-0.9150390625
1279,-1.013671875,-0.0458984375,-0.75390625
1280,-1.03125,-0.03515625,-0.611328125
1281,-1.017578125,0.0205078125,-0.5234375
1282,-1.0810546875,0.146484375,-0.3984375
1283,-1.1298828125,0.1796875,-0.4541015625
1284,-1.0107421875,0.4482421875,-0.43359375
1285,-0.9072265625,0.7666015625,-0.4208984375
1286,-0.861328125,1.0029296875,-0.3994140625
1287,-0.84765625,1.1025390625,-0.529296875
1288,-0.794921875,1.2158203125,-0.6552734375
1289,-0.6630859375,1.435546875,-0.849609375
1290,-0.5654296875,1.6416015625,-0.6630859375
1291,-0.783203125,1.8388671875,-0.4111328125
1292,-1.17578125,2.0234375,-0.439453125
1293,-1.8798828125,2.1591796875,-0.8818359375
1294,-2.7919921875,2.18359375,-0.9140625
1295,-3.76953125,2.470703125,-0.982421875
1296,-4.52734375,2.6171875,-1.0625
1297,-5.7255859375,2.78125,-1.2841796875
1298,-7.0078125,2.8994140625,-1.3232421875
1299,-7.9404296875,2.9677734375,-1.40234375
1300,-7.9423828125,3.0244140625,-1.8994140625
1301,-6.9296875,3.056640625,-2.548828125
1302,-5.3681640625,2.4287109375,-2.978515625
1303,-4.4326171875,1.9921875,-2.15625
1304,-3.4130859375,1.6474609375,-1.2060546875
1305,-2.6728515625,1.3779296875,-0.4892578125
1306,-2.2177734375,1.0205078125,-0.0634765625
1307,-1.1748046875,0.43359375,0.26171875
1308,-0.1845703125,-0.0595703125,0.501953125
1309,0.646484375,-0.4853515625,0.7177734375
1310,1.3046875,-0.9462890625,0.759765625
1311,1.6142578125,-1.1865234375,0.7744140625
1312,1.6025390625,-1.1337890625,0.8037109375
1313,1.1318359375,-0.8037109375,0.533203125
1314,1.0283203125,-0.4892578125,0.0986328125
1315,0.66015625,-0.23828125,-0.130859375
1316,0.3046875,0.013671875,-0.1748046875
1317,-0.072265625,0.2373046875,-0.103515625
1318,-0.4833984375,0.4453125,-0.02734375
1319,-1.0595703125,0.5087890625,0.0498046875
1320,-1.423828125,0.60546875,0.1787109375
1321,-1.4033203125,0.6845703125,0.1884765625
1322,-1.306640625,0.6298828125,0.2138671875
1323,-1.2705078125,0.521484375,0.2294921875
1324,-1.2685546875,0.404296875,0.1455078125
1325,-1.2421875,0.2705078125,0.0703125
1326,-1.1494140625,0.1630859375,0.017578125
1327,-1.0380859375,0.0185546875,0.05078125
1328,-0.88671875,-0.0625,0.076171875
1329,-0.720703125,-0.107421875,0.123046875
1330,-0.5556640625,-0.0849609375,0.1484375
1331,-0.3076171875,-0.115234375,0.1376953125
1332,-0.2294921875,-0.107421875,0.13671875
1333,-0.1796875,-0.064453125,0.1123046875
1334,-0.193359375,-0.0634765625,0.12109375
1335,-0.296875,0.0078125,0.140625
1336,-0.41015625,0.0263671875,0.125
1337,-0.5908203125,0.0830078125,0.1201171875
1338,-0.6953125,0.0869140625,0.09375
1339,-0.84765625,0.1162109375,0.1064453125
1340,-0.939453125,0.1279296875,0.0751953125
1341,-1.0224609375,0.12109375,0.0390625
1342,-1.10546875,0.1005859375,0.0048828125
1343,-1.138671875,0.0986328125,-0.03515625
1344,-1.1708984375,0.107421875,-0.076171875
1345,-1.23046875,0.107421875,-0.0947265625
1346,-1.318359375,0.115234375,-0.08984375
1347,-1.2802734375,0.08984375,-0.111328125
1348,-1.3837890625,0.1748046875,-0.09765625
1349,-1.48828125,0.24609375,-0.119140625
1350,-1.490234375,0.287109375,-0.1201171875
1351,-1.4443359375,0.310546875,-0.1474609375
1352,-1.353515625,0.3515625,-0.185546875
1353,-1.2734375,0.3603515625,-0.2041015625
1354,-1.2958984375,0.3681640625,-0.2021484375
1355,-1.2880859375,0.35546875,-0.19921875
1356,-1.2490234375,0.3349609375,-0.1982421875
1357,-1.1767578125,0.2919921875,-0.2021484375
1358,-1.1162109375,0.263671875,-0.2138671875
1359,-1.078125,0.2255859375,-0.208984375
1360,-1.0439453125,0.1904296875,-0.2001953125
1361,-1.001953125,0.17578125,-0.205078125
1362,-0.951171875,0.134765625,-0.19140625
1363,-0.9267578125,0.1142578125,-0.1923828125
1364,-0.912109375,0.1064453125,-0.1943359375
1365,-0.904296875,0.111328125,-0.2001953125
1366,-0.8955078125,0.111328125,-0.220703125
1367,-0.8916015625,0.1044921875,-0.25390625
1368,-0.8916015625,0.0927734375,-0.2802734375
1369,-0.8984375,0.0966796875,-0.2900390625
1370,-0.916015625,0.10546875,-0.302734375
1371,-0.919921875,0.1171875,-0.318359375
1372,-0.919921875,0.1298828125,-0.3349609375
1373,-0.92578125,0.1474609375,-0.37109375
1374,-0.9560546875,0.162109375,-0.3818359375
1375,-0.9453125,0.1708984375,-0.4033203125
1376,-0.91015625,0.166015625,-0.4130859375
1377,-0.9228515625,0.1787109375,-0.4052734375
1378,-0.9052734375,0.1474609375,-0.3974609375
1379,-0.8798828125,0.125,-0.3984375
1380,-0.8623046875,0.1044921875,-0.3994140625
1381,-0.861328125,0.0888671875,-0.4052734375
1382,-0.8232421875,0.0859375,-0.4013671875
1383,-0.798828125,0.0830078125,-0.40625
1384,-0.783203125,0.08984375,-0.4111328125
1385,-0.7978515625,0.0966796875,-0.4033203125
1386,-0.7998046875,0.119140625,-0.40625
1387,-0.796875,0.14453125,-0.408203125
1388,-0.8056640625,0.154296875,-0.3896484375
1389,-0.8115234375,0.1494140625,-0.390625
1390,-0.83203125,0.15625,-0.3955078125
1391,-0.8447265625,0.150390625,-0.4091796875
1392,-0.845703125,0.16796875,-0.4375
1393,-0.8544921875,0.169921875,-0.466796875
1394,-0.8603515625,0.1669921875,-0.4833984375
1395,-0.8759765625,0.166015625,-0.4990234375
1396,-0.8916015625,0.1689453125,-0.498046875
1397,-0.89453125,0.169921875,-0.51171875
1398,-0.8955078125,0.16796875,-0.533203125
1399,-0.89453125,0.1806640625,-0.53515625
1400,-0.90234375,0.18359375,-0.5380859375
1401,-0.9111328125,0.19140625,-0.5341796875
1402,-0.9111328125,0.1982421875,-0.5283203125
1403,-0.9169921875,0.2119140625,-0.5126953125
1404,-0.9111328125,0.205078125,-0.5302734375
1405,-0.9013671875,0.1982421875,-0.5400390625
1406,-0.90234375,0.2021484375,-0.5419921875
1407,-0.8994140625,0.2001953125,-0.541015625
1408,-0.9013671875,0.1982421875,-0.54296875
1409,-0.8818359375,0.19140625,-0.5771484375
1410,-0.88671875,0.1953125,-0.609375
1411,-0.890625,0.1943359375,-0.6142578125
1412,-0.875,0.2041015625,-0.619140625
1413,-0.8857421875,0.2060546875,-0.6328125
1414,-0.884765625,0.21875,-0.6240234375
1415,-0.8779296875,0.23046875,-0.626953125
1416,-0.8798828125,0.2314453125,-0.625
1417,-0.87890625,0.2333984375,-0.6318359375
1418,-0.8857421875,0.23828125,-0.640625
1419,-0.8984375,0.2314453125,-0.6474609375
1420,-0.9052734375,0.2421875,-0.6435546875
1421,-0.9033203125,0.24609375,-0.6416015625
1422,-0.908203125,0.2451171875,-0.6435546875
1423,-0.9091796875,0.2412109375,-0.6396484375
1424,-0.9150390625,0.2392578125,-0.6328125
1425,-0.9033203125,0.236328125,-0.640625
1426,-0.8876953125,0.25,-0.6328125
1427,-0.8857421875,0.2412109375,-0.611328125
1428,-0.884765625,0.232421875,-0.595703125
1429,-0.876953125,0.2265625,-0.591796875
1430,-0.8701171875,0.224609375,-0.5830078125
1431,-0.87109375,0.228515625,-0.576171875
1432,-0.8671875,0.2138671875,-0.5712890625
1433,-0.845703125,0.203125,-0.56640625
1434,-0.8388671875,0.1845703125,-0.5732421875
1435,-0.8505859375,0.1865234375,-0.5634765625
1436,-0.84765625,0.201171875,-0.56640625
1437,-0.849609375,0.1982421875,-0.55859375
1438,-0.84765625,0.1875,-0.556640625
1439,-0.8466796875,0.193359375,-0.5576171875
1440,-0.853515625,0.18359375,-0.54296875
1441,-0.857421875,0.1875,-0.5419921875
1442,-0.8583984375,0.1796875,-0.548828125
1443,-0.84765625,0.181640625,-0.5478515625
1444,-0.8505859375,0.177734375,-0.5361328125
1445,-0.8515625,0.16796875,-0.5283203125
1446,-0.8583984375,0.1591796875,-0.5205078125
1447,-0.85546875,0.1796875,-0.50390625
1448,-0.85546875,0.1572265625,-0.501953125
1449,-0.87109375,0.158203125,-0.505859375
1450,-0.8759765625,0.1650390625,-0.50390625
1451,-0.875,0.17578125,-0.5029296875
1452,-0.876953125,0.177734375,-0.498046875
1453,-0.8818359375,0.1708984375,-0.5009765625
1454,-0.884765625,0.1748046875,-0.5
1455,-0.888671875,0.177734375,-0.494140625
1456,-0.892578125,0.1806640625,-0.5
1457,-0.884765625,0.189453125,-0.5009765625
1458,-0.8974609375,0.1875,-0.4990234375
1459,-0.896484375,0.18359375,-0.4990234375
1460,-0.896484375,0.18359375,-0.4921875
1461,-0.8974609375,0.189453125,-0.48828125
1462,-0.8974609375,0.1865234375,-0.4912109375
1463,-0.892578125,0.1845703125,-0.486328125
1464,-0.9013671875,0.1875,-0.48828125
1465,-0.896484375,0.1787109375,-0.4873046875
1466,-0.896484375,0.1787109375,-0.48828125
1467,-0.896484375,0.1787109375,-0.4833984375
1468,-0.9013671875,0.17578125,-0.478515625
1469,-0.890625,0.171875,-0.484375
1470,-0.8955078125,0.1689453125,-0.4794921875
1471,-0.89453125,0.1630859375,-0.48046875
1472,-0.8955078125,0.16015625,-0.4794921875
1473,-0.8984375,0.1630859375,-0.4794921875
1474,-0.892578125,0.169921875,-0.474609375
1475,-0.892578125,0.169921875,-0.4775390625
1476,-0.8876953125,0.16796875,-0.4775390625
1477,-0.8896484375,0.1689453125,-0.4765625
1478,-0.884765625,0.1669921875,-0.4765625
1479,-0.88671875,0.169921875,-0.474609375
1480,-0.8837890625,0.1708984375,-0.4755859375
1481,-0.8828125,0.171875,-0.4716796875
1482,-0.880859375,0.1669921875,-0.470703125
1483,-0.8857421875,0.1689453125,-0.4755859375
1484,-0.8857421875,0.171875,-0.474609375
1485,-0.884765625,0.177734375,-0.4755859375
1486,-0.8798828125,0.1728515625,-0.4765625
1487,-0.8828125,0.173828125,-0.4765625
1488,-0.87890625,0.181640625,-0.478515625
1489,-0.8818359375,0.1806640625,-0.4833984375
1490,-0.8798828125,0.1787109375,-0.478515625
1491,-0.876953125,0.1845703125,-0.478515625
1492,-0.8779296875,0.1796875,-0.4853515625
1493,-0.8779296875,0.1787109375,-0.486328125
1494,-0.880859375,0.2119140625,-0.4921875
1495,-0.87890625,0.1640625,-0.4697265625
1496,-0.869140625,0.17578125,-0.48828125
1497,-0.869140625,0.205078125,-0.5166015625
1498,-0.8876953125,0.1669921875,-0.4775390625
1499,-0.8779296875,0.1767578125,-0.4990234375
1500,-0.880859375,0.1787109375,-0.494140625
1501,-0.869140625,0.203125,-0.515625
1502,-0.8837890625,0.1748046875,-0.486328125
1503,-0.8759765625,0.171875,-0.515625
1504,-0.8896484375,0.1669921875,-0.486328125
1505,-0.87890625,0.1796875,-0.51171875
1506,-0.8759765625,0.1787109375,-0.5107421875
1507,-0.8759765625,0.1845703125,-0.517578125
1508,-0.8818359375,0.1826171875,-0.517578125
1509,-0.8671875,0.22265625,-0.546875
1510,-0.8974609375,0.173828125,-0.478515625
1511,-0.8818359375,0.1826171875,-0.525390625
1512,-0.880859375,0.1826171875,-0.515625
1513,-0.884765625,0.177734375,-0.5146484375
1514,-0.88671875,0.1826171875,-0.5224609375
1515,-0.8857421875,0.1875,-0.513671875
1516,-0.8818359375,0.189453125,-0.5234375
1517,-0.8857421875,0.1884765625,-0.5087890625
1518,-0.8876953125,0.1865234375,-0.5107421875
1519,-0.8857421875,0.1826171875,-0.5126953125
1520,-0.8857421875,0.1845703125,-0.515625
1521,-0.880859375,0.1845703125,-0.517578125
1522,-0.888671875,0.1875,-0.515625
1523,-0.884765625,0.185546875,-0.513671875
1524,-0.8828125,0.185546875,-0.5107421875
1525,-0.880859375,0.185546875,-0.5234375
1526,-0.8837890625,0.18359375,-0.509765625
1527,-0.8837890625,0.185546875,-0.5068359375
1528,-0.8759765625,0.177734375,-0.5078125
1529,-0.873046875,0.1826171875,-0.50390625
1530,-0.87890625,0.1796875,-0.505859375
1531,-0.876953125,0.1826171875,-0.509765625
1532,-0.8798828125,0.1904296875,-0.50390625
1533,-0.87890625,0.177734375,-0.5029296875
1534,-0.8798828125,0.1826171875,-0.498046875
1535,-0.87890625,0.1826171875,-0.5009765625
1536,-0.8740234375,0.1806640625,-0.4990234375
1537,-0.875,0.1806640625,-0.501953125
1538,-0.876953125,0.185546875,-0.50390625
1539,-0.87890625,0.1845703125,-0.501953125
1540,-0.8818359375,0.181640625,-0.5087890625
1541,-0.8779296875,0.1875,-0.50390625
1542,-0.857421875,0.23046875,-0.5400390625
1543,-0.8955078125,0.1787109375,-0.46484375
1544,-0.8720703125,0.1787109375,-0.5107421875
1545,-0.875,0.1767578125,-0.5009765625
1546,-0.875,0.1796875,-0.5009765625
1547,-0.8759765625,0.1796875,-0.50390625
1548,-0.875,0.18359375,-0.4951171875
1549,-0.869140625,0.1806640625,-0.498046875
1550,-0.875,0.181640625,-0.4931640625
1551,-0.8759765625,0.1845703125,-0.494140625
1552,-0.8740234375,0.1923828125,-0.49609375
1553,-0.876953125,0.1845703125,-0.4970703125
1554,-0.875,0.1796875,-0.4951171875
1555,-0.875,0.1826171875,-0.498046875
1556,-0.875,0.1806640625,-0.501953125
1557,-0.8759765625,0.1826171875,-0.49609375
1558,-0.8759765625,0.18359375,-0.4990234375
1559,-0.873046875,0.181640625,-0.505859375
1560,-0.876953125,0.1845703125,-0.5078125
1561,-0.8798828125,0.185546875,-0.509765625
1562,-0.8828125,0.1875,-0.5029296875
1563,-0.8837890625,0.19140625,-0.5
1564,-0.8857421875,0.1845703125,-0.501953125
1565,-0.8798828125,0.1865234375,-0.4951171875
1566,-0.8779296875,0.18359375,-0.494140625
1567,-0.880859375,0.1767578125,-0.4931640625
1568,-0.87890625,0.185546875,-0.498046875
1569,-0.8876953125,0.1826171875,-0.5029296875
1570,-0.888671875,0.1826171875,-0.4970703125
1571,-0.88671875,0.1845703125,-0.5
1572,-0.8876953125,0.1865234375,-0.5009765625
1573,-0.8876953125,0.189453125,-0.501953125
1574,-0.890625,0.1904296875,-0.5
1575,-0.8681640625,0.212890625,-0.5146484375
1576,-0.9111328125,0.1865234375,-0.4697265625
1577,-0.8798828125,0.1826171875,-0.5029296875
1578,-0.8759765625,0.173828125,-0.5048828125
1579,-0.876953125,0.1826171875,-0.5048828125
1580,-0.8759765625,0.1845703125,-0.498046875
1581,-0.875,0.1826171875,-0.4990234375
1582,-0.8740234375,0.185546875,-0.4990234375
1583,-0.875,0.1865234375,-0.494140625
1584,-0.8740234375,0.181640625,-0.49609375
1585,-0.87109375,0.1845703125,-0.4912109375
1586,-0.8720703125,0.181640625,-0.49609375
1587,-0.8759765625,0.1826171875,-0.5009765625
1588,-0.87890625,0.185546875,-0.5
1589,-0.876953125,0.1943359375,-0.5048828125
1590,-0.875,0.19140625,-0.5078125
1591,-0.8828125,0.1923828125,-0.5048828125
1592,-0.8740234375,0.19921875,-0.498046875
1593,-0.8779296875,0.2353515625,-0.515625
1594,-0.8857421875,0.177734375,-0.494140625
1595,-0.8642578125,0.181640625,-0.5009765625
1596,-0.87109375,0.1865234375,-0.5048828125
1597,-0.8759765625,0.1845703125,-0.501953125
1598,-0.865234375,0.1943359375,-0.50390625
1599,-0.8798828125,0.1806640625,-0.4775390625
1600,-0.876953125,0.18359375,-0.51171875
1601,-0.87109375,0.1845703125,-0.5029296875
1602,-0.87890625,0.189453125,-0.505859375
1603,-0.87890625,0.1923828125,-0.5009765625
1604,-0.880859375,0.197265625,-0.5
1605,-0.8779296875,0.197265625,-0.501953125
1606,-0.880859375,0.1923828125,-0.5009765625
1607,-0.8798828125,0.1953125,-0.5087890625
1608,-0.8837890625,0.1982421875,-0.5068359375
1609,-0.875,0.19921875,-0.509765625
1610,-0.888671875,0.21484375,-0.5087890625
1611,-0.8857421875,0.185546875,-0.5
1612,-0.87890625,0.1826171875,-0.5009765625
1613,-0.880859375,0.1884765625,-0.5087890625
1614,-0.8779296875,0.1943359375,-0.513671875
1615,-0.876953125,0.1904296875,-0.5107421875
1616,-0.8759765625,0.21875,-0.513671875
1617,-0.8837890625,0.181640625,-0.5
1618,-0.873046875,0.177734375,-0.4990234375
1619,-0.87890625,0.185546875,-0.5029296875
1620,-0.8720703125,0.1865234375,-0.505859375
1621,-0.8759765625,0.1865234375,-0.501953125
1622,-0.876953125,0.1884765625,-0.50390625
1623,-0.873046875,0.1982421875,-0.5078125
1624,-0.87890625,0.1875,-0.486328125
1625,-0.87890625,0.1982421875,-0.498046875
1626,-0.8759765625,0.1728515625,-0.5087890625
1627,-0.87890625,0.1845703125,-0.4990234375
1628,-0.875,0.1875,-0.5
1629,-0.87109375,0.1953125,-0.505859375
1630,-0.873046875,0.220703125,-0.5078125
1631,-0.87890625,0.1826171875,-0.4970703125
1632,-0.8740234375,0.1796875,-0.4951171875
1633,-0.8720703125,0.18359375,-0.4990234375
1634,-0.8798828125,0.189453125,-0.4970703125
1635,-0.8779296875,0.1884765625,-0.5048828125
1636,-0.884765625,0.19140625,-0.4990234375
1637,-0.8818359375,0.19921875,-0.5009765625
1638,-0.8798828125,0.197265625,-0.5029296875
1639,-0.8828125,0.197265625,-0.5009765625
1640,-0.876953125,0.2314453125,-0.51953125
1641,-0.8818359375,0.1875,-0.4970703125
1642,-0.8701171875,0.1845703125,-0.50390625
1643,-0.875,0.193359375,-0.4970703125
1644,-0.87890625,0.19140625,-0.4990234375
1645,-0.8720703125,0.1982421875,-0.505859375
1646,-0.8828125,0.1884765625,-0.4853515625
1647,-0.873046875,0.181640625,-0.4970703125
1648,-0.875,0.1845703125,-0.494140625
1649,-0.87890625,0.19140625,-0.49609375
1650,-0.8759765625,0.19140625,-0.4970703125
1651,-0.8798828125,0.1904296875,-0.4970703125
1652,-0.87890625,0.19140625,-0.498046875
1653,-0.8828125,0.19140625,-0.494140625
1654,-0.8779296875,0.1962890625,-0.498046875
1655,-0.884765625,0.193359375,-0.5
1656,-0.8779296875,0.19921875,-0.4970703125
1657,-0.8759765625,0.2138671875,-0.5078125
1658,-0.8896484375,0.1943359375,-0.4853515625
1659,-0.869140625,0.1826171875,-0.498046875
1660,-0.8828125,0.18359375,-0.505859375
1661,-0.876953125,0.189453125,-0.4970703125
1662,-0.87890625,0.1943359375,-0.4990234375
1663,-0.8759765625,0.1953125,-0.498046875
1664,-0.8837890625,0.1943359375,-0.5
1665,-0.8818359375,0.1953125,-0.4970703125
1666,-0.8818359375,0.2080078125,-0.5029296875
1667,-0.888671875,0.1923828125,-0.4853515625
1668,-0.8759765625,0.1875,-0.4990234375
1669,-0.8818359375,0.1884765625,-0.4990234375
1670,-0.8798828125,0.2021484375,-0.494140625
1671,-0.8720703125,0.1904296875,-0.498046875
1672,-0.873046875,0.2080078125,-0.5166015625
1673,-0.8818359375,0.185546875,-0.4970703125
1674,-0.87109375,0.1845703125,-0.4990234375
1675,-0.875,0.1875,-0.4990234375
1676,-0.87890625,0.1962890625,-0.5029296875
1677,-0.888671875,0.1982421875,-0.49609375
1678,-0.8798828125,0.20703125,-0.5048828125
1679,-0.87890625,0.1982421875,-0.4990234375
1680,-0.8779296875,0.2412109375,-0.509765625
1681,-0.884765625,0.1748046875,-0.4892578125
1682,-0.875,0.1787109375,-0.5
1683,-0.876953125,0.1865234375,-0.5009765625
1684,-0.8779296875,0.193359375,-0.505859375
1685,-0.875,0.1943359375,-0.4970703125
1686,-0.8779296875,0.197265625,-0.5078125
1687,-0.8798828125,0.1962890625,-0.494140625
1688,-0.8818359375,0.189453125,-0.501953125
1689,-0.875,0.1865234375,-0.50390625
1690,-0.884765625,0.1982421875,-0.5078125
1691,-0.884765625,0.1982421875,-0.4970703125
1692,-0.8740234375,0.2060546875,-0.51171875
1693,-0.884765625,0.19140625,-0.5009765625
1694,-0.87109375,0.1884765625,-0.4990234375
1695,-0.8740234375,0.189453125,-0.4951171875
1696,-0.869140625,0.1923828125,-0.5
1697,-0.87890625,0.1904296875,-0.5048828125
1698,-0.8759765625,0.197265625,-0.501953125
1699,-0.880859375,0.1982421875,-0.50390625
1700,-0.87890625,0.193359375,-0.50390625
1701,-0.8740234375,0.1943359375,-0.498046875
1702,-0.8779296875,0.1943359375,-0.498046875
1703,-0.875,0.1982421875,-0.4990234375
1704,-0.888671875,0.1982421875,-0.490234375
1705,-0.87890625,0.1845703125,-0.4970703125
1706,-0.8701171875,0.1845703125,-0.4931640625
1707,-0.8798828125,0.1923828125,-0.5029296875
1708,-0.8779296875,0.197265625,-0.5
1709,-0.876953125,0.1962890625,-0.490234375
1710,-0.884765625,0.19140625,-0.4970703125
1711,-0.875,0.1943359375,-0.498046875
1712,-0.8740234375,0.197265625,-0.4931640625
1713,-0.873046875,0.1982421875,-0.4990234375
1714,-0.880859375,0.1953125,-0.4970703125
1715,-0.8798828125,0.201171875,-0.501953125
1716,-0.87890625,0.201171875,-0.498046875
1717,-0.8798828125,0.2001953125,-0.4931640625
1718,-0.8828125,0.197265625,-0.4990234375
1719,-0.8798828125,0.1982421875,-0.498046875
1720,-0.884765625,0.201171875,-0.4931640625
1721,-0.8837890625,0.2294921875,-0.5107421875
1722,-0.88671875,0.1982421875,-0.494140625
1723,-0.87890625,0.19140625,-0.4931640625
1724,-0.8876953125,0.2021484375,-0.4990234375
1725,-0.884765625,0.21484375,-0.50390625
1726,-0.8779296875,0.19140625,-0.4892578125
1727,-0.8740234375,0.18359375,-0.4990234375
1728,-0.8740234375,0.181640625,-0.49609375
1729,-0.8720703125,0.197265625,-0.501953125
1730,-0.8828125,0.1982421875,-0.4990234375
1731,-0.8798828125,0.19921875,-0.5
1732,-0.87890625,0.1982421875,-0.5087890625
1733,-0.8779296875,0.2001953125,-0.5
1734,-0.875,0.197265625,-0.498046875
1735,-0.8720703125,0.201171875,-0.4951171875
1736,-0.8798828125,0.1982421875,-0.5048828125
1737,-0.8740234375,0.1962890625,-0.5029296875
1738,-0.8740234375,0.2021484375,-0.4921875
1739,-0.8720703125,0.203125,-0.501953125
1740,-0.8798828125,0.1875,-0.478515625
1741,-0.8720703125,0.185546875,-0.5
1742,-0.869140625,0.18359375,-0.5087890625
1743,-0.873046875,0.1904296875,-0.515625
1744,-0.8798828125,0.1982421875,-0.513671875
1745,-0.8798828125,0.2021484375,-0.5185546875
1746,-0.884765625,0.1982421875,-0.50390625
1747,-0.8779296875,0.203125,-0.5078125
1748,-0.8857421875,0.2041015625,-0.5029296875
1749,-0.8798828125,0.2001953125,-0.505859375
1750,-0.8779296875,0.1982421875,-0.5
1751,-0.8798828125,0.1943359375,-0.498046875
1752,-0.875,0.197265625,-0.4990234375
1753,-0.875,0.1943359375,-0.4951171875
1754,-0.875,0.189453125,-0.4921875
1755,-0.869140625,0.1865234375,-0.4892578125
1756,-0.873046875,0.1923828125,-0.4970703125
1757,-0.875,0.1943359375,-0.4970703125
1758,-0.8740234375,0.19140625,-0.4970703125
1759,-0.8779296875,0.189453125,-0.501953125
1760,-0.8720703125,0.1953125,-0.5
1761,-0.8759765625,0.203125,-0.5048828125
1762,-0.8779296875,0.193359375,-0.50390625
1763,-0.876953125,0.2021484375,-0.5078125
1764,-0.8798828125,0.197265625,-0.5078125
1765,-0.880859375,0.2021484375,-0.5
1766,-0.875,0.2001953125,-0.505859375
1767,-0.873046875,0.1962890625,-0.4990234375
1768,-0.8720703125,0.19140625,-0.5068359375
1769,-0.8759765625,0.1982421875,-0.5009765625
1770,-0.876953125,0.1962890625,-0.5029296875
1771,-0.8828125,0.2001953125,-0.505859375
1772,-0.884765625,0.1953125,-0.50390625
1773,-0.8857421875,0.201171875,-0.5126953125
1774,-0.8818359375,0.19921875,-0.5048828125
1775,-0.8779296875,0.2001953125,-0.501953125
1776,-0.8779296875,0.2001953125,-0.5087890625
1777,-0.8759765625,0.1962890625,-0.50390625
1778,-0.8828125,0.2021484375,-0.5107421875
1779,-0.873046875,0.201171875,-0.50390625
1780,-0.8759765625,0.1982421875,-0.50390625
1781,-0.8759765625,0.2001953125,-0.5078125
1782,-0.875,0.19921875,-0.498046875
1783,-0.875,0.1982421875,-0.5
1784,-0.87890625,0.19921875,-0.5068359375
1785,-0.87890625,0.2021484375,-0.498046875
1786,-0.8759765625,0.1982421875,-0.5009765625
1787,-0.8759765625,0.193359375,-0.498046875
1788,-0.8740234375,0.1982421875,-0.498046875
1789,-0.8759765625,0.1953125,-0.498046875
1790,-0.8759765625,0.193359375,-0.5009765625
1791,-0.8759765625,0.193359375,-0.5
1792,-0.875,0.1982421875,-0.5009765625
1793,-0.875,0.197265625,-0.501953125
1794,-0.8759765625,0.193359375,-0.5048828125
1795,-0.873046875,0.1943359375,-0.505859375
1796,-0.8759765625,0.1953125,-0.5048828125
1797,-0.8779296875,0.205078125,-0.5009765625
1798,-0.8798828125,0.19921875,-0.5
1799,-0.8798828125,0.2021484375,-0.5048828125
1800,-0.875,0.201171875,-0.4970703125
1801,-0.8828125,0.1923828125,-0.4970703125
1802,-0.873046875,0.19921875,-0.50390625
1803,-0.875,0.2001953125,-0.4970703125
1804,-0.8740234375,0.1962890625,-0.5029296875
1805,-0.8759765625,0.193359375,-0.501953125
1806,-0.875,0.2001953125,-0.5029296875
1807,-0.8798828125,0.19140625,-0.501953125
1808,-0.8759765625,0.1943359375,-0.4990234375
1809,-0.8759765625,0.193359375,-0.505859375
1810,-0.8779296875,0.197265625,-0.5048828125
1811,-0.8779296875,0.197265625,-0.4990234375
1812,-0.8759765625,0.1953125,-0.498046875
1813,-0.876953125,0.19921875,-0.4990234375
1814,-0.8740234375,0.1962890625,-0.5
1815,-0.875,0.2001953125,-0.4951171875
1816,-0.87890625,0.2001953125,-0.49609375
1817,-0.8759765625,0.197265625,-0.494140625
1818,-0.8779296875,0.2001953125,-0.4951171875
1819,-0.87890625,0.2001953125,-0.49609375
1820,-0.873046875,0.19921875,-0.5009765625
1821,-0.875,0.203125,-0.498046875
1822,-0.8779296875,0.1943359375,-0.501953125
1823,-0.876953125,0.2021484375,-0.50390625
1824,-0.8759765625,0.19921875,-0.5068359375
1825,-0.875,0.201171875,-0.498046875
1826,-0.87890625,0.19921875,-0.501953125
1827,-0.8779296875,0.193359375,-0.4990234375
1828,-0.880859375,0.1982421875,-0.5068359375
1829,-0.876953125,0.1962890625,-0.5087890625
1830,-0.8818359375,0.193359375,-0.5068359375
1831,-0.876953125,0.19140625,-0.509765625
1832,-0.876953125,0.1962890625,-0.50390625
1833,-0.87890625,0.1982421875,-0.509765625
1834,-0.873046875,0.2001953125,-0.513671875
1835,-0.8857421875,0.2001953125,-0.509765625
1836,-0.8779296875,0.201171875,-0.505859375
1837,-0.875,0.203125,-0.5107421875
1838,-0.87890625,0.2021484375,-0.5166015625
1839,-0.8740234375,0.205078125,-0.5087890625
1840,-0.87890625,0.201171875,-0.5068359375
1841,-0.875,0.197265625,-0.5048828125
1842,-0.8759765625,0.1982421875,-0.505859375
1843,-0.873046875,0.1923828125,-0.51171875
1844,-0.8681640625,0.1982421875,-0.5029296875
1845,-0.873046875,0.197265625,-0.5
1846,-0.87109375,0.1962890625,-0.5048828125
1847,-0.873046875,0.1923828125,-0.498046875
1848,-0.8701171875,0.1923828125,-0.498046875
1849,-0.8681640625,0.19140625,-0.5029296875
1850,-0.876953125,0.1923828125,-0.5
1851,-0.87109375,0.193359375,-0.498046875
1852,-0.8740234375,0.1953125,-0.498046875
1853,-0.87890625,0.1923828125,-0.5
1854,-0.875,0.1904296875,-0.5
1855,-0.875,0.1943359375,-0.50390625
1856,-0.8740234375,0.197265625,-0.5
1857,-0.8759765625,0.189453125,-0.50390625
1858,-0.875,0.193359375,-0.50390625
1859,-0.87109375,0.1884765625,-0.505859375
1860,-0.869140625,0.193359375,-0.5048828125
1861,-0.8720703125,0.1923828125,-0.5
1862,-0.8759765625,0.1865234375,-0.501953125
1863,-0.87109375,0.193359375,-0.4970703125
1864,-0.875,0.1982421875,-0.49609375
1865,-0.8720703125,0.1884765625,-0.4990234375
1866,-0.875,0.1904296875,-0.4970703125
1867,-0.875,0.1953125,-0.494140625
1868,-0.875,0.1904296875,-0.4970703125
1869,-0.8759765625,0.201171875,-0.49609375
1870,-0.875,0.197265625,-0.5009765625
1871,-0.875,0.19140625,-0.4970703125
1872,-0.873046875,0.19921875,-0.4970703125
1873,-0.880859375,0.193359375,-0.501953125
1874,-0.8818359375,0.1982421875,-0.5029296875
1875,-0.880859375,0.2021484375,-0.5068359375
1876,-0.876953125,0.2001953125,-0.5048828125
1877,-0.8828125,0.1923828125,-0.505859375
1878,-0.8759765625,0.1962890625,-0.5068359375
1879,-0.873046875,0.19921875,-0.5068359375
1880,-0.8740234375,0.197265625,-0.498046875
1881,-0.873046875,0.19921875,-0.51171875
1882,-0.8740234375,0.2001953125,-0.5078125
1883,-0.87109375,0.197265625,-0.5068359375
1884,-0.873046875,0.197265625,-0.5048828125
1885,-0.87109375,0.2001953125,-0.505859375
1886,-0.875,0.1962890625,-0.5078125
1887,-0.8759765625,0.201171875,-0.5078125
1888,-0.8720703125,0.2021484375,-0.501953125
1889,-0.875,0.1982421875,-0.5048828125
1890,-0.8720703125,0.197265625,-0.5029296875
1891,-0.8740234375,0.197265625,-0.5009765625
1892,-0.873046875,0.197265625,-0.5
1893,-0.875,0.19921875,-0.498046875
1894,-0.8720703125,0.1982421875,-0.50390625
1895,-0.87109375,0.1943359375,-0.5126953125
1896,-0.869140625,0.1962890625,-0.5107421875
1897,-0.8740234375,0.193359375,-0.51953125
1898,-0.873046875,0.197265625,-0.5185546875
1899,-0.8759765625,0.2041015625,-0.5126953125
1900,-0.8740234375,0.2041015625,-0.517578125
1901,-0.875,0.2021484375,-0.5048828125
1902,-0.873046875,0.203125,-0.505859375
1903,-0.875,0.1982421875,-0.50390625
1904,-0.8740234375,0.2021484375,-0.5087890625
1905,-0.873046875,0.193359375,-0.5087890625
1906,-0.873046875,0.1953125,-0.509765625
1907,-0.8720703125,0.1923828125,-0.5087890625
1908,-0.8740234375,0.193359375,-0.5087890625
1909,-0.8740234375,0.1943359375,-0.5078125
1910,-0.873046875,0.2001953125,-0.505859375
1911,-0.875,0.19921875,-0.5
1912,-0.8798828125,0.1982421875,-0.498046875
1913,-0.873046875,0.197265625,-0.4931640625
1914,-0.8740234375,0.197265625,-0.4990234375
1915,-0.875,0.193359375,-0.498046875
1916,-0.8701171875,0.193359375,-0.501953125
1917,-0.873046875,0.1943359375,-0.5068359375
1918,-0.875,0.197265625,-0.51171875
1919,-0.875,0.193359375,-0.5068359375
1920,-0.8759765625,0.197265625,-0.5068359375
1921,-0.875,0.2001953125,-0.4990234375
1922,-0.8798828125,0.1962890625,-0.501953125
1923,-0.876953125,0.1953125,-0.5009765625
1924,-0.8828125,0.2021484375,-0.501953125
1925,-0.876953125,0.1943359375,-0.505859375
1926,-0.875,0.1982421875,-0.5029296875
1927,-0.8779296875,0.2021484375,-0.5048828125
1928,-0.8759765625,0.2021484375,-0.5029296875
1929,-0.875,0.2001953125,-0.5087890625
1930,-0.875,0.2001953125,-0.5068359375
1931,-0.8837890625,0.2001953125,-0.505859375
1932,-0.8779296875,0.19921875,-0.50390625
1933,-0.876953125,0.1962890625,-0.5087890625
1934,-0.8720703125,0.19921875,-0.505859375
1935,-0.876953125,0.2001953125,-0.5048828125
1936,-0.876953125,0.19921875,-0.5029296875
1937,-0.8798828125,0.1962890625,-0.501953125
1938,-0.8759765625,0.19921875,-0.5029296875
1939,-0.8759765625,0.2001953125,-0.5048828125
1940,-0.8740234375,0.2001953125,-0.505859375
1941,-0.8740234375,0.19921875,-0.4970703125
1942,-0.8779296875,0.197265625,-0.5009765625
1943,-0.873046875,0.2001953125,-0.5
1944,-0.873046875,0.1962890625,-0.5087890625
1945,-0.8720703125,0.1923828125,-0.501953125
1946,-0.8720703125,0.197265625,-0.505859375
1947,-0.875,0.19921875,-0.50390625
1948,-0.875,0.197265625,-0.5
1949,-0.8740234375,0.1982421875,-0.505859375
1950,-0.873046875,0.1953125,-0.5
1951,-0.8720703125,0.197265625,-0.5048828125
1952,-0.8671875,0.1982421875,-0.50390625
1953,-0.8779296875,0.1923828125,-0.50390625
1954,-0.875,0.197265625,-0.5087890625
1955,-0.876953125,0.2001953125,-0.5107421875
1956,-0.876953125,0.201171875,-0.5048828125
1957,-0.873046875,0.1962890625,-0.50390625
1958,-0.8720703125,0.193359375,-0.5107421875
1959,-0.87109375,0.1982421875,-0.4970703125
1960,-0.873046875,0.1953125,-0.5029296875
1961,-0.8740234375,0.1923828125,-0.5078125
1962,-0.875,0.193359375,-0.5048828125
1963,-0.875,0.1962890625,-0.50390625
1964,-0.8798828125,0.1943359375,-0.5087890625
1965,-0.873046875,0.1904296875,-0.5029296875
1966,-0.875,0.1982421875,-0.5048828125
1967,-0.8720703125,0.19921875,-0.5087890625
1968,-0.876953125,0.197265625,-0.50390625
1969,-0.875,0.197265625,-0.5009765625
1970,-0.8740234375,0.197265625,-0.5029296875
1971,-0.87890625,0.1962890625,-0.5029296875
1972,-0.8720703125,0.19921875,-0.5009765625
1973,-0.8759765625,0.203125,-0.4990234375
1974,-0.875,0.1904296875,-0.5
1975,-0.875,0.193359375,-0.498046875
1976,-0.869140625,0.1943359375,-0.5029296875
1977,-0.8740234375,0.19921875,-0.501953125
1978,-0.87109375,0.1943359375,-0.501953125
1979,-0.87109375,0.1982421875,-0.51171875
1980,-0.87109375,0.193359375,-0.5
1981,-0.8720703125,0.1904296875,-0.505859375
1982,-0.875,0.1875,-0.4970703125
1983,-0.8759765625,0.1943359375,-0.50390625
1984,-0.875,0.19140625,-0.5048828125
1985,-0.8740234375,0.1943359375,-0.5009765625
1986,-0.87890625,0.19140625,-0.498046875
1987,-0.8759765625,0.1982421875,-0.50390625
1988,-0.8740234375,0.197265625,-0.50390625
1989,-0.8779296875,0.193359375,-0.5029296875
1990,-0.873046875,0.2001953125,-0.5078125
1991,-0.87890625,0.197265625,-0.51171875
1992,-0.873046875,0.1943359375,-0.505859375
1993,-0.875,0.201171875,-0.5048828125
1994,-0.87890625,0.1982421875,-0.5078125
1995,-0.8779296875,0.2021484375,-0.5126953125
1996,-0.8818359375,0.197265625,-0.51171875
1997,-0.8779296875,0.19921875,-0.5166015625
1998,-0.8759765625,0.19921875,-0.5078125
1999,-0.875,0.2001953125,-0.5048828125
2000,-0.87109375,0.197265625,-0.5068359375
2001,-0.87109375,0.1982421875,-0.5068359375
2002,-0.8759765625,0.19140625,-0.5
2003,-0.875,0.1953125,-0.501953125
2004,-0.8759765625,0.1962890625,-0.505859375
2005,-0.873046875,0.1943359375,-0.5009765625
2006,-0.8720703125,0.1962890625,-0.5
2007,-0.8740234375,0.2001953125,-0.5078125
2008,-0.8740234375,0.1962890625,-0.5048828125
2009,-0.875,0.2021484375,-0.5029296875
2010,-0.876953125,0.1953125,-0.5068359375
2011,-0.8720703125,0.1982421875,-0.51171875
2012,-0.875,0.1904296875,-0.5166015625
2013,-0.875,0.1962890625,-0.5029296875
2014,-0.873046875,0.2001953125,-0.5107421875
2015,-0.873046875,0.1923828125,-0.501953125
2016,-0.8701171875,0.1943359375,-0.509765625
2017,-0.876953125,0.1953125,-0.5068359375
2018,-0.8779296875,0.1982421875,-0.5087890625
2019,-0.8759765625,0.197265625,-0.505859375
2020,-0.876953125,0.197265625,-0.50390625
2021,-0.873046875,0.1943359375,-0.51171875
2022,-0.8798828125,0.1982421875,-0.5068359375
2023,-0.884765625,0.193359375,-0.51171875
2024,-0.8759765625,0.1982421875,-0.5078125
2025,-0.8779296875,0.1953125,-0.5087890625
2026,-0.8798828125,0.1923828125,-0.5078125
2027,-0.8759765625,0.1953125,-0.50390625
2028,-0.87890625,0.2001953125,-0.5029296875
2029,-0.8740234375,0.1982421875,-0.501953125
2030,-0.876953125,0.19140625,-0.50390625
2031,-0.87109375,0.1943359375,-0.5048828125
2032,-0.873046875,0.193359375,-0.5
2033,-0.873046875,0.19921875,-0.505859375
2034,-0.873046875,0.2001953125,-0.5029296875
2035,-0.873046875,0.1953125,-0.4990234375
2036,-0.8740234375,0.1904296875,-0.5
2037,-0.87890625,0.197265625,-0.5029296875
2038,-0.873046875,0.189453125,-0.5029296875
2039,-0.87890625,0.201171875,-0.501953125
2040,-0.87890625,0.1943359375,-0.5078125
2041,-0.87109375,0.1943359375,-0.5087890625
2042,-0.8759765625,0.193359375,-0.5068359375
2043,-0.8798828125,0.1982421875,-0.509765625
2044,-0.875,0.1953125,-0.5009765625
2045,-0.8720703125,0.197265625,-0.4990234375
2046,-0.8720703125,0.1923828125,-0.5
2047,-0.8681640625,0.1904296875,-0.5
2048,-0.869140625,0.1875,-0.4990234375
2049,-0.8740234375,0.1923828125,-0.5087890625
2050,-0.8759765625,0.19140625,-0.5068359375
2051,-0.8759765625,0.1982421875,-0.5068359375
2052,-0.875,0.193359375,-0.50390625
2053,-0.8759765625,0.2001953125,-0.5048828125
2054,-0.8779296875,0.197265625,-0.5029296875
2055,-0.875,0.197265625,-0.5087890625
2056,-0.8759765625,0.1982421875,-0.4990234375
2057,-0.8740234375,0.1884765625,-0.4990234375
2058,-0.8798828125,0.193359375,-0.501953125
2059,-0.87890625,0.1943359375,-0.5068359375
2060,-0.8759765625,0.189453125,-0.509765625
2061,-0.8720703125,0.197265625,-0.5068359375
2062,-0.875,0.1904296875,-0.517578125
2063,-0.8759765625,0.2001953125,-0.5
2064,-0.873046875,0.1943359375,-0.505859375
2065,-0.8759765625,0.19921875,-0.50390625
2066,-0.8759765625,0.1923828125,-0.5048828125
2067,-0.8701171875,0.1962890625,-0.4990234375
2068,-0.873046875,0.1884765625,-0.5029296875
2069,-0.8759765625,0.1953125,-0.5078125
2070,-0.875,0.1884765625,-0.5068359375
2071,-0.87109375,0.197265625,-0.5068359375
2072,-0.875,0.197265625,-0.509765625
2073,-0.8740234375,0.2021484375,-0.5029296875
2074,-0.865234375,0.2119140625,-0.509765625
2075,-0.880859375,0.181640625,-0.484375
2076,-0.8759765625,0.19921875,-0.5146484375
2077,-0.8720703125,0.1982421875,-0.5009765625
2078,-0.873046875,0.197265625,-0.5048828125
2079,-0.875,0.1953125,-0.5087890625
2080,-0.875,0.197265625,-0.50390625
2081,-0.8740234375,0.197265625,-0.50390625
2082,-0.873046875,0.197265625,-0.5107421875
2083,-0.87109375,0.1943359375,-0.5029296875
2084,-0.8798828125,0.201171875,-0.505859375
2085,-0.87890625,0.1953125,-0.5087890625
2086,-0.87890625,0.2001953125,-0.515625
2087,-0.8779296875,0.1982421875,-0.5107421875
2088,-0.8798828125,0.2001953125,-0.51171875
2089,-0.876953125,0.2021484375,-0.509765625
2090,-0.875,0.197265625,-0.505859375
2091,-0.8720703125,0.193359375,-0.5068359375
2092,-0.873046875,0.1953125,-0.5068359375
2093,-0.8818359375,0.197265625,-0.509765625
2094,-0.8779296875,0.1982421875,-0.5068359375
2095,-0.8740234375,0.1953125,-0.5146484375
2096,-0.873046875,0.1982421875,-0.5107421875
2097,-0.8740234375,0.197265625,-0.5087890625
2098,-0.87890625,0.193359375,-0.5078125
2099,-0.875,0.1943359375,-0.5087890625
2100,-0.86328125,0.1982421875,-0.521484375
2101,-0.8818359375,0.181640625,-0.49609375
2102,-0.8740234375,0.1953125,-0.5029296875
2103,-0.875,0.19140625,-0.4970703125
2104,-0.875,0.197265625,-0.5009765625
2105,-0.875,0.1953125,-0.5
2106,-0.876953125,0.19140625,-0.498046875
2107,-0.8798828125,0.1943359375,-0.505859375
2108,-0.8818359375,0.197265625,-0.49609375
2109,-0.8798828125,0.197265625,-0.4990234375
2110,-0.87890625,0.2021484375,-0.5
2111,-0.87890625,0.201171875,-0.5029296875
2112,-0.8779296875,0.197265625,-0.505859375
2113,-0.8740234375,0.197265625,-0.50390625
2114,-0.8759765625,0.1962890625,-0.501953125
2115,-0.87890625,0.193359375,-0.5107421875
2116,-0.8740234375,0.193359375,-0.509765625
2117,-0.8857421875,0.1884765625,-0.50390625
2118,-0.8720703125,0.189453125,-0.5029296875
2119,-0.873046875,0.1943359375,-0.509765625
2120,-0.875,0.1943359375,-0.509765625
2121,-0.8798828125,0.1982421875,-0.505859375
2122,-0.8759765625,0.189453125,-0.5029296875
2123,-0.875,0.193359375,-0.5048828125
2124,-0.8740234375,0.193359375,-0.4990234375
2125,-0.8759765625,0.1884765625,-0.5009765625
2126,-0.8740234375,0.189453125,-0.4990234375
2127,-0.865234375,0.1865234375,-0.498046875
2128,-0.8798828125,0.1875,-0.4970703125
2129,-0.865234375,0.193359375,-0.498046875
2130,-0.869140625,0.1865234375,-0.4990234375
2131,-0.8740234375,0.185546875,-0.498046875
2132,-0.875,0.1875,-0.498046875
2133,-0.873046875,0.185546875,-0.4951171875
2134,-0.8701171875,0.193359375,-0.5
2135,-0.8720703125,0.1826171875,-0.4990234375
2136,-0.875,0.1875,-0.4990234375
2137,-0.87890625,0.189453125,-0.49609375
2138,-0.8759765625,0.1845703125,-0.4970703125
2139,-0.8759765625,0.1875,-0.49609375
2140,-0.875,0.1962890625,-0.5
2141,-0.880859375,0.193359375,-0.5029296875
2142,-0.876953125,0.1904296875,-0.4970703125
2143,-0.8759765625,0.1923828125,-0.5068359375
2144,-0.873046875,0.1943359375,-0.5029296875
2145,-0.8740234375,0.185546875,-0.49609375
2146,-0.8701171875,0.189453125,-0.498046875
2147,-0.876953125,0.193359375,-0.505859375
2148,-0.880859375,0.197265625,-0.4990234375
2149,-0.8779296875,0.193359375,-0.501953125
2150,-0.87890625,0.1875,-0.5
2151,-0.875,0.1884765625,-0.5029296875
2152,-0.87890625,0.1943359375,-0.4990234375
2153,-0.875,0.1943359375,-0.5009765625
2154,-0.8818359375,0.1923828125,-0.505859375
2155,-0.87890625,0.1904296875,-0.5029296875
2156,-0.8837890625,0.1923828125,-0.5068359375
2157,-0.8779296875,0.1875,-0.501953125
2158,-0.8720703125,0.197265625,-0.501953125
2159,-0.876953125,0.1943359375,-0.5009765625
2160,-0.87890625,0.197265625,-0.5068359375
2161,-0.876953125,0.1943359375,-0.505859375
2162,-0.87109375,0.1962890625,-0.5078125
2163,-0.875,0.2001953125,-0.5087890625
2164,-0.8759765625,0.201171875,-0.5078125
2165,-0.8828125,0.1962890625,-0.501953125
2166,-0.8798828125,0.1923828125,-0.501953125
2167,-0.875,0.1943359375,-0.5087890625
2168,-0.8798828125,0.1953125,-0.5009765625
2169,-0.8798828125,0.193359375,-0.50390625
2170,-0.8779296875,0.1943359375,-0.5009765625
2171,-0.8779296875,0.193359375,-0.50390625
2172,-0.876953125,0.1962890625,-0.5
2173,-0.87109375,0.189453125,-0.4970703125
2174,-0.8798828125,0.1904296875,-0.4921875
2175,-0.875,0.1962890625,-0.498046875
2176,-0.8740234375,0.193359375,-0.4921875
2177,-0.875,0.19140625,-0.4951171875
2178,-0.875,0.19140625,-0.498046875
2179,-0.873046875,0.1904296875,-0.4921875
2180,-0.875,0.189453125,-0.49609375
2181,-0.876953125,0.1962890625,-0.4970703125
2182,-0.884765625,0.1923828125,-0.5048828125
2183,-0.87890625,0.1923828125,-0.505859375
2184,-0.8818359375,0.1923828125,-0.501953125
2185,-0.884765625,0.193359375,-0.4990234375
2186,-0.8759765625,0.1923828125,-0.5009765625
2187,-0.8759765625,0.1953125,-0.4990234375
2188,-0.8828125,0.19140625,-0.498046875
2189,-0.8779296875,0.1875,-0.49609375
2190,-0.8740234375,0.1943359375,-0.4970703125
2191,-0.875,0.1923828125,-0.5
2192,-0.8779296875,0.1865234375,-0.5048828125
2193,-0.8740234375,0.1943359375,-0.50390625
2194,-0.8818359375,0.1962890625,-0.4990234375
2195,-0.8818359375,0.1953125,-0.5068359375
2196,-0.87890625,0.1982421875,-0.501953125
2197,-0.8798828125,0.193359375,-0.498046875
2198,-0.8779296875,0.1953125,-0.5009765625
2199,-0.8779296875,0.1904296875,-0.4970703125
2200,-0.8740234375,0.19140625,-0.494140625
2201,-0.875,0.1884765625,-0.49609375
2202,-0.876953125,0.1845703125,-0.4951171875
2203,-0.87890625,0.1845703125,-0.5029296875
2204,-0.880859375,0.19140625,-0.5068359375
2205,-0.87890625,0.193359375,-0.5029296875
2206,-0.87890625,0.19140625,-0.4990234375
2207,-0.880859375,0.1884765625,-0.4990234375
2208,-0.8759765625,0.1904296875,-0.5078125
2209,-0.8759765625,0.1904296875,-0.5009765625
2210,-0.8740234375,0.193359375,-0.498046875
2211,-0.8720703125,0.1806640625,-0.5029296875
2212,-0.8759765625,0.185546875,-0.5146484375
2213,-0.8779296875,0.19140625,-0.505859375
2214,-0.87890625,0.1953125,-0.505859375
2215,-0.8828125,0.19921875,-0.4970703125
2216,-0.8759765625,0.193359375,-0.49609375
2217,-0.8701171875,0.2001953125,-0.505859375
2218,-0.8837890625,0.1865234375,-0.4970703125
2219,-0.8759765625,0.1982421875,-0.498046875
2220,-0.8779296875,0.1904296875,-0.4921875
2221,-0.8779296875,0.193359375,-0.49609375
2222,-0.8818359375,0.185546875,-0.4990234375
2223,-0.876953125,0.1884765625,-0.4990234375
2224,-0.8759765625,0.189453125,-0.4990234375
2225,-0.8779296875,0.1884765625,-0.5
2226,-0.884765625,0.193359375,-0.4990234375
2227,-0.8837890625,0.1923828125,-0.4990234375
2228,-0.884765625,0.1923828125,-0.50390625
2229,-0.8837890625,0.1943359375,-0.4970703125
2230,-0.8818359375,0.1923828125,-0.498046875
2231,-0.8798828125,0.19140625,-0.4970703125
2232,-0.8798828125,0.193359375,-0.4990234375
2233,-0.8759765625,0.1943359375,-0.4970703125
2234,-0.87890625,0.1953125,-0.498046875
2235,-0.8759765625,0.197265625,-0.4951171875
2236,-0.8779296875,0.1923828125,-0.49609375
2237,-0.87890625,0.189453125,-0.4951171875
2238,-0.876953125,0.1953125,-0.4931640625
2239,-0.8798828125,0.1904296875,-0.4951171875
2240,-0.875,0.19140625,-0.49609375
2241,-0.876953125,0.1865234375,-0.498046875
2242,-0.8759765625,0.1923828125,-0.4951171875
2243,-0.873046875,0.1953125,-0.4951171875
2244,-0.875,0.19140625,-0.498046875
2245,-0.876953125,0.1865234375,-0.5029296875
2246,-0.8720703125,0.1904296875,-0.4970703125
2247,-0.87109375,0.1923828125,-0.498046875
2248,-0.875,0.1923828125,-0.4951171875
2249,-0.8720703125,0.19140625,-0.5
2250,-0.87890625,0.1962890625,-0.5009765625
2251,-0.8779296875,0.1943359375,-0.4970703125
2252,-0.87890625,0.1953125,-0.4990234375
2253,-0.87890625,0.19921875,-0.4951171875
2254,-0.8837890625,0.193359375,-0.4970703125
2255,-0.876953125,0.193359375,-0.49609375
2256,-0.8798828125,0.1943359375,-0.5
2257,-0.87890625,0.1904296875,-0.49609375
2258,-0.87890625,0.193359375,-0.4921875
2259,-0.876953125,0.189453125,-0.498046875
2260,-0.8779296875,0.189453125,-0.498046875
2261,-0.8779296875,0.1884765625,-0.498046875
2262,-0.8779296875,0.1904296875,-0.4970703125
2263,-0.876953125,0.193359375,-0.50390625
2264,-0.8818359375,0.1904296875,-0.4990234375
2265,-0.884765625,0.19140625,-0.4951171875
2266,-0.8779296875,0.1953125,-0.49609375
2267,-0.8759765625,0.1904296875,-0.4892578125
2268,-0.8837890625,0.1962890625,-0.4912109375
2269,-0.875,0.197265625,-0.49609375
2270,-0.87890625,0.1943359375,-0.498046875
2271,-0.8828125,0.1962890625,-0.498046875
2272,-0.87890625,0.1923828125,-0.5
2273,-0.8779296875,0.1943359375,-0.5
2274,-0.875,0.1884765625,-0.498046875
2275,-0.876953125,0.1923828125,-0.4990234375
2276,-0.8759765625,0.19140625,-0.4970703125
2277,-0.873046875,0.1884765625,-0.5
2278,-0.875,0.1904296875,-0.498046875
2279,-0.8701171875,0.2080078125,-0.498046875
2280,-0.8876953125,0.1953125,-0.4853515625
2281,-0.873046875,0.19140625,-0.4931640625
2282,-0.880859375,0.189453125,-0.498046875
2283,-0.8779296875,0.19140625,-0.49609375
2284,-0.880859375,0.1904296875,-0.4970703125
2285,-0.87890625,0.1982421875,-0.4951171875
2286,-0.8779296875,0.1953125,-0.4990234375
2287,-0.880859375,0.1953125,-0.4990234375
2288,-0.8779296875,0.1962890625,-0.5
2289,-0.8798828125,0.1953125,-0.501953125
2290,-0.8740234375,0.1962890625,-0.5009765625
2291,-0.875,0.1953125,-0.5029296875
2292,-0.8759765625,0.2099609375,-0.5087890625
2293,-0.8798828125,0.1962890625,-0.498046875
2294,-0.8759765625,0.1875,-0.49609375
2295,-0.875,0.19140625,-0.5029296875
2296,-0.8798828125,0.1982421875,-0.498046875
2297,-0.876953125,0.1943359375,-0.4990234375
2298,-0.8779296875,0.1953125,-0.4951171875
2299,-0.87890625,0.197265625,-0.5029296875
2300,-0.87890625,0.197265625,-0.5
2301,-0.876953125,0.1982421875,-0.5
2302,-0.8779296875,0.2080078125,-0.509765625
2303,-0.88671875,0.19140625,-0.4921875
2304,-0.87109375,0.1875,-0.49609375
2305,-0.8740234375,0.1904296875,-0.4951171875
2306,-0.8798828125,0.2001953125,-0.4990234375
2307,-0.8798828125,0.197265625,-0.498046875
2308,-0.8828125,0.19921875,-0.498046875
2309,-0.876953125,0.1953125,-0.5
2310,-0.8779296875,0.197265625,-0.5009765625
2311,-0.8779296875,0.197265625,-0.5
2312,-0.875,0.203125,-0.5078125
2313,-0.888671875,0.1923828125,-0.490234375
2314,-0.8798828125,0.1884765625,-0.4990234375
2315,-0.8740234375,0.1884765625,-0.50390625
2316,-0.8759765625,0.1943359375,-0.5009765625
2317,-0.8779296875,0.1943359375,-0.5
2318,-0.87890625,0.193359375,-0.498046875
2319,-0.876953125,0.2001953125,-0.4990234375
2320,-0.8759765625,0.1953125,-0.498046875
2321,-0.8837890625,0.1982421875,-0.4990234375
2322,-0.880859375,0.197265625,-0.4990234375
2323,-0.8740234375,0.197265625,-0.49609375
2324,-0.875,0.19921875,-0.498046875
2325,-0.87890625,0.193359375,-0.4951171875
2326,-0.87890625,0.1943359375,-0.4921875
2327,-0.87890625,0.1943359375,-0.49609375
2328,-0.8828125,0.20703125,-0.5009765625
2329,-0.8857421875,0.193359375,-0.4873046875
2330,-0.875,0.19140625,-0.4951171875
2331,-0.8759765625,0.1865234375,-0.4970703125
2332,-0.875,0.193359375,-0.5
2333,-0.875,0.197265625,-0.4970703125
2334,-0.875,0.1953125,-0.4951171875
2335,-0.8798828125,0.193359375,-0.49609375
2336,-0.876953125,0.2041015625,-0.4970703125
2337,-0.873046875,0.19921875,-0.486328125
2338,-0.876953125,0.1953125,-0.4951171875
2339,-0.880859375,0.1923828125,-0.498046875
2340,-0.87890625,0.1943359375,-0.49609375
2341,-0.8779296875,0.2275390625,-0.48828125
2342,-0.8828125,0.1904296875,-0.4912109375
2343,-0.8759765625,0.1904296875,-0.5029296875
2344,-0.8798828125,0.2001953125,-0.5009765625
2345,-0.8798828125,0.19921875,-0.490234375
2346,-0.8779296875,0.1953125,-0.4990234375
2347,-0.87109375,0.1904296875,-0.4951171875
2348,-0.8759765625,0.1923828125,-0.498046875
2349,-0.8779296875,0.1943359375,-0.49609375
2350,-0.8759765625,0.1982421875,-0.4921875
2351,-0.87890625,0.201171875,-0.4921875
2352,-0.880859375,0.1962890625,-0.49609375
2353,-0.876953125,0.1982421875,-0.4970703125
2354,-0.8798828125,0.2041015625,-0.50390625
2355,-0.8896484375,0.1982421875,-0.482421875
2356,-0.8828125,0.1953125,-0.4912109375
2357,-0.8759765625,0.1943359375,-0.498046875
2358,-0.8759765625,0.1962890625,-0.50390625
2359,-0.875,0.203125,-0.49609375
2360,-0.88671875,0.20703125,-0.4931640625
2361,-0.8779296875,0.1962890625,-0.494140625
2362,-0.8759765625,0.201171875,-0.494140625
2363,-0.87890625,0.2216796875,-0.4990234375
2364,-0.8779296875,0.1904296875,-0.4921875
2365,-0.8681640625,0.1787109375,-0.5
2366,-0.8740234375,0.1748046875,-0.498046875
2367,-0.8740234375,0.1845703125,-0.5087890625
2368,-0.8759765625,0.1953125,-0.5068359375
2369,-0.8798828125,0.1982421875,-0.5078125
2370,-0.88671875,0.203125,-0.4990234375
2371,-0.8876953125,0.205078125,-0.5009765625
2372,-0.8818359375,0.2021484375,-0.498046875
2373,-0.88671875,0.201171875,-0.49609375
2374,-0.8818359375,0.1962890625,-0.4990234375
2375,-0.8798828125,0.1953125,-0.5
2376,-0.880859375,0.1943359375,-0.5
2377,-0.87890625,0.1943359375,-0.498046875
2378,-0.875,0.1943359375,-0.4931640625
2379,-0.8759765625,0.1962890625,-0.4931640625
2380,-0.884765625,0.203125,-0.5009765625
2381,-0.873046875,0.1884765625,-0.4892578125
2382,-0.873046875,0.18359375,-0.49609375
2383,-0.875,0.1884765625,-0.498046875
2384,-0.8759765625,0.1904296875,-0.4990234375
2385,-0.876953125,0.1982421875,-0.5
2386,-0.8779296875,0.19921875,-0.4970703125
2387,-0.8818359375,0.205078125,-0.5
2388,-0.8818359375,0.2001953125,-0.49609375
2389,-0.8837890625,0.2021484375,-0.494140625
2390,-0.876953125,0.19921875,-0.4951171875
2391,-0.8740234375,0.1943359375,-0.4951171875
2392,-0.875,0.197265625,-0.501953125
2393,-0.8828125,0.193359375,-0.498046875
2394,-0.8798828125,0.1953125,-0.4970703125
2395,-0.8759765625,0.1982421875,-0.4970703125
2396,-0.8828125,0.1962890625,-0.4990234375
2397,-0.880859375,0.1982421875,-0.5
2398,-0.8837890625,0.1962890625,-0.49609375
2399,-0.87890625,0.2001953125,-0.4990234375
2400,-0.884765625,0.201171875,-0.4970703125
2401,-0.884765625,0.2021484375,-0.4970703125
2402,-0.884765625,0.2001953125,-0.5
2403,-0.8779296875,0.2060546875,-0.505859375
2404,-0.884765625,0.2021484375,-0.4990234375
2405,-0.8798828125,0.2060546875,-0.4990234375
2406,-0.8779296875,0.2060546875,-0.50390625
2407,-0.8818359375,0.203125,-0.4970703125
2408,-0.8818359375,0.1982421875,-0.498046875
2409,-0.876953125,0.19921875,-0.498046875
2410,-0.87890625,0.2001953125,-0.4931640625
2411,-0.8759765625,0.1982421875,-0.49609375
2412,-0.876953125,0.201171875,-0.49609375
2413,-0.875,0.1982421875,-0.498046875
2414,-0.876953125,0.197265625,-0.4990234375
2415,-0.875,0.201171875,-0.4990234375
2416,-0.8798828125,0.201171875,-0.498046875
2417,-0.87890625,0.201171875,-0.49609375
2418,-0.87890625,0.1953125,-0.49609375
2419,-0.8828125,0.1953125,-0.49609375
2420,-0.8798828125,0.1962890625,-0.501953125
2421,-0.875,0.197265625,-0.5029296875
2422,-0.8779296875,0.201171875,-0.5
2423,-0.8837890625,0.1982421875,-0.5
2424,-0.87890625,0.205078125,-0.4921875
2425,-0.876953125,0.193359375,-0.494140625
2426,-0.87890625,0.197265625,-0.4912109375
2427,-0.87890625,0.1943359375,-0.4912109375
2428,-0.875,0.193359375,-0.4970703125
2429,-0.880859375,0.1923828125,-0.4970703125
2430,-0.8837890625,0.1953125,-0.4990234375
2431,-0.8798828125,0.1962890625,-0.494140625
2432,-0.875,0.197265625,-0.494140625
2433,-0.8818359375,0.1953125,-0.49609375
2434,-0.87890625,0.1962890625,-0.494140625
2435,-0.880859375,0.1982421875,-0.49609375
2436,-0.880859375,0.193359375,-0.49609375
2437,-0.8828125,0.1953125,-0.4970703125
2438,-0.8779296875,0.1982421875,-0.494140625
2439,-0.87890625,0.19921875,-0.4931640625
2440,-0.8857421875,0.1943359375,-0.494140625
2441,-0.876953125,0.197265625,-0.4951171875
2442,-0.87890625,0.2001953125,-0.49609375
2443,-0.8759765625,0.19921875,-0.4951171875
2444,-0.8779296875,0.19921875,-0.498046875
2445,-0.876953125,0.1943359375,-0.5029296875
2446,-0.8837890625,0.1962890625,-0.4931640625
2447,-0.8779296875,0.1943359375,-0.4951171875
2448,-0.8828125,0.1962890625,-0.4951171875
2449,-0.880859375,0.197265625,-0.494140625
2450,-0.8857421875,0.1982421875,-0.4921875
2451,-0.8798828125,0.2001953125,-0.494140625
2452,-0.8837890625,0.19921875,-0.4951171875
2453,-0.875,0.19921875,-0.494140625
2454,-0.8818359375,0.197265625,-0.4951171875
2455,-0.8857421875,0.1953125,-0.49609375
2456,-0.8828125,0.2001953125,-0.4951171875
2457,-0.8779296875,0.2021484375,-0.49609375
2458,-0.880859375,0.201171875,-0.4970703125
2459,-0.8837890625,0.197265625,-0.5
2460,-0.8876953125,0.197265625,-0.49609375
2461,-0.876953125,0.2001953125,-0.494140625
2462,-0.8828125,0.201171875,-0.4990234375
2463,-0.8837890625,0.1982421875,-0.5
2464,-0.8759765625,0.2021484375,-0.498046875
2465,-0.876953125,0.1962890625,-0.4990234375
2466,-0.87890625,0.2001953125,-0.49609375
2467,-0.8798828125,0.2041015625,-0.5
2468,-0.8759765625,0.1953125,-0.498046875
2469,-0.8818359375,0.1962890625,-0.5
2470,-0.8798828125,0.1982421875,-0.4931640625
2471,-0.8828125,0.1953125,-0.49609375
2472,-0.876953125,0.197265625,-0.4970703125
2473,-0.884765625,0.19921875,-0.501953125
2474,-0.8759765625,0.1953125,-0.4970703125
2475,-0.87890625,0.201171875,-0.5
2476,-0.880859375,0.201171875,-0.4990234375
2477,-0.884765625,0.197265625,-0.498046875
2478,-0.8828125,0.2001953125,-0.49609375
2479,-0.8759765625,0.1904296875,-0.50390625
2480,-0.87890625,0.1982421875,-0.498046875
2481,-0.8759765625,0.197265625,-0.498046875
2482,-0.8837890625,0.1962890625,-0.49609375
2483,-0.8759765625,0.2021484375,-0.498046875
2484,-0.8818359375,0.1953125,-0.494140625
2485,-0.8818359375,0.197265625,-0.49609375
2486,-0.873046875,0.1904296875,-0.4951171875
2487,-0.876953125,0.1953125,-0.494140625
2488,-0.875,0.1943359375,-0.49609375
2489,-0.880859375,0.197265625,-0.4951171875
2490,-0.875,0.1962890625,-0.4970703125
2491,-0.8759765625,0.1982421875,-0.4970703125
2492,-0.875,0.1962890625,-0.4970703125
2493,-0.875,0.189453125,-0.4921875
2494,-0.87890625,0.19921875,-0.49609375
2495,-0.8798828125,0.19921875,-0.4970703125
2496,-0.876953125,0.197265625,-0.4951171875
2497,-0.876953125,0.1962890625,-0.49609375
2498,-0.8837890625,0.1982421875,-0.498046875
2499,-0.8798828125,0.197265625,-0.4931640625
2500,-0.873046875,0.1953125,-0.4931640625
2501,-0.8798828125,0.1953125,-0.494140625
2502,-0.8798828125,0.1953125,-0.49609375
2503,-0.8828125,0.1982421875,-0.49609375
2504,-0.8828125,0.1943359375,-0.49609375
2505,-0.8818359375,0.2001953125,-0.49609375
2506,-0.875,0.197265625,-0.498046875
2507,-0.876953125,0.197265625,-0.4951171875
2508,-0.8798828125,0.19921875,-0.4970703125
2509,-0.880859375,0.1953125,-0.49609375
2510,-0.880859375,0.1982421875,-0.494140625
2511,-0.8779296875,0.193359375,-0.49609375
2512,-0.880859375,0.1962890625,-0.498046875
2513,-0.8759765625,0.197265625,-0.5
2514,-0.8818359375,0.197265625,-0.4921875
2515,-0.875,0.1962890625,-0.498046875
2516,-0.87890625,0.1982421875,-0.4931640625
2517,-0.87890625,0.1953125,-0.49609375
2518,-0.880859375,0.2021484375,-0.4931640625
2519,-0.8857421875,0.19921875,-0.5
2520,-0.875,0.1943359375,-0.5009765625
2521,-0.87890625,0.1982421875,-0.5009765625
2522,-0.8759765625,0.1962890625,-0.4970703125
2523,-0.875,0.197265625,-0.498046875
2524,-0.876953125,0.208984375,-0.4970703125
2525,-0.8818359375,0.1982421875,-0.498046875
2526,-0.876953125,0.197265625,-0.4951171875
2527,-0.8740234375,0.197265625,-0.48828125
2528,-0.87109375,0.1923828125,-0.494140625
2529,-0.875,0.197265625,-0.4951171875
2530,-0.876953125,0.1943359375,-0.4921875
2531,-0.8818359375,0.193359375,-0.505859375
2532,-0.880859375,0.193359375,-0.498046875
2533,-0.880859375,0.201171875,-0.501953125
2534,-0.8837890625,0.197265625,-0.49609375
2535,-0.8740234375,0.193359375,-0.49609375
2536,-0.8759765625,0.1982421875,-0.501953125
2537,-0.8857421875,0.2021484375,-0.49609375
2538,-0.8876953125,0.197265625,-0.4970703125
2539,-0.876953125,0.193359375,-0.494140625
2540,-0.8759765625,0.1923828125,-0.498046875
2541,-0.8759765625,0.1943359375,-0.4990234375
2542,-0.8798828125,0.1923828125,-0.4970703125
2543,-0.8798828125,0.1953125,-0.498046875
2544,-0.8779296875,0.19140625,-0.498046875
2545,-0.880859375,0.1962890625,-0.4951171875
2546,-0.8779296875,0.1953125,-0.490234375
2547,-0.87890625,0.1943359375,-0.494140625
2548,-0.8759765625,0.1845703125,-0.49609375
2549,-0.884765625,0.1904296875,-0.501953125
2550,-0.87890625,0.193359375,-0.5
2551,-0.876953125,0.1943359375,-0.50390625
2552,-0.875,0.197265625,-0.5
2553,-0.8837890625,0.1982421875,-0.5009765625
2554,-0.8759765625,0.1923828125,-0.494140625
2555,-0.8759765625,0.1943359375,-0.4970703125
2556,-0.87890625,0.197265625,-0.494140625
2557,-0.8759765625,0.1982421875,-0.498046875
2558,-0.8837890625,0.201171875,-0.49609375
2559,-0.8779296875,0.1943359375,-0.49609375
2560,-0.876953125,0.19140625,-0.4951171875
2561,-0.873046875,0.189453125,-0.4970703125
2562,-0.8759765625,0.1923828125,-0.4990234375
2563,-0.8779296875,0.201171875,-0.501953125
2564,-0.8857421875,0.2041015625,-0.5078125
2565,-0.884765625,0.197265625,-0.5
2566,-0.87890625,0.2041015625,-0.501953125
2567,-0.880859375,0.2001953125,-0.5068359375
2568,-0.884765625,0.19921875,-0.4990234375
2569,-0.876953125,0.1943359375,-0.5009765625
2570,-0.87890625,0.201171875,-0.5009765625
2571,-0.8837890625,0.203125,-0.4970703125
2572,-0.880859375,0.1962890625,-0.5
2573,-0.876953125,0.203125,-0.494140625
2574,-0.87890625,0.2001953125,-0.49609375
2575,-0.8828125,0.193359375,-0.4951171875
2576,-0.8759765625,0.197265625,-0.4951171875
2577,-0.8798828125,0.197265625,-0.498046875
2578,-0.8798828125,0.203125,-0.49609375
2579,-0.8740234375,0.1962890625,-0.4970703125
2580,-0.876953125,0.1943359375,-0.494140625
2581,-0.87890625,0.1953125,-0.4951171875
2582,-0.876953125,0.197265625,-0.4931640625
2583,-0.880859375,0.19140625,-0.4921875
2584,-0.8759765625,0.1923828125,-0.4931640625
2585,-0.8759765625,0.197265625,-0.4912109375
2586,-0.875,0.1953125,-0.5
2587,-0.8837890625,0.1982421875,-0.501953125
2588,-0.8798828125,0.19921875,-0.5009765625
2589,-0.880859375,0.1982421875,-0.5048828125
2590,-0.884765625,0.2001953125,-0.5009765625
2591,-0.8798828125,0.1962890625,-0.5009765625
2592,-0.87890625,0.203125,-0.4931640625
2593,-0.8837890625,0.2001953125,-0.49609375
2594,-0.875,0.201171875,-0.49609375
2595,-0.8798828125,0.193359375,-0.49609375
2596,-0.8759765625,0.1953125,-0.49609375
2597,-0.8798828125,0.1865234375,-0.4912109375
2598,-0.8759765625,0.1943359375,-0.4951171875
2599,-0.8818359375,0.1923828125,-0.498046875
2600,-0.8818359375,0.1904296875,-0.4931640625
2601,-0.87890625,0.1904296875,-0.4931640625
2602,-0.87890625,0.1904296875,-0.494140625
2603,-0.873046875,0.1953125,-0.50390625
2604,-0.8798828125,0.1962890625,-0.501953125
2605,-0.8857421875,0.2021484375,-0.5029296875
2606,-0.880859375,0.197265625,-0.5029296875
2607,-0.8818359375,0.1953125,-0.4970703125
2608,-0.876953125,0.193359375,-0.4990234375
2609,-0.8759765625,0.1962890625,-0.4970703125
2610,-0.8759765625,0.1943359375,-0.49609375
2611,-0.8818359375,0.1865234375,-0.4951171875
2612,-0.8779296875,0.19140625,-0.4970703125
2613,-0.873046875,0.193359375,-0.4970703125
2614,-0.8818359375,0.1982421875,-0.498046875
2615,-0.8740234375,0.193359375,-0.498046875
2616,-0.8779296875,0.1962890625,-0.50390625
2617,-0.8798828125,0.197265625,-0.498046875
2618,-0.8759765625,0.1953125,-0.5009765625
2619,-0.8818359375,0.1982421875,-0.50390625
2620,-0.873046875,0.1953125,-0.498046875
2621,-0.876953125,0.201171875,-0.5
2622,-0.8798828125,0.197265625,-0.4970703125
2623,-0.8759765625,0.1962890625,-0.4970703125
2624,-0.8828125,0.19921875,-0.5
2625,-0.876953125,0.1962890625,-0.49609375
2626,-0.8779296875,0.1943359375,-0.49609375
2627,-0.875,0.201171875,-0.5078125
2628,-0.8779296875,0.201171875,-0.5
2629,-0.8759765625,0.1962890625,-0.5029296875
2630,-0.8818359375,0.1923828125,-0.5078125
2631,-0.8759765625,0.19921875,-0.5009765625
2632,-0.876953125,0.2001953125,-0.4990234375
2633,-0.865234375,0.1982421875,-0.5029296875
2634,-0.8857421875,0.18359375,-0.4970703125
2635,-0.8720703125,0.197265625,-0.50390625
2636,-0.875,0.1982421875,-0.5
2637,-0.8779296875,0.201171875,-0.4990234375
2638,-0.8759765625,0.1962890625,-0.498046875
2639,-0.8740234375,0.1982421875,-0.498046875
2640,-0.87890625,0.2001953125,-0.49609375
2641,-0.8818359375,0.1962890625,-0.49609375
2642,-0.876953125,0.2001953125,-0.5
2643,-0.8759765625,0.19921875,-0.49609375
2644,-0.8779296875,0.1962890625,-0.5009765625
2645,-0.8798828125,0.193359375,-0.5
2646,-0.8828125,0.197265625,-0.4990234375
2647,-0.876953125,0.19140625,-0.50390625
2648,-0.8779296875,0.1953125,-0.5
2649,-0.880859375,0.1982421875,-0.498046875
2650,-0.8759765625,0.1962890625,-0.498046875
2651,-0.880859375,0.197265625,-0.498046875
2652,-0.8720703125,0.1923828125,-0.5009765625
2653,-0.8740234375,0.1923828125,-0.498046875
2654,-0.87890625,0.1943359375,-0.5029296875
2655,-0.8779296875,0.2001953125,-0.5029296875
2656,-0.875,0.1943359375,-0.4990234375
2657,-0.875,0.197265625,-0.4990234375
2658,-0.8759765625,0.19921875,-0.5009765625
2659,-0.875,0.1953125,-0.4970703125
2660,-0.875,0.197265625,-0.4970703125
2661,-0.873046875,0.1962890625,-0.5009765625
2662,-0.8759765625,0.201171875,-0.5029296875
2663,-0.8740234375,0.1943359375,-0.5068359375
2664,-0.875,0.19140625,-0.5048828125
2665,-0.87890625,0.1904296875,-0.5
2666,-0.8759765625,0.1923828125,-0.498046875
2667,-0.87890625,0.2001953125,-0.5078125
2668,-0.8740234375,0.203125,-0.501953125
2669,-0.87890625,0.19921875,-0.498046875
2670,-0.87890625,0.197265625,-0.5029296875
2671,-0.8759765625,0.2021484375,-0.5
2672,-0.8779296875,0.1953125,-0.498046875
2673,-0.8759765625,0.193359375,-0.4970703125
2674,-0.873046875,0.1943359375,-0.501953125
2675,-0.880859375,0.1923828125,-0.501953125
2676,-0.875,0.1982421875,-0.4951171875
2677,-0.875,0.1982421875,-0.5009765625
2678,-0.875,0.1953125,-0.4970703125
2679,-0.87890625,0.19921875,-0.498046875
2680,-0.87890625,0.1962890625,-0.4990234375
2681,-0.880859375,0.193359375,-0.5
2682,-0.8740234375,0.1953125,-0.501953125
2683,-0.875,0.1982421875,-0.5068359375
2684,-0.876953125,0.1953125,-0.5068359375
2685,-0.875,0.1923828125,-0.5048828125
2686,-0.8720703125,0.185546875,-0.5009765625
2687,-0.8720703125,0.1904296875,-0.5048828125
2688,-0.8798828125,0.19921875,-0.5029296875
2689,-0.8779296875,0.2021484375,-0.50390625
2690,-0.8798828125,0.1962890625,-0.501953125
2691,-0.8828125,0.197265625,-0.5029296875
2692,-0.8759765625,0.1982421875,-0.50390625
2693,-0.876953125,0.197265625,-0.4970703125
2694,-0.875,0.1953125,-0.5029296875
2695,-0.876953125,0.1953125,-0.5
2696,-0.875,0.1962890625,-0.498046875
2697,-0.880859375,0.197265625,-0.5029296875
2698,-0.8759765625,0.2001953125,-0.498046875
2699,-0.875,0.2001953125,-0.505859375
2700,-0.8740234375,0.1982421875,-0.4970703125
2701,-0.873046875,0.1962890625,-0.4970703125
2702,-0.87109375,0.1982421875,-0.49609375
2703,-0.8720703125,0.189453125,-0.498046875
2704,-0.875,0.201171875,-0.4970703125
2705,-0.87890625,0.1982421875,-0.494140625
2706,-0.8759765625,0.2021484375,-0.5
2707,-0.876953125,0.201171875,-0.49609375
2708,-0.8759765625,0.19140625,-0.4970703125
2709,-0.8779296875,0.1943359375,-0.501953125
2710,-0.8759765625,0.1953125,-0.5
2711,-0.8779296875,0.1982421875,-0.4990234375
2712,-0.8779296875,0.201171875,-0.50390625
2713,-0.880859375,0.2021484375,-0.498046875
2714,-0.8740234375,0.197265625,-0.501953125
2715,-0.8837890625,0.1962890625,-0.5
2716,-0.8759765625,0.1943359375,-0.4951171875
2717,-0.875,0.1982421875,-0.498046875
2718,-0.8798828125,0.1953125,-0.5048828125
2719,-0.87890625,0.1943359375,-0.501953125
2720,-0.8759765625,0.1982421875,-0.5068359375
2721,-0.875,0.1982421875,-0.5048828125
2722,-0.8759765625,0.1943359375,-0.5009765625
2723,-0.873046875,0.197265625,-0.4970703125
2724,-0.873046875,0.1875,-0.5009765625
2725,-0.8798828125,0.1962890625,-0.509765625
2726,-0.8818359375,0.2001953125,-0.5009765625
2727,-0.875,0.19140625,-0.5029296875
2728,-0.8798828125,0.197265625,-0.4951171875
2729,-0.875,0.193359375,-0.5048828125
2730,-0.876953125,0.19921875,-0.4970703125
2731,-0.876953125,0.1982421875,-0.4970703125
2732,-0.87890625,0.201171875,-0.498046875
2733,-0.8798828125,0.1953125,-0.5009765625
2734,-0.8740234375,0.1962890625,-0.50390625
2735,-0.875,0.2001953125,-0.5
2736,-0.876953125,0.1962890625,-0.5
2737,-0.875,0.201171875,-0.498046875
2738,-0.8740234375,0.203125,-0.5009765625
2739,-0.87890625,0.201171875,-0.50390625
2740,-0.8740234375,0.1982421875,-0.5009765625
2741,-0.8720703125,0.1953125,-0.5078125
2742,-0.8779296875,0.197265625,-0.50390625
2743,-0.8779296875,0.2001953125,-0.501953125
2744,-0.8759765625,0.1953125,-0.498046875
2745,-0.875,0.1953125,-0.4990234375
2746,-0.873046875,0.1943359375,-0.5
2747,-0.8740234375,0.2001953125,-0.498046875
2748,-0.875,0.193359375,-0.4970703125
2749,-0.875,0.1962890625,-0.494140625
2750,-0.875,0.1953125,-0.4970703125
2751,-0.876953125,0.1943359375,-0.498046875
2752,-0.880859375,0.1962890625,-0.5009765625
2753,-0.875,0.1982421875,-0.5
2754,-0.8828125,0.2001953125,-0.505859375
2755,-0.8759765625,0.2021484375,-0.5078125
2756,-0.8828125,0.203125,-0.5087890625
2757,-0.8779296875,0.1982421875,-0.5048828125
2758,-0.8759765625,0.1982421875,-0.5029296875
2759,-0.8798828125,0.2001953125,-0.5078125
2760,-0.875,0.2001953125,-0.498046875
2761,-0.8759765625,0.197265625,-0.4970703125
2762,-0.8798828125,0.2021484375,-0.4970703125
2763,-0.875,0.1953125,-0.498046875
2764,-0.8759765625,0.2021484375,-0.4990234375
2765,-0.87890625,0.2001953125,-0.4970703125
2766,-0.8759765625,0.2001953125,-0.498046875
2767,-0.880859375,0.197265625,-0.5029296875
2768,-0.8740234375,0.2021484375,-0.5068359375
2769,-0.8779296875,0.2001953125,-0.501953125
2770,-0.875,0.2021484375,-0.505859375
2771,-0.8798828125,0.203125,-0.5068359375
2772,-0.8779296875,0.2041015625,-0.505859375
2773,-0.8759765625,0.2001953125,-0.501953125
2774,-0.875,0.197265625,-0.5009765625
2775,-0.8701171875,0.193359375,-0.501953125
2776,-0.873046875,0.1875,-0.5068359375
2777,-0.875,0.197265625,-0.50390625
2778,-0.873046875,0.19140625,-0.5048828125
2779,-0.876953125,0.193359375,-0.5
2780,-0.873046875,0.1904296875,-0.4970703125
2781,-0.8671875,0.19140625,-0.4970703125
2782,-0.87890625,0.1943359375,-0.5
2783,-0.869140625,0.197265625,-0.5048828125
2784,-0.87109375,0.1923828125,-0.5068359375
2785,-0.8740234375,0.1953125,-0.5078125
2786,-0.8720703125,0.2001953125,-0.505859375
2787,-0.8681640625,0.201171875,-0.505859375
2788,-0.8701171875,0.2001953125,-0.505859375
2789,-0.8720703125,0.2021484375,-0.50390625
2790,-0.873046875,0.203125,-0.501953125
2791,-0.8681640625,0.2001953125,-0.4970703125
2792,-0.8701171875,0.1962890625,-0.501953125
2793,-0.869140625,0.197265625,-0.498046875
2794,-0.869140625,0.1943359375,-0.5029296875
2795,-0.865234375,0.19921875,-0.505859375
2796,-0.865234375,0.1962890625,-0.501953125
2797,-0.873046875,0.1962890625,-0.5048828125
2798,-0.876953125,0.19921875,-0.5068359375
2799,-0.87109375,0.203125,-0.509765625
2800,-0.8740234375,0.2041015625,-0.5068359375
2801,-0.8779296875,0.2041015625,-0.501953125
2802,-0.876953125,0.197265625,-0.50390625
2803,-0.873046875,0.203125,-0.5078125
2804,-0.876953125,0.2001953125,-0.5087890625
2805,-0.8759765625,0.2041015625,-0.5087890625
2806,-0.873046875,0.2021484375,-0.5078125
2807,-0.875,0.2041015625,-0.5068359375
2808,-0.875,0.2001953125,-0.5078125
2809,-0.8759765625,0.2041015625,-0.50390625
2810,-0.875,0.2080078125,-0.5087890625
2811,-0.8740234375,0.208984375,-0.51171875
2812,-0.875,0.205078125,-0.509765625
2813,-0.876953125,0.201171875,-0.513671875
2814,-0.8740234375,0.201171875,-0.51953125
2815,-0.873046875,0.2236328125,-0.513671875
2816,-0.8828125,0.193359375,-0.484375
2817,-0.8720703125,0.19140625,-0.5185546875
2818,-0.8662109375,0.1953125,-0.513671875
2819,-0.869140625,0.205078125,-0.509765625
2820,-0.8720703125,0.203125,-0.513671875
2821,-0.8720703125,0.203125,-0.513671875
2822,-0.8720703125,0.2021484375,-0.5146484375
2823,-0.875,0.21484375,-0.5185546875
2824,-0.880859375,0.2001953125,-0.494140625
2825,-0.87890625,0.1943359375,-0.513671875
2826,-0.8681640625,0.201171875,-0.5126953125
2827,-0.8759765625,0.205078125,-0.515625
2828,-0.8740234375,0.2294921875,-0.53125
2829,-0.884765625,0.197265625,-0.48828125
2830,-0.869140625,0.1982421875,-0.515625
2831,-0.8662109375,0.1962890625,-0.5205078125
2832,-0.8740234375,0.2353515625,-0.54296875
2833,-0.8837890625,0.19921875,-0.490234375
2834,-0.87109375,0.1982421875,-0.5048828125
2835,-0.8701171875,0.2021484375,-0.5068359375
2836,-0.873046875,0.2177734375,-0.521484375
2837,-0.87890625,0.1953125,-0.5068359375
2838,-0.86328125,0.193359375,-0.5048828125
2839,-0.873046875,0.1962890625,-0.505859375
2840,-0.875,0.1962890625,-0.50390625
2841,-0.8740234375,0.2041015625,-0.505859375
2842,-0.8671875,0.2041015625,-0.505859375
2843,-0.873046875,0.1962890625,-0.50390625
