,accelerometerAccelerationX(G),accelerometerAccelerationY(G),accelerometerAccelerationZ(G)
0,0.00390625,-0.9794921875,-0.01953125
1,0.0048828125,-0.9814453125,-0.0185546875
2,0.0068359375,-0.9853515625,-0.0146484375
3,0.001953125,-0.986328125,-0.0205078125
4,0.0029296875,-0.9873046875,-0.0185546875
5,0.0048828125,-0.9765625,-0.0166015625
6,0.0048828125,-0.9814453125,-0.0126953125
7,-0.0029296875,-0.982421875,-0.0185546875
8,0.00390625,-0.986328125,-0.0146484375
9,0.0,-0.984375,-0.01953125
10,0.0,-0.9833984375,-0.015625
11,0.0,-0.98046875,-0.0146484375
12,0.00390625,-0.990234375,-0.009765625
13,0.001953125,-0.986328125,-0.0126953125
14,0.0048828125,-0.98828125,-0.0166015625
15,0.00390625,-0.986328125,-0.013671875
16,0.0,-0.982421875,-0.0185546875
17,0.00390625,-0.9775390625,-0.0146484375
18,0.00390625,-0.9814453125,-0.015625
19,0.0029296875,-0.978515625,-0.015625
20,0.0029296875,-0.9833984375,-0.017578125
21,0.0048828125,-0.984375,-0.01953125
22,0.0068359375,-0.9814453125,-0.01953125
23,0.001953125,-0.986328125,-0.0166015625
24,0.0078125,-0.9921875,-0.0205078125
25,0.0048828125,-0.98828125,-0.013671875
26,0.0068359375,-1.0,-0.0146484375
27,0.009765625,-0.9970703125,-0.0205078125
28,0.0048828125,-0.998046875,-0.0185546875
29,0.005859375,-0.990234375,-0.017578125
30,0.0029296875,-0.98828125,-0.0126953125
31,0.0029296875,-0.984375,-0.0185546875
32,0.0,-0.984375,-0.01953125
33,0.001953125,-0.98046875,-0.0185546875
34,0.0048828125,-0.978515625,-0.0185546875
35,0.005859375,-0.974609375,-0.0166015625
36,0.0048828125,-0.982421875,-0.015625
37,0.0068359375,-0.9775390625,-0.017578125
38,0.009765625,-0.9794921875,-0.015625
39,0.009765625,-0.9814453125,-0.0205078125
40,0.0068359375,-0.9833984375,-0.01953125
41,0.01171875,-0.9833984375,-0.01953125
42,0.0068359375,-0.986328125,-0.0185546875
43,0.0009765625,-0.9833984375,-0.0126953125
44,0.001953125,-0.9892578125,-0.015625
45,0.0048828125,-0.98828125,-0.0185546875
46,0.005859375,-0.984375,-0.017578125
47,-0.001953125,-0.9892578125,-0.0146484375
48,0.0068359375,-0.986328125,-0.0126953125
49,0.005859375,-0.9873046875,-0.017578125
50,0.001953125,-0.984375,-0.01953125
51,0.0068359375,-0.986328125,-0.0166015625
52,0.0126953125,-0.990234375,-0.0185546875
53,0.0087890625,-0.986328125,-0.0185546875
54,0.0068359375,-0.9873046875,-0.017578125
55,0.0107421875,-0.9873046875,-0.0185546875
56,0.0048828125,-0.9892578125,-0.0185546875
57,0.0048828125,-0.986328125,-0.017578125
58,0.005859375,-0.994140625,-0.017578125
59,0.005859375,-0.994140625,-0.017578125
60,0.0068359375,-0.9951171875,-0.021484375
61,0.001953125,-0.9921875,-0.021484375
62,0.0009765625,-0.9892578125,-0.015625
63,0.00390625,-0.986328125,-0.0205078125
64,0.0,-0.9912109375,-0.0166015625
65,0.0029296875,-0.98828125,-0.0205078125
66,0.0029296875,-0.982421875,-0.0205078125
67,0.0078125,-0.9853515625,-0.01953125
68,0.00390625,-0.9794921875,-0.0185546875
69,0.0087890625,-0.986328125,-0.0224609375
70,0.005859375,-0.98828125,-0.017578125
71,0.01171875,-0.986328125,-0.0166015625
72,0.0126953125,-0.9853515625,-0.0205078125
73,0.0078125,-0.9873046875,-0.0146484375
74,0.0087890625,-0.9873046875,-0.021484375
75,0.009765625,-0.984375,-0.0263671875
76,0.0107421875,-0.982421875,-0.021484375
77,0.005859375,-0.9873046875,-0.017578125
78,0.0048828125,-0.9853515625,-0.021484375
79,0.00390625,-0.9833984375,-0.021484375
80,-0.0009765625,-0.9853515625,-0.015625
81,0.00390625,-0.9853515625,-0.0166015625
82,0.00390625,-0.9853515625,-0.0185546875
83,0.0048828125,-0.9833984375,-0.017578125
84,0.0048828125,-0.9814453125,-0.0205078125
85,0.0048828125,-0.9912109375,-0.0166015625
86,0.0068359375,-0.986328125,-0.0185546875
87,0.009765625,-0.990234375,-0.017578125
88,0.0068359375,-0.994140625,-0.0185546875
89,0.00390625,-0.98046875,-0.0185546875
90,0.0068359375,-0.990234375,-0.01953125
91,0.00390625,-0.986328125,-0.0166015625
92,0.0068359375,-0.984375,-0.0166015625
93,0.0029296875,-0.9873046875,-0.021484375
94,0.0048828125,-0.984375,-0.0234375
95,0.0048828125,-0.9814453125,-0.0205078125
96,0.0078125,-0.984375,-0.0166015625
97,0.009765625,-0.9853515625,-0.0185546875
98,0.005859375,-0.9853515625,-0.0263671875
99,0.0068359375,-0.984375,-0.0185546875
100,0.0078125,-0.9853515625,-0.0146484375
101,0.0087890625,-0.9951171875,-0.017578125
102,0.01171875,-0.98828125,-0.01953125
103,0.0068359375,-0.9853515625,-0.01953125
104,0.01171875,-0.9853515625,-0.01953125
105,0.0068359375,-0.98046875,-0.01953125
106,0.0087890625,-0.982421875,-0.021484375
107,0.0107421875,-0.9833984375,-0.0146484375
108,0.0126953125,-0.9853515625,-0.0166015625
109,0.0078125,-0.9833984375,-0.017578125
110,0.0087890625,-0.9853515625,-0.01953125
111,0.0126953125,-0.978515625,-0.0146484375
112,0.0087890625,-0.984375,-0.01953125
113,0.0078125,-0.9873046875,-0.01953125
114,0.0126953125,-0.986328125,-0.0234375
115,0.01171875,-0.990234375,-0.021484375
116,0.0126953125,-0.986328125,-0.0166015625
117,0.013671875,-0.9873046875,-0.021484375
118,0.017578125,-0.98828125,-0.021484375
119,0.0185546875,-0.9951171875,-0.0224609375
120,0.0166015625,-0.9892578125,-0.0244140625
121,0.0166015625,-0.986328125,-0.0263671875
122,0.01953125,-0.990234375,-0.0263671875
123,0.0166015625,-0.9853515625,-0.0205078125
124,0.015625,-0.984375,-0.025390625
125,0.015625,-0.9873046875,-0.0263671875
126,0.0126953125,-0.9921875,-0.0263671875
127,0.015625,-0.9853515625,-0.0185546875
128,0.0146484375,-0.9892578125,-0.017578125
129,0.009765625,-0.9873046875,-0.021484375
130,0.0087890625,-0.9873046875,-0.021484375
131,0.0107421875,-0.9794921875,-0.01953125
132,0.0087890625,-0.9794921875,-0.0205078125
133,0.0068359375,-0.9853515625,-0.0205078125
134,0.0029296875,-0.9736328125,-0.0185546875
135,0.0009765625,-0.978515625,-0.015625
136,-0.0029296875,-0.9697265625,-0.01953125
137,-0.00390625,-0.9716796875,-0.0146484375
138,-0.00390625,-0.9755859375,-0.009765625
139,-0.0078125,-0.970703125,-0.009765625
140,-0.0068359375,-0.98046875,-0.01171875
141,-0.0068359375,-0.9814453125,-0.015625
142,-0.0078125,-0.98046875,-0.009765625
143,-0.0029296875,-0.982421875,-0.0107421875
144,-0.0087890625,-0.9833984375,-0.01171875
145,0.0029296875,-0.9921875,-0.0126953125
146,-0.0029296875,-0.9853515625,-0.0146484375
147,0.0048828125,-0.9951171875,-0.013671875
148,0.00390625,-1.0078125,-0.01953125
149,0.0078125,-0.998046875,-0.0146484375
150,0.0029296875,-1.0,-0.0126953125
151,0.005859375,-0.9892578125,-0.013671875
152,0.005859375,-0.986328125,-0.0185546875
153,0.0068359375,-0.9873046875,-0.017578125
154,0.0087890625,-0.9853515625,-0.017578125
155,0.0068359375,-0.98828125,-0.0087890625
156,0.0078125,-0.9892578125,-0.015625
157,0.0107421875,-0.9990234375,-0.013671875
158,0.0048828125,-0.982421875,-0.0185546875
159,0.0078125,-0.98828125,-0.01171875
160,0.005859375,-0.998046875,-0.0126953125
161,0.0078125,-0.9892578125,-0.0107421875
162,0.0048828125,-0.9912109375,-0.013671875
163,0.005859375,-0.998046875,-0.017578125
164,0.00390625,-0.998046875,-0.0185546875
165,0.0068359375,-0.994140625,-0.017578125
166,0.009765625,-0.98828125,-0.01953125
167,0.0107421875,-0.990234375,-0.0166015625
168,0.0087890625,-0.9873046875,-0.0126953125
169,0.015625,-0.9892578125,-0.0166015625
170,0.015625,-0.982421875,-0.013671875
171,0.017578125,-0.982421875,-0.013671875
172,0.01953125,-0.984375,-0.015625
173,0.021484375,-0.982421875,-0.0087890625
174,0.021484375,-0.98046875,-0.0126953125
175,0.013671875,-0.9794921875,-0.0107421875
176,0.013671875,-0.9794921875,-0.0107421875
177,0.0087890625,-0.9814453125,-0.005859375
178,0.0068359375,-0.98046875,-0.00390625
179,0.00390625,-0.9814453125,0.0009765625
180,0.0009765625,-0.98046875,-0.005859375
181,0.0009765625,-0.978515625,-0.0068359375
182,0.0029296875,-0.9814453125,-0.001953125
183,0.0,-0.9892578125,-0.0009765625
184,-0.0029296875,-0.98828125,-0.0068359375
185,0.0,-0.990234375,-0.0107421875
186,0.001953125,-0.9951171875,-0.00390625
187,0.0009765625,-0.9931640625,-0.005859375
188,0.005859375,-0.9931640625,-0.0068359375
189,0.00390625,-0.998046875,-0.005859375
190,0.005859375,-1.009765625,-0.0068359375
191,0.01171875,-0.9931640625,-0.0146484375
192,0.01171875,-0.9853515625,-0.0224609375
193,0.0205078125,-0.9833984375,-0.0283203125
194,0.0185546875,-0.97265625,-0.03125
195,0.0146484375,-0.9677734375,-0.0263671875
196,0.0078125,-0.98046875,-0.013671875
197,0.005859375,-0.982421875,-0.005859375
198,0.001953125,-0.9921875,0.0
199,0.001953125,-1.0,0.0
200,0.0048828125,-0.994140625,0.0078125
201,0.009765625,-1.0009765625,0.001953125
202,0.0087890625,-1.0,-0.0009765625
203,0.0048828125,-1.0029296875,-0.013671875
204,0.0078125,-1.0009765625,-0.017578125
205,0.0078125,-0.9931640625,-0.01953125
206,0.009765625,-0.9951171875,-0.0263671875
207,0.00390625,-0.9873046875,-0.025390625
208,0.0087890625,-0.9853515625,-0.0244140625
209,0.005859375,-0.990234375,-0.017578125
210,0.005859375,-0.9814453125,-0.017578125
211,0.0048828125,-0.98046875,-0.0078125
212,0.0078125,-0.986328125,-0.01171875
213,0.00390625,-0.9775390625,-0.01171875
214,0.0146484375,-0.978515625,-0.0107421875
215,0.0107421875,-0.9794921875,-0.0107421875
216,0.015625,-0.9794921875,-0.01171875
217,0.013671875,-0.98046875,-0.013671875
218,0.015625,-0.978515625,-0.0087890625
219,0.0126953125,-0.986328125,-0.0068359375
220,0.017578125,-0.9833984375,-0.0078125
221,0.0126953125,-0.986328125,-0.00390625
222,0.0087890625,-0.986328125,-0.009765625
223,0.0087890625,-0.98828125,-0.0087890625
224,0.01171875,-0.98828125,-0.013671875
225,0.0087890625,-0.9873046875,-0.01171875
226,0.0107421875,-0.9873046875,-0.009765625
227,0.01171875,-0.9931640625,-0.01171875
228,0.01171875,-0.990234375,-0.0126953125
229,0.0087890625,-0.986328125,-0.01171875
230,0.005859375,-0.982421875,-0.009765625
231,0.0029296875,-0.9853515625,-0.013671875
232,0.0048828125,-0.9794921875,-0.0126953125
233,-0.0009765625,-0.9775390625,-0.0078125
234,-0.0009765625,-0.978515625,0.0
235,-0.0048828125,-0.98046875,-0.0048828125
236,-0.0009765625,-0.98046875,-0.0087890625
237,-0.009765625,-0.9833984375,-0.01171875
238,-0.0068359375,-0.982421875,-0.005859375
239,-0.0029296875,-0.9873046875,-0.009765625
240,-0.001953125,-0.990234375,-0.0107421875
241,0.0009765625,-0.9912109375,-0.0107421875
242,0.0029296875,-0.9912109375,-0.0146484375
243,0.00390625,-0.9931640625,-0.0126953125
244,0.0078125,-0.998046875,-0.01171875
245,0.0078125,-0.994140625,-0.0078125
246,0.001953125,-0.99609375,-0.0146484375
247,0.0068359375,-0.98828125,-0.00390625
248,0.01171875,-0.990234375,-0.0107421875
249,0.0087890625,-0.98828125,-0.0107421875
250,0.0087890625,-0.9794921875,-0.0126953125
251,0.015625,-0.98046875,-0.0146484375
252,0.01171875,-0.9814453125,-0.005859375
253,0.0126953125,-0.98046875,-0.0087890625
254,0.0146484375,-0.98046875,-0.0068359375
255,0.009765625,-0.98046875,-0.0107421875
256,0.0078125,-0.984375,-0.0087890625
257,0.009765625,-0.9873046875,-0.0107421875
258,0.013671875,-0.9912109375,-0.015625
259,0.017578125,-0.986328125,-0.0166015625
260,0.0146484375,-0.986328125,-0.0205078125
261,0.01953125,-0.9921875,-0.0146484375
262,0.0185546875,-0.98828125,-0.01953125
263,0.0185546875,-0.9912109375,-0.017578125
264,0.0234375,-0.99609375,-0.01953125
265,0.0244140625,-0.9921875,-0.021484375
266,0.0205078125,-0.990234375,-0.0166015625
267,0.0205078125,-0.9951171875,-0.0166015625
268,0.021484375,-1.0009765625,-0.0087890625
269,0.013671875,-0.994140625,-0.01171875
270,0.0126953125,-0.9921875,-0.0166015625
271,0.017578125,-0.998046875,-0.013671875
272,0.0107421875,-0.9990234375,-0.0146484375
273,0.0068359375,-1.0009765625,-0.015625
274,0.0068359375,-0.9951171875,-0.0146484375
275,0.0029296875,-0.9873046875,-0.017578125
276,0.0,-0.98828125,-0.0166015625
277,0.0009765625,-0.9833984375,-0.017578125
278,0.005859375,-0.98046875,-0.0107421875
279,0.001953125,-0.974609375,-0.009765625
280,0.0029296875,-0.9794921875,-0.0126953125
281,0.0078125,-0.9833984375,-0.0126953125
282,0.0087890625,-0.982421875,-0.0126953125
283,0.013671875,-0.982421875,-0.013671875
284,0.0078125,-0.9794921875,-0.015625
285,0.0078125,-0.982421875,-0.0185546875
286,0.0087890625,-0.9833984375,-0.015625
287,0.0068359375,-0.984375,-0.0126953125
288,0.005859375,-0.978515625,-0.0087890625
289,0.0068359375,-0.986328125,-0.001953125
290,0.005859375,-0.9931640625,-0.0029296875
291,0.001953125,-0.99609375,0.0009765625
292,0.0029296875,-0.9951171875,0.0009765625
293,-0.0029296875,-0.9892578125,-0.0009765625
294,-0.001953125,-0.9970703125,0.001953125
295,0.0009765625,-0.9912109375,-0.0068359375
296,-0.001953125,-0.9912109375,0.0
297,0.0,-0.990234375,0.0
298,0.0009765625,-0.98828125,0.0
299,0.0009765625,-0.98828125,0.0029296875
300,0.005859375,-0.9833984375,0.00390625
301,0.0009765625,-0.98046875,0.0
302,0.00390625,-0.982421875,-0.0009765625
303,0.0087890625,-0.978515625,-0.0029296875
304,0.009765625,-0.9716796875,-0.00390625
305,0.0068359375,-0.9775390625,-0.00390625
306,0.0087890625,-0.978515625,0.001953125
307,0.0087890625,-0.9765625,0.0078125
308,0.0068359375,-0.9775390625,0.001953125
309,0.0068359375,-0.9794921875,0.0068359375
310,0.0068359375,-0.9814453125,0.009765625
311,0.0029296875,-0.9833984375,0.005859375
312,0.0068359375,-0.9833984375,0.001953125
313,0.0068359375,-0.984375,-0.001953125
314,0.0107421875,-0.9853515625,0.00390625
315,0.001953125,-0.98828125,0.0
316,0.005859375,-0.9853515625,-0.0009765625
317,0.0078125,-0.990234375,-0.005859375
318,0.0087890625,-0.9873046875,-0.001953125
319,0.0107421875,-0.98828125,-0.0048828125
320,0.00390625,-0.986328125,-0.005859375
321,0.0068359375,-0.98828125,-0.0078125
322,0.0087890625,-0.984375,-0.0126953125
323,0.005859375,-0.990234375,-0.0029296875
324,0.0126953125,-0.9873046875,-0.009765625
325,0.0068359375,-0.9853515625,-0.0126953125
326,0.013671875,-0.9853515625,-0.009765625
327,0.0087890625,-0.986328125,-0.005859375
328,0.0068359375,-0.9931640625,-0.0087890625
329,0.0068359375,-0.9990234375,-0.01171875
330,0.0078125,-0.98828125,-0.0126953125
331,0.0078125,-0.986328125,-0.0166015625
332,0.0078125,-0.9921875,-0.005859375
333,0.015625,-0.9921875,-0.01171875
334,0.01171875,-0.9921875,-0.01171875
335,0.009765625,-0.986328125,-0.01171875
336,0.0087890625,-0.9892578125,-0.013671875
337,0.0048828125,-0.986328125,-0.0126953125
338,0.0107421875,-0.9853515625,-0.0087890625
339,0.005859375,-0.982421875,-0.013671875
340,0.01171875,-0.9814453125,-0.0078125
341,0.005859375,-0.98046875,-0.01171875
342,0.005859375,-0.982421875,-0.0078125
343,0.005859375,-0.9814453125,-0.0048828125
344,0.0048828125,-0.986328125,-0.0048828125
345,0.0048828125,-0.9814453125,-0.0029296875
346,0.0078125,-0.984375,-0.0048828125
347,0.0048828125,-0.986328125,-0.00390625
348,0.0107421875,-0.9892578125,-0.001953125
349,0.00390625,-0.98828125,0.0
350,0.009765625,-0.9873046875,0.0
351,0.0107421875,-0.986328125,0.00390625
352,0.015625,-0.9921875,0.0009765625
353,0.009765625,-0.9892578125,0.0029296875
354,0.013671875,-0.9921875,-0.0029296875
355,0.0078125,-0.986328125,-0.0048828125
356,0.015625,-0.98828125,-0.005859375
357,0.015625,-0.9853515625,0.001953125
358,0.013671875,-0.98828125,-0.0048828125
359,0.013671875,-0.9853515625,-0.0087890625
360,0.013671875,-0.9853515625,-0.001953125
361,0.015625,-0.984375,-0.0068359375
362,0.0126953125,-0.9765625,-0.0029296875
363,0.017578125,-0.9814453125,-0.0029296875
364,0.01953125,-0.97265625,-0.00390625
365,0.017578125,-0.98046875,-0.0009765625
366,0.0185546875,-0.9736328125,-0.0009765625
367,0.0166015625,-0.97265625,0.005859375
368,0.0146484375,-0.974609375,0.009765625
369,0.0078125,-0.98046875,0.0068359375
370,0.0087890625,-0.9765625,0.005859375
371,0.0068359375,-0.982421875,0.0087890625
372,0.0078125,-0.9833984375,0.0029296875
373,0.0078125,-0.982421875,0.0078125
374,0.0078125,-0.9873046875,0.0
375,0.0078125,-0.9873046875,0.00390625
376,0.00390625,-0.984375,0.0009765625
377,0.0078125,-0.986328125,0.0048828125
378,0.009765625,-0.9921875,0.0029296875
379,0.0107421875,-0.9873046875,0.00390625
380,0.0126953125,-0.98828125,0.005859375
381,0.0166015625,-0.9853515625,0.001953125
382,0.013671875,-0.982421875,-0.0029296875
383,0.017578125,-0.9853515625,0.0009765625
384,0.013671875,-0.984375,-0.001953125
385,0.017578125,-0.9814453125,-0.00390625
386,0.013671875,-0.9794921875,-0.001953125
387,0.0107421875,-0.9833984375,-0.0029296875
388,0.0107421875,-0.978515625,-0.0009765625
389,0.0087890625,-0.9775390625,-0.0078125
390,0.009765625,-0.9814453125,-0.001953125
391,0.0087890625,-0.986328125,0.0009765625
392,0.0107421875,-0.9833984375,0.001953125
393,0.0078125,-0.9853515625,0.0009765625
394,0.0107421875,-0.986328125,-0.0009765625
395,0.005859375,-0.9853515625,0.00390625
396,0.013671875,-0.9814453125,-0.0009765625
397,0.01171875,-0.984375,0.0048828125
398,0.01171875,-0.984375,0.0029296875
399,0.0078125,-0.98828125,0.00390625
400,0.0126953125,-0.9873046875,0.005859375
401,0.013671875,-0.9873046875,0.00390625
402,0.009765625,-0.982421875,0.0009765625
403,0.013671875,-0.9814453125,0.0029296875
404,0.0107421875,-0.982421875,0.0107421875
405,0.0126953125,-0.974609375,0.00390625
406,0.015625,-0.984375,-0.0009765625
407,0.0126953125,-0.982421875,0.001953125
408,0.0126953125,-0.986328125,0.0029296875
409,0.01171875,-0.9853515625,0.0
410,0.013671875,-0.9921875,0.0009765625
411,0.0078125,-0.984375,-0.0009765625
412,0.0107421875,-0.99609375,0.0009765625
413,0.0068359375,-0.9912109375,0.0
414,0.0048828125,-0.9892578125,0.00390625
415,0.005859375,-0.9833984375,0.0029296875
416,0.0048828125,-0.9833984375,-0.0009765625
417,0.0048828125,-0.984375,0.0
418,0.005859375,-0.9833984375,0.001953125
419,0.001953125,-0.978515625,0.0048828125
420,0.0029296875,-0.982421875,0.001953125
421,0.00390625,-0.98046875,0.0068359375
422,0.005859375,-0.9794921875,0.0087890625
423,0.0048828125,-0.98046875,0.0087890625
424,0.0068359375,-0.984375,0.0029296875
425,0.0048828125,-0.982421875,0.0087890625
426,0.005859375,-0.986328125,0.00390625
427,0.0068359375,-0.9853515625,0.005859375
428,0.0078125,-0.994140625,0.0078125
429,0.0078125,-0.9912109375,0.009765625
430,0.0068359375,-0.9873046875,0.01171875
431,0.0078125,-0.98828125,0.0126953125
432,0.0087890625,-0.98828125,0.0068359375
433,0.01171875,-0.9873046875,0.0107421875
434,0.0068359375,-0.9814453125,0.015625
435,0.0087890625,-0.9765625,0.013671875
436,0.0068359375,-0.986328125,0.0107421875
437,0.0087890625,-0.9873046875,0.01171875
438,0.0078125,-0.9873046875,0.009765625
439,0.0048828125,-0.9873046875,0.00390625
440,0.0068359375,-0.9853515625,0.0048828125
441,0.0078125,-0.98828125,0.001953125
442,0.0068359375,-0.990234375,0.0
443,0.0126953125,-0.984375,0.0029296875
444,0.0107421875,-0.986328125,0.001953125
445,0.0107421875,-0.9921875,0.0029296875
446,0.017578125,-0.986328125,-0.0029296875
447,0.0107421875,-0.98828125,0.0048828125
448,0.013671875,-0.9951171875,0.005859375
449,0.01171875,-0.9853515625,0.00390625
450,0.0126953125,-0.9931640625,0.0078125
451,0.015625,-0.9853515625,0.0048828125
452,0.013671875,-0.9873046875,0.0068359375
453,0.01953125,-0.9892578125,0.00390625
454,0.0146484375,-0.986328125,0.0048828125
455,0.015625,-0.9833984375,-0.005859375
456,0.0146484375,-0.9853515625,0.0
457,0.01171875,-0.990234375,-0.0029296875
458,0.0146484375,-0.9892578125,-0.00390625
459,0.01171875,-0.9931640625,0.0029296875
460,0.01171875,-0.9892578125,-0.0078125
461,0.0107421875,-0.9951171875,0.001953125
462,0.0107421875,-0.9873046875,0.001953125
463,0.0078125,-0.9873046875,0.0
464,0.013671875,-0.9912109375,0.001953125
465,0.0087890625,-0.984375,0.0009765625
466,0.0068359375,-0.982421875,0.001953125
467,0.01171875,-0.9794921875,0.0048828125
468,0.0107421875,-0.9951171875,0.00390625
469,0.0068359375,-0.9853515625,0.01171875
470,0.009765625,-0.9931640625,0.0029296875
471,0.01171875,-0.98828125,0.00390625
472,0.009765625,-0.986328125,0.0029296875
473,0.0126953125,-0.990234375,0.0048828125
474,0.005859375,-0.9912109375,0.0078125
475,0.0126953125,-0.9892578125,0.0029296875
476,0.013671875,-0.9814453125,0.005859375
477,0.0087890625,-0.9892578125,0.0078125
478,0.0107421875,-0.984375,0.0068359375
479,0.0126953125,-0.9873046875,0.005859375
480,0.0068359375,-0.9873046875,0.0078125
481,0.0087890625,-0.9853515625,0.0068359375
482,0.0078125,-0.9775390625,0.0029296875
483,0.0087890625,-0.9755859375,0.00390625
484,0.0087890625,-0.9814453125,0.001953125
485,0.0068359375,-0.9814453125,0.00390625
486,0.0068359375,-0.978515625,-0.0009765625
487,0.0078125,-0.9755859375,-0.001953125
488,0.015625,-0.978515625,0.001953125
489,0.009765625,-0.9755859375,0.00390625
490,0.0048828125,-0.9814453125,0.001953125
491,0.0068359375,-0.9775390625,0.00390625
492,0.001953125,-0.982421875,0.00390625
493,0.0078125,-0.984375,0.0029296875
494,0.0068359375,-0.9873046875,0.00390625
495,0.0087890625,-0.986328125,-0.0009765625
496,0.0087890625,-0.9833984375,0.005859375
497,0.0087890625,-0.9833984375,0.0029296875
498,0.0068359375,-0.9921875,0.0068359375
499,0.0087890625,-0.986328125,0.0048828125
500,0.009765625,-0.9833984375,0.0
501,0.0078125,-0.98828125,-0.001953125
502,0.005859375,-0.9853515625,0.001953125
503,0.0078125,-0.982421875,0.0009765625
504,0.005859375,-0.9765625,0.001953125
505,0.0048828125,-0.98046875,-0.0068359375
506,0.0068359375,-0.9794921875,-0.0068359375
507,0.00390625,-0.978515625,-0.0009765625
508,0.0087890625,-0.9794921875,-0.00390625
509,0.0078125,-0.9775390625,-0.01171875
510,0.005859375,-0.982421875,0.0
511,0.0,-0.9775390625,-0.0029296875
512,0.0029296875,-0.9814453125,0.0009765625
513,0.001953125,-0.9873046875,0.0
514,0.0009765625,-0.9912109375,0.0
515,0.0029296875,-0.986328125,-0.0029296875
516,0.0009765625,-0.9873046875,0.0029296875
517,0.001953125,-0.984375,-0.0029296875
518,0.0029296875,-0.986328125,0.0009765625
519,0.0009765625,-0.984375,0.0
520,0.0009765625,-0.9853515625,-0.00390625
521,0.009765625,-0.9873046875,0.0
522,0.0068359375,-0.982421875,-0.001953125
523,0.0078125,-0.9775390625,-0.001953125
524,0.0068359375,-0.98046875,-0.001953125
525,0.005859375,-0.9755859375,-0.0009765625
526,0.0078125,-0.9833984375,-0.001953125
527,0.0078125,-0.982421875,0.0009765625
528,0.0068359375,-0.9853515625,-0.00390625
529,0.009765625,-0.9853515625,-0.0048828125
530,0.0078125,-0.9912109375,-0.00390625
531,0.01171875,-0.98828125,-0.0009765625
532,0.0048828125,-0.98828125,-0.0029296875
533,0.0068359375,-0.9970703125,0.0029296875
534,0.005859375,-0.9931640625,0.0009765625
535,0.0029296875,-0.990234375,0.0009765625
536,0.001953125,-0.9892578125,0.005859375
537,0.0029296875,-0.9931640625,0.0009765625
538,0.0029296875,-0.994140625,0.0029296875
539,-0.001953125,-0.994140625,-0.0029296875
540,0.0029296875,-0.986328125,0.001953125
541,0.0029296875,-0.9853515625,-0.0009765625
542,0.009765625,-0.9833984375,0.001953125
543,0.0107421875,-0.9814453125,0.005859375
544,0.009765625,-0.9814453125,0.0048828125
545,0.015625,-0.98046875,0.0
546,0.017578125,-0.9775390625,-0.001953125
547,0.0185546875,-0.9765625,0.001953125
548,0.015625,-0.98046875,0.0048828125
549,0.015625,-0.9755859375,0.0009765625
550,0.015625,-0.9775390625,-0.0009765625
551,0.0146484375,-0.984375,0.0009765625
552,0.0166015625,-0.9794921875,-0.00390625
553,0.013671875,-0.98046875,0.0009765625
554,0.01171875,-0.982421875,0.0009765625
555,0.0078125,-0.98046875,-0.0029296875
556,0.0126953125,-0.982421875,-0.0078125
557,0.0068359375,-0.98828125,-0.0009765625
558,0.009765625,-0.986328125,-0.00390625
559,0.0068359375,-0.984375,-0.0048828125
560,0.015625,-0.98828125,-0.0087890625
561,0.01171875,-0.9873046875,-0.0087890625
562,0.0126953125,-0.984375,-0.0078125
563,0.0087890625,-0.984375,-0.0087890625
564,0.01171875,-0.9892578125,-0.0078125
565,0.009765625,-0.9892578125,-0.0107421875
566,0.013671875,-0.986328125,-0.0078125
567,0.01171875,-0.9931640625,-0.015625
568,0.0146484375,-0.9912109375,-0.0107421875
569,0.0107421875,-0.986328125,-0.0166015625
570,0.01171875,-0.986328125,-0.0078125
571,0.0087890625,-0.9892578125,-0.0078125
572,0.015625,-0.994140625,-0.0107421875
573,0.0185546875,-0.99609375,-0.0048828125
574,0.009765625,-0.986328125,-0.005859375
575,0.0048828125,-0.990234375,-0.0087890625
576,0.009765625,-0.98828125,-0.00390625
577,0.0078125,-0.9912109375,-0.0078125
578,0.009765625,-0.9873046875,-0.0087890625
579,0.0126953125,-0.986328125,-0.013671875
580,0.0087890625,-0.984375,-0.0126953125
581,0.015625,-0.9833984375,-0.01171875
582,0.009765625,-0.9873046875,-0.013671875
583,0.005859375,-0.984375,-0.0166015625
584,0.0068359375,-0.984375,-0.0146484375
585,0.0126953125,-0.9873046875,-0.013671875
586,0.009765625,-0.982421875,-0.01171875
587,0.0068359375,-0.982421875,-0.009765625
588,0.0078125,-0.9814453125,-0.015625
589,0.0107421875,-0.984375,-0.0107421875
590,0.0087890625,-0.982421875,-0.0078125
591,0.0068359375,-0.984375,-0.015625
592,0.00390625,-0.98828125,-0.009765625
593,0.009765625,-0.986328125,-0.0087890625
594,0.0048828125,-0.986328125,-0.0087890625
595,0.0009765625,-0.986328125,-0.0146484375
596,0.0,-0.986328125,-0.013671875
597,-0.0009765625,-0.98828125,-0.0146484375
598,0.001953125,-0.99609375,-0.0107421875
599,0.001953125,-0.98828125,-0.0126953125
600,-0.0029296875,-0.986328125,-0.0126953125
601,-0.0009765625,-0.9873046875,-0.015625
602,-0.005859375,-0.9853515625,-0.0126953125
603,-0.0009765625,-0.9873046875,-0.017578125
604,-0.00390625,-0.982421875,-0.015625
605,0.0009765625,-0.9892578125,-0.0166015625
606,0.001953125,-0.986328125,-0.009765625
607,0.0078125,-0.982421875,-0.0087890625
608,0.0048828125,-0.9853515625,-0.01171875
609,0.0029296875,-0.986328125,-0.013671875
610,0.0068359375,-0.9853515625,-0.0087890625
611,0.0029296875,-0.98828125,-0.013671875
612,0.0078125,-0.984375,-0.01171875
613,0.0029296875,-0.9853515625,-0.017578125
614,0.005859375,-0.986328125,-0.0185546875
615,0.005859375,-0.98828125,-0.0185546875
616,0.005859375,-0.986328125,-0.017578125
617,0.005859375,-0.9873046875,-0.01953125
618,0.0078125,-0.986328125,-0.0185546875
619,0.0068359375,-0.982421875,-0.017578125
620,0.0068359375,-0.986328125,-0.01171875
621,0.0068359375,-0.982421875,-0.0126953125
622,0.0048828125,-0.982421875,-0.013671875
623,0.0078125,-0.978515625,-0.01171875
624,0.0048828125,-0.9794921875,-0.009765625
625,0.005859375,-0.978515625,-0.0087890625
626,0.0029296875,-0.9775390625,-0.01171875
627,0.0,-0.984375,-0.0068359375
628,0.0029296875,-0.982421875,-0.015625
629,0.001953125,-0.978515625,-0.0087890625
630,0.0009765625,-0.982421875,-0.013671875
631,0.0048828125,-0.9853515625,-0.0087890625
632,0.0009765625,-0.984375,-0.0126953125
633,0.00390625,-0.9873046875,-0.0185546875
634,-0.001953125,-0.98828125,-0.01171875
635,-0.0009765625,-0.9912109375,-0.0126953125
636,0.0,-0.9853515625,-0.0166015625
637,0.00390625,-0.994140625,-0.009765625
638,-0.0029296875,-0.9921875,-0.0185546875
639,-0.0029296875,-0.994140625,-0.0078125
640,-0.0029296875,-0.998046875,-0.0166015625
641,0.0,-0.990234375,-0.0166015625
642,0.0009765625,-0.9853515625,-0.0146484375
643,-0.001953125,-0.986328125,-0.0224609375
644,0.001953125,-0.9833984375,-0.015625
645,0.001953125,-0.98046875,-0.01953125
646,0.001953125,-0.98046875,-0.015625
647,-0.0009765625,-0.9853515625,-0.01953125
648,0.001953125,-0.98046875,-0.0166015625
649,0.00390625,-0.986328125,-0.0166015625
650,0.0,-0.98828125,-0.017578125
651,0.00390625,-0.98828125,-0.0234375
652,0.001953125,-0.98828125,-0.01953125
653,0.001953125,-0.9853515625,-0.015625
654,0.005859375,-1.0,-0.017578125
655,-0.001953125,-1.005859375,-0.013671875
656,-0.0029296875,-0.9833984375,-0.015625
657,0.0,-0.98828125,-0.015625
658,-0.00390625,-0.98828125,-0.0234375
659,-0.0009765625,-0.9853515625,-0.0185546875
660,0.001953125,-0.984375,-0.017578125
661,-0.0009765625,-0.98828125,-0.0146484375
662,0.0009765625,-0.986328125,-0.017578125
663,-0.0009765625,-0.9873046875,-0.013671875
664,0.001953125,-0.982421875,-0.013671875
665,0.00390625,-0.984375,-0.015625
666,-0.001953125,-0.984375,-0.0166015625
667,-0.00390625,-0.986328125,-0.01953125
668,-0.0029296875,-0.984375,-0.01171875
669,0.0029296875,-0.9794921875,-0.0146484375
670,0.00390625,-0.982421875,-0.01171875
671,0.0078125,-0.982421875,-0.009765625
672,0.00390625,-0.9833984375,-0.0087890625
673,0.001953125,-0.9873046875,-0.0146484375
674,0.0087890625,-0.98828125,-0.0146484375
675,0.0068359375,-0.9873046875,-0.0166015625
676,0.0048828125,-0.98828125,-0.0146484375
677,0.0048828125,-0.990234375,-0.021484375
678,0.005859375,-0.9892578125,-0.0205078125
679,0.0078125,-0.98828125,-0.0166015625
680,0.0087890625,-0.986328125,-0.0263671875
681,0.0068359375,-0.9853515625,-0.02734375
682,0.0068359375,-0.9873046875,-0.0234375
683,0.0087890625,-0.9814453125,-0.01953125
684,0.0029296875,-0.9833984375,-0.0234375
685,0.005859375,-0.9833984375,-0.017578125
686,0.0029296875,-0.9853515625,-0.01171875
687,0.0,-0.98828125,-0.021484375
688,0.0029296875,-0.978515625,-0.01953125
689,0.0048828125,-0.9873046875,-0.0224609375
690,0.00390625,-0.9853515625,-0.01953125
691,0.0048828125,-0.9853515625,-0.0234375
692,0.0087890625,-0.9853515625,-0.017578125
693,0.005859375,-0.9814453125,-0.01953125
694,0.01171875,-0.9814453125,-0.0185546875
695,0.01171875,-0.982421875,-0.0224609375
696,0.0107421875,-0.9794921875,-0.0283203125
697,0.0087890625,-0.982421875,-0.0263671875
698,0.0087890625,-0.9814453125,-0.0244140625
699,0.013671875,-0.9755859375,-0.0224609375
700,0.0087890625,-0.984375,-0.01953125
701,0.0068359375,-0.9775390625,-0.025390625
702,0.013671875,-0.978515625,-0.02734375
703,0.0048828125,-0.974609375,-0.0361328125
704,0.0078125,-0.974609375,-0.0263671875
705,0.0087890625,-0.9736328125,-0.03125
706,0.0078125,-0.9794921875,-0.0283203125
707,0.0048828125,-0.96875,-0.03515625
708,0.0087890625,-0.986328125,-0.02734375
709,0.0068359375,-0.9765625,-0.0263671875
710,0.0078125,-0.966796875,-0.037109375
711,0.0078125,-0.9736328125,-0.0341796875
712,0.0068359375,-0.9755859375,-0.033203125
713,0.0068359375,-0.9677734375,-0.037109375
714,0.0087890625,-0.970703125,-0.041015625
715,0.00390625,-0.96484375,-0.04296875
716,0.0068359375,-0.9658203125,-0.0380859375
717,0.0,-0.9638671875,-0.0390625
718,0.0009765625,-0.9619140625,-0.048828125
719,0.0048828125,-0.96484375,-0.052734375
720,0.0,-0.966796875,-0.05078125
721,0.0048828125,-0.9658203125,-0.0546875
722,0.0029296875,-0.974609375,-0.052734375
723,0.005859375,-0.9755859375,-0.0595703125
724,0.005859375,-0.9755859375,-0.0634765625
725,0.005859375,-0.9765625,-0.05859375
726,0.005859375,-0.978515625,-0.0615234375
727,0.0107421875,-0.9775390625,-0.0615234375
728,0.0078125,-0.986328125,-0.0634765625
729,0.0078125,-0.9853515625,-0.0625
730,0.0087890625,-0.9814453125,-0.056640625
731,0.0107421875,-0.98046875,-0.064453125
732,0.0107421875,-0.9853515625,-0.0615234375
733,0.01171875,-0.98828125,-0.0576171875
734,0.0087890625,-0.9931640625,-0.056640625
735,0.0068359375,-0.982421875,-0.0556640625
736,0.0048828125,-0.978515625,-0.0625
737,-0.0009765625,-0.9755859375,-0.0654296875
738,0.0009765625,-0.982421875,-0.064453125
739,-0.0009765625,-0.9794921875,-0.0693359375
740,0.0,-0.978515625,-0.06640625
741,0.0009765625,-0.9677734375,-0.0673828125
742,-0.0009765625,-0.9716796875,-0.0712890625
743,0.00390625,-0.9697265625,-0.07421875
744,0.005859375,-0.9658203125,-0.0693359375
745,0.009765625,-0.9599609375,-0.078125
746,0.0068359375,-0.9560546875,-0.0732421875
747,0.0126953125,-0.9599609375,-0.07421875
748,0.01171875,-0.9599609375,-0.076171875
749,0.017578125,-0.9560546875,-0.08203125
750,0.0185546875,-0.9609375,-0.080078125
751,0.021484375,-0.953125,-0.0810546875
752,0.0224609375,-0.953125,-0.0791015625
753,0.0263671875,-0.9521484375,-0.0810546875
754,0.0263671875,-0.9521484375,-0.087890625
755,0.0263671875,-0.953125,-0.08984375
756,0.025390625,-0.953125,-0.0859375
757,0.0166015625,-0.951171875,-0.0869140625
758,0.0146484375,-0.9541015625,-0.0849609375
759,0.013671875,-0.9541015625,-0.08203125
760,0.017578125,-0.958984375,-0.0869140625
761,0.013671875,-0.9619140625,-0.0830078125
762,0.0087890625,-0.9560546875,-0.0888671875
763,0.0087890625,-0.955078125,-0.0908203125
764,0.0087890625,-0.95703125,-0.083984375
765,0.0009765625,-0.9482421875,-0.0859375
766,0.005859375,-0.9521484375,-0.083984375
767,0.0068359375,-0.95703125,-0.083984375
768,0.0078125,-0.9560546875,-0.078125
769,0.0087890625,-0.9580078125,-0.078125
770,0.0126953125,-0.962890625,-0.08203125
771,0.0146484375,-0.955078125,-0.0810546875
772,0.015625,-0.955078125,-0.083984375
773,0.017578125,-0.9541015625,-0.08984375
774,0.0185546875,-0.9560546875,-0.0888671875
775,0.0126953125,-0.958984375,-0.1025390625
776,0.0126953125,-0.9609375,-0.0966796875
777,0.0087890625,-0.958984375,-0.111328125
778,0.0087890625,-0.9599609375,-0.099609375
779,0.0107421875,-0.9619140625,-0.1083984375
780,0.009765625,-0.96875,-0.1083984375
781,0.0126953125,-0.966796875,-0.109375
782,0.0146484375,-0.970703125,-0.109375
783,0.0166015625,-0.9697265625,-0.1123046875
784,0.0166015625,-0.974609375,-0.1142578125
785,0.0244140625,-0.9755859375,-0.1123046875
786,0.029296875,-0.984375,-0.1083984375
787,0.0263671875,-0.984375,-0.1181640625
788,0.025390625,-0.9853515625,-0.1171875
789,0.0244140625,-0.9912109375,-0.126953125
790,0.0283203125,-0.9833984375,-0.1298828125
791,0.0244140625,-0.9794921875,-0.1396484375
792,0.0244140625,-0.9755859375,-0.134765625
793,0.021484375,-0.9716796875,-0.1435546875
794,0.017578125,-0.970703125,-0.142578125
795,0.017578125,-0.9599609375,-0.1474609375
796,0.0146484375,-0.9580078125,-0.150390625
797,0.013671875,-0.95703125,-0.15625
798,0.0126953125,-0.9482421875,-0.154296875
799,0.009765625,-0.9462890625,-0.1640625
800,0.0087890625,-0.947265625,-0.1552734375
801,0.0087890625,-0.951171875,-0.1572265625
802,0.0078125,-0.951171875,-0.1591796875
803,0.009765625,-0.943359375,-0.162109375
804,0.0185546875,-0.94921875,-0.1572265625
805,0.021484375,-0.9501953125,-0.1591796875
806,0.0234375,-0.9462890625,-0.158203125
807,0.0205078125,-0.9453125,-0.1611328125
808,0.0205078125,-0.9443359375,-0.15625
809,0.0205078125,-0.94921875,-0.154296875
810,0.0185546875,-0.9453125,-0.1572265625
811,0.017578125,-0.943359375,-0.1611328125
812,0.0166015625,-0.9384765625,-0.1650390625
813,0.0185546875,-0.9375,-0.1650390625
814,0.0126953125,-0.9296875,-0.1591796875
815,0.01953125,-0.9296875,-0.1669921875
816,0.0166015625,-0.92578125,-0.1640625
817,0.0166015625,-0.9228515625,-0.1708984375
818,0.009765625,-0.9228515625,-0.169921875
819,0.013671875,-0.921875,-0.166015625
820,0.009765625,-0.9208984375,-0.1708984375
821,0.01953125,-0.927734375,-0.171875
822,0.009765625,-0.9267578125,-0.1787109375
823,0.01171875,-0.9326171875,-0.1796875
824,0.0126953125,-0.9306640625,-0.1865234375
825,0.015625,-0.9287109375,-0.1962890625
826,0.015625,-0.931640625,-0.1962890625
827,0.0234375,-0.9443359375,-0.2001953125
828,0.021484375,-0.939453125,-0.1962890625
829,0.0283203125,-0.9345703125,-0.19921875
830,0.0263671875,-0.931640625,-0.2001953125
831,0.0263671875,-0.92578125,-0.203125
832,0.0244140625,-0.9248046875,-0.1982421875
833,0.0205078125,-0.9287109375,-0.203125
834,0.0185546875,-0.9267578125,-0.205078125
835,0.0126953125,-0.9248046875,-0.2021484375
836,0.009765625,-0.9287109375,-0.205078125
837,0.0068359375,-0.9287109375,-0.212890625
838,-0.00390625,-0.923828125,-0.2119140625
839,0.001953125,-0.9306640625,-0.2265625
840,-0.0126953125,-0.916015625,-0.2314453125
841,-0.0068359375,-0.9208984375,-0.2421875
842,0.001953125,-0.9189453125,-0.240234375
843,0.0087890625,-0.9130859375,-0.2421875
844,0.015625,-0.9130859375,-0.2490234375
845,0.0146484375,-0.91015625,-0.25
846,0.0205078125,-0.9140625,-0.251953125
847,0.029296875,-0.9091796875,-0.2490234375
848,0.03515625,-0.91015625,-0.2548828125
849,0.041015625,-0.9130859375,-0.2568359375
850,0.048828125,-0.9072265625,-0.2607421875
851,0.05078125,-0.908203125,-0.2607421875
852,0.0380859375,-0.904296875,-0.27734375
853,0.0322265625,-0.8935546875,-0.2900390625
854,0.0302734375,-0.892578125,-0.296875
855,0.0283203125,-0.8984375,-0.306640625
856,0.021484375,-0.8896484375,-0.30859375
857,0.0185546875,-0.8916015625,-0.31640625
858,0.015625,-0.8896484375,-0.3154296875
859,0.0146484375,-0.8857421875,-0.318359375
860,0.009765625,-0.888671875,-0.3251953125
861,0.0146484375,-0.900390625,-0.3212890625
862,0.0205078125,-0.900390625,-0.318359375
863,0.0244140625,-0.9072265625,-0.3291015625
864,0.029296875,-0.9130859375,-0.3271484375
865,0.0322265625,-0.9248046875,-0.33203125
866,0.041015625,-0.9287109375,-0.337890625
867,0.04296875,-0.931640625,-0.3515625
868,0.041015625,-0.939453125,-0.359375
869,0.041015625,-0.9375,-0.359375
870,0.04296875,-0.939453125,-0.365234375
871,0.046875,-0.9453125,-0.3740234375
872,0.04296875,-0.947265625,-0.3759765625
873,0.0458984375,-0.9462890625,-0.373046875
874,0.0556640625,-0.9482421875,-0.373046875
875,0.0498046875,-0.943359375,-0.3798828125
876,0.0634765625,-0.9375,-0.3759765625
877,0.0654296875,-0.92578125,-0.3798828125
878,0.0546875,-0.9140625,-0.3876953125
879,0.0703125,-0.90625,-0.388671875
880,0.0654296875,-0.89453125,-0.3974609375
881,0.0537109375,-0.88671875,-0.400390625
882,0.0576171875,-0.900390625,-0.396484375
883,0.0498046875,-0.9140625,-0.3994140625
884,0.0419921875,-0.9130859375,-0.41015625
885,0.037109375,-0.9150390625,-0.4013671875
886,0.046875,-0.923828125,-0.4208984375
887,0.0263671875,-0.9287109375,-0.4228515625
888,0.0302734375,-0.9228515625,-0.435546875
889,0.0283203125,-0.9189453125,-0.435546875
890,0.025390625,-0.9169921875,-0.4296875
891,0.0322265625,-0.93359375,-0.4150390625
892,0.033203125,-0.9482421875,-0.4052734375
893,0.044921875,-0.943359375,-0.4130859375
894,0.0458984375,-0.9267578125,-0.4287109375
895,0.05078125,-0.9140625,-0.4482421875
896,0.0380859375,-0.912109375,-0.431640625
897,0.0576171875,-0.939453125,-0.40625
898,0.0712890625,-0.9306640625,-0.4169921875
899,0.0615234375,-0.9052734375,-0.4375
900,0.0498046875,-0.8955078125,-0.4375
901,0.04296875,-0.9111328125,-0.4130859375
902,0.0615234375,-0.890625,-0.42578125
903,0.0400390625,-0.8701171875,-0.43359375
904,0.02734375,-0.8798828125,-0.4208984375
905,0.0419921875,-0.87109375,-0.431640625
906,0.0205078125,-0.8857421875,-0.4169921875
907,0.04296875,-0.91015625,-0.408203125
908,0.05859375,-0.892578125,-0.4365234375
909,0.0546875,-0.8798828125,-0.4580078125
910,0.0419921875,-0.876953125,-0.443359375
911,0.0634765625,-0.8583984375,-0.46875
912,0.0498046875,-0.8642578125,-0.48046875
913,0.05859375,-0.8642578125,-0.486328125
914,0.0615234375,-0.875,-0.4853515625
915,0.05859375,-0.87109375,-0.4873046875
916,0.05078125,-0.876953125,-0.4892578125
917,0.048828125,-0.8837890625,-0.494140625
918,0.046875,-0.8818359375,-0.4951171875
919,0.044921875,-0.884765625,-0.4921875
920,0.046875,-0.890625,-0.4990234375
921,0.04296875,-0.892578125,-0.4951171875
922,0.046875,-0.8896484375,-0.513671875
923,0.0390625,-0.8935546875,-0.517578125
924,0.0400390625,-0.89453125,-0.521484375
925,0.0400390625,-0.8876953125,-0.5400390625
926,0.0400390625,-0.880859375,-0.5458984375
927,0.044921875,-0.89453125,-0.53125
928,0.044921875,-0.8876953125,-0.546875
929,0.0458984375,-0.8798828125,-0.552734375
930,0.0537109375,-0.8828125,-0.55078125
931,0.0546875,-0.890625,-0.5341796875
932,0.05078125,-0.8974609375,-0.525390625
933,0.06640625,-0.890625,-0.5439453125
934,0.068359375,-0.857421875,-0.5634765625
935,0.06640625,-0.841796875,-0.5830078125
936,0.076171875,-0.8486328125,-0.578125
937,0.0634765625,-0.873046875,-0.5517578125
938,0.083984375,-0.8427734375,-0.5654296875
939,0.0712890625,-0.833984375,-0.568359375
940,0.0751953125,-0.83984375,-0.5595703125
941,0.0751953125,-0.8388671875,-0.5576171875
942,0.072265625,-0.8203125,-0.5654296875
943,0.068359375,-0.814453125,-0.56640625
944,0.076171875,-0.8330078125,-0.548828125
945,0.068359375,-0.8173828125,-0.55859375
946,0.0615234375,-0.8046875,-0.576171875
947,0.0615234375,-0.796875,-0.5693359375
948,0.056640625,-0.791015625,-0.5830078125
949,0.05859375,-0.7763671875,-0.58984375
950,0.052734375,-0.771484375,-0.5927734375
951,0.0478515625,-0.765625,-0.5927734375
952,0.046875,-0.767578125,-0.591796875
953,0.0478515625,-0.779296875,-0.583984375
954,0.0546875,-0.7841796875,-0.58203125
955,0.0625,-0.783203125,-0.5927734375
956,0.0556640625,-0.7783203125,-0.603515625
957,0.0634765625,-0.775390625,-0.6181640625
958,0.0712890625,-0.7734375,-0.6220703125
959,0.080078125,-0.7841796875,-0.6162109375
960,0.0791015625,-0.7802734375,-0.6259765625
961,0.076171875,-0.7802734375,-0.6396484375
962,0.0810546875,-0.7734375,-0.64453125
963,0.0732421875,-0.7802734375,-0.6298828125
964,0.0830078125,-0.763671875,-0.6533203125
965,0.076171875,-0.765625,-0.6474609375
966,0.0791015625,-0.7490234375,-0.65234375
967,0.0791015625,-0.748046875,-0.6533203125
968,0.0830078125,-0.7509765625,-0.6455078125
969,0.0849609375,-0.7548828125,-0.6455078125
970,0.0810546875,-0.728515625,-0.6591796875
971,0.080078125,-0.76171875,-0.6318359375
972,0.0771484375,-0.7353515625,-0.650390625
973,0.0771484375,-0.7265625,-0.66015625
974,0.06640625,-0.72265625,-0.662109375
975,0.0703125,-0.720703125,-0.6669921875
976,0.0703125,-0.720703125,-0.6767578125
977,0.0625,-0.724609375,-0.6767578125
978,0.0634765625,-0.7275390625,-0.697265625
979,0.0751953125,-0.7197265625,-0.720703125
980,0.0673828125,-0.7158203125,-0.7275390625
981,0.072265625,-0.693359375,-0.73828125
982,0.083984375,-0.6982421875,-0.7421875
983,0.0869140625,-0.70703125,-0.7255859375
984,0.078125,-0.7099609375,-0.7236328125
985,0.0869140625,-0.6982421875,-0.7353515625
986,0.0947265625,-0.701171875,-0.71484375
987,0.09765625,-0.7119140625,-0.69921875
988,0.0927734375,-0.6962890625,-0.697265625
989,0.1025390625,-0.6630859375,-0.716796875
990,0.091796875,-0.669921875,-0.7197265625
991,0.0986328125,-0.654296875,-0.7265625
992,0.1005859375,-0.671875,-0.703125
993,0.095703125,-0.6552734375,-0.7216796875
994,0.0908203125,-0.642578125,-0.724609375
995,0.107421875,-0.6396484375,-0.7265625
996,0.091796875,-0.611328125,-0.7509765625
997,0.09765625,-0.6318359375,-0.7490234375
998,0.09375,-0.6298828125,-0.7470703125
999,0.1015625,-0.6279296875,-0.7607421875
1000,0.095703125,-0.62890625,-0.765625
1001,0.095703125,-0.6220703125,-0.765625
1002,0.1103515625,-0.6650390625,-0.771484375
1003,0.0986328125,-0.6240234375,-0.76953125
1004,0.099609375,-0.619140625,-0.783203125
1005,0.0927734375,-0.6181640625,-0.787109375
1006,0.1015625,-0.615234375,-0.7763671875
1007,0.1015625,-0.6162109375,-0.7734375
1008,0.1103515625,-0.6044921875,-0.791015625
1009,0.10546875,-0.5966796875,-0.7861328125
1010,0.10546875,-0.61328125,-0.7607421875
1011,0.0908203125,-0.6015625,-0.76953125
1012,0.095703125,-0.603515625,-0.7802734375
1013,0.0966796875,-0.5908203125,-0.7705078125
1014,0.08984375,-0.5859375,-0.7783203125
1015,0.0966796875,-0.5771484375,-0.7802734375
1016,0.0986328125,-0.572265625,-0.78515625
1017,0.10546875,-0.564453125,-0.7890625
1018,0.103515625,-0.5595703125,-0.7919921875
1019,0.0947265625,-0.578125,-0.791015625
1020,0.1220703125,-0.5556640625,-0.810546875
1021,0.1025390625,-0.5380859375,-0.837890625
1022,0.1123046875,-0.5390625,-0.8427734375
1023,0.12109375,-0.5478515625,-0.828125
1024,0.1162109375,-0.5625,-0.7958984375
1025,0.125,-0.572265625,-0.787109375
1026,0.1181640625,-0.5634765625,-0.79296875
1027,0.1103515625,-0.5556640625,-0.7880859375
1028,0.109375,-0.5439453125,-0.794921875
1029,0.1123046875,-0.54296875,-0.7978515625
1030,0.11328125,-0.5341796875,-0.7939453125
1031,0.1005859375,-0.5390625,-0.7861328125
1032,0.0986328125,-0.5380859375,-0.7900390625
1033,0.1005859375,-0.5361328125,-0.77734375
1034,0.091796875,-0.529296875,-0.77734375
1035,0.08984375,-0.50390625,-0.78515625
1036,0.080078125,-0.5009765625,-0.79296875
1037,0.08984375,-0.4951171875,-0.7890625
1038,0.078125,-0.484375,-0.796875
1039,0.0869140625,-0.4873046875,-0.8017578125
1040,0.08984375,-0.4892578125,-0.80859375
1041,0.0869140625,-0.4833984375,-0.822265625
1042,0.0927734375,-0.48828125,-0.8115234375
1043,0.10546875,-0.48046875,-0.8359375
1044,0.09765625,-0.4775390625,-0.849609375
1045,0.111328125,-0.484375,-0.8544921875
1046,0.11328125,-0.490234375,-0.8515625
1047,0.1142578125,-0.4912109375,-0.8583984375
1048,0.1240234375,-0.484375,-0.859375
1049,0.1240234375,-0.4853515625,-0.8583984375
1050,0.125,-0.4814453125,-0.86328125
1051,0.126953125,-0.4775390625,-0.8642578125
1052,0.126953125,-0.4697265625,-0.8662109375
1053,0.1376953125,-0.4697265625,-0.85546875
1054,0.1298828125,-0.458984375,-0.861328125
1055,0.1171875,-0.4482421875,-0.8720703125
1056,0.1162109375,-0.4228515625,-0.8828125
1057,0.095703125,-0.4013671875,-0.8935546875
1058,0.09375,-0.3916015625,-0.8955078125
1059,0.091796875,-0.3857421875,-0.892578125
1060,0.09375,-0.38671875,-0.8876953125
1061,0.1005859375,-0.3720703125,-0.8779296875
1062,0.0947265625,-0.35546875,-0.8818359375
1063,0.1005859375,-0.3359375,-0.8935546875
1064,0.1083984375,-0.328125,-0.8876953125
1065,0.1259765625,-0.318359375,-0.8720703125
1066,0.115234375,-0.294921875,-0.8935546875
1067,0.119140625,-0.2841796875,-0.876953125
1068,0.1171875,-0.2744140625,-0.8603515625
1069,0.119140625,-0.2734375,-0.849609375
1070,0.1103515625,-0.2783203125,-0.8310546875
1071,0.1044921875,-0.28125,-0.814453125
1072,0.09765625,-0.27734375,-0.7939453125
1073,0.0869140625,-0.2724609375,-0.787109375
1074,0.08203125,-0.28125,-0.7724609375
1075,0.083984375,-0.283203125,-0.759765625
1076,0.0810546875,-0.283203125,-0.74609375
1077,0.0791015625,-0.275390625,-0.728515625
1078,0.08984375,-0.2783203125,-0.7041015625
1079,0.0908203125,-0.2880859375,-0.66796875
1080,0.08984375,-0.2958984375,-0.630859375
1081,0.0888671875,-0.30078125,-0.6005859375
1082,0.083984375,-0.3095703125,-0.5517578125
1083,0.0849609375,-0.314453125,-0.521484375
1084,0.08203125,-0.31640625,-0.4814453125
1085,0.08203125,-0.3251953125,-0.4365234375
1086,0.09375,-0.3359375,-0.3994140625
1087,0.1025390625,-0.361328125,-0.376953125
1088,0.115234375,-0.3818359375,-0.33203125
1089,0.126953125,-0.4052734375,-0.2763671875
1090,0.1357421875,-0.4248046875,-0.240234375
1091,0.1591796875,-0.4560546875,-0.1904296875
1092,0.1416015625,-0.4814453125,-0.154296875
1093,0.244140625,-0.5224609375,-0.0947265625
1094,0.119140625,-0.48828125,-0.072265625
1095,0.037109375,-0.46484375,-0.0185546875
1096,0.0615234375,-0.443359375,0.017578125
1097,-0.013671875,-0.4345703125,0.0322265625
1098,-0.0205078125,-0.412109375,0.0322265625
1099,-0.0537109375,-0.3896484375,0.0185546875
1100,0.0888671875,-0.353515625,-0.02734375
1101,0.0126953125,-0.3642578125,0.0185546875
1102,-0.05078125,-0.3369140625,0.044921875
1103,-0.1474609375,-0.337890625,0.095703125
1104,-0.2255859375,-0.3359375,0.146484375
1105,-0.1513671875,-0.2861328125,0.1328125
1106,-0.1240234375,-0.212890625,0.10546875
1107,-0.1826171875,-0.19140625,0.0966796875
1108,-0.2001953125,-0.1904296875,0.1513671875
1109,-0.1103515625,-0.193359375,0.1142578125
1110,-0.1298828125,-0.259765625,0.1162109375
1111,-0.13671875,-0.3056640625,0.0888671875
1112,-0.099609375,-0.3193359375,0.029296875
1113,-0.21875,-0.3837890625,0.0556640625
1114,-0.1689453125,-0.322265625,-0.0107421875
1115,-0.1943359375,-0.275390625,-0.0693359375
1116,-0.251953125,-0.19921875,-0.0732421875
1117,-0.240234375,-0.0400390625,-0.1689453125
1118,-0.236328125,0.1376953125,-0.33203125
1119,-0.2294921875,0.328125,-0.56640625
1120,-0.267578125,0.474609375,-0.755859375
1121,-0.416015625,0.60546875,-0.88671875
1122,-0.408203125,0.7333984375,-1.044921875
1123,-0.345703125,0.802734375,-1.220703125
1124,-0.26171875,0.8134765625,-1.4736328125
1125,-0.1630859375,0.740234375,-1.73828125
1126,-0.607421875,1.6015625,-3.4462890625
1127,0.4296875,1.1923828125,-3.1171875
1128,-0.2919921875,1.845703125,-3.55078125
1129,0.3974609375,1.720703125,-3.123046875
1130,0.9228515625,2.4873046875,-2.240234375
1131,0.8212890625,2.90625,-2.3310546875
1132,0.3310546875,2.0654296875,-0.265625
1133,1.4755859375,2.958984375,-1.974609375
1134,-2.7255859375,7.603515625,-6.01953125
1135,-2.5068359375,-0.3369140625,2.296875
1136,-0.67578125,-0.3125,-0.880859375
1137,1.4453125,-0.0654296875,-2.0
1138,1.423828125,0.69140625,-2.666015625
1139,0.185546875,0.271484375,-2.353515625
1140,-0.7080078125,0.876953125,-2.87109375
1141,-0.2138671875,1.19140625,-3.2333984375
1142,0.236328125,2.5810546875,-4.021484375
1143,-0.6396484375,1.44921875,-3.8955078125
1144,-0.7275390625,1.33984375,-3.994140625
1145,-0.673828125,2.0400390625,-3.876953125
1146,-0.55859375,1.92578125,-3.498046875
1147,-0.4453125,1.6484375,-3.150390625
1148,-0.326171875,1.2880859375,-3.0166015625
1149,-0.2666015625,1.1357421875,-2.6552734375
1150,-0.322265625,0.9755859375,-2.248046875
1151,-0.318359375,0.884765625,-1.93359375
1152,-0.302734375,0.6708984375,-1.6455078125
1153,-0.3564453125,0.482421875,-1.4140625
1154,-0.359375,0.453125,-1.2529296875
1155,-0.3115234375,0.3720703125,-1.1904296875
1156,-0.2880859375,0.2021484375,-1.2060546875
1157,0.1298828125,-0.0517578125,-0.986328125
1158,-0.3876953125,0.3359375,-1.158203125
1159,-0.4326171875,0.384765625,-1.05078125
1160,-0.4287109375,0.33984375,-0.97265625
1161,-0.28515625,-0.1240234375,-0.81640625
1162,-0.564453125,0.23828125,-0.9560546875
1163,-0.1923828125,-0.1591796875,-0.67578125
1164,-0.458984375,0.1787109375,-0.7822265625
1165,-0.1953125,0.123046875,-0.671875
1166,-0.3359375,0.1552734375,-0.6142578125
1167,-0.3427734375,0.4326171875,-0.9111328125
1168,-0.1640625,0.177734375,-0.8271484375
1169,-0.34375,0.6552734375,-0.8427734375
1170,0.0478515625,0.3369140625,-0.603515625
1171,0.0439453125,0.3837890625,-0.599609375
1172,-0.076171875,0.4951171875,-0.646484375
1173,-0.2236328125,0.5634765625,-0.724609375
1174,-0.13671875,0.583984375,-0.62109375
1175,-0.123046875,0.6708984375,-0.5234375
1176,-0.142578125,0.6650390625,-0.44921875
1177,-0.17578125,0.654296875,-0.4765625
1178,-0.2158203125,0.619140625,-0.50390625
1179,-0.1962890625,0.330078125,-0.44921875
1180,-0.189453125,0.201171875,-0.5146484375
1181,-0.1728515625,0.140625,-0.6123046875
1182,-0.1484375,0.1376953125,-0.6767578125
1183,-0.171875,0.1416015625,-0.734375
1184,-0.2109375,0.126953125,-0.7744140625
1185,-0.2099609375,0.1328125,-0.814453125
1186,-0.19140625,0.166015625,-0.8251953125
1187,-0.1884765625,0.1416015625,-0.810546875
1188,-0.2177734375,0.126953125,-0.8359375
1189,-0.2509765625,0.1611328125,-0.8720703125
1190,-0.2548828125,0.1533203125,-0.888671875
1191,-0.251953125,0.154296875,-0.921875
1192,-0.2353515625,0.1572265625,-0.96484375
1193,-0.244140625,0.1826171875,-1.0087890625
1194,-0.263671875,0.1923828125,-1.0556640625
1195,-0.25,0.19921875,-1.1005859375
1196,-0.1796875,0.11328125,-1.111328125
1197,-0.1591796875,0.087890625,-1.09765625
1198,-0.173828125,0.13671875,-1.1533203125
1199,-0.203125,0.109375,-1.259765625
1200,-0.24609375,0.0966796875,-1.2919921875
1201,-0.193359375,0.0869140625,-1.26171875
1202,-0.189453125,0.0791015625,-1.255859375
1203,-0.2587890625,0.072265625,-1.2109375
1204,-0.1943359375,0.0234375,-1.1748046875
1205,-0.251953125,0.0419921875,-1.171875
1206,-0.20703125,0.07421875,-1.099609375
1207,-0.2275390625,0.095703125,-1.1376953125
1208,-0.2021484375,0.0869140625,-1.1689453125
1209,-0.1796875,0.125,-1.201171875
1210,-0.1904296875,0.130859375,-1.1904296875
1211,-0.1904296875,0.12109375,-1.177734375
1212,-0.1689453125,0.115234375,-1.171875
1213,-0.1748046875,0.107421875,-1.16015625
1214,-0.166015625,0.109375,-1.1484375
1215,-0.16015625,0.107421875,-1.1396484375
1216,-0.158203125,0.11328125,-1.111328125
1217,-0.1474609375,0.095703125,-1.0966796875
1218,-0.138671875,0.0849609375,-1.0703125
1219,-0.1357421875,0.056640625,-1.0546875
1220,-0.1416015625,0.056640625,-1.04296875
1221,-0.1357421875,0.0771484375,-1.03515625
1222,-0.1142578125,0.0693359375,-1.0380859375
1223,-0.1279296875,0.07421875,-1.025390625
1224,-0.1142578125,0.0751953125,-1.017578125
1225,-0.1181640625,0.0537109375,-1.0087890625
1226,-0.1318359375,0.0546875,-1.0
1227,-0.1181640625,0.0849609375,-0.9873046875
1228,-0.1171875,0.080078125,-0.9697265625
1229,-0.123046875,0.0908203125,-0.958984375
1230,-0.1171875,0.08984375,-0.953125
1231,-0.119140625,0.1005859375,-0.9453125
1232,-0.1142578125,0.1025390625,-0.93359375
1233,-0.109375,0.1015625,-0.9345703125
1234,-0.1044921875,0.1083984375,-0.9423828125
1235,-0.1025390625,0.107421875,-0.9423828125
1236,-0.1044921875,0.111328125,-0.9501953125
1237,-0.103515625,0.1181640625,-0.95703125
1238,-0.1123046875,0.11328125,-0.9697265625
1239,-0.111328125,0.1220703125,-0.9775390625
1240,-0.11328125,0.1181640625,-0.9931640625
1241,-0.115234375,0.1259765625,-1.0087890625
1242,-0.1171875,0.130859375,-1.0185546875
1243,-0.1181640625,0.1298828125,-1.025390625
1244,-0.119140625,0.1318359375,-1.0390625
1245,-0.12109375,0.1376953125,-1.041015625
1246,-0.1298828125,0.140625,-1.046875
1247,-0.1357421875,0.142578125,-1.05859375
1248,-0.13671875,0.1396484375,-1.0673828125
1249,-0.14453125,0.140625,-1.072265625
1250,-0.15234375,0.1474609375,-1.072265625
1251,-0.15234375,0.1455078125,-1.07421875
1252,-0.15234375,0.1474609375,-1.0732421875
1253,-0.154296875,0.14453125,-1.078125
1254,-0.1591796875,0.146484375,-1.0732421875
1255,-0.1591796875,0.14453125,-1.07421875
1256,-0.1611328125,0.1396484375,-1.072265625
1257,-0.1591796875,0.1416015625,-1.068359375
1258,-0.15625,0.140625,-1.052734375
1259,-0.158203125,0.1396484375,-1.0439453125
1260,-0.1474609375,0.134765625,-1.033203125
1261,-0.1513671875,0.1396484375,-1.025390625
1262,-0.150390625,0.1318359375,-1.015625
1263,-0.146484375,0.1318359375,-1.0126953125
1264,-0.142578125,0.1279296875,-1.01171875
1265,-0.146484375,0.130859375,-1.00390625
1266,-0.1416015625,0.12890625,-1.001953125
1267,-0.1416015625,0.1259765625,-0.99609375
1268,-0.140625,0.126953125,-0.9990234375
1269,-0.1376953125,0.1259765625,-0.9912109375
1270,-0.1396484375,0.1259765625,-0.9814453125
1271,-0.134765625,0.1279296875,-0.982421875
1272,-0.1435546875,0.1279296875,-0.9814453125
1273,-0.140625,0.1259765625,-0.982421875
1274,-0.14453125,0.1220703125,-0.998046875
1275,-0.1416015625,0.1220703125,-0.994140625
1276,-0.1435546875,0.12109375,-1.005859375
1277,-0.140625,0.1240234375,-0.99609375
1278,-0.14453125,0.125,-1.0048828125
1279,-0.1484375,0.1240234375,-1.001953125
1280,-0.15234375,0.1240234375,-1.0048828125
1281,-0.1494140625,0.1201171875,-1.0087890625
1282,-0.1484375,0.1220703125,-1.0068359375
1283,-0.1533203125,0.1240234375,-1.0087890625
1284,-0.1484375,0.12109375,-1.0078125
1285,-0.1484375,0.119140625,-1.0087890625
1286,-0.146484375,0.1240234375,-1.005859375
1287,-0.14453125,0.1220703125,-1.0068359375
1288,-0.1455078125,0.1171875,-1.01171875
1289,-0.1416015625,0.1220703125,-1.009765625
1290,-0.14453125,0.1201171875,-1.01171875
1291,-0.1455078125,0.123046875,-1.0224609375
1292,-0.1484375,0.115234375,-1.0244140625
1293,-0.1416015625,0.1171875,-1.021484375
1294,-0.142578125,0.1171875,-1.0244140625
1295,-0.1435546875,0.1220703125,-1.029296875
1296,-0.146484375,0.1240234375,-1.0244140625
1297,-0.150390625,0.1240234375,-1.0224609375
1298,-0.1513671875,0.1201171875,-1.0263671875
1299,-0.150390625,0.12109375,-1.0263671875
1300,-0.1484375,0.125,-1.0263671875
1301,-0.14453125,0.1298828125,-1.02734375
1302,-0.1474609375,0.1298828125,-1.029296875
1303,-0.1533203125,0.1259765625,-1.0302734375
1304,-0.1552734375,0.126953125,-1.0263671875
1305,-0.1494140625,0.1259765625,-1.0283203125
1306,-0.1455078125,0.126953125,-1.02734375
1307,-0.1513671875,0.1279296875,-1.0283203125
1308,-0.1494140625,0.1279296875,-1.029296875
1309,-0.1435546875,0.1328125,-1.0302734375
1310,-0.14453125,0.1279296875,-1.0244140625
1311,-0.146484375,0.1318359375,-1.02734375
1312,-0.1484375,0.12890625,-1.021484375
1313,-0.14453125,0.1328125,-1.0224609375
1314,-0.1474609375,0.126953125,-1.015625
1315,-0.142578125,0.12890625,-1.013671875
1316,-0.1376953125,0.1298828125,-1.0166015625
1317,-0.140625,0.1298828125,-1.0107421875
1318,-0.14453125,0.12890625,-1.015625
1319,-0.140625,0.1318359375,-1.0087890625
1320,-0.140625,0.1337890625,-1.01171875
1321,-0.1396484375,0.1318359375,-1.01171875
1322,-0.14453125,0.12890625,-1.0068359375
1323,-0.1455078125,0.130859375,-1.0009765625
1324,-0.1416015625,0.1357421875,-1.005859375
1325,-0.1416015625,0.12890625,-1.0048828125
1326,-0.1376953125,0.1298828125,-1.0078125
1327,-0.1396484375,0.1318359375,-1.0126953125
1328,-0.140625,0.126953125,-1.0107421875
1329,-0.13671875,0.1298828125,-1.009765625
1330,-0.146484375,0.130859375,-1.01953125
1331,-0.150390625,0.126953125,-1.0185546875
1332,-0.16796875,0.126953125,-1.0595703125
1333,-0.1376953125,0.125,-1.0439453125
1334,-0.123046875,0.13671875,-1.0302734375
1335,-0.1328125,0.134765625,-1.0146484375
1336,-0.1298828125,0.115234375,-1.0048828125
1337,-0.1376953125,0.1201171875,-1.0087890625
1338,-0.140625,0.130859375,-1.0166015625
1339,-0.13671875,0.1318359375,-1.0224609375
1340,-0.1416015625,0.1201171875,-1.01953125
1341,-0.14453125,0.126953125,-1.029296875
1342,-0.1513671875,0.126953125,-1.0244140625
1343,-0.1376953125,0.123046875,-1.0244140625
1344,-0.1416015625,0.125,-1.0234375
1345,-0.13671875,0.123046875,-1.0263671875
1346,-0.138671875,0.123046875,-1.0234375
1347,-0.142578125,0.119140625,-1.0205078125
1348,-0.13671875,0.123046875,-1.021484375
1349,-0.142578125,0.12890625,-1.01171875
1350,-0.140625,0.125,-1.021484375
1351,-0.1416015625,0.125,-1.021484375
1352,-0.1376953125,0.119140625,-1.0224609375
1353,-0.1396484375,0.1171875,-1.0185546875
1354,-0.1357421875,0.1201171875,-1.0205078125
1355,-0.1357421875,0.12109375,-1.0205078125
1356,-0.140625,0.1279296875,-1.0205078125
1357,-0.14453125,0.126953125,-1.013671875
1358,-0.138671875,0.123046875,-1.0166015625
1359,-0.146484375,0.125,-1.0126953125
1360,-0.1494140625,0.12890625,-1.017578125
1361,-0.1396484375,0.1240234375,-1.0185546875
1362,-0.1396484375,0.125,-1.0185546875
1363,-0.138671875,0.1240234375,-1.013671875
1364,-0.1435546875,0.1259765625,-1.017578125
1365,-0.142578125,0.1279296875,-1.021484375
1366,-0.142578125,0.125,-1.0146484375
1367,-0.1416015625,0.1240234375,-1.0205078125
1368,-0.1455078125,0.1240234375,-1.0205078125
1369,-0.140625,0.1240234375,-1.01171875
1370,-0.1474609375,0.126953125,-1.0107421875
1371,-0.1435546875,0.1318359375,-1.017578125
1372,-0.14453125,0.1240234375,-1.015625
1373,-0.1376953125,0.125,-1.015625
1374,-0.1455078125,0.1298828125,-1.0146484375
1375,-0.142578125,0.13671875,-1.0205078125
1376,-0.146484375,0.125,-1.01171875
1377,-0.1435546875,0.1279296875,-1.025390625
1378,-0.1474609375,0.125,-1.0185546875
1379,-0.1357421875,0.12890625,-1.0185546875
1380,-0.1494140625,0.130859375,-1.0185546875
1381,-0.150390625,0.1259765625,-1.0205078125
1382,-0.140625,0.1298828125,-1.01953125
1383,-0.1474609375,0.12890625,-1.015625
1384,-0.15234375,0.12890625,-1.017578125
1385,-0.1455078125,0.1318359375,-1.0166015625
1386,-0.15234375,0.1298828125,-1.0185546875
1387,-0.142578125,0.134765625,-1.0185546875
1388,-0.146484375,0.130859375,-1.0166015625
1389,-0.138671875,0.130859375,-1.01953125
1390,-0.1455078125,0.1279296875,-1.01953125
1391,-0.1435546875,0.130859375,-1.0205078125
1392,-0.1435546875,0.1318359375,-1.0224609375
1393,-0.1435546875,0.1279296875,-1.017578125
1394,-0.14453125,0.1298828125,-1.0166015625
1395,-0.14453125,0.130859375,-1.017578125
1396,-0.14453125,0.1279296875,-1.0107421875
1397,-0.1435546875,0.12890625,-1.015625
1398,-0.14453125,0.1279296875,-1.0205078125
1399,-0.1455078125,0.1298828125,-1.013671875
1400,-0.146484375,0.1318359375,-1.0126953125
1401,-0.1435546875,0.1318359375,-1.0166015625
1402,-0.1455078125,0.130859375,-1.013671875
1403,-0.1474609375,0.12890625,-1.0107421875
1404,-0.1435546875,0.126953125,-1.015625
1405,-0.1484375,0.1279296875,-1.0166015625
1406,-0.142578125,0.1328125,-1.0205078125
1407,-0.146484375,0.1298828125,-1.0126953125
1408,-0.138671875,0.126953125,-1.0185546875
1409,-0.1455078125,0.1318359375,-1.0205078125
1410,-0.140625,0.126953125,-1.021484375
1411,-0.1494140625,0.1259765625,-1.0166015625
1412,-0.138671875,0.1240234375,-1.0224609375
1413,-0.13671875,0.1220703125,-1.0244140625
1414,-0.146484375,0.125,-1.0234375
1415,-0.150390625,0.125,-1.01953125
1416,-0.1435546875,0.1259765625,-1.0205078125
1417,-0.1474609375,0.1259765625,-1.01953125
1418,-0.140625,0.1240234375,-1.013671875
1419,-0.1376953125,0.130859375,-1.0244140625
1420,-0.1484375,0.1279296875,-1.0224609375
1421,-0.1396484375,0.126953125,-1.0205078125
1422,-0.1455078125,0.12890625,-1.017578125
1423,-0.140625,0.12890625,-1.017578125
1424,-0.14453125,0.126953125,-1.0107421875
1425,-0.146484375,0.12890625,-1.013671875
1426,-0.1396484375,0.1259765625,-1.0146484375
1427,-0.146484375,0.126953125,-1.0166015625
1428,-0.1455078125,0.12890625,-1.0166015625
1429,-0.146484375,0.12890625,-1.0107421875
1430,-0.138671875,0.126953125,-1.0205078125
1431,-0.142578125,0.126953125,-1.013671875
1432,-0.1396484375,0.1318359375,-1.0234375
1433,-0.1376953125,0.130859375,-1.021484375
1434,-0.142578125,0.1259765625,-1.0244140625
1435,-0.1484375,0.125,-1.0205078125
1436,-0.1455078125,0.125,-1.01953125
1437,-0.138671875,0.1318359375,-1.0166015625
1438,-0.1474609375,0.1298828125,-1.015625
1439,-0.1435546875,0.1279296875,-1.01953125
1440,-0.146484375,0.12890625,-1.015625
1441,-0.1435546875,0.1298828125,-1.013671875
1442,-0.140625,0.130859375,-1.0205078125
1443,-0.140625,0.1318359375,-1.01953125
1444,-0.140625,0.1298828125,-1.0224609375
1445,-0.138671875,0.1279296875,-1.0146484375
1446,-0.1474609375,0.12890625,-1.0146484375
1447,-0.1455078125,0.1318359375,-1.0146484375
1448,-0.14453125,0.1279296875,-1.015625
1449,-0.142578125,0.12890625,-1.013671875
1450,-0.140625,0.125,-1.01953125
1451,-0.1416015625,0.1318359375,-1.01953125
1452,-0.1435546875,0.1298828125,-1.021484375
1453,-0.140625,0.12890625,-1.0166015625
1454,-0.1474609375,0.12890625,-1.0224609375
1455,-0.1435546875,0.1298828125,-1.021484375
1456,-0.1416015625,0.12890625,-1.017578125
1457,-0.1416015625,0.126953125,-1.0126953125
1458,-0.14453125,0.1318359375,-1.0146484375
1459,-0.1484375,0.13671875,-1.0185546875
1460,-0.1357421875,0.1259765625,-1.01953125
1461,-0.15234375,0.1259765625,-1.01953125
1462,-0.1435546875,0.126953125,-1.0224609375
1463,-0.1455078125,0.13671875,-1.01171875
1464,-0.14453125,0.12890625,-1.0185546875
1465,-0.140625,0.12890625,-1.0126953125
1466,-0.140625,0.1279296875,-1.013671875
1467,-0.1396484375,0.1279296875,-1.013671875
1468,-0.1396484375,0.1279296875,-1.0126953125
1469,-0.142578125,0.1259765625,-1.0234375
1470,-0.1396484375,0.1298828125,-1.0185546875
1471,-0.1376953125,0.1279296875,-1.015625
1472,-0.14453125,0.1318359375,-1.015625
1473,-0.13671875,0.1279296875,-1.0126953125
1474,-0.13671875,0.126953125,-1.0185546875
1475,-0.1416015625,0.1259765625,-1.0234375
1476,-0.1455078125,0.1298828125,-1.0185546875
1477,-0.13671875,0.130859375,-1.0166015625
1478,-0.1416015625,0.1259765625,-1.013671875
1479,-0.142578125,0.1328125,-1.017578125
1480,-0.14453125,0.1318359375,-1.015625
1481,-0.1337890625,0.126953125,-1.0166015625
1482,-0.1396484375,0.1259765625,-1.0224609375
1483,-0.1396484375,0.12890625,-1.01953125
1484,-0.140625,0.125,-1.01171875
1485,-0.142578125,0.1279296875,-1.0185546875
1486,-0.138671875,0.12890625,-1.015625
1487,-0.134765625,0.1279296875,-1.0205078125
1488,-0.138671875,0.130859375,-1.021484375
1489,-0.138671875,0.1298828125,-1.0224609375
1490,-0.1337890625,0.1337890625,-1.0126953125
1491,-0.1474609375,0.13671875,-1.0126953125
1492,-0.1328125,0.1279296875,-1.021484375
1493,-0.14453125,0.1279296875,-1.0107421875
1494,-0.1435546875,0.1279296875,-1.0205078125
1495,-0.1376953125,0.1279296875,-1.021484375
1496,-0.1396484375,0.126953125,-1.0224609375
1497,-0.142578125,0.126953125,-1.0166015625
1498,-0.1376953125,0.1298828125,-1.025390625
1499,-0.138671875,0.1318359375,-1.0126953125
1500,-0.1416015625,0.12890625,-1.013671875
1501,-0.1337890625,0.1328125,-1.0185546875
1502,-0.1357421875,0.1328125,-1.017578125
1503,-0.1396484375,0.1298828125,-1.0205078125
1504,-0.13671875,0.1328125,-1.0234375
1505,-0.1396484375,0.1318359375,-1.025390625
1506,-0.1416015625,0.1318359375,-1.01953125
1507,-0.142578125,0.1298828125,-1.021484375
1508,-0.140625,0.130859375,-1.0234375
1509,-0.1435546875,0.12890625,-1.025390625
1510,-0.142578125,0.1337890625,-1.017578125
1511,-0.1396484375,0.12890625,-1.017578125
1512,-0.1376953125,0.1337890625,-1.02734375
1513,-0.1376953125,0.1318359375,-1.0224609375
1514,-0.13671875,0.130859375,-1.0224609375
1515,-0.140625,0.134765625,-1.0263671875
1516,-0.1376953125,0.1328125,-1.021484375
1517,-0.1416015625,0.1318359375,-1.0205078125
1518,-0.1416015625,0.1298828125,-1.0234375
1519,-0.142578125,0.1328125,-1.0263671875
1520,-0.140625,0.126953125,-1.021484375
1521,-0.13671875,0.1328125,-1.0234375
1522,-0.1416015625,0.12890625,-1.0185546875
1523,-0.140625,0.130859375,-1.015625
1524,-0.1416015625,0.1318359375,-1.0107421875
1525,-0.130859375,0.130859375,-1.01953125
1526,-0.140625,0.1328125,-1.0126953125
1527,-0.1416015625,0.12890625,-1.0185546875
1528,-0.142578125,0.1328125,-1.0244140625
1529,-0.1376953125,0.1376953125,-1.0146484375
1530,-0.1396484375,0.1318359375,-1.017578125
1531,-0.134765625,0.130859375,-1.0166015625
1532,-0.1435546875,0.1337890625,-1.0205078125
1533,-0.1416015625,0.1318359375,-1.0087890625
1534,-0.1416015625,0.1328125,-1.0146484375
1535,-0.14453125,0.1328125,-1.01171875
1536,-0.140625,0.1328125,-1.0185546875
1537,-0.1455078125,0.134765625,-1.0205078125
1538,-0.146484375,0.1328125,-1.015625
1539,-0.142578125,0.1396484375,-1.017578125
1540,-0.134765625,0.1298828125,-1.0166015625
1541,-0.1513671875,0.1328125,-1.0224609375
1542,-0.1435546875,0.1337890625,-1.01171875
1543,-0.142578125,0.1328125,-1.0185546875
1544,-0.1494140625,0.1337890625,-1.0146484375
1545,-0.140625,0.1337890625,-1.009765625
1546,-0.142578125,0.12890625,-1.0126953125
1547,-0.1435546875,0.1376953125,-1.015625
1548,-0.1416015625,0.1298828125,-1.0224609375
1549,-0.146484375,0.1357421875,-1.0146484375
1550,-0.1416015625,0.13671875,-1.0205078125
1551,-0.1494140625,0.138671875,-1.0205078125
1552,-0.1416015625,0.1279296875,-1.0205078125
1553,-0.1455078125,0.1357421875,-1.021484375
1554,-0.146484375,0.1337890625,-1.0126953125
1555,-0.14453125,0.134765625,-1.01171875
1556,-0.1455078125,0.13671875,-1.0068359375
1557,-0.1435546875,0.134765625,-1.0107421875
1558,-0.1474609375,0.1376953125,-1.0087890625
1559,-0.1484375,0.140625,-1.013671875
1560,-0.1484375,0.138671875,-1.0029296875
1561,-0.1494140625,0.1376953125,-1.01171875
1562,-0.1494140625,0.134765625,-1.0087890625
1563,-0.1435546875,0.134765625,-1.017578125
1564,-0.1484375,0.13671875,-1.0205078125
1565,-0.142578125,0.1337890625,-1.0146484375
1566,-0.1474609375,0.13671875,-1.017578125
1567,-0.1474609375,0.13671875,-1.01171875
1568,-0.14453125,0.1376953125,-1.015625
1569,-0.142578125,0.1376953125,-1.0107421875
1570,-0.14453125,0.1337890625,-1.0205078125
1571,-0.1455078125,0.13671875,-1.0087890625
1572,-0.150390625,0.134765625,-1.0126953125
1573,-0.1455078125,0.13671875,-1.013671875
1574,-0.146484375,0.13671875,-1.013671875
1575,-0.1396484375,0.13671875,-1.009765625
1576,-0.15234375,0.1376953125,-1.0205078125
1577,-0.15234375,0.1376953125,-1.01171875
1578,-0.1474609375,0.1357421875,-1.0146484375
1579,-0.14453125,0.134765625,-1.017578125
1580,-0.1455078125,0.1376953125,-1.015625
1581,-0.140625,0.1396484375,-1.0146484375
1582,-0.1455078125,0.1376953125,-1.0146484375
1583,-0.150390625,0.134765625,-1.0166015625
1584,-0.146484375,0.140625,-1.01171875
1585,-0.14453125,0.1298828125,-1.0107421875
1586,-0.142578125,0.134765625,-1.015625
1587,-0.14453125,0.13671875,-1.0078125
1588,-0.14453125,0.138671875,-1.017578125
1589,-0.1455078125,0.1376953125,-1.0126953125
1590,-0.1484375,0.130859375,-1.0126953125
1591,-0.150390625,0.13671875,-1.013671875
1592,-0.1435546875,0.1328125,-1.0224609375
1593,-0.142578125,0.13671875,-1.0224609375
1594,-0.140625,0.13671875,-1.0234375
1595,-0.14453125,0.13671875,-1.021484375
1596,-0.1396484375,0.1328125,-1.0224609375
1597,-0.1416015625,0.1337890625,-1.0234375
1598,-0.142578125,0.1357421875,-1.021484375
1599,-0.1435546875,0.134765625,-1.0244140625
1600,-0.142578125,0.138671875,-1.0244140625
1601,-0.1396484375,0.1328125,-1.0185546875
1602,-0.1455078125,0.140625,-1.0166015625
1603,-0.1416015625,0.1318359375,-1.0107421875
1604,-0.1484375,0.140625,-1.015625
1605,-0.146484375,0.1328125,-1.0166015625
1606,-0.1474609375,0.13671875,-1.0224609375
1607,-0.1435546875,0.13671875,-1.0234375
1608,-0.1484375,0.13671875,-1.015625
1609,-0.14453125,0.1376953125,-1.0185546875
1610,-0.1455078125,0.1376953125,-1.015625
1611,-0.150390625,0.142578125,-1.0224609375
1612,-0.138671875,0.1279296875,-1.01171875
1613,-0.150390625,0.1357421875,-1.0166015625
1614,-0.1435546875,0.138671875,-1.01953125
1615,-0.14453125,0.1435546875,-1.0146484375
1616,-0.15234375,0.1376953125,-1.021484375
1617,-0.1474609375,0.1357421875,-1.015625
1618,-0.1455078125,0.138671875,-1.0185546875
1619,-0.1484375,0.1357421875,-1.0205078125
1620,-0.146484375,0.134765625,-1.0166015625
1621,-0.1455078125,0.140625,-1.0185546875
1622,-0.15234375,0.140625,-1.01953125
1623,-0.1357421875,0.130859375,-1.021484375
1624,-0.146484375,0.13671875,-1.0146484375
1625,-0.1533203125,0.130859375,-1.01171875
1626,-0.15234375,0.1376953125,-1.0078125
1627,-0.1494140625,0.13671875,-1.0087890625
1628,-0.146484375,0.1357421875,-1.009765625
1629,-0.140625,0.138671875,-1.009765625
1630,-0.1396484375,0.12890625,-1.015625
1631,-0.14453125,0.130859375,-1.0166015625
1632,-0.1474609375,0.130859375,-1.01171875
1633,-0.1474609375,0.1337890625,-1.013671875
1634,-0.1484375,0.134765625,-1.0107421875
1635,-0.1455078125,0.138671875,-1.0205078125
1636,-0.142578125,0.1337890625,-1.009765625
1637,-0.146484375,0.134765625,-1.017578125
1638,-0.1474609375,0.1337890625,-1.0166015625
1639,-0.14453125,0.1337890625,-1.0185546875
1640,-0.1494140625,0.126953125,-1.017578125
1641,-0.1533203125,0.1328125,-1.015625
1642,-0.1513671875,0.142578125,-1.0126953125
1643,-0.14453125,0.1376953125,-1.01953125
1644,-0.14453125,0.138671875,-1.01171875
1645,-0.1455078125,0.1328125,-1.02734375
1646,-0.146484375,0.1376953125,-1.021484375
1647,-0.1416015625,0.13671875,-1.021484375
1648,-0.1474609375,0.1376953125,-1.0234375
1649,-0.150390625,0.1396484375,-1.0205078125
1650,-0.1513671875,0.1376953125,-1.0224609375
1651,-0.1396484375,0.1337890625,-1.0263671875
1652,-0.1484375,0.1318359375,-1.0166015625
1653,-0.140625,0.1416015625,-1.0205078125
1654,-0.1484375,0.12890625,-1.0166015625
1655,-0.1513671875,0.134765625,-1.0146484375
1656,-0.1513671875,0.1376953125,-1.01953125
1657,-0.1474609375,0.1337890625,-1.015625
1658,-0.150390625,0.1376953125,-1.009765625
1659,-0.1484375,0.134765625,-1.0146484375
1660,-0.1591796875,0.138671875,-1.013671875
1661,-0.1416015625,0.1328125,-1.0166015625
1662,-0.146484375,0.140625,-1.0126953125
1663,-0.14453125,0.13671875,-1.021484375
1664,-0.1474609375,0.1376953125,-1.015625
1665,-0.150390625,0.1337890625,-1.0244140625
1666,-0.1533203125,0.1416015625,-1.01953125
1667,-0.138671875,0.130859375,-1.015625
1668,-0.1513671875,0.138671875,-1.0107421875
1669,-0.1337890625,0.1337890625,-1.0146484375
1670,-0.1494140625,0.1376953125,-1.0107421875
1671,-0.154296875,0.140625,-1.01171875
1672,-0.1513671875,0.1376953125,-1.01171875
1673,-0.1494140625,0.1396484375,-1.0087890625
1674,-0.1513671875,0.1337890625,-1.0068359375
1675,-0.1513671875,0.138671875,-1.005859375
1676,-0.1474609375,0.134765625,-1.0048828125
1677,-0.146484375,0.13671875,-1.0087890625
1678,-0.1494140625,0.1396484375,-1.009765625
1679,-0.1474609375,0.134765625,-1.009765625
1680,-0.14453125,0.1318359375,-1.0078125
1681,-0.154296875,0.134765625,-1.0126953125
1682,-0.1494140625,0.134765625,-1.0087890625
1683,-0.146484375,0.1376953125,-1.013671875
1684,-0.15234375,0.13671875,-1.01171875
1685,-0.1533203125,0.1396484375,-1.01171875
1686,-0.1435546875,0.134765625,-1.0263671875
1687,-0.15234375,0.1376953125,-1.02734375
1688,-0.1474609375,0.134765625,-1.02734375
1689,-0.150390625,0.1328125,-1.021484375
1690,-0.158203125,0.1298828125,-1.009765625
1691,-0.14453125,0.13671875,-1.01953125
1692,-0.1513671875,0.130859375,-1.015625
1693,-0.14453125,0.13671875,-1.0185546875
1694,-0.1494140625,0.138671875,-1.01953125
1695,-0.1494140625,0.1357421875,-1.01171875
1696,-0.1513671875,0.1396484375,-1.0185546875
1697,-0.150390625,0.1337890625,-1.015625
1698,-0.1513671875,0.134765625,-1.0146484375
1699,-0.1494140625,0.13671875,-1.0126953125
1700,-0.1474609375,0.138671875,-1.0126953125
1701,-0.1484375,0.1357421875,-1.0107421875
1702,-0.1328125,0.134765625,-1.01171875
1703,-0.1455078125,0.13671875,-1.0107421875
1704,-0.1455078125,0.1328125,-1.0166015625
1705,-0.15234375,0.1298828125,-1.01171875
1706,-0.162109375,0.162109375,-1.056640625
1707,-0.14453125,0.1328125,-0.982421875
1708,-0.142578125,0.12890625,-1.01171875
1709,-0.15234375,0.1298828125,-1.021484375
1710,-0.1435546875,0.130859375,-1.013671875
1711,-0.150390625,0.1337890625,-1.009765625
1712,-0.1328125,0.1376953125,-1.0146484375
1713,-0.140625,0.1337890625,-1.0068359375
1714,-0.14453125,0.13671875,-1.0126953125
1715,-0.15234375,0.13671875,-1.01171875
1716,-0.1484375,0.130859375,-1.0205078125
1717,-0.15234375,0.1337890625,-1.0205078125
1718,-0.142578125,0.1357421875,-1.0185546875
1719,-0.1455078125,0.1396484375,-1.0234375
1720,-0.1435546875,0.1318359375,-1.0205078125
1721,-0.1474609375,0.134765625,-1.0205078125
1722,-0.1494140625,0.1357421875,-1.0146484375
1723,-0.1455078125,0.1357421875,-1.017578125
1724,-0.15234375,0.1337890625,-1.029296875
1725,-0.1640625,0.1337890625,-1.005859375
1726,-0.1455078125,0.134765625,-1.015625
1727,-0.1435546875,0.1298828125,-1.015625
1728,-0.1552734375,0.1357421875,-1.0205078125
1729,-0.15234375,0.1337890625,-1.017578125
1730,-0.14453125,0.12890625,-1.0224609375
1731,-0.1474609375,0.1328125,-1.0224609375
1732,-0.150390625,0.1318359375,-1.0146484375
1733,-0.134765625,0.1376953125,-1.009765625
1734,-0.1103515625,0.1357421875,-1.0068359375
1735,-0.181640625,0.1376953125,-0.98046875
1736,-0.14453125,0.1142578125,-1.0107421875
1737,-0.1494140625,0.1298828125,-1.0234375
1738,-0.1474609375,0.1298828125,-1.0205078125
1739,-0.14453125,0.13671875,-1.0107421875
1740,-0.1484375,0.1328125,-1.0166015625
1741,-0.1533203125,0.1328125,-1.017578125
1742,-0.1455078125,0.138671875,-1.0166015625
1743,-0.13671875,0.138671875,-1.0205078125
1744,-0.1416015625,0.12890625,-1.0126953125
1745,-0.1533203125,0.1337890625,-1.0146484375
1746,-0.15234375,0.1357421875,-1.009765625
1747,-0.13671875,0.1328125,-1.0166015625
1748,-0.1494140625,0.1328125,-1.0224609375
1749,-0.1484375,0.1337890625,-1.0224609375
1750,-0.1455078125,0.13671875,-1.013671875
1751,-0.1162109375,0.138671875,-1.01953125
1752,-0.1611328125,0.115234375,-0.9853515625
1753,-0.1484375,0.1279296875,-1.017578125
1754,-0.1455078125,0.1298828125,-1.0283203125
1755,-0.1376953125,0.130859375,-1.0087890625
1756,-0.142578125,0.1259765625,-1.0205078125
1757,-0.15234375,0.1279296875,-1.0107421875
1758,-0.1533203125,0.1318359375,-1.013671875
1759,-0.146484375,0.1357421875,-1.017578125
1760,-0.142578125,0.138671875,-1.0166015625
1761,-0.154296875,0.1396484375,-1.021484375
1762,-0.1318359375,0.1259765625,-1.0048828125
1763,-0.1572265625,0.1298828125,-1.0146484375
1764,-0.15234375,0.134765625,-1.01171875
1765,-0.1533203125,0.1328125,-1.0126953125
1766,-0.1533203125,0.1357421875,-1.0205078125
1767,-0.142578125,0.1279296875,-1.017578125
1768,-0.1513671875,0.1318359375,-1.0224609375
1769,-0.1455078125,0.1298828125,-1.0126953125
1770,-0.142578125,0.12890625,-1.0263671875
1771,-0.1611328125,0.134765625,-1.0244140625
1772,-0.134765625,0.140625,-1.0185546875
1773,-0.1376953125,0.1171875,-1.0419921875
1774,-0.1533203125,0.1220703125,-0.998046875
1775,-0.1396484375,0.12109375,-1.017578125
1776,-0.154296875,0.130859375,-1.0283203125
1777,-0.1416015625,0.12890625,-1.01953125
1778,-0.1435546875,0.13671875,-1.013671875
1779,-0.1474609375,0.1396484375,-1.0205078125
1780,-0.1513671875,0.12890625,-1.0107421875
1781,-0.1474609375,0.134765625,-1.017578125
1782,-0.1484375,0.12890625,-1.0185546875
1783,-0.1416015625,0.12890625,-1.017578125
1784,-0.150390625,0.1318359375,-1.0087890625
1785,-0.146484375,0.130859375,-1.015625
1786,-0.1435546875,0.1318359375,-1.0166015625
1787,-0.150390625,0.1318359375,-1.015625
1788,-0.150390625,0.126953125,-1.015625
1789,-0.1484375,0.12890625,-1.0185546875
1790,-0.1455078125,0.1396484375,-1.01953125
1791,-0.1435546875,0.1328125,-1.01953125
1792,-0.142578125,0.1298828125,-1.01171875
1793,-0.1494140625,0.130859375,-1.0146484375
1794,-0.1455078125,0.13671875,-1.0146484375
1795,-0.150390625,0.1328125,-1.015625
1796,-0.1513671875,0.1279296875,-1.0146484375
1797,-0.154296875,0.1357421875,-1.0146484375
1798,-0.13671875,0.1298828125,-1.017578125
1799,-0.154296875,0.1337890625,-1.013671875
1800,-0.15234375,0.1396484375,-1.0166015625
1801,-0.1455078125,0.1357421875,-1.01953125
1802,-0.1396484375,0.1328125,-1.0166015625
1803,-0.14453125,0.12890625,-1.015625
1804,-0.1435546875,0.13671875,-1.0244140625
1805,-0.1513671875,0.134765625,-1.015625
1806,-0.146484375,0.1357421875,-1.0107421875
1807,-0.1513671875,0.134765625,-1.0146484375
1808,-0.146484375,0.134765625,-1.021484375
1809,-0.1474609375,0.1337890625,-1.01171875
1810,-0.14453125,0.130859375,-1.0087890625
1811,-0.142578125,0.1328125,-1.0126953125
1812,-0.15234375,0.1328125,-1.015625
1813,-0.1533203125,0.134765625,-1.01171875
1814,-0.1435546875,0.12890625,-1.0166015625
1815,-0.1513671875,0.1357421875,-1.0146484375
1816,-0.142578125,0.1376953125,-1.0146484375
1817,-0.150390625,0.1337890625,-1.0068359375
1818,-0.15234375,0.1328125,-1.017578125
1819,-0.150390625,0.134765625,-1.015625
1820,-0.1513671875,0.1318359375,-1.0126953125
1821,-0.146484375,0.1396484375,-1.017578125
1822,-0.1474609375,0.1337890625,-1.0166015625
1823,-0.1474609375,0.1318359375,-1.0126953125
1824,-0.1484375,0.1376953125,-1.01171875
1825,-0.1494140625,0.126953125,-1.015625
1826,-0.1513671875,0.1337890625,-1.0107421875
1827,-0.1533203125,0.134765625,-1.0087890625
1828,-0.1455078125,0.134765625,-1.0107421875
1829,-0.1494140625,0.1376953125,-1.013671875
1830,-0.1416015625,0.13671875,-1.013671875
1831,-0.1455078125,0.1376953125,-1.015625
1832,-0.1435546875,0.12890625,-1.0205078125
1833,-0.1474609375,0.130859375,-1.0263671875
1834,-0.1484375,0.1337890625,-1.0224609375
1835,-0.140625,0.1337890625,-1.0166015625
1836,-0.1416015625,0.1298828125,-1.015625
1837,-0.15234375,0.134765625,-1.0185546875
1838,-0.14453125,0.130859375,-1.017578125
1839,-0.1484375,0.1337890625,-1.013671875
1840,-0.1494140625,0.1318359375,-1.01953125
1841,-0.146484375,0.1328125,-1.017578125
1842,-0.146484375,0.134765625,-1.01953125
1843,-0.142578125,0.1337890625,-1.015625
1844,-0.150390625,0.1328125,-1.0185546875
1845,-0.150390625,0.1357421875,-1.015625
1846,-0.142578125,0.1328125,-1.0146484375
1847,-0.1474609375,0.1318359375,-1.0166015625
1848,-0.15234375,0.1328125,-1.015625
1849,-0.146484375,0.1318359375,-1.0185546875
1850,-0.1455078125,0.1318359375,-1.0126953125
1851,-0.142578125,0.1298828125,-1.0126953125
1852,-0.1455078125,0.134765625,-1.0205078125
1853,-0.1494140625,0.1337890625,-1.013671875
1854,-0.1494140625,0.1357421875,-1.015625
1855,-0.1416015625,0.1328125,-1.015625
1856,-0.140625,0.138671875,-1.01171875
1857,-0.1494140625,0.1318359375,-1.013671875
1858,-0.1455078125,0.1357421875,-1.015625
1859,-0.14453125,0.1318359375,-1.01171875
1860,-0.1474609375,0.1328125,-1.0166015625
1861,-0.14453125,0.1318359375,-1.015625
1862,-0.1474609375,0.1328125,-1.0087890625
1863,-0.15234375,0.134765625,-1.021484375
1864,-0.14453125,0.140625,-1.017578125
1865,-0.1416015625,0.1328125,-1.01171875
1866,-0.1494140625,0.134765625,-1.021484375
1867,-0.1435546875,0.1376953125,-1.0205078125
1868,-0.146484375,0.1396484375,-1.0205078125
1869,-0.1396484375,0.1328125,-1.0185546875
1870,-0.1455078125,0.1396484375,-1.01953125
1871,-0.1474609375,0.138671875,-1.025390625
1872,-0.1494140625,0.1357421875,-1.0205078125
1873,-0.1513671875,0.1279296875,-1.01953125
1874,-0.146484375,0.13671875,-1.025390625
1875,-0.1484375,0.138671875,-1.0244140625
1876,-0.146484375,0.134765625,-1.02734375
1877,-0.1455078125,0.1318359375,-1.0205078125
1878,-0.1484375,0.134765625,-1.01953125
1879,-0.15234375,0.1357421875,-1.021484375
1880,-0.14453125,0.1337890625,-1.017578125
1881,-0.1513671875,0.1328125,-1.0166015625
1882,-0.14453125,0.12890625,-1.0166015625
1883,-0.14453125,0.1318359375,-1.015625
1884,-0.1416015625,0.130859375,-1.017578125
1885,-0.1484375,0.130859375,-1.013671875
1886,-0.150390625,0.1376953125,-1.0166015625
1887,-0.15234375,0.1337890625,-1.017578125
1888,-0.1455078125,0.1298828125,-1.015625
1889,-0.1455078125,0.1376953125,-1.0244140625
1890,-0.1474609375,0.1328125,-1.013671875
1891,-0.142578125,0.1357421875,-1.0107421875
1892,-0.1484375,0.138671875,-1.017578125
1893,-0.146484375,0.134765625,-1.025390625
1894,-0.146484375,0.1396484375,-1.01953125
1895,-0.146484375,0.1298828125,-1.0146484375
1896,-0.142578125,0.1318359375,-1.0205078125
1897,-0.1474609375,0.140625,-1.0244140625
1898,-0.154296875,0.13671875,-1.015625
1899,-0.146484375,0.142578125,-1.021484375
1900,-0.1494140625,0.134765625,-1.0068359375
1901,-0.1484375,0.1298828125,-1.0146484375
1902,-0.1513671875,0.142578125,-1.0283203125
1903,-0.146484375,0.1396484375,-1.021484375
1904,-0.142578125,0.1396484375,-1.009765625
1905,-0.150390625,0.13671875,-1.0166015625
1906,-0.1494140625,0.1337890625,-1.0205078125
1907,-0.1494140625,0.134765625,-1.01171875
1908,-0.146484375,0.138671875,-1.017578125
1909,-0.1513671875,0.1357421875,-1.01953125
1910,-0.1484375,0.140625,-1.013671875
1911,-0.14453125,0.138671875,-1.017578125
1912,-0.1484375,0.13671875,-1.01171875
1913,-0.1484375,0.13671875,-1.01171875
1914,-0.146484375,0.1416015625,-1.013671875
1915,-0.1494140625,0.13671875,-1.0146484375
1916,-0.1533203125,0.1376953125,-1.01953125
1917,-0.140625,0.1435546875,-1.0166015625
1918,-0.1494140625,0.1376953125,-1.013671875
1919,-0.14453125,0.1376953125,-1.015625
1920,-0.150390625,0.140625,-1.013671875
1921,-0.1494140625,0.134765625,-1.0146484375
1922,-0.1533203125,0.138671875,-1.015625
1923,-0.15234375,0.1376953125,-1.0185546875
1924,-0.15234375,0.134765625,-1.013671875
1925,-0.150390625,0.1357421875,-1.0166015625
1926,-0.1494140625,0.140625,-1.0087890625
1927,-0.1474609375,0.140625,-1.013671875
1928,-0.14453125,0.13671875,-1.01953125
1929,-0.14453125,0.1337890625,-1.0205078125
1930,-0.1494140625,0.140625,-1.0166015625
1931,-0.1474609375,0.1416015625,-1.015625
1932,-0.1513671875,0.138671875,-1.017578125
1933,-0.14453125,0.1396484375,-1.0166015625
1934,-0.1484375,0.1396484375,-1.015625
1935,-0.142578125,0.1396484375,-1.01953125
1936,-0.1474609375,0.1376953125,-1.0107421875
1937,-0.1484375,0.13671875,-1.013671875
1938,-0.14453125,0.1396484375,-1.0126953125
1939,-0.154296875,0.1376953125,-1.0126953125
1940,-0.1494140625,0.138671875,-1.0107421875
1941,-0.1494140625,0.1396484375,-1.0087890625
1942,-0.1416015625,0.140625,-1.015625
1943,-0.1533203125,0.138671875,-1.0185546875
1944,-0.1435546875,0.1376953125,-1.0107421875
1945,-0.1435546875,0.1357421875,-1.017578125
1946,-0.146484375,0.1376953125,-1.0185546875
1947,-0.1484375,0.1416015625,-1.0166015625
1948,-0.1455078125,0.140625,-1.0126953125
1949,-0.1484375,0.134765625,-1.009765625
1950,-0.1455078125,0.14453125,-1.0126953125
1951,-0.1494140625,0.140625,-1.013671875
1952,-0.1513671875,0.1337890625,-1.015625
1953,-0.15234375,0.140625,-1.0107421875
1954,-0.1455078125,0.1376953125,-1.009765625
1955,-0.150390625,0.142578125,-1.009765625
1956,-0.1484375,0.1396484375,-1.01171875
1957,-0.1484375,0.1416015625,-1.0087890625
1958,-0.14453125,0.1396484375,-1.0068359375
1959,-0.150390625,0.1416015625,-1.005859375
1960,-0.142578125,0.138671875,-1.0166015625
1961,-0.1455078125,0.13671875,-1.01953125
1962,-0.140625,0.1357421875,-1.009765625
1963,-0.14453125,0.140625,-1.0224609375
1964,-0.1484375,0.142578125,-1.0146484375
1965,-0.146484375,0.138671875,-1.01953125
1966,-0.1474609375,0.140625,-1.015625
1967,-0.1513671875,0.13671875,-1.0146484375
1968,-0.1455078125,0.1416015625,-1.015625
1969,-0.1513671875,0.1357421875,-1.013671875
1970,-0.1494140625,0.1416015625,-1.01171875
1971,-0.14453125,0.138671875,-1.013671875
1972,-0.1455078125,0.138671875,-1.0107421875
1973,-0.142578125,0.1376953125,-1.015625
1974,-0.1484375,0.140625,-1.013671875
1975,-0.1416015625,0.140625,-1.0107421875
1976,-0.146484375,0.138671875,-1.017578125
1977,-0.1484375,0.134765625,-1.021484375
1978,-0.146484375,0.138671875,-1.015625
1979,-0.1455078125,0.142578125,-1.015625
1980,-0.142578125,0.146484375,-1.0185546875
1981,-0.1474609375,0.1396484375,-1.0166015625
1982,-0.146484375,0.1396484375,-1.0166015625
1983,-0.1484375,0.1435546875,-1.021484375
1984,-0.1474609375,0.138671875,-1.013671875
1985,-0.1494140625,0.1416015625,-1.017578125
1986,-0.1455078125,0.138671875,-1.015625
1987,-0.146484375,0.1396484375,-1.0166015625
1988,-0.140625,0.1376953125,-1.0126953125
1989,-0.1455078125,0.1416015625,-1.0185546875
1990,-0.14453125,0.140625,-1.01171875
1991,-0.1474609375,0.1416015625,-1.01953125
1992,-0.1396484375,0.138671875,-1.01171875
1993,-0.1435546875,0.142578125,-1.0146484375
1994,-0.1484375,0.142578125,-1.0107421875
1995,-0.1474609375,0.13671875,-1.0166015625
1996,-0.14453125,0.1337890625,-1.0078125
1997,-0.1416015625,0.13671875,-1.0146484375
1998,-0.1474609375,0.1416015625,-1.013671875
1999,-0.13671875,0.1396484375,-1.0146484375
2000,-0.142578125,0.1357421875,-1.0166015625
2001,-0.142578125,0.1396484375,-1.013671875
2002,-0.150390625,0.140625,-1.015625
2003,-0.14453125,0.1376953125,-1.015625
2004,-0.1484375,0.140625,-1.0126953125
2005,-0.1416015625,0.1416015625,-1.0205078125
2006,-0.142578125,0.13671875,-1.015625
2007,-0.142578125,0.1376953125,-1.017578125
2008,-0.138671875,0.1376953125,-1.0234375
2009,-0.14453125,0.13671875,-1.015625
2010,-0.14453125,0.1396484375,-1.015625
2011,-0.142578125,0.142578125,-1.0146484375
2012,-0.1455078125,0.1396484375,-1.02734375
2013,-0.14453125,0.138671875,-1.0224609375
2014,-0.1455078125,0.1416015625,-1.01953125
2015,-0.1484375,0.1328125,-1.0146484375
2016,-0.14453125,0.1396484375,-1.015625
2017,-0.1455078125,0.138671875,-1.01953125
2018,-0.138671875,0.138671875,-1.015625
2019,-0.1396484375,0.1416015625,-1.017578125
2020,-0.1416015625,0.1416015625,-1.01171875
2021,-0.1396484375,0.140625,-1.0087890625
2022,-0.13671875,0.1376953125,-1.0078125
2023,-0.1435546875,0.138671875,-1.01171875
2024,-0.1416015625,0.142578125,-1.0087890625
2025,-0.1435546875,0.138671875,-1.0107421875
2026,-0.1416015625,0.13671875,-1.013671875
2027,-0.1455078125,0.1416015625,-1.013671875
2028,-0.142578125,0.1396484375,-1.0126953125
2029,-0.1455078125,0.1376953125,-1.01953125
2030,-0.1435546875,0.140625,-1.017578125
2031,-0.138671875,0.140625,-1.0244140625
2032,-0.1416015625,0.1416015625,-1.017578125
2033,-0.1396484375,0.140625,-1.0224609375
2034,-0.1435546875,0.1376953125,-1.021484375
2035,-0.1396484375,0.1396484375,-1.02734375
2036,-0.1455078125,0.140625,-1.01953125
2037,-0.1396484375,0.1396484375,-1.0224609375
2038,-0.1455078125,0.13671875,-1.015625
2039,-0.142578125,0.1357421875,-1.0185546875
2040,-0.134765625,0.138671875,-1.01953125
2041,-0.1416015625,0.1416015625,-1.0224609375
2042,-0.142578125,0.140625,-1.0146484375
2043,-0.142578125,0.1396484375,-1.0185546875
2044,-0.140625,0.140625,-1.0224609375
2045,-0.13671875,0.142578125,-1.013671875
2046,-0.138671875,0.1435546875,-1.0166015625
2047,-0.1416015625,0.138671875,-1.013671875
2048,-0.138671875,0.1396484375,-1.0185546875
2049,-0.1416015625,0.138671875,-1.0146484375
2050,-0.1455078125,0.140625,-1.0087890625
2051,-0.1435546875,0.1357421875,-1.0146484375
2052,-0.1416015625,0.140625,-1.0126953125
2053,-0.14453125,0.1435546875,-1.015625
2054,-0.1455078125,0.138671875,-1.0224609375
2055,-0.138671875,0.138671875,-1.0126953125
2056,-0.1416015625,0.138671875,-1.017578125
2057,-0.1376953125,0.140625,-1.015625
2058,-0.1435546875,0.138671875,-1.021484375
2059,-0.1396484375,0.142578125,-1.0166015625
2060,-0.138671875,0.1416015625,-1.0146484375
2061,-0.142578125,0.1416015625,-1.01953125
2062,-0.13671875,0.1435546875,-1.01171875
2063,-0.1376953125,0.140625,-1.0205078125
2064,-0.138671875,0.1396484375,-1.0185546875
2065,-0.1416015625,0.1376953125,-1.0146484375
2066,-0.138671875,0.140625,-1.0087890625
2067,-0.1396484375,0.140625,-1.0185546875
2068,-0.1357421875,0.1376953125,-1.0126953125
2069,-0.138671875,0.1376953125,-1.0283203125
2070,-0.1357421875,0.1416015625,-1.013671875
2071,-0.1396484375,0.1416015625,-1.0126953125
2072,-0.140625,0.1416015625,-1.013671875
2073,-0.138671875,0.138671875,-1.017578125
2074,-0.1416015625,0.1416015625,-1.0205078125
2075,-0.1396484375,0.1416015625,-1.01171875
2076,-0.1416015625,0.142578125,-1.017578125
2077,-0.138671875,0.138671875,-1.0078125
2078,-0.1455078125,0.1416015625,-1.0185546875
2079,-0.13671875,0.13671875,-1.013671875
2080,-0.140625,0.13671875,-1.0185546875
2081,-0.1396484375,0.1357421875,-1.017578125
2082,-0.138671875,0.1396484375,-1.009765625
2083,-0.1396484375,0.140625,-1.0166015625
2084,-0.1416015625,0.1357421875,-1.013671875
2085,-0.1396484375,0.1396484375,-1.0234375
2086,-0.138671875,0.1396484375,-1.0205078125
2087,-0.1396484375,0.1396484375,-1.0205078125
2088,-0.140625,0.138671875,-1.015625
2089,-0.138671875,0.1396484375,-1.015625
2090,-0.1376953125,0.1376953125,-1.0283203125
2091,-0.1396484375,0.13671875,-1.0185546875
2092,-0.14453125,0.1376953125,-1.01953125
2093,-0.138671875,0.140625,-1.017578125
2094,-0.1396484375,0.13671875,-1.01171875
2095,-0.1396484375,0.138671875,-1.0205078125
2096,-0.1416015625,0.1376953125,-1.013671875
2097,-0.13671875,0.140625,-1.0234375
2098,-0.140625,0.1396484375,-1.0166015625
2099,-0.13671875,0.13671875,-1.0205078125
2100,-0.140625,0.1435546875,-1.0205078125
2101,-0.1396484375,0.140625,-1.0146484375
2102,-0.1396484375,0.146484375,-1.015625
2103,-0.1396484375,0.138671875,-1.01953125
2104,-0.140625,0.1357421875,-1.0224609375
2105,-0.138671875,0.1337890625,-1.0166015625
2106,-0.14453125,0.1240234375,-1.0146484375
2107,-0.134765625,0.150390625,-1.01953125
2108,-0.13671875,0.1435546875,-1.0185546875
2109,-0.1416015625,0.1396484375,-1.013671875
2110,-0.1416015625,0.138671875,-1.01171875
2111,-0.140625,0.1376953125,-1.0166015625
2112,-0.138671875,0.13671875,-1.0146484375
2113,-0.138671875,0.1416015625,-1.0166015625
2114,-0.138671875,0.13671875,-1.017578125
2115,-0.146484375,0.13671875,-1.015625
2116,-0.1396484375,0.1416015625,-1.021484375
2117,-0.13671875,0.13671875,-1.0126953125
2118,-0.1396484375,0.1396484375,-1.0166015625
2119,-0.1416015625,0.1376953125,-1.0126953125
2120,-0.138671875,0.13671875,-1.013671875
2121,-0.1435546875,0.1357421875,-1.009765625
2122,-0.1396484375,0.1376953125,-1.01171875
2123,-0.140625,0.1396484375,-1.0166015625
2124,-0.140625,0.1357421875,-1.01953125
2125,-0.1376953125,0.1376953125,-1.0166015625
2126,-0.1376953125,0.138671875,-1.017578125
2127,-0.140625,0.1396484375,-1.0166015625
2128,-0.13671875,0.1396484375,-1.0146484375
2129,-0.1376953125,0.1416015625,-1.0107421875
2130,-0.14453125,0.1357421875,-1.0224609375
2131,-0.13671875,0.1357421875,-1.01953125
2132,-0.138671875,0.1376953125,-1.0146484375
2133,-0.140625,0.138671875,-1.0166015625
2134,-0.1396484375,0.138671875,-1.0107421875
2135,-0.1396484375,0.13671875,-1.0078125
2136,-0.13671875,0.1357421875,-1.0146484375
2137,-0.138671875,0.1396484375,-1.0107421875
2138,-0.1396484375,0.1416015625,-1.009765625
2139,-0.134765625,0.140625,-1.015625
2140,-0.1396484375,0.1396484375,-1.0126953125
2141,-0.142578125,0.1357421875,-1.0126953125
2142,-0.138671875,0.1396484375,-1.013671875
2143,-0.140625,0.1376953125,-1.01171875
2144,-0.138671875,0.140625,-1.0126953125
2145,-0.13671875,0.138671875,-1.009765625
2146,-0.1435546875,0.1337890625,-1.015625
2147,-0.1416015625,0.1328125,-1.015625
2148,-0.1435546875,0.1376953125,-1.0224609375
2149,-0.1435546875,0.1357421875,-1.0146484375
2150,-0.138671875,0.1396484375,-1.025390625
2151,-0.1416015625,0.134765625,-1.0205078125
2152,-0.138671875,0.1376953125,-1.0224609375
2153,-0.1357421875,0.1416015625,-1.017578125
2154,-0.13671875,0.138671875,-1.015625
2155,-0.134765625,0.138671875,-1.0146484375
2156,-0.1396484375,0.1376953125,-1.013671875
2157,-0.1376953125,0.140625,-1.0107421875
2158,-0.1337890625,0.140625,-1.013671875
2159,-0.13671875,0.134765625,-1.013671875
2160,-0.1396484375,0.1376953125,-1.0166015625
2161,-0.14453125,0.138671875,-1.015625
2162,-0.13671875,0.1328125,-1.01953125
2163,-0.1376953125,0.1318359375,-1.01953125
2164,-0.1357421875,0.134765625,-1.0166015625
2165,-0.1376953125,0.1337890625,-1.025390625
2166,-0.1376953125,0.1357421875,-1.021484375
2167,-0.1357421875,0.13671875,-1.0244140625
2168,-0.1337890625,0.1396484375,-1.0146484375
2169,-0.134765625,0.140625,-1.01953125
2170,-0.138671875,0.1337890625,-1.0126953125
2171,-0.1396484375,0.1396484375,-1.017578125
2172,-0.1396484375,0.1376953125,-1.0166015625
2173,-0.1376953125,0.140625,-1.0166015625
2174,-0.1337890625,0.1396484375,-1.0166015625
2175,-0.1396484375,0.134765625,-1.0224609375
2176,-0.1396484375,0.138671875,-1.0185546875
2177,-0.1396484375,0.13671875,-1.017578125
2178,-0.1357421875,0.138671875,-1.01953125
2179,-0.134765625,0.13671875,-1.0146484375
2180,-0.140625,0.1396484375,-1.013671875
2181,-0.1357421875,0.1396484375,-1.017578125
2182,-0.138671875,0.13671875,-1.0107421875
2183,-0.134765625,0.138671875,-1.01171875
2184,-0.12890625,0.1357421875,-1.009765625
2185,-0.13671875,0.138671875,-1.0166015625
2186,-0.1328125,0.134765625,-1.009765625
2187,-0.1396484375,0.1376953125,-1.0107421875
2188,-0.138671875,0.1318359375,-1.0126953125
2189,-0.134765625,0.1376953125,-1.0205078125
2190,-0.134765625,0.1328125,-1.01953125
2191,-0.134765625,0.1318359375,-1.0205078125
2192,-0.1357421875,0.140625,-1.029296875
2193,-0.1396484375,0.1298828125,-1.0244140625
2194,-0.1376953125,0.1318359375,-1.02734375
2195,-0.1357421875,0.138671875,-1.0234375
2196,-0.1416015625,0.1337890625,-1.013671875
2197,-0.1396484375,0.138671875,-1.0234375
2198,-0.1396484375,0.1416015625,-1.0185546875
2199,-0.1376953125,0.134765625,-1.017578125
2200,-0.1318359375,0.134765625,-1.013671875
2201,-0.1376953125,0.138671875,-1.015625
2202,-0.1337890625,0.1376953125,-1.013671875
2203,-0.1357421875,0.1396484375,-1.017578125
2204,-0.1376953125,0.134765625,-1.013671875
2205,-0.1328125,0.13671875,-1.0224609375
2206,-0.1328125,0.138671875,-1.0185546875
2207,-0.1376953125,0.1337890625,-1.0185546875
2208,-0.1337890625,0.1376953125,-1.015625
2209,-0.134765625,0.134765625,-1.0224609375
2210,-0.1337890625,0.1357421875,-1.025390625
2211,-0.1298828125,0.1376953125,-1.021484375
2212,-0.134765625,0.1357421875,-1.0224609375
2213,-0.1337890625,0.13671875,-1.0224609375
2214,-0.130859375,0.134765625,-1.0224609375
2215,-0.1376953125,0.1376953125,-1.0126953125
2216,-0.1396484375,0.1396484375,-1.0185546875
2217,-0.138671875,0.134765625,-1.01171875
2218,-0.134765625,0.134765625,-1.01171875
2219,-0.138671875,0.134765625,-1.0107421875
2220,-0.126953125,0.130859375,-1.009765625
2221,-0.134765625,0.1376953125,-1.0126953125
2222,-0.1337890625,0.13671875,-1.0185546875
2223,-0.1337890625,0.1318359375,-1.017578125
2224,-0.134765625,0.140625,-1.01953125
2225,-0.13671875,0.1376953125,-1.0166015625
2226,-0.1337890625,0.134765625,-1.015625
2227,-0.134765625,0.1357421875,-1.015625
2228,-0.1328125,0.138671875,-1.01953125
2229,-0.1328125,0.1357421875,-1.013671875
2230,-0.1396484375,0.1337890625,-1.015625
2231,-0.1376953125,0.13671875,-1.017578125
2232,-0.1328125,0.1337890625,-1.0205078125
2233,-0.1376953125,0.13671875,-1.021484375
2234,-0.1357421875,0.1416015625,-1.0244140625
2235,-0.134765625,0.1357421875,-1.0166015625
2236,-0.13671875,0.1337890625,-1.021484375
2237,-0.1337890625,0.1318359375,-1.021484375
2238,-0.12890625,0.140625,-1.017578125
2239,-0.130859375,0.130859375,-1.01953125
2240,-0.1328125,0.134765625,-1.017578125
2241,-0.138671875,0.13671875,-1.021484375
2242,-0.134765625,0.138671875,-1.0224609375
2243,-0.1337890625,0.1376953125,-1.017578125
2244,-0.1376953125,0.130859375,-1.01953125
2245,-0.1357421875,0.134765625,-1.0205078125
2246,-0.1318359375,0.1357421875,-1.01953125
2247,-0.1376953125,0.1357421875,-1.0263671875
2248,-0.134765625,0.1376953125,-1.025390625
2249,-0.1357421875,0.1357421875,-1.0234375
2250,-0.138671875,0.1337890625,-1.021484375
2251,-0.13671875,0.130859375,-1.025390625
2252,-0.134765625,0.130859375,-1.0234375
2253,-0.134765625,0.1337890625,-1.017578125
2254,-0.13671875,0.1376953125,-1.0185546875
2255,-0.1337890625,0.1328125,-1.0185546875
2256,-0.1396484375,0.1376953125,-1.0107421875
2257,-0.1357421875,0.134765625,-1.0146484375
2258,-0.1357421875,0.134765625,-1.015625
2259,-0.138671875,0.1357421875,-1.017578125
2260,-0.1298828125,0.130859375,-1.0146484375
2261,-0.1376953125,0.130859375,-1.017578125
2262,-0.1396484375,0.134765625,-1.01953125
2263,-0.1357421875,0.1357421875,-1.021484375
2264,-0.1337890625,0.1328125,-1.015625
2265,-0.13671875,0.1298828125,-1.0166015625
2266,-0.1318359375,0.1357421875,-1.017578125
2267,-0.134765625,0.1328125,-1.0185546875
2268,-0.1357421875,0.1337890625,-1.015625
2269,-0.1337890625,0.1337890625,-1.015625
2270,-0.1396484375,0.134765625,-1.009765625
2271,-0.1376953125,0.130859375,-1.009765625
2272,-0.1416015625,0.1357421875,-1.0146484375
2273,-0.1357421875,0.134765625,-1.015625
2274,-0.1337890625,0.140625,-1.0263671875
2275,-0.171875,0.1474609375,-1.0322265625
2276,-0.1162109375,0.1064453125,-0.984375
2277,-0.12890625,0.1337890625,-1.0244140625
2278,-0.13671875,0.1357421875,-1.021484375
2279,-0.1171875,0.134765625,-1.009765625
2280,-0.1328125,0.1318359375,-1.0224609375
2281,-0.140625,0.1328125,-1.021484375
2282,-0.13671875,0.1357421875,-1.0244140625
2283,-0.1416015625,0.1337890625,-1.0126953125
2284,-0.1357421875,0.1328125,-1.0185546875
2285,-0.1337890625,0.13671875,-1.0166015625
2286,-0.13671875,0.130859375,-1.0146484375
2287,-0.1396484375,0.1376953125,-1.017578125
2288,-0.138671875,0.1298828125,-1.013671875
2289,-0.1337890625,0.1357421875,-1.015625
2290,-0.1357421875,0.1298828125,-1.0126953125
2291,-0.1240234375,0.130859375,-1.0166015625
2292,-0.1337890625,0.1376953125,-1.0126953125
2293,-0.138671875,0.1357421875,-1.0107421875
2294,-0.134765625,0.1328125,-1.013671875
2295,-0.1396484375,0.1337890625,-1.017578125
2296,-0.1357421875,0.1298828125,-1.0185546875
2297,-0.1357421875,0.1337890625,-1.0126953125
2298,-0.1337890625,0.1279296875,-1.013671875
2299,-0.134765625,0.126953125,-1.0107421875
2300,-0.13671875,0.130859375,-1.0185546875
2301,-0.13671875,0.1337890625,-1.0107421875
2302,-0.1328125,0.130859375,-1.0234375
2303,-0.1328125,0.1328125,-1.0234375
2304,-0.1533203125,0.140625,-1.025390625
2305,-0.158203125,0.142578125,-1.0244140625
2306,-0.111328125,0.1162109375,-1.0078125
2307,-0.134765625,0.1318359375,-1.0283203125
2308,-0.1318359375,0.12890625,-1.0205078125
2309,-0.1357421875,0.12890625,-1.0244140625
2310,-0.1396484375,0.1337890625,-1.01953125
2311,-0.140625,0.1298828125,-1.0185546875
2312,-0.1376953125,0.1357421875,-1.021484375
2313,-0.1396484375,0.1328125,-1.013671875
2314,-0.1328125,0.1318359375,-1.0166015625
2315,-0.1328125,0.13671875,-1.021484375
2316,-0.1328125,0.1318359375,-1.0224609375
2317,-0.1357421875,0.1298828125,-1.0234375
2318,-0.1357421875,0.1318359375,-1.021484375
2319,-0.1337890625,0.1328125,-1.0205078125
2320,-0.1357421875,0.12890625,-1.0224609375
2321,-0.1376953125,0.12890625,-1.0205078125
2322,-0.1376953125,0.1279296875,-1.013671875
2323,-0.1328125,0.12890625,-1.0107421875
2324,-0.1328125,0.1328125,-1.015625
2325,-0.138671875,0.1318359375,-1.013671875
2326,-0.1337890625,0.1328125,-1.0146484375
2327,-0.134765625,0.1318359375,-1.013671875
2328,-0.134765625,0.130859375,-1.021484375
2329,-0.13671875,0.134765625,-1.017578125
2330,-0.1337890625,0.134765625,-1.0166015625
2331,-0.1357421875,0.1318359375,-1.0146484375
2332,-0.134765625,0.134765625,-1.017578125
2333,-0.138671875,0.1337890625,-1.01953125
2334,-0.1357421875,0.1337890625,-1.017578125
2335,-0.1328125,0.1318359375,-1.0205078125
2336,-0.1298828125,0.1337890625,-1.0166015625
2337,-0.1328125,0.1357421875,-1.025390625
2338,-0.1337890625,0.13671875,-1.021484375
2339,-0.1337890625,0.130859375,-1.0205078125
2340,-0.138671875,0.1318359375,-1.0185546875
2341,-0.1328125,0.13671875,-1.0244140625
2342,-0.1318359375,0.1318359375,-1.0224609375
2343,-0.1328125,0.134765625,-1.021484375
2344,-0.130859375,0.1337890625,-1.01953125
2345,-0.1328125,0.1376953125,-1.0244140625
2346,-0.1357421875,0.130859375,-1.017578125
2347,-0.134765625,0.1337890625,-1.029296875
2348,-0.1337890625,0.1337890625,-1.02734375
2349,-0.12890625,0.1337890625,-1.021484375
2350,-0.1357421875,0.130859375,-1.0224609375
2351,-0.130859375,0.1318359375,-1.0166015625
2352,-0.130859375,0.1279296875,-1.0244140625
2353,-0.125,0.130859375,-1.015625
2354,-0.1279296875,0.126953125,-1.0166015625
2355,-0.1318359375,0.1328125,-1.0146484375
2356,-0.130859375,0.1328125,-1.009765625
2357,-0.12890625,0.1328125,-1.0126953125
2358,-0.134765625,0.1318359375,-1.015625
2359,-0.1328125,0.130859375,-1.0126953125
2360,-0.134765625,0.130859375,-1.015625
2361,-0.1328125,0.1298828125,-1.01953125
2362,-0.1396484375,0.12890625,-1.0185546875
2363,-0.13671875,0.1318359375,-1.025390625
2364,-0.1357421875,0.1298828125,-1.021484375
2365,-0.134765625,0.1279296875,-1.0087890625
2366,-0.13671875,0.1328125,-1.0166015625
2367,-0.1298828125,0.1259765625,-1.0166015625
2368,-0.1376953125,0.130859375,-1.017578125
2369,-0.1337890625,0.13671875,-1.0185546875
2370,-0.13671875,0.130859375,-1.021484375
2371,-0.1357421875,0.1328125,-1.009765625
2372,-0.1337890625,0.1298828125,-1.0205078125
2373,-0.1328125,0.1298828125,-1.0166015625
2374,-0.1318359375,0.1318359375,-1.0126953125
2375,-0.13671875,0.1357421875,-1.0126953125
2376,-0.1337890625,0.1298828125,-1.017578125
2377,-0.138671875,0.1259765625,-1.0146484375
2378,-0.130859375,0.1328125,-1.0205078125
2379,-0.1357421875,0.134765625,-1.0224609375
2380,-0.134765625,0.1298828125,-1.0224609375
2381,-0.1337890625,0.1357421875,-1.0224609375
2382,-0.1376953125,0.1328125,-1.0224609375
2383,-0.1337890625,0.1298828125,-1.0166015625
2384,-0.1357421875,0.126953125,-1.015625
2385,-0.1318359375,0.12890625,-1.021484375
2386,-0.134765625,0.1298828125,-1.01171875
2387,-0.1357421875,0.126953125,-1.021484375
2388,-0.1328125,0.12890625,-1.0205078125
2389,-0.134765625,0.130859375,-1.0185546875
2390,-0.13671875,0.1318359375,-1.021484375
2391,-0.1337890625,0.134765625,-1.025390625
2392,-0.1259765625,0.1337890625,-1.013671875
2393,-0.12890625,0.12890625,-1.0146484375
2394,-0.1337890625,0.1259765625,-1.01953125
2395,-0.12890625,0.125,-1.0185546875
2396,-0.1318359375,0.130859375,-1.0126953125
2397,-0.1318359375,0.1298828125,-1.0166015625
2398,-0.1357421875,0.1298828125,-1.0205078125
2399,-0.13671875,0.126953125,-1.021484375
2400,-0.1337890625,0.130859375,-1.01953125
2401,-0.13671875,0.1328125,-1.0146484375
2402,-0.134765625,0.134765625,-1.0166015625
2403,-0.1357421875,0.130859375,-1.0244140625
2404,-0.12890625,0.1328125,-1.0224609375
2405,-0.134765625,0.1318359375,-1.0185546875
2406,-0.1376953125,0.1328125,-1.0126953125
2407,-0.12890625,0.12890625,-1.017578125
2408,-0.1318359375,0.125,-1.0205078125
2409,-0.1337890625,0.12890625,-1.015625
2410,-0.1337890625,0.1318359375,-1.0185546875
2411,-0.1328125,0.1298828125,-1.021484375
2412,-0.1318359375,0.12890625,-1.0166015625
2413,-0.134765625,0.126953125,-1.025390625
2414,-0.1318359375,0.126953125,-1.02734375
2415,-0.1337890625,0.1298828125,-1.0224609375
2416,-0.1279296875,0.130859375,-1.021484375
2417,-0.1328125,0.1298828125,-1.0205078125
2418,-0.134765625,0.134765625,-1.0224609375
2419,-0.134765625,0.130859375,-1.0234375
2420,-0.1376953125,0.1357421875,-1.0185546875
2421,-0.1357421875,0.1328125,-1.0146484375
2422,-0.1318359375,0.1337890625,-1.0205078125
2423,-0.1337890625,0.1357421875,-1.015625
2424,-0.1357421875,0.134765625,-1.013671875
2425,-0.1376953125,0.12890625,-1.021484375
2426,-0.1376953125,0.1328125,-1.025390625
2427,-0.130859375,0.1259765625,-1.015625
2428,-0.1357421875,0.1328125,-1.0205078125
2429,-0.1318359375,0.1337890625,-1.0205078125
2430,-0.1328125,0.1298828125,-1.015625
2431,-0.1357421875,0.130859375,-1.0126953125
2432,-0.1357421875,0.1279296875,-1.0126953125
2433,-0.1376953125,0.1298828125,-1.01953125
2434,-0.1318359375,0.1259765625,-1.0380859375
2435,-0.134765625,0.146484375,-0.9833984375
2436,-0.1318359375,0.1279296875,-0.998046875
2437,-0.1318359375,0.125,-1.02734375
2438,-0.1337890625,0.12890625,-1.0205078125
2439,-0.119140625,0.1318359375,-1.021484375
2440,-0.1240234375,0.1328125,-1.0107421875
2441,-0.1240234375,0.1279296875,-1.015625
2442,-0.126953125,0.126953125,-1.0146484375
2443,-0.12890625,0.126953125,-1.01953125
2444,-0.12890625,0.1298828125,-1.013671875
2445,-0.1328125,0.130859375,-1.017578125
2446,-0.1318359375,0.126953125,-1.0224609375
2447,-0.126953125,0.1279296875,-1.025390625
2448,-0.1318359375,0.126953125,-1.021484375
2449,-0.1298828125,0.130859375,-1.0234375
2450,-0.1298828125,0.12890625,-1.0234375
2451,-0.1279296875,0.130859375,-1.01953125
2452,-0.130859375,0.1298828125,-1.0244140625
2453,-0.1298828125,0.1318359375,-1.0146484375
2454,-0.1240234375,0.1318359375,-1.0234375
2455,-0.123046875,0.1318359375,-1.017578125
2456,-0.125,0.1318359375,-1.0185546875
2457,-0.12890625,0.1318359375,-1.0244140625
2458,-0.1318359375,0.1318359375,-1.0205078125
2459,-0.1318359375,0.12890625,-1.0166015625
2460,-0.1298828125,0.1337890625,-1.0205078125
2461,-0.1318359375,0.1279296875,-1.021484375
2462,-0.12890625,0.1259765625,-1.0166015625
2463,-0.130859375,0.12890625,-1.0224609375
2464,-0.12890625,0.1298828125,-1.013671875
2465,-0.1279296875,0.1318359375,-1.0126953125
2466,-0.130859375,0.1328125,-1.0166015625
2467,-0.1279296875,0.13671875,-1.025390625
2468,-0.125,0.1298828125,-1.021484375
2469,-0.125,0.1328125,-1.0166015625
2470,-0.1240234375,0.126953125,-1.0224609375
2471,-0.12890625,0.134765625,-1.0078125
2472,-0.119140625,0.1259765625,-1.0107421875
2473,-0.123046875,0.1279296875,-1.017578125
2474,-0.1279296875,0.123046875,-1.0224609375
2475,-0.1318359375,0.1298828125,-1.01953125
2476,-0.1220703125,0.126953125,-1.01953125
2477,-0.1279296875,0.1259765625,-1.0234375
2478,-0.123046875,0.1298828125,-1.0205078125
2479,-0.125,0.1298828125,-1.0283203125
2480,-0.1259765625,0.126953125,-1.0146484375
2481,-0.126953125,0.126953125,-1.0244140625
2482,-0.1259765625,0.126953125,-1.017578125
2483,-0.126953125,0.12890625,-1.021484375
2484,-0.123046875,0.1279296875,-1.0185546875
2485,-0.125,0.1279296875,-1.0126953125
2486,-0.1279296875,0.130859375,-1.0205078125
2487,-0.1279296875,0.12890625,-1.0224609375
2488,-0.1318359375,0.12890625,-1.029296875
2489,-0.1240234375,0.130859375,-1.01953125
2490,-0.1240234375,0.126953125,-1.017578125
2491,-0.126953125,0.12890625,-1.0224609375
2492,-0.1259765625,0.12890625,-1.0224609375
2493,-0.12109375,0.123046875,-1.0234375
2494,-0.123046875,0.1259765625,-1.02734375
2495,-0.1220703125,0.12890625,-1.025390625
2496,-0.1220703125,0.12890625,-1.0224609375
2497,-0.1240234375,0.12890625,-1.0166015625
2498,-0.1201171875,0.126953125,-1.0185546875
2499,-0.1279296875,0.126953125,-1.025390625
2500,-0.1259765625,0.1240234375,-1.017578125
2501,-0.1240234375,0.126953125,-1.015625
2502,-0.1220703125,0.1318359375,-1.01171875
2503,-0.1259765625,0.126953125,-1.0126953125
2504,-0.1240234375,0.1318359375,-1.017578125
2505,-0.1201171875,0.125,-1.017578125
2506,-0.1318359375,0.125,-1.0185546875
2507,-0.1337890625,0.126953125,-1.0205078125
2508,-0.1259765625,0.1201171875,-1.0224609375
2509,-0.130859375,0.12890625,-1.01953125
2510,-0.1220703125,0.125,-1.0166015625
2511,-0.1298828125,0.1279296875,-1.0283203125
2512,-0.125,0.126953125,-1.0224609375
2513,-0.125,0.1318359375,-1.0205078125
2514,-0.123046875,0.12890625,-1.013671875
2515,-0.12890625,0.1240234375,-1.0205078125
2516,-0.126953125,0.126953125,-1.021484375
2517,-0.12890625,0.1318359375,-1.01953125
2518,-0.130859375,0.1279296875,-1.01953125
2519,-0.12890625,0.126953125,-1.021484375
2520,-0.119140625,0.1259765625,-1.0224609375
2521,-0.1259765625,0.1279296875,-1.021484375
2522,-0.1279296875,0.1240234375,-1.01953125
2523,-0.1279296875,0.126953125,-1.017578125
2524,-0.1220703125,0.130859375,-1.0185546875
2525,-0.1337890625,0.1259765625,-1.02734375
2526,-0.12890625,0.1259765625,-1.01953125
2527,-0.125,0.130859375,-1.0234375
2528,-0.126953125,0.1298828125,-1.0166015625
2529,-0.1220703125,0.1259765625,-1.0146484375
2530,-0.1220703125,0.12890625,-1.0224609375
2531,-0.12109375,0.1279296875,-1.01953125
2532,-0.1240234375,0.1259765625,-1.0205078125
2533,-0.1318359375,0.1279296875,-1.01171875
2534,-0.12109375,0.1259765625,-1.0234375
2535,-0.1259765625,0.125,-1.0224609375
2536,-0.1220703125,0.126953125,-1.0234375
2537,-0.1279296875,0.123046875,-1.0185546875
2538,-0.126953125,0.1259765625,-1.015625
2539,-0.1220703125,0.126953125,-1.013671875
2540,-0.12890625,0.130859375,-1.0185546875
2541,-0.1259765625,0.130859375,-1.017578125
2542,-0.1259765625,0.126953125,-1.01953125
2543,-0.12109375,0.130859375,-1.0185546875
2544,-0.1279296875,0.1259765625,-1.01171875
2545,-0.126953125,0.123046875,-1.0185546875
2546,-0.1240234375,0.125,-1.021484375
2547,-0.1240234375,0.1259765625,-1.0205078125
2548,-0.1220703125,0.126953125,-1.0185546875
2549,-0.123046875,0.12890625,-1.0185546875
2550,-0.125,0.1259765625,-1.01953125
2551,-0.1240234375,0.125,-1.0234375
2552,-0.1240234375,0.126953125,-1.021484375
2553,-0.1220703125,0.126953125,-1.0185546875
2554,-0.1279296875,0.1279296875,-1.0244140625
2555,-0.1181640625,0.1240234375,-1.0224609375
2556,-0.12109375,0.126953125,-1.015625
2557,-0.123046875,0.125,-1.021484375
2558,-0.1279296875,0.1259765625,-1.0205078125
2559,-0.1279296875,0.1259765625,-1.0146484375
2560,-0.1240234375,0.1240234375,-1.017578125
2561,-0.1259765625,0.1337890625,-1.0234375
2562,-0.123046875,0.1259765625,-1.0244140625
2563,-0.1240234375,0.1298828125,-1.017578125
2564,-0.1201171875,0.123046875,-1.02734375
2565,-0.1298828125,0.12890625,-1.0224609375
2566,-0.125,0.125,-1.0224609375
2567,-0.12890625,0.12890625,-1.017578125
2568,-0.1279296875,0.1318359375,-1.017578125
2569,-0.1259765625,0.12890625,-1.0234375
2570,-0.126953125,0.126953125,-1.0185546875
2571,-0.125,0.1220703125,-1.0205078125
2572,-0.1259765625,0.12890625,-1.0185546875
2573,-0.1201171875,0.1279296875,-1.0224609375
2574,-0.12890625,0.1279296875,-1.021484375
2575,-0.1259765625,0.1259765625,-1.0185546875
2576,-0.1259765625,0.126953125,-1.0185546875
2577,-0.1220703125,0.126953125,-1.013671875
2578,-0.1201171875,0.126953125,-1.017578125
2579,-0.123046875,0.130859375,-1.0185546875
2580,-0.123046875,0.12890625,-1.0166015625
2581,-0.1279296875,0.125,-1.021484375
2582,-0.1220703125,0.123046875,-1.0146484375
2583,-0.12109375,0.126953125,-1.0166015625
2584,-0.12890625,0.126953125,-1.0166015625
2585,-0.1240234375,0.126953125,-1.017578125
2586,-0.12890625,0.123046875,-1.0205078125
2587,-0.1259765625,0.1298828125,-1.0234375
2588,-0.12890625,0.12890625,-1.01953125
2589,-0.1220703125,0.123046875,-1.017578125
2590,-0.126953125,0.12890625,-1.0234375
2591,-0.1259765625,0.125,-1.0234375
2592,-0.12890625,0.126953125,-1.02734375
2593,-0.125,0.1279296875,-1.0166015625
2594,-0.126953125,0.12890625,-1.021484375
2595,-0.12890625,0.1259765625,-1.0234375
2596,-0.125,0.1279296875,-1.01953125
2597,-0.1318359375,0.1298828125,-1.0205078125
2598,-0.126953125,0.125,-1.0234375
2599,-0.1337890625,0.1279296875,-1.02734375
2600,-0.1279296875,0.1240234375,-1.015625
2601,-0.12109375,0.130859375,-1.021484375
2602,-0.1318359375,0.1240234375,-1.0166015625
2603,-0.1259765625,0.126953125,-1.021484375
2604,-0.126953125,0.125,-1.017578125
2605,-0.123046875,0.125,-1.0166015625
2606,-0.12109375,0.1279296875,-1.015625
2607,-0.1220703125,0.123046875,-1.017578125
2608,-0.1298828125,0.126953125,-1.01953125
2609,-0.134765625,0.126953125,-1.0146484375
2610,-0.12109375,0.1279296875,-1.015625
2611,-0.12890625,0.126953125,-1.0185546875
2612,-0.126953125,0.1298828125,-1.01953125
2613,-0.126953125,0.126953125,-1.0166015625
2614,-0.1259765625,0.130859375,-1.0234375
2615,-0.126953125,0.1220703125,-1.0244140625
2616,-0.126953125,0.12890625,-1.0244140625
2617,-0.12890625,0.1240234375,-1.0205078125
2618,-0.12890625,0.125,-1.0205078125
2619,-0.1318359375,0.1259765625,-1.0166015625
2620,-0.1279296875,0.125,-1.0205078125
2621,-0.1318359375,0.123046875,-1.0205078125
2622,-0.1337890625,0.1259765625,-1.025390625
2623,-0.1220703125,0.125,-1.0205078125
2624,-0.1279296875,0.1240234375,-1.0126953125
2625,-0.1279296875,0.1298828125,-1.01171875
2626,-0.1259765625,0.1259765625,-1.0166015625
2627,-0.12890625,0.125,-1.021484375
2628,-0.123046875,0.123046875,-1.017578125
2629,-0.123046875,0.125,-1.0224609375
2630,-0.125,0.126953125,-1.0166015625
2631,-0.1259765625,0.1240234375,-1.0224609375
2632,-0.123046875,0.1279296875,-1.017578125
2633,-0.1220703125,0.125,-1.017578125
2634,-0.123046875,0.1298828125,-1.0224609375
2635,-0.1279296875,0.126953125,-1.0244140625
2636,-0.1240234375,0.126953125,-1.01953125
2637,-0.12109375,0.126953125,-1.01953125
2638,-0.125,0.125,-1.0244140625
2639,-0.1298828125,0.1259765625,-1.0185546875
2640,-0.1259765625,0.126953125,-1.017578125
2641,-0.1279296875,0.126953125,-1.0224609375
2642,-0.1279296875,0.126953125,-1.01953125
2643,-0.1259765625,0.1298828125,-1.0234375
2644,-0.1328125,0.125,-1.015625
2645,-0.123046875,0.12890625,-1.0146484375
2646,-0.1220703125,0.123046875,-1.0234375
2647,-0.126953125,0.1259765625,-1.017578125
2648,-0.1279296875,0.1240234375,-1.0244140625
2649,-0.12890625,0.125,-1.0234375
2650,-0.125,0.126953125,-1.015625
2651,-0.125,0.1318359375,-1.0234375
2652,-0.1279296875,0.1259765625,-1.017578125
2653,-0.1279296875,0.126953125,-1.0185546875
2654,-0.1337890625,0.1279296875,-1.0263671875
2655,-0.12890625,0.12109375,-1.0205078125
2656,-0.1279296875,0.125,-1.0234375
2657,-0.1328125,0.12890625,-1.017578125
2658,-0.125,0.1259765625,-1.01953125
2659,-0.1220703125,0.1279296875,-1.0205078125
2660,-0.1318359375,0.1259765625,-1.0146484375
2661,-0.1279296875,0.1259765625,-1.0234375
2662,-0.1328125,0.12890625,-1.015625
2663,-0.123046875,0.12890625,-1.0234375
2664,-0.1279296875,0.1259765625,-1.015625
2665,-0.1240234375,0.125,-1.01953125
2666,-0.12890625,0.1259765625,-1.01953125
2667,-0.126953125,0.1259765625,-1.0166015625
2668,-0.1318359375,0.126953125,-1.0224609375
2669,-0.12890625,0.1298828125,-1.0205078125
2670,-0.123046875,0.126953125,-1.0205078125
2671,-0.1259765625,0.1220703125,-1.01953125
2672,-0.1357421875,0.1318359375,-1.0234375
2673,-0.1318359375,0.1259765625,-1.0185546875
2674,-0.125,0.1279296875,-1.01953125
2675,-0.1328125,0.1279296875,-1.0224609375
2676,-0.123046875,0.1220703125,-1.0205078125
2677,-0.1318359375,0.1240234375,-1.017578125
2678,-0.1298828125,0.130859375,-1.0146484375
2679,-0.1279296875,0.126953125,-1.0244140625
2680,-0.130859375,0.1240234375,-1.01953125
2681,-0.1279296875,0.1259765625,-1.0166015625
2682,-0.1337890625,0.1259765625,-1.0166015625
2683,-0.12890625,0.123046875,-1.0224609375
2684,-0.1279296875,0.126953125,-1.0166015625
2685,-0.126953125,0.125,-1.0185546875
2686,-0.1328125,0.123046875,-1.017578125
2687,-0.1318359375,0.126953125,-1.0185546875
2688,-0.126953125,0.125,-1.0166015625
2689,-0.123046875,0.1279296875,-1.0146484375
2690,-0.1279296875,0.1298828125,-1.0146484375
2691,-0.1279296875,0.1279296875,-1.0126953125
2692,-0.1259765625,0.1259765625,-1.0185546875
2693,-0.123046875,0.126953125,-1.0224609375
2694,-0.1337890625,0.1240234375,-1.0185546875
2695,-0.1337890625,0.125,-1.021484375
2696,-0.1279296875,0.123046875,-1.017578125
2697,-0.1328125,0.1298828125,-1.021484375
2698,-0.130859375,0.1259765625,-1.017578125
2699,-0.12890625,0.1240234375,-1.0185546875
2700,-0.12890625,0.1220703125,-1.0166015625
2701,-0.1337890625,0.123046875,-1.015625
2702,-0.1240234375,0.125,-1.015625
2703,-0.125,0.1279296875,-1.0234375
2704,-0.1240234375,0.1298828125,-1.013671875
2705,-0.1279296875,0.125,-1.0185546875
2706,-0.12890625,0.1279296875,-1.0283203125
2707,-0.123046875,0.123046875,-1.0205078125
2708,-0.12109375,0.1240234375,-1.021484375
2709,-0.1279296875,0.1240234375,-1.0244140625
2710,-0.1318359375,0.125,-1.0234375
2711,-0.1220703125,0.1298828125,-1.0283203125
2712,-0.125,0.125,-1.0185546875
2713,-0.126953125,0.125,-1.0205078125
2714,-0.1337890625,0.1259765625,-1.01953125
2715,-0.134765625,0.12890625,-1.0166015625
2716,-0.1337890625,0.126953125,-1.01171875
2717,-0.125,0.1279296875,-1.01953125
2718,-0.126953125,0.126953125,-1.0244140625
2719,-0.12890625,0.125,-1.0224609375
2720,-0.1318359375,0.126953125,-1.0146484375
2721,-0.119140625,0.1279296875,-1.0166015625
2722,-0.1318359375,0.123046875,-1.0224609375
2723,-0.1318359375,0.1220703125,-1.0107421875
2724,-0.1298828125,0.1220703125,-1.0107421875
2725,-0.134765625,0.126953125,-1.0146484375
2726,-0.130859375,0.126953125,-1.015625
2727,-0.126953125,0.1240234375,-1.01953125
2728,-0.1240234375,0.1240234375,-1.0224609375
2729,-0.130859375,0.1279296875,-1.025390625
2730,-0.12890625,0.1259765625,-1.0234375
2731,-0.1298828125,0.125,-1.013671875
2732,-0.1337890625,0.125,-1.0205078125
2733,-0.130859375,0.1240234375,-1.015625
2734,-0.125,0.12109375,-1.021484375
2735,-0.123046875,0.126953125,-1.01953125
2736,-0.1240234375,0.125,-1.01953125
2737,-0.1298828125,0.1259765625,-1.0146484375
2738,-0.1328125,0.1298828125,-1.01953125
2739,-0.1240234375,0.125,-1.0205078125
2740,-0.130859375,0.12890625,-1.0185546875
2741,-0.12890625,0.1259765625,-1.01953125
2742,-0.123046875,0.125,-1.0244140625
2743,-0.1328125,0.126953125,-1.0263671875
2744,-0.1259765625,0.1298828125,-1.0185546875
2745,-0.134765625,0.126953125,-1.0166015625
2746,-0.1240234375,0.126953125,-1.021484375
2747,-0.1318359375,0.126953125,-1.0224609375
2748,-0.1318359375,0.126953125,-1.0146484375
2749,-0.1337890625,0.130859375,-1.0146484375
2750,-0.1298828125,0.125,-1.0205078125
2751,-0.12890625,0.125,-1.0244140625
2752,-0.1279296875,0.126953125,-1.0126953125
2753,-0.126953125,0.126953125,-1.01953125
2754,-0.123046875,0.1279296875,-1.015625
2755,-0.1279296875,0.125,-1.01953125
2756,-0.134765625,0.126953125,-1.02734375
2757,-0.125,0.12890625,-1.0234375
2758,-0.1240234375,0.1318359375,-1.0166015625
2759,-0.1259765625,0.12890625,-1.021484375
2760,-0.12890625,0.125,-1.0205078125
2761,-0.12890625,0.1279296875,-1.025390625
2762,-0.1220703125,0.126953125,-1.0185546875
2763,-0.1318359375,0.1279296875,-1.021484375
2764,-0.130859375,0.126953125,-1.0224609375
2765,-0.1328125,0.1259765625,-1.009765625
2766,-0.1298828125,0.1259765625,-1.0205078125
2767,-0.12890625,0.125,-1.013671875
2768,-0.126953125,0.12890625,-1.0166015625
2769,-0.1328125,0.1240234375,-1.0146484375
2770,-0.1259765625,0.123046875,-1.01953125
2771,-0.130859375,0.1240234375,-1.015625
2772,-0.1279296875,0.1259765625,-1.0166015625
2773,-0.12890625,0.126953125,-1.01953125
2774,-0.130859375,0.1201171875,-1.0205078125
2775,-0.12890625,0.1240234375,-1.0234375
2776,-0.125,0.1279296875,-1.0185546875
2777,-0.1318359375,0.1220703125,-1.0146484375
2778,-0.1279296875,0.126953125,-1.0205078125
2779,-0.130859375,0.1279296875,-1.021484375
2780,-0.1328125,0.1240234375,-1.0205078125
2781,-0.1337890625,0.125,-1.03125
2782,-0.1220703125,0.1240234375,-1.0234375
2783,-0.1240234375,0.126953125,-1.015625
2784,-0.1279296875,0.125,-1.017578125
2785,-0.1279296875,0.1240234375,-1.0166015625
2786,-0.1318359375,0.1240234375,-1.025390625
2787,-0.1279296875,0.126953125,-1.0224609375
2788,-0.1298828125,0.1298828125,-1.0146484375
2789,-0.126953125,0.1259765625,-1.015625
2790,-0.1298828125,0.130859375,-1.0126953125
2791,-0.1240234375,0.1259765625,-1.021484375
2792,-0.126953125,0.12109375,-1.0166015625
2793,-0.130859375,0.12890625,-1.0166015625
2794,-0.1259765625,0.126953125,-1.021484375
2795,-0.130859375,0.1259765625,-1.0234375
2796,-0.1259765625,0.126953125,-1.0205078125
2797,-0.1318359375,0.12890625,-1.0205078125
2798,-0.1298828125,0.126953125,-1.0224609375
2799,-0.1298828125,0.126953125,-1.0224609375
2800,-0.125,0.1259765625,-1.0224609375
2801,-0.12890625,0.126953125,-1.0166015625
2802,-0.1240234375,0.1279296875,-1.021484375
2803,-0.12890625,0.12890625,-1.0185546875
2804,-0.1240234375,0.1298828125,-1.021484375
2805,-0.125,0.123046875,-1.01953125
2806,-0.1298828125,0.1259765625,-1.0205078125
2807,-0.1318359375,0.1279296875,-1.0126953125
2808,-0.1318359375,0.12890625,-1.0205078125
2809,-0.1240234375,0.1298828125,-1.0224609375
2810,-0.126953125,0.1298828125,-1.0185546875
2811,-0.1240234375,0.1328125,-1.025390625
2812,-0.130859375,0.1259765625,-1.01953125
2813,-0.1220703125,0.126953125,-1.01953125
2814,-0.1259765625,0.12109375,-1.0205078125
2815,-0.1298828125,0.12890625,-1.01953125
2816,-0.1328125,0.1279296875,-1.021484375
2817,-0.1220703125,0.1279296875,-1.025390625
2818,-0.12890625,0.1240234375,-1.0224609375
2819,-0.1279296875,0.1240234375,-1.01171875
2820,-0.130859375,0.1240234375,-1.015625
2821,-0.1259765625,0.126953125,-1.0185546875
2822,-0.1259765625,0.1279296875,-1.0224609375
2823,-0.130859375,0.1279296875,-1.0234375
