,accelerometerAccelerationX(G),accelerometerAccelerationY(G),accelerometerAccelerationZ(G)
0,-0.017578125,-0.9541015625,-0.1552734375
1,-0.0224609375,-0.9521484375,-0.16015625
2,-0.029296875,-0.9521484375,-0.16015625
3,-0.0234375,-0.94921875,-0.154296875
4,-0.0224609375,-0.951171875,-0.1650390625
5,-0.03125,-0.95703125,-0.1640625
6,-0.03125,-0.958984375,-0.166015625
7,-0.0322265625,-0.96875,-0.162109375
8,-0.0302734375,-0.9609375,-0.1650390625
9,-0.03125,-0.9609375,-0.162109375
10,-0.0283203125,-0.9580078125,-0.1630859375
11,-0.033203125,-0.9580078125,-0.169921875
12,-0.0283203125,-0.962890625,-0.1640625
13,-0.033203125,-0.9619140625,-0.171875
14,-0.029296875,-0.9541015625,-0.173828125
15,-0.03125,-0.94921875,-0.173828125
16,-0.0263671875,-0.9521484375,-0.1728515625
17,-0.0263671875,-0.9501953125,-0.169921875
18,-0.033203125,-0.9482421875,-0.1708984375
19,-0.0322265625,-0.9501953125,-0.16796875
20,-0.03125,-0.9541015625,-0.1630859375
21,-0.03125,-0.9580078125,-0.1630859375
22,-0.03125,-0.9599609375,-0.1640625
23,-0.0341796875,-0.95703125,-0.1669921875
24,-0.03515625,-0.9580078125,-0.169921875
25,-0.03515625,-0.955078125,-0.16796875
26,-0.0380859375,-0.95703125,-0.173828125
27,-0.033203125,-0.9599609375,-0.17578125
28,-0.03515625,-0.951171875,-0.1767578125
29,-0.037109375,-0.9482421875,-0.1806640625
30,-0.0380859375,-0.953125,-0.1796875
31,-0.0361328125,-0.9521484375,-0.17578125
32,-0.033203125,-0.953125,-0.171875
33,-0.0361328125,-0.9560546875,-0.1748046875
34,-0.0341796875,-0.9541015625,-0.171875
35,-0.03515625,-0.9560546875,-0.171875
36,-0.0361328125,-0.9609375,-0.1748046875
37,-0.033203125,-0.9521484375,-0.1748046875
38,-0.03125,-0.94921875,-0.1806640625
39,-0.033203125,-0.9462890625,-0.1806640625
40,-0.0322265625,-0.951171875,-0.18359375
41,-0.0302734375,-0.9521484375,-0.185546875
42,-0.02734375,-0.9541015625,-0.18359375
43,-0.02734375,-0.951171875,-0.185546875
44,-0.0263671875,-0.9541015625,-0.1787109375
45,-0.03125,-0.9541015625,-0.17578125
46,-0.0322265625,-0.9599609375,-0.181640625
47,-0.03125,-0.9658203125,-0.1728515625
48,-0.0322265625,-0.9609375,-0.1728515625
49,-0.029296875,-0.962890625,-0.1767578125
50,-0.033203125,-0.9609375,-0.1748046875
51,-0.033203125,-0.9619140625,-0.1787109375
52,-0.033203125,-0.958984375,-0.173828125
53,-0.02734375,-0.9609375,-0.171875
54,-0.03125,-0.9619140625,-0.1767578125
55,-0.029296875,-0.958984375,-0.1708984375
56,-0.0283203125,-0.955078125,-0.1708984375
57,-0.0341796875,-0.9521484375,-0.1669921875
58,-0.0302734375,-0.9541015625,-0.1689453125
59,-0.033203125,-0.958984375,-0.1650390625
60,-0.03125,-0.9482421875,-0.16796875
61,-0.03515625,-0.953125,-0.1630859375
62,-0.0322265625,-0.94921875,-0.1689453125
63,-0.0341796875,-0.9462890625,-0.1748046875
64,-0.041015625,-0.9521484375,-0.1728515625
65,-0.0458984375,-0.947265625,-0.171875
66,-0.046875,-0.951171875,-0.1728515625
67,-0.0458984375,-0.9580078125,-0.1708984375
68,-0.048828125,-0.9677734375,-0.166015625
69,-0.052734375,-0.9599609375,-0.1728515625
70,-0.05859375,-0.97265625,-0.171875
71,-0.0537109375,-0.958984375,-0.169921875
72,-0.05078125,-0.955078125,-0.169921875
73,-0.0537109375,-0.955078125,-0.1708984375
74,-0.0478515625,-0.947265625,-0.169921875
75,-0.0478515625,-0.951171875,-0.169921875
76,-0.044921875,-0.947265625,-0.173828125
77,-0.0439453125,-0.9521484375,-0.1669921875
78,-0.048828125,-0.953125,-0.169921875
79,-0.0458984375,-0.951171875,-0.16796875
80,-0.0458984375,-0.9541015625,-0.169921875
81,-0.041015625,-0.958984375,-0.173828125
82,-0.046875,-0.958984375,-0.177734375
83,-0.04296875,-0.9599609375,-0.1787109375
84,-0.044921875,-0.9580078125,-0.18359375
85,-0.0419921875,-0.9609375,-0.189453125
86,-0.0390625,-0.9599609375,-0.1865234375
87,-0.037109375,-0.9677734375,-0.193359375
88,-0.0322265625,-0.95703125,-0.1923828125
89,-0.033203125,-0.9580078125,-0.19140625
90,-0.025390625,-0.9609375,-0.1943359375
91,-0.0244140625,-0.962890625,-0.1943359375
92,-0.0205078125,-0.9599609375,-0.189453125
93,-0.01953125,-0.9599609375,-0.1904296875
94,-0.017578125,-0.9609375,-0.185546875
95,-0.025390625,-0.9599609375,-0.185546875
96,-0.0263671875,-0.958984375,-0.1884765625
97,-0.0244140625,-0.958984375,-0.1884765625
98,-0.025390625,-0.9638671875,-0.19140625
99,-0.0263671875,-0.9599609375,-0.197265625
100,-0.029296875,-0.96484375,-0.1962890625
101,-0.025390625,-0.9619140625,-0.1982421875
102,-0.03125,-0.9599609375,-0.193359375
103,-0.0283203125,-0.9599609375,-0.19921875
104,-0.0322265625,-0.9638671875,-0.19921875
105,-0.029296875,-0.955078125,-0.19921875
106,-0.03125,-0.9541015625,-0.193359375
107,-0.02734375,-0.9560546875,-0.2001953125
108,-0.02734375,-0.9482421875,-0.1953125
109,-0.02734375,-0.9501953125,-0.1962890625
110,-0.0205078125,-0.94921875,-0.2021484375
111,-0.0283203125,-0.94921875,-0.1953125
112,-0.0205078125,-0.943359375,-0.1953125
113,-0.0224609375,-0.947265625,-0.193359375
114,-0.021484375,-0.9521484375,-0.1962890625
115,-0.021484375,-0.947265625,-0.1962890625
116,-0.02734375,-0.94921875,-0.1962890625
117,-0.0234375,-0.9521484375,-0.1943359375
118,-0.02734375,-0.9453125,-0.189453125
119,-0.033203125,-0.94921875,-0.1923828125
120,-0.03125,-0.9462890625,-0.189453125
121,-0.033203125,-0.9462890625,-0.19140625
122,-0.037109375,-0.9462890625,-0.1904296875
123,-0.0341796875,-0.9541015625,-0.19140625
124,-0.033203125,-0.9501953125,-0.189453125
125,-0.033203125,-0.9521484375,-0.19140625
126,-0.0302734375,-0.95703125,-0.193359375
127,-0.0322265625,-0.955078125,-0.1923828125
128,-0.033203125,-0.9580078125,-0.189453125
129,-0.0302734375,-0.958984375,-0.19140625
130,-0.0283203125,-0.9609375,-0.1904296875
131,-0.0263671875,-0.9560546875,-0.189453125
132,-0.0224609375,-0.9599609375,-0.1953125
133,-0.0244140625,-0.9560546875,-0.1953125
134,-0.0166015625,-0.9560546875,-0.1962890625
135,-0.0224609375,-0.94921875,-0.1962890625
136,-0.0234375,-0.9521484375,-0.2021484375
137,-0.0302734375,-0.9560546875,-0.19921875
138,-0.025390625,-0.953125,-0.201171875
139,-0.029296875,-0.955078125,-0.197265625
140,-0.0283203125,-0.953125,-0.2041015625
141,-0.029296875,-0.947265625,-0.197265625
142,-0.0302734375,-0.9501953125,-0.2001953125
143,-0.0263671875,-0.9482421875,-0.2041015625
144,-0.0263671875,-0.9462890625,-0.20703125
145,-0.0244140625,-0.9482421875,-0.20703125
146,-0.0224609375,-0.951171875,-0.20703125
147,-0.0302734375,-0.9560546875,-0.216796875
148,-0.0302734375,-0.9560546875,-0.212890625
149,-0.03125,-0.9599609375,-0.2109375
150,-0.0322265625,-0.9638671875,-0.2021484375
151,-0.033203125,-0.96484375,-0.20703125
152,-0.0341796875,-0.9716796875,-0.201171875
153,-0.03515625,-0.962890625,-0.205078125
154,-0.0234375,-0.9677734375,-0.19921875
155,-0.029296875,-0.958984375,-0.203125
156,-0.0244140625,-0.95703125,-0.205078125
157,-0.01953125,-0.953125,-0.203125
158,-0.0224609375,-0.9521484375,-0.201171875
159,-0.029296875,-0.9453125,-0.2041015625
160,-0.0341796875,-0.9443359375,-0.205078125
161,-0.0341796875,-0.9423828125,-0.2041015625
162,-0.029296875,-0.94140625,-0.2099609375
163,-0.0390625,-0.94140625,-0.208984375
164,-0.0439453125,-0.943359375,-0.20703125
165,-0.0478515625,-0.9423828125,-0.2099609375
166,-0.044921875,-0.939453125,-0.2080078125
167,-0.0517578125,-0.9462890625,-0.216796875
168,-0.0537109375,-0.9453125,-0.2119140625
169,-0.0537109375,-0.943359375,-0.2099609375
170,-0.05859375,-0.94921875,-0.212890625
171,-0.052734375,-0.9521484375,-0.212890625
172,-0.0546875,-0.95703125,-0.208984375
173,-0.0546875,-0.953125,-0.2109375
174,-0.05078125,-0.955078125,-0.212890625
175,-0.046875,-0.9599609375,-0.2080078125
176,-0.0419921875,-0.958984375,-0.208984375
177,-0.0419921875,-0.9560546875,-0.20703125
178,-0.0380859375,-0.958984375,-0.2119140625
179,-0.037109375,-0.9501953125,-0.2158203125
180,-0.03125,-0.9482421875,-0.2138671875
181,-0.0302734375,-0.9482421875,-0.208984375
182,-0.0322265625,-0.94921875,-0.216796875
183,-0.029296875,-0.9404296875,-0.2138671875
184,-0.0244140625,-0.947265625,-0.2138671875
185,-0.0263671875,-0.9453125,-0.2255859375
186,-0.0283203125,-0.943359375,-0.2197265625
187,-0.0302734375,-0.9453125,-0.2216796875
188,-0.02734375,-0.953125,-0.21875
189,-0.0302734375,-0.9521484375,-0.2255859375
190,-0.0263671875,-0.951171875,-0.2314453125
191,-0.03125,-0.94921875,-0.2236328125
192,-0.0244140625,-0.9521484375,-0.22265625
193,-0.021484375,-0.955078125,-0.22265625
194,-0.0205078125,-0.955078125,-0.21875
195,-0.021484375,-0.947265625,-0.21875
196,-0.0185546875,-0.9462890625,-0.2197265625
197,-0.0107421875,-0.955078125,-0.21484375
198,-0.009765625,-0.9521484375,-0.21484375
199,-0.0078125,-0.9521484375,-0.2138671875
200,0.0,-0.95703125,-0.21875
201,-0.0029296875,-0.951171875,-0.21875
202,-0.0009765625,-0.9580078125,-0.2197265625
203,-0.00390625,-0.9609375,-0.220703125
204,0.0029296875,-0.9677734375,-0.2197265625
205,0.0,-0.958984375,-0.2197265625
206,-0.0009765625,-0.9609375,-0.21875
207,-0.0068359375,-0.95703125,-0.21484375
208,-0.0009765625,-0.9599609375,-0.2080078125
209,-0.00390625,-0.9541015625,-0.2109375
210,0.001953125,-0.951171875,-0.2138671875
211,-0.00390625,-0.9443359375,-0.21484375
212,-0.0029296875,-0.9443359375,-0.216796875
213,-0.0009765625,-0.9501953125,-0.2216796875
214,-0.0048828125,-0.9453125,-0.2236328125
215,-0.0048828125,-0.94140625,-0.2197265625
216,-0.0107421875,-0.9453125,-0.2197265625
217,-0.009765625,-0.9462890625,-0.2216796875
218,-0.015625,-0.943359375,-0.220703125
219,-0.0185546875,-0.9501953125,-0.2197265625
220,-0.0166015625,-0.95703125,-0.220703125
221,-0.021484375,-0.9560546875,-0.21484375
222,-0.0263671875,-0.953125,-0.21484375
223,-0.0263671875,-0.9541015625,-0.212890625
224,-0.025390625,-0.9580078125,-0.212890625
225,-0.02734375,-0.9599609375,-0.2099609375
226,-0.029296875,-0.9560546875,-0.2109375
227,-0.025390625,-0.9462890625,-0.212890625
228,-0.0263671875,-0.9443359375,-0.2109375
229,-0.029296875,-0.947265625,-0.2099609375
230,-0.029296875,-0.9462890625,-0.2119140625
231,-0.0283203125,-0.9482421875,-0.2177734375
232,-0.0322265625,-0.9453125,-0.2138671875
233,-0.03125,-0.9462890625,-0.212890625
234,-0.03515625,-0.9423828125,-0.21875
235,-0.03125,-0.94140625,-0.216796875
236,-0.03515625,-0.9453125,-0.216796875
237,-0.0361328125,-0.9443359375,-0.224609375
238,-0.03515625,-0.9443359375,-0.22265625
239,-0.03515625,-0.9453125,-0.232421875
240,-0.03125,-0.943359375,-0.224609375
241,-0.03515625,-0.9453125,-0.2265625
242,-0.041015625,-0.9453125,-0.2294921875
243,-0.04296875,-0.9521484375,-0.224609375
244,-0.04296875,-0.953125,-0.21875
245,-0.04296875,-0.9599609375,-0.21484375
246,-0.0439453125,-0.9609375,-0.2109375
247,-0.0439453125,-0.9619140625,-0.212890625
248,-0.0419921875,-0.97265625,-0.2109375
249,-0.03515625,-0.9697265625,-0.212890625
250,-0.03515625,-0.96484375,-0.2099609375
251,-0.03125,-0.9638671875,-0.216796875
252,-0.0263671875,-0.9609375,-0.21484375
253,-0.0283203125,-0.953125,-0.21875
254,-0.0283203125,-0.9501953125,-0.220703125
255,-0.0224609375,-0.9482421875,-0.2236328125
256,-0.029296875,-0.9521484375,-0.22265625
257,-0.02734375,-0.9501953125,-0.21484375
258,-0.0322265625,-0.947265625,-0.2177734375
259,-0.03125,-0.9453125,-0.21875
260,-0.02734375,-0.9521484375,-0.2158203125
261,-0.033203125,-0.951171875,-0.2158203125
262,-0.03125,-0.9501953125,-0.2158203125
263,-0.03515625,-0.947265625,-0.220703125
264,-0.0341796875,-0.951171875,-0.2177734375
265,-0.0322265625,-0.9560546875,-0.2236328125
266,-0.033203125,-0.9580078125,-0.220703125
267,-0.0380859375,-0.95703125,-0.2177734375
268,-0.0390625,-0.962890625,-0.220703125
269,-0.0380859375,-0.9677734375,-0.216796875
270,-0.0419921875,-0.9619140625,-0.2197265625
271,-0.0419921875,-0.9619140625,-0.2119140625
272,-0.0478515625,-0.96484375,-0.212890625
273,-0.048828125,-0.95703125,-0.2158203125
274,-0.048828125,-0.9560546875,-0.2197265625
275,-0.0517578125,-0.9501953125,-0.2197265625
276,-0.0576171875,-0.9453125,-0.216796875
277,-0.0595703125,-0.94140625,-0.2197265625
278,-0.0625,-0.9365234375,-0.2197265625
279,-0.0654296875,-0.9423828125,-0.216796875
280,-0.064453125,-0.9375,-0.2177734375
281,-0.068359375,-0.935546875,-0.2158203125
282,-0.0673828125,-0.9404296875,-0.2138671875
283,-0.0595703125,-0.9384765625,-0.212890625
284,-0.060546875,-0.94140625,-0.2158203125
285,-0.056640625,-0.94140625,-0.2138671875
286,-0.056640625,-0.943359375,-0.2119140625
287,-0.048828125,-0.9423828125,-0.21484375
288,-0.0478515625,-0.9423828125,-0.2158203125
289,-0.04296875,-0.94140625,-0.2138671875
290,-0.0361328125,-0.9423828125,-0.205078125
291,-0.0380859375,-0.9482421875,-0.2138671875
292,-0.0341796875,-0.9375,-0.2119140625
293,-0.0322265625,-0.94921875,-0.212890625
294,-0.0322265625,-0.951171875,-0.2119140625
295,-0.03515625,-0.951171875,-0.21484375
296,-0.03515625,-0.953125,-0.2197265625
297,-0.037109375,-0.95703125,-0.220703125
298,-0.0439453125,-0.9560546875,-0.2197265625
299,-0.0390625,-0.955078125,-0.2197265625
300,-0.0439453125,-0.9599609375,-0.2197265625
301,-0.044921875,-0.95703125,-0.220703125
302,-0.04296875,-0.95703125,-0.21875
303,-0.0458984375,-0.953125,-0.21875
304,-0.044921875,-0.947265625,-0.2197265625
305,-0.0419921875,-0.94921875,-0.2236328125
306,-0.03515625,-0.951171875,-0.21875
307,-0.0380859375,-0.9501953125,-0.220703125
308,-0.0380859375,-0.955078125,-0.224609375
309,-0.0341796875,-0.9560546875,-0.224609375
310,-0.0283203125,-0.9501953125,-0.2177734375
311,-0.0244140625,-0.955078125,-0.21484375
312,-0.017578125,-0.9501953125,-0.2158203125
313,-0.01953125,-0.947265625,-0.208984375
314,-0.017578125,-0.9521484375,-0.2119140625
315,-0.01953125,-0.9541015625,-0.21484375
316,-0.0224609375,-0.953125,-0.216796875
317,-0.021484375,-0.955078125,-0.212890625
318,-0.0234375,-0.958984375,-0.212890625
319,-0.025390625,-0.958984375,-0.21484375
320,-0.0263671875,-0.95703125,-0.2119140625
321,-0.0283203125,-0.95703125,-0.2158203125
322,-0.025390625,-0.953125,-0.2177734375
323,-0.0263671875,-0.9521484375,-0.2197265625
324,-0.0263671875,-0.9482421875,-0.220703125
325,-0.029296875,-0.951171875,-0.2197265625
326,-0.02734375,-0.9482421875,-0.21875
327,-0.033203125,-0.9560546875,-0.2158203125
328,-0.03515625,-0.9501953125,-0.2177734375
329,-0.0322265625,-0.9501953125,-0.21484375
330,-0.0322265625,-0.9482421875,-0.216796875
331,-0.02734375,-0.9462890625,-0.216796875
332,-0.0302734375,-0.9462890625,-0.2119140625
333,-0.021484375,-0.9462890625,-0.21875
334,-0.02734375,-0.9462890625,-0.2177734375
335,-0.02734375,-0.9521484375,-0.2197265625
336,-0.0224609375,-0.9501953125,-0.21875
337,-0.0283203125,-0.9501953125,-0.21875
338,-0.02734375,-0.9521484375,-0.2158203125
339,-0.0302734375,-0.9599609375,-0.2177734375
340,-0.0302734375,-0.951171875,-0.2119140625
341,-0.03125,-0.958984375,-0.2158203125
342,-0.0244140625,-0.966796875,-0.2099609375
343,-0.0244140625,-0.953125,-0.212890625
344,-0.0205078125,-0.9599609375,-0.2109375
345,-0.021484375,-0.9521484375,-0.21875
346,-0.01953125,-0.9560546875,-0.216796875
347,-0.01953125,-0.9521484375,-0.2119140625
348,-0.01953125,-0.958984375,-0.2197265625
349,-0.015625,-0.9560546875,-0.2177734375
350,-0.0234375,-0.951171875,-0.220703125
351,-0.0205078125,-0.9482421875,-0.216796875
352,-0.01953125,-0.9501953125,-0.2177734375
353,-0.021484375,-0.9482421875,-0.2158203125
354,-0.0185546875,-0.94921875,-0.21484375
355,-0.0205078125,-0.947265625,-0.21875
356,-0.0185546875,-0.9453125,-0.21484375
357,-0.01953125,-0.9462890625,-0.21484375
358,-0.0146484375,-0.94921875,-0.208984375
359,-0.0126953125,-0.9501953125,-0.21484375
360,-0.0185546875,-0.9560546875,-0.216796875
361,-0.0166015625,-0.953125,-0.2158203125
362,-0.0205078125,-0.951171875,-0.2197265625
363,-0.0224609375,-0.953125,-0.216796875
364,-0.025390625,-0.9521484375,-0.2177734375
365,-0.0234375,-0.947265625,-0.2197265625
366,-0.021484375,-0.9521484375,-0.2197265625
367,-0.0234375,-0.9521484375,-0.21875
368,-0.0234375,-0.9482421875,-0.2177734375
369,-0.0185546875,-0.951171875,-0.2158203125
370,-0.0205078125,-0.947265625,-0.2177734375
371,-0.0205078125,-0.9462890625,-0.216796875
372,-0.0205078125,-0.9462890625,-0.2158203125
373,-0.021484375,-0.947265625,-0.220703125
374,-0.0185546875,-0.9541015625,-0.21875
375,-0.0205078125,-0.953125,-0.224609375
376,-0.0244140625,-0.94921875,-0.2197265625
377,-0.01953125,-0.9580078125,-0.21875
378,-0.01953125,-0.947265625,-0.2236328125
379,-0.013671875,-0.9521484375,-0.2197265625
380,-0.0205078125,-0.951171875,-0.2197265625
381,-0.0185546875,-0.9482421875,-0.2216796875
382,-0.0244140625,-0.9501953125,-0.2216796875
383,-0.0205078125,-0.9482421875,-0.2236328125
384,-0.025390625,-0.9482421875,-0.2197265625
385,-0.025390625,-0.9521484375,-0.2158203125
386,-0.0302734375,-0.9462890625,-0.220703125
387,-0.0234375,-0.951171875,-0.21875
388,-0.0244140625,-0.95703125,-0.21875
389,-0.0224609375,-0.951171875,-0.2197265625
390,-0.0234375,-0.95703125,-0.2197265625
391,-0.0283203125,-0.9501953125,-0.21875
392,-0.0244140625,-0.9521484375,-0.2236328125
393,-0.025390625,-0.951171875,-0.2158203125
394,-0.0263671875,-0.9560546875,-0.216796875
395,-0.02734375,-0.953125,-0.2216796875
396,-0.0244140625,-0.947265625,-0.2158203125
397,-0.02734375,-0.951171875,-0.2197265625
398,-0.0302734375,-0.951171875,-0.2197265625
399,-0.0263671875,-0.951171875,-0.21875
400,-0.0244140625,-0.951171875,-0.21875
401,-0.0263671875,-0.9482421875,-0.21484375
402,-0.0302734375,-0.9462890625,-0.2119140625
403,-0.02734375,-0.9501953125,-0.21484375
404,-0.025390625,-0.953125,-0.2138671875
405,-0.02734375,-0.9482421875,-0.212890625
406,-0.029296875,-0.9521484375,-0.216796875
407,-0.029296875,-0.9521484375,-0.2177734375
408,-0.03125,-0.9482421875,-0.2158203125
409,-0.03125,-0.9541015625,-0.216796875
410,-0.033203125,-0.9521484375,-0.21875
411,-0.0400390625,-0.9521484375,-0.216796875
412,-0.0400390625,-0.9501953125,-0.2197265625
413,-0.0341796875,-0.9541015625,-0.21875
414,-0.0341796875,-0.9521484375,-0.21484375
415,-0.037109375,-0.9521484375,-0.216796875
416,-0.0361328125,-0.953125,-0.2177734375
417,-0.0380859375,-0.951171875,-0.2177734375
418,-0.037109375,-0.9541015625,-0.2177734375
419,-0.03125,-0.955078125,-0.2158203125
420,-0.03515625,-0.9462890625,-0.2216796875
421,-0.033203125,-0.9521484375,-0.2177734375
422,-0.0341796875,-0.9482421875,-0.212890625
423,-0.0341796875,-0.951171875,-0.2138671875
424,-0.0380859375,-0.9453125,-0.21875
425,-0.037109375,-0.9521484375,-0.220703125
426,-0.037109375,-0.94921875,-0.224609375
427,-0.0400390625,-0.9501953125,-0.21875
428,-0.0361328125,-0.9541015625,-0.22265625
429,-0.0341796875,-0.95703125,-0.2158203125
430,-0.0390625,-0.94921875,-0.220703125
431,-0.041015625,-0.94921875,-0.21875
432,-0.041015625,-0.947265625,-0.2158203125
433,-0.0419921875,-0.9521484375,-0.2109375
434,-0.0400390625,-0.94921875,-0.216796875
435,-0.0458984375,-0.951171875,-0.212890625
436,-0.044921875,-0.9521484375,-0.2099609375
437,-0.044921875,-0.953125,-0.21484375
438,-0.0478515625,-0.955078125,-0.2138671875
439,-0.0419921875,-0.95703125,-0.2138671875
440,-0.044921875,-0.958984375,-0.2138671875
441,-0.046875,-0.958984375,-0.2119140625
442,-0.0390625,-0.9580078125,-0.21484375
443,-0.0361328125,-0.95703125,-0.2109375
444,-0.0341796875,-0.95703125,-0.2109375
445,-0.0341796875,-0.953125,-0.216796875
446,-0.03515625,-0.958984375,-0.216796875
447,-0.037109375,-0.955078125,-0.2177734375
448,-0.037109375,-0.9541015625,-0.216796875
449,-0.041015625,-0.9501953125,-0.2177734375
450,-0.037109375,-0.955078125,-0.216796875
451,-0.0390625,-0.9521484375,-0.2158203125
452,-0.037109375,-0.9453125,-0.21875
453,-0.041015625,-0.943359375,-0.21484375
454,-0.033203125,-0.947265625,-0.2109375
455,-0.037109375,-0.951171875,-0.216796875
456,-0.0419921875,-0.9462890625,-0.216796875
457,-0.04296875,-0.9453125,-0.2158203125
458,-0.046875,-0.94921875,-0.208984375
459,-0.0517578125,-0.947265625,-0.2099609375
460,-0.0400390625,-0.9501953125,-0.2138671875
461,-0.048828125,-0.9541015625,-0.2109375
462,-0.048828125,-0.953125,-0.2021484375
463,-0.0400390625,-0.955078125,-0.203125
464,-0.037109375,-0.951171875,-0.20703125
465,-0.037109375,-0.9501953125,-0.20703125
466,-0.0341796875,-0.947265625,-0.2021484375
467,-0.033203125,-0.9501953125,-0.201171875
468,-0.0322265625,-0.9501953125,-0.2060546875
469,-0.033203125,-0.9521484375,-0.208984375
470,-0.0341796875,-0.951171875,-0.2099609375
471,-0.03125,-0.9501953125,-0.2119140625
472,-0.029296875,-0.943359375,-0.21484375
473,-0.029296875,-0.951171875,-0.2119140625
474,-0.0341796875,-0.947265625,-0.2138671875
475,-0.029296875,-0.9462890625,-0.2138671875
476,-0.0341796875,-0.9453125,-0.216796875
477,-0.03125,-0.9462890625,-0.2158203125
478,-0.03515625,-0.9462890625,-0.2119140625
479,-0.033203125,-0.951171875,-0.20703125
480,-0.0322265625,-0.9501953125,-0.2099609375
481,-0.03515625,-0.947265625,-0.2080078125
482,-0.033203125,-0.9541015625,-0.208984375
483,-0.03125,-0.9560546875,-0.208984375
484,-0.033203125,-0.9609375,-0.212890625
485,-0.0302734375,-0.9560546875,-0.21484375
486,-0.0341796875,-0.955078125,-0.212890625
487,-0.0322265625,-0.95703125,-0.2099609375
488,-0.02734375,-0.9541015625,-0.2109375
489,-0.0341796875,-0.9580078125,-0.212890625
490,-0.029296875,-0.953125,-0.21875
491,-0.0263671875,-0.955078125,-0.2177734375
492,-0.0283203125,-0.951171875,-0.2197265625
493,-0.0302734375,-0.947265625,-0.2138671875
494,-0.029296875,-0.951171875,-0.216796875
495,-0.037109375,-0.947265625,-0.2138671875
496,-0.0322265625,-0.9423828125,-0.2109375
497,-0.03125,-0.9443359375,-0.2138671875
498,-0.029296875,-0.9404296875,-0.2138671875
499,-0.0263671875,-0.9443359375,-0.2109375
500,-0.0341796875,-0.9462890625,-0.212890625
501,-0.0322265625,-0.947265625,-0.21484375
502,-0.0341796875,-0.94921875,-0.2099609375
503,-0.033203125,-0.9501953125,-0.212890625
504,-0.03125,-0.9521484375,-0.208984375
505,-0.0390625,-0.9541015625,-0.212890625
506,-0.033203125,-0.951171875,-0.2158203125
507,-0.037109375,-0.958984375,-0.220703125
508,-0.033203125,-0.9541015625,-0.2197265625
509,-0.0341796875,-0.953125,-0.224609375
510,-0.0341796875,-0.9501953125,-0.224609375
511,-0.0361328125,-0.9482421875,-0.2265625
512,-0.02734375,-0.9453125,-0.2197265625
513,-0.03125,-0.9453125,-0.21875
514,-0.033203125,-0.9462890625,-0.216796875
515,-0.03125,-0.9453125,-0.212890625
516,-0.0283203125,-0.9462890625,-0.2080078125
517,-0.0283203125,-0.9462890625,-0.21484375
518,-0.033203125,-0.9462890625,-0.21484375
519,-0.03515625,-0.943359375,-0.2177734375
520,-0.0322265625,-0.9521484375,-0.21484375
521,-0.03125,-0.9482421875,-0.21484375
522,-0.0322265625,-0.953125,-0.21484375
523,-0.03125,-0.9501953125,-0.21484375
524,-0.0341796875,-0.9541015625,-0.2158203125
525,-0.029296875,-0.9541015625,-0.21484375
526,-0.0341796875,-0.94921875,-0.208984375
527,-0.0341796875,-0.95703125,-0.212890625
528,-0.03125,-0.9580078125,-0.212890625
529,-0.025390625,-0.9580078125,-0.2119140625
530,-0.0322265625,-0.9521484375,-0.21484375
531,-0.0322265625,-0.953125,-0.21484375
532,-0.0283203125,-0.953125,-0.2138671875
533,-0.0244140625,-0.9462890625,-0.208984375
534,-0.025390625,-0.947265625,-0.212890625
535,-0.0244140625,-0.94921875,-0.212890625
536,-0.0283203125,-0.9443359375,-0.2177734375
537,-0.025390625,-0.9521484375,-0.21484375
538,-0.01953125,-0.951171875,-0.212890625
539,-0.0263671875,-0.951171875,-0.2177734375
540,-0.0244140625,-0.9541015625,-0.2177734375
541,-0.01953125,-0.9521484375,-0.2158203125
542,-0.0244140625,-0.951171875,-0.2177734375
543,-0.0185546875,-0.94921875,-0.2158203125
544,-0.025390625,-0.9501953125,-0.212890625
545,-0.02734375,-0.953125,-0.2138671875
546,-0.021484375,-0.9453125,-0.2138671875
547,-0.0244140625,-0.9462890625,-0.21875
548,-0.025390625,-0.9501953125,-0.2158203125
549,-0.0234375,-0.951171875,-0.2158203125
550,-0.0244140625,-0.951171875,-0.2177734375
551,-0.0244140625,-0.9501953125,-0.2177734375
552,-0.021484375,-0.951171875,-0.216796875
553,-0.02734375,-0.953125,-0.2177734375
554,-0.0234375,-0.951171875,-0.21484375
555,-0.021484375,-0.9453125,-0.21484375
556,-0.0263671875,-0.9462890625,-0.2109375
557,-0.025390625,-0.951171875,-0.2138671875
558,-0.01953125,-0.9482421875,-0.2158203125
559,-0.0166015625,-0.9462890625,-0.21484375
560,-0.0205078125,-0.9462890625,-0.21484375
561,-0.025390625,-0.9501953125,-0.2158203125
562,-0.0234375,-0.953125,-0.216796875
563,-0.0244140625,-0.9560546875,-0.2158203125
564,-0.02734375,-0.9560546875,-0.2236328125
565,-0.01953125,-0.953125,-0.2197265625
566,-0.029296875,-0.953125,-0.2236328125
567,-0.0283203125,-0.9521484375,-0.2236328125
568,-0.0283203125,-0.951171875,-0.2216796875
569,-0.0263671875,-0.9541015625,-0.220703125
570,-0.029296875,-0.9521484375,-0.22265625
571,-0.0263671875,-0.95703125,-0.2216796875
572,-0.02734375,-0.94921875,-0.224609375
573,-0.03125,-0.9541015625,-0.2197265625
574,-0.02734375,-0.9541015625,-0.220703125
575,-0.025390625,-0.9462890625,-0.21875
576,-0.0283203125,-0.9482421875,-0.216796875
577,-0.02734375,-0.951171875,-0.2236328125
578,-0.0224609375,-0.947265625,-0.2197265625
579,-0.0302734375,-0.951171875,-0.21484375
580,-0.0322265625,-0.95703125,-0.220703125
581,-0.03125,-0.9501953125,-0.2275390625
582,-0.0302734375,-0.9541015625,-0.22265625
583,-0.0302734375,-0.9521484375,-0.2197265625
584,-0.033203125,-0.9501953125,-0.2216796875
585,-0.03125,-0.9501953125,-0.2177734375
586,-0.025390625,-0.9501953125,-0.21875
587,-0.0283203125,-0.943359375,-0.220703125
588,-0.029296875,-0.943359375,-0.21875
589,-0.025390625,-0.9423828125,-0.22265625
590,-0.03125,-0.943359375,-0.220703125
591,-0.0302734375,-0.9423828125,-0.2265625
592,-0.0283203125,-0.951171875,-0.2197265625
593,-0.0302734375,-0.9482421875,-0.2236328125
594,-0.025390625,-0.951171875,-0.2333984375
595,-0.0263671875,-0.94921875,-0.23046875
596,-0.03125,-0.9482421875,-0.228515625
597,-0.0302734375,-0.955078125,-0.2333984375
598,-0.03125,-0.951171875,-0.2294921875
599,-0.0322265625,-0.947265625,-0.2294921875
600,-0.02734375,-0.9501953125,-0.2236328125
601,-0.029296875,-0.9501953125,-0.224609375
602,-0.0283203125,-0.9453125,-0.220703125
603,-0.0283203125,-0.9501953125,-0.2275390625
604,-0.0283203125,-0.94921875,-0.220703125
605,-0.02734375,-0.9501953125,-0.2197265625
606,-0.0283203125,-0.953125,-0.2236328125
607,-0.02734375,-0.9521484375,-0.224609375
608,-0.025390625,-0.9521484375,-0.220703125
609,-0.03125,-0.9521484375,-0.220703125
610,-0.0302734375,-0.9521484375,-0.22265625
611,-0.03125,-0.9560546875,-0.2197265625
612,-0.033203125,-0.953125,-0.2255859375
613,-0.02734375,-0.951171875,-0.2197265625
614,-0.0283203125,-0.953125,-0.23046875
615,-0.0302734375,-0.9462890625,-0.228515625
616,-0.025390625,-0.9462890625,-0.2314453125
617,-0.0234375,-0.9443359375,-0.23046875
618,-0.0205078125,-0.947265625,-0.2265625
619,-0.021484375,-0.9453125,-0.2265625
620,-0.0166015625,-0.94921875,-0.2294921875
621,-0.0126953125,-0.9482421875,-0.2275390625
622,-0.017578125,-0.943359375,-0.2265625
623,-0.0166015625,-0.94140625,-0.2216796875
624,-0.025390625,-0.9501953125,-0.2255859375
625,-0.0205078125,-0.9482421875,-0.22265625
626,-0.021484375,-0.9482421875,-0.2216796875
627,-0.015625,-0.9453125,-0.2197265625
628,-0.021484375,-0.9462890625,-0.22265625
629,-0.0234375,-0.9482421875,-0.224609375
630,-0.0205078125,-0.9482421875,-0.220703125
631,-0.0234375,-0.9453125,-0.220703125
632,-0.01953125,-0.9501953125,-0.2216796875
633,-0.0185546875,-0.9521484375,-0.2236328125
634,-0.0205078125,-0.947265625,-0.22265625
635,-0.0205078125,-0.9501953125,-0.220703125
636,-0.0244140625,-0.9482421875,-0.220703125
637,-0.0205078125,-0.951171875,-0.2197265625
638,-0.0185546875,-0.9453125,-0.2197265625
639,-0.0205078125,-0.951171875,-0.2197265625
640,-0.01953125,-0.9462890625,-0.2158203125
641,-0.0244140625,-0.947265625,-0.21484375
642,-0.0234375,-0.9482421875,-0.21875
643,-0.021484375,-0.953125,-0.2158203125
644,-0.0166015625,-0.9462890625,-0.2275390625
645,-0.0185546875,-0.947265625,-0.22265625
646,-0.0205078125,-0.947265625,-0.228515625
647,-0.017578125,-0.943359375,-0.228515625
648,-0.0224609375,-0.9462890625,-0.2216796875
649,-0.0224609375,-0.9453125,-0.2275390625
650,-0.021484375,-0.943359375,-0.2275390625
651,-0.029296875,-0.94921875,-0.23046875
652,-0.0234375,-0.9501953125,-0.224609375
653,-0.0244140625,-0.9453125,-0.2294921875
654,-0.0263671875,-0.9482421875,-0.2294921875
655,-0.021484375,-0.951171875,-0.2216796875
656,-0.0244140625,-0.9482421875,-0.23046875
657,-0.02734375,-0.947265625,-0.2314453125
658,-0.0224609375,-0.9501953125,-0.232421875
659,-0.0263671875,-0.953125,-0.2333984375
660,-0.02734375,-0.951171875,-0.2353515625
661,-0.0302734375,-0.947265625,-0.234375
662,-0.021484375,-0.947265625,-0.2333984375
663,-0.0283203125,-0.947265625,-0.2353515625
664,-0.021484375,-0.9423828125,-0.236328125
665,-0.03125,-0.951171875,-0.2373046875
666,-0.0283203125,-0.9453125,-0.2353515625
667,-0.0302734375,-0.94921875,-0.2353515625
668,-0.0302734375,-0.9560546875,-0.2333984375
669,-0.0302734375,-0.9521484375,-0.232421875
670,-0.0283203125,-0.9501953125,-0.23828125
671,-0.029296875,-0.9501953125,-0.23828125
672,-0.029296875,-0.9453125,-0.2412109375
673,-0.0263671875,-0.94921875,-0.2412109375
674,-0.03515625,-0.9462890625,-0.2373046875
675,-0.033203125,-0.9482421875,-0.23046875
676,-0.03125,-0.9453125,-0.2392578125
677,-0.033203125,-0.9462890625,-0.2333984375
678,-0.0361328125,-0.9462890625,-0.234375
679,-0.033203125,-0.9462890625,-0.2353515625
680,-0.0341796875,-0.9501953125,-0.232421875
681,-0.0322265625,-0.955078125,-0.234375
682,-0.02734375,-0.955078125,-0.23828125
683,-0.0341796875,-0.9560546875,-0.2392578125
684,-0.03125,-0.9521484375,-0.244140625
685,-0.02734375,-0.9521484375,-0.2412109375
686,-0.0283203125,-0.943359375,-0.23828125
687,-0.0302734375,-0.9462890625,-0.240234375
688,-0.0244140625,-0.935546875,-0.2470703125
689,-0.0244140625,-0.9375,-0.23828125
690,-0.021484375,-0.94140625,-0.23828125
691,-0.02734375,-0.93359375,-0.2373046875
692,-0.0283203125,-0.939453125,-0.2353515625
693,-0.021484375,-0.9404296875,-0.236328125
694,-0.0244140625,-0.9345703125,-0.236328125
695,-0.0224609375,-0.943359375,-0.236328125
696,-0.0234375,-0.9423828125,-0.236328125
697,-0.017578125,-0.947265625,-0.23046875
698,-0.021484375,-0.9453125,-0.23828125
699,-0.0205078125,-0.947265625,-0.2392578125
700,-0.0166015625,-0.953125,-0.236328125
701,-0.0205078125,-0.94921875,-0.232421875
702,-0.0185546875,-0.9501953125,-0.2373046875
703,-0.0087890625,-0.9453125,-0.2392578125
704,-0.0185546875,-0.9453125,-0.23828125
705,-0.01171875,-0.9443359375,-0.2373046875
706,-0.0166015625,-0.9384765625,-0.23828125
707,-0.0078125,-0.9443359375,-0.2412109375
708,-0.01171875,-0.94140625,-0.2412109375
709,-0.009765625,-0.9404296875,-0.2451171875
710,-0.0107421875,-0.9462890625,-0.24609375
711,-0.009765625,-0.935546875,-0.2470703125
712,-0.00390625,-0.93359375,-0.25
713,-0.0078125,-0.935546875,-0.25390625
714,-0.0107421875,-0.935546875,-0.251953125
715,-0.015625,-0.935546875,-0.2587890625
716,-0.015625,-0.93359375,-0.2568359375
717,-0.015625,-0.9326171875,-0.2587890625
718,-0.021484375,-0.9326171875,-0.2587890625
719,-0.021484375,-0.93359375,-0.26171875
720,-0.0205078125,-0.935546875,-0.26171875
721,-0.0263671875,-0.935546875,-0.265625
722,-0.021484375,-0.94140625,-0.2666015625
723,-0.0224609375,-0.9443359375,-0.2607421875
724,-0.01953125,-0.9423828125,-0.259765625
725,-0.0244140625,-0.9443359375,-0.2607421875
726,-0.0205078125,-0.9453125,-0.2666015625
727,-0.025390625,-0.939453125,-0.265625
728,-0.021484375,-0.9404296875,-0.267578125
729,-0.021484375,-0.9365234375,-0.26953125
730,-0.0185546875,-0.94140625,-0.275390625
731,-0.02734375,-0.9375,-0.2744140625
732,-0.0234375,-0.9375,-0.2802734375
733,-0.0244140625,-0.9365234375,-0.2763671875
734,-0.02734375,-0.935546875,-0.28125
735,-0.021484375,-0.9375,-0.279296875
736,-0.025390625,-0.9365234375,-0.2861328125
737,-0.0205078125,-0.9423828125,-0.28515625
738,-0.0234375,-0.9384765625,-0.28515625
739,-0.021484375,-0.939453125,-0.2841796875
740,-0.01953125,-0.94140625,-0.2802734375
741,-0.0244140625,-0.943359375,-0.28125
742,-0.0185546875,-0.9462890625,-0.283203125
743,-0.01953125,-0.9453125,-0.2861328125
744,-0.017578125,-0.9482421875,-0.2802734375
745,-0.017578125,-0.9541015625,-0.283203125
746,-0.01171875,-0.943359375,-0.29296875
747,-0.0087890625,-0.947265625,-0.291015625
748,-0.0087890625,-0.943359375,-0.296875
749,-0.009765625,-0.9375,-0.296875
750,-0.0107421875,-0.9375,-0.2958984375
751,-0.017578125,-0.9326171875,-0.294921875
752,-0.017578125,-0.923828125,-0.2958984375
753,-0.0166015625,-0.927734375,-0.2978515625
754,-0.021484375,-0.9287109375,-0.3037109375
755,-0.0205078125,-0.927734375,-0.302734375
756,-0.0234375,-0.931640625,-0.3037109375
757,-0.021484375,-0.935546875,-0.302734375
758,-0.0224609375,-0.9384765625,-0.30078125
759,-0.0205078125,-0.9365234375,-0.3046875
760,-0.0224609375,-0.9462890625,-0.3046875
761,-0.0234375,-0.9423828125,-0.3173828125
762,-0.02734375,-0.939453125,-0.3193359375
763,-0.017578125,-0.9326171875,-0.3251953125
764,-0.015625,-0.9365234375,-0.3271484375
765,-0.025390625,-0.9404296875,-0.328125
766,-0.013671875,-0.939453125,-0.3291015625
767,-0.015625,-0.9375,-0.330078125
768,-0.017578125,-0.9384765625,-0.3349609375
769,-0.0107421875,-0.9375,-0.328125
770,-0.0068359375,-0.9345703125,-0.328125
771,-0.005859375,-0.9345703125,-0.328125
772,0.0,-0.9326171875,-0.3193359375
773,-0.00390625,-0.927734375,-0.31640625
774,-0.00390625,-0.927734375,-0.31640625
775,0.0009765625,-0.9306640625,-0.318359375
776,0.0009765625,-0.9169921875,-0.3173828125
777,0.0048828125,-0.916015625,-0.3193359375
778,0.0107421875,-0.91015625,-0.3193359375
779,0.009765625,-0.904296875,-0.3251953125
780,0.009765625,-0.90234375,-0.32421875
781,0.0126953125,-0.9033203125,-0.322265625
782,0.00390625,-0.90625,-0.3232421875
783,0.0107421875,-0.908203125,-0.3193359375
784,0.00390625,-0.9091796875,-0.318359375
785,0.001953125,-0.916015625,-0.3134765625
786,0.0,-0.9150390625,-0.3046875
787,-0.005859375,-0.92578125,-0.298828125
788,-0.0048828125,-0.9267578125,-0.2939453125
789,-0.0048828125,-0.931640625,-0.2880859375
790,-0.0087890625,-0.9326171875,-0.2861328125
791,-0.0087890625,-0.9326171875,-0.28515625
792,-0.01953125,-0.9296875,-0.28515625
793,-0.021484375,-0.916015625,-0.28125
794,-0.017578125,-0.9072265625,-0.2841796875
795,-0.0185546875,-0.9033203125,-0.287109375
796,-0.015625,-0.904296875,-0.2900390625
797,-0.0146484375,-0.9013671875,-0.2900390625
798,-0.025390625,-0.90625,-0.296875
799,-0.0166015625,-0.916015625,-0.3017578125
800,-0.0224609375,-0.91796875,-0.30078125
801,-0.0185546875,-0.9287109375,-0.302734375
802,-0.0263671875,-0.93359375,-0.3037109375
803,-0.025390625,-0.939453125,-0.30859375
804,-0.0322265625,-0.9462890625,-0.31640625
805,-0.0302734375,-0.9482421875,-0.314453125
806,-0.0224609375,-0.9560546875,-0.3212890625
807,-0.025390625,-0.9541015625,-0.3232421875
808,-0.01953125,-0.951171875,-0.3291015625
809,-0.0166015625,-0.9501953125,-0.3310546875
810,-0.0087890625,-0.9423828125,-0.333984375
811,-0.0078125,-0.935546875,-0.337890625
812,0.0,-0.9208984375,-0.34765625
813,0.005859375,-0.9130859375,-0.353515625
814,0.009765625,-0.9072265625,-0.357421875
815,0.0068359375,-0.9013671875,-0.3583984375
816,0.005859375,-0.89453125,-0.35546875
817,0.0068359375,-0.890625,-0.357421875
818,0.0078125,-0.884765625,-0.3623046875
819,0.0078125,-0.8828125,-0.3603515625
820,0.0078125,-0.8779296875,-0.3623046875
821,0.001953125,-0.8798828125,-0.3623046875
822,0.00390625,-0.8837890625,-0.361328125
823,-0.0029296875,-0.8837890625,-0.3662109375
824,-0.0048828125,-0.8818359375,-0.3671875
825,-0.01171875,-0.8837890625,-0.3701171875
826,-0.013671875,-0.8779296875,-0.3837890625
827,-0.0185546875,-0.8779296875,-0.390625
828,-0.021484375,-0.8828125,-0.41015625
829,-0.0224609375,-0.8876953125,-0.421875
830,-0.0263671875,-0.888671875,-0.4267578125
831,-0.0283203125,-0.88671875,-0.4365234375
832,-0.029296875,-0.888671875,-0.4365234375
833,-0.0263671875,-0.8916015625,-0.4306640625
834,-0.01953125,-0.89453125,-0.419921875
835,-0.01953125,-0.896484375,-0.4013671875
836,-0.0126953125,-0.8974609375,-0.3896484375
837,-0.0146484375,-0.896484375,-0.3701171875
838,-0.0087890625,-0.8876953125,-0.361328125
839,-0.0009765625,-0.8818359375,-0.3486328125
840,0.00390625,-0.8740234375,-0.34375
841,0.0087890625,-0.859375,-0.3408203125
842,0.0146484375,-0.8515625,-0.3486328125
843,0.015625,-0.84375,-0.3564453125
844,0.0166015625,-0.8388671875,-0.3642578125
845,0.0185546875,-0.8388671875,-0.369140625
846,0.0224609375,-0.8515625,-0.3828125
847,0.01953125,-0.859375,-0.3984375
848,0.017578125,-0.87109375,-0.4091796875
849,0.017578125,-0.8837890625,-0.4130859375
850,0.01953125,-0.8974609375,-0.419921875
851,0.01953125,-0.8955078125,-0.4208984375
852,0.0224609375,-0.90234375,-0.423828125
853,0.0146484375,-0.8955078125,-0.42578125
854,0.017578125,-0.8818359375,-0.4296875
855,0.01171875,-0.865234375,-0.4296875
856,0.015625,-0.84375,-0.4150390625
857,0.013671875,-0.8310546875,-0.4072265625
858,0.0068359375,-0.8212890625,-0.388671875
859,0.00390625,-0.8125,-0.3779296875
860,-0.0048828125,-0.7958984375,-0.375
861,-0.0126953125,-0.7900390625,-0.375
862,-0.01171875,-0.7919921875,-0.3740234375
863,-0.013671875,-0.78515625,-0.380859375
864,-0.01953125,-0.7841796875,-0.3955078125
865,-0.0126953125,-0.7861328125,-0.41015625
866,0.0,-0.79296875,-0.4150390625
867,0.0087890625,-0.791015625,-0.419921875
868,0.0126953125,-0.791015625,-0.421875
869,0.015625,-0.79296875,-0.4296875
870,0.0263671875,-0.787109375,-0.4306640625
871,0.0361328125,-0.779296875,-0.4384765625
872,0.0419921875,-0.76171875,-0.439453125
873,0.0537109375,-0.7353515625,-0.4296875
874,0.0634765625,-0.71875,-0.42578125
875,0.0712890625,-0.6953125,-0.408203125
876,0.076171875,-0.6669921875,-0.396484375
877,0.07421875,-0.6533203125,-0.376953125
878,0.064453125,-0.6484375,-0.357421875
879,0.05078125,-0.64453125,-0.3427734375
880,0.03125,-0.6533203125,-0.330078125
881,0.0205078125,-0.671875,-0.3232421875
882,0.0107421875,-0.6796875,-0.3134765625
883,0.001953125,-0.7060546875,-0.3125
884,-0.0087890625,-0.7275390625,-0.3173828125
885,-0.009765625,-0.7568359375,-0.3330078125
886,-0.013671875,-0.7939453125,-0.34375
887,-0.0166015625,-0.8212890625,-0.3740234375
888,-0.015625,-0.86328125,-0.408203125
889,-0.0234375,-0.89453125,-0.4296875
890,-0.03125,-0.91015625,-0.4482421875
891,-0.0341796875,-0.9326171875,-0.4765625
892,-0.0390625,-0.94921875,-0.4970703125
893,-0.044921875,-0.9599609375,-0.5146484375
894,-0.046875,-0.978515625,-0.5234375
895,-0.0556640625,-0.98828125,-0.53125
896,-0.0537109375,-0.994140625,-0.537109375
897,-0.05859375,-0.9951171875,-0.5390625
898,-0.0625,-0.9990234375,-0.55078125
899,-0.0625,-1.0087890625,-0.5595703125
900,-0.0498046875,-1.0068359375,-0.5615234375
901,-0.04296875,-1.00390625,-0.564453125
902,-0.0322265625,-0.9990234375,-0.5615234375
903,-0.01171875,-0.990234375,-0.568359375
904,0.005859375,-0.958984375,-0.568359375
905,0.0263671875,-0.9365234375,-0.5615234375
906,0.03515625,-0.919921875,-0.5517578125
907,0.0458984375,-0.8974609375,-0.537109375
908,0.0458984375,-0.87890625,-0.513671875
909,0.044921875,-0.8671875,-0.4912109375
910,0.0322265625,-0.8564453125,-0.4716796875
911,0.017578125,-0.857421875,-0.458984375
912,-0.0009765625,-0.8515625,-0.4521484375
913,-0.0283203125,-0.8505859375,-0.447265625
914,-0.0478515625,-0.8525390625,-0.45703125
915,-0.0751953125,-0.8525390625,-0.4736328125
916,-0.0908203125,-0.8662109375,-0.4921875
917,-0.1025390625,-0.8583984375,-0.5087890625
918,-0.09765625,-0.8662109375,-0.5302734375
919,-0.1005859375,-0.87109375,-0.53515625
920,-0.0888671875,-0.8837890625,-0.5419921875
921,-0.0869140625,-0.888671875,-0.5380859375
922,-0.076171875,-0.8984375,-0.548828125
923,-0.0703125,-0.8984375,-0.54296875
924,-0.064453125,-0.8955078125,-0.5439453125
925,-0.0615234375,-0.88671875,-0.5478515625
926,-0.0498046875,-0.876953125,-0.5498046875
927,-0.041015625,-0.8583984375,-0.5595703125
928,-0.03125,-0.861328125,-0.556640625
929,-0.021484375,-0.876953125,-0.548828125
930,0.0009765625,-0.853515625,-0.5888671875
931,0.017578125,-0.837890625,-0.6025390625
932,0.0498046875,-0.845703125,-0.609375
933,0.0712890625,-0.8486328125,-0.6162109375
934,0.0869140625,-0.8525390625,-0.6337890625
935,0.091796875,-0.8740234375,-0.64453125
936,0.107421875,-0.8955078125,-0.65234375
937,0.111328125,-0.9072265625,-0.6494140625
938,0.1103515625,-0.9248046875,-0.642578125
939,0.1025390625,-0.921875,-0.623046875
940,0.091796875,-0.9130859375,-0.6083984375
941,0.0810546875,-0.8857421875,-0.5791015625
942,0.0654296875,-0.8583984375,-0.57421875
943,0.05078125,-0.8271484375,-0.564453125
944,0.0302734375,-0.798828125,-0.5576171875
945,0.0166015625,-0.7724609375,-0.5478515625
946,0.0048828125,-0.755859375,-0.55078125
947,-0.015625,-0.7373046875,-0.5400390625
948,-0.01953125,-0.732421875,-0.544921875
949,-0.03125,-0.7353515625,-0.55078125
950,-0.0380859375,-0.744140625,-0.5517578125
951,-0.0439453125,-0.7646484375,-0.55859375
952,-0.0517578125,-0.7822265625,-0.57421875
953,-0.048828125,-0.798828125,-0.5966796875
954,-0.0458984375,-0.81640625,-0.6044921875
955,-0.0458984375,-0.81640625,-0.6083984375
956,-0.041015625,-0.8134765625,-0.6064453125
957,-0.0380859375,-0.8115234375,-0.60546875
958,-0.0390625,-0.7998046875,-0.591796875
959,-0.0380859375,-0.7841796875,-0.5810546875
960,-0.0361328125,-0.7802734375,-0.5771484375
961,-0.0302734375,-0.7724609375,-0.5654296875
962,-0.025390625,-0.767578125,-0.560546875
963,-0.0244140625,-0.7509765625,-0.5673828125
964,-0.0166015625,-0.7568359375,-0.5673828125
965,-0.013671875,-0.763671875,-0.5771484375
966,-0.01171875,-0.7666015625,-0.595703125
967,-0.0048828125,-0.7763671875,-0.603515625
968,-0.0009765625,-0.78515625,-0.6181640625
969,0.001953125,-0.787109375,-0.6201171875
970,0.0087890625,-0.7919921875,-0.630859375
971,0.005859375,-0.7919921875,-0.630859375
972,0.0146484375,-0.7783203125,-0.62890625
973,0.0146484375,-0.771484375,-0.6240234375
974,0.009765625,-0.763671875,-0.61328125
975,0.0068359375,-0.73828125,-0.6083984375
976,0.0048828125,-0.7255859375,-0.611328125
977,0.0009765625,-0.71875,-0.607421875
978,-0.009765625,-0.7109375,-0.607421875
979,-0.013671875,-0.7041015625,-0.6025390625
980,-0.0234375,-0.69921875,-0.603515625
981,-0.0185546875,-0.703125,-0.603515625
982,-0.0234375,-0.7001953125,-0.611328125
983,-0.0166015625,-0.6943359375,-0.6181640625
984,-0.0078125,-0.6923828125,-0.6240234375
985,-0.0078125,-0.693359375,-0.6220703125
986,0.001953125,-0.693359375,-0.619140625
987,0.001953125,-0.6953125,-0.6171875
988,0.0,-0.6875,-0.6103515625
989,0.0,-0.6904296875,-0.59765625
990,0.0009765625,-0.6796875,-0.5908203125
991,0.00390625,-0.6865234375,-0.5849609375
992,-0.00390625,-0.6787109375,-0.5771484375
993,-0.0029296875,-0.6796875,-0.5751953125
994,-0.0087890625,-0.681640625,-0.5673828125
995,-0.0185546875,-0.6806640625,-0.5693359375
996,-0.0224609375,-0.677734375,-0.56640625
997,-0.033203125,-0.6767578125,-0.5673828125
998,-0.0322265625,-0.6796875,-0.568359375
999,-0.03515625,-0.6904296875,-0.572265625
1000,-0.041015625,-0.6865234375,-0.5732421875
1001,-0.0400390625,-0.7041015625,-0.5771484375
1002,-0.0419921875,-0.7177734375,-0.58203125
1003,-0.0390625,-0.740234375,-0.59375
1004,-0.0439453125,-0.7529296875,-0.6083984375
1005,-0.0439453125,-0.77734375,-0.6396484375
1006,-0.0380859375,-0.783203125,-0.66015625
1007,-0.0439453125,-0.7822265625,-0.6904296875
1008,-0.0458984375,-0.78515625,-0.70703125
1009,-0.0478515625,-0.7822265625,-0.724609375
1010,-0.048828125,-0.779296875,-0.740234375
1011,-0.0400390625,-0.7685546875,-0.751953125
1012,-0.0458984375,-0.7509765625,-0.75
1013,-0.0361328125,-0.7529296875,-0.748046875
1014,-0.0341796875,-0.744140625,-0.736328125
1015,-0.0341796875,-0.751953125,-0.7373046875
1016,-0.02734375,-0.765625,-0.7255859375
1017,-0.0224609375,-0.7744140625,-0.720703125
1018,-0.0185546875,-0.7861328125,-0.724609375
1019,-0.0302734375,-0.7919921875,-0.73046875
1020,-0.0390625,-0.80078125,-0.7314453125
1021,-0.0419921875,-0.8037109375,-0.7431640625
1022,-0.0517578125,-0.8076171875,-0.7587890625
1023,-0.0546875,-0.80859375,-0.76953125
1024,-0.064453125,-0.81640625,-0.783203125
1025,-0.072265625,-0.8232421875,-0.7939453125
1026,-0.0732421875,-0.810546875,-0.81640625
1027,-0.0732421875,-0.796875,-0.8193359375
1028,-0.0771484375,-0.791015625,-0.830078125
1029,-0.07421875,-0.7802734375,-0.845703125
1030,-0.072265625,-0.78125,-0.8466796875
1031,-0.068359375,-0.765625,-0.8486328125
1032,-0.052734375,-0.759765625,-0.83984375
1033,-0.0478515625,-0.763671875,-0.828125
1034,-0.0478515625,-0.7646484375,-0.8203125
1035,-0.0458984375,-0.7685546875,-0.8134765625
1036,-0.0458984375,-0.7724609375,-0.8017578125
1037,-0.0517578125,-0.7763671875,-0.7861328125
1038,-0.0595703125,-0.7822265625,-0.7822265625
1039,-0.0654296875,-0.7861328125,-0.7763671875
1040,-0.0712890625,-0.7861328125,-0.7744140625
1041,-0.0771484375,-0.7861328125,-0.7802734375
1042,-0.0791015625,-0.7861328125,-0.78125
1043,-0.0771484375,-0.7900390625,-0.78515625
1044,-0.0791015625,-0.7880859375,-0.787109375
1045,-0.0771484375,-0.7900390625,-0.7861328125
1046,-0.0771484375,-0.7919921875,-0.7890625
1047,-0.07421875,-0.7822265625,-0.78515625
1048,-0.06640625,-0.7763671875,-0.7822265625
1049,-0.0615234375,-0.765625,-0.779296875
1050,-0.05859375,-0.7626953125,-0.7763671875
1051,-0.048828125,-0.748046875,-0.7744140625
1052,-0.0439453125,-0.734375,-0.763671875
1053,-0.037109375,-0.724609375,-0.7587890625
1054,-0.0419921875,-0.7197265625,-0.74609375
1055,-0.0419921875,-0.71484375,-0.7392578125
1056,-0.0439453125,-0.7158203125,-0.732421875
1057,-0.060546875,-0.70703125,-0.7294921875
1058,-0.064453125,-0.7099609375,-0.720703125
1059,-0.0732421875,-0.708984375,-0.7119140625
1060,-0.0869140625,-0.705078125,-0.7109375
1061,-0.091796875,-0.7060546875,-0.7099609375
1062,-0.099609375,-0.7080078125,-0.697265625
1063,-0.095703125,-0.708984375,-0.697265625
1064,-0.091796875,-0.71875,-0.693359375
1065,-0.0791015625,-0.7275390625,-0.6884765625
1066,-0.068359375,-0.7373046875,-0.6884765625
1067,-0.05859375,-0.7470703125,-0.689453125
1068,-0.0439453125,-0.759765625,-0.69140625
1069,-0.0419921875,-0.7568359375,-0.7001953125
1070,-0.0390625,-0.763671875,-0.6962890625
1071,-0.0361328125,-0.755859375,-0.7021484375
1072,-0.041015625,-0.744140625,-0.6982421875
1073,-0.0419921875,-0.7275390625,-0.6904296875
1074,-0.048828125,-0.7177734375,-0.6884765625
1075,-0.0537109375,-0.7021484375,-0.681640625
1076,-0.060546875,-0.6923828125,-0.67578125
1077,-0.0673828125,-0.69140625,-0.6689453125
1078,-0.072265625,-0.6884765625,-0.6689453125
1079,-0.078125,-0.6953125,-0.658203125
1080,-0.080078125,-0.7099609375,-0.654296875
1081,-0.0869140625,-0.7119140625,-0.6513671875
1082,-0.083984375,-0.7177734375,-0.66015625
1083,-0.0791015625,-0.7294921875,-0.669921875
1084,-0.072265625,-0.732421875,-0.6708984375
1085,-0.0595703125,-0.73046875,-0.6748046875
1086,-0.0556640625,-0.728515625,-0.6787109375
1087,-0.0498046875,-0.7275390625,-0.681640625
1088,-0.041015625,-0.720703125,-0.677734375
1089,-0.0419921875,-0.7119140625,-0.6767578125
1090,-0.0439453125,-0.70703125,-0.6728515625
1091,-0.05078125,-0.6982421875,-0.6669921875
1092,-0.0517578125,-0.6884765625,-0.666015625
1093,-0.0595703125,-0.685546875,-0.66796875
1094,-0.07421875,-0.673828125,-0.6611328125
1095,-0.080078125,-0.6708984375,-0.6640625
1096,-0.0908203125,-0.6650390625,-0.66015625
1097,-0.10546875,-0.671875,-0.650390625
1098,-0.11328125,-0.6650390625,-0.6455078125
1099,-0.1201171875,-0.6708984375,-0.640625
1100,-0.1201171875,-0.6728515625,-0.62890625
1101,-0.1123046875,-0.689453125,-0.6220703125
1102,-0.107421875,-0.689453125,-0.611328125
1103,-0.107421875,-0.701171875,-0.6083984375
1104,-0.1005859375,-0.7080078125,-0.60546875
1105,-0.095703125,-0.703125,-0.6025390625
1106,-0.0927734375,-0.703125,-0.60546875
1107,-0.0888671875,-0.703125,-0.6064453125
1108,-0.0771484375,-0.7021484375,-0.599609375
1109,-0.0732421875,-0.6982421875,-0.59765625
1110,-0.0654296875,-0.685546875,-0.5927734375
1111,-0.0546875,-0.68359375,-0.5751953125
1112,-0.04296875,-0.67578125,-0.576171875
1113,-0.0390625,-0.6767578125,-0.5654296875
1114,-0.0400390625,-0.666015625,-0.568359375
1115,-0.0390625,-0.66015625,-0.5791015625
1116,-0.0380859375,-0.63671875,-0.5908203125
1117,-0.0439453125,-0.6220703125,-0.603515625
1118,-0.05078125,-0.5947265625,-0.6171875
1119,-0.052734375,-0.5810546875,-0.6298828125
1120,-0.0556640625,-0.5703125,-0.646484375
1121,-0.0595703125,-0.552734375,-0.66015625
1122,-0.0595703125,-0.5458984375,-0.666015625
1123,-0.0576171875,-0.548828125,-0.6923828125
1124,-0.052734375,-0.5517578125,-0.708984375
1125,-0.0390625,-0.5478515625,-0.736328125
1126,-0.0302734375,-0.5517578125,-0.763671875
1127,-0.0068359375,-0.55859375,-0.79296875
1128,0.0166015625,-0.556640625,-0.8154296875
1129,0.0458984375,-0.5576171875,-0.8388671875
1130,0.0712890625,-0.5576171875,-0.865234375
1131,0.0888671875,-0.5634765625,-0.8876953125
1132,0.10546875,-0.548828125,-0.9052734375
1133,0.1123046875,-0.55078125,-0.93359375
1134,0.1201171875,-0.53515625,-0.955078125
1135,0.115234375,-0.525390625,-0.9765625
1136,0.1083984375,-0.5166015625,-0.9990234375
1137,0.109375,-0.513671875,-1.0244140625
1138,0.10546875,-0.5166015625,-1.052734375
1139,0.1025390625,-0.5185546875,-1.076171875
1140,0.107421875,-0.52734375,-1.0986328125
1141,0.119140625,-0.537109375,-1.1220703125
1142,0.1337890625,-0.5498046875,-1.142578125
1143,0.1484375,-0.5595703125,-1.150390625
1144,0.16796875,-0.578125,-1.15234375
1145,0.173828125,-0.5869140625,-1.146484375
1146,0.1796875,-0.5908203125,-1.1416015625
1147,0.1669921875,-0.5986328125,-1.1298828125
1148,0.1484375,-0.6015625,-1.1171875
1149,0.126953125,-0.6083984375,-1.10546875
1150,0.087890625,-0.619140625,-1.0869140625
1151,0.052734375,-0.61328125,-1.0537109375
1152,0.015625,-0.607421875,-1.0263671875
1153,-0.0234375,-0.5986328125,-0.9814453125
1154,-0.0634765625,-0.5908203125,-0.9375
1155,-0.107421875,-0.5888671875,-0.8984375
1156,-0.1298828125,-0.5908203125,-0.86328125
1157,-0.1513671875,-0.59375,-0.8193359375
1158,-0.1708984375,-0.58984375,-0.787109375
1159,-0.1650390625,-0.5908203125,-0.7548828125
1160,-0.1640625,-0.587890625,-0.7294921875
1161,-0.1357421875,-0.583984375,-0.697265625
1162,-0.1123046875,-0.5712890625,-0.666015625
1163,-0.0810546875,-0.5625,-0.625
1164,-0.0634765625,-0.552734375,-0.580078125
1165,-0.0224609375,-0.5341796875,-0.5283203125
1166,0.001953125,-0.513671875,-0.490234375
1167,0.021484375,-0.4951171875,-0.4521484375
1168,0.044921875,-0.4853515625,-0.423828125
1169,0.0615234375,-0.4658203125,-0.380859375
1170,0.056640625,-0.421875,-0.3798828125
1171,0.0732421875,-0.4228515625,-0.3310546875
1172,0.083984375,-0.4140625,-0.3056640625
1173,0.08203125,-0.4111328125,-0.3017578125
1174,0.1064453125,-0.4140625,-0.28125
1175,0.115234375,-0.431640625,-0.2138671875
1176,0.107421875,-0.462890625,-0.142578125
1177,0.0859375,-0.490234375,-0.0888671875
1178,0.0283203125,-0.517578125,-0.0634765625
1179,-0.0302734375,-0.541015625,-0.0458984375
1180,-0.0849609375,-0.5546875,-0.0263671875
1181,-0.158203125,-0.552734375,-0.0224609375
1182,-0.2001953125,-0.5400390625,-0.05859375
1183,-0.23828125,-0.5087890625,-0.1005859375
1184,-0.21484375,-0.4599609375,-0.197265625
1185,-0.22265625,-0.4296875,-0.1962890625
1186,-0.1953125,-0.3828125,-0.2109375
1187,-0.1875,-0.330078125,-0.23046875
1188,-0.158203125,-0.275390625,-0.2353515625
1189,-0.1494140625,-0.1689453125,-0.236328125
1190,-0.17578125,-0.0498046875,-0.251953125
1191,-0.2099609375,0.0986328125,-0.2900390625
1192,-0.2587890625,0.2470703125,-0.34765625
1193,-0.3291015625,0.3544921875,-0.388671875
1194,-0.38671875,0.419921875,-0.4345703125
1195,-0.484375,0.474609375,-0.498046875
1196,-0.568359375,0.5068359375,-0.572265625
1197,-0.611328125,0.5537109375,-0.66015625
1198,-0.5849609375,0.546875,-0.7529296875
1199,-0.591796875,0.5244140625,-0.8203125
1200,-0.5771484375,0.486328125,-0.953125
1201,-0.568359375,0.431640625,-1.060546875
1202,-0.521484375,0.384765625,-1.1689453125
1203,-0.48046875,0.3505859375,-1.24609375
1204,-0.4716796875,0.2880859375,-1.271484375
1205,-0.4541015625,0.2314453125,-1.3125
1206,-0.470703125,0.15625,-1.3046875
1207,-0.4921875,0.130859375,-1.2841796875
1208,-0.5205078125,0.107421875,-1.2353515625
1209,-0.537109375,0.08984375,-1.12890625
1210,-0.5595703125,0.068359375,-1.046875
1211,-0.591796875,0.046875,-0.978515625
1212,-0.6552734375,0.0166015625,-0.9453125
1213,-0.708984375,-0.0009765625,-0.9326171875
1214,-0.7890625,0.0048828125,-0.9130859375
1215,-0.8916015625,0.1103515625,-0.9609375
1216,-1.09375,0.2705078125,-1.1474609375
1217,-1.3603515625,0.3955078125,-1.23828125
1218,-1.486328125,0.49609375,-1.1884765625
1219,-1.9248046875,0.8994140625,-1.720703125
1220,-4.7724609375,2.96484375,-3.490234375
1221,-3.8447265625,2.9755859375,-2.5166015625
1222,-1.82421875,2.224609375,-2.0615234375
1223,-0.76171875,1.41015625,-1.630859375
1224,-0.771484375,1.36328125,-1.8583984375
1225,-1.0712890625,1.30859375,-2.3505859375
1226,-1.091796875,1.2109375,-2.4443359375
1227,-1.205078125,1.1796875,-2.302734375
1228,-1.37109375,1.1796875,-2.119140625
1229,-1.6748046875,1.158203125,-1.9580078125
1230,-1.818359375,0.951171875,-1.73828125
1231,-2.1025390625,0.9521484375,-1.59765625
1232,-2.150390625,0.806640625,-1.3388671875
1233,-1.978515625,0.5146484375,-1.173828125
1234,-1.6767578125,0.150390625,-1.0927734375
1235,-1.4111328125,-0.2021484375,-1.0791015625
1236,-1.1171875,-0.376953125,-1.1845703125
1237,-0.9384765625,-0.35546875,-1.2080078125
1238,-0.6884765625,-0.5205078125,-1.220703125
1239,-0.6865234375,-0.4384765625,-1.0673828125
1240,-0.8515625,-0.2587890625,-0.865234375
1241,-0.912109375,-0.1904296875,-0.6298828125
1242,-0.8544921875,-0.0927734375,-0.5224609375
1243,-0.822265625,-0.01171875,-0.443359375
1244,-0.861328125,0.0986328125,-0.345703125
1245,-0.8701171875,0.248046875,-0.365234375
1246,-0.849609375,0.330078125,-0.333984375
1247,-0.83984375,0.408203125,-0.34375
1248,-0.826171875,0.4697265625,-0.4013671875
1249,-0.7978515625,0.4931640625,-0.4384765625
1250,-0.7333984375,0.412109375,-0.4404296875
1251,-0.7353515625,0.3505859375,-0.38671875
1252,-0.779296875,0.3515625,-0.3671875
1253,-0.8134765625,0.3740234375,-0.33984375
1254,-0.8388671875,0.4248046875,-0.3564453125
1255,-0.87109375,0.4462890625,-0.3466796875
1256,-0.8740234375,0.423828125,-0.3564453125
1257,-0.93359375,0.4052734375,-0.3388671875
1258,-0.9658203125,0.38671875,-0.3271484375
1259,-0.9541015625,0.341796875,-0.3349609375
1260,-0.935546875,0.2783203125,-0.318359375
1261,-0.9521484375,0.21484375,-0.3017578125
1262,-0.935546875,0.1923828125,-0.28125
1263,-0.927734375,0.21484375,-0.26171875
1264,-0.923828125,0.2275390625,-0.2548828125
1265,-0.916015625,0.2470703125,-0.2578125
1266,-0.9091796875,0.283203125,-0.236328125
1267,-0.90625,0.3271484375,-0.240234375
1268,-0.90625,0.375,-0.251953125
1269,-0.916015625,0.4306640625,-0.251953125
1270,-0.916015625,0.478515625,-0.2568359375
1271,-0.912109375,0.509765625,-0.2900390625
1272,-0.876953125,0.5126953125,-0.298828125
1273,-0.875,0.5048828125,-0.3115234375
1274,-0.8701171875,0.4658203125,-0.3046875
1275,-0.87109375,0.4453125,-0.3271484375
1276,-0.8681640625,0.4013671875,-0.33984375
1277,-0.876953125,0.3662109375,-0.3369140625
1278,-0.8759765625,0.3369140625,-0.3359375
1279,-0.876953125,0.30859375,-0.3212890625
1280,-0.87890625,0.28125,-0.318359375
1281,-0.8876953125,0.275390625,-0.30859375
1282,-0.87890625,0.2763671875,-0.2998046875
1283,-0.8642578125,0.271484375,-0.3046875
1284,-0.8681640625,0.2841796875,-0.298828125
1285,-0.869140625,0.30078125,-0.294921875
1286,-0.8798828125,0.32421875,-0.28515625
1287,-0.8935546875,0.357421875,-0.2880859375
1288,-0.9111328125,0.3984375,-0.3076171875
1289,-0.9248046875,0.427734375,-0.33203125
1290,-0.955078125,0.4482421875,-0.375
1291,-0.97265625,0.4921875,-0.412109375
1292,-0.9716796875,0.517578125,-0.4462890625
1293,-0.94921875,0.5322265625,-0.470703125
1294,-0.9287109375,0.5185546875,-0.4677734375
1295,-0.912109375,0.515625,-0.453125
1296,-0.8564453125,0.494140625,-0.4306640625
1297,-0.8095703125,0.453125,-0.408203125
1298,-0.7578125,0.4130859375,-0.3759765625
1299,-0.7197265625,0.3564453125,-0.333984375
1300,-0.6943359375,0.30078125,-0.3125
1301,-0.6748046875,0.2646484375,-0.294921875
1302,-0.681640625,0.2314453125,-0.283203125
1303,-0.7060546875,0.1875,-0.2734375
1304,-0.736328125,0.1787109375,-0.2998046875
1305,-0.7802734375,0.18359375,-0.337890625
1306,-0.8173828125,0.205078125,-0.38671875
1307,-0.849609375,0.220703125,-0.4296875
1308,-0.8740234375,0.244140625,-0.45703125
1309,-0.8984375,0.2587890625,-0.478515625
1310,-0.912109375,0.2626953125,-0.4931640625
1311,-0.9150390625,0.2578125,-0.48828125
1312,-0.91015625,0.251953125,-0.4765625
1313,-0.90625,0.240234375,-0.4521484375
1314,-0.908203125,0.2392578125,-0.4326171875
1315,-0.908203125,0.2275390625,-0.41015625
1316,-0.91015625,0.2255859375,-0.41015625
1317,-0.912109375,0.228515625,-0.4052734375
1318,-0.91015625,0.2158203125,-0.3994140625
1319,-0.8974609375,0.2119140625,-0.4111328125
1320,-0.89453125,0.2138671875,-0.41796875
1321,-0.8935546875,0.2138671875,-0.42578125
1322,-0.880859375,0.22265625,-0.4443359375
1323,-0.884765625,0.2236328125,-0.4560546875
1324,-0.873046875,0.2255859375,-0.484375
1325,-0.875,0.228515625,-0.5
1326,-0.873046875,0.22265625,-0.5185546875
1327,-0.87890625,0.21484375,-0.533203125
1328,-0.890625,0.2109375,-0.541015625
1329,-0.900390625,0.2138671875,-0.5322265625
1330,-0.916015625,0.20703125,-0.5302734375
1331,-0.9306640625,0.2099609375,-0.525390625
1332,-0.947265625,0.2265625,-0.53125
1333,-0.9560546875,0.2255859375,-0.544921875
1334,-0.9580078125,0.232421875,-0.5634765625
1335,-0.9541015625,0.236328125,-0.580078125
1336,-0.9326171875,0.2373046875,-0.603515625
1337,-0.9267578125,0.232421875,-0.6123046875
1338,-0.94140625,0.2265625,-0.640625
1339,-0.8681640625,0.181640625,-0.6865234375
1340,-0.83984375,0.169921875,-0.6884765625
1341,-0.83203125,0.1435546875,-0.701171875
1342,-0.798828125,0.1064453125,-0.6904296875
1343,-0.7822265625,0.08984375,-0.693359375
1344,-0.765625,0.083984375,-0.6923828125
1345,-0.751953125,0.0712890625,-0.6826171875
1346,-0.7509765625,0.0703125,-0.6787109375
1347,-0.75,0.0732421875,-0.6552734375
1348,-0.7431640625,0.0791015625,-0.646484375
1349,-0.7490234375,0.0869140625,-0.64453125
1350,-0.759765625,0.1005859375,-0.64453125
1351,-0.791015625,0.1044921875,-0.642578125
1352,-0.818359375,0.1142578125,-0.62890625
1353,-0.8671875,0.130859375,-0.615234375
1354,-0.8896484375,0.1416015625,-0.6005859375
1355,-0.9033203125,0.150390625,-0.5947265625
1356,-0.8955078125,0.15625,-0.6162109375
1357,-0.890625,0.1572265625,-0.625
1358,-0.8955078125,0.146484375,-0.611328125
1359,-0.8994140625,0.1396484375,-0.603515625
1360,-0.8974609375,0.1318359375,-0.58984375
1361,-0.896484375,0.12109375,-0.5771484375
1362,-0.8916015625,0.11328125,-0.560546875
1363,-0.8857421875,0.1005859375,-0.5498046875
1364,-0.8798828125,0.1005859375,-0.537109375
1365,-0.875,0.0986328125,-0.517578125
1366,-0.875,0.0966796875,-0.490234375
1367,-0.875,0.0966796875,-0.4931640625
1368,-0.875,0.099609375,-0.4794921875
1369,-0.8779296875,0.091796875,-0.4765625
1370,-0.8759765625,0.095703125,-0.466796875
1371,-0.8740234375,0.0966796875,-0.4541015625
1372,-0.8818359375,0.1064453125,-0.44921875
1373,-0.88671875,0.119140625,-0.4306640625
1374,-0.890625,0.12890625,-0.4228515625
1375,-0.8994140625,0.1484375,-0.416015625
1376,-0.90234375,0.166015625,-0.421875
1377,-0.9111328125,0.1689453125,-0.4208984375
1378,-0.9130859375,0.1806640625,-0.427734375
1379,-0.9091796875,0.1875,-0.4462890625
1380,-0.89453125,0.1943359375,-0.458984375
1381,-0.8935546875,0.1982421875,-0.4658203125
1382,-0.8857421875,0.203125,-0.48046875
1383,-0.8740234375,0.208984375,-0.484375
1384,-0.87109375,0.2080078125,-0.4892578125
1385,-0.8701171875,0.2109375,-0.4833984375
1386,-0.87109375,0.2060546875,-0.48046875
1387,-0.8701171875,0.1982421875,-0.48046875
1388,-0.875,0.1875,-0.4794921875
1389,-0.8720703125,0.17578125,-0.4970703125
1390,-0.8701171875,0.1630859375,-0.5078125
1391,-0.8720703125,0.1650390625,-0.5185546875
1392,-0.8720703125,0.1591796875,-0.529296875
1393,-0.87109375,0.1630859375,-0.533203125
1394,-0.875,0.1552734375,-0.5283203125
1395,-0.888671875,0.16015625,-0.5126953125
1396,-0.8916015625,0.1640625,-0.5087890625
1397,-0.896484375,0.1572265625,-0.5068359375
1398,-0.8984375,0.1630859375,-0.501953125
1399,-0.8955078125,0.16015625,-0.5078125
1400,-0.8935546875,0.1669921875,-0.5068359375
1401,-0.8935546875,0.1767578125,-0.5146484375
1402,-0.8876953125,0.1708984375,-0.509765625
1403,-0.875,0.169921875,-0.5146484375
1404,-0.8759765625,0.1708984375,-0.5244140625
1405,-0.8671875,0.169921875,-0.517578125
1406,-0.861328125,0.177734375,-0.509765625
1407,-0.8525390625,0.1796875,-0.5029296875
1408,-0.8486328125,0.1806640625,-0.4970703125
1409,-0.84765625,0.181640625,-0.494140625
1410,-0.84765625,0.1845703125,-0.4921875
1411,-0.8466796875,0.18359375,-0.498046875
1412,-0.849609375,0.1787109375,-0.5
1413,-0.849609375,0.1708984375,-0.50390625
1414,-0.84765625,0.1689453125,-0.51171875
1415,-0.849609375,0.1708984375,-0.517578125
1416,-0.853515625,0.1728515625,-0.52734375
1417,-0.8583984375,0.166015625,-0.5244140625
1418,-0.861328125,0.1708984375,-0.5205078125
1419,-0.86328125,0.1689453125,-0.5224609375
1420,-0.8662109375,0.169921875,-0.52734375
1421,-0.86328125,0.1689453125,-0.5224609375
1422,-0.8603515625,0.169921875,-0.5244140625
1423,-0.859375,0.17578125,-0.525390625
1424,-0.8583984375,0.1826171875,-0.5302734375
1425,-0.8544921875,0.181640625,-0.5361328125
1426,-0.8544921875,0.1875,-0.5380859375
1427,-0.8564453125,0.1875,-0.53125
1428,-0.859375,0.1875,-0.529296875
1429,-0.861328125,0.1943359375,-0.529296875
1430,-0.865234375,0.1884765625,-0.525390625
1431,-0.8671875,0.181640625,-0.52734375
1432,-0.8671875,0.1767578125,-0.533203125
1433,-0.8681640625,0.173828125,-0.5419921875
1434,-0.8623046875,0.1572265625,-0.541015625
1435,-0.8671875,0.146484375,-0.5478515625
1436,-0.8662109375,0.1376953125,-0.548828125
1437,-0.861328125,0.1328125,-0.5478515625
1438,-0.8623046875,0.1357421875,-0.5517578125
1439,-0.8681640625,0.1337890625,-0.552734375
1440,-0.8642578125,0.1376953125,-0.5556640625
1441,-0.8662109375,0.1572265625,-0.552734375
1442,-0.880859375,0.1669921875,-0.5537109375
1443,-0.880859375,0.1796875,-0.552734375
1444,-0.8828125,0.1845703125,-0.556640625
1445,-0.8857421875,0.18359375,-0.556640625
1446,-0.8837890625,0.1845703125,-0.556640625
1447,-0.884765625,0.1806640625,-0.5546875
1448,-0.876953125,0.177734375,-0.5546875
1449,-0.8720703125,0.171875,-0.5546875
1450,-0.865234375,0.1669921875,-0.5517578125
1451,-0.8623046875,0.16796875,-0.55078125
1452,-0.85546875,0.1669921875,-0.5478515625
1453,-0.84765625,0.158203125,-0.544921875
1454,-0.8583984375,0.1630859375,-0.5556640625
1455,-0.857421875,0.1640625,-0.5517578125
1456,-0.8583984375,0.166015625,-0.5595703125
1457,-0.859375,0.166015625,-0.5556640625
1458,-0.859375,0.162109375,-0.556640625
1459,-0.8662109375,0.16796875,-0.5556640625
1460,-0.86328125,0.169921875,-0.5498046875
1461,-0.8681640625,0.1669921875,-0.552734375
1462,-0.869140625,0.1728515625,-0.5390625
1463,-0.8701171875,0.171875,-0.544921875
1464,-0.8662109375,0.1728515625,-0.541015625
1465,-0.8623046875,0.171875,-0.5419921875
1466,-0.86328125,0.173828125,-0.5419921875
1467,-0.8623046875,0.173828125,-0.5419921875
1468,-0.8583984375,0.181640625,-0.54296875
1469,-0.84765625,0.185546875,-0.548828125
1470,-0.841796875,0.1884765625,-0.5439453125
1471,-0.84375,0.1884765625,-0.544921875
1472,-0.84765625,0.1953125,-0.54296875
1473,-0.8427734375,0.189453125,-0.5419921875
1474,-0.8447265625,0.1962890625,-0.54296875
1475,-0.849609375,0.2001953125,-0.5390625
1476,-0.84765625,0.19921875,-0.5419921875
1477,-0.853515625,0.1953125,-0.53515625
1478,-0.8544921875,0.201171875,-0.5322265625
1479,-0.8525390625,0.189453125,-0.5390625
1480,-0.8583984375,0.1943359375,-0.5380859375
1481,-0.8544921875,0.1884765625,-0.5419921875
1482,-0.8603515625,0.1923828125,-0.5419921875
1483,-0.861328125,0.1884765625,-0.5419921875
1484,-0.8642578125,0.185546875,-0.5400390625
1485,-0.8642578125,0.1904296875,-0.5419921875
1486,-0.8642578125,0.185546875,-0.548828125
1487,-0.861328125,0.1875,-0.541015625
1488,-0.8623046875,0.1884765625,-0.55078125
1489,-0.857421875,0.1923828125,-0.556640625
1490,-0.8603515625,0.1904296875,-0.55859375
1491,-0.8603515625,0.1904296875,-0.560546875
1492,-0.8564453125,0.193359375,-0.5595703125
1493,-0.8525390625,0.1943359375,-0.55859375
1494,-0.8515625,0.1904296875,-0.560546875
1495,-0.8515625,0.1962890625,-0.5625
1496,-0.8505859375,0.1982421875,-0.560546875
1497,-0.8466796875,0.1962890625,-0.560546875
1498,-0.8486328125,0.1962890625,-0.55859375
1499,-0.8466796875,0.1962890625,-0.556640625
1500,-0.8466796875,0.197265625,-0.5556640625
1501,-0.8466796875,0.1943359375,-0.5546875
1502,-0.84765625,0.1923828125,-0.5546875
1503,-0.8505859375,0.185546875,-0.5537109375
1504,-0.845703125,0.1865234375,-0.5546875
1505,-0.8525390625,0.181640625,-0.5576171875
1506,-0.857421875,0.185546875,-0.5595703125
1507,-0.8623046875,0.1865234375,-0.5576171875
1508,-0.8583984375,0.1923828125,-0.5546875
1509,-0.8583984375,0.1884765625,-0.556640625
1510,-0.857421875,0.1953125,-0.5556640625
1511,-0.85546875,0.185546875,-0.548828125
1512,-0.8544921875,0.185546875,-0.546875
1513,-0.85546875,0.1875,-0.541015625
1514,-0.8525390625,0.1826171875,-0.5439453125
1515,-0.8544921875,0.18359375,-0.54296875
1516,-0.853515625,0.1845703125,-0.544921875
1517,-0.8583984375,0.1845703125,-0.548828125
1518,-0.85546875,0.181640625,-0.55078125
1519,-0.8603515625,0.181640625,-0.5556640625
1520,-0.8671875,0.1845703125,-0.5576171875
1521,-0.8701171875,0.1826171875,-0.5654296875
1522,-0.869140625,0.18359375,-0.56640625
1523,-0.87109375,0.185546875,-0.5693359375
1524,-0.8740234375,0.1865234375,-0.5693359375
1525,-0.873046875,0.189453125,-0.5751953125
1526,-0.87890625,0.18359375,-0.5771484375
1527,-0.8779296875,0.1923828125,-0.5791015625
1528,-0.875,0.189453125,-0.576171875
1529,-0.869140625,0.1875,-0.5732421875
1530,-0.873046875,0.189453125,-0.5634765625
1531,-0.8671875,0.18359375,-0.564453125
1532,-0.861328125,0.17578125,-0.560546875
1533,-0.859375,0.169921875,-0.5576171875
1534,-0.8564453125,0.1689453125,-0.5556640625
1535,-0.8525390625,0.171875,-0.552734375
1536,-0.8603515625,0.169921875,-0.5478515625
1537,-0.8544921875,0.171875,-0.5458984375
1538,-0.8525390625,0.1728515625,-0.546875
1539,-0.8525390625,0.16796875,-0.541015625
1540,-0.85546875,0.166015625,-0.544921875
1541,-0.853515625,0.1689453125,-0.5419921875
1542,-0.853515625,0.173828125,-0.5361328125
1543,-0.853515625,0.171875,-0.5400390625
1544,-0.8583984375,0.1728515625,-0.541015625
1545,-0.8564453125,0.1689453125,-0.5439453125
1546,-0.857421875,0.171875,-0.5478515625
1547,-0.8525390625,0.1572265625,-0.5458984375
1548,-0.859375,0.1669921875,-0.548828125
1549,-0.857421875,0.169921875,-0.5498046875
1550,-0.8544921875,0.1728515625,-0.5458984375
1551,-0.849609375,0.1767578125,-0.5478515625
1552,-0.8466796875,0.173828125,-0.5458984375
1553,-0.8447265625,0.1767578125,-0.5400390625
1554,-0.84765625,0.1787109375,-0.5390625
1555,-0.8427734375,0.18359375,-0.5419921875
1556,-0.8525390625,0.1767578125,-0.544921875
1557,-0.8447265625,0.177734375,-0.5419921875
1558,-0.84765625,0.181640625,-0.5439453125
1559,-0.849609375,0.1796875,-0.5439453125
1560,-0.8525390625,0.18359375,-0.5400390625
1561,-0.84765625,0.17578125,-0.5390625
1562,-0.85546875,0.1796875,-0.544921875
1563,-0.85546875,0.177734375,-0.541015625
1564,-0.8544921875,0.173828125,-0.54296875
1565,-0.8583984375,0.1826171875,-0.5478515625
1566,-0.8564453125,0.1787109375,-0.55078125
1567,-0.859375,0.1845703125,-0.544921875
1568,-0.8564453125,0.1845703125,-0.55078125
1569,-0.8544921875,0.1875,-0.552734375
1570,-0.8544921875,0.1845703125,-0.548828125
1571,-0.8525390625,0.1865234375,-0.5498046875
1572,-0.85546875,0.1845703125,-0.546875
1573,-0.8564453125,0.189453125,-0.548828125
1574,-0.8564453125,0.19140625,-0.5478515625
1575,-0.8525390625,0.185546875,-0.54296875
1576,-0.857421875,0.189453125,-0.5458984375
1577,-0.859375,0.181640625,-0.546875
1578,-0.8603515625,0.181640625,-0.5439453125
1579,-0.859375,0.185546875,-0.5458984375
1580,-0.861328125,0.185546875,-0.54296875
1581,-0.8681640625,0.1826171875,-0.541015625
1582,-0.8681640625,0.177734375,-0.5458984375
1583,-0.8642578125,0.18359375,-0.5498046875
1584,-0.8671875,0.18359375,-0.552734375
1585,-0.86328125,0.18359375,-0.5537109375
1586,-0.8701171875,0.1806640625,-0.548828125
1587,-0.8701171875,0.1806640625,-0.5478515625
1588,-0.8671875,0.17578125,-0.5458984375
1589,-0.8662109375,0.1787109375,-0.546875
1590,-0.861328125,0.1748046875,-0.55078125
1591,-0.859375,0.171875,-0.544921875
1592,-0.85546875,0.177734375,-0.546875
1593,-0.85546875,0.1728515625,-0.5498046875
1594,-0.853515625,0.1728515625,-0.546875
1595,-0.853515625,0.1708984375,-0.5458984375
1596,-0.8603515625,0.169921875,-0.5498046875
1597,-0.8603515625,0.1708984375,-0.5458984375
1598,-0.86328125,0.169921875,-0.55078125
1599,-0.8662109375,0.171875,-0.5498046875
1600,-0.8623046875,0.16796875,-0.55078125
1601,-0.8671875,0.16796875,-0.548828125
1602,-0.865234375,0.169921875,-0.5498046875
1603,-0.8662109375,0.16796875,-0.5546875
1604,-0.86328125,0.1669921875,-0.552734375
1605,-0.8623046875,0.166015625,-0.5478515625
1606,-0.8564453125,0.16796875,-0.556640625
1607,-0.8603515625,0.1650390625,-0.55078125
1608,-0.861328125,0.166015625,-0.5537109375
1609,-0.8583984375,0.166015625,-0.5537109375
1610,-0.8603515625,0.1669921875,-0.5478515625
1611,-0.8583984375,0.1669921875,-0.5546875
1612,-0.861328125,0.166015625,-0.55078125
1613,-0.8681640625,0.1640625,-0.5546875
1614,-0.873046875,0.1650390625,-0.5546875
1615,-0.8740234375,0.1630859375,-0.5634765625
1616,-0.8798828125,0.162109375,-0.5634765625
1617,-0.8857421875,0.158203125,-0.5634765625
1618,-0.88671875,0.16015625,-0.5615234375
1619,-0.8828125,0.166015625,-0.55859375
1620,-0.8798828125,0.16015625,-0.5673828125
1621,-0.8759765625,0.1484375,-0.5537109375
1622,-0.87109375,0.1484375,-0.5576171875
1623,-0.8544921875,0.119140625,-0.548828125
1624,-0.8759765625,0.1396484375,-0.55078125
1625,-0.86328125,0.154296875,-0.5439453125
1626,-0.8623046875,0.169921875,-0.541015625
1627,-0.857421875,0.1748046875,-0.533203125
1628,-0.8466796875,0.1767578125,-0.533203125
1629,-0.8447265625,0.1796875,-0.525390625
1630,-0.8447265625,0.1826171875,-0.53125
1631,-0.841796875,0.177734375,-0.5322265625
1632,-0.853515625,0.1845703125,-0.525390625
1633,-0.8427734375,0.1826171875,-0.5302734375
1634,-0.8544921875,0.1826171875,-0.533203125
1635,-0.853515625,0.17578125,-0.5361328125
1636,-0.8564453125,0.173828125,-0.5390625
1637,-0.857421875,0.1728515625,-0.5390625
1638,-0.857421875,0.173828125,-0.5458984375
1639,-0.8583984375,0.1708984375,-0.537109375
1640,-0.8623046875,0.169921875,-0.5390625
1641,-0.861328125,0.1669921875,-0.54296875
1642,-0.8603515625,0.169921875,-0.541015625
1643,-0.8671875,0.166015625,-0.5380859375
1644,-0.859375,0.1689453125,-0.533203125
1645,-0.8564453125,0.1689453125,-0.5322265625
1646,-0.8583984375,0.16796875,-0.53515625
1647,-0.85546875,0.1728515625,-0.53515625
1648,-0.849609375,0.1787109375,-0.533203125
1649,-0.8544921875,0.17578125,-0.5322265625
1650,-0.853515625,0.1796875,-0.53515625
1651,-0.8544921875,0.1826171875,-0.53515625
1652,-0.853515625,0.1728515625,-0.5390625
1653,-0.8486328125,0.1767578125,-0.5380859375
1654,-0.857421875,0.173828125,-0.537109375
1655,-0.8603515625,0.1708984375,-0.5322265625
1656,-0.8603515625,0.1689453125,-0.5361328125
1657,-0.861328125,0.171875,-0.5390625
1658,-0.8623046875,0.169921875,-0.5380859375
1659,-0.8681640625,0.166015625,-0.5419921875
1660,-0.8662109375,0.166015625,-0.5439453125
1661,-0.865234375,0.166015625,-0.5419921875
1662,-0.859375,0.1669921875,-0.5439453125
1663,-0.865234375,0.166015625,-0.5419921875
1664,-0.86328125,0.169921875,-0.5439453125
1665,-0.8583984375,0.171875,-0.5439453125
1666,-0.8642578125,0.166015625,-0.541015625
1667,-0.869140625,0.169921875,-0.5439453125
1668,-0.8623046875,0.1669921875,-0.54296875
1669,-0.8662109375,0.1669921875,-0.54296875
1670,-0.861328125,0.16796875,-0.54296875
1671,-0.8603515625,0.166015625,-0.5400390625
1672,-0.8623046875,0.1689453125,-0.5478515625
1673,-0.86328125,0.1640625,-0.5419921875
1674,-0.861328125,0.1640625,-0.5419921875
1675,-0.86328125,0.1630859375,-0.541015625
1676,-0.8642578125,0.166015625,-0.54296875
1677,-0.8642578125,0.1572265625,-0.53515625
1678,-0.8701171875,0.162109375,-0.54296875
1679,-0.865234375,0.1630859375,-0.5439453125
1680,-0.8642578125,0.1640625,-0.5400390625
1681,-0.865234375,0.166015625,-0.5400390625
1682,-0.865234375,0.1689453125,-0.5390625
1683,-0.8662109375,0.1689453125,-0.541015625
1684,-0.8623046875,0.1689453125,-0.541015625
1685,-0.86328125,0.1669921875,-0.5361328125
1686,-0.861328125,0.171875,-0.541015625
1687,-0.861328125,0.1748046875,-0.537109375
1688,-0.8642578125,0.1708984375,-0.5390625
1689,-0.859375,0.16796875,-0.5439453125
1690,-0.86328125,0.1748046875,-0.5419921875
1691,-0.8701171875,0.1669921875,-0.541015625
1692,-0.869140625,0.169921875,-0.5419921875
1693,-0.8642578125,0.1748046875,-0.5400390625
1694,-0.8662109375,0.169921875,-0.5419921875
1695,-0.8671875,0.169921875,-0.5419921875
1696,-0.8623046875,0.1708984375,-0.54296875
1697,-0.865234375,0.169921875,-0.54296875
1698,-0.859375,0.16796875,-0.544921875
1699,-0.8583984375,0.166015625,-0.5400390625
1700,-0.859375,0.16796875,-0.5390625
1701,-0.853515625,0.166015625,-0.53515625
1702,-0.857421875,0.1630859375,-0.5400390625
1703,-0.857421875,0.1630859375,-0.53515625
1704,-0.861328125,0.16796875,-0.533203125
1705,-0.8583984375,0.16015625,-0.53125
1706,-0.86328125,0.158203125,-0.533203125
1707,-0.8642578125,0.162109375,-0.5390625
1708,-0.8603515625,0.1640625,-0.5380859375
1709,-0.8603515625,0.1669921875,-0.5380859375
1710,-0.859375,0.1650390625,-0.5400390625
1711,-0.859375,0.1640625,-0.5419921875
1712,-0.8603515625,0.1591796875,-0.54296875
1713,-0.8603515625,0.1669921875,-0.5439453125
1714,-0.8564453125,0.16796875,-0.541015625
1715,-0.8603515625,0.1767578125,-0.5419921875
1716,-0.8603515625,0.1669921875,-0.5400390625
1717,-0.859375,0.171875,-0.54296875
1718,-0.861328125,0.171875,-0.5439453125
1719,-0.8603515625,0.1728515625,-0.5439453125
1720,-0.861328125,0.1728515625,-0.544921875
1721,-0.8583984375,0.1689453125,-0.54296875
1722,-0.8603515625,0.1708984375,-0.548828125
1723,-0.865234375,0.1669921875,-0.5439453125
1724,-0.8662109375,0.16796875,-0.544921875
1725,-0.8642578125,0.1689453125,-0.5439453125
1726,-0.86328125,0.171875,-0.5419921875
1727,-0.8642578125,0.1640625,-0.5419921875
1728,-0.8583984375,0.1748046875,-0.5458984375
1729,-0.8583984375,0.1708984375,-0.5419921875
1730,-0.865234375,0.171875,-0.5390625
1731,-0.86328125,0.1748046875,-0.5439453125
1732,-0.8642578125,0.171875,-0.54296875
1733,-0.8671875,0.171875,-0.5439453125
1734,-0.8603515625,0.162109375,-0.54296875
1735,-0.8642578125,0.1513671875,-0.5478515625
1736,-0.875,0.166015625,-0.544921875
1737,-0.87109375,0.1787109375,-0.5478515625
1738,-0.8603515625,0.181640625,-0.548828125
1739,-0.8662109375,0.1806640625,-0.5458984375
1740,-0.8671875,0.18359375,-0.546875
1741,-0.8701171875,0.1796875,-0.54296875
1742,-0.8701171875,0.1728515625,-0.544921875
1743,-0.86328125,0.1689453125,-0.5517578125
1744,-0.869140625,0.16796875,-0.544921875
1745,-0.8671875,0.16796875,-0.5439453125
1746,-0.865234375,0.1669921875,-0.546875
1747,-0.8642578125,0.166015625,-0.5439453125
1748,-0.8701171875,0.169921875,-0.546875
1749,-0.8603515625,0.169921875,-0.5439453125
1750,-0.861328125,0.1689453125,-0.5498046875
1751,-0.865234375,0.169921875,-0.5439453125
1752,-0.8642578125,0.173828125,-0.54296875
1753,-0.861328125,0.171875,-0.5498046875
1754,-0.8642578125,0.1748046875,-0.55078125
1755,-0.8642578125,0.171875,-0.5439453125
1756,-0.8603515625,0.1474609375,-0.544921875
1757,-0.8681640625,0.15625,-0.53125
1758,-0.8740234375,0.1611328125,-0.5439453125
1759,-0.869140625,0.1796875,-0.5400390625
1760,-0.857421875,0.1875,-0.5478515625
1761,-0.853515625,0.18359375,-0.5419921875
1762,-0.859375,0.17578125,-0.5400390625
1763,-0.8515625,0.177734375,-0.544921875
1764,-0.8544921875,0.173828125,-0.5390625
1765,-0.857421875,0.16796875,-0.5380859375
1766,-0.85546875,0.1689453125,-0.537109375
1767,-0.859375,0.1748046875,-0.5390625
1768,-0.86328125,0.1708984375,-0.537109375
1769,-0.8603515625,0.173828125,-0.53515625
1770,-0.8623046875,0.173828125,-0.53515625
1771,-0.859375,0.166015625,-0.5322265625
1772,-0.869140625,0.16796875,-0.5341796875
1773,-0.87109375,0.16796875,-0.5322265625
1774,-0.87109375,0.1669921875,-0.5341796875
1775,-0.873046875,0.1689453125,-0.533203125
1776,-0.869140625,0.16796875,-0.5244140625
1777,-0.8681640625,0.171875,-0.5322265625
1778,-0.8681640625,0.16796875,-0.529296875
1779,-0.8642578125,0.1669921875,-0.5302734375
1780,-0.86328125,0.1708984375,-0.53125
1781,-0.8671875,0.1669921875,-0.533203125
1782,-0.869140625,0.1689453125,-0.53125
1783,-0.8671875,0.1708984375,-0.53125
1784,-0.8642578125,0.169921875,-0.53125
1785,-0.8662109375,0.16796875,-0.53125
1786,-0.8662109375,0.166015625,-0.5302734375
1787,-0.865234375,0.169921875,-0.53515625
1788,-0.861328125,0.1708984375,-0.53125
1789,-0.8603515625,0.171875,-0.53125
1790,-0.8623046875,0.1689453125,-0.5341796875
1791,-0.861328125,0.1689453125,-0.53125
1792,-0.8603515625,0.16796875,-0.5322265625
1793,-0.8583984375,0.1669921875,-0.533203125
1794,-0.8603515625,0.169921875,-0.53125
1795,-0.861328125,0.1748046875,-0.5341796875
1796,-0.8603515625,0.1748046875,-0.5341796875
1797,-0.861328125,0.171875,-0.5390625
1798,-0.86328125,0.173828125,-0.5361328125
1799,-0.86328125,0.1728515625,-0.54296875
1800,-0.865234375,0.1728515625,-0.5419921875
1801,-0.865234375,0.1689453125,-0.54296875
1802,-0.8642578125,0.169921875,-0.5458984375
1803,-0.8623046875,0.171875,-0.54296875
1804,-0.8623046875,0.1708984375,-0.5458984375
1805,-0.861328125,0.169921875,-0.54296875
1806,-0.8564453125,0.1669921875,-0.544921875
1807,-0.859375,0.1689453125,-0.541015625
1808,-0.8583984375,0.1630859375,-0.54296875
1809,-0.8603515625,0.16796875,-0.541015625
1810,-0.85546875,0.1669921875,-0.5419921875
1811,-0.859375,0.1689453125,-0.54296875
1812,-0.865234375,0.16796875,-0.541015625
1813,-0.8603515625,0.1650390625,-0.5439453125
1814,-0.861328125,0.1689453125,-0.544921875
1815,-0.8623046875,0.1689453125,-0.54296875
1816,-0.8662109375,0.1708984375,-0.5458984375
1817,-0.8681640625,0.1689453125,-0.546875
1818,-0.87109375,0.16796875,-0.552734375
1819,-0.8671875,0.1689453125,-0.5478515625
1820,-0.8603515625,0.1708984375,-0.5458984375
1821,-0.8642578125,0.1708984375,-0.546875
1822,-0.869140625,0.1689453125,-0.5498046875
1823,-0.86328125,0.171875,-0.5458984375
1824,-0.861328125,0.16796875,-0.5439453125
1825,-0.8671875,0.1689453125,-0.54296875
1826,-0.8642578125,0.1689453125,-0.5439453125
1827,-0.8623046875,0.171875,-0.5439453125
1828,-0.865234375,0.1669921875,-0.54296875
1829,-0.865234375,0.1650390625,-0.5419921875
1830,-0.8681640625,0.169921875,-0.54296875
1831,-0.8583984375,0.173828125,-0.5419921875
1832,-0.861328125,0.171875,-0.5439453125
1833,-0.8583984375,0.169921875,-0.541015625
1834,-0.859375,0.171875,-0.5419921875
1835,-0.8642578125,0.169921875,-0.541015625
1836,-0.861328125,0.1748046875,-0.54296875
1837,-0.8564453125,0.177734375,-0.5439453125
1838,-0.865234375,0.16796875,-0.5419921875
1839,-0.859375,0.1708984375,-0.5390625
1840,-0.8583984375,0.171875,-0.5419921875
1841,-0.859375,0.17578125,-0.5390625
1842,-0.8623046875,0.173828125,-0.5361328125
1843,-0.859375,0.173828125,-0.5390625
1844,-0.86328125,0.1796875,-0.5419921875
1845,-0.861328125,0.1767578125,-0.54296875
1846,-0.8623046875,0.1767578125,-0.5478515625
1847,-0.8642578125,0.17578125,-0.54296875
1848,-0.859375,0.173828125,-0.541015625
1849,-0.861328125,0.171875,-0.54296875
1850,-0.859375,0.1728515625,-0.5400390625
1851,-0.8662109375,0.1669921875,-0.5419921875
1852,-0.8623046875,0.1689453125,-0.537109375
1853,-0.861328125,0.169921875,-0.5361328125
1854,-0.8623046875,0.171875,-0.5419921875
1855,-0.857421875,0.1689453125,-0.53515625
1856,-0.8603515625,0.1689453125,-0.533203125
1857,-0.86328125,0.1689453125,-0.5400390625
1858,-0.8564453125,0.16796875,-0.5390625
1859,-0.85546875,0.171875,-0.537109375
1860,-0.8603515625,0.1767578125,-0.5380859375
1861,-0.859375,0.1748046875,-0.5439453125
1862,-0.859375,0.1708984375,-0.541015625
1863,-0.8662109375,0.17578125,-0.5400390625
1864,-0.865234375,0.171875,-0.5419921875
1865,-0.86328125,0.1748046875,-0.5419921875
1866,-0.8681640625,0.1748046875,-0.541015625
1867,-0.8642578125,0.16796875,-0.544921875
1868,-0.86328125,0.16796875,-0.5439453125
1869,-0.86328125,0.1728515625,-0.54296875
1870,-0.8671875,0.169921875,-0.5419921875
1871,-0.8623046875,0.1728515625,-0.5419921875
1872,-0.86328125,0.1728515625,-0.54296875
1873,-0.861328125,0.1708984375,-0.5400390625
1874,-0.8662109375,0.1708984375,-0.5400390625
1875,-0.865234375,0.1708984375,-0.544921875
1876,-0.8671875,0.1748046875,-0.5419921875
1877,-0.86328125,0.1748046875,-0.544921875
1878,-0.861328125,0.1728515625,-0.5439453125
1879,-0.859375,0.171875,-0.5458984375
1880,-0.8642578125,0.17578125,-0.5517578125
1881,-0.86328125,0.1708984375,-0.55078125
1882,-0.8662109375,0.17578125,-0.5419921875
1883,-0.861328125,0.1708984375,-0.54296875
1884,-0.865234375,0.1767578125,-0.5419921875
1885,-0.861328125,0.1708984375,-0.5439453125
1886,-0.8603515625,0.1767578125,-0.541015625
1887,-0.8583984375,0.173828125,-0.5419921875
1888,-0.86328125,0.171875,-0.5390625
1889,-0.859375,0.171875,-0.5419921875
1890,-0.8603515625,0.1708984375,-0.54296875
1891,-0.859375,0.17578125,-0.5419921875
1892,-0.8564453125,0.1669921875,-0.5478515625
1893,-0.85546875,0.171875,-0.541015625
1894,-0.8564453125,0.171875,-0.5458984375
1895,-0.8603515625,0.1708984375,-0.5419921875
1896,-0.861328125,0.1708984375,-0.5458984375
1897,-0.861328125,0.1728515625,-0.544921875
1898,-0.8603515625,0.1708984375,-0.541015625
1899,-0.861328125,0.171875,-0.544921875
1900,-0.8623046875,0.17578125,-0.5419921875
1901,-0.861328125,0.1748046875,-0.5390625
1902,-0.861328125,0.171875,-0.5439453125
1903,-0.859375,0.1689453125,-0.5419921875
1904,-0.8583984375,0.1748046875,-0.541015625
1905,-0.8583984375,0.1708984375,-0.541015625
1906,-0.8583984375,0.173828125,-0.541015625
1907,-0.8623046875,0.17578125,-0.544921875
1908,-0.865234375,0.1708984375,-0.5419921875
1909,-0.8603515625,0.1728515625,-0.5419921875
1910,-0.8623046875,0.1708984375,-0.544921875
1911,-0.8623046875,0.1767578125,-0.5439453125
1912,-0.8603515625,0.1787109375,-0.5419921875
1913,-0.861328125,0.1748046875,-0.5458984375
1914,-0.8623046875,0.173828125,-0.5419921875
1915,-0.8583984375,0.1748046875,-0.541015625
1916,-0.859375,0.1728515625,-0.5419921875
1917,-0.8564453125,0.173828125,-0.5380859375
1918,-0.8583984375,0.1748046875,-0.5390625
1919,-0.857421875,0.169921875,-0.5380859375
1920,-0.859375,0.173828125,-0.5419921875
1921,-0.8603515625,0.169921875,-0.5400390625
1922,-0.8642578125,0.1708984375,-0.5361328125
1923,-0.861328125,0.166015625,-0.5361328125
1924,-0.85546875,0.1689453125,-0.5322265625
1925,-0.8603515625,0.1748046875,-0.5390625
1926,-0.859375,0.1728515625,-0.537109375
1927,-0.8603515625,0.169921875,-0.5419921875
1928,-0.8623046875,0.171875,-0.541015625
1929,-0.859375,0.1767578125,-0.5390625
1930,-0.857421875,0.173828125,-0.541015625
1931,-0.86328125,0.1748046875,-0.5439453125
1932,-0.8583984375,0.1728515625,-0.5439453125
1933,-0.8564453125,0.1748046875,-0.544921875
1934,-0.8623046875,0.1708984375,-0.548828125
1935,-0.859375,0.17578125,-0.5498046875
1936,-0.8603515625,0.1748046875,-0.548828125
1937,-0.8603515625,0.177734375,-0.544921875
1938,-0.8623046875,0.171875,-0.548828125
1939,-0.859375,0.1728515625,-0.5478515625
1940,-0.86328125,0.1728515625,-0.546875
1941,-0.861328125,0.173828125,-0.55078125
1942,-0.859375,0.177734375,-0.546875
1943,-0.8623046875,0.1787109375,-0.5439453125
1944,-0.8583984375,0.1748046875,-0.55078125
1945,-0.8583984375,0.177734375,-0.5498046875
1946,-0.861328125,0.17578125,-0.5556640625
1947,-0.86328125,0.1787109375,-0.5517578125
1948,-0.86328125,0.1787109375,-0.5546875
1949,-0.859375,0.1728515625,-0.556640625
1950,-0.8603515625,0.1767578125,-0.546875
1951,-0.8564453125,0.173828125,-0.5478515625
1952,-0.8564453125,0.1787109375,-0.548828125
1953,-0.857421875,0.1689453125,-0.546875
1954,-0.853515625,0.173828125,-0.5439453125
1955,-0.853515625,0.1748046875,-0.5517578125
1956,-0.8544921875,0.177734375,-0.5458984375
1957,-0.8583984375,0.1748046875,-0.544921875
1958,-0.8544921875,0.17578125,-0.54296875
1959,-0.8564453125,0.16796875,-0.544921875
1960,-0.857421875,0.1767578125,-0.544921875
1961,-0.857421875,0.17578125,-0.541015625
1962,-0.859375,0.1796875,-0.5439453125
1963,-0.857421875,0.1767578125,-0.5478515625
1964,-0.853515625,0.173828125,-0.544921875
1965,-0.8525390625,0.1748046875,-0.5439453125
1966,-0.857421875,0.1796875,-0.548828125
1967,-0.8505859375,0.1689453125,-0.5498046875
1968,-0.8544921875,0.1708984375,-0.546875
1969,-0.8544921875,0.171875,-0.5458984375
1970,-0.853515625,0.1708984375,-0.548828125
1971,-0.8505859375,0.171875,-0.548828125
1972,-0.849609375,0.177734375,-0.5478515625
1973,-0.853515625,0.1728515625,-0.5546875
1974,-0.857421875,0.173828125,-0.5556640625
1975,-0.8603515625,0.173828125,-0.5537109375
1976,-0.857421875,0.17578125,-0.5546875
1977,-0.8583984375,0.181640625,-0.5556640625
1978,-0.85546875,0.1796875,-0.556640625
1979,-0.857421875,0.1796875,-0.560546875
1980,-0.853515625,0.1826171875,-0.5625
1981,-0.8564453125,0.18359375,-0.564453125
1982,-0.8564453125,0.1796875,-0.5625
1983,-0.85546875,0.1767578125,-0.5576171875
1984,-0.8544921875,0.177734375,-0.556640625
1985,-0.85546875,0.181640625,-0.556640625
1986,-0.85546875,0.1787109375,-0.5546875
1987,-0.85546875,0.1787109375,-0.5537109375
1988,-0.8740234375,0.1787109375,-0.5390625
1989,-0.8759765625,0.111328125,-0.5419921875
1990,-0.8544921875,0.166015625,-0.55078125
1991,-0.8505859375,0.181640625,-0.568359375
1992,-0.841796875,0.1806640625,-0.55859375
1993,-0.84765625,0.1787109375,-0.552734375
1994,-0.845703125,0.1845703125,-0.5546875
1995,-0.83984375,0.1884765625,-0.5595703125
1996,-0.8427734375,0.1796875,-0.5517578125
1997,-0.841796875,0.17578125,-0.544921875
1998,-0.8447265625,0.181640625,-0.5478515625
1999,-0.849609375,0.18359375,-0.552734375
2000,-0.849609375,0.17578125,-0.5478515625
2001,-0.849609375,0.17578125,-0.541015625
2002,-0.8505859375,0.1845703125,-0.5576171875
2003,-0.8388671875,0.1708984375,-0.55859375
2004,-0.8515625,0.1787109375,-0.5556640625
2005,-0.859375,0.16796875,-0.5576171875
2006,-0.8642578125,0.1689453125,-0.5556640625
2007,-0.857421875,0.1728515625,-0.5625
2008,-0.853515625,0.181640625,-0.5673828125
2009,-0.8505859375,0.181640625,-0.5634765625
2010,-0.8486328125,0.18359375,-0.5634765625
2011,-0.84765625,0.1884765625,-0.56640625
2012,-0.8505859375,0.1865234375,-0.560546875
2013,-0.8486328125,0.185546875,-0.56640625
2014,-0.8544921875,0.1845703125,-0.5615234375
2015,-0.8515625,0.1884765625,-0.560546875
2016,-0.8505859375,0.1826171875,-0.5625
2017,-0.8544921875,0.185546875,-0.5546875
2018,-0.857421875,0.1875,-0.5576171875
2019,-0.85546875,0.1845703125,-0.552734375
2020,-0.8525390625,0.1845703125,-0.55859375
2021,-0.8486328125,0.185546875,-0.55859375
2022,-0.8515625,0.1806640625,-0.55078125
2023,-0.8642578125,0.166015625,-0.5283203125
2024,-0.8525390625,0.1728515625,-0.5595703125
2025,-0.845703125,0.185546875,-0.5634765625
2026,-0.84765625,0.1875,-0.5615234375
2027,-0.8515625,0.1826171875,-0.56640625
2028,-0.845703125,0.1884765625,-0.5654296875
2029,-0.84375,0.1904296875,-0.564453125
2030,-0.83984375,0.2001953125,-0.56640625
2031,-0.8359375,0.201171875,-0.5693359375
2032,-0.8359375,0.1982421875,-0.568359375
2033,-0.84375,0.19921875,-0.55859375
2034,-0.83984375,0.19140625,-0.5595703125
2035,-0.841796875,0.1962890625,-0.56640625
2036,-0.84375,0.1884765625,-0.560546875
2037,-0.8427734375,0.193359375,-0.564453125
2038,-0.84765625,0.1884765625,-0.568359375
2039,-0.849609375,0.1875,-0.568359375
2040,-0.8466796875,0.189453125,-0.5673828125
2041,-0.8466796875,0.185546875,-0.5634765625
2042,-0.849609375,0.18359375,-0.572265625
2043,-0.8486328125,0.181640625,-0.568359375
2044,-0.8466796875,0.1875,-0.56640625
2045,-0.8447265625,0.18359375,-0.5693359375
2046,-0.8447265625,0.1904296875,-0.56640625
2047,-0.841796875,0.19140625,-0.568359375
2048,-0.84375,0.1875,-0.5673828125
2049,-0.8408203125,0.1884765625,-0.56640625
2050,-0.8486328125,0.1943359375,-0.5595703125
2051,-0.845703125,0.197265625,-0.5703125
2052,-0.84765625,0.193359375,-0.5595703125
2053,-0.853515625,0.177734375,-0.560546875
2054,-0.8408203125,0.189453125,-0.572265625
2055,-0.837890625,0.1904296875,-0.5732421875
2056,-0.841796875,0.1923828125,-0.56640625
2057,-0.8427734375,0.1904296875,-0.56640625
2058,-0.841796875,0.1904296875,-0.564453125
2059,-0.841796875,0.185546875,-0.568359375
2060,-0.841796875,0.18359375,-0.5576171875
2061,-0.841796875,0.185546875,-0.568359375
2062,-0.8447265625,0.1826171875,-0.568359375
2063,-0.84765625,0.1884765625,-0.56640625
2064,-0.8447265625,0.1865234375,-0.5703125
2065,-0.84375,0.189453125,-0.5712890625
2066,-0.845703125,0.185546875,-0.572265625
2067,-0.8486328125,0.1884765625,-0.5732421875
2068,-0.84765625,0.1845703125,-0.5703125
2069,-0.8466796875,0.19140625,-0.5712890625
2070,-0.8466796875,0.189453125,-0.572265625
2071,-0.8466796875,0.185546875,-0.572265625
2072,-0.849609375,0.185546875,-0.5693359375
2073,-0.84765625,0.19140625,-0.5751953125
2074,-0.85546875,0.1845703125,-0.556640625
2075,-0.84765625,0.1845703125,-0.5703125
2076,-0.8427734375,0.1845703125,-0.5859375
2077,-0.837890625,0.1845703125,-0.578125
2078,-0.845703125,0.189453125,-0.580078125
2079,-0.8408203125,0.189453125,-0.578125
2080,-0.8408203125,0.19140625,-0.58203125
2081,-0.837890625,0.197265625,-0.587890625
2082,-0.8359375,0.1923828125,-0.5849609375
2083,-0.830078125,0.197265625,-0.578125
2084,-0.8388671875,0.1982421875,-0.576171875
2085,-0.8427734375,0.193359375,-0.578125
2086,-0.8408203125,0.1943359375,-0.576171875
2087,-0.84375,0.189453125,-0.5751953125
2088,-0.841796875,0.1884765625,-0.57421875
2089,-0.845703125,0.1923828125,-0.5791015625
2090,-0.841796875,0.1875,-0.5771484375
2091,-0.845703125,0.1865234375,-0.5732421875
2092,-0.841796875,0.1865234375,-0.5751953125
2093,-0.8427734375,0.189453125,-0.5771484375
2094,-0.8388671875,0.189453125,-0.576171875
2095,-0.84375,0.1923828125,-0.5771484375
2096,-0.8447265625,0.193359375,-0.5751953125
2097,-0.83984375,0.1875,-0.5732421875
2098,-0.83984375,0.1904296875,-0.572265625
2099,-0.8408203125,0.189453125,-0.568359375
2100,-0.8408203125,0.189453125,-0.568359375
2101,-0.83984375,0.1923828125,-0.5712890625
2102,-0.8388671875,0.1884765625,-0.572265625
2103,-0.83984375,0.1884765625,-0.5712890625
2104,-0.841796875,0.1875,-0.5693359375
2105,-0.841796875,0.185546875,-0.5693359375
2106,-0.841796875,0.185546875,-0.5673828125
2107,-0.841796875,0.1884765625,-0.57421875
2108,-0.8408203125,0.19140625,-0.576171875
2109,-0.83984375,0.1923828125,-0.5693359375
2110,-0.8408203125,0.193359375,-0.57421875
2111,-0.8359375,0.1884765625,-0.5751953125
2112,-0.8408203125,0.193359375,-0.5830078125
2113,-0.8427734375,0.193359375,-0.5693359375
2114,-0.845703125,0.1943359375,-0.5751953125
2115,-0.8427734375,0.19140625,-0.5751953125
2116,-0.84375,0.1923828125,-0.5712890625
2117,-0.8447265625,0.1904296875,-0.5751953125
2118,-0.845703125,0.1943359375,-0.5791015625
2119,-0.84375,0.19140625,-0.5751953125
2120,-0.849609375,0.193359375,-0.5732421875
2121,-0.8447265625,0.1962890625,-0.57421875
2122,-0.84375,0.1982421875,-0.5771484375
2123,-0.8447265625,0.1962890625,-0.5703125
2124,-0.8427734375,0.1982421875,-0.5732421875
2125,-0.8427734375,0.1884765625,-0.5703125
2126,-0.841796875,0.19921875,-0.5703125
2127,-0.84375,0.1904296875,-0.5615234375
2128,-0.8408203125,0.1875,-0.568359375
2129,-0.8447265625,0.193359375,-0.56640625
2130,-0.8427734375,0.1865234375,-0.5654296875
2131,-0.845703125,0.1845703125,-0.568359375
2132,-0.845703125,0.1865234375,-0.5654296875
2133,-0.8427734375,0.181640625,-0.5625
2134,-0.84375,0.181640625,-0.568359375
2135,-0.841796875,0.1865234375,-0.5634765625
2136,-0.841796875,0.18359375,-0.564453125
2137,-0.8388671875,0.1865234375,-0.5615234375
2138,-0.8427734375,0.1826171875,-0.568359375
2139,-0.8427734375,0.1845703125,-0.5625
2140,-0.8447265625,0.18359375,-0.5703125
2141,-0.84375,0.1826171875,-0.568359375
2142,-0.8466796875,0.1845703125,-0.568359375
2143,-0.84375,0.1826171875,-0.572265625
2144,-0.8486328125,0.193359375,-0.572265625
2145,-0.84765625,0.1884765625,-0.57421875
2146,-0.84375,0.1923828125,-0.5712890625
2147,-0.8486328125,0.193359375,-0.5712890625
2148,-0.8505859375,0.19140625,-0.5712890625
2149,-0.8505859375,0.1904296875,-0.5693359375
2150,-0.8466796875,0.1904296875,-0.5703125
2151,-0.84765625,0.1904296875,-0.5732421875
2152,-0.8525390625,0.1884765625,-0.56640625
2153,-0.845703125,0.1953125,-0.5693359375
2154,-0.84765625,0.1845703125,-0.5703125
2155,-0.8447265625,0.1875,-0.5732421875
2156,-0.8525390625,0.185546875,-0.5693359375
2157,-0.849609375,0.1845703125,-0.5673828125
2158,-0.8447265625,0.1845703125,-0.5703125
2159,-0.845703125,0.185546875,-0.5712890625
2160,-0.84765625,0.18359375,-0.568359375
2161,-0.8427734375,0.185546875,-0.5673828125
2162,-0.8466796875,0.1826171875,-0.5712890625
2163,-0.8466796875,0.1875,-0.5654296875
2164,-0.8447265625,0.1875,-0.5693359375
2165,-0.845703125,0.1845703125,-0.5673828125
2166,-0.8447265625,0.189453125,-0.5576171875
2167,-0.845703125,0.1845703125,-0.5703125
2168,-0.84375,0.1884765625,-0.564453125
2169,-0.841796875,0.185546875,-0.5693359375
2170,-0.8466796875,0.1826171875,-0.5654296875
2171,-0.841796875,0.18359375,-0.5625
2172,-0.84375,0.1826171875,-0.55859375
2173,-0.8447265625,0.1826171875,-0.5615234375
2174,-0.841796875,0.1845703125,-0.56640625
2175,-0.841796875,0.18359375,-0.5625
2176,-0.8447265625,0.181640625,-0.5615234375
2177,-0.84375,0.185546875,-0.5615234375
2178,-0.8427734375,0.1845703125,-0.5654296875
2179,-0.8447265625,0.1787109375,-0.5615234375
2180,-0.8486328125,0.1796875,-0.56640625
2181,-0.845703125,0.173828125,-0.5595703125
2182,-0.8525390625,0.18359375,-0.56640625
2183,-0.8505859375,0.17578125,-0.5693359375
2184,-0.8515625,0.1787109375,-0.5625
2185,-0.8466796875,0.1767578125,-0.564453125
2186,-0.8505859375,0.173828125,-0.568359375
2187,-0.845703125,0.1826171875,-0.5634765625
2188,-0.8466796875,0.1796875,-0.564453125
2189,-0.8427734375,0.177734375,-0.55859375
2190,-0.845703125,0.1826171875,-0.56640625
2191,-0.849609375,0.1875,-0.5615234375
2192,-0.8486328125,0.1826171875,-0.5634765625
2193,-0.84765625,0.18359375,-0.5595703125
2194,-0.8466796875,0.18359375,-0.56640625
2195,-0.845703125,0.1806640625,-0.5615234375
2196,-0.8505859375,0.1796875,-0.5595703125
2197,-0.8525390625,0.1826171875,-0.5595703125
2198,-0.8505859375,0.1806640625,-0.560546875
2199,-0.85546875,0.1748046875,-0.5576171875
2200,-0.8525390625,0.1767578125,-0.560546875
2201,-0.8486328125,0.1728515625,-0.55859375
2202,-0.8515625,0.1806640625,-0.560546875
2203,-0.8466796875,0.1796875,-0.5546875
2204,-0.853515625,0.177734375,-0.5576171875
2205,-0.84765625,0.1767578125,-0.55859375
2206,-0.849609375,0.17578125,-0.55859375
2207,-0.845703125,0.1767578125,-0.5595703125
2208,-0.8505859375,0.177734375,-0.5693359375
2209,-0.8505859375,0.173828125,-0.560546875
2210,-0.8505859375,0.1748046875,-0.5595703125
2211,-0.849609375,0.177734375,-0.5546875
2212,-0.85546875,0.173828125,-0.5625
2213,-0.853515625,0.17578125,-0.564453125
2214,-0.8525390625,0.173828125,-0.560546875
2215,-0.8525390625,0.181640625,-0.564453125
2216,-0.8505859375,0.17578125,-0.560546875
2217,-0.849609375,0.17578125,-0.55859375
2218,-0.8486328125,0.1806640625,-0.5576171875
2219,-0.8505859375,0.1787109375,-0.55859375
2220,-0.8486328125,0.1796875,-0.560546875
2221,-0.849609375,0.171875,-0.5595703125
2222,-0.84765625,0.1787109375,-0.560546875
2223,-0.8515625,0.177734375,-0.556640625
2224,-0.8515625,0.177734375,-0.55859375
2225,-0.8515625,0.177734375,-0.560546875
2226,-0.8525390625,0.1787109375,-0.5576171875
2227,-0.8515625,0.17578125,-0.55859375
2228,-0.8544921875,0.1767578125,-0.5576171875
2229,-0.8486328125,0.1796875,-0.5595703125
2230,-0.8466796875,0.1728515625,-0.55859375
2231,-0.8525390625,0.173828125,-0.55859375
2232,-0.8505859375,0.1767578125,-0.560546875
2233,-0.8515625,0.17578125,-0.560546875
2234,-0.8515625,0.1728515625,-0.5595703125
2235,-0.8544921875,0.173828125,-0.55859375
2236,-0.8525390625,0.1669921875,-0.5556640625
2237,-0.853515625,0.169921875,-0.55859375
2238,-0.8525390625,0.171875,-0.5546875
2239,-0.8505859375,0.1767578125,-0.5556640625
2240,-0.8515625,0.171875,-0.5654296875
2241,-0.8564453125,0.173828125,-0.55859375
2242,-0.8515625,0.1689453125,-0.560546875
2243,-0.853515625,0.1708984375,-0.560546875
2244,-0.8564453125,0.1767578125,-0.556640625
2245,-0.8505859375,0.177734375,-0.5615234375
2246,-0.859375,0.1748046875,-0.5595703125
2247,-0.8564453125,0.173828125,-0.5537109375
2248,-0.8486328125,0.171875,-0.556640625
2249,-0.859375,0.173828125,-0.5576171875
2250,-0.8505859375,0.1767578125,-0.556640625
2251,-0.853515625,0.17578125,-0.55078125
2252,-0.8564453125,0.1728515625,-0.5517578125
2253,-0.8564453125,0.17578125,-0.556640625
2254,-0.857421875,0.1748046875,-0.552734375
2255,-0.8544921875,0.1728515625,-0.5546875
2256,-0.85546875,0.171875,-0.5517578125
2257,-0.853515625,0.171875,-0.5576171875
2258,-0.8544921875,0.177734375,-0.552734375
2259,-0.853515625,0.1708984375,-0.556640625
2260,-0.8505859375,0.1787109375,-0.5556640625
2261,-0.8505859375,0.171875,-0.556640625
2262,-0.853515625,0.1708984375,-0.552734375
2263,-0.8505859375,0.173828125,-0.552734375
2264,-0.853515625,0.16796875,-0.552734375
2265,-0.8505859375,0.169921875,-0.548828125
2266,-0.8544921875,0.1708984375,-0.5556640625
2267,-0.853515625,0.1708984375,-0.55078125
2268,-0.853515625,0.1748046875,-0.5556640625
2269,-0.8564453125,0.1728515625,-0.5576171875
2270,-0.8583984375,0.169921875,-0.556640625
2271,-0.8505859375,0.169921875,-0.5576171875
2272,-0.8544921875,0.169921875,-0.5537109375
2273,-0.8544921875,0.171875,-0.556640625
2274,-0.85546875,0.1708984375,-0.552734375
2275,-0.8525390625,0.17578125,-0.556640625
2276,-0.8544921875,0.16796875,-0.5546875
2277,-0.8544921875,0.169921875,-0.552734375
2278,-0.857421875,0.1689453125,-0.5537109375
2279,-0.8515625,0.173828125,-0.556640625
2280,-0.853515625,0.1689453125,-0.5517578125
2281,-0.8525390625,0.1728515625,-0.5556640625
2282,-0.853515625,0.1728515625,-0.5537109375
2283,-0.8515625,0.1708984375,-0.5576171875
2284,-0.8544921875,0.171875,-0.5546875
2285,-0.85546875,0.1708984375,-0.55859375
2286,-0.859375,0.1689453125,-0.552734375
2287,-0.8544921875,0.169921875,-0.5556640625
2288,-0.853515625,0.173828125,-0.5576171875
2289,-0.853515625,0.171875,-0.5576171875
2290,-0.8564453125,0.1728515625,-0.5546875
2291,-0.853515625,0.1689453125,-0.5556640625
2292,-0.8544921875,0.1689453125,-0.5546875
2293,-0.8525390625,0.1689453125,-0.5517578125
2294,-0.8505859375,0.169921875,-0.5556640625
2295,-0.8525390625,0.1689453125,-0.5546875
2296,-0.857421875,0.169921875,-0.5537109375
2297,-0.8515625,0.169921875,-0.552734375
2298,-0.8564453125,0.171875,-0.5537109375
2299,-0.857421875,0.173828125,-0.5556640625
2300,-0.859375,0.173828125,-0.556640625
2301,-0.8583984375,0.171875,-0.5556640625
2302,-0.853515625,0.171875,-0.5517578125
2303,-0.8564453125,0.1689453125,-0.556640625
2304,-0.8564453125,0.1748046875,-0.556640625
2305,-0.8544921875,0.171875,-0.5537109375
2306,-0.8544921875,0.17578125,-0.556640625
2307,-0.8564453125,0.1728515625,-0.5546875
2308,-0.8564453125,0.171875,-0.556640625
2309,-0.8544921875,0.169921875,-0.552734375
2310,-0.8564453125,0.171875,-0.5517578125
2311,-0.8525390625,0.1708984375,-0.552734375
2312,-0.857421875,0.1689453125,-0.5546875
2313,-0.8564453125,0.1748046875,-0.5517578125
2314,-0.8564453125,0.1708984375,-0.5537109375
2315,-0.8583984375,0.1748046875,-0.5537109375
2316,-0.8583984375,0.1748046875,-0.5537109375
2317,-0.85546875,0.173828125,-0.55859375
2318,-0.85546875,0.171875,-0.5595703125
2319,-0.859375,0.1669921875,-0.5615234375
2320,-0.8564453125,0.1728515625,-0.5576171875
2321,-0.853515625,0.169921875,-0.5595703125
2322,-0.8515625,0.1728515625,-0.5458984375
2323,-0.8603515625,0.169921875,-0.5556640625
2324,-0.857421875,0.1689453125,-0.5576171875
2325,-0.8564453125,0.1689453125,-0.5478515625
2326,-0.853515625,0.1669921875,-0.5556640625
2327,-0.85546875,0.171875,-0.5498046875
2328,-0.85546875,0.1728515625,-0.552734375
2329,-0.8525390625,0.171875,-0.552734375
2330,-0.8515625,0.171875,-0.5556640625
2331,-0.8583984375,0.1689453125,-0.55078125
2332,-0.853515625,0.1728515625,-0.5498046875
2333,-0.859375,0.16796875,-0.552734375
2334,-0.8564453125,0.166015625,-0.548828125
2335,-0.8544921875,0.1669921875,-0.548828125
2336,-0.8544921875,0.169921875,-0.5478515625
2337,-0.85546875,0.1689453125,-0.5546875
2338,-0.853515625,0.1708984375,-0.548828125
2339,-0.8564453125,0.169921875,-0.5546875
2340,-0.857421875,0.169921875,-0.5556640625
2341,-0.853515625,0.171875,-0.55078125
2342,-0.853515625,0.1767578125,-0.5556640625
2343,-0.8583984375,0.1689453125,-0.552734375
2344,-0.8515625,0.16796875,-0.5546875
2345,-0.8583984375,0.169921875,-0.552734375
2346,-0.8544921875,0.169921875,-0.5556640625
2347,-0.8583984375,0.1708984375,-0.5556640625
2348,-0.8583984375,0.1728515625,-0.5576171875
2349,-0.8583984375,0.1689453125,-0.5556640625
2350,-0.8583984375,0.1669921875,-0.552734375
2351,-0.857421875,0.16796875,-0.5576171875
2352,-0.8564453125,0.1650390625,-0.5595703125
2353,-0.8564453125,0.1650390625,-0.55859375
2354,-0.849609375,0.1669921875,-0.55078125
2355,-0.85546875,0.1650390625,-0.5517578125
2356,-0.853515625,0.1640625,-0.5478515625
2357,-0.8525390625,0.1669921875,-0.55078125
2358,-0.8486328125,0.1669921875,-0.5458984375
2359,-0.8515625,0.1708984375,-0.552734375
2360,-0.8486328125,0.169921875,-0.5537109375
2361,-0.8515625,0.1708984375,-0.546875
2362,-0.8515625,0.166015625,-0.5556640625
2363,-0.857421875,0.16796875,-0.546875
2364,-0.853515625,0.1650390625,-0.552734375
2365,-0.857421875,0.166015625,-0.5576171875
2366,-0.8544921875,0.16796875,-0.5556640625
2367,-0.857421875,0.1669921875,-0.560546875
2368,-0.8564453125,0.1708984375,-0.5546875
2369,-0.8544921875,0.169921875,-0.5537109375
2370,-0.8583984375,0.1708984375,-0.552734375
2371,-0.859375,0.169921875,-0.5498046875
2372,-0.8583984375,0.1669921875,-0.5556640625
2373,-0.857421875,0.1669921875,-0.5498046875
2374,-0.857421875,0.169921875,-0.5556640625
2375,-0.85546875,0.16796875,-0.55078125
2376,-0.8544921875,0.16796875,-0.5546875
2377,-0.8564453125,0.166015625,-0.556640625
2378,-0.859375,0.169921875,-0.5595703125
2379,-0.857421875,0.1669921875,-0.5498046875
2380,-0.8603515625,0.166015625,-0.5556640625
2381,-0.857421875,0.1708984375,-0.5556640625
2382,-0.859375,0.1708984375,-0.5595703125
2383,-0.8623046875,0.1728515625,-0.5576171875
2384,-0.857421875,0.17578125,-0.556640625
2385,-0.857421875,0.1728515625,-0.5556640625
2386,-0.8583984375,0.16796875,-0.5537109375
2387,-0.859375,0.16796875,-0.5556640625
2388,-0.8525390625,0.16796875,-0.548828125
2389,-0.857421875,0.1650390625,-0.55859375
2390,-0.857421875,0.1708984375,-0.5498046875
2391,-0.8583984375,0.1708984375,-0.55078125
2392,-0.8525390625,0.1669921875,-0.55078125
2393,-0.853515625,0.1669921875,-0.556640625
2394,-0.8544921875,0.16796875,-0.5517578125
2395,-0.8505859375,0.1689453125,-0.5546875
2396,-0.8525390625,0.1689453125,-0.5546875
2397,-0.8544921875,0.1689453125,-0.5498046875
2398,-0.8505859375,0.1669921875,-0.5537109375
2399,-0.84765625,0.16796875,-0.5517578125
2400,-0.8525390625,0.16796875,-0.5556640625
2401,-0.8505859375,0.1689453125,-0.548828125
2402,-0.853515625,0.1689453125,-0.548828125
2403,-0.8544921875,0.1767578125,-0.5546875
2404,-0.8544921875,0.1689453125,-0.5537109375
2405,-0.8564453125,0.166015625,-0.5537109375
2406,-0.853515625,0.17578125,-0.5556640625
2407,-0.8525390625,0.1689453125,-0.5546875
2408,-0.8544921875,0.1689453125,-0.552734375
2409,-0.8564453125,0.16796875,-0.5498046875
2410,-0.8525390625,0.166015625,-0.544921875
2411,-0.857421875,0.171875,-0.5517578125
2412,-0.853515625,0.16796875,-0.5517578125
2413,-0.857421875,0.1650390625,-0.5546875
2414,-0.857421875,0.169921875,-0.5498046875
2415,-0.8544921875,0.166015625,-0.55078125
2416,-0.8525390625,0.1669921875,-0.5498046875
2417,-0.8525390625,0.1650390625,-0.5498046875
2418,-0.8583984375,0.1669921875,-0.546875
2419,-0.85546875,0.1650390625,-0.5458984375
2420,-0.8544921875,0.171875,-0.5498046875
2421,-0.8544921875,0.1669921875,-0.5498046875
2422,-0.8564453125,0.1708984375,-0.5537109375
2423,-0.859375,0.1689453125,-0.5478515625
2424,-0.86328125,0.169921875,-0.552734375
2425,-0.8583984375,0.1650390625,-0.552734375
2426,-0.857421875,0.1728515625,-0.546875
2427,-0.8603515625,0.1708984375,-0.5537109375
2428,-0.8623046875,0.1728515625,-0.548828125
2429,-0.8623046875,0.1669921875,-0.552734375
2430,-0.8583984375,0.1640625,-0.5537109375
2431,-0.8583984375,0.16796875,-0.55078125
2432,-0.859375,0.169921875,-0.5478515625
2433,-0.8564453125,0.16796875,-0.5546875
2434,-0.8564453125,0.1708984375,-0.5546875
2435,-0.85546875,0.16796875,-0.5546875
2436,-0.8544921875,0.1708984375,-0.5546875
2437,-0.859375,0.1728515625,-0.5546875
2438,-0.8564453125,0.171875,-0.556640625
2439,-0.857421875,0.173828125,-0.5556640625
2440,-0.857421875,0.1708984375,-0.55078125
2441,-0.857421875,0.17578125,-0.552734375
2442,-0.861328125,0.1728515625,-0.5537109375
2443,-0.8525390625,0.16796875,-0.5537109375
2444,-0.8564453125,0.169921875,-0.552734375
2445,-0.857421875,0.169921875,-0.5556640625
2446,-0.8505859375,0.1708984375,-0.5546875
2447,-0.8505859375,0.171875,-0.5537109375
2448,-0.849609375,0.1708984375,-0.5498046875
2449,-0.85546875,0.171875,-0.556640625
2450,-0.8525390625,0.1728515625,-0.548828125
2451,-0.8525390625,0.16796875,-0.552734375
2452,-0.8525390625,0.1689453125,-0.5517578125
2453,-0.8515625,0.1689453125,-0.5517578125
2454,-0.8544921875,0.1669921875,-0.5556640625
2455,-0.8525390625,0.1689453125,-0.552734375
2456,-0.8544921875,0.1689453125,-0.5537109375
2457,-0.8505859375,0.1689453125,-0.556640625
2458,-0.853515625,0.169921875,-0.5546875
2459,-0.84765625,0.169921875,-0.556640625
2460,-0.8515625,0.1669921875,-0.5537109375
2461,-0.8505859375,0.1669921875,-0.552734375
2462,-0.8486328125,0.1669921875,-0.556640625
2463,-0.8466796875,0.1708984375,-0.5576171875
2464,-0.8525390625,0.166015625,-0.5556640625
2465,-0.8515625,0.1669921875,-0.55078125
2466,-0.8515625,0.16796875,-0.5576171875
2467,-0.853515625,0.1669921875,-0.556640625
2468,-0.8525390625,0.169921875,-0.55859375
2469,-0.8525390625,0.16796875,-0.55859375
2470,-0.8583984375,0.169921875,-0.5654296875
2471,-0.853515625,0.169921875,-0.5615234375
2472,-0.8515625,0.169921875,-0.5615234375
2473,-0.857421875,0.169921875,-0.55859375
2474,-0.849609375,0.1728515625,-0.5546875
2475,-0.8564453125,0.1689453125,-0.5634765625
2476,-0.8544921875,0.169921875,-0.56640625
2477,-0.8525390625,0.171875,-0.556640625
2478,-0.8505859375,0.173828125,-0.560546875
2479,-0.8515625,0.1748046875,-0.55859375
2480,-0.84765625,0.171875,-0.55859375
2481,-0.8583984375,0.17578125,-0.5615234375
2482,-0.8525390625,0.1708984375,-0.5625
2483,-0.853515625,0.1748046875,-0.5625
2484,-0.859375,0.1748046875,-0.564453125
2485,-0.8525390625,0.169921875,-0.55859375
2486,-0.8525390625,0.1689453125,-0.5625
2487,-0.8505859375,0.1748046875,-0.5693359375
2488,-0.8486328125,0.1806640625,-0.564453125
2489,-0.853515625,0.1787109375,-0.5595703125
2490,-0.8486328125,0.1796875,-0.56640625
2491,-0.849609375,0.1708984375,-0.5634765625
2492,-0.849609375,0.1806640625,-0.5615234375
2493,-0.8505859375,0.173828125,-0.564453125
2494,-0.849609375,0.177734375,-0.5615234375
2495,-0.8515625,0.17578125,-0.564453125
2496,-0.8505859375,0.173828125,-0.55859375
2497,-0.8505859375,0.1708984375,-0.5615234375
2498,-0.8466796875,0.1728515625,-0.564453125
2499,-0.8427734375,0.169921875,-0.564453125
2500,-0.8486328125,0.1767578125,-0.5634765625
2501,-0.845703125,0.17578125,-0.5625
2502,-0.8466796875,0.1748046875,-0.5654296875
2503,-0.84765625,0.1767578125,-0.5625
2504,-0.849609375,0.1728515625,-0.560546875
2505,-0.849609375,0.1787109375,-0.564453125
2506,-0.8447265625,0.1767578125,-0.56640625
2507,-0.8466796875,0.1796875,-0.5654296875
2508,-0.84765625,0.1796875,-0.564453125
2509,-0.849609375,0.181640625,-0.564453125
2510,-0.8447265625,0.1767578125,-0.56640625
2511,-0.849609375,0.1767578125,-0.568359375
2512,-0.8515625,0.1796875,-0.5673828125
2513,-0.8466796875,0.1787109375,-0.5712890625
2514,-0.84765625,0.177734375,-0.56640625
2515,-0.8466796875,0.1748046875,-0.5703125
2516,-0.849609375,0.1787109375,-0.572265625
2517,-0.845703125,0.1748046875,-0.5625
2518,-0.845703125,0.17578125,-0.56640625
2519,-0.8486328125,0.181640625,-0.5693359375
2520,-0.845703125,0.181640625,-0.5712890625
2521,-0.8447265625,0.177734375,-0.5703125
2522,-0.849609375,0.18359375,-0.5712890625
2523,-0.8505859375,0.1767578125,-0.5703125
2524,-0.849609375,0.1826171875,-0.5703125
2525,-0.8447265625,0.1806640625,-0.568359375
2526,-0.84765625,0.1845703125,-0.5703125
2527,-0.8486328125,0.1845703125,-0.5673828125
2528,-0.841796875,0.1806640625,-0.5673828125
2529,-0.845703125,0.1796875,-0.5634765625
2530,-0.845703125,0.181640625,-0.5703125
2531,-0.841796875,0.1845703125,-0.5732421875
2532,-0.84375,0.1826171875,-0.568359375
2533,-0.84375,0.1806640625,-0.5712890625
2534,-0.8447265625,0.18359375,-0.564453125
2535,-0.8466796875,0.1826171875,-0.5703125
2536,-0.8447265625,0.1826171875,-0.5732421875
2537,-0.8466796875,0.1806640625,-0.56640625
2538,-0.841796875,0.18359375,-0.568359375
2539,-0.841796875,0.1826171875,-0.5693359375
2540,-0.84765625,0.1875,-0.5654296875
2541,-0.841796875,0.1796875,-0.56640625
2542,-0.8447265625,0.1806640625,-0.5546875
2543,-0.8466796875,0.189453125,-0.5556640625
2544,-0.83984375,0.1845703125,-0.5732421875
2545,-0.833984375,0.1767578125,-0.578125
2546,-0.8466796875,0.181640625,-0.5791015625
2547,-0.845703125,0.1845703125,-0.580078125
2548,-0.849609375,0.19140625,-0.576171875
2549,-0.8427734375,0.1943359375,-0.5859375
2550,-0.8388671875,0.185546875,-0.5712890625
2551,-0.83984375,0.1845703125,-0.5673828125
2552,-0.83984375,0.1826171875,-0.5751953125
2553,-0.83984375,0.177734375,-0.578125
2554,-0.84375,0.1826171875,-0.572265625
2555,-0.8486328125,0.1796875,-0.5712890625
2556,-0.84375,0.1865234375,-0.57421875
2557,-0.841796875,0.1845703125,-0.572265625
2558,-0.84765625,0.1845703125,-0.5625
2559,-0.845703125,0.1845703125,-0.5634765625
2560,-0.84765625,0.169921875,-0.560546875
2561,-0.837890625,0.169921875,-0.5654296875
2562,-0.8447265625,0.1806640625,-0.576171875
2563,-0.853515625,0.1513671875,-0.5458984375
2564,-0.8349609375,0.1708984375,-0.5751953125
2565,-0.8349609375,0.1826171875,-0.5771484375
2566,-0.830078125,0.1943359375,-0.58203125
2567,-0.8330078125,0.1845703125,-0.57421875
2568,-0.8359375,0.19140625,-0.576171875
2569,-0.833984375,0.193359375,-0.576171875
2570,-0.8369140625,0.185546875,-0.5751953125
2571,-0.841796875,0.1884765625,-0.572265625
2572,-0.8427734375,0.1806640625,-0.5712890625
2573,-0.8525390625,0.1826171875,-0.5673828125
2574,-0.849609375,0.1806640625,-0.5751953125
2575,-0.84765625,0.1875,-0.578125
2576,-0.8466796875,0.1884765625,-0.578125
2577,-0.845703125,0.1865234375,-0.5771484375
2578,-0.8447265625,0.1884765625,-0.5771484375
2579,-0.8447265625,0.1865234375,-0.576171875
2580,-0.841796875,0.1884765625,-0.576171875
2581,-0.837890625,0.1865234375,-0.5771484375
2582,-0.8291015625,0.19140625,-0.5810546875
2583,-0.8291015625,0.201171875,-0.5830078125
2584,-0.8310546875,0.203125,-0.583984375
2585,-0.8310546875,0.2060546875,-0.5859375
2586,-0.8359375,0.201171875,-0.576171875
2587,-0.8388671875,0.1943359375,-0.5712890625
2588,-0.8359375,0.197265625,-0.5732421875
2589,-0.83984375,0.1865234375,-0.57421875
2590,-0.8359375,0.189453125,-0.57421875
2591,-0.837890625,0.1923828125,-0.5751953125
2592,-0.84375,0.185546875,-0.5791015625
2593,-0.8408203125,0.1875,-0.583984375
2594,-0.841796875,0.1865234375,-0.5859375
2595,-0.8427734375,0.1875,-0.5791015625
2596,-0.8466796875,0.1845703125,-0.58203125
2597,-0.841796875,0.1884765625,-0.5810546875
2598,-0.8427734375,0.19140625,-0.5869140625
2599,-0.8369140625,0.1884765625,-0.576171875
2600,-0.8388671875,0.1884765625,-0.5830078125
2601,-0.83984375,0.1884765625,-0.5859375
2602,-0.8388671875,0.1875,-0.5810546875
2603,-0.837890625,0.1904296875,-0.583984375
2604,-0.8369140625,0.1865234375,-0.580078125
2605,-0.8349609375,0.1953125,-0.58203125
2606,-0.8369140625,0.1962890625,-0.5830078125
2607,-0.83984375,0.1904296875,-0.58203125
2608,-0.837890625,0.1865234375,-0.58203125
2609,-0.8388671875,0.1845703125,-0.583984375
2610,-0.8369140625,0.1865234375,-0.58203125
2611,-0.8388671875,0.1875,-0.5791015625
2612,-0.8408203125,0.1923828125,-0.587890625
2613,-0.8408203125,0.19140625,-0.587890625
2614,-0.8369140625,0.1904296875,-0.58984375
2615,-0.8349609375,0.1865234375,-0.58203125
2616,-0.83984375,0.189453125,-0.583984375
2617,-0.8388671875,0.1884765625,-0.583984375
2618,-0.833984375,0.189453125,-0.5771484375
2619,-0.833984375,0.19140625,-0.5849609375
2620,-0.8359375,0.193359375,-0.580078125
2621,-0.8330078125,0.189453125,-0.576171875
2622,-0.8349609375,0.1884765625,-0.5751953125
2623,-0.8427734375,0.1865234375,-0.5771484375
2624,-0.83203125,0.1904296875,-0.578125
2625,-0.8369140625,0.185546875,-0.578125
2626,-0.83984375,0.1845703125,-0.5849609375
2627,-0.8330078125,0.1845703125,-0.5771484375
2628,-0.8359375,0.18359375,-0.583984375
2629,-0.837890625,0.1865234375,-0.5830078125
2630,-0.837890625,0.1923828125,-0.5810546875
2631,-0.8388671875,0.18359375,-0.5849609375
2632,-0.83984375,0.1865234375,-0.5791015625
2633,-0.837890625,0.189453125,-0.5751953125
2634,-0.833984375,0.1875,-0.58203125
2635,-0.841796875,0.1884765625,-0.5791015625
2636,-0.8369140625,0.189453125,-0.580078125
2637,-0.83984375,0.189453125,-0.5830078125
2638,-0.8359375,0.1865234375,-0.578125
2639,-0.837890625,0.1865234375,-0.5810546875
2640,-0.8369140625,0.1826171875,-0.5859375
2641,-0.8427734375,0.185546875,-0.578125
2642,-0.837890625,0.18359375,-0.578125
2643,-0.8427734375,0.18359375,-0.5791015625
2644,-0.8408203125,0.185546875,-0.580078125
2645,-0.83984375,0.1865234375,-0.5791015625
2646,-0.837890625,0.1904296875,-0.58203125
2647,-0.841796875,0.185546875,-0.580078125
2648,-0.837890625,0.1875,-0.5810546875
2649,-0.83984375,0.1826171875,-0.578125
2650,-0.8388671875,0.1875,-0.5791015625
2651,-0.8369140625,0.1875,-0.5771484375
2652,-0.8359375,0.189453125,-0.576171875
2653,-0.837890625,0.1904296875,-0.572265625
2654,-0.8369140625,0.18359375,-0.5751953125
2655,-0.841796875,0.181640625,-0.5751953125
2656,-0.83984375,0.1875,-0.5751953125
2657,-0.8427734375,0.1875,-0.57421875
2658,-0.8369140625,0.1845703125,-0.576171875
2659,-0.8349609375,0.19140625,-0.5732421875
2660,-0.8359375,0.1884765625,-0.57421875
2661,-0.8388671875,0.19140625,-0.576171875
2662,-0.8408203125,0.185546875,-0.5751953125
2663,-0.8408203125,0.1865234375,-0.5751953125
2664,-0.837890625,0.193359375,-0.576171875
2665,-0.8408203125,0.1865234375,-0.572265625
2666,-0.845703125,0.1884765625,-0.5810546875
2667,-0.83984375,0.1865234375,-0.5771484375
2668,-0.83984375,0.1865234375,-0.5751953125
2669,-0.8369140625,0.185546875,-0.576171875
2670,-0.84375,0.1865234375,-0.58203125
2671,-0.8408203125,0.1884765625,-0.5771484375
2672,-0.83984375,0.18359375,-0.578125
2673,-0.8466796875,0.1865234375,-0.580078125
2674,-0.84375,0.185546875,-0.580078125
2675,-0.83984375,0.1884765625,-0.5810546875
2676,-0.841796875,0.1865234375,-0.58203125
2677,-0.84375,0.1865234375,-0.5771484375
2678,-0.841796875,0.1875,-0.5751953125
2679,-0.8447265625,0.18359375,-0.5751953125
2680,-0.83984375,0.185546875,-0.57421875
2681,-0.8388671875,0.18359375,-0.5703125
2682,-0.8388671875,0.18359375,-0.572265625
2683,-0.8427734375,0.1796875,-0.5751953125
2684,-0.8369140625,0.18359375,-0.5703125
2685,-0.83984375,0.1826171875,-0.57421875
2686,-0.841796875,0.185546875,-0.572265625
2687,-0.841796875,0.18359375,-0.5751953125
2688,-0.841796875,0.1845703125,-0.57421875
2689,-0.8408203125,0.1865234375,-0.572265625
2690,-0.837890625,0.1826171875,-0.57421875
2691,-0.8388671875,0.181640625,-0.5732421875
2692,-0.837890625,0.1826171875,-0.572265625
2693,-0.841796875,0.18359375,-0.568359375
2694,-0.8408203125,0.1806640625,-0.576171875
2695,-0.8408203125,0.185546875,-0.5732421875
2696,-0.8427734375,0.185546875,-0.576171875
2697,-0.83984375,0.1826171875,-0.5751953125
2698,-0.8408203125,0.181640625,-0.57421875
2699,-0.84375,0.1884765625,-0.5791015625
2700,-0.83984375,0.181640625,-0.57421875
2701,-0.841796875,0.1826171875,-0.5771484375
2702,-0.845703125,0.185546875,-0.576171875
2703,-0.841796875,0.1875,-0.5771484375
2704,-0.841796875,0.181640625,-0.5732421875
2705,-0.8466796875,0.18359375,-0.578125
2706,-0.84375,0.1806640625,-0.5703125
2707,-0.8447265625,0.1826171875,-0.5712890625
2708,-0.841796875,0.181640625,-0.5751953125
2709,-0.8447265625,0.1787109375,-0.5673828125
2710,-0.8447265625,0.1826171875,-0.5732421875
2711,-0.8427734375,0.1806640625,-0.5654296875
2712,-0.845703125,0.1806640625,-0.5673828125
2713,-0.837890625,0.17578125,-0.5654296875
2714,-0.8408203125,0.177734375,-0.5693359375
2715,-0.8447265625,0.1767578125,-0.5673828125
2716,-0.84375,0.1787109375,-0.5654296875
2717,-0.841796875,0.1748046875,-0.5703125
2718,-0.8447265625,0.17578125,-0.56640625
2719,-0.8466796875,0.17578125,-0.5693359375
2720,-0.84375,0.1787109375,-0.568359375
2721,-0.8466796875,0.173828125,-0.568359375
2722,-0.841796875,0.1826171875,-0.5703125
2723,-0.8427734375,0.1796875,-0.5712890625
2724,-0.845703125,0.1787109375,-0.57421875
2725,-0.8486328125,0.1806640625,-0.5693359375
2726,-0.845703125,0.181640625,-0.56640625
2727,-0.849609375,0.181640625,-0.568359375
2728,-0.84765625,0.1845703125,-0.568359375
2729,-0.8466796875,0.1826171875,-0.568359375
2730,-0.8427734375,0.1787109375,-0.5693359375
2731,-0.8486328125,0.177734375,-0.5673828125
2732,-0.8447265625,0.1806640625,-0.572265625
2733,-0.8408203125,0.1787109375,-0.5712890625
2734,-0.8447265625,0.1767578125,-0.568359375
2735,-0.84375,0.1796875,-0.568359375
2736,-0.84375,0.1806640625,-0.568359375
2737,-0.84375,0.1845703125,-0.572265625
2738,-0.8427734375,0.1826171875,-0.5693359375
2739,-0.84375,0.1796875,-0.5703125
2740,-0.84765625,0.1806640625,-0.568359375
2741,-0.8447265625,0.181640625,-0.572265625
2742,-0.845703125,0.1806640625,-0.5693359375
2743,-0.8427734375,0.18359375,-0.5673828125
2744,-0.8447265625,0.1826171875,-0.572265625
2745,-0.8515625,0.1806640625,-0.5751953125
2746,-0.8447265625,0.1796875,-0.56640625
2747,-0.8427734375,0.1787109375,-0.5673828125
2748,-0.84375,0.17578125,-0.572265625
2749,-0.841796875,0.177734375,-0.5654296875
2750,-0.8466796875,0.177734375,-0.5625
2751,-0.84375,0.171875,-0.56640625
2752,-0.84375,0.173828125,-0.5654296875
2753,-0.845703125,0.1748046875,-0.5654296875
2754,-0.8486328125,0.1748046875,-0.5654296875
2755,-0.84765625,0.1748046875,-0.5693359375
2756,-0.845703125,0.177734375,-0.5712890625
2757,-0.845703125,0.1767578125,-0.576171875
2758,-0.84765625,0.17578125,-0.5732421875
2759,-0.84765625,0.1767578125,-0.5654296875
2760,-0.84375,0.177734375,-0.5673828125
2761,-0.845703125,0.177734375,-0.5732421875
2762,-0.8486328125,0.17578125,-0.5634765625
2763,-0.8515625,0.173828125,-0.5634765625
2764,-0.8525390625,0.1796875,-0.56640625
2765,-0.8515625,0.1767578125,-0.5703125
2766,-0.8486328125,0.171875,-0.564453125
2767,-0.849609375,0.171875,-0.5654296875
2768,-0.84765625,0.16796875,-0.564453125
2769,-0.84765625,0.1728515625,-0.5615234375
2770,-0.84765625,0.171875,-0.564453125
2771,-0.8486328125,0.173828125,-0.5654296875
2772,-0.8525390625,0.1748046875,-0.5595703125
2773,-0.8466796875,0.1728515625,-0.5595703125
2774,-0.8466796875,0.17578125,-0.560546875
2775,-0.8515625,0.177734375,-0.5654296875
2776,-0.8515625,0.17578125,-0.56640625
2777,-0.8505859375,0.1787109375,-0.5654296875
2778,-0.8515625,0.1806640625,-0.5615234375
2779,-0.84765625,0.1767578125,-0.5634765625
2780,-0.849609375,0.173828125,-0.5625
2781,-0.8486328125,0.17578125,-0.560546875
2782,-0.8505859375,0.16796875,-0.5625
2783,-0.8505859375,0.1748046875,-0.560546875
2784,-0.8486328125,0.171875,-0.560546875
2785,-0.849609375,0.171875,-0.5556640625
2786,-0.8515625,0.1708984375,-0.5615234375
2787,-0.849609375,0.1728515625,-0.560546875
2788,-0.8486328125,0.1689453125,-0.5625
2789,-0.84765625,0.171875,-0.5625
2790,-0.849609375,0.173828125,-0.5615234375
2791,-0.8486328125,0.169921875,-0.5615234375
2792,-0.8486328125,0.1728515625,-0.5634765625
