,accelerometerAccelerationX(G),accelerometerAccelerationY(G),accelerometerAccelerationZ(G)
0,0.0234375,-0.9482421875,-0.0654296875
1,0.01953125,-0.951171875,-0.060546875
2,0.017578125,-0.953125,-0.0595703125
3,0.017578125,-0.94921875,-0.060546875
4,0.015625,-0.9638671875,-0.0634765625
5,0.013671875,-0.9609375,-0.0625
6,0.0185546875,-0.96875,-0.064453125
7,0.015625,-0.958984375,-0.0634765625
8,0.01171875,-0.9638671875,-0.0615234375
9,0.0185546875,-0.9658203125,-0.060546875
10,0.015625,-0.9716796875,-0.0654296875
11,0.0146484375,-0.9716796875,-0.060546875
12,0.0205078125,-0.96875,-0.0517578125
13,0.01953125,-0.958984375,-0.0498046875
14,0.021484375,-0.958984375,-0.0537109375
15,0.0263671875,-0.9541015625,-0.046875
16,0.025390625,-0.947265625,-0.0458984375
17,0.021484375,-0.9541015625,-0.0498046875
18,0.0302734375,-0.9560546875,-0.046875
19,0.029296875,-0.951171875,-0.0498046875
20,0.0283203125,-0.951171875,-0.048828125
21,0.0283203125,-0.9541015625,-0.048828125
22,0.0263671875,-0.9501953125,-0.048828125
23,0.0302734375,-0.9501953125,-0.0537109375
24,0.0341796875,-0.947265625,-0.048828125
25,0.02734375,-0.9453125,-0.052734375
26,0.033203125,-0.9453125,-0.05078125
27,0.033203125,-0.9462890625,-0.05078125
28,0.033203125,-0.951171875,-0.0537109375
29,0.0302734375,-0.9453125,-0.0517578125
30,0.0283203125,-0.9501953125,-0.048828125
31,0.0283203125,-0.951171875,-0.0498046875
32,0.0263671875,-0.9521484375,-0.048828125
33,0.025390625,-0.95703125,-0.046875
34,0.0224609375,-0.9541015625,-0.0458984375
35,0.0244140625,-0.9599609375,-0.0517578125
36,0.02734375,-0.953125,-0.048828125
37,0.0263671875,-0.958984375,-0.048828125
38,0.0302734375,-0.9580078125,-0.048828125
39,0.0205078125,-0.9580078125,-0.046875
40,0.0283203125,-0.9560546875,-0.052734375
41,0.017578125,-0.9521484375,-0.048828125
42,0.0234375,-0.96875,-0.046875
43,0.0283203125,-0.9560546875,-0.0458984375
44,0.0244140625,-0.95703125,-0.0478515625
45,0.03125,-0.9638671875,-0.0498046875
46,0.0234375,-0.9599609375,-0.0478515625
47,0.0302734375,-0.9609375,-0.0546875
48,0.0234375,-0.95703125,-0.046875
49,0.0400390625,-0.9736328125,-0.0517578125
50,0.0400390625,-0.96484375,-0.0556640625
51,0.0224609375,-0.953125,-0.0615234375
52,0.021484375,-0.9619140625,-0.0517578125
53,0.0205078125,-0.9697265625,-0.044921875
54,0.0224609375,-0.9638671875,-0.0419921875
55,0.0234375,-0.9677734375,-0.037109375
56,0.01953125,-0.9638671875,-0.0439453125
57,0.0166015625,-0.9560546875,-0.04296875
58,0.0205078125,-0.962890625,-0.0458984375
59,0.015625,-0.9521484375,-0.044921875
60,0.01953125,-0.9609375,-0.044921875
61,0.0185546875,-0.951171875,-0.046875
62,0.0205078125,-0.9521484375,-0.0576171875
63,0.02734375,-0.955078125,-0.0478515625
64,0.0263671875,-0.9619140625,-0.0478515625
65,0.0322265625,-0.9560546875,-0.046875
66,0.037109375,-0.9560546875,-0.0478515625
67,0.0390625,-0.9541015625,-0.0439453125
68,0.033203125,-0.966796875,-0.0458984375
69,0.0419921875,-0.9599609375,-0.0458984375
70,0.0390625,-0.96484375,-0.044921875
71,0.0419921875,-0.962890625,-0.0419921875
72,0.0390625,-0.9541015625,-0.0439453125
73,0.037109375,-0.9580078125,-0.044921875
74,0.0380859375,-0.958984375,-0.044921875
75,0.0302734375,-0.962890625,-0.046875
76,0.03515625,-0.9580078125,-0.0439453125
77,0.0380859375,-0.96484375,-0.0458984375
78,0.03125,-0.955078125,-0.0458984375
79,0.029296875,-0.955078125,-0.0458984375
80,0.03125,-0.95703125,-0.044921875
81,0.0341796875,-0.9521484375,-0.0439453125
82,0.03125,-0.951171875,-0.0498046875
83,0.0283203125,-0.9501953125,-0.0439453125
84,0.03125,-0.951171875,-0.0498046875
85,0.03515625,-0.9501953125,-0.0458984375
86,0.037109375,-0.951171875,-0.044921875
87,0.03515625,-0.9453125,-0.044921875
88,0.0341796875,-0.947265625,-0.046875
89,0.033203125,-0.9482421875,-0.0458984375
90,0.0361328125,-0.9501953125,-0.046875
91,0.0341796875,-0.951171875,-0.0458984375
92,0.03515625,-0.9501953125,-0.046875
93,0.037109375,-0.9521484375,-0.046875
94,0.0380859375,-0.9609375,-0.04296875
95,0.033203125,-0.9560546875,-0.0498046875
96,0.03515625,-0.95703125,-0.046875
97,0.041015625,-0.958984375,-0.0595703125
98,0.0390625,-0.9658203125,-0.046875
99,0.0390625,-0.95703125,-0.046875
100,0.0390625,-0.95703125,-0.0458984375
101,0.0361328125,-0.955078125,-0.0478515625
102,0.041015625,-0.9541015625,-0.044921875
103,0.0390625,-0.953125,-0.0458984375
104,0.03515625,-0.9541015625,-0.0458984375
105,0.0400390625,-0.9541015625,-0.04296875
106,0.037109375,-0.962890625,-0.048828125
107,0.0361328125,-0.9638671875,-0.044921875
108,0.02734375,-0.953125,-0.0458984375
109,0.033203125,-0.951171875,-0.0478515625
110,0.037109375,-0.95703125,-0.0458984375
111,0.03125,-0.9638671875,-0.046875
112,0.033203125,-0.9580078125,-0.0458984375
113,0.0380859375,-0.9599609375,-0.048828125
114,0.0380859375,-0.962890625,-0.0458984375
115,0.0380859375,-0.9638671875,-0.0400390625
116,0.0361328125,-0.9580078125,-0.046875
117,0.0380859375,-0.958984375,-0.0439453125
118,0.03515625,-0.9580078125,-0.0419921875
119,0.03515625,-0.955078125,-0.0439453125
120,0.0380859375,-0.9521484375,-0.0439453125
121,0.037109375,-0.95703125,-0.0439453125
122,0.041015625,-0.951171875,-0.0458984375
123,0.0390625,-0.9541015625,-0.0439453125
124,0.041015625,-0.951171875,-0.0458984375
125,0.0380859375,-0.9521484375,-0.048828125
126,0.037109375,-0.9541015625,-0.0458984375
127,0.0361328125,-0.9619140625,-0.0458984375
128,0.0361328125,-0.95703125,-0.046875
129,0.0341796875,-0.962890625,-0.044921875
130,0.0400390625,-0.9541015625,-0.044921875
131,0.03125,-0.9609375,-0.0458984375
132,0.0390625,-0.962890625,-0.0458984375
133,0.0419921875,-0.962890625,-0.0439453125
134,0.0390625,-0.9638671875,-0.044921875
135,0.037109375,-0.9541015625,-0.0458984375
136,0.0419921875,-0.9580078125,-0.0439453125
137,0.0400390625,-0.9521484375,-0.0419921875
138,0.0400390625,-0.9541015625,-0.044921875
139,0.041015625,-0.9541015625,-0.0458984375
140,0.033203125,-0.958984375,-0.044921875
141,0.0341796875,-0.953125,-0.04296875
142,0.03515625,-0.96484375,-0.0419921875
143,0.03125,-0.9697265625,-0.0390625
144,0.0341796875,-0.96875,-0.041015625
145,0.0322265625,-0.962890625,-0.0419921875
146,0.029296875,-0.966796875,-0.0400390625
147,0.029296875,-0.95703125,-0.041015625
148,0.0283203125,-0.962890625,-0.0390625
149,0.033203125,-0.9541015625,-0.03515625
150,0.033203125,-0.9580078125,-0.0419921875
151,0.0263671875,-0.96484375,-0.037109375
152,0.033203125,-0.9638671875,-0.04296875
153,0.0361328125,-0.9599609375,-0.0390625
154,0.03125,-0.953125,-0.0390625
155,0.0302734375,-0.9521484375,-0.041015625
156,0.029296875,-0.95703125,-0.041015625
157,0.02734375,-0.95703125,-0.0419921875
158,0.025390625,-0.95703125,-0.041015625
159,0.0263671875,-0.9580078125,-0.041015625
160,0.021484375,-0.962890625,-0.0390625
161,0.0234375,-0.9560546875,-0.0380859375
162,0.0244140625,-0.958984375,-0.0361328125
163,0.0234375,-0.9609375,-0.041015625
164,0.0244140625,-0.955078125,-0.04296875
165,0.0185546875,-0.9541015625,-0.0439453125
166,0.0234375,-0.9599609375,-0.041015625
167,0.0234375,-0.955078125,-0.0419921875
168,0.025390625,-0.953125,-0.0400390625
169,0.025390625,-0.9560546875,-0.0390625
170,0.0283203125,-0.9638671875,-0.0419921875
171,0.025390625,-0.95703125,-0.0380859375
172,0.0234375,-0.9541015625,-0.0390625
173,0.0234375,-0.9638671875,-0.0380859375
174,0.025390625,-0.962890625,-0.0400390625
175,0.0283203125,-0.9580078125,-0.037109375
176,0.0263671875,-0.9619140625,-0.0341796875
177,0.0244140625,-0.958984375,-0.0341796875
178,0.0224609375,-0.9599609375,-0.03515625
179,0.0283203125,-0.9716796875,-0.0419921875
180,0.021484375,-0.9580078125,-0.0390625
181,0.0205078125,-0.9580078125,-0.037109375
182,0.0244140625,-0.953125,-0.0400390625
183,0.025390625,-0.9619140625,-0.0380859375
184,0.0224609375,-0.95703125,-0.0400390625
185,0.0224609375,-0.9521484375,-0.04296875
186,0.025390625,-0.9521484375,-0.0419921875
187,0.0234375,-0.953125,-0.041015625
188,0.0224609375,-0.9541015625,-0.041015625
189,0.021484375,-0.953125,-0.0400390625
190,0.0244140625,-0.9560546875,-0.0458984375
191,0.021484375,-0.9541015625,-0.0400390625
192,0.0224609375,-0.953125,-0.0361328125
193,0.0234375,-0.9580078125,-0.041015625
194,0.0224609375,-0.9619140625,-0.0390625
195,0.0234375,-0.9580078125,-0.04296875
196,0.0234375,-0.9638671875,-0.0400390625
197,0.021484375,-0.9638671875,-0.0361328125
198,0.017578125,-0.970703125,-0.0400390625
199,0.0205078125,-0.9755859375,-0.0380859375
200,0.0205078125,-0.96484375,-0.04296875
201,0.021484375,-0.96875,-0.0419921875
202,0.021484375,-0.9599609375,-0.0400390625
203,0.021484375,-0.951171875,-0.0419921875
204,0.0205078125,-0.9619140625,-0.0400390625
205,0.0234375,-0.9560546875,-0.044921875
206,0.021484375,-0.9560546875,-0.0390625
207,0.01953125,-0.953125,-0.0390625
208,0.0205078125,-0.955078125,-0.041015625
209,0.0205078125,-0.9521484375,-0.0419921875
210,0.01953125,-0.9521484375,-0.0380859375
211,0.0234375,-0.951171875,-0.0419921875
212,0.017578125,-0.9541015625,-0.04296875
213,0.01953125,-0.9560546875,-0.0419921875
214,0.0185546875,-0.958984375,-0.04296875
215,0.0185546875,-0.953125,-0.0419921875
216,0.017578125,-0.951171875,-0.0439453125
217,0.01953125,-0.9541015625,-0.04296875
218,0.0185546875,-0.955078125,-0.044921875
219,0.01953125,-0.9560546875,-0.0458984375
220,0.01953125,-0.95703125,-0.04296875
221,0.017578125,-0.953125,-0.044921875
222,0.0185546875,-0.9541015625,-0.044921875
223,0.0146484375,-0.953125,-0.04296875
224,0.0166015625,-0.9560546875,-0.0419921875
225,0.0166015625,-0.9580078125,-0.046875
226,0.0166015625,-0.958984375,-0.0458984375
227,0.015625,-0.9609375,-0.044921875
228,0.01953125,-0.962890625,-0.044921875
229,0.01953125,-0.962890625,-0.0458984375
230,0.0166015625,-0.9580078125,-0.044921875
231,0.021484375,-0.9619140625,-0.04296875
232,0.0341796875,-0.962890625,-0.0478515625
233,0.0185546875,-0.962890625,-0.046875
234,0.021484375,-0.9697265625,-0.0458984375
235,0.021484375,-0.9638671875,-0.044921875
236,0.017578125,-0.962890625,-0.041015625
237,0.0205078125,-0.96484375,-0.0439453125
238,0.017578125,-0.9580078125,-0.0390625
239,0.0185546875,-0.96875,-0.0439453125
240,0.017578125,-0.955078125,-0.04296875
241,0.01953125,-0.9599609375,-0.0419921875
242,0.017578125,-0.9521484375,-0.0478515625
243,0.0185546875,-0.9501953125,-0.0458984375
244,0.017578125,-0.953125,-0.0458984375
245,0.0166015625,-0.95703125,-0.046875
246,0.01953125,-0.94921875,-0.0478515625
247,0.0146484375,-0.9501953125,-0.0458984375
248,0.017578125,-0.9580078125,-0.046875
249,0.0185546875,-0.9541015625,-0.0439453125
250,0.0185546875,-0.9619140625,-0.0439453125
251,0.017578125,-0.9580078125,-0.0439453125
252,0.021484375,-0.9541015625,-0.0439453125
253,0.017578125,-0.9560546875,-0.044921875
254,0.015625,-0.953125,-0.0458984375
255,0.017578125,-0.953125,-0.04296875
256,0.0224609375,-0.953125,-0.046875
257,0.01953125,-0.953125,-0.0478515625
258,0.021484375,-0.9599609375,-0.0458984375
259,0.01953125,-0.953125,-0.046875
260,0.0224609375,-0.9580078125,-0.0537109375
261,0.0166015625,-0.955078125,-0.0478515625
262,0.0205078125,-0.962890625,-0.0556640625
263,0.021484375,-0.953125,-0.048828125
264,0.0224609375,-0.9560546875,-0.0537109375
265,0.01953125,-0.9580078125,-0.05078125
266,0.0205078125,-0.9609375,-0.056640625
267,0.021484375,-0.9619140625,-0.0498046875
268,0.0205078125,-0.9599609375,-0.056640625
269,0.01953125,-0.9658203125,-0.0478515625
270,0.0224609375,-0.962890625,-0.046875
271,0.0146484375,-0.96484375,-0.04296875
272,0.0224609375,-0.9560546875,-0.0439453125
273,0.0205078125,-0.958984375,-0.0419921875
274,0.0185546875,-0.9599609375,-0.044921875
275,0.0244140625,-0.9541015625,-0.044921875
276,0.021484375,-0.9541015625,-0.0478515625
277,0.01953125,-0.9560546875,-0.0478515625
278,0.0185546875,-0.9482421875,-0.0498046875
279,0.0205078125,-0.94921875,-0.0498046875
280,0.0185546875,-0.953125,-0.046875
281,0.017578125,-0.953125,-0.0498046875
282,0.01953125,-0.953125,-0.0498046875
283,0.0185546875,-0.958984375,-0.046875
284,0.0166015625,-0.955078125,-0.0458984375
285,0.0185546875,-0.9560546875,-0.0537109375
286,0.0205078125,-0.9521484375,-0.0498046875
287,0.021484375,-0.9560546875,-0.0478515625
288,0.021484375,-0.9658203125,-0.0478515625
289,0.0224609375,-0.9541015625,-0.048828125
290,0.0205078125,-0.9619140625,-0.048828125
291,0.0205078125,-0.9560546875,-0.0517578125
292,0.0244140625,-0.9619140625,-0.0458984375
293,0.0224609375,-0.9599609375,-0.0498046875
294,0.021484375,-0.9560546875,-0.046875
295,0.0205078125,-0.9521484375,-0.0478515625
296,0.01953125,-0.9560546875,-0.05078125
297,0.01953125,-0.9482421875,-0.0498046875
298,0.021484375,-0.9580078125,-0.046875
299,0.0263671875,-0.951171875,-0.0517578125
300,0.0224609375,-0.955078125,-0.048828125
301,0.0283203125,-0.955078125,-0.052734375
302,0.0283203125,-0.9560546875,-0.048828125
303,0.021484375,-0.9697265625,-0.0458984375
304,0.0244140625,-0.962890625,-0.0458984375
305,0.0205078125,-0.9697265625,-0.0458984375
306,0.0234375,-0.9619140625,-0.0458984375
307,0.0234375,-0.96484375,-0.0439453125
308,0.01953125,-0.953125,-0.046875
309,0.0205078125,-0.958984375,-0.048828125
310,0.0205078125,-0.9599609375,-0.044921875
311,0.01953125,-0.9599609375,-0.048828125
312,0.0263671875,-0.96875,-0.0439453125
313,0.03125,-0.96484375,-0.04296875
314,0.0224609375,-0.96484375,-0.0458984375
315,0.021484375,-0.9541015625,-0.0458984375
316,0.0224609375,-0.943359375,-0.044921875
317,0.0234375,-0.9609375,-0.0498046875
318,0.021484375,-0.9619140625,-0.0439453125
319,0.0234375,-0.9609375,-0.0458984375
320,0.01953125,-0.95703125,-0.0439453125
321,0.017578125,-0.9560546875,-0.046875
322,0.021484375,-0.9638671875,-0.048828125
323,0.0205078125,-0.9638671875,-0.048828125
324,0.0234375,-0.9560546875,-0.048828125
325,0.0205078125,-0.9580078125,-0.0498046875
326,0.021484375,-0.9541015625,-0.0498046875
327,0.0234375,-0.953125,-0.0478515625
328,0.0234375,-0.9560546875,-0.0478515625
329,0.01953125,-0.9560546875,-0.0458984375
330,0.017578125,-0.9560546875,-0.0478515625
331,0.0205078125,-0.9541015625,-0.0478515625
332,0.0244140625,-0.955078125,-0.048828125
333,0.025390625,-0.953125,-0.05078125
334,0.0234375,-0.9560546875,-0.05078125
335,0.025390625,-0.9521484375,-0.0458984375
336,0.0244140625,-0.94921875,-0.0517578125
337,0.0244140625,-0.9541015625,-0.0517578125
338,0.0234375,-0.951171875,-0.0556640625
339,0.0224609375,-0.953125,-0.0478515625
340,0.0224609375,-0.9521484375,-0.05078125
341,0.025390625,-0.955078125,-0.0517578125
342,0.025390625,-0.9638671875,-0.0498046875
343,0.0224609375,-0.97265625,-0.052734375
344,0.0224609375,-0.9638671875,-0.048828125
345,0.0224609375,-0.958984375,-0.048828125
346,0.01953125,-0.97265625,-0.0478515625
347,0.0234375,-0.9716796875,-0.048828125
348,0.0205078125,-0.95703125,-0.0556640625
349,0.0244140625,-0.9638671875,-0.05078125
350,0.0234375,-0.9599609375,-0.0517578125
351,0.0302734375,-0.9521484375,-0.05078125
352,0.0244140625,-0.9541015625,-0.052734375
353,0.03125,-0.9560546875,-0.052734375
354,0.029296875,-0.951171875,-0.048828125
355,0.02734375,-0.9384765625,-0.0556640625
356,0.0244140625,-0.94921875,-0.046875
357,0.021484375,-0.9541015625,-0.048828125
358,0.021484375,-0.9580078125,-0.0546875
359,0.0185546875,-0.9560546875,-0.05859375
360,0.0224609375,-0.9541015625,-0.0498046875
361,0.021484375,-0.9638671875,-0.046875
362,0.0234375,-0.95703125,-0.0576171875
363,0.021484375,-0.9716796875,-0.0546875
364,0.0263671875,-0.9560546875,-0.0517578125
365,0.0244140625,-0.953125,-0.0546875
366,0.0234375,-0.95703125,-0.0556640625
367,0.0302734375,-0.9521484375,-0.0546875
368,0.025390625,-0.9462890625,-0.0595703125
369,0.0234375,-0.951171875,-0.0556640625
370,0.0234375,-0.9560546875,-0.0546875
371,0.0234375,-0.9521484375,-0.0595703125
372,0.01953125,-0.958984375,-0.0634765625
373,0.029296875,-0.9609375,-0.0634765625
374,0.021484375,-0.9560546875,-0.056640625
375,0.0234375,-0.9619140625,-0.060546875
376,0.021484375,-0.9521484375,-0.064453125
377,0.017578125,-0.953125,-0.0556640625
378,0.01953125,-0.9560546875,-0.0634765625
379,0.0166015625,-0.9580078125,-0.064453125
380,0.021484375,-0.9560546875,-0.0625
381,0.021484375,-0.9541015625,-0.060546875
382,0.0244140625,-0.9580078125,-0.0595703125
383,0.0234375,-0.9599609375,-0.052734375
384,0.0234375,-0.9482421875,-0.0634765625
385,0.0263671875,-0.94921875,-0.0546875
386,0.0244140625,-0.9580078125,-0.056640625
387,0.0263671875,-0.9560546875,-0.0556640625
388,0.025390625,-0.955078125,-0.0546875
389,0.0234375,-0.9560546875,-0.0556640625
390,0.0244140625,-0.953125,-0.0634765625
391,0.0244140625,-0.953125,-0.05859375
392,0.021484375,-0.955078125,-0.0556640625
393,0.0224609375,-0.9501953125,-0.0537109375
394,0.0224609375,-0.9453125,-0.0634765625
395,0.021484375,-0.95703125,-0.056640625
396,0.0234375,-0.9541015625,-0.0556640625
397,0.0205078125,-0.955078125,-0.056640625
398,0.021484375,-0.9541015625,-0.0576171875
399,0.0234375,-0.953125,-0.056640625
400,0.0244140625,-0.962890625,-0.0556640625
401,0.02734375,-0.9609375,-0.0537109375
402,0.0263671875,-0.9609375,-0.0517578125
403,0.0205078125,-0.95703125,-0.0576171875
404,0.0263671875,-0.9619140625,-0.0556640625
405,0.0224609375,-0.9716796875,-0.0576171875
406,0.025390625,-0.9541015625,-0.048828125
407,0.0234375,-0.955078125,-0.052734375
408,0.0302734375,-0.9541015625,-0.0546875
409,0.0302734375,-0.9541015625,-0.0595703125
410,0.025390625,-0.9541015625,-0.0576171875
411,0.02734375,-0.95703125,-0.052734375
412,0.021484375,-0.951171875,-0.0615234375
413,0.0302734375,-0.9541015625,-0.0595703125
414,0.0244140625,-0.955078125,-0.060546875
415,0.0244140625,-0.9619140625,-0.060546875
416,0.0263671875,-0.9580078125,-0.0615234375
417,0.025390625,-0.962890625,-0.05859375
418,0.0263671875,-0.95703125,-0.052734375
419,0.0234375,-0.9619140625,-0.0576171875
420,0.029296875,-0.9580078125,-0.0615234375
421,0.021484375,-0.9560546875,-0.060546875
422,0.0205078125,-0.95703125,-0.0576171875
423,0.0224609375,-0.95703125,-0.0615234375
424,0.021484375,-0.9677734375,-0.056640625
425,0.021484375,-0.96875,-0.060546875
426,0.0244140625,-0.955078125,-0.060546875
427,0.025390625,-0.9638671875,-0.0556640625
428,0.021484375,-0.9521484375,-0.0595703125
429,0.0205078125,-0.9560546875,-0.0595703125
430,0.0224609375,-0.953125,-0.0615234375
431,0.01953125,-0.958984375,-0.0615234375
432,0.0205078125,-0.955078125,-0.0556640625
433,0.0244140625,-0.955078125,-0.0634765625
434,0.0234375,-0.9541015625,-0.0537109375
435,0.0205078125,-0.9521484375,-0.05078125
436,0.021484375,-0.9638671875,-0.0546875
437,0.025390625,-0.9609375,-0.0576171875
438,0.0224609375,-0.953125,-0.0576171875
439,0.0224609375,-0.9609375,-0.052734375
440,0.021484375,-0.9599609375,-0.048828125
441,0.0234375,-0.958984375,-0.0556640625
442,0.0263671875,-0.96875,-0.0556640625
443,0.0205078125,-0.9580078125,-0.056640625
444,0.025390625,-0.9609375,-0.0556640625
445,0.021484375,-0.9541015625,-0.0478515625
446,0.021484375,-0.9599609375,-0.056640625
447,0.0234375,-0.962890625,-0.0556640625
448,0.0205078125,-0.9619140625,-0.0537109375
449,0.0205078125,-0.96484375,-0.060546875
450,0.0224609375,-0.955078125,-0.056640625
451,0.025390625,-0.9541015625,-0.0556640625
452,0.0224609375,-0.9560546875,-0.05859375
453,0.0234375,-0.95703125,-0.05859375
454,0.021484375,-0.9580078125,-0.0517578125
455,0.021484375,-0.9609375,-0.052734375
456,0.0224609375,-0.955078125,-0.05078125
457,0.0224609375,-0.9599609375,-0.0576171875
458,0.021484375,-0.955078125,-0.0556640625
459,0.0263671875,-0.9697265625,-0.052734375
460,0.025390625,-0.958984375,-0.0556640625
461,0.0205078125,-0.9697265625,-0.0498046875
462,0.01953125,-0.95703125,-0.056640625
463,0.0205078125,-0.96875,-0.0546875
464,0.0205078125,-0.9560546875,-0.0498046875
465,0.0205078125,-0.958984375,-0.0595703125
466,0.0185546875,-0.9580078125,-0.0517578125
467,0.0166015625,-0.962890625,-0.0615234375
468,0.01953125,-0.951171875,-0.05078125
469,0.0146484375,-0.9521484375,-0.0576171875
470,0.0146484375,-0.955078125,-0.05078125
471,0.017578125,-0.9541015625,-0.0537109375
472,0.01953125,-0.953125,-0.0556640625
473,0.0166015625,-0.9541015625,-0.048828125
474,0.017578125,-0.951171875,-0.0517578125
475,0.0166015625,-0.9541015625,-0.0498046875
476,0.0185546875,-0.9541015625,-0.0478515625
477,0.017578125,-0.9560546875,-0.05078125
478,0.0146484375,-0.958984375,-0.052734375
479,0.017578125,-0.9541015625,-0.05078125
480,0.0185546875,-0.9560546875,-0.052734375
481,0.013671875,-0.953125,-0.05078125
482,0.01953125,-0.955078125,-0.0458984375
483,0.0166015625,-0.9619140625,-0.044921875
484,0.01171875,-0.95703125,-0.0478515625
485,0.0166015625,-0.958984375,-0.056640625
486,0.0205078125,-0.95703125,-0.0517578125
487,0.01953125,-0.9619140625,-0.052734375
488,0.0185546875,-0.9580078125,-0.052734375
489,0.021484375,-0.9580078125,-0.052734375
490,0.0224609375,-0.958984375,-0.046875
491,0.0185546875,-0.95703125,-0.0537109375
492,0.021484375,-0.9541015625,-0.056640625
493,0.0244140625,-0.9638671875,-0.0556640625
494,0.0205078125,-0.951171875,-0.048828125
495,0.0205078125,-0.951171875,-0.0478515625
496,0.021484375,-0.953125,-0.0458984375
497,0.01953125,-0.9541015625,-0.046875
498,0.0185546875,-0.9560546875,-0.05078125
499,0.0205078125,-0.9541015625,-0.048828125
500,0.0205078125,-0.9658203125,-0.0517578125
501,0.0205078125,-0.9619140625,-0.046875
502,0.0185546875,-0.9580078125,-0.048828125
503,0.0185546875,-0.95703125,-0.048828125
504,0.0205078125,-0.9599609375,-0.046875
505,0.01953125,-0.9580078125,-0.046875
506,0.021484375,-0.9599609375,-0.046875
507,0.021484375,-0.955078125,-0.0458984375
508,0.0185546875,-0.955078125,-0.0458984375
509,0.0234375,-0.9560546875,-0.05078125
510,0.021484375,-0.9541015625,-0.04296875
511,0.021484375,-0.95703125,-0.0478515625
512,0.0224609375,-0.955078125,-0.0439453125
513,0.01953125,-0.9541015625,-0.0478515625
514,0.0224609375,-0.953125,-0.046875
515,0.01953125,-0.953125,-0.0478515625
516,0.01953125,-0.9599609375,-0.046875
517,0.0185546875,-0.95703125,-0.046875
518,0.0224609375,-0.9521484375,-0.0458984375
519,0.025390625,-0.9619140625,-0.0478515625
520,0.021484375,-0.962890625,-0.046875
521,0.021484375,-0.953125,-0.0458984375
522,0.017578125,-0.955078125,-0.046875
523,0.0224609375,-0.962890625,-0.0458984375
524,0.0224609375,-0.9638671875,-0.046875
525,0.0185546875,-0.962890625,-0.0458984375
526,0.01953125,-0.955078125,-0.0458984375
527,0.0234375,-0.9541015625,-0.044921875
528,0.01953125,-0.953125,-0.044921875
529,0.0205078125,-0.9599609375,-0.05078125
530,0.0224609375,-0.9619140625,-0.0478515625
531,0.0205078125,-0.958984375,-0.0458984375
532,0.0205078125,-0.962890625,-0.048828125
533,0.021484375,-0.9560546875,-0.0458984375
534,0.021484375,-0.953125,-0.044921875
535,0.0224609375,-0.9560546875,-0.0458984375
536,0.0205078125,-0.9580078125,-0.0458984375
537,0.0234375,-0.9599609375,-0.048828125
538,0.01953125,-0.955078125,-0.0498046875
539,0.0234375,-0.9521484375,-0.0458984375
540,0.0244140625,-0.9638671875,-0.0458984375
541,0.0205078125,-0.9560546875,-0.0458984375
542,0.0234375,-0.9677734375,-0.04296875
543,0.0263671875,-0.9638671875,-0.046875
544,0.02734375,-0.9638671875,-0.0458984375
545,0.02734375,-0.953125,-0.04296875
546,0.029296875,-0.9638671875,-0.046875
547,0.025390625,-0.9658203125,-0.0478515625
548,0.02734375,-0.9541015625,-0.0439453125
549,0.02734375,-0.9560546875,-0.0478515625
550,0.0224609375,-0.958984375,-0.044921875
551,0.021484375,-0.9677734375,-0.046875
552,0.0263671875,-0.953125,-0.044921875
553,0.0224609375,-0.9521484375,-0.046875
554,0.0283203125,-0.953125,-0.0458984375
555,0.025390625,-0.955078125,-0.04296875
556,0.0224609375,-0.9541015625,-0.0439453125
557,0.021484375,-0.9521484375,-0.0478515625
558,0.021484375,-0.955078125,-0.046875
559,0.025390625,-0.9560546875,-0.0478515625
560,0.0244140625,-0.955078125,-0.0478515625
561,0.0283203125,-0.9580078125,-0.046875
562,0.025390625,-0.9599609375,-0.046875
563,0.02734375,-0.9541015625,-0.046875
564,0.025390625,-0.958984375,-0.046875
565,0.02734375,-0.955078125,-0.0458984375
566,0.0244140625,-0.962890625,-0.0478515625
567,0.0234375,-0.9599609375,-0.0458984375
568,0.025390625,-0.95703125,-0.0478515625
569,0.0244140625,-0.958984375,-0.048828125
570,0.0244140625,-0.9638671875,-0.0458984375
571,0.021484375,-0.9560546875,-0.0439453125
572,0.0244140625,-0.955078125,-0.0439453125
573,0.0205078125,-0.95703125,-0.044921875
574,0.0263671875,-0.9501953125,-0.0478515625
575,0.0234375,-0.9541015625,-0.0458984375
576,0.0263671875,-0.951171875,-0.044921875
577,0.0244140625,-0.958984375,-0.0419921875
578,0.0234375,-0.95703125,-0.0458984375
579,0.0244140625,-0.953125,-0.0458984375
580,0.0234375,-0.9638671875,-0.044921875
581,0.025390625,-0.955078125,-0.048828125
582,0.0234375,-0.9599609375,-0.0458984375
583,0.0234375,-0.962890625,-0.044921875
584,0.0234375,-0.9541015625,-0.046875
585,0.0234375,-0.9638671875,-0.048828125
586,0.0205078125,-0.9599609375,-0.0458984375
587,0.0234375,-0.966796875,-0.044921875
588,0.0244140625,-0.96875,-0.044921875
589,0.025390625,-0.958984375,-0.044921875
590,0.0234375,-0.9638671875,-0.044921875
591,0.0283203125,-0.9677734375,-0.044921875
592,0.025390625,-0.955078125,-0.04296875
593,0.0244140625,-0.9541015625,-0.0439453125
594,0.02734375,-0.9560546875,-0.046875
595,0.0244140625,-0.9619140625,-0.04296875
596,0.02734375,-0.9580078125,-0.046875
597,0.0234375,-0.9560546875,-0.044921875
598,0.021484375,-0.96875,-0.0458984375
599,0.01953125,-0.9541015625,-0.046875
600,0.0234375,-0.951171875,-0.0458984375
601,0.0224609375,-0.9521484375,-0.05078125
602,0.0224609375,-0.951171875,-0.0458984375
603,0.0283203125,-0.951171875,-0.048828125
604,0.021484375,-0.9521484375,-0.048828125
605,0.01953125,-0.9560546875,-0.048828125
606,0.0263671875,-0.951171875,-0.05078125
607,0.0234375,-0.9521484375,-0.046875
608,0.0224609375,-0.962890625,-0.0439453125
609,0.0205078125,-0.953125,-0.044921875
610,0.017578125,-0.9609375,-0.0458984375
611,0.0185546875,-0.9658203125,-0.0458984375
612,0.017578125,-0.9658203125,-0.0439453125
613,0.0185546875,-0.958984375,-0.0478515625
614,0.0224609375,-0.96875,-0.0458984375
615,0.017578125,-0.9609375,-0.048828125
616,0.0166015625,-0.958984375,-0.0458984375
617,0.0205078125,-0.9560546875,-0.0478515625
618,0.0224609375,-0.962890625,-0.046875
619,0.021484375,-0.9599609375,-0.046875
620,0.0205078125,-0.951171875,-0.0478515625
621,0.0205078125,-0.955078125,-0.0478515625
622,0.0263671875,-0.951171875,-0.046875
623,0.021484375,-0.95703125,-0.046875
624,0.0234375,-0.951171875,-0.044921875
625,0.01953125,-0.9521484375,-0.0458984375
626,0.0244140625,-0.9599609375,-0.0478515625
627,0.0234375,-0.9482421875,-0.046875
628,0.0224609375,-0.9580078125,-0.041015625
629,0.021484375,-0.9521484375,-0.0439453125
630,0.0224609375,-0.9541015625,-0.0498046875
631,0.01953125,-0.9541015625,-0.0478515625
632,0.021484375,-0.955078125,-0.0498046875
633,0.0205078125,-0.951171875,-0.0458984375
634,0.0234375,-0.9541015625,-0.048828125
635,0.01953125,-0.9599609375,-0.048828125
636,0.0244140625,-0.9658203125,-0.0458984375
637,0.017578125,-0.9658203125,-0.046875
638,0.025390625,-0.962890625,-0.0478515625
639,0.021484375,-0.96875,-0.0478515625
640,0.0205078125,-0.9580078125,-0.0458984375
641,0.0224609375,-0.95703125,-0.0498046875
642,0.01953125,-0.95703125,-0.046875
643,0.0205078125,-0.9609375,-0.0458984375
644,0.01953125,-0.9599609375,-0.046875
645,0.0185546875,-0.9599609375,-0.0478515625
646,0.021484375,-0.9609375,-0.0478515625
647,0.0224609375,-0.962890625,-0.0478515625
648,0.0146484375,-0.962890625,-0.0478515625
649,0.021484375,-0.951171875,-0.0458984375
650,0.01953125,-0.95703125,-0.0458984375
651,0.0205078125,-0.962890625,-0.0458984375
652,0.0185546875,-0.95703125,-0.0478515625
653,0.01953125,-0.9560546875,-0.046875
654,0.0166015625,-0.95703125,-0.046875
655,0.017578125,-0.96484375,-0.0478515625
656,0.015625,-0.953125,-0.044921875
657,0.0166015625,-0.9619140625,-0.046875
658,0.0166015625,-0.9580078125,-0.0478515625
659,0.0146484375,-0.9521484375,-0.0478515625
660,0.0185546875,-0.9541015625,-0.048828125
661,0.017578125,-0.9541015625,-0.0478515625
662,0.0185546875,-0.958984375,-0.0458984375
663,0.01953125,-0.95703125,-0.046875
664,0.01953125,-0.970703125,-0.046875
665,0.0205078125,-0.95703125,-0.0458984375
666,0.021484375,-0.9560546875,-0.0458984375
667,0.0234375,-0.9580078125,-0.046875
668,0.0244140625,-0.9658203125,-0.0439453125
669,0.0224609375,-0.953125,-0.0478515625
670,0.0205078125,-0.958984375,-0.044921875
671,0.0263671875,-0.9619140625,-0.0478515625
672,0.021484375,-0.9560546875,-0.044921875
673,0.01953125,-0.9521484375,-0.048828125
674,0.0185546875,-0.953125,-0.048828125
675,0.01953125,-0.9501953125,-0.046875
676,0.0205078125,-0.95703125,-0.0537109375
677,0.021484375,-0.9521484375,-0.048828125
678,0.0205078125,-0.951171875,-0.052734375
679,0.0224609375,-0.9541015625,-0.048828125
680,0.0224609375,-0.955078125,-0.0498046875
681,0.0107421875,-0.9541015625,-0.0498046875
682,0.0126953125,-0.955078125,-0.0439453125
683,0.01953125,-0.9599609375,-0.04296875
684,0.013671875,-0.9716796875,-0.04296875
685,0.0205078125,-0.95703125,-0.0478515625
686,0.0234375,-0.958984375,-0.0478515625
687,0.021484375,-0.9541015625,-0.044921875
688,0.0205078125,-0.9580078125,-0.048828125
689,0.025390625,-0.958984375,-0.046875
690,0.0224609375,-0.9609375,-0.0390625
691,0.0234375,-0.955078125,-0.0458984375
692,0.021484375,-0.958984375,-0.04296875
693,0.0205078125,-0.9521484375,-0.0439453125
694,0.021484375,-0.951171875,-0.0478515625
695,0.0234375,-0.9521484375,-0.0478515625
696,0.0205078125,-0.951171875,-0.044921875
697,0.0205078125,-0.9560546875,-0.0458984375
698,0.017578125,-0.95703125,-0.044921875
699,0.0185546875,-0.9609375,-0.0439453125
700,0.0205078125,-0.9560546875,-0.0419921875
701,0.01953125,-0.9609375,-0.04296875
702,0.0224609375,-0.9619140625,-0.0458984375
703,0.015625,-0.9560546875,-0.0439453125
704,0.017578125,-0.958984375,-0.0478515625
705,0.017578125,-0.953125,-0.046875
706,0.01953125,-0.9638671875,-0.0478515625
707,0.0185546875,-0.953125,-0.0478515625
708,0.017578125,-0.9609375,-0.048828125
709,0.0166015625,-0.9580078125,-0.0458984375
710,0.0205078125,-0.9521484375,-0.0478515625
711,0.0224609375,-0.9541015625,-0.0458984375
712,0.01953125,-0.9560546875,-0.044921875
713,0.021484375,-0.958984375,-0.052734375
714,0.025390625,-0.9609375,-0.0478515625
715,0.021484375,-0.962890625,-0.0458984375
716,0.0185546875,-0.9658203125,-0.048828125
717,0.0205078125,-0.9619140625,-0.0478515625
718,0.021484375,-0.95703125,-0.046875
719,0.0224609375,-0.958984375,-0.0458984375
720,0.01953125,-0.9521484375,-0.05078125
721,0.0185546875,-0.9658203125,-0.0478515625
722,0.0224609375,-0.9560546875,-0.052734375
723,0.021484375,-0.9609375,-0.05078125
724,0.021484375,-0.95703125,-0.046875
725,0.0185546875,-0.962890625,-0.0478515625
726,0.0205078125,-0.9580078125,-0.0537109375
727,0.0224609375,-0.953125,-0.0498046875
728,0.0224609375,-0.953125,-0.0498046875
729,0.0244140625,-0.94921875,-0.0478515625
730,0.0234375,-0.95703125,-0.0517578125
731,0.0224609375,-0.9560546875,-0.046875
732,0.0205078125,-0.955078125,-0.05078125
733,0.0205078125,-0.9599609375,-0.0517578125
734,0.0185546875,-0.9638671875,-0.046875
735,0.021484375,-0.9580078125,-0.0517578125
736,0.021484375,-0.9638671875,-0.046875
737,0.0205078125,-0.958984375,-0.0478515625
738,0.0205078125,-0.95703125,-0.0498046875
739,0.025390625,-0.9755859375,-0.0478515625
740,0.021484375,-0.9677734375,-0.052734375
741,0.021484375,-0.9716796875,-0.0546875
742,0.0263671875,-0.962890625,-0.05078125
743,0.025390625,-0.955078125,-0.048828125
744,0.0244140625,-0.9580078125,-0.05078125
745,0.03125,-0.951171875,-0.05859375
746,0.0234375,-0.9580078125,-0.0595703125
747,0.0234375,-0.9501953125,-0.0576171875
748,0.0244140625,-0.947265625,-0.056640625
749,0.0263671875,-0.9453125,-0.060546875
750,0.02734375,-0.9501953125,-0.05078125
751,0.0302734375,-0.94921875,-0.0615234375
752,0.029296875,-0.951171875,-0.0498046875
753,0.025390625,-0.9482421875,-0.0595703125
754,0.0234375,-0.94921875,-0.05859375
755,0.0224609375,-0.955078125,-0.0576171875
756,0.0224609375,-0.9560546875,-0.060546875
757,0.0263671875,-0.9541015625,-0.0556640625
758,0.025390625,-0.9560546875,-0.05859375
759,0.0234375,-0.94921875,-0.0634765625
760,0.0224609375,-0.9599609375,-0.056640625
761,0.0283203125,-0.9658203125,-0.0556640625
762,0.0205078125,-0.96484375,-0.056640625
763,0.025390625,-0.9677734375,-0.0546875
764,0.021484375,-0.953125,-0.05078125
765,0.0205078125,-0.9541015625,-0.052734375
766,0.0205078125,-0.9638671875,-0.05078125
767,0.0205078125,-0.958984375,-0.052734375
768,0.0224609375,-0.9560546875,-0.0576171875
769,0.0205078125,-0.96875,-0.056640625
770,0.021484375,-0.9521484375,-0.0595703125
771,0.0224609375,-0.9541015625,-0.0556640625
772,0.0205078125,-0.955078125,-0.060546875
773,0.01953125,-0.96484375,-0.0576171875
774,0.0205078125,-0.9541015625,-0.056640625
775,0.0166015625,-0.95703125,-0.05859375
776,0.01953125,-0.955078125,-0.056640625
777,0.0224609375,-0.95703125,-0.0537109375
778,0.015625,-0.955078125,-0.0576171875
779,0.0205078125,-0.958984375,-0.0615234375
780,0.0185546875,-0.958984375,-0.052734375
781,0.0224609375,-0.9619140625,-0.0546875
782,0.021484375,-0.9609375,-0.056640625
783,0.0205078125,-0.9560546875,-0.0546875
784,0.021484375,-0.955078125,-0.0615234375
785,0.0244140625,-0.9619140625,-0.0615234375
786,0.0166015625,-0.9482421875,-0.060546875
787,0.0234375,-0.9482421875,-0.0595703125
788,0.021484375,-0.94921875,-0.0615234375
789,0.0234375,-0.953125,-0.060546875
790,0.0185546875,-0.9599609375,-0.05859375
791,0.0205078125,-0.95703125,-0.0634765625
792,0.0185546875,-0.95703125,-0.060546875
793,0.01953125,-0.951171875,-0.0625
794,0.01171875,-0.95703125,-0.0556640625
795,0.0146484375,-0.9619140625,-0.0615234375
796,0.01953125,-0.958984375,-0.064453125
797,0.02734375,-0.95703125,-0.0625
798,0.01953125,-0.962890625,-0.06640625
799,0.0166015625,-0.9580078125,-0.0576171875
800,0.0166015625,-0.9697265625,-0.052734375
801,0.0185546875,-0.96484375,-0.05078125
802,0.017578125,-0.9609375,-0.052734375
803,0.0185546875,-0.9541015625,-0.0615234375
804,0.0205078125,-0.955078125,-0.0615234375
805,0.021484375,-0.9521484375,-0.0595703125
806,0.0205078125,-0.958984375,-0.0595703125
807,0.0234375,-0.955078125,-0.0625
808,0.0205078125,-0.953125,-0.0625
809,0.0244140625,-0.9580078125,-0.0625
810,0.01953125,-0.951171875,-0.0634765625
811,0.0166015625,-0.955078125,-0.064453125
812,0.0234375,-0.953125,-0.064453125
813,0.021484375,-0.9541015625,-0.0615234375
814,0.0205078125,-0.9541015625,-0.06640625
815,0.021484375,-0.9560546875,-0.0625
816,0.015625,-0.95703125,-0.0615234375
817,0.017578125,-0.962890625,-0.0615234375
818,0.01953125,-0.9619140625,-0.064453125
819,0.0166015625,-0.96484375,-0.064453125
820,0.017578125,-0.97265625,-0.0625
821,0.0185546875,-0.96484375,-0.064453125
822,0.021484375,-0.9609375,-0.0556640625
823,0.01953125,-0.9638671875,-0.0625
824,0.0185546875,-0.9580078125,-0.064453125
825,0.0244140625,-0.9580078125,-0.0625
826,0.0205078125,-0.9521484375,-0.0634765625
827,0.021484375,-0.9619140625,-0.0615234375
828,0.0234375,-0.9619140625,-0.0625
829,0.0185546875,-0.9697265625,-0.064453125
830,0.0205078125,-0.955078125,-0.068359375
831,0.021484375,-0.955078125,-0.0693359375
832,0.0185546875,-0.95703125,-0.0625
833,0.0185546875,-0.955078125,-0.0673828125
834,0.01953125,-0.9677734375,-0.0693359375
835,0.0224609375,-0.955078125,-0.068359375
836,0.01953125,-0.958984375,-0.0703125
837,0.017578125,-0.9609375,-0.0693359375
838,0.0185546875,-0.96484375,-0.0693359375
839,0.0224609375,-0.955078125,-0.068359375
840,0.021484375,-0.9658203125,-0.0673828125
841,0.0205078125,-0.955078125,-0.0673828125
842,0.0205078125,-0.955078125,-0.0693359375
843,0.01953125,-0.9619140625,-0.0703125
844,0.02734375,-0.9736328125,-0.06640625
845,0.0234375,-0.9619140625,-0.0673828125
846,0.0263671875,-0.953125,-0.06640625
847,0.0224609375,-0.9560546875,-0.0654296875
848,0.021484375,-0.9560546875,-0.068359375
849,0.0224609375,-0.955078125,-0.0712890625
850,0.0244140625,-0.9697265625,-0.068359375
851,0.0244140625,-0.9619140625,-0.0634765625
852,0.0244140625,-0.9560546875,-0.0751953125
853,0.0205078125,-0.9619140625,-0.0693359375
854,0.0244140625,-0.9560546875,-0.0693359375
855,0.021484375,-0.955078125,-0.07421875
856,0.0224609375,-0.951171875,-0.0703125
857,0.0224609375,-0.953125,-0.0712890625
858,0.02734375,-0.9560546875,-0.0654296875
859,0.0341796875,-0.951171875,-0.0712890625
860,0.021484375,-0.953125,-0.068359375
861,0.021484375,-0.94921875,-0.072265625
862,0.0185546875,-0.9638671875,-0.064453125
863,0.0224609375,-0.9541015625,-0.0576171875
864,0.0234375,-0.958984375,-0.0634765625
865,0.0234375,-0.9521484375,-0.0673828125
866,0.021484375,-0.9521484375,-0.068359375
867,0.021484375,-0.9580078125,-0.068359375
868,0.0224609375,-0.95703125,-0.06640625
869,0.021484375,-0.9560546875,-0.0693359375
870,0.021484375,-0.958984375,-0.068359375
871,0.0244140625,-0.9560546875,-0.06640625
872,0.0205078125,-0.9541015625,-0.068359375
873,0.0234375,-0.9658203125,-0.0703125
874,0.0185546875,-0.970703125,-0.068359375
875,0.01953125,-0.9560546875,-0.064453125
876,0.0224609375,-0.962890625,-0.0673828125
877,0.01953125,-0.9658203125,-0.0673828125
878,0.0224609375,-0.9541015625,-0.0634765625
879,0.01953125,-0.9541015625,-0.072265625
880,0.021484375,-0.95703125,-0.06640625
881,0.03125,-0.9609375,-0.072265625
882,0.0185546875,-0.9541015625,-0.07421875
883,0.015625,-0.95703125,-0.068359375
884,0.021484375,-0.9541015625,-0.0634765625
885,0.021484375,-0.955078125,-0.060546875
886,0.021484375,-0.95703125,-0.0654296875
887,0.021484375,-0.9580078125,-0.064453125
888,0.01953125,-0.955078125,-0.064453125
889,0.0205078125,-0.9521484375,-0.072265625
890,0.0224609375,-0.9677734375,-0.064453125
891,0.0234375,-0.95703125,-0.0654296875
892,0.01953125,-0.95703125,-0.064453125
893,0.0205078125,-0.96484375,-0.0634765625
894,0.017578125,-0.966796875,-0.0625
895,0.01953125,-0.9619140625,-0.0654296875
896,0.021484375,-0.95703125,-0.0625
897,0.021484375,-0.95703125,-0.0654296875
898,0.0185546875,-0.955078125,-0.068359375
899,0.0205078125,-0.9521484375,-0.0673828125
900,0.021484375,-0.9697265625,-0.064453125
901,0.01953125,-0.9580078125,-0.064453125
902,0.017578125,-0.9619140625,-0.0654296875
903,0.01953125,-0.9677734375,-0.06640625
904,0.0224609375,-0.962890625,-0.06640625
905,0.01953125,-0.962890625,-0.064453125
906,0.0185546875,-0.955078125,-0.0634765625
907,0.0205078125,-0.9619140625,-0.0595703125
908,0.01953125,-0.958984375,-0.0634765625
909,0.01953125,-0.9560546875,-0.0625
910,0.0185546875,-0.9560546875,-0.0615234375
911,0.0205078125,-0.9619140625,-0.0615234375
912,0.0205078125,-0.953125,-0.0615234375
913,0.0205078125,-0.955078125,-0.060546875
914,0.01953125,-0.955078125,-0.0615234375
915,0.021484375,-0.953125,-0.0546875
916,0.01953125,-0.9609375,-0.0625
917,0.01953125,-0.95703125,-0.0625
918,0.021484375,-0.9541015625,-0.0615234375
919,0.0224609375,-0.96484375,-0.0615234375
920,0.0234375,-0.9658203125,-0.060546875
921,0.0234375,-0.96484375,-0.0625
922,0.0224609375,-0.9599609375,-0.05859375
923,0.0234375,-0.958984375,-0.05859375
924,0.0263671875,-0.9638671875,-0.0537109375
925,0.021484375,-0.962890625,-0.0625
926,0.0263671875,-0.96875,-0.0634765625
927,0.025390625,-0.966796875,-0.060546875
928,0.03515625,-0.95703125,-0.0576171875
929,0.033203125,-0.951171875,-0.0595703125
930,0.0224609375,-0.9521484375,-0.0625
931,0.03125,-0.953125,-0.060546875
932,0.021484375,-0.9521484375,-0.060546875
933,0.01953125,-0.953125,-0.056640625
934,0.0302734375,-0.955078125,-0.056640625
935,0.0283203125,-0.95703125,-0.0625
936,0.013671875,-0.9541015625,-0.0576171875
937,0.021484375,-0.9541015625,-0.0537109375
938,0.017578125,-0.9560546875,-0.0478515625
939,0.01953125,-0.9560546875,-0.0498046875
940,0.0234375,-0.9609375,-0.0498046875
941,0.021484375,-0.9609375,-0.0537109375
942,0.021484375,-0.9697265625,-0.0556640625
943,0.01953125,-0.962890625,-0.0595703125
944,0.0205078125,-0.955078125,-0.0556640625
945,0.021484375,-0.9677734375,-0.0498046875
946,0.0244140625,-0.962890625,-0.0576171875
947,0.0263671875,-0.9501953125,-0.0556640625
948,0.021484375,-0.9521484375,-0.05078125
949,0.0244140625,-0.9462890625,-0.0498046875
950,0.029296875,-0.9482421875,-0.048828125
951,0.0224609375,-0.9521484375,-0.0498046875
952,0.0234375,-0.9521484375,-0.052734375
953,0.0244140625,-0.9541015625,-0.044921875
954,0.029296875,-0.9501953125,-0.0458984375
955,0.03515625,-0.95703125,-0.0439453125
956,0.041015625,-0.955078125,-0.0478515625
957,0.025390625,-0.9521484375,-0.0478515625
958,0.037109375,-0.951171875,-0.0478515625
959,0.0380859375,-0.951171875,-0.0458984375
960,0.0361328125,-0.9462890625,-0.0478515625
961,0.044921875,-0.9482421875,-0.048828125
962,0.0478515625,-0.9453125,-0.052734375
963,0.0390625,-0.94921875,-0.048828125
964,0.03125,-0.9462890625,-0.0458984375
965,0.033203125,-0.947265625,-0.0400390625
966,0.033203125,-0.94921875,-0.04296875
967,0.0556640625,-0.951171875,-0.0478515625
968,0.021484375,-0.943359375,-0.0458984375
969,0.0322265625,-0.9609375,-0.03515625
970,0.0185546875,-0.94921875,-0.0322265625
971,0.0244140625,-0.94921875,-0.029296875
972,0.0205078125,-0.9541015625,-0.03515625
973,0.033203125,-0.96875,-0.0400390625
974,0.02734375,-0.970703125,-0.0361328125
975,0.0244140625,-0.970703125,-0.03125
976,0.021484375,-0.9697265625,-0.0322265625
977,0.0283203125,-0.9736328125,-0.0302734375
978,0.033203125,-0.9755859375,-0.025390625
979,0.0302734375,-0.9775390625,-0.02734375
980,0.0302734375,-0.9755859375,-0.025390625
981,0.0322265625,-0.9638671875,-0.0234375
982,0.037109375,-0.9755859375,-0.0224609375
983,0.033203125,-0.9755859375,-0.025390625
984,0.03125,-0.9697265625,-0.0244140625
985,0.029296875,-0.9755859375,-0.0244140625
986,0.033203125,-0.974609375,-0.021484375
987,0.03515625,-0.9677734375,-0.0224609375
988,0.0341796875,-0.953125,-0.0244140625
989,0.037109375,-0.9697265625,-0.029296875
990,0.03125,-0.9609375,-0.025390625
991,0.01953125,-0.9580078125,-0.015625
992,0.0205078125,-0.9677734375,-0.0087890625
993,0.01953125,-0.96875,-0.0126953125
994,0.0205078125,-0.9755859375,-0.015625
995,0.01953125,-0.9755859375,-0.015625
996,0.017578125,-0.970703125,-0.01953125
997,0.017578125,-0.97265625,-0.0224609375
998,0.01953125,-0.9755859375,-0.0244140625
999,0.01953125,-0.9765625,-0.0234375
1000,0.0185546875,-0.9658203125,-0.0185546875
1001,0.01953125,-0.9716796875,-0.0234375
1002,0.0205078125,-0.9580078125,-0.025390625
1003,0.01953125,-0.966796875,-0.0263671875
1004,0.01953125,-0.9609375,-0.0185546875
1005,0.0205078125,-0.95703125,-0.01953125
1006,0.0234375,-0.9541015625,-0.01953125
1007,0.0244140625,-0.951171875,-0.0283203125
1008,0.0302734375,-0.951171875,-0.0234375
1009,0.02734375,-0.953125,-0.0244140625
1010,0.0224609375,-0.9521484375,-0.0283203125
1011,0.02734375,-0.953125,-0.02734375
1012,0.021484375,-0.951171875,-0.02734375
1013,0.033203125,-0.9521484375,-0.0234375
1014,0.0283203125,-0.947265625,-0.0302734375
1015,0.0263671875,-0.94921875,-0.029296875
1016,0.0205078125,-0.951171875,-0.02734375
1017,0.021484375,-0.951171875,-0.029296875
1018,0.0224609375,-0.9501953125,-0.0224609375
1019,0.0244140625,-0.962890625,-0.029296875
1020,0.0205078125,-0.9609375,-0.0234375
1021,0.0146484375,-0.95703125,-0.0263671875
1022,0.0166015625,-0.97265625,-0.0283203125
1023,0.0126953125,-0.970703125,-0.025390625
1024,0.013671875,-0.97265625,-0.0322265625
1025,0.0166015625,-0.9658203125,-0.0322265625
1026,0.0126953125,-0.9755859375,-0.03515625
1027,0.0166015625,-0.9755859375,-0.0322265625
1028,0.0166015625,-0.9755859375,-0.03125
1029,0.0146484375,-0.9716796875,-0.029296875
1030,0.021484375,-0.96484375,-0.033203125
1031,0.01953125,-0.96484375,-0.0302734375
1032,0.0224609375,-0.966796875,-0.033203125
1033,0.0283203125,-0.9619140625,-0.03125
1034,0.0166015625,-0.955078125,-0.03125
1035,0.0263671875,-0.94921875,-0.033203125
1036,0.0146484375,-0.9541015625,-0.03125
1037,0.0224609375,-0.951171875,-0.041015625
1038,0.01953125,-0.962890625,-0.03515625
1039,0.009765625,-0.96875,-0.033203125
1040,0.01171875,-0.974609375,-0.0302734375
1041,0.0087890625,-0.966796875,-0.033203125
1042,0.0126953125,-0.9755859375,-0.037109375
1043,0.0126953125,-0.9755859375,-0.0400390625
1044,0.009765625,-0.966796875,-0.0390625
1045,0.01171875,-0.974609375,-0.044921875
1046,0.0166015625,-0.9755859375,-0.0458984375
1047,0.009765625,-0.9580078125,-0.044921875
1048,0.013671875,-0.951171875,-0.04296875
1049,0.0224609375,-0.947265625,-0.0478515625
1050,0.025390625,-0.9501953125,-0.052734375
1051,0.03125,-0.9501953125,-0.046875
1052,0.03125,-0.95703125,-0.0537109375
1053,0.0322265625,-0.94921875,-0.060546875
1054,0.037109375,-0.951171875,-0.0498046875
1055,0.037109375,-0.9521484375,-0.05078125
1056,0.04296875,-0.9521484375,-0.05078125
1057,0.05078125,-0.9462890625,-0.048828125
1058,0.0498046875,-0.9482421875,-0.0537109375
1059,0.0537109375,-0.9462890625,-0.060546875
1060,0.056640625,-0.9443359375,-0.064453125
1061,0.0517578125,-0.9462890625,-0.06640625
1062,0.0439453125,-0.94140625,-0.0703125
1063,0.048828125,-0.9443359375,-0.0751953125
1064,0.046875,-0.939453125,-0.0712890625
1065,0.04296875,-0.94140625,-0.0751953125
1066,0.0439453125,-0.943359375,-0.0712890625
1067,0.0419921875,-0.9423828125,-0.0712890625
1068,0.046875,-0.9462890625,-0.068359375
1069,0.05078125,-0.947265625,-0.0634765625
1070,0.052734375,-0.9580078125,-0.0634765625
1071,0.0537109375,-0.94921875,-0.06640625
1072,0.0498046875,-0.94921875,-0.06640625
1073,0.0595703125,-0.947265625,-0.0712890625
1074,0.0576171875,-0.9462890625,-0.06640625
1075,0.0576171875,-0.94921875,-0.0654296875
1076,0.0693359375,-0.955078125,-0.0673828125
1077,0.068359375,-0.95703125,-0.0625
1078,0.064453125,-0.9521484375,-0.0634765625
1079,0.06640625,-0.9521484375,-0.0673828125
1080,0.0595703125,-0.955078125,-0.06640625
1081,0.0576171875,-0.953125,-0.064453125
1082,0.0556640625,-0.9521484375,-0.06640625
1083,0.0546875,-0.951171875,-0.06640625
1084,0.044921875,-0.9521484375,-0.064453125
1085,0.0390625,-0.947265625,-0.0595703125
1086,0.0498046875,-0.9541015625,-0.0615234375
1087,0.04296875,-0.94921875,-0.0556640625
1088,0.046875,-0.9453125,-0.064453125
1089,0.0498046875,-0.9482421875,-0.068359375
1090,0.048828125,-0.9384765625,-0.0673828125
1091,0.0400390625,-0.9306640625,-0.072265625
1092,0.044921875,-0.9345703125,-0.078125
1093,0.0380859375,-0.931640625,-0.0751953125
1094,0.0478515625,-0.9287109375,-0.07421875
1095,0.041015625,-0.9384765625,-0.0732421875
1096,0.0419921875,-0.9404296875,-0.064453125
1097,0.0390625,-0.943359375,-0.0595703125
1098,0.041015625,-0.94140625,-0.0546875
1099,0.04296875,-0.94140625,-0.064453125
1100,0.04296875,-0.943359375,-0.0595703125
1101,0.0498046875,-0.939453125,-0.0556640625
1102,0.052734375,-0.9384765625,-0.0537109375
1103,0.0478515625,-0.9306640625,-0.05859375
1104,0.05078125,-0.935546875,-0.0595703125
1105,0.0478515625,-0.9345703125,-0.064453125
1106,0.048828125,-0.9365234375,-0.0654296875
1107,0.0498046875,-0.94140625,-0.0634765625
1108,0.0478515625,-0.943359375,-0.0634765625
1109,0.044921875,-0.9482421875,-0.060546875
1110,0.04296875,-0.9443359375,-0.0634765625
1111,0.041015625,-0.94921875,-0.05859375
1112,0.0439453125,-0.966796875,-0.0615234375
1113,0.041015625,-0.958984375,-0.0478515625
1114,0.041015625,-0.9755859375,-0.05078125
1115,0.03125,-0.9638671875,-0.0478515625
1116,0.0380859375,-0.9755859375,-0.0498046875
1117,0.041015625,-0.9609375,-0.046875
1118,0.0380859375,-0.96484375,-0.046875
1119,0.0419921875,-0.9580078125,-0.052734375
1120,0.04296875,-0.95703125,-0.060546875
1121,0.04296875,-0.9609375,-0.0634765625
1122,0.0322265625,-0.9560546875,-0.060546875
1123,0.0361328125,-0.9580078125,-0.0595703125
1124,0.0283203125,-0.9658203125,-0.048828125
1125,0.021484375,-0.9736328125,-0.0478515625
1126,0.0146484375,-0.9560546875,-0.0498046875
1127,0.0205078125,-0.9560546875,-0.0458984375
1128,0.0283203125,-0.9521484375,-0.0439453125
1129,0.0126953125,-0.94921875,-0.0458984375
1130,0.0205078125,-0.935546875,-0.0546875
1131,0.013671875,-0.9423828125,-0.05859375
1132,0.0166015625,-0.9404296875,-0.056640625
1133,0.0205078125,-0.939453125,-0.0498046875
1134,0.0244140625,-0.9326171875,-0.046875
1135,0.0234375,-0.9287109375,-0.0478515625
1136,0.0283203125,-0.927734375,-0.0498046875
1137,0.0263671875,-0.9296875,-0.06640625
1138,0.0400390625,-0.9267578125,-0.0615234375
1139,0.0166015625,-0.9404296875,-0.0615234375
1140,0.0380859375,-0.9384765625,-0.0625
1141,0.0361328125,-0.9384765625,-0.0751953125
1142,0.0263671875,-0.9404296875,-0.0810546875
1143,0.0419921875,-0.9345703125,-0.087890625
1144,0.0439453125,-0.935546875,-0.0869140625
1145,0.04296875,-0.93359375,-0.1005859375
1146,0.0498046875,-0.9287109375,-0.1005859375
1147,0.0615234375,-0.9267578125,-0.1142578125
1148,0.064453125,-0.912109375,-0.1201171875
1149,0.0615234375,-0.8974609375,-0.1279296875
1150,0.0654296875,-0.8916015625,-0.1416015625
1151,0.0703125,-0.875,-0.146484375
1152,0.08203125,-0.8583984375,-0.162109375
1153,0.087890625,-0.8486328125,-0.1787109375
1154,0.091796875,-0.833984375,-0.193359375
1155,0.099609375,-0.8134765625,-0.2041015625
1156,0.1015625,-0.810546875,-0.21484375
1157,0.1044921875,-0.791015625,-0.2353515625
1158,0.115234375,-0.7734375,-0.2431640625
1159,0.1240234375,-0.767578125,-0.255859375
1160,0.1357421875,-0.7578125,-0.265625
1161,0.150390625,-0.7451171875,-0.2705078125
1162,0.16796875,-0.73828125,-0.2744140625
1163,0.1689453125,-0.740234375,-0.2890625
1164,0.1826171875,-0.732421875,-0.2958984375
1165,0.1884765625,-0.7333984375,-0.30859375
1166,0.193359375,-0.7333984375,-0.3203125
1167,0.1083984375,-0.740234375,-0.3310546875
1168,0.171875,-0.7578125,-0.3154296875
1169,0.1591796875,-0.7685546875,-0.3125
1170,0.193359375,-0.7666015625,-0.3125
1171,0.13671875,-0.73046875,-0.3583984375
1172,0.123046875,-0.7109375,-0.3984375
1173,0.09375,-0.67578125,-0.4296875
1174,0.048828125,-0.6611328125,-0.4521484375
1175,0.015625,-0.6494140625,-0.462890625
1176,-0.0146484375,-0.6484375,-0.482421875
1177,-0.0419921875,-0.62890625,-0.501953125
1178,-0.06640625,-0.59765625,-0.51953125
1179,-0.10546875,-0.5771484375,-0.5439453125
1180,-0.123046875,-0.537109375,-0.5654296875
1181,-0.13671875,-0.509765625,-0.57421875
1182,-0.1923828125,-0.4765625,-0.58203125
1183,-0.1669921875,-0.474609375,-0.54296875
1184,-0.1474609375,-0.4560546875,-0.5205078125
1185,-0.14453125,-0.4375,-0.5078125
1186,-0.1513671875,-0.4423828125,-0.4775390625
1187,-0.146484375,-0.451171875,-0.4287109375
1188,-0.1650390625,-0.4873046875,-0.3779296875
1189,-0.1689453125,-0.5322265625,-0.28515625
1190,-0.1083984375,-0.6181640625,-0.1728515625
1191,-0.09765625,-0.69140625,-0.080078125
1192,-0.0615234375,-0.74609375,0.005859375
1193,-0.0634765625,-0.7919921875,0.0869140625
1194,-0.0166015625,-0.8486328125,0.1484375
1195,0.005859375,-0.8779296875,0.2060546875
1196,0.017578125,-0.9111328125,0.2275390625
1197,0.0087890625,-0.927734375,0.2353515625
1198,0.0205078125,-0.9677734375,0.2412109375
1199,0.0390625,-0.9853515625,0.201171875
1200,0.0302734375,-0.994140625,0.0908203125
1201,0.0498046875,-0.98828125,-0.001953125
1202,0.0703125,-0.9990234375,-0.1123046875
1203,0.0712890625,-0.99609375,-0.2724609375
1204,0.1083984375,-0.9384765625,-0.388671875
1205,0.2021484375,-0.9287109375,-0.4013671875
1206,0.17578125,-0.880859375,-0.4501953125
1207,0.16796875,-0.8251953125,-0.4912109375
1208,0.1494140625,-0.8017578125,-0.5078125
1209,0.1083984375,-0.7607421875,-0.4853515625
1210,0.0859375,-0.712890625,-0.478515625
1211,0.068359375,-0.662109375,-0.4326171875
1212,0.072265625,-0.650390625,-0.373046875
1213,0.115234375,-0.6328125,-0.3115234375
1214,0.1318359375,-0.6171875,-0.2802734375
1215,0.1640625,-0.6328125,-0.263671875
1216,0.1484375,-0.6865234375,-0.2783203125
1217,0.107421875,-0.7451171875,-0.2900390625
1218,0.080078125,-0.7861328125,-0.314453125
1219,0.025390625,-0.8017578125,-0.3369140625
1220,0.0009765625,-0.80859375,-0.38671875
1221,-0.01171875,-0.8291015625,-0.390625
1222,-0.0400390625,-0.8642578125,-0.357421875
1223,-0.0732421875,-0.9072265625,-0.3271484375
1224,-0.0791015625,-0.9384765625,-0.3115234375
1225,-0.0625,-0.9697265625,-0.26953125
1226,-0.0166015625,-1.005859375,-0.25390625
1227,0.05078125,-0.9912109375,-0.2509765625
1228,0.107421875,-0.986328125,-0.25
1229,0.14453125,-0.97265625,-0.2548828125
1230,0.1728515625,-0.9453125,-0.2822265625
1231,0.181640625,-0.9365234375,-0.2939453125
1232,0.17578125,-0.9208984375,-0.32421875
1233,0.1337890625,-0.8994140625,-0.349609375
1234,0.083984375,-0.88671875,-0.375
1235,0.017578125,-0.8759765625,-0.41015625
1236,-0.021484375,-0.8203125,-0.4345703125
1237,-0.05859375,-0.7822265625,-0.46875
1238,-0.072265625,-0.7294921875,-0.48046875
1239,-0.103515625,-0.6591796875,-0.5009765625
1240,-0.1240234375,-0.609375,-0.494140625
1241,-0.1025390625,-0.5810546875,-0.4775390625
1242,-0.06640625,-0.57421875,-0.4453125
1243,-0.021484375,-0.5673828125,-0.4033203125
1244,-0.0263671875,-0.5947265625,-0.3291015625
1245,0.015625,-0.5986328125,-0.2919921875
1246,0.0498046875,-0.5927734375,-0.2392578125
1247,0.154296875,-0.619140625,-0.2216796875
1248,0.23046875,-0.5859375,-0.2177734375
1249,0.2841796875,-0.5830078125,-0.2919921875
1250,0.3251953125,-0.5556640625,-0.3525390625
1251,0.333984375,-0.533203125,-0.37109375
1252,0.3203125,-0.5224609375,-0.36328125
1253,0.3115234375,-0.60546875,-0.341796875
1254,0.3076171875,-0.58203125,-0.28125
1255,0.2939453125,-0.603515625,-0.201171875
1256,0.2685546875,-0.63671875,-0.154296875
1257,0.208984375,-0.6328125,-0.1396484375
1258,0.1884765625,-0.62109375,-0.1328125
1259,0.099609375,-0.572265625,-0.140625
1260,0.029296875,-0.5615234375,-0.119140625
1261,-0.005859375,-0.5185546875,-0.1064453125
1262,-0.0576171875,-0.4794921875,-0.115234375
1263,-0.0859375,-0.435546875,-0.125
1264,-0.09765625,-0.380859375,-0.1015625
1265,-0.125,-0.349609375,-0.076171875
1266,-0.13671875,-0.34765625,-0.0546875
1267,-0.1767578125,-0.357421875,-0.009765625
1268,-0.2060546875,-0.37109375,0.060546875
1269,-0.2177734375,-0.3681640625,0.1123046875
1270,-0.24609375,-0.357421875,0.1923828125
1271,-0.255859375,-0.3896484375,0.2451171875
1272,-0.2548828125,-0.39453125,0.287109375
1273,-0.240234375,-0.39453125,0.30078125
1274,-0.2158203125,-0.4052734375,0.26953125
1275,-0.193359375,-0.404296875,0.2197265625
1276,-0.162109375,-0.4013671875,0.1484375
1277,-0.1416015625,-0.3876953125,0.087890625
1278,-0.1533203125,-0.3740234375,-0.0068359375
1279,-0.177734375,-0.3525390625,-0.09375
1280,-0.2314453125,-0.3466796875,-0.1396484375
1281,-0.2197265625,-0.3681640625,-0.1806640625
1282,-0.1708984375,-0.40625,-0.142578125
1283,-0.140625,-0.4404296875,-0.0634765625
1284,-0.138671875,-0.46875,0.02734375
1285,-0.1064453125,-0.4921875,0.080078125
1286,-0.0703125,-0.50390625,0.115234375
1287,-0.01953125,-0.51953125,0.12109375
1288,0.0380859375,-0.52734375,0.12890625
1289,0.0927734375,-0.546875,0.1240234375
1290,0.08203125,-0.5751953125,0.1298828125
1291,0.0625,-0.6201171875,0.173828125
1292,0.0634765625,-0.662109375,0.2373046875
1293,0.0048828125,-0.7099609375,0.2802734375
1294,-0.00390625,-0.775390625,0.2919921875
1295,-0.0126953125,-0.888671875,0.3798828125
1296,-0.1259765625,-0.9912109375,0.4267578125
1297,-0.208984375,-1.01953125,0.498046875
1298,-0.2998046875,-1.1669921875,0.568359375
1299,-0.5400390625,-1.21484375,0.7119140625
1300,-0.8388671875,-1.52734375,0.87890625
1301,-1.2177734375,-1.7080078125,1.0703125
1302,-1.517578125,-2.1904296875,1.1787109375
1303,-1.955078125,-2.6064453125,1.4072265625
1304,-2.458984375,-3.3134765625,1.6962890625
1305,-3.1884765625,-4.4501953125,1.8701171875
1306,-3.900390625,-5.61328125,2.033203125
1307,-4.638671875,-6.42578125,2.1396484375
1308,-4.8447265625,-6.4501953125,1.7392578125
1309,-3.8115234375,-5.5810546875,0.7734375
1310,-3.33984375,-4.619140625,-0.00390625
1311,-2.3349609375,-3.4892578125,0.0595703125
1312,-1.1416015625,-2.142578125,0.4072265625
1313,0.099609375,-1.3779296875,0.8359375
1314,0.90234375,-1.244140625,1.228515625
1315,0.849609375,-1.392578125,1.64453125
1316,0.86328125,-1.4013671875,1.71484375
1317,0.845703125,-1.318359375,1.3642578125
1318,0.6982421875,-1.12109375,0.908203125
1319,0.44921875,-0.87109375,0.5791015625
1320,0.18359375,-0.572265625,0.427734375
1321,-0.2978515625,-0.3115234375,0.4677734375
1322,-0.572265625,-0.1201171875,0.578125
1323,-0.7314453125,-0.11328125,0.6220703125
1324,-0.73828125,-0.3759765625,0.552734375
1325,-0.6767578125,-0.6982421875,0.4833984375
1326,-0.5244140625,-0.98046875,0.427734375
1327,-0.38671875,-1.1689453125,0.4443359375
1328,-0.140625,-1.1845703125,0.45703125
1329,0.1162109375,-1.1259765625,0.44140625
1330,0.30859375,-1.0087890625,0.3291015625
1331,0.3955078125,-0.9267578125,0.2060546875
1332,0.3935546875,-0.8955078125,0.1455078125
1333,0.263671875,-0.962890625,0.115234375
1334,0.0009765625,-1.0361328125,0.0595703125
1335,-0.2099609375,-1.0244140625,0.0400390625
1336,-0.4228515625,-0.958984375,0.02734375
1337,-0.4677734375,-0.857421875,-0.02734375
1338,-0.390625,-0.640625,-0.041015625
1339,-0.447265625,-0.3935546875,0.08203125
1340,-0.5810546875,-0.19140625,0.2119140625
1341,-0.7177734375,0.00390625,0.333984375
1342,-0.7685546875,0.1572265625,0.5
1343,-0.8701171875,0.345703125,0.58203125
1344,-1.076171875,0.5458984375,0.662109375
1345,-1.2275390625,0.716796875,0.6943359375
1346,-1.3798828125,0.8505859375,0.7119140625
1347,-1.3525390625,0.984375,0.67578125
1348,-1.216796875,1.0859375,0.8154296875
1349,-1.1845703125,1.1572265625,0.94921875
1350,-1.1337890625,1.2099609375,0.990234375
1351,-1.095703125,1.251953125,1.0048828125
1352,-1.0986328125,1.2783203125,1.009765625
1353,-1.091796875,1.279296875,1.0341796875
1354,-1.0947265625,1.244140625,1.056640625
1355,-1.0703125,1.177734375,1.0048828125
1356,-1.025390625,1.12890625,0.9814453125
1357,-0.9814453125,1.0546875,0.978515625
1358,-0.951171875,0.9951171875,0.96875
1359,-0.9033203125,0.9365234375,0.892578125
1360,-0.7919921875,0.8896484375,0.79296875
1361,-0.69921875,0.84765625,0.6767578125
1362,-0.59765625,0.796875,0.66796875
1363,-0.44921875,0.69140625,0.6103515625
1364,-0.4365234375,0.640625,0.658203125
1365,-0.298828125,0.5927734375,0.66796875
1366,-0.1962890625,0.572265625,0.677734375
1367,-0.1376953125,0.611328125,0.6494140625
1368,-0.0771484375,0.5888671875,0.576171875
1369,-0.041015625,0.6015625,0.5380859375
1370,0.0419921875,0.6162109375,0.474609375
1371,0.099609375,0.6103515625,0.4228515625
1372,0.16796875,0.595703125,0.3857421875
1373,0.2490234375,0.5771484375,0.3837890625
1374,0.279296875,0.5615234375,0.3916015625
1375,0.33203125,0.4580078125,0.3935546875
1376,0.3349609375,0.4794921875,0.435546875
1377,0.34375,0.435546875,0.447265625
1378,0.3486328125,0.421875,0.4755859375
1379,0.326171875,0.40625,0.4873046875
1380,0.2880859375,0.3837890625,0.4794921875
1381,0.2861328125,0.3486328125,0.4921875
1382,0.2548828125,0.2841796875,0.4599609375
1383,0.2265625,0.208984375,0.4072265625
1384,0.232421875,0.1572265625,0.3857421875
1385,0.2626953125,0.1240234375,0.376953125
1386,0.3310546875,0.07421875,0.3837890625
1387,0.44140625,0.0625,0.4091796875
1388,0.5673828125,0.0703125,0.4716796875
1389,0.6796875,0.0966796875,0.537109375
1390,0.7490234375,0.1337890625,0.6142578125
1391,0.7998046875,0.1728515625,0.708984375
1392,0.828125,0.2060546875,0.8115234375
1393,0.8359375,0.2421875,0.9140625
1394,0.833984375,0.263671875,1.0205078125
1395,0.7939453125,0.2763671875,1.1240234375
1396,0.765625,0.291015625,1.2138671875
1397,0.69921875,0.3017578125,1.29296875
1398,0.625,0.314453125,1.3603515625
1399,0.58984375,0.3232421875,1.4189453125
1400,0.5654296875,0.3330078125,1.484375
1401,0.5322265625,0.341796875,1.5341796875
1402,0.498046875,0.3447265625,1.56640625
1403,0.451171875,0.359375,1.5888671875
1404,0.3974609375,0.365234375,1.5947265625
1405,0.3388671875,0.3701171875,1.58203125
1406,0.2998046875,0.3779296875,1.5654296875
1407,0.341796875,0.3876953125,1.5234375
1408,0.359375,0.3935546875,1.505859375
1409,0.345703125,0.392578125,1.4541015625
1410,0.29296875,0.3740234375,1.421875
1411,0.2373046875,0.34375,1.3642578125
1412,0.1845703125,0.3291015625,1.3232421875
1413,0.185546875,0.3232421875,1.259765625
1414,0.2275390625,0.32421875,1.1865234375
1415,0.2587890625,0.3193359375,1.111328125
1416,0.2705078125,0.3173828125,1.03515625
1417,0.271484375,0.30859375,0.98046875
1418,0.248046875,0.3056640625,0.9453125
1419,0.2255859375,0.2890625,0.9404296875
1420,0.2080078125,0.2705078125,0.923828125
1421,0.203125,0.2578125,0.9111328125
1422,0.201171875,0.2236328125,0.8935546875
1423,0.2041015625,0.1904296875,0.8828125
1424,0.19921875,0.1533203125,0.8583984375
1425,0.19921875,0.109375,0.8447265625
1426,0.193359375,0.0830078125,0.8271484375
1427,0.189453125,0.060546875,0.798828125
1428,0.1787109375,0.046875,0.7841796875
1429,0.1796875,0.037109375,0.7744140625
1430,0.171875,0.03125,0.7548828125
1431,0.171875,0.0341796875,0.7490234375
1432,0.1669921875,0.0361328125,0.75390625
1433,0.166015625,0.0380859375,0.767578125
1434,0.166015625,0.0302734375,0.7802734375
1435,0.166015625,0.0224609375,0.798828125
1436,0.1591796875,0.0087890625,0.8173828125
1437,0.158203125,0.00390625,0.84765625
1438,0.1572265625,-0.0107421875,0.8623046875
1439,0.158203125,-0.0166015625,0.8828125
1440,0.1484375,-0.021484375,0.9033203125
1441,0.15234375,-0.02734375,0.9208984375
1442,0.15234375,-0.0322265625,0.939453125
1443,0.158203125,-0.0390625,0.9541015625
1444,0.154296875,-0.0478515625,0.97265625
1445,0.1513671875,-0.0537109375,0.9912109375
1446,0.142578125,-0.0625,1.0048828125
1447,0.138671875,-0.0654296875,1.0185546875
1448,0.130859375,-0.072265625,1.029296875
1449,0.1240234375,-0.0771484375,1.0380859375
1450,0.123046875,-0.0927734375,1.05078125
1451,0.107421875,-0.095703125,1.0537109375
1452,0.0947265625,-0.103515625,1.0537109375
1453,0.091796875,-0.11328125,1.0556640625
1454,0.0751953125,-0.1201171875,1.05078125
1455,0.064453125,-0.1201171875,1.052734375
1456,0.0439453125,-0.1279296875,1.0517578125
1457,0.0380859375,-0.134765625,1.048828125
1458,0.0185546875,-0.1376953125,1.044921875
1459,0.009765625,-0.140625,1.0478515625
1460,0.0,-0.1416015625,1.037109375
1461,-0.021484375,-0.1484375,1.0361328125
1462,-0.0263671875,-0.1416015625,1.0361328125
1463,-0.0498046875,-0.1357421875,1.0322265625
1464,-0.052734375,-0.134765625,1.025390625
1465,-0.052734375,-0.12890625,1.0283203125
1466,-0.0615234375,-0.1171875,1.029296875
1467,-0.0693359375,-0.1142578125,1.0234375
1468,-0.072265625,-0.109375,1.017578125
1469,-0.0712890625,-0.1015625,1.0224609375
1470,-0.07421875,-0.103515625,1.015625
1471,-0.0791015625,-0.0986328125,1.0166015625
1472,-0.078125,-0.0947265625,1.0048828125
1473,-0.078125,-0.0908203125,1.01171875
1474,-0.07421875,-0.08203125,1.0166015625
1475,-0.0673828125,-0.09375,1.0185546875
1476,-0.0703125,-0.0849609375,1.017578125
1477,-0.0712890625,-0.0849609375,1.025390625
1478,-0.072265625,-0.0869140625,1.0322265625
1479,-0.072265625,-0.08984375,1.021484375
1480,-0.072265625,-0.0888671875,1.0185546875
1481,-0.0751953125,-0.095703125,1.01953125
1482,-0.0751953125,-0.0947265625,1.015625
1483,-0.0732421875,-0.099609375,1.01171875
1484,-0.068359375,-0.1015625,1.013671875
1485,-0.0732421875,-0.10546875,1.0185546875
1486,-0.07421875,-0.103515625,1.017578125
1487,-0.080078125,-0.10546875,1.017578125
1488,-0.0810546875,-0.099609375,1.021484375
1489,-0.078125,-0.0947265625,1.0185546875
1490,-0.08203125,-0.0927734375,1.0244140625
1491,-0.0693359375,-0.083984375,1.01953125
1492,-0.0693359375,-0.0810546875,1.015625
1493,-0.0703125,-0.0712890625,1.0126953125
1494,-0.0693359375,-0.072265625,1.017578125
1495,-0.060546875,-0.064453125,1.0107421875
1496,-0.064453125,-0.0576171875,1.0068359375
1497,-0.0615234375,-0.052734375,1.001953125
1498,-0.0595703125,-0.046875,0.998046875
1499,-0.0615234375,-0.0419921875,0.9951171875
1500,-0.064453125,-0.03125,0.9921875
1501,-0.056640625,-0.0283203125,0.9931640625
1502,-0.0576171875,-0.0244140625,0.9921875
1503,-0.0546875,-0.017578125,0.9990234375
1504,-0.0537109375,-0.015625,0.99609375
1505,-0.0537109375,-0.0146484375,0.9990234375
1506,-0.0498046875,-0.017578125,0.9990234375
1507,-0.0458984375,-0.01953125,0.9931640625
1508,-0.0439453125,-0.0224609375,0.998046875
1509,-0.0390625,-0.021484375,0.998046875
1510,-0.037109375,-0.0234375,1.001953125
1511,-0.033203125,-0.0234375,1.0009765625
1512,-0.033203125,-0.0244140625,1.0068359375
1513,-0.025390625,-0.021484375,1.009765625
1514,-0.0263671875,-0.0185546875,1.0126953125
1515,-0.0224609375,-0.0234375,1.01171875
1516,-0.0185546875,-0.015625,1.01171875
1517,-0.0166015625,-0.0166015625,1.01171875
1518,-0.013671875,-0.013671875,1.0166015625
1519,-0.0126953125,-0.00390625,1.0166015625
1520,-0.0068359375,-0.0009765625,1.0185546875
1521,-0.0029296875,-0.0009765625,1.017578125
1522,-0.0009765625,0.00390625,1.0224609375
1523,0.001953125,0.0068359375,1.01953125
1524,0.0068359375,0.0068359375,1.0166015625
1525,0.009765625,0.0078125,1.0205078125
1526,0.0146484375,0.0078125,1.0185546875
1527,0.01953125,0.01171875,1.017578125
1528,0.0205078125,0.0146484375,1.015625
1529,0.025390625,0.0166015625,1.0146484375
1530,0.0380859375,0.017578125,1.0068359375
1531,0.0390625,0.013671875,1.0126953125
1532,0.0439453125,0.009765625,1.0126953125
1533,0.052734375,0.0107421875,1.0087890625
1534,0.0517578125,0.0068359375,1.013671875
1535,0.0556640625,0.009765625,1.0107421875
1536,0.0576171875,0.0068359375,1.0078125
1537,0.0546875,0.0078125,1.005859375
1538,0.060546875,0.005859375,1.005859375
1539,0.060546875,0.00390625,1.001953125
1540,0.064453125,0.0029296875,1.0009765625
1541,0.0634765625,0.001953125,0.9990234375
1542,0.072265625,0.0,1.0009765625
1543,0.072265625,-0.00390625,0.9970703125
1544,0.0751953125,-0.0078125,1.0009765625
1545,0.080078125,-0.00390625,1.001953125
1546,0.080078125,-0.0078125,0.9990234375
1547,0.076171875,-0.0068359375,0.9951171875
1548,0.0830078125,-0.01171875,1.0009765625
1549,0.0810546875,-0.01171875,1.0009765625
1550,0.0791015625,-0.0185546875,0.9990234375
1551,0.080078125,-0.0146484375,0.998046875
1552,0.078125,-0.0205078125,1.0009765625
1553,0.0791015625,-0.0224609375,1.0029296875
1554,0.0751953125,-0.0244140625,1.0
1555,0.0751953125,-0.0302734375,1.0009765625
1556,0.0751953125,-0.02734375,1.0048828125
1557,0.0693359375,-0.03125,1.0
1558,0.0732421875,-0.0341796875,1.0029296875
1559,0.06640625,-0.0341796875,1.0068359375
1560,0.064453125,-0.03515625,1.0
1561,0.0634765625,-0.0419921875,1.0
1562,0.0556640625,-0.0390625,1.0
1563,0.056640625,-0.0390625,0.9970703125
1564,0.0478515625,-0.041015625,0.9990234375
1565,0.0498046875,-0.046875,0.9990234375
1566,0.048828125,-0.044921875,0.9990234375
1567,0.046875,-0.044921875,0.9951171875
1568,0.0400390625,-0.0419921875,1.0
1569,0.04296875,-0.0458984375,0.998046875
1570,0.044921875,-0.0498046875,0.9970703125
1571,0.041015625,-0.0478515625,0.9970703125
1572,0.0390625,-0.048828125,0.998046875
1573,0.0341796875,-0.05078125,1.0
1574,0.037109375,-0.0537109375,1.0009765625
1575,0.0400390625,-0.0546875,1.0029296875
1576,0.0322265625,-0.0556640625,1.0048828125
1577,0.0322265625,-0.0595703125,1.0
1578,0.0263671875,-0.0634765625,1.0048828125
1579,0.0322265625,-0.0634765625,1.0009765625
1580,0.0283203125,-0.05859375,0.9951171875
1581,0.0224609375,-0.060546875,1.001953125
1582,0.0244140625,-0.0546875,0.998046875
1583,0.0146484375,-0.060546875,1.0
1584,0.015625,-0.0595703125,1.0
1585,0.01171875,-0.0595703125,1.0009765625
1586,0.0107421875,-0.0595703125,1.0009765625
1587,0.0068359375,-0.056640625,1.0009765625
1588,0.00390625,-0.0576171875,1.0
1589,0.0009765625,-0.0576171875,1.0078125
1590,0.0078125,-0.0576171875,1.005859375
1591,0.001953125,-0.056640625,1.0087890625
1592,-0.0029296875,-0.0556640625,1.0068359375
1593,-0.0009765625,-0.056640625,1.0078125
1594,-0.0009765625,-0.0576171875,1.0
1595,-0.001953125,-0.060546875,1.0068359375
1596,-0.00390625,-0.0537109375,1.00390625
1597,-0.00390625,-0.0576171875,1.0029296875
1598,-0.0068359375,-0.05859375,1.0
1599,-0.0029296875,-0.0556640625,0.9990234375
1600,-0.00390625,-0.0576171875,1.0
1601,-0.00390625,-0.0615234375,0.998046875
1602,-0.005859375,-0.0595703125,0.9951171875
1603,-0.0078125,-0.0556640625,0.99609375
1604,-0.0009765625,-0.05859375,0.9951171875
1605,-0.0009765625,-0.0546875,0.99609375
1606,-0.001953125,-0.0595703125,0.9970703125
1607,-0.0029296875,-0.056640625,0.9990234375
1608,-0.009765625,-0.056640625,1.0
1609,-0.0029296875,-0.0634765625,1.0009765625
1610,-0.0078125,-0.0576171875,1.0029296875
1611,-0.001953125,-0.0546875,1.0087890625
1612,-0.0009765625,-0.0615234375,1.00390625
1613,-0.001953125,-0.06640625,1.0009765625
1614,-0.0048828125,-0.0634765625,0.998046875
1615,-0.001953125,-0.0634765625,1.0
1616,0.0009765625,-0.064453125,0.998046875
1617,-0.0029296875,-0.0654296875,1.0009765625
1618,0.0029296875,-0.0673828125,1.001953125
1619,0.00390625,-0.06640625,1.001953125
1620,0.00390625,-0.07421875,0.9990234375
1621,0.0009765625,-0.0712890625,1.0009765625
1622,0.0048828125,-0.0751953125,1.005859375
1623,0.00390625,-0.0732421875,1.00390625
1624,0.0087890625,-0.076171875,0.998046875
1625,0.017578125,-0.083984375,0.99609375
1626,0.01171875,-0.0869140625,0.99609375
1627,0.009765625,-0.0751953125,0.99609375
1628,0.015625,-0.0732421875,0.9970703125
1629,0.01171875,-0.0771484375,0.9951171875
1630,0.009765625,-0.0712890625,0.9990234375
1631,0.0205078125,-0.068359375,0.994140625
1632,0.0166015625,-0.0673828125,0.9921875
1633,0.015625,-0.0634765625,0.9912109375
1634,0.0166015625,-0.0615234375,0.9921875
1635,0.01953125,-0.060546875,0.9951171875
1636,0.0224609375,-0.05078125,0.9970703125
1637,0.0224609375,-0.0615234375,0.9970703125
1638,0.0234375,-0.0576171875,0.9990234375
1639,0.0234375,-0.052734375,0.9931640625
1640,0.0224609375,-0.0556640625,1.0
1641,0.0244140625,-0.0556640625,0.9990234375
1642,0.0224609375,-0.0546875,0.998046875
1643,0.025390625,-0.052734375,0.998046875
1644,0.02734375,-0.060546875,0.9970703125
1645,0.0283203125,-0.0537109375,0.99609375
1646,0.0244140625,-0.056640625,0.9970703125
1647,0.02734375,-0.0546875,0.994140625
1648,0.03515625,-0.0537109375,0.9892578125
1649,0.029296875,-0.0537109375,0.9892578125
1650,0.0302734375,-0.0615234375,0.986328125
1651,0.0283203125,-0.0576171875,0.986328125
1652,0.03125,-0.0576171875,0.9951171875
1653,0.0244140625,-0.0625,0.9951171875
1654,0.03125,-0.0615234375,0.9912109375
1655,0.0341796875,-0.0625,0.9873046875
1656,0.0302734375,-0.0595703125,0.9853515625
1657,0.02734375,-0.0654296875,0.9921875
1658,0.0283203125,-0.064453125,0.98828125
1659,0.0244140625,-0.064453125,0.98828125
1660,0.029296875,-0.0654296875,0.9931640625
1661,0.0283203125,-0.0654296875,0.9912109375
1662,0.0224609375,-0.0654296875,0.9921875
1663,0.0263671875,-0.068359375,0.9970703125
1664,0.02734375,-0.0673828125,0.99609375
1665,0.0322265625,-0.0703125,1.0009765625
1666,0.0302734375,-0.068359375,0.9990234375
1667,0.029296875,-0.0673828125,1.0
1668,0.0244140625,-0.0693359375,0.9990234375
1669,0.0185546875,-0.0712890625,0.998046875
1670,0.0185546875,-0.0673828125,0.9990234375
1671,0.01953125,-0.0771484375,0.9970703125
1672,0.021484375,-0.078125,0.998046875
1673,0.0263671875,-0.0791015625,1.0
1674,0.0224609375,-0.0791015625,0.998046875
1675,0.0234375,-0.08203125,0.9970703125
1676,0.0205078125,-0.0791015625,0.9931640625
1677,0.0205078125,-0.083984375,1.005859375
1678,0.0166015625,-0.08203125,1.0009765625
1679,0.01953125,-0.083984375,1.005859375
1680,0.0234375,-0.08203125,1.0068359375
1681,0.017578125,-0.087890625,1.009765625
1682,0.017578125,-0.0869140625,1.0068359375
1683,0.015625,-0.0849609375,1.0048828125
1684,0.013671875,-0.0859375,1.0048828125
1685,0.0166015625,-0.0849609375,1.0068359375
1686,0.0078125,-0.080078125,1.0009765625
1687,0.009765625,-0.08203125,0.9990234375
1688,0.009765625,-0.087890625,0.99609375
1689,0.0048828125,-0.0791015625,1.0029296875
1690,0.0048828125,-0.0830078125,1.0
1691,0.0029296875,-0.0830078125,0.9970703125
1692,0.0078125,-0.080078125,0.9970703125
1693,0.00390625,-0.08203125,0.998046875
1694,0.001953125,-0.083984375,0.998046875
1695,-0.0009765625,-0.087890625,0.998046875
1696,0.0,-0.07421875,0.998046875
1697,0.001953125,-0.08203125,0.9912109375
1698,0.0048828125,-0.0888671875,0.98828125
1699,0.009765625,-0.087890625,1.0
1700,0.0048828125,-0.0849609375,0.998046875
1701,0.009765625,-0.0869140625,0.9990234375
1702,0.0107421875,-0.0849609375,0.998046875
1703,0.017578125,-0.080078125,1.0009765625
1704,0.0146484375,-0.08203125,0.99609375
1705,0.0146484375,-0.08203125,1.0
1706,0.0166015625,-0.0849609375,0.9990234375
1707,0.0185546875,-0.083984375,1.0009765625
1708,0.0166015625,-0.076171875,0.998046875
1709,0.0224609375,-0.0849609375,0.9951171875
1710,0.025390625,-0.0869140625,1.0009765625
1711,0.0234375,-0.078125,0.9990234375
1712,0.029296875,-0.0849609375,1.0
1713,0.025390625,-0.08203125,0.9990234375
1714,0.029296875,-0.076171875,0.99609375
1715,0.0263671875,-0.07421875,0.9931640625
1716,0.033203125,-0.0703125,0.998046875
1717,0.0263671875,-0.072265625,0.998046875
1718,0.03125,-0.072265625,0.9892578125
1719,0.0302734375,-0.0703125,1.0
1720,0.0263671875,-0.068359375,0.9892578125
1721,0.0302734375,-0.07421875,0.9990234375
1722,0.029296875,-0.06640625,1.001953125
1723,0.0302734375,-0.064453125,0.9990234375
1724,0.0244140625,-0.06640625,0.9970703125
1725,0.0283203125,-0.064453125,1.0029296875
1726,0.0302734375,-0.06640625,0.99609375
1727,0.02734375,-0.0654296875,1.0009765625
1728,0.025390625,-0.0673828125,1.0
1729,0.0224609375,-0.0634765625,1.001953125
1730,0.021484375,-0.064453125,0.9990234375
1731,0.021484375,-0.0654296875,1.0
1732,0.01953125,-0.0615234375,1.0029296875
1733,0.0205078125,-0.0654296875,1.00390625
1734,0.0205078125,-0.064453125,0.998046875
1735,0.0185546875,-0.0625,1.0009765625
1736,0.0185546875,-0.064453125,1.0009765625
1737,0.021484375,-0.0654296875,0.9970703125
1738,0.0185546875,-0.06640625,1.0009765625
1739,0.0185546875,-0.0673828125,0.9990234375
1740,0.0205078125,-0.0693359375,1.0029296875
1741,0.0234375,-0.0673828125,1.0
1742,0.0185546875,-0.072265625,1.0
1743,0.0205078125,-0.0673828125,0.9990234375
1744,0.0224609375,-0.0712890625,1.0
1745,0.021484375,-0.0673828125,0.998046875
1746,0.0205078125,-0.068359375,0.9970703125
1747,0.0205078125,-0.0673828125,1.0
1748,0.0224609375,-0.0654296875,0.9990234375
1749,0.0185546875,-0.064453125,0.9912109375
1750,0.021484375,-0.0673828125,0.9921875
1751,0.021484375,-0.064453125,0.9873046875
1752,0.021484375,-0.064453125,0.9970703125
1753,0.01953125,-0.05859375,1.0
1754,0.0185546875,-0.0615234375,0.9892578125
1755,0.017578125,-0.0615234375,1.0009765625
1756,0.0166015625,-0.056640625,0.9970703125
1757,0.0166015625,-0.05859375,0.998046875
1758,0.015625,-0.056640625,0.9990234375
1759,0.017578125,-0.0556640625,1.001953125
1760,0.0166015625,-0.052734375,1.0009765625
1761,0.015625,-0.0517578125,1.0048828125
1762,0.013671875,-0.0537109375,1.0087890625
1763,0.015625,-0.0537109375,1.0009765625
1764,0.0185546875,-0.0546875,1.0048828125
1765,0.013671875,-0.052734375,1.0
1766,0.0166015625,-0.056640625,1.001953125
1767,0.0107421875,-0.0556640625,1.0009765625
1768,0.0146484375,-0.0556640625,1.0009765625
1769,0.017578125,-0.0556640625,1.0
1770,0.0126953125,-0.0546875,0.994140625
1771,0.0146484375,-0.05859375,0.998046875
1772,0.013671875,-0.05859375,0.9970703125
1773,0.0166015625,-0.060546875,0.9931640625
1774,0.015625,-0.0634765625,0.9951171875
1775,0.0146484375,-0.0634765625,0.9892578125
1776,0.0185546875,-0.0615234375,0.9931640625
1777,0.01171875,-0.0625,0.99609375
1778,0.0166015625,-0.0673828125,0.99609375
1779,0.017578125,-0.0654296875,0.9970703125
1780,0.015625,-0.068359375,0.9931640625
1781,0.013671875,-0.068359375,0.99609375
1782,0.01953125,-0.06640625,0.9970703125
1783,0.01171875,-0.0693359375,0.9970703125
1784,0.0146484375,-0.0634765625,0.9951171875
1785,0.0146484375,-0.064453125,0.998046875
1786,0.0107421875,-0.0634765625,1.0009765625
1787,0.0146484375,-0.060546875,1.0
1788,0.0205078125,-0.0615234375,1.005859375
1789,0.013671875,-0.05859375,1.0029296875
1790,0.0126953125,-0.0595703125,1.0048828125
1791,0.0146484375,-0.060546875,1.0087890625
1792,0.017578125,-0.064453125,1.0107421875
1793,0.0205078125,-0.06640625,1.0107421875
1794,0.0224609375,-0.0634765625,1.009765625
1795,0.0224609375,-0.06640625,1.0107421875
1796,0.021484375,-0.0654296875,1.00390625
1797,0.01953125,-0.0673828125,1.005859375
1798,0.0205078125,-0.0673828125,1.0068359375
1799,0.0185546875,-0.064453125,1.00390625
1800,0.017578125,-0.0615234375,1.0068359375
1801,0.0224609375,-0.0634765625,1.001953125
1802,0.0166015625,-0.068359375,1.0
1803,0.017578125,-0.0673828125,1.0
1804,0.017578125,-0.06640625,1.0009765625
1805,0.01953125,-0.06640625,0.9970703125
1806,0.0166015625,-0.06640625,0.99609375
1807,0.017578125,-0.064453125,1.0
1808,0.0185546875,-0.0703125,0.9970703125
1809,0.0205078125,-0.0703125,0.9990234375
1810,0.017578125,-0.06640625,1.0009765625
1811,0.0205078125,-0.06640625,1.001953125
1812,0.017578125,-0.06640625,0.9990234375
1813,0.021484375,-0.0654296875,0.998046875
1814,0.0205078125,-0.064453125,1.0
1815,0.0185546875,-0.0654296875,0.9970703125
1816,0.0185546875,-0.06640625,0.9990234375
1817,0.0185546875,-0.06640625,0.9970703125
1818,0.01953125,-0.0634765625,0.9951171875
1819,0.0224609375,-0.0654296875,0.9931640625
1820,0.01953125,-0.0654296875,0.994140625
1821,0.01953125,-0.0693359375,0.9990234375
1822,0.021484375,-0.0673828125,1.0
1823,0.021484375,-0.064453125,1.0009765625
1824,0.0234375,-0.06640625,1.0
1825,0.021484375,-0.0634765625,0.9990234375
1826,0.021484375,-0.0693359375,0.9970703125
1827,0.0244140625,-0.0654296875,0.9990234375
1828,0.01953125,-0.0625,1.0
1829,0.021484375,-0.068359375,0.9990234375
1830,0.0205078125,-0.0654296875,0.99609375
1831,0.0205078125,-0.064453125,0.9921875
1832,0.0185546875,-0.064453125,0.99609375
1833,0.0234375,-0.0693359375,0.9970703125
1834,0.0185546875,-0.068359375,1.0
1835,0.0234375,-0.0703125,0.9970703125
1836,0.021484375,-0.0693359375,1.0
1837,0.017578125,-0.0693359375,1.0
1838,0.0224609375,-0.0673828125,0.9970703125
1839,0.0166015625,-0.0712890625,0.99609375
1840,0.0205078125,-0.0703125,0.9970703125
1841,0.0185546875,-0.0712890625,0.9990234375
1842,0.015625,-0.0693359375,0.9931640625
1843,0.0205078125,-0.072265625,1.0009765625
1844,0.0126953125,-0.072265625,0.9970703125
1845,0.0166015625,-0.072265625,1.0
1846,0.017578125,-0.076171875,0.998046875
1847,0.015625,-0.0869140625,1.0029296875
1848,0.0185546875,-0.07421875,0.9990234375
1849,0.0244140625,-0.076171875,1.0009765625
1850,0.021484375,-0.0751953125,1.001953125
1851,0.025390625,-0.076171875,1.001953125
1852,0.01953125,-0.0712890625,1.005859375
1853,0.0234375,-0.0732421875,1.001953125
1854,0.0244140625,-0.0771484375,1.0068359375
1855,0.0322265625,-0.0693359375,1.0078125
1856,0.0283203125,-0.0830078125,1.0087890625
1857,0.0322265625,-0.08203125,1.01171875
1858,0.0322265625,-0.07421875,1.0048828125
1859,0.02734375,-0.0810546875,1.0009765625
1860,0.0283203125,-0.07421875,1.0009765625
1861,0.0244140625,-0.0810546875,1.0009765625
1862,0.0283203125,-0.0703125,0.9970703125
1863,0.0263671875,-0.0703125,0.99609375
1864,0.0263671875,-0.064453125,0.994140625
1865,0.0244140625,-0.06640625,0.990234375
1866,0.0224609375,-0.0673828125,0.986328125
1867,0.0205078125,-0.0693359375,0.984375
1868,0.01953125,-0.0673828125,0.9873046875
1869,0.021484375,-0.0634765625,0.9892578125
1870,0.0166015625,-0.0625,0.986328125
1871,0.0146484375,-0.0615234375,0.9912109375
1872,0.0146484375,-0.06640625,0.9931640625
1873,0.0146484375,-0.0634765625,0.9951171875
1874,0.0146484375,-0.068359375,0.9921875
1875,0.0126953125,-0.064453125,0.9970703125
1876,0.0107421875,-0.06640625,1.001953125
1877,0.0087890625,-0.0654296875,1.0029296875
1878,0.0107421875,-0.068359375,1.005859375
1879,0.0107421875,-0.0673828125,1.0087890625
1880,0.0078125,-0.068359375,1.00390625
1881,0.005859375,-0.072265625,1.0107421875
1882,0.009765625,-0.076171875,1.001953125
1883,0.0107421875,-0.076171875,1.0029296875
1884,0.0078125,-0.0810546875,0.9990234375
1885,0.013671875,-0.076171875,0.998046875
1886,0.013671875,-0.0732421875,1.0
1887,0.01171875,-0.08203125,0.9990234375
1888,0.01171875,-0.087890625,0.99609375
1889,0.015625,-0.0771484375,0.9990234375
1890,0.01171875,-0.083984375,0.99609375
1891,0.0087890625,-0.080078125,0.998046875
1892,0.015625,-0.0830078125,1.0
1893,0.0126953125,-0.0830078125,0.9990234375
1894,0.01171875,-0.0908203125,0.994140625
1895,0.015625,-0.0830078125,0.99609375
1896,0.0166015625,-0.0908203125,1.0
1897,0.0185546875,-0.0888671875,0.998046875
1898,0.01953125,-0.0849609375,0.9970703125
1899,0.0146484375,-0.087890625,0.9990234375
1900,0.0205078125,-0.0830078125,0.9931640625
1901,0.0166015625,-0.0849609375,0.9931640625
1902,0.013671875,-0.080078125,0.9951171875
1903,0.0185546875,-0.083984375,0.9873046875
1904,0.0166015625,-0.087890625,0.9873046875
1905,0.0205078125,-0.08203125,0.9873046875
1906,0.0185546875,-0.0751953125,0.986328125
1907,0.0185546875,-0.0830078125,0.99609375
1908,0.0205078125,-0.083984375,0.98828125
1909,0.0205078125,-0.0830078125,0.986328125
1910,0.0185546875,-0.087890625,0.986328125
1911,0.01953125,-0.0908203125,0.9892578125
1912,0.0224609375,-0.0908203125,0.9921875
1913,0.0224609375,-0.0888671875,0.98828125
1914,0.0224609375,-0.0888671875,0.9912109375
1915,0.01953125,-0.0908203125,0.9892578125
1916,0.0224609375,-0.0966796875,0.9921875
1917,0.0244140625,-0.0927734375,0.98828125
1918,0.0234375,-0.091796875,0.990234375
1919,0.0224609375,-0.09375,0.9912109375
1920,0.0205078125,-0.08984375,0.998046875
1921,0.0244140625,-0.0908203125,0.9951171875
1922,0.01953125,-0.0888671875,0.9921875
1923,0.0263671875,-0.0869140625,0.998046875
1924,0.01953125,-0.091796875,0.99609375
1925,0.0283203125,-0.0810546875,1.0
1926,0.0205078125,-0.087890625,1.0009765625
1927,0.01953125,-0.087890625,0.9970703125
1928,0.0205078125,-0.083984375,1.0009765625
1929,0.0205078125,-0.080078125,1.0009765625
1930,0.0185546875,-0.0849609375,1.0
1931,0.01953125,-0.083984375,1.0009765625
1932,0.01953125,-0.076171875,0.998046875
1933,0.013671875,-0.083984375,0.998046875
1934,0.0185546875,-0.0771484375,0.9990234375
1935,0.0205078125,-0.08203125,1.0029296875
1936,0.017578125,-0.078125,0.9990234375
1937,0.01953125,-0.078125,1.0
1938,0.017578125,-0.078125,1.0
1939,0.015625,-0.0791015625,1.0
1940,0.0185546875,-0.078125,0.998046875
1941,0.0185546875,-0.0791015625,1.0
1942,0.0166015625,-0.0771484375,1.0029296875
1943,0.0185546875,-0.0849609375,0.998046875
1944,0.0166015625,-0.080078125,1.0009765625
1945,0.015625,-0.0791015625,1.0009765625
1946,0.0166015625,-0.080078125,1.0029296875
1947,0.0224609375,-0.0849609375,1.0029296875
1948,0.0205078125,-0.087890625,0.9990234375
1949,0.0205078125,-0.0791015625,1.00390625
1950,0.021484375,-0.0859375,1.00390625
1951,0.01953125,-0.0849609375,1.0009765625
1952,0.01953125,-0.078125,0.9990234375
1953,0.017578125,-0.080078125,1.0009765625
1954,0.01953125,-0.0712890625,1.0009765625
1955,0.0146484375,-0.068359375,0.9990234375
1956,0.0205078125,-0.0673828125,0.9951171875
1957,0.0166015625,-0.0693359375,0.9970703125
1958,0.0185546875,-0.0673828125,0.9970703125
1959,0.015625,-0.0634765625,0.9912109375
1960,0.015625,-0.064453125,0.9931640625
1961,0.01953125,-0.0654296875,0.9921875
1962,0.0205078125,-0.06640625,0.9951171875
1963,0.0166015625,-0.06640625,0.998046875
1964,0.0126953125,-0.0634765625,0.99609375
1965,0.017578125,-0.0634765625,0.9951171875
1966,0.0166015625,-0.068359375,1.0
1967,0.0146484375,-0.06640625,0.9951171875
1968,0.0166015625,-0.072265625,0.99609375
1969,0.0166015625,-0.0703125,0.99609375
1970,0.017578125,-0.076171875,0.9990234375
1971,0.0205078125,-0.072265625,0.994140625
1972,0.01953125,-0.076171875,0.9912109375
1973,0.017578125,-0.0771484375,0.9931640625
1974,0.0166015625,-0.0810546875,0.9931640625
1975,0.01953125,-0.0732421875,0.9990234375
1976,0.0146484375,-0.078125,0.994140625
1977,0.017578125,-0.0732421875,0.9990234375
1978,0.0205078125,-0.078125,1.0048828125
1979,0.017578125,-0.0810546875,1.0009765625
1980,0.025390625,-0.0830078125,1.00390625
1981,0.0205078125,-0.087890625,1.005859375
1982,0.0244140625,-0.08984375,1.001953125
1983,0.025390625,-0.0771484375,1.0
1984,0.0244140625,-0.0888671875,0.9990234375
1985,0.0302734375,-0.08984375,1.0
1986,0.0234375,-0.08984375,0.9990234375
1987,0.0263671875,-0.0908203125,0.998046875
1988,0.025390625,-0.08984375,0.998046875
1989,0.021484375,-0.09375,0.9990234375
1990,0.0244140625,-0.08984375,0.9921875
1991,0.0283203125,-0.09375,0.990234375
1992,0.0263671875,-0.0927734375,0.9892578125
1993,0.029296875,-0.09375,0.9912109375
1994,0.025390625,-0.08984375,0.9873046875
1995,0.0244140625,-0.0859375,0.9912109375
1996,0.0263671875,-0.087890625,0.9921875
1997,0.0263671875,-0.0888671875,0.9970703125
1998,0.037109375,-0.087890625,0.994140625
1999,0.0283203125,-0.087890625,0.9990234375
2000,0.0244140625,-0.08203125,0.9990234375
2001,0.0224609375,-0.083984375,1.0
2002,0.033203125,-0.0849609375,0.9951171875
2003,0.029296875,-0.0791015625,1.0
2004,0.0224609375,-0.08203125,0.9951171875
2005,0.01953125,-0.0859375,0.9912109375
2006,0.021484375,-0.076171875,0.998046875
2007,0.025390625,-0.0859375,0.9951171875
2008,0.0224609375,-0.08984375,0.9951171875
2009,0.0263671875,-0.0888671875,0.9892578125
2010,0.0244140625,-0.087890625,0.98828125
2011,0.021484375,-0.0849609375,0.994140625
2012,0.0205078125,-0.087890625,0.9951171875
2013,0.021484375,-0.08984375,0.9912109375
2014,0.021484375,-0.09375,0.9951171875
2015,0.0185546875,-0.08984375,0.9951171875
2016,0.0185546875,-0.09375,1.0009765625
2017,0.0166015625,-0.09375,1.0009765625
2018,0.0185546875,-0.08984375,0.9912109375
2019,0.0185546875,-0.087890625,0.9990234375
2020,0.0146484375,-0.091796875,0.9970703125
2021,0.0166015625,-0.08984375,0.9921875
2022,0.017578125,-0.0771484375,0.9990234375
2023,0.015625,-0.0888671875,0.990234375
2024,0.013671875,-0.076171875,0.9951171875
2025,0.0126953125,-0.072265625,0.9970703125
2026,0.013671875,-0.0673828125,0.998046875
2027,0.0126953125,-0.0693359375,0.9951171875
2028,0.0126953125,-0.0673828125,1.0
2029,0.009765625,-0.064453125,1.0009765625
2030,0.0146484375,-0.0654296875,1.005859375
2031,0.0126953125,-0.0634765625,1.0029296875
2032,0.0107421875,-0.0634765625,1.0009765625
2033,0.0146484375,-0.064453125,1.001953125
2034,0.0146484375,-0.06640625,1.001953125
2035,0.0205078125,-0.0634765625,1.0009765625
2036,0.017578125,-0.0693359375,1.00390625
2037,0.0185546875,-0.06640625,1.0009765625
2038,0.0185546875,-0.068359375,1.0009765625
2039,0.0166015625,-0.06640625,1.001953125
2040,0.0146484375,-0.0771484375,1.0
2041,0.01953125,-0.0751953125,1.001953125
2042,0.017578125,-0.0712890625,1.001953125
2043,0.017578125,-0.080078125,1.0048828125
2044,0.021484375,-0.078125,1.0009765625
2045,0.025390625,-0.080078125,0.9990234375
2046,0.01953125,-0.0751953125,0.9990234375
2047,0.0263671875,-0.076171875,1.0009765625
2048,0.0263671875,-0.0732421875,0.998046875
2049,0.0263671875,-0.072265625,0.9970703125
2050,0.025390625,-0.0771484375,1.0
2051,0.0263671875,-0.0693359375,0.9990234375
2052,0.0263671875,-0.072265625,0.9970703125
2053,0.0302734375,-0.0703125,1.0009765625
2054,0.025390625,-0.0732421875,1.0029296875
2055,0.0234375,-0.076171875,1.0
2056,0.0234375,-0.0732421875,1.001953125
2057,0.029296875,-0.07421875,0.998046875
2058,0.029296875,-0.0732421875,0.9990234375
2059,0.0283203125,-0.0712890625,1.0
2060,0.0244140625,-0.078125,1.0009765625
2061,0.02734375,-0.0732421875,0.9951171875
2062,0.0234375,-0.0693359375,0.998046875
2063,0.0205078125,-0.076171875,0.998046875
2064,0.0185546875,-0.0830078125,0.9951171875
2065,0.0244140625,-0.0830078125,0.9990234375
2066,0.021484375,-0.0810546875,0.9990234375
2067,0.0205078125,-0.083984375,0.9931640625
2068,0.0205078125,-0.083984375,0.99609375
2069,0.0205078125,-0.078125,0.9921875
2070,0.0224609375,-0.076171875,0.998046875
2071,0.01953125,-0.0810546875,0.9912109375
2072,0.0185546875,-0.078125,0.998046875
2073,0.01953125,-0.08203125,0.9931640625
2074,0.0205078125,-0.07421875,0.9990234375
2075,0.0205078125,-0.0859375,0.9990234375
2076,0.021484375,-0.0732421875,0.994140625
2077,0.021484375,-0.08203125,0.994140625
2078,0.0224609375,-0.0751953125,1.0009765625
2079,0.01953125,-0.0810546875,0.9990234375
2080,0.021484375,-0.0791015625,0.9951171875
2081,0.0224609375,-0.0791015625,0.99609375
2082,0.0244140625,-0.0732421875,0.9970703125
2083,0.021484375,-0.078125,0.9951171875
2084,0.0224609375,-0.08203125,1.0
2085,0.0244140625,-0.08203125,0.998046875
2086,0.01953125,-0.0810546875,0.994140625
2087,0.021484375,-0.0732421875,0.99609375
2088,0.0185546875,-0.0712890625,1.0
2089,0.025390625,-0.076171875,1.0009765625
2090,0.025390625,-0.076171875,0.9990234375
2091,0.021484375,-0.0693359375,0.9951171875
2092,0.01953125,-0.0693359375,0.9970703125
2093,0.0283203125,-0.0703125,0.998046875
2094,0.025390625,-0.068359375,0.99609375
2095,0.021484375,-0.07421875,0.99609375
2096,0.0185546875,-0.0712890625,0.994140625
2097,0.021484375,-0.076171875,0.9951171875
2098,0.01953125,-0.0751953125,0.9970703125
2099,0.0185546875,-0.07421875,1.0
2100,0.0166015625,-0.078125,1.0
2101,0.0224609375,-0.07421875,0.9951171875
2102,0.0205078125,-0.076171875,0.9990234375
2103,0.021484375,-0.0703125,0.9931640625
2104,0.01953125,-0.0703125,1.0
2105,0.01953125,-0.076171875,0.9990234375
2106,0.0185546875,-0.076171875,1.001953125
2107,0.01953125,-0.0673828125,1.0
2108,0.0205078125,-0.0703125,1.0009765625
2109,0.021484375,-0.0751953125,0.9990234375
2110,0.017578125,-0.0703125,1.001953125
2111,0.0205078125,-0.072265625,1.001953125
2112,0.01953125,-0.0771484375,1.005859375
2113,0.0224609375,-0.068359375,1.001953125
2114,0.0205078125,-0.0712890625,0.9951171875
2115,0.021484375,-0.07421875,0.9970703125
2116,0.0224609375,-0.0703125,1.0009765625
2117,0.0263671875,-0.0751953125,1.0048828125
2118,0.033203125,-0.08203125,1.009765625
2119,0.0302734375,-0.080078125,1.005859375
2120,0.0390625,-0.08203125,1.001953125
2121,0.03515625,-0.072265625,1.0029296875
2122,0.033203125,-0.0771484375,1.0
2123,0.0380859375,-0.08203125,0.998046875
2124,0.0380859375,-0.0732421875,0.9970703125
2125,0.0341796875,-0.0771484375,0.99609375
2126,0.0302734375,-0.07421875,0.99609375
2127,0.0322265625,-0.0712890625,0.9921875
2128,0.033203125,-0.078125,0.9921875
2129,0.03125,-0.0732421875,0.9970703125
2130,0.02734375,-0.0703125,0.9912109375
2131,0.029296875,-0.0693359375,0.9931640625
2132,0.0302734375,-0.0712890625,0.9892578125
2133,0.0244140625,-0.0703125,0.9892578125
2134,0.02734375,-0.0703125,0.9970703125
2135,0.025390625,-0.0693359375,0.994140625
2136,0.017578125,-0.0703125,1.0
2137,0.0205078125,-0.072265625,0.998046875
2138,0.0205078125,-0.0693359375,0.998046875
2139,0.01953125,-0.0712890625,0.9921875
2140,0.015625,-0.0654296875,0.9990234375
2141,0.0166015625,-0.06640625,0.9990234375
2142,0.01953125,-0.0693359375,1.0009765625
2143,0.021484375,-0.068359375,1.0009765625
2144,0.0166015625,-0.0703125,1.001953125
2145,0.0146484375,-0.072265625,0.998046875
2146,0.013671875,-0.0751953125,0.990234375
2147,0.0185546875,-0.0693359375,0.998046875
2148,0.015625,-0.0693359375,0.9970703125
2149,0.0146484375,-0.0703125,1.0
2150,0.0126953125,-0.080078125,1.0
2151,0.013671875,-0.068359375,0.9951171875
2152,0.015625,-0.076171875,0.9990234375
2153,0.0185546875,-0.072265625,0.994140625
2154,0.017578125,-0.0751953125,0.998046875
2155,0.01953125,-0.0712890625,0.9951171875
2156,0.017578125,-0.0703125,0.99609375
2157,0.0166015625,-0.0732421875,0.9970703125
2158,0.021484375,-0.0673828125,0.9970703125
2159,0.0205078125,-0.0703125,0.998046875
2160,0.0244140625,-0.072265625,0.9990234375
2161,0.02734375,-0.0693359375,0.9970703125
2162,0.0244140625,-0.0703125,0.998046875
2163,0.0302734375,-0.0693359375,0.9912109375
2164,0.0244140625,-0.0693359375,0.9921875
2165,0.02734375,-0.0654296875,0.9951171875
2166,0.0283203125,-0.06640625,0.9951171875
2167,0.0263671875,-0.068359375,1.0029296875
2168,0.0283203125,-0.0703125,0.9990234375
2169,0.0302734375,-0.0654296875,0.9970703125
2170,0.0341796875,-0.06640625,1.0029296875
2171,0.03125,-0.0703125,1.001953125
2172,0.03125,-0.0673828125,1.00390625
2173,0.0341796875,-0.06640625,1.0009765625
2174,0.037109375,-0.0673828125,1.0
2175,0.029296875,-0.0693359375,1.0
2176,0.033203125,-0.0673828125,1.001953125
2177,0.025390625,-0.0712890625,0.9951171875
2178,0.0283203125,-0.0751953125,0.9970703125
2179,0.03125,-0.0693359375,0.998046875
2180,0.0302734375,-0.0751953125,1.0029296875
2181,0.02734375,-0.07421875,1.0
2182,0.0234375,-0.07421875,1.0009765625
2183,0.029296875,-0.0693359375,1.0029296875
2184,0.02734375,-0.068359375,0.99609375
2185,0.029296875,-0.076171875,0.9990234375
2186,0.0263671875,-0.0693359375,0.9970703125
2187,0.0263671875,-0.0712890625,0.998046875
2188,0.025390625,-0.068359375,0.9990234375
2189,0.0234375,-0.0712890625,0.998046875
2190,0.021484375,-0.072265625,1.001953125
2191,0.02734375,-0.0751953125,0.99609375
2192,0.01953125,-0.0673828125,0.998046875
2193,0.021484375,-0.0693359375,1.0068359375
2194,0.021484375,-0.06640625,1.0
2195,0.021484375,-0.068359375,0.9990234375
2196,0.0205078125,-0.0654296875,1.0
2197,0.0205078125,-0.0712890625,0.9990234375
2198,0.021484375,-0.064453125,1.0009765625
2199,0.0224609375,-0.064453125,1.0
2200,0.0205078125,-0.06640625,1.0029296875
2201,0.021484375,-0.0673828125,0.998046875
2202,0.0234375,-0.0654296875,0.9970703125
2203,0.0205078125,-0.06640625,0.9990234375
2204,0.0234375,-0.068359375,0.998046875
2205,0.0224609375,-0.0634765625,0.998046875
2206,0.025390625,-0.0693359375,0.9970703125
2207,0.02734375,-0.06640625,1.0
2208,0.0185546875,-0.072265625,0.998046875
2209,0.0205078125,-0.0693359375,0.9970703125
2210,0.021484375,-0.0673828125,0.9990234375
2211,0.0224609375,-0.0693359375,0.998046875
2212,0.021484375,-0.0703125,1.0009765625
2213,0.0263671875,-0.068359375,1.0
2214,0.0224609375,-0.0751953125,1.0
2215,0.0263671875,-0.068359375,0.9990234375
2216,0.0234375,-0.068359375,1.001953125
2217,0.0224609375,-0.0712890625,0.9970703125
2218,0.0263671875,-0.068359375,0.99609375
2219,0.025390625,-0.0693359375,0.9990234375
2220,0.025390625,-0.0673828125,1.0009765625
2221,0.021484375,-0.06640625,1.0
2222,0.0224609375,-0.0673828125,0.998046875
2223,0.025390625,-0.0712890625,0.9990234375
2224,0.0234375,-0.0693359375,0.99609375
2225,0.0244140625,-0.06640625,0.9970703125
2226,0.0244140625,-0.0654296875,0.9990234375
2227,0.01953125,-0.0693359375,0.9990234375
2228,0.0283203125,-0.0712890625,0.9951171875
2229,0.029296875,-0.068359375,0.9970703125
2230,0.0263671875,-0.0673828125,0.998046875
2231,0.0263671875,-0.0673828125,0.9990234375
2232,0.0244140625,-0.0673828125,0.9912109375
2233,0.0341796875,-0.0693359375,1.001953125
2234,0.0263671875,-0.06640625,0.9921875
2235,0.0224609375,-0.0673828125,0.998046875
2236,0.0341796875,-0.0673828125,1.0
2237,0.033203125,-0.068359375,0.998046875
2238,0.02734375,-0.0693359375,0.9970703125
2239,0.0322265625,-0.068359375,0.9990234375
2240,0.0244140625,-0.0693359375,1.0009765625
2241,0.0302734375,-0.0693359375,0.9970703125
2242,0.033203125,-0.0673828125,0.9970703125
2243,0.029296875,-0.0654296875,0.99609375
2244,0.0302734375,-0.0654296875,0.9970703125
2245,0.0302734375,-0.0654296875,1.0
2246,0.033203125,-0.0654296875,0.99609375
2247,0.02734375,-0.0634765625,1.0009765625
2248,0.0302734375,-0.064453125,0.998046875
2249,0.02734375,-0.0654296875,0.9970703125
2250,0.0341796875,-0.06640625,1.0
2251,0.029296875,-0.0654296875,0.998046875
2252,0.02734375,-0.0703125,0.994140625
2253,0.0244140625,-0.0673828125,0.9951171875
2254,0.02734375,-0.0673828125,1.0
2255,0.025390625,-0.0703125,0.998046875
2256,0.03515625,-0.06640625,0.990234375
2257,0.025390625,-0.0703125,0.9951171875
2258,0.02734375,-0.068359375,0.998046875
2259,0.0244140625,-0.0712890625,1.0029296875
2260,0.025390625,-0.0693359375,1.00390625
2261,0.0263671875,-0.072265625,1.0029296875
2262,0.025390625,-0.0703125,1.00390625
2263,0.0263671875,-0.0693359375,0.9990234375
2264,0.0283203125,-0.0634765625,1.0048828125
2265,0.021484375,-0.064453125,1.001953125
2266,0.025390625,-0.0634765625,1.0009765625
2267,0.02734375,-0.0595703125,1.00390625
2268,0.02734375,-0.0625,1.0048828125
2269,0.0244140625,-0.068359375,1.00390625
2270,0.0234375,-0.064453125,1.0048828125
2271,0.021484375,-0.06640625,1.00390625
2272,0.0234375,-0.068359375,1.009765625
2273,0.021484375,-0.0712890625,1.00390625
2274,0.0234375,-0.0703125,1.001953125
2275,0.0263671875,-0.0712890625,0.9990234375
2276,0.0234375,-0.076171875,0.998046875
2277,0.021484375,-0.0732421875,1.0009765625
2278,0.021484375,-0.072265625,1.0009765625
2279,0.021484375,-0.072265625,0.9970703125
2280,0.0283203125,-0.0673828125,0.9970703125
2281,0.0234375,-0.068359375,0.9912109375
2282,0.025390625,-0.0712890625,0.99609375
2283,0.0234375,-0.0673828125,0.990234375
2284,0.0263671875,-0.0634765625,0.998046875
2285,0.025390625,-0.0634765625,0.9931640625
2286,0.0244140625,-0.0595703125,0.9990234375
2287,0.029296875,-0.0556640625,0.9912109375
2288,0.0263671875,-0.0615234375,0.9912109375
2289,0.0234375,-0.0595703125,1.0
2290,0.021484375,-0.0595703125,1.0
2291,0.025390625,-0.060546875,0.994140625
2292,0.0234375,-0.056640625,0.9990234375
2293,0.029296875,-0.0615234375,1.0009765625
2294,0.0263671875,-0.0595703125,1.001953125
2295,0.03125,-0.0576171875,0.9970703125
2296,0.025390625,-0.0615234375,1.0009765625
2297,0.029296875,-0.0576171875,1.0009765625
2298,0.029296875,-0.064453125,0.9990234375
2299,0.0302734375,-0.0556640625,0.9990234375
2300,0.0302734375,-0.0634765625,1.0009765625
2301,0.0302734375,-0.0634765625,0.9990234375
2302,0.0341796875,-0.06640625,1.0009765625
2303,0.0302734375,-0.0673828125,1.0029296875
2304,0.0341796875,-0.0673828125,0.9990234375
2305,0.0283203125,-0.0673828125,1.0009765625
2306,0.0400390625,-0.0703125,1.0029296875
2307,0.0341796875,-0.0673828125,1.0
2308,0.033203125,-0.072265625,0.9990234375
2309,0.029296875,-0.0693359375,0.9970703125
2310,0.03125,-0.07421875,0.998046875
2311,0.0283203125,-0.0673828125,1.0
2312,0.029296875,-0.0693359375,0.9951171875
2313,0.0283203125,-0.0673828125,0.998046875
2314,0.029296875,-0.0703125,0.9970703125
2315,0.02734375,-0.068359375,0.9892578125
2316,0.025390625,-0.068359375,0.9921875
2317,0.033203125,-0.0693359375,0.9990234375
2318,0.02734375,-0.06640625,1.0
2319,0.025390625,-0.0732421875,0.9990234375
2320,0.0224609375,-0.0693359375,0.9990234375
2321,0.0185546875,-0.0732421875,1.0
2322,0.0185546875,-0.0703125,0.99609375
2323,0.0185546875,-0.0712890625,0.9921875
2324,0.0205078125,-0.07421875,0.99609375
2325,0.0185546875,-0.0693359375,0.9912109375
2326,0.0126953125,-0.0703125,0.9951171875
2327,0.0185546875,-0.0732421875,0.998046875
2328,0.0224609375,-0.0751953125,0.998046875
2329,0.021484375,-0.0732421875,0.998046875
2330,0.0224609375,-0.0791015625,1.0
2331,0.0185546875,-0.0712890625,0.9970703125
2332,0.017578125,-0.0732421875,1.001953125
2333,0.0205078125,-0.07421875,1.0
2334,0.0244140625,-0.0771484375,0.9990234375
2335,0.01953125,-0.0751953125,1.0009765625
2336,0.0224609375,-0.078125,1.0
2337,0.0244140625,-0.0810546875,1.0048828125
2338,0.025390625,-0.07421875,1.0029296875
2339,0.0263671875,-0.0830078125,1.0009765625
2340,0.033203125,-0.0771484375,1.0009765625
2341,0.033203125,-0.0830078125,1.0
2342,0.0302734375,-0.0810546875,0.9990234375
2343,0.0341796875,-0.076171875,1.0
2344,0.0341796875,-0.0693359375,1.001953125
2345,0.0361328125,-0.0751953125,0.994140625
2346,0.033203125,-0.0751953125,0.998046875
2347,0.0322265625,-0.0732421875,1.0
2348,0.033203125,-0.0771484375,0.998046875
2349,0.0361328125,-0.072265625,0.9970703125
2350,0.0361328125,-0.0732421875,0.9990234375
2351,0.033203125,-0.0732421875,0.9931640625
2352,0.025390625,-0.0703125,0.9970703125
2353,0.02734375,-0.0732421875,0.9921875
2354,0.029296875,-0.0693359375,0.9970703125
2355,0.03125,-0.080078125,0.994140625
2356,0.0263671875,-0.076171875,0.9990234375
2357,0.0244140625,-0.0732421875,0.9970703125
2358,0.0302734375,-0.072265625,0.9931640625
2359,0.0341796875,-0.0771484375,1.001953125
2360,0.0244140625,-0.072265625,1.0
2361,0.0234375,-0.0732421875,0.99609375
2362,0.02734375,-0.076171875,1.0
2363,0.0244140625,-0.08203125,1.0068359375
2364,0.0263671875,-0.0732421875,0.9990234375
2365,0.02734375,-0.0810546875,0.998046875
2366,0.0244140625,-0.072265625,1.0
2367,0.0263671875,-0.08203125,1.0009765625
2368,0.033203125,-0.078125,0.9921875
2369,0.0224609375,-0.0771484375,0.9951171875
2370,0.0244140625,-0.0771484375,1.0009765625
2371,0.0302734375,-0.0830078125,0.9970703125
2372,0.03125,-0.0771484375,0.9970703125
2373,0.0263671875,-0.078125,1.0
2374,0.021484375,-0.0849609375,0.9990234375
2375,0.025390625,-0.0830078125,1.001953125
2376,0.029296875,-0.08203125,0.9990234375
2377,0.02734375,-0.0830078125,0.998046875
2378,0.025390625,-0.0849609375,0.9970703125
2379,0.029296875,-0.0751953125,0.994140625
2380,0.025390625,-0.078125,0.9970703125
2381,0.02734375,-0.0810546875,0.9990234375
2382,0.029296875,-0.087890625,0.998046875
2383,0.029296875,-0.083984375,0.9931640625
2384,0.0283203125,-0.0849609375,0.998046875
2385,0.021484375,-0.08203125,0.9931640625
2386,0.0263671875,-0.083984375,1.0029296875
2387,0.0244140625,-0.083984375,0.99609375
2388,0.0234375,-0.080078125,0.998046875
2389,0.0224609375,-0.087890625,0.9892578125
2390,0.0244140625,-0.087890625,0.9970703125
2391,0.0234375,-0.083984375,1.0009765625
2392,0.0224609375,-0.0859375,1.0009765625
2393,0.021484375,-0.087890625,0.9970703125
2394,0.0224609375,-0.0849609375,0.9990234375
2395,0.0234375,-0.087890625,0.9990234375
2396,0.0224609375,-0.08984375,0.998046875
2397,0.0244140625,-0.0849609375,1.0
2398,0.02734375,-0.0869140625,0.9990234375
2399,0.0234375,-0.0859375,0.9951171875
2400,0.0224609375,-0.0849609375,0.9970703125
2401,0.0224609375,-0.0830078125,0.9990234375
2402,0.0224609375,-0.0869140625,0.986328125
2403,0.0244140625,-0.08984375,0.994140625
2404,0.0205078125,-0.0859375,0.990234375
2405,0.0244140625,-0.0888671875,0.9951171875
2406,0.02734375,-0.091796875,0.994140625
2407,0.0263671875,-0.09375,0.9970703125
2408,0.025390625,-0.087890625,0.9873046875
2409,0.0263671875,-0.091796875,0.9921875
2410,0.021484375,-0.087890625,0.9931640625
2411,0.0234375,-0.0888671875,0.9873046875
2412,0.0263671875,-0.095703125,0.9873046875
2413,0.0224609375,-0.0888671875,0.9853515625
2414,0.02734375,-0.0888671875,0.990234375
2415,0.029296875,-0.0888671875,0.986328125
2416,0.0302734375,-0.0908203125,0.9853515625
2417,0.033203125,-0.0849609375,0.990234375
2418,0.02734375,-0.08984375,0.9853515625
2419,0.0302734375,-0.0908203125,0.9912109375
2420,0.03125,-0.0927734375,0.9931640625
2421,0.03125,-0.08984375,0.9912109375
2422,0.025390625,-0.08984375,0.9921875
2423,0.0244140625,-0.08984375,0.990234375
2424,0.0263671875,-0.0849609375,0.994140625
2425,0.0234375,-0.08984375,0.9921875
2426,0.0302734375,-0.0888671875,0.998046875
2427,0.0263671875,-0.0888671875,0.9970703125
2428,0.03125,-0.0888671875,0.998046875
2429,0.025390625,-0.087890625,0.9990234375
2430,0.025390625,-0.08984375,1.0029296875
2431,0.0263671875,-0.08984375,1.0009765625
2432,0.0263671875,-0.0908203125,1.0
2433,0.0244140625,-0.087890625,1.005859375
2434,0.03125,-0.09375,1.0068359375
2435,0.0302734375,-0.0966796875,1.0048828125
2436,0.0302734375,-0.0947265625,0.9990234375
2437,0.029296875,-0.0947265625,0.9970703125
2438,0.029296875,-0.091796875,0.998046875
2439,0.02734375,-0.09375,0.998046875
2440,0.0341796875,-0.08984375,0.98828125
2441,0.0302734375,-0.0927734375,0.986328125
2442,0.0224609375,-0.0908203125,0.994140625
2443,0.0244140625,-0.0888671875,0.990234375
2444,0.02734375,-0.087890625,0.9853515625
2445,0.025390625,-0.083984375,0.9873046875
2446,0.02734375,-0.083984375,0.984375
2447,0.0244140625,-0.08203125,0.9921875
2448,0.025390625,-0.0771484375,0.994140625
2449,0.029296875,-0.0732421875,0.9892578125
2450,0.033203125,-0.07421875,0.9951171875
2451,0.025390625,-0.0771484375,0.9970703125
2452,0.0244140625,-0.0703125,1.0
2453,0.0244140625,-0.0712890625,0.994140625
2454,0.0244140625,-0.0712890625,0.9990234375
2455,0.0244140625,-0.0712890625,1.0009765625
2456,0.0283203125,-0.0712890625,1.001953125
2457,0.02734375,-0.0693359375,1.001953125
2458,0.0302734375,-0.0673828125,1.0
2459,0.029296875,-0.0693359375,1.0009765625
2460,0.02734375,-0.0703125,1.0009765625
2461,0.033203125,-0.0712890625,1.0009765625
2462,0.02734375,-0.072265625,1.001953125
2463,0.02734375,-0.068359375,1.0009765625
2464,0.033203125,-0.0703125,1.0009765625
2465,0.0263671875,-0.0693359375,1.001953125
2466,0.0302734375,-0.0732421875,0.994140625
2467,0.0263671875,-0.0703125,0.99609375
2468,0.0244140625,-0.076171875,0.9990234375
2469,0.0302734375,-0.076171875,1.0
2470,0.02734375,-0.08203125,0.99609375
2471,0.0224609375,-0.0751953125,0.9990234375
2472,0.0224609375,-0.076171875,0.994140625
2473,0.0234375,-0.072265625,0.998046875
2474,0.0283203125,-0.0810546875,1.0
2475,0.0244140625,-0.08203125,0.9931640625
2476,0.0263671875,-0.07421875,0.99609375
2477,0.0224609375,-0.0771484375,0.9951171875
2478,0.029296875,-0.078125,0.9990234375
2479,0.0224609375,-0.0703125,0.99609375
2480,0.0234375,-0.072265625,0.9970703125
2481,0.0224609375,-0.0712890625,0.9912109375
2482,0.0234375,-0.068359375,0.998046875
2483,0.0322265625,-0.07421875,1.0
2484,0.02734375,-0.07421875,0.9970703125
2485,0.0302734375,-0.076171875,1.0
2486,0.025390625,-0.076171875,1.001953125
2487,0.0283203125,-0.0810546875,1.001953125
2488,0.02734375,-0.07421875,1.0009765625
2489,0.037109375,-0.0791015625,0.9970703125
2490,0.0322265625,-0.0791015625,0.9970703125
2491,0.029296875,-0.0751953125,1.0009765625
2492,0.0361328125,-0.0849609375,1.001953125
2493,0.0302734375,-0.083984375,0.9951171875
2494,0.0302734375,-0.0859375,0.9892578125
2495,0.02734375,-0.076171875,0.9970703125
2496,0.0302734375,-0.080078125,0.9912109375
2497,0.0283203125,-0.078125,0.9921875
2498,0.0263671875,-0.0830078125,0.9970703125
2499,0.0302734375,-0.0732421875,1.001953125
2500,0.02734375,-0.0791015625,0.9951171875
2501,0.025390625,-0.0732421875,0.998046875
2502,0.0263671875,-0.0712890625,0.9970703125
2503,0.025390625,-0.072265625,0.9951171875
2504,0.029296875,-0.072265625,1.0029296875
2505,0.03125,-0.0732421875,0.99609375
2506,0.0283203125,-0.072265625,0.9931640625
2507,0.029296875,-0.072265625,1.001953125
2508,0.025390625,-0.0712890625,0.9990234375
2509,0.03125,-0.0693359375,1.0
2510,0.0224609375,-0.0732421875,0.998046875
2511,0.0302734375,-0.068359375,1.0
2512,0.0263671875,-0.0654296875,0.998046875
2513,0.0283203125,-0.0673828125,0.994140625
2514,0.0263671875,-0.076171875,0.9921875
2515,0.02734375,-0.06640625,1.0
2516,0.0302734375,-0.072265625,1.0048828125
2517,0.0263671875,-0.0654296875,0.998046875
2518,0.0302734375,-0.0703125,1.0009765625
2519,0.0302734375,-0.0751953125,0.99609375
2520,0.0263671875,-0.064453125,0.998046875
2521,0.0263671875,-0.0673828125,1.0
2522,0.0341796875,-0.0693359375,1.0009765625
2523,0.0263671875,-0.0673828125,1.001953125
2524,0.029296875,-0.0703125,0.9970703125
2525,0.0263671875,-0.064453125,1.0
2526,0.0283203125,-0.0673828125,1.0009765625
2527,0.029296875,-0.0693359375,0.9951171875
2528,0.025390625,-0.0693359375,1.0009765625
2529,0.025390625,-0.068359375,1.0
2530,0.03515625,-0.0654296875,0.9970703125
2531,0.0283203125,-0.064453125,1.0009765625
2532,0.0302734375,-0.0693359375,1.001953125
2533,0.03125,-0.0703125,0.994140625
2534,0.0302734375,-0.0712890625,1.0009765625
2535,0.0322265625,-0.0673828125,0.9970703125
2536,0.0302734375,-0.0693359375,0.9990234375
2537,0.029296875,-0.0673828125,1.0
2538,0.02734375,-0.076171875,0.9931640625
2539,0.025390625,-0.0654296875,0.9990234375
2540,0.0302734375,-0.0693359375,0.9970703125
2541,0.03125,-0.0693359375,1.0
2542,0.029296875,-0.0654296875,1.0009765625
2543,0.0322265625,-0.0693359375,1.0
2544,0.029296875,-0.07421875,0.9990234375
2545,0.033203125,-0.0751953125,0.99609375
2546,0.0263671875,-0.06640625,0.9990234375
2547,0.025390625,-0.068359375,1.0009765625
2548,0.0263671875,-0.0693359375,1.0
2549,0.0283203125,-0.0693359375,1.0009765625
2550,0.0341796875,-0.0712890625,1.0
2551,0.033203125,-0.07421875,0.998046875
2552,0.0322265625,-0.068359375,0.998046875
2553,0.029296875,-0.068359375,0.9970703125
2554,0.033203125,-0.0673828125,1.0009765625
2555,0.033203125,-0.0703125,0.998046875
2556,0.03515625,-0.068359375,0.9892578125
2557,0.0302734375,-0.0673828125,0.9970703125
2558,0.0322265625,-0.06640625,0.9990234375
2559,0.0302734375,-0.0712890625,0.9931640625
2560,0.025390625,-0.072265625,0.9990234375
2561,0.033203125,-0.0712890625,0.9990234375
2562,0.02734375,-0.0693359375,0.9970703125
2563,0.0322265625,-0.0712890625,0.998046875
2564,0.0341796875,-0.06640625,0.9990234375
2565,0.0341796875,-0.0693359375,1.0009765625
2566,0.029296875,-0.0732421875,0.9970703125
2567,0.029296875,-0.0712890625,0.9990234375
2568,0.02734375,-0.0693359375,1.0
2569,0.033203125,-0.0712890625,1.0009765625
2570,0.0302734375,-0.068359375,0.998046875
2571,0.0283203125,-0.0673828125,1.0
2572,0.025390625,-0.0712890625,0.9912109375
2573,0.0263671875,-0.068359375,1.0
2574,0.0302734375,-0.0673828125,1.0
2575,0.0263671875,-0.0673828125,1.0009765625
2576,0.0322265625,-0.068359375,0.9990234375
2577,0.0302734375,-0.0703125,0.998046875
2578,0.033203125,-0.0712890625,1.0
2579,0.0302734375,-0.0673828125,0.998046875
2580,0.025390625,-0.0654296875,1.0
2581,0.02734375,-0.0634765625,0.9970703125
2582,0.02734375,-0.0654296875,0.998046875
2583,0.0341796875,-0.068359375,0.9970703125
2584,0.033203125,-0.0673828125,1.0
2585,0.0302734375,-0.0673828125,1.0009765625
2586,0.0234375,-0.0673828125,1.0
2587,0.025390625,-0.0654296875,1.0
2588,0.0263671875,-0.0654296875,1.001953125
2589,0.029296875,-0.068359375,1.0
2590,0.0263671875,-0.0654296875,0.9990234375
2591,0.029296875,-0.06640625,0.9970703125
2592,0.0302734375,-0.0634765625,1.0
2593,0.02734375,-0.0634765625,1.0009765625
2594,0.0283203125,-0.064453125,1.0048828125
2595,0.0283203125,-0.072265625,1.009765625
2596,0.029296875,-0.0751953125,1.005859375
2597,0.0263671875,-0.076171875,1.0029296875
2598,0.025390625,-0.0751953125,0.998046875
2599,0.025390625,-0.0693359375,0.9990234375
2600,0.0302734375,-0.0693359375,1.0
2601,0.02734375,-0.0693359375,0.998046875
2602,0.03125,-0.076171875,0.9970703125
2603,0.0263671875,-0.0703125,0.9912109375
2604,0.0263671875,-0.0673828125,0.9931640625
2605,0.0234375,-0.064453125,0.99609375
2606,0.0263671875,-0.0673828125,0.9951171875
2607,0.029296875,-0.064453125,0.9970703125
2608,0.0234375,-0.0654296875,0.994140625
2609,0.0283203125,-0.0634765625,0.99609375
2610,0.03125,-0.060546875,0.9990234375
2611,0.0234375,-0.0595703125,0.99609375
2612,0.0283203125,-0.060546875,0.998046875
2613,0.033203125,-0.0615234375,1.0
2614,0.0263671875,-0.0634765625,1.0009765625
2615,0.03125,-0.060546875,1.0009765625
2616,0.03125,-0.05859375,1.005859375
2617,0.033203125,-0.0625,1.001953125
2618,0.033203125,-0.0556640625,1.0009765625
2619,0.03125,-0.0576171875,0.998046875
2620,0.0341796875,-0.0595703125,1.0
2621,0.033203125,-0.0556640625,1.0
2622,0.02734375,-0.05859375,1.0009765625
2623,0.0322265625,-0.0576171875,0.9951171875
2624,0.03515625,-0.0595703125,0.998046875
2625,0.0341796875,-0.060546875,1.0009765625
2626,0.029296875,-0.056640625,0.9951171875
2627,0.033203125,-0.060546875,0.9990234375
2628,0.0302734375,-0.060546875,1.001953125
2629,0.03125,-0.064453125,0.998046875
2630,0.03125,-0.064453125,0.998046875
2631,0.029296875,-0.0615234375,0.998046875
2632,0.0361328125,-0.060546875,1.0
2633,0.033203125,-0.06640625,0.9970703125
2634,0.0244140625,-0.0615234375,0.9990234375
2635,0.0224609375,-0.0625,1.0009765625
2636,0.025390625,-0.064453125,0.9970703125
2637,0.0224609375,-0.060546875,0.9951171875
2638,0.0244140625,-0.0693359375,0.994140625
2639,0.02734375,-0.0654296875,0.99609375
2640,0.0244140625,-0.0654296875,0.994140625
2641,0.0244140625,-0.064453125,0.998046875
2642,0.025390625,-0.064453125,0.9990234375
2643,0.025390625,-0.0654296875,0.9990234375
2644,0.025390625,-0.064453125,0.9970703125
2645,0.0283203125,-0.0654296875,0.9970703125
2646,0.0244140625,-0.0625,1.0009765625
2647,0.025390625,-0.064453125,1.001953125
2648,0.029296875,-0.064453125,1.001953125
2649,0.0244140625,-0.0634765625,1.001953125
2650,0.0322265625,-0.064453125,1.001953125
2651,0.0302734375,-0.0654296875,1.00390625
2652,0.0283203125,-0.0634765625,1.0
2653,0.0302734375,-0.064453125,0.9990234375
2654,0.0263671875,-0.0634765625,1.0009765625
2655,0.03125,-0.0634765625,0.9951171875
2656,0.0263671875,-0.0673828125,1.0
2657,0.0302734375,-0.0634765625,0.98828125
2658,0.029296875,-0.064453125,0.9951171875
2659,0.02734375,-0.064453125,0.9990234375
2660,0.029296875,-0.064453125,0.9990234375
2661,0.025390625,-0.06640625,0.998046875
2662,0.0244140625,-0.0634765625,0.998046875
2663,0.0244140625,-0.0625,0.998046875
2664,0.0244140625,-0.064453125,0.9990234375
2665,0.0205078125,-0.0634765625,1.0
2666,0.0244140625,-0.0634765625,1.0
2667,0.0205078125,-0.060546875,1.001953125
2668,0.021484375,-0.0615234375,1.00390625
2669,0.021484375,-0.0615234375,1.0009765625
2670,0.021484375,-0.0615234375,0.9970703125
2671,0.02734375,-0.0625,1.0029296875
2672,0.0205078125,-0.0615234375,1.001953125
2673,0.01953125,-0.0625,1.0
2674,0.02734375,-0.0576171875,1.0009765625
2675,0.02734375,-0.0634765625,0.994140625
2676,0.0234375,-0.0576171875,1.0009765625
2677,0.0224609375,-0.060546875,1.0
2678,0.0224609375,-0.05859375,1.0009765625
2679,0.0283203125,-0.0625,1.0
2680,0.0263671875,-0.0625,1.0
2681,0.0263671875,-0.0595703125,1.0009765625
2682,0.0302734375,-0.05859375,1.0029296875
2683,0.0283203125,-0.0615234375,0.9990234375
2684,0.03125,-0.0634765625,1.0
2685,0.0283203125,-0.0634765625,0.9970703125
2686,0.029296875,-0.05859375,1.0009765625
2687,0.029296875,-0.064453125,1.001953125
2688,0.02734375,-0.0595703125,0.9990234375
2689,0.0263671875,-0.05859375,0.998046875
2690,0.0302734375,-0.0625,0.9990234375
2691,0.0263671875,-0.056640625,1.001953125
2692,0.0234375,-0.060546875,1.0029296875
2693,0.0244140625,-0.0625,1.0029296875
2694,0.0234375,-0.060546875,1.001953125
2695,0.025390625,-0.0595703125,1.001953125
2696,0.025390625,-0.0625,1.0
2697,0.0283203125,-0.0615234375,1.0009765625
2698,0.0283203125,-0.0576171875,0.99609375
2699,0.0244140625,-0.05859375,0.9970703125
2700,0.0244140625,-0.0634765625,0.9990234375
2701,0.025390625,-0.0595703125,0.9990234375
2702,0.0263671875,-0.060546875,0.994140625
2703,0.0283203125,-0.0654296875,1.0029296875
2704,0.0234375,-0.0634765625,0.998046875
2705,0.0234375,-0.064453125,1.0
2706,0.0244140625,-0.0625,1.0
2707,0.0263671875,-0.0634765625,1.0
2708,0.025390625,-0.0625,1.0009765625
2709,0.0205078125,-0.0625,1.0009765625
2710,0.033203125,-0.0625,1.0
2711,0.0283203125,-0.0595703125,0.9990234375
2712,0.02734375,-0.0615234375,0.998046875
2713,0.0224609375,-0.0654296875,1.00390625
2714,0.0224609375,-0.0654296875,1.0
2715,0.021484375,-0.06640625,1.0029296875
2716,0.0283203125,-0.0673828125,0.998046875
2717,0.021484375,-0.0634765625,0.9990234375
2718,0.0263671875,-0.0625,1.0009765625
2719,0.025390625,-0.064453125,0.998046875
2720,0.0244140625,-0.068359375,0.9990234375
2721,0.0234375,-0.064453125,0.99609375
2722,0.0224609375,-0.0673828125,0.9970703125
2723,0.0244140625,-0.06640625,0.9990234375
2724,0.025390625,-0.06640625,0.99609375
2725,0.0224609375,-0.068359375,1.0029296875
2726,0.0224609375,-0.064453125,1.0009765625
2727,0.021484375,-0.0703125,1.0009765625
2728,0.0244140625,-0.0703125,0.998046875
2729,0.0244140625,-0.068359375,0.9970703125
2730,0.0224609375,-0.068359375,1.0009765625
2731,0.0224609375,-0.06640625,0.9990234375
2732,0.0234375,-0.0693359375,0.9970703125
2733,0.0244140625,-0.068359375,0.998046875
2734,0.025390625,-0.0654296875,1.0009765625
2735,0.021484375,-0.0654296875,0.998046875
2736,0.0224609375,-0.06640625,1.0
2737,0.0224609375,-0.0634765625,0.998046875
2738,0.0234375,-0.068359375,0.9990234375
2739,0.025390625,-0.06640625,0.9990234375
2740,0.0234375,-0.0673828125,0.9990234375
2741,0.0263671875,-0.068359375,0.9990234375
2742,0.0205078125,-0.068359375,0.9970703125
2743,0.0244140625,-0.064453125,1.0
2744,0.0234375,-0.0673828125,1.0
2745,0.0234375,-0.068359375,0.9970703125
2746,0.0244140625,-0.06640625,1.0009765625
2747,0.0234375,-0.0673828125,0.9990234375
2748,0.021484375,-0.068359375,0.998046875
2749,0.021484375,-0.0712890625,1.0
2750,0.021484375,-0.0673828125,1.0
2751,0.025390625,-0.0703125,0.9990234375
2752,0.0224609375,-0.0673828125,0.998046875
2753,0.0205078125,-0.0712890625,0.99609375
2754,0.0224609375,-0.068359375,1.00390625
2755,0.0234375,-0.0693359375,1.0
2756,0.0234375,-0.0703125,1.0009765625
2757,0.025390625,-0.0693359375,0.9990234375
2758,0.0234375,-0.0703125,0.998046875
2759,0.025390625,-0.068359375,0.9990234375
2760,0.0234375,-0.0673828125,0.998046875
2761,0.02734375,-0.0712890625,0.994140625
2762,0.02734375,-0.0712890625,0.998046875
2763,0.0263671875,-0.0712890625,1.0
2764,0.0244140625,-0.0712890625,0.9931640625
2765,0.0263671875,-0.0693359375,0.99609375
2766,0.0244140625,-0.068359375,0.998046875
2767,0.0283203125,-0.0693359375,0.9970703125
2768,0.0263671875,-0.0703125,0.99609375
2769,0.0224609375,-0.0703125,0.99609375
2770,0.021484375,-0.0703125,1.0
2771,0.0224609375,-0.0732421875,0.99609375
2772,0.02734375,-0.076171875,0.9990234375
2773,0.0224609375,-0.0673828125,0.9990234375
2774,0.025390625,-0.076171875,0.9970703125
2775,0.025390625,-0.0732421875,1.0
2776,0.0234375,-0.0693359375,0.9912109375
2777,0.0263671875,-0.0712890625,1.0
2778,0.025390625,-0.0693359375,0.994140625
2779,0.0244140625,-0.0693359375,0.9951171875
2780,0.0205078125,-0.0703125,0.990234375
2781,0.0244140625,-0.0712890625,1.0009765625
2782,0.021484375,-0.08203125,1.001953125
2783,0.0224609375,-0.0810546875,1.0048828125
2784,0.0234375,-0.0869140625,1.0048828125
2785,0.01953125,-0.0859375,1.001953125
2786,0.021484375,-0.087890625,1.0009765625
2787,0.0244140625,-0.0859375,1.0
2788,0.0234375,-0.078125,0.9931640625
2789,0.0205078125,-0.087890625,0.998046875
2790,0.021484375,-0.087890625,0.99609375
2791,0.021484375,-0.0859375,0.9912109375
2792,0.0244140625,-0.0771484375,0.998046875
2793,0.0234375,-0.0771484375,0.990234375
2794,0.021484375,-0.07421875,0.990234375
2795,0.01953125,-0.076171875,0.9931640625
2796,0.0234375,-0.0703125,0.9892578125
2797,0.0244140625,-0.076171875,0.9921875
2798,0.0224609375,-0.0712890625,0.9912109375
2799,0.0234375,-0.0703125,0.9921875
2800,0.0263671875,-0.068359375,0.9970703125
2801,0.0234375,-0.068359375,0.9990234375
2802,0.021484375,-0.068359375,0.9970703125
2803,0.025390625,-0.0673828125,0.998046875
2804,0.021484375,-0.0693359375,0.99609375
2805,0.0234375,-0.0693359375,0.9990234375
2806,0.017578125,-0.0673828125,1.0009765625
2807,0.01953125,-0.0712890625,1.0048828125
2808,0.0234375,-0.068359375,0.994140625
2809,0.0224609375,-0.068359375,0.9970703125
2810,0.0234375,-0.0693359375,0.990234375
2811,0.021484375,-0.0673828125,0.990234375
2812,0.02734375,-0.06640625,0.9990234375
2813,0.01953125,-0.072265625,0.9990234375
2814,0.01953125,-0.076171875,0.9912109375
2815,0.021484375,-0.0712890625,0.9951171875
2816,0.0244140625,-0.0712890625,0.9951171875
2817,0.025390625,-0.0732421875,0.9970703125
2818,0.0185546875,-0.068359375,0.9951171875
2819,0.0244140625,-0.0830078125,0.994140625
2820,0.0205078125,-0.080078125,0.9912109375
2821,0.0224609375,-0.0771484375,0.9970703125
2822,0.0224609375,-0.072265625,0.998046875
2823,0.021484375,-0.072265625,0.998046875
2824,0.0244140625,-0.072265625,0.998046875
2825,0.021484375,-0.080078125,0.9931640625
2826,0.0205078125,-0.0791015625,0.9912109375
2827,0.0234375,-0.0712890625,0.998046875
2828,0.0224609375,-0.0712890625,0.9951171875
2829,0.0224609375,-0.078125,0.9970703125
2830,0.0224609375,-0.0732421875,0.9990234375
2831,0.0224609375,-0.076171875,1.0
2832,0.029296875,-0.0703125,0.99609375
2833,0.021484375,-0.0712890625,1.0009765625
2834,0.025390625,-0.0732421875,0.99609375
2835,0.0234375,-0.0703125,1.0009765625
2836,0.0263671875,-0.0751953125,0.990234375
2837,0.0205078125,-0.076171875,0.9990234375
2838,0.0224609375,-0.072265625,0.99609375
2839,0.0234375,-0.0771484375,0.998046875
2840,0.025390625,-0.0751953125,0.998046875
2841,0.02734375,-0.0732421875,0.998046875
2842,0.0244140625,-0.0830078125,0.9970703125
2843,0.0302734375,-0.076171875,1.001953125
2844,0.021484375,-0.0771484375,1.0
2845,0.0263671875,-0.083984375,1.0009765625
2846,0.02734375,-0.076171875,1.00390625
2847,0.0244140625,-0.0712890625,1.0
2848,0.021484375,-0.0791015625,1.0009765625
2849,0.02734375,-0.0732421875,1.0
2850,0.0244140625,-0.0693359375,1.0009765625
2851,0.0234375,-0.0712890625,0.9951171875
2852,0.021484375,-0.0703125,0.9970703125
2853,0.021484375,-0.0712890625,0.9990234375
2854,0.021484375,-0.0693359375,0.99609375
2855,0.0234375,-0.068359375,0.9951171875
2856,0.0244140625,-0.0673828125,1.0
2857,0.0234375,-0.0712890625,0.9990234375
2858,0.0224609375,-0.068359375,1.0029296875
2859,0.0234375,-0.068359375,0.9990234375
