,accelerometerAccelerationX(G),accelerometerAccelerationY(G),accelerometerAccelerationZ(G)
0,0.08203125,-0.9755859375,0.0
1,0.0791015625,-0.974609375,0.0009765625
2,0.0849609375,-0.9755859375,0.001953125
3,0.08203125,-0.974609375,-0.00390625
4,0.0810546875,-0.970703125,0.0009765625
5,0.080078125,-0.9736328125,0.001953125
6,0.076171875,-0.96875,0.0009765625
7,0.0771484375,-0.9677734375,-0.001953125
8,0.0810546875,-0.970703125,0.0
9,0.076171875,-0.97265625,0.0029296875
10,0.0810546875,-0.974609375,0.0
11,0.0791015625,-0.9697265625,0.0009765625
12,0.076171875,-0.9736328125,0.0029296875
13,0.0771484375,-0.970703125,0.009765625
14,0.07421875,-0.97265625,0.0048828125
15,0.078125,-0.9794921875,0.0
16,0.080078125,-0.978515625,0.001953125
17,0.078125,-0.9814453125,0.001953125
18,0.0771484375,-0.97265625,0.0009765625
19,0.072265625,-0.9775390625,0.00390625
20,0.076171875,-0.97265625,0.0068359375
21,0.0771484375,-0.9775390625,0.0048828125
22,0.0771484375,-0.9736328125,0.00390625
23,0.0810546875,-0.9765625,0.0029296875
24,0.080078125,-0.970703125,0.00390625
25,0.07421875,-0.9736328125,0.0068359375
26,0.0810546875,-0.97265625,0.001953125
27,0.076171875,-0.97265625,0.0068359375
28,0.0771484375,-0.9765625,0.0009765625
29,0.0791015625,-0.9716796875,0.00390625
30,0.0732421875,-0.9736328125,0.001953125
31,0.078125,-0.9677734375,0.0068359375
32,0.07421875,-0.9716796875,0.0048828125
33,0.072265625,-0.970703125,0.00390625
34,0.0732421875,-0.9755859375,0.00390625
35,0.0791015625,-0.9765625,0.0087890625
36,0.076171875,-0.9697265625,0.0068359375
37,0.078125,-0.97265625,0.00390625
38,0.0771484375,-0.97265625,0.0078125
39,0.076171875,-0.974609375,0.00390625
40,0.078125,-0.978515625,0.0048828125
41,0.080078125,-0.9736328125,0.0048828125
42,0.08203125,-0.9716796875,0.0048828125
43,0.078125,-0.9736328125,0.005859375
44,0.0732421875,-0.97265625,0.005859375
45,0.0751953125,-0.9716796875,0.00390625
46,0.076171875,-0.9716796875,0.00390625
47,0.0751953125,-0.9736328125,0.0068359375
48,0.0751953125,-0.9755859375,0.005859375
49,0.0771484375,-0.9697265625,0.0078125
50,0.0771484375,-0.9716796875,0.0068359375
51,0.0791015625,-0.9677734375,0.009765625
52,0.0810546875,-0.9716796875,0.0029296875
53,0.076171875,-0.97265625,0.009765625
54,0.072265625,-0.9736328125,0.005859375
55,0.076171875,-0.9755859375,0.0048828125
56,0.07421875,-0.9755859375,0.0107421875
57,0.0771484375,-0.974609375,0.0078125
58,0.078125,-0.97265625,0.0048828125
59,0.078125,-0.9794921875,0.0048828125
60,0.0732421875,-0.9775390625,0.0048828125
61,0.080078125,-0.96484375,0.0048828125
62,0.072265625,-0.974609375,0.00390625
63,0.07421875,-0.97265625,0.0029296875
64,0.078125,-0.9716796875,0.005859375
65,0.080078125,-0.9755859375,0.0068359375
66,0.0751953125,-0.970703125,0.005859375
67,0.0830078125,-0.974609375,0.0068359375
68,0.078125,-0.970703125,0.00390625
69,0.076171875,-0.974609375,0.0048828125
70,0.0791015625,-0.9765625,0.0048828125
71,0.0712890625,-0.974609375,0.005859375
72,0.0751953125,-0.974609375,0.0029296875
73,0.0703125,-0.970703125,0.0068359375
74,0.0791015625,-0.9775390625,0.0
75,0.07421875,-0.9736328125,0.0107421875
76,0.072265625,-0.97265625,0.005859375
77,0.078125,-0.970703125,0.0048828125
78,0.080078125,-0.974609375,0.0048828125
79,0.076171875,-0.9736328125,0.001953125
80,0.0791015625,-0.9765625,0.0078125
81,0.080078125,-0.9755859375,0.005859375
82,0.078125,-0.974609375,0.00390625
83,0.0771484375,-0.9716796875,0.005859375
84,0.07421875,-0.974609375,0.001953125
85,0.07421875,-0.9716796875,0.0009765625
86,0.072265625,-0.9736328125,0.0048828125
87,0.0751953125,-0.9716796875,0.00390625
88,0.076171875,-0.970703125,0.001953125
89,0.072265625,-0.974609375,0.00390625
90,0.0771484375,-0.97265625,0.0068359375
91,0.0791015625,-0.970703125,0.005859375
92,0.072265625,-0.974609375,0.00390625
93,0.0751953125,-0.9697265625,0.0029296875
94,0.072265625,-0.978515625,0.005859375
95,0.080078125,-0.974609375,0.005859375
96,0.080078125,-0.97265625,0.0078125
97,0.078125,-0.96875,0.0078125
98,0.0751953125,-0.978515625,0.0078125
99,0.07421875,-0.97265625,0.00390625
100,0.0791015625,-0.97265625,0.00390625
101,0.0771484375,-0.9736328125,0.001953125
102,0.0791015625,-0.974609375,0.005859375
103,0.078125,-0.9775390625,0.005859375
104,0.076171875,-0.9765625,0.0068359375
105,0.0791015625,-0.9716796875,0.0078125
106,0.0791015625,-0.9755859375,0.0048828125
107,0.0810546875,-0.97265625,0.0078125
108,0.076171875,-0.974609375,0.0068359375
109,0.076171875,-0.97265625,0.0048828125
110,0.078125,-0.970703125,0.009765625
111,0.080078125,-0.9765625,0.0087890625
112,0.0771484375,-0.9736328125,0.00390625
113,0.08203125,-0.974609375,0.0068359375
114,0.0771484375,-0.970703125,0.0048828125
115,0.0791015625,-0.970703125,0.0068359375
116,0.0751953125,-0.974609375,0.0029296875
117,0.076171875,-0.9755859375,0.0107421875
118,0.0771484375,-0.9716796875,0.00390625
119,0.0771484375,-0.9716796875,0.0
120,0.0771484375,-0.97265625,0.0068359375
121,0.0791015625,-0.97265625,0.0048828125
122,0.0810546875,-0.9775390625,0.009765625
123,0.072265625,-0.974609375,0.009765625
124,0.0791015625,-0.974609375,0.0048828125
125,0.076171875,-0.9736328125,0.0068359375
126,0.0791015625,-0.9755859375,0.005859375
127,0.0810546875,-0.9794921875,0.0068359375
128,0.0810546875,-0.974609375,0.0048828125
129,0.0751953125,-0.9736328125,0.0029296875
130,0.08203125,-0.9765625,0.0068359375
131,0.080078125,-0.9716796875,0.0029296875
132,0.078125,-0.96875,0.0078125
133,0.0771484375,-0.9716796875,0.00390625
134,0.076171875,-0.9716796875,0.0068359375
135,0.08203125,-0.9736328125,0.0087890625
136,0.0810546875,-0.9755859375,0.00390625
137,0.0751953125,-0.9765625,0.005859375
138,0.07421875,-0.9775390625,0.0078125
139,0.0751953125,-0.9794921875,0.005859375
140,0.076171875,-0.9755859375,0.0087890625
141,0.0771484375,-0.974609375,-0.0009765625
142,0.0732421875,-0.9755859375,0.0048828125
143,0.0693359375,-0.9736328125,0.00390625
144,0.08203125,-0.974609375,0.001953125
145,0.080078125,-0.9775390625,0.0009765625
146,0.078125,-0.9716796875,0.001953125
147,0.0771484375,-0.9765625,0.001953125
148,0.0771484375,-0.9736328125,0.009765625
149,0.080078125,-0.9755859375,0.0048828125
150,0.076171875,-0.97265625,0.001953125
151,0.0791015625,-0.9716796875,0.0068359375
152,0.0791015625,-0.9736328125,0.0087890625
153,0.07421875,-0.97265625,0.0087890625
154,0.076171875,-0.97265625,0.005859375
155,0.076171875,-0.9697265625,0.0068359375
156,0.0791015625,-0.9736328125,0.005859375
157,0.0751953125,-0.9794921875,0.0078125
158,0.078125,-0.97265625,0.0048828125
159,0.0791015625,-0.9697265625,0.01171875
160,0.08203125,-0.9775390625,0.0048828125
161,0.080078125,-0.9765625,0.0048828125
162,0.08203125,-0.978515625,0.005859375
163,0.0810546875,-0.9736328125,0.0068359375
164,0.08203125,-0.9697265625,0.0029296875
165,0.078125,-0.9755859375,0.0
166,0.0791015625,-0.974609375,0.0068359375
167,0.08203125,-0.9736328125,0.0029296875
168,0.08203125,-0.9716796875,0.0048828125
169,0.0771484375,-0.97265625,0.0068359375
170,0.080078125,-0.9716796875,0.005859375
171,0.078125,-0.9736328125,0.00390625
172,0.0771484375,-0.974609375,0.0068359375
173,0.0810546875,-0.96875,0.0078125
174,0.0751953125,-0.9765625,0.0029296875
175,0.0810546875,-0.9755859375,0.00390625
176,0.076171875,-0.970703125,-0.0009765625
177,0.0732421875,-0.974609375,0.0068359375
178,0.0791015625,-0.97265625,0.0048828125
179,0.076171875,-0.974609375,0.0029296875
180,0.0791015625,-0.970703125,0.0029296875
181,0.078125,-0.97265625,0.0048828125
182,0.0771484375,-0.974609375,0.005859375
183,0.076171875,-0.9755859375,0.0029296875
184,0.0791015625,-0.974609375,0.0009765625
185,0.080078125,-0.9697265625,0.001953125
186,0.0771484375,-0.9765625,0.00390625
187,0.08203125,-0.97265625,0.0048828125
188,0.076171875,-0.974609375,0.001953125
189,0.078125,-0.9736328125,0.0
190,0.0810546875,-0.9716796875,0.005859375
191,0.0791015625,-0.970703125,0.005859375
192,0.078125,-0.970703125,0.001953125
193,0.0791015625,-0.9755859375,0.0048828125
194,0.078125,-0.9716796875,0.0009765625
195,0.076171875,-0.9736328125,0.0078125
196,0.08203125,-0.978515625,0.001953125
197,0.0830078125,-0.9794921875,0.0068359375
198,0.0830078125,-0.9775390625,0.005859375
199,0.0810546875,-0.9765625,0.0078125
200,0.0791015625,-0.9775390625,0.0029296875
201,0.080078125,-0.9755859375,0.0078125
202,0.0810546875,-0.9775390625,0.0068359375
203,0.0791015625,-0.96875,0.0078125
204,0.076171875,-0.9716796875,0.00390625
205,0.076171875,-0.9716796875,0.005859375
206,0.0751953125,-0.9755859375,0.0029296875
207,0.0751953125,-0.970703125,0.0029296875
208,0.078125,-0.9716796875,0.0068359375
209,0.076171875,-0.9736328125,0.0009765625
210,0.0791015625,-0.970703125,0.0048828125
211,0.080078125,-0.9755859375,0.0068359375
212,0.0732421875,-0.9716796875,0.0029296875
213,0.0751953125,-0.9716796875,0.0068359375
214,0.0771484375,-0.974609375,0.0068359375
215,0.0771484375,-0.96875,0.0078125
216,0.07421875,-0.9736328125,0.005859375
217,0.0732421875,-0.9736328125,0.0126953125
218,0.07421875,-0.9736328125,0.0068359375
219,0.080078125,-0.9697265625,0.0068359375
220,0.0751953125,-0.9716796875,0.0068359375
221,0.0771484375,-0.974609375,0.005859375
222,0.0771484375,-0.970703125,0.0068359375
223,0.0771484375,-0.9765625,0.0068359375
224,0.0791015625,-0.9716796875,0.0107421875
225,0.076171875,-0.974609375,0.0009765625
226,0.076171875,-0.9677734375,0.0078125
227,0.08203125,-0.974609375,0.005859375
228,0.0791015625,-0.974609375,0.005859375
229,0.080078125,-0.9736328125,0.0048828125
230,0.0771484375,-0.974609375,0.0048828125
231,0.07421875,-0.9755859375,0.0048828125
232,0.078125,-0.97265625,0.005859375
233,0.078125,-0.970703125,0.005859375
234,0.0751953125,-0.974609375,0.0029296875
235,0.0751953125,-0.9716796875,0.0009765625
236,0.076171875,-0.97265625,0.0009765625
237,0.08203125,-0.974609375,0.005859375
238,0.078125,-0.9697265625,0.0029296875
239,0.076171875,-0.9697265625,0.00390625
240,0.078125,-0.9736328125,0.0029296875
241,0.0791015625,-0.974609375,0.00390625
242,0.076171875,-0.970703125,0.00390625
243,0.078125,-0.9765625,0.0078125
244,0.0810546875,-0.9716796875,0.0078125
245,0.0810546875,-0.9755859375,0.005859375
246,0.078125,-0.9765625,0.0029296875
247,0.078125,-0.9736328125,0.0009765625
248,0.078125,-0.9775390625,0.0048828125
249,0.0791015625,-0.9736328125,0.005859375
250,0.07421875,-0.9736328125,0.0048828125
251,0.080078125,-0.970703125,0.0048828125
252,0.0751953125,-0.9755859375,0.0048828125
253,0.0791015625,-0.970703125,0.00390625
254,0.0771484375,-0.97265625,0.001953125
255,0.0791015625,-0.970703125,0.001953125
256,0.076171875,-0.9716796875,0.001953125
257,0.078125,-0.97265625,0.0068359375
258,0.078125,-0.974609375,0.0009765625
259,0.076171875,-0.9716796875,0.001953125
260,0.076171875,-0.9794921875,-0.0009765625
261,0.0771484375,-0.9765625,0.0068359375
262,0.076171875,-0.9765625,0.0068359375
263,0.07421875,-0.9755859375,0.0048828125
264,0.072265625,-0.974609375,0.0068359375
265,0.07421875,-0.9736328125,0.005859375
266,0.0771484375,-0.970703125,0.00390625
267,0.0771484375,-0.9755859375,0.0009765625
268,0.078125,-0.9755859375,0.0068359375
269,0.0751953125,-0.9716796875,0.0087890625
270,0.0771484375,-0.9716796875,0.0078125
271,0.078125,-0.9765625,0.0087890625
272,0.0791015625,-0.97265625,0.0048828125
273,0.0791015625,-0.9765625,0.0048828125
274,0.0771484375,-0.9794921875,0.0068359375
275,0.0751953125,-0.97265625,0.00390625
276,0.080078125,-0.97265625,0.0029296875
277,0.076171875,-0.974609375,0.0029296875
278,0.080078125,-0.9765625,0.01171875
279,0.08203125,-0.9716796875,0.0126953125
280,0.0771484375,-0.9736328125,0.0107421875
281,0.08203125,-0.97265625,0.005859375
282,0.078125,-0.974609375,0.0087890625
283,0.0771484375,-0.9716796875,0.0029296875
284,0.0751953125,-0.974609375,0.0048828125
285,0.0732421875,-0.9736328125,0.001953125
286,0.0771484375,-0.9716796875,0.00390625
287,0.0791015625,-0.9716796875,0.0048828125
288,0.0771484375,-0.97265625,0.0078125
289,0.0751953125,-0.9755859375,0.0078125
290,0.07421875,-0.974609375,0.0107421875
291,0.0771484375,-0.974609375,0.0048828125
292,0.0751953125,-0.970703125,0.005859375
293,0.076171875,-0.9677734375,0.0048828125
294,0.0751953125,-0.9697265625,0.001953125
295,0.078125,-0.9736328125,0.0048828125
296,0.078125,-0.9716796875,0.001953125
297,0.076171875,-0.9755859375,-0.00390625
298,0.076171875,-0.9716796875,0.001953125
299,0.0732421875,-0.974609375,0.0009765625
300,0.0751953125,-0.970703125,0.0009765625
301,0.078125,-0.974609375,-0.0009765625
302,0.0732421875,-0.97265625,0.001953125
303,0.078125,-0.9765625,0.0
304,0.0791015625,-0.9716796875,0.00390625
305,0.076171875,-0.9775390625,0.0009765625
306,0.0791015625,-0.9775390625,-0.0029296875
307,0.0751953125,-0.9794921875,0.001953125
308,0.0810546875,-0.98046875,-0.009765625
309,0.078125,-0.9765625,-0.0048828125
310,0.0791015625,-0.97265625,0.0
311,0.0810546875,-0.9755859375,-0.0068359375
312,0.08203125,-0.9765625,0.0
313,0.078125,-0.974609375,-0.0009765625
314,0.08203125,-0.970703125,0.0
315,0.0810546875,-0.974609375,0.0009765625
316,0.0771484375,-0.974609375,0.001953125
317,0.07421875,-0.974609375,0.00390625
318,0.076171875,-0.9697265625,0.0
319,0.072265625,-0.9716796875,0.0068359375
320,0.0771484375,-0.97265625,0.0048828125
321,0.0732421875,-0.97265625,0.001953125
322,0.080078125,-0.97265625,0.001953125
323,0.0771484375,-0.9716796875,0.001953125
324,0.078125,-0.974609375,0.001953125
325,0.0810546875,-0.970703125,0.0048828125
326,0.08203125,-0.970703125,0.0009765625
327,0.078125,-0.9755859375,0.0068359375
328,0.08203125,-0.9765625,0.0048828125
329,0.0771484375,-0.970703125,0.0029296875
330,0.078125,-0.9736328125,0.00390625
331,0.0791015625,-0.9814453125,0.009765625
332,0.083984375,-0.97265625,-0.001953125
333,0.0791015625,-0.97265625,0.0048828125
334,0.080078125,-0.97265625,0.0029296875
335,0.0791015625,-0.974609375,0.0
336,0.078125,-0.9736328125,0.00390625
337,0.080078125,-0.9716796875,0.005859375
338,0.0771484375,-0.970703125,0.0009765625
339,0.080078125,-0.9755859375,0.005859375
340,0.0810546875,-0.9736328125,0.0048828125
341,0.078125,-0.9775390625,0.00390625
342,0.0791015625,-0.9716796875,0.0048828125
343,0.080078125,-0.974609375,0.0
344,0.078125,-0.97265625,0.005859375
345,0.0751953125,-0.9755859375,0.0078125
346,0.0791015625,-0.9736328125,0.0009765625
347,0.0771484375,-0.97265625,0.0029296875
348,0.0810546875,-0.9697265625,0.009765625
349,0.07421875,-0.97265625,0.001953125
350,0.0791015625,-0.9697265625,0.0048828125
351,0.0751953125,-0.970703125,0.0107421875
352,0.076171875,-0.96875,0.0048828125
353,0.078125,-0.9716796875,0.0078125
354,0.080078125,-0.974609375,0.0087890625
355,0.078125,-0.96875,0.00390625
356,0.0771484375,-0.970703125,0.0029296875
357,0.0791015625,-0.9697265625,0.001953125
358,0.0791015625,-0.97265625,0.009765625
359,0.078125,-0.9697265625,0.005859375
360,0.0791015625,-0.9755859375,0.0078125
361,0.07421875,-0.9755859375,0.0029296875
362,0.0791015625,-0.9736328125,0.009765625
363,0.076171875,-0.974609375,0.0029296875
364,0.0830078125,-0.974609375,0.0029296875
365,0.0771484375,-0.9755859375,0.0
366,0.0771484375,-0.9794921875,0.0048828125
367,0.078125,-0.9736328125,0.005859375
368,0.0771484375,-0.9775390625,0.0068359375
369,0.0791015625,-0.978515625,0.0068359375
370,0.08203125,-0.9775390625,0.0048828125
371,0.076171875,-0.97265625,0.00390625
372,0.078125,-0.9736328125,0.0029296875
373,0.07421875,-0.9794921875,0.00390625
374,0.0732421875,-0.9755859375,0.0068359375
375,0.0751953125,-0.970703125,0.00390625
376,0.072265625,-0.9755859375,0.001953125
377,0.076171875,-0.9765625,0.0087890625
378,0.078125,-0.96875,0.0068359375
379,0.0771484375,-0.970703125,0.0048828125
380,0.0751953125,-0.9765625,0.0048828125
381,0.0771484375,-0.9736328125,0.0009765625
382,0.07421875,-0.974609375,0.0029296875
383,0.078125,-0.970703125,0.001953125
384,0.076171875,-0.9755859375,0.0048828125
385,0.0791015625,-0.974609375,0.0029296875
386,0.078125,-0.9736328125,0.0087890625
387,0.078125,-0.9736328125,0.0078125
388,0.0751953125,-0.96875,0.0068359375
389,0.0751953125,-0.978515625,0.009765625
390,0.076171875,-0.97265625,0.0048828125
391,0.0732421875,-0.9755859375,0.00390625
392,0.07421875,-0.966796875,0.001953125
393,0.0771484375,-0.97265625,0.0078125
394,0.078125,-0.970703125,0.0048828125
395,0.076171875,-0.970703125,0.0029296875
396,0.0771484375,-0.9716796875,0.0048828125
397,0.0771484375,-0.970703125,0.001953125
398,0.0791015625,-0.9736328125,0.0
399,0.078125,-0.9697265625,0.001953125
400,0.0771484375,-0.9716796875,-0.0009765625
401,0.0751953125,-0.9736328125,0.0029296875
402,0.0810546875,-0.9736328125,0.005859375
403,0.07421875,-0.970703125,0.0009765625
404,0.0771484375,-0.9716796875,0.0009765625
405,0.078125,-0.9716796875,-0.0009765625
406,0.0732421875,-0.9755859375,0.001953125
407,0.0771484375,-0.9736328125,0.0029296875
408,0.076171875,-0.9736328125,0.00390625
409,0.078125,-0.974609375,0.0
410,0.078125,-0.9755859375,0.001953125
411,0.0751953125,-0.9755859375,0.0
412,0.0771484375,-0.974609375,0.001953125
413,0.0751953125,-0.974609375,0.0
414,0.0751953125,-0.9765625,0.0009765625
415,0.078125,-0.978515625,0.0
416,0.07421875,-0.9716796875,-0.0009765625
417,0.078125,-0.974609375,0.0009765625
418,0.078125,-0.9775390625,0.0029296875
419,0.076171875,-0.9736328125,-0.0009765625
420,0.07421875,-0.9736328125,0.0
421,0.07421875,-0.9755859375,0.001953125
422,0.0751953125,-0.9736328125,0.00390625
423,0.07421875,-0.97265625,0.0
424,0.0751953125,-0.9736328125,-0.0009765625
425,0.0732421875,-0.9765625,0.0029296875
426,0.0751953125,-0.97265625,0.005859375
427,0.076171875,-0.9765625,0.00390625
428,0.0771484375,-0.9765625,0.001953125
429,0.0751953125,-0.9716796875,0.001953125
430,0.078125,-0.9736328125,0.0078125
431,0.076171875,-0.96875,0.0048828125
432,0.0810546875,-0.974609375,0.0029296875
433,0.08203125,-0.9765625,0.0
434,0.0771484375,-0.978515625,0.005859375
435,0.076171875,-0.978515625,0.0009765625
436,0.0751953125,-0.9736328125,0.0
437,0.078125,-0.974609375,0.0029296875
438,0.0791015625,-0.97265625,0.0
439,0.0810546875,-0.97265625,0.0
440,0.080078125,-0.9775390625,-0.0029296875
441,0.0732421875,-0.9755859375,0.0048828125
442,0.0771484375,-0.9755859375,0.0
443,0.0771484375,-0.9765625,0.0009765625
444,0.0791015625,-0.9736328125,0.0048828125
445,0.078125,-0.9755859375,0.0
446,0.0791015625,-0.9755859375,0.0009765625
447,0.0751953125,-0.974609375,-0.001953125
448,0.0771484375,-0.978515625,0.0048828125
449,0.0771484375,-0.97265625,0.0029296875
450,0.0751953125,-0.970703125,-0.0009765625
451,0.083984375,-0.974609375,0.001953125
452,0.078125,-0.96875,0.0
453,0.078125,-0.9697265625,-0.0009765625
454,0.076171875,-0.97265625,0.0
455,0.07421875,-0.9716796875,0.0
456,0.076171875,-0.9755859375,0.0029296875
457,0.072265625,-0.97265625,0.0048828125
458,0.0732421875,-0.97265625,0.0029296875
459,0.0771484375,-0.98046875,0.0
460,0.0751953125,-0.9736328125,0.005859375
461,0.0830078125,-0.9775390625,0.0048828125
462,0.078125,-0.9794921875,-0.00390625
463,0.0810546875,-0.9716796875,0.0009765625
464,0.0751953125,-0.9736328125,0.0
465,0.0859375,-0.9736328125,-0.0029296875
466,0.080078125,-0.9716796875,-0.0078125
467,0.0810546875,-0.9765625,-0.001953125
468,0.0732421875,-0.974609375,-0.00390625
469,0.0751953125,-0.9736328125,-0.00390625
470,0.0810546875,-0.974609375,0.0009765625
471,0.07421875,-0.9755859375,0.0009765625
472,0.0791015625,-0.9736328125,-0.0029296875
473,0.0751953125,-0.9716796875,-0.0029296875
474,0.0732421875,-0.970703125,-0.0009765625
475,0.0732421875,-0.9697265625,0.0
476,0.072265625,-0.9736328125,0.0009765625
477,0.078125,-0.9736328125,0.0009765625
478,0.076171875,-0.9697265625,0.0048828125
479,0.078125,-0.974609375,-0.0009765625
480,0.078125,-0.97265625,-0.0009765625
481,0.076171875,-0.9716796875,0.0029296875
482,0.0791015625,-0.97265625,0.001953125
483,0.0791015625,-0.9716796875,0.001953125
484,0.078125,-0.9697265625,0.0
485,0.0791015625,-0.9755859375,0.001953125
486,0.080078125,-0.9736328125,0.0029296875
487,0.078125,-0.970703125,0.0009765625
488,0.0810546875,-0.9716796875,0.0029296875
489,0.0771484375,-0.9736328125,0.0029296875
490,0.076171875,-0.974609375,0.0029296875
491,0.0830078125,-0.970703125,0.0
492,0.080078125,-0.96875,0.0009765625
493,0.0791015625,-0.970703125,0.0
494,0.0751953125,-0.9716796875,0.001953125
495,0.0810546875,-0.9736328125,0.001953125
496,0.080078125,-0.970703125,0.0009765625
497,0.0810546875,-0.9716796875,-0.0009765625
498,0.0810546875,-0.970703125,0.0029296875
499,0.078125,-0.9736328125,0.0029296875
500,0.0791015625,-0.9677734375,-0.001953125
501,0.078125,-0.974609375,0.00390625
502,0.0791015625,-0.974609375,0.0029296875
503,0.076171875,-0.9755859375,-0.0009765625
504,0.078125,-0.9716796875,0.0009765625
505,0.0849609375,-0.9716796875,0.0029296875
506,0.0810546875,-0.97265625,0.001953125
507,0.078125,-0.974609375,0.0
508,0.07421875,-0.9765625,0.0
509,0.080078125,-0.96875,0.001953125
510,0.080078125,-0.9755859375,0.0048828125
511,0.080078125,-0.97265625,0.0
512,0.0810546875,-0.966796875,-0.0009765625
513,0.078125,-0.97265625,0.00390625
514,0.0810546875,-0.9716796875,0.005859375
515,0.0810546875,-0.974609375,0.0
516,0.0791015625,-0.9765625,0.0048828125
517,0.0771484375,-0.974609375,0.0
518,0.076171875,-0.9716796875,0.0029296875
519,0.078125,-0.9736328125,0.0048828125
520,0.08203125,-0.9755859375,0.0029296875
521,0.08203125,-0.974609375,0.0029296875
522,0.0849609375,-0.9794921875,0.0
523,0.08203125,-0.97265625,0.00390625
524,0.080078125,-0.974609375,0.0009765625
525,0.080078125,-0.9716796875,0.001953125
526,0.0771484375,-0.97265625,0.0029296875
527,0.0810546875,-0.9755859375,0.0029296875
528,0.0771484375,-0.97265625,0.001953125
529,0.0751953125,-0.9716796875,0.009765625
530,0.0771484375,-0.9736328125,0.00390625
531,0.0751953125,-0.9716796875,0.001953125
532,0.0771484375,-0.96875,0.0068359375
533,0.080078125,-0.9736328125,0.0029296875
534,0.078125,-0.970703125,0.005859375
535,0.0771484375,-0.974609375,0.001953125
536,0.08203125,-0.970703125,0.0048828125
537,0.07421875,-0.9794921875,0.00390625
538,0.080078125,-0.9755859375,0.0048828125
539,0.076171875,-0.9716796875,0.0087890625
540,0.078125,-0.9736328125,0.0068359375
541,0.0732421875,-0.9755859375,-0.0009765625
542,0.0810546875,-0.9765625,0.0068359375
543,0.0751953125,-0.9755859375,0.0087890625
544,0.078125,-0.9736328125,0.005859375
545,0.080078125,-0.97265625,0.00390625
546,0.0771484375,-0.97265625,0.0068359375
547,0.0791015625,-0.970703125,0.0048828125
548,0.078125,-0.97265625,0.0087890625
549,0.076171875,-0.974609375,0.00390625
550,0.07421875,-0.97265625,0.0
551,0.0771484375,-0.9697265625,0.0068359375
552,0.076171875,-0.97265625,0.0029296875
553,0.076171875,-0.97265625,0.0048828125
554,0.07421875,-0.970703125,0.00390625
555,0.080078125,-0.9716796875,0.009765625
556,0.07421875,-0.9716796875,0.0009765625
557,0.078125,-0.96875,0.0009765625
558,0.080078125,-0.9677734375,0.00390625
559,0.0771484375,-0.9765625,0.0029296875
560,0.0791015625,-0.9736328125,0.0048828125
561,0.0810546875,-0.97265625,0.0029296875
562,0.076171875,-0.9716796875,0.0029296875
563,0.0830078125,-0.9716796875,0.0
564,0.078125,-0.974609375,0.005859375
565,0.08203125,-0.9697265625,0.0048828125
566,0.0791015625,-0.9755859375,0.00390625
567,0.0810546875,-0.9716796875,0.0009765625
568,0.0810546875,-0.9755859375,0.0009765625
569,0.0771484375,-0.9755859375,0.00390625
570,0.0791015625,-0.974609375,0.0009765625
571,0.0810546875,-0.9775390625,0.0087890625
572,0.076171875,-0.9755859375,0.0048828125
573,0.08203125,-0.97265625,0.0029296875
574,0.078125,-0.9755859375,0.00390625
575,0.08203125,-0.9736328125,0.00390625
576,0.0791015625,-0.97265625,0.005859375
577,0.080078125,-0.9716796875,0.0068359375
578,0.0830078125,-0.9736328125,0.0107421875
579,0.0791015625,-0.9755859375,0.00390625
580,0.08203125,-0.9716796875,0.0078125
581,0.080078125,-0.974609375,0.0048828125
582,0.0810546875,-0.970703125,0.0087890625
583,0.078125,-0.970703125,0.0078125
584,0.0810546875,-0.970703125,0.0068359375
585,0.0791015625,-0.9716796875,0.0048828125
586,0.078125,-0.970703125,0.009765625
587,0.0771484375,-0.970703125,0.0087890625
588,0.08203125,-0.9736328125,0.01171875
589,0.078125,-0.9736328125,0.0126953125
590,0.076171875,-0.966796875,0.005859375
591,0.0771484375,-0.96875,0.0087890625
592,0.076171875,-0.9697265625,0.00390625
593,0.0771484375,-0.974609375,0.0068359375
594,0.0810546875,-0.97265625,0.0068359375
595,0.0791015625,-0.9775390625,0.0087890625
596,0.0830078125,-0.9716796875,0.0068359375
597,0.083984375,-0.9697265625,0.0087890625
598,0.0771484375,-0.974609375,0.0078125
599,0.080078125,-0.9697265625,0.0078125
600,0.0830078125,-0.9765625,0.0068359375
601,0.0859375,-0.974609375,0.013671875
602,0.0791015625,-0.9716796875,0.0078125
603,0.076171875,-0.970703125,0.0126953125
604,0.08203125,-0.9775390625,0.0166015625
605,0.083984375,-0.97265625,0.0126953125
606,0.078125,-0.97265625,0.0048828125
607,0.0810546875,-0.9716796875,0.0078125
608,0.08203125,-0.9697265625,0.009765625
609,0.08203125,-0.9765625,0.00390625
610,0.0830078125,-0.970703125,0.01171875
611,0.080078125,-0.974609375,0.0087890625
612,0.0810546875,-0.9736328125,0.0087890625
613,0.080078125,-0.9716796875,0.0048828125
614,0.0810546875,-0.9765625,0.0126953125
615,0.0830078125,-0.9697265625,0.0087890625
616,0.078125,-0.9716796875,0.0078125
617,0.0751953125,-0.9755859375,0.0048828125
618,0.08203125,-0.9765625,0.0087890625
619,0.0791015625,-0.974609375,0.0068359375
620,0.080078125,-0.9765625,0.01171875
621,0.0771484375,-0.978515625,0.00390625
622,0.080078125,-0.974609375,0.0
623,0.08203125,-0.9716796875,0.0068359375
624,0.0810546875,-0.974609375,-0.0009765625
625,0.0751953125,-0.974609375,0.0029296875
626,0.0810546875,-0.9775390625,0.0087890625
627,0.08203125,-0.9755859375,0.0048828125
628,0.078125,-0.9765625,0.013671875
629,0.0830078125,-0.9775390625,0.0068359375
630,0.0791015625,-0.9765625,0.013671875
631,0.0771484375,-0.9716796875,0.0126953125
632,0.08203125,-0.97265625,0.0146484375
633,0.076171875,-0.974609375,0.005859375
634,0.078125,-0.9755859375,0.0048828125
635,0.0771484375,-0.9736328125,0.0087890625
636,0.0751953125,-0.970703125,0.0068359375
637,0.07421875,-0.96875,0.0078125
638,0.08203125,-0.96484375,0.009765625
639,0.0810546875,-0.970703125,0.0078125
640,0.08203125,-0.96875,0.0126953125
641,0.080078125,-0.97265625,0.0146484375
642,0.080078125,-0.9736328125,0.013671875
643,0.080078125,-0.9755859375,0.0146484375
644,0.0830078125,-0.9697265625,0.0146484375
645,0.080078125,-0.9716796875,0.009765625
646,0.0830078125,-0.9736328125,0.0146484375
647,0.0869140625,-0.9697265625,0.0146484375
648,0.080078125,-0.970703125,0.013671875
649,0.0849609375,-0.97265625,0.0078125
650,0.0859375,-0.970703125,0.0087890625
651,0.083984375,-0.974609375,0.0146484375
652,0.08203125,-0.970703125,0.01171875
653,0.0810546875,-0.9736328125,0.005859375
654,0.080078125,-0.974609375,0.01171875
655,0.08203125,-0.970703125,0.009765625
656,0.0830078125,-0.9736328125,0.0166015625
657,0.0810546875,-0.9697265625,0.009765625
658,0.0869140625,-0.97265625,0.0166015625
659,0.0810546875,-0.9755859375,0.009765625
660,0.080078125,-0.9716796875,0.013671875
661,0.0830078125,-0.974609375,0.013671875
662,0.0830078125,-0.9716796875,0.013671875
663,0.0771484375,-0.9736328125,0.0166015625
664,0.0791015625,-0.970703125,0.015625
665,0.08203125,-0.9716796875,0.01171875
666,0.08203125,-0.9716796875,0.0087890625
667,0.080078125,-0.9716796875,0.0126953125
668,0.080078125,-0.97265625,0.0107421875
669,0.0810546875,-0.9697265625,0.0126953125
670,0.0849609375,-0.9736328125,0.013671875
671,0.0830078125,-0.9736328125,0.0205078125
672,0.076171875,-0.97265625,0.0166015625
673,0.0830078125,-0.9716796875,0.01171875
674,0.083984375,-0.974609375,0.0126953125
675,0.0849609375,-0.970703125,0.0146484375
676,0.0830078125,-0.970703125,0.0166015625
677,0.0830078125,-0.9716796875,0.0126953125
678,0.083984375,-0.9775390625,0.015625
679,0.080078125,-0.9765625,0.0205078125
680,0.0869140625,-0.9736328125,0.0146484375
681,0.083984375,-0.974609375,0.0126953125
682,0.0830078125,-0.974609375,0.01171875
683,0.080078125,-0.974609375,0.013671875
684,0.08203125,-0.9736328125,0.013671875
685,0.083984375,-0.96875,0.0126953125
686,0.0830078125,-0.9736328125,0.015625
687,0.08203125,-0.97265625,0.0185546875
688,0.0830078125,-0.9736328125,0.0166015625
689,0.0791015625,-0.97265625,0.01171875
690,0.0791015625,-0.958984375,0.01171875
691,0.08203125,-0.970703125,0.0126953125
692,0.08203125,-0.9716796875,0.0146484375
693,0.0869140625,-0.970703125,0.01171875
694,0.080078125,-0.9697265625,0.0068359375
695,0.080078125,-0.9697265625,0.009765625
696,0.0830078125,-0.97265625,0.0126953125
697,0.08203125,-0.974609375,0.0146484375
698,0.083984375,-0.974609375,0.013671875
699,0.08203125,-0.974609375,0.0146484375
700,0.08203125,-0.9765625,0.0107421875
701,0.0810546875,-0.9716796875,0.015625
702,0.087890625,-0.970703125,0.009765625
703,0.0771484375,-0.9716796875,0.0078125
704,0.0810546875,-0.9775390625,0.0146484375
705,0.0830078125,-0.9765625,0.0107421875
706,0.08203125,-0.9736328125,0.0126953125
707,0.080078125,-0.97265625,0.013671875
708,0.083984375,-0.9736328125,0.0107421875
709,0.0830078125,-0.9677734375,0.0146484375
710,0.083984375,-0.97265625,0.0126953125
711,0.0771484375,-0.974609375,0.0087890625
712,0.08203125,-0.9697265625,0.0107421875
713,0.0849609375,-0.974609375,0.01171875
714,0.080078125,-0.9755859375,0.0126953125
715,0.08203125,-0.974609375,0.0087890625
716,0.080078125,-0.97265625,0.009765625
717,0.0869140625,-0.9775390625,0.0107421875
718,0.0810546875,-0.974609375,0.013671875
719,0.083984375,-0.974609375,0.015625
720,0.0791015625,-0.9736328125,0.0126953125
721,0.076171875,-0.970703125,0.013671875
722,0.083984375,-0.9765625,0.0126953125
723,0.0810546875,-0.974609375,0.0126953125
724,0.08203125,-0.974609375,0.01171875
725,0.08203125,-0.9755859375,0.0107421875
726,0.080078125,-0.97265625,0.0126953125
727,0.0849609375,-0.9716796875,0.01171875
728,0.0830078125,-0.9765625,0.0087890625
729,0.0849609375,-0.9677734375,0.0146484375
730,0.0810546875,-0.9765625,0.0126953125
731,0.083984375,-0.970703125,0.0146484375
732,0.08203125,-0.9736328125,0.013671875
733,0.0830078125,-0.9716796875,0.013671875
734,0.080078125,-0.974609375,0.005859375
735,0.0791015625,-0.970703125,0.01171875
736,0.0791015625,-0.9736328125,0.0107421875
737,0.0830078125,-0.97265625,0.013671875
738,0.0791015625,-0.9736328125,0.01171875
739,0.076171875,-0.9716796875,0.0087890625
740,0.083984375,-0.974609375,0.0087890625
741,0.0791015625,-0.974609375,0.013671875
742,0.0791015625,-0.97265625,0.0126953125
743,0.0810546875,-0.9755859375,0.0068359375
744,0.083984375,-0.97265625,0.0146484375
745,0.0810546875,-0.9765625,0.0107421875
746,0.080078125,-0.9716796875,0.0068359375
747,0.08203125,-0.9697265625,0.015625
748,0.0810546875,-0.97265625,0.0126953125
749,0.0830078125,-0.974609375,0.0126953125
750,0.0849609375,-0.9736328125,0.0107421875
751,0.080078125,-0.9716796875,0.013671875
752,0.0830078125,-0.9677734375,0.01171875
753,0.0830078125,-0.97265625,0.013671875
754,0.078125,-0.9716796875,0.01171875
755,0.08203125,-0.9736328125,0.013671875
756,0.080078125,-0.970703125,0.015625
757,0.0810546875,-0.9736328125,0.0166015625
758,0.08203125,-0.970703125,0.015625
759,0.0810546875,-0.9677734375,0.0107421875
760,0.080078125,-0.9755859375,0.0146484375
761,0.078125,-0.9716796875,0.0146484375
762,0.080078125,-0.9736328125,0.0078125
763,0.08203125,-0.9736328125,0.0166015625
764,0.08203125,-0.97265625,0.0146484375
765,0.080078125,-0.96875,0.0107421875
766,0.0830078125,-0.9697265625,0.0166015625
767,0.0810546875,-0.9716796875,0.01171875
768,0.0810546875,-0.9765625,0.009765625
769,0.0810546875,-0.9736328125,0.0078125
770,0.0810546875,-0.970703125,0.013671875
771,0.0830078125,-0.9677734375,0.0107421875
772,0.0771484375,-0.9716796875,0.0107421875
773,0.0810546875,-0.9736328125,0.0146484375
774,0.0810546875,-0.978515625,0.017578125
775,0.078125,-0.974609375,0.0107421875
776,0.07421875,-0.9736328125,0.0146484375
777,0.080078125,-0.9716796875,0.0107421875
778,0.0791015625,-0.9736328125,0.013671875
779,0.0810546875,-0.978515625,0.015625
780,0.080078125,-0.974609375,0.009765625
781,0.0791015625,-0.9765625,0.0107421875
782,0.08203125,-0.9697265625,0.009765625
783,0.0810546875,-0.9736328125,0.0087890625
784,0.0791015625,-0.9736328125,0.013671875
785,0.0791015625,-0.970703125,0.0078125
786,0.080078125,-0.97265625,0.0087890625
787,0.078125,-0.9736328125,0.015625
788,0.0810546875,-0.97265625,0.0146484375
789,0.0791015625,-0.9716796875,0.0107421875
790,0.0830078125,-0.974609375,0.0146484375
791,0.0771484375,-0.9736328125,0.015625
792,0.0810546875,-0.9736328125,0.013671875
793,0.08203125,-0.9765625,0.0078125
794,0.078125,-0.9775390625,0.0078125
795,0.078125,-0.9755859375,0.0078125
796,0.076171875,-0.9736328125,0.005859375
797,0.0810546875,-0.974609375,0.0078125
798,0.076171875,-0.9755859375,0.01171875
799,0.083984375,-0.9716796875,0.0078125
800,0.0810546875,-0.9755859375,0.01171875
801,0.078125,-0.9755859375,0.0087890625
802,0.078125,-0.974609375,0.01171875
803,0.0771484375,-0.9736328125,0.0107421875
804,0.0732421875,-0.9736328125,0.017578125
805,0.072265625,-0.970703125,0.0166015625
806,0.07421875,-0.9716796875,0.0166015625
807,0.0791015625,-0.9736328125,0.0146484375
808,0.0791015625,-0.9736328125,0.01171875
809,0.076171875,-0.97265625,0.01171875
810,0.0771484375,-0.97265625,0.015625
811,0.08203125,-0.9697265625,0.01171875
812,0.08203125,-0.9697265625,0.0146484375
813,0.08203125,-0.97265625,0.0087890625
814,0.080078125,-0.9697265625,0.0126953125
815,0.080078125,-0.9716796875,0.015625
816,0.078125,-0.97265625,0.0126953125
817,0.080078125,-0.9755859375,0.0146484375
818,0.080078125,-0.9755859375,0.0087890625
819,0.0751953125,-0.96875,0.0166015625
820,0.07421875,-0.9697265625,0.013671875
821,0.0810546875,-0.9716796875,0.01171875
822,0.076171875,-0.9697265625,0.0126953125
823,0.0771484375,-0.96875,0.009765625
824,0.078125,-0.970703125,0.009765625
825,0.078125,-0.9755859375,0.013671875
826,0.083984375,-0.974609375,0.01171875
827,0.078125,-0.9736328125,0.01171875
828,0.0810546875,-0.9736328125,0.0107421875
829,0.0810546875,-0.97265625,0.0107421875
830,0.07421875,-0.97265625,0.009765625
831,0.0751953125,-0.978515625,0.013671875
832,0.080078125,-0.974609375,0.009765625
833,0.0810546875,-0.9755859375,0.013671875
834,0.0791015625,-0.9765625,0.013671875
835,0.0810546875,-0.970703125,0.00390625
836,0.0791015625,-0.9736328125,0.0068359375
837,0.078125,-0.9755859375,0.0107421875
838,0.0810546875,-0.97265625,0.0087890625
839,0.076171875,-0.9736328125,0.0126953125
840,0.08203125,-0.974609375,0.005859375
841,0.0732421875,-0.97265625,0.013671875
842,0.08203125,-0.970703125,0.0087890625
843,0.0849609375,-0.970703125,0.015625
844,0.0810546875,-0.97265625,0.01171875
845,0.0771484375,-0.9677734375,0.0146484375
846,0.0810546875,-0.970703125,0.009765625
847,0.080078125,-0.9765625,0.0107421875
848,0.08203125,-0.9736328125,0.015625
849,0.080078125,-0.9755859375,0.009765625
850,0.08203125,-0.9716796875,0.0126953125
851,0.0810546875,-0.9775390625,0.013671875
852,0.0830078125,-0.9716796875,0.009765625
853,0.0859375,-0.9765625,0.0087890625
854,0.080078125,-0.9736328125,0.01171875
855,0.0791015625,-0.9716796875,0.0078125
856,0.08203125,-0.970703125,0.0078125
857,0.0810546875,-0.974609375,0.01171875
858,0.080078125,-0.9736328125,0.0107421875
859,0.0830078125,-0.9765625,0.01171875
860,0.083984375,-0.9716796875,0.0107421875
861,0.0771484375,-0.970703125,0.01171875
862,0.0810546875,-0.9736328125,0.015625
863,0.08203125,-0.9697265625,0.009765625
864,0.080078125,-0.970703125,0.0146484375
865,0.0810546875,-0.970703125,0.013671875
866,0.0791015625,-0.9736328125,0.01171875
867,0.0810546875,-0.978515625,0.017578125
868,0.078125,-0.974609375,0.01171875
869,0.080078125,-0.974609375,0.013671875
870,0.0830078125,-0.9775390625,0.01171875
871,0.08203125,-0.9755859375,0.013671875
872,0.078125,-0.974609375,0.005859375
873,0.0791015625,-0.9755859375,0.015625
874,0.078125,-0.978515625,0.009765625
875,0.0810546875,-0.9736328125,0.01171875
876,0.078125,-0.9755859375,0.01171875
877,0.080078125,-0.9755859375,0.0068359375
878,0.0791015625,-0.9716796875,0.0107421875
879,0.078125,-0.9794921875,0.0078125
880,0.0830078125,-0.9755859375,0.009765625
881,0.08203125,-0.9775390625,0.009765625
882,0.0791015625,-0.9755859375,0.0029296875
883,0.0791015625,-0.9765625,0.0078125
884,0.0751953125,-0.9736328125,0.0068359375
885,0.0771484375,-0.97265625,0.005859375
886,0.08203125,-0.9765625,0.005859375
887,0.0791015625,-0.9716796875,0.0078125
888,0.080078125,-0.96875,0.009765625
889,0.0830078125,-0.982421875,0.0068359375
890,0.0791015625,-0.970703125,0.0068359375
891,0.0771484375,-0.9697265625,0.005859375
892,0.0810546875,-0.9716796875,0.0068359375
893,0.0791015625,-0.97265625,0.009765625
894,0.083984375,-0.974609375,0.0068359375
895,0.0810546875,-0.96875,0.0078125
896,0.0791015625,-0.96875,0.00390625
897,0.078125,-0.966796875,0.0068359375
898,0.0791015625,-0.97265625,0.0087890625
899,0.0791015625,-0.9716796875,0.009765625
900,0.08203125,-0.9755859375,0.01171875
901,0.080078125,-0.9736328125,0.015625
902,0.078125,-0.9765625,0.0087890625
903,0.0810546875,-0.9736328125,0.0146484375
904,0.0751953125,-0.970703125,0.0078125
905,0.078125,-0.9775390625,0.0107421875
906,0.080078125,-0.974609375,0.01171875
907,0.080078125,-0.9697265625,0.0078125
908,0.0859375,-0.97265625,0.0107421875
909,0.0830078125,-0.9755859375,0.0107421875
910,0.078125,-0.9736328125,0.0126953125
911,0.0791015625,-0.9736328125,0.0126953125
912,0.0791015625,-0.974609375,0.0126953125
913,0.080078125,-0.9736328125,0.0126953125
914,0.0791015625,-0.9716796875,0.0126953125
915,0.080078125,-0.9697265625,0.0166015625
916,0.0810546875,-0.974609375,0.009765625
917,0.08203125,-0.974609375,0.0146484375
918,0.080078125,-0.9755859375,0.0126953125
919,0.083984375,-0.9736328125,0.009765625
920,0.0810546875,-0.9716796875,0.013671875
921,0.0810546875,-0.9736328125,0.01171875
922,0.0830078125,-0.9755859375,0.0068359375
923,0.0810546875,-0.97265625,0.01171875
924,0.0810546875,-0.97265625,0.0068359375
925,0.0810546875,-0.97265625,0.0068359375
926,0.0810546875,-0.974609375,0.013671875
927,0.083984375,-0.9755859375,0.009765625
928,0.0791015625,-0.9677734375,0.0126953125
929,0.0830078125,-0.9658203125,0.0146484375
930,0.0810546875,-0.970703125,0.0078125
931,0.0810546875,-0.9736328125,0.0078125
932,0.08203125,-0.9697265625,0.0087890625
933,0.0830078125,-0.96875,0.005859375
934,0.08203125,-0.9697265625,0.0029296875
935,0.08203125,-0.9697265625,0.0087890625
936,0.0830078125,-0.9716796875,0.0068359375
937,0.080078125,-0.97265625,0.0
938,0.0830078125,-0.974609375,0.0068359375
939,0.0830078125,-0.9755859375,0.0029296875
940,0.0830078125,-0.97265625,0.005859375
941,0.0810546875,-0.9716796875,0.009765625
942,0.083984375,-0.96875,0.0087890625
943,0.0859375,-0.97265625,0.0048828125
944,0.0830078125,-0.97265625,0.0087890625
945,0.0791015625,-0.9794921875,0.0009765625
946,0.083984375,-0.9775390625,0.0068359375
947,0.0791015625,-0.97265625,0.0009765625
948,0.076171875,-0.9755859375,0.0048828125
949,0.087890625,-0.9716796875,0.001953125
950,0.0849609375,-0.970703125,0.0078125
951,0.078125,-0.9716796875,0.00390625
952,0.080078125,-0.9716796875,0.005859375
953,0.078125,-0.974609375,0.00390625
954,0.0810546875,-0.97265625,0.0068359375
955,0.0810546875,-0.966796875,0.00390625
956,0.080078125,-0.9775390625,0.0078125
957,0.0791015625,-0.9716796875,0.0087890625
958,0.0830078125,-0.9755859375,0.001953125
959,0.08203125,-0.982421875,0.0078125
960,0.0810546875,-0.9765625,0.0
961,0.0849609375,-0.9765625,0.0078125
962,0.0791015625,-0.970703125,0.0
963,0.0810546875,-0.9736328125,0.0009765625
964,0.0810546875,-0.9716796875,0.0
965,0.0849609375,-0.970703125,0.0029296875
966,0.080078125,-0.9716796875,0.0048828125
967,0.080078125,-0.9736328125,0.001953125
968,0.0791015625,-0.974609375,0.0068359375
969,0.0771484375,-0.97265625,0.0087890625
970,0.0810546875,-0.96875,0.00390625
971,0.0751953125,-0.970703125,0.00390625
972,0.078125,-0.974609375,0.00390625
973,0.078125,-0.97265625,0.0029296875
974,0.0791015625,-0.9736328125,0.00390625
975,0.078125,-0.9697265625,0.0087890625
976,0.0771484375,-0.9736328125,0.00390625
977,0.078125,-0.9677734375,0.0068359375
978,0.0791015625,-0.9716796875,0.009765625
979,0.0810546875,-0.970703125,0.0068359375
980,0.087890625,-0.970703125,0.0078125
981,0.080078125,-0.9716796875,0.0009765625
982,0.0849609375,-0.9697265625,0.009765625
983,0.083984375,-0.97265625,0.0078125
984,0.08203125,-0.9677734375,0.0107421875
985,0.08203125,-0.9716796875,0.0068359375
986,0.0830078125,-0.970703125,0.0107421875
987,0.080078125,-0.97265625,0.0068359375
988,0.0830078125,-0.9736328125,0.009765625
989,0.080078125,-0.974609375,0.0107421875
990,0.0849609375,-0.970703125,0.0087890625
991,0.080078125,-0.9736328125,0.005859375
992,0.080078125,-0.9736328125,0.00390625
993,0.0791015625,-0.974609375,0.0048828125
994,0.080078125,-0.974609375,0.0048828125
995,0.0791015625,-0.97265625,0.0009765625
996,0.0830078125,-0.9755859375,-0.0009765625
997,0.083984375,-0.9736328125,0.0029296875
998,0.0869140625,-0.97265625,0.0
999,0.0859375,-0.97265625,-0.0048828125
1000,0.0830078125,-0.97265625,0.0
1001,0.08203125,-0.97265625,0.0048828125
1002,0.08203125,-0.9755859375,-0.001953125
1003,0.0810546875,-0.970703125,-0.001953125
1004,0.080078125,-0.97265625,0.001953125
1005,0.08203125,-0.9716796875,0.0
1006,0.080078125,-0.9736328125,0.0009765625
1007,0.0830078125,-0.9716796875,-0.0029296875
1008,0.0830078125,-0.9677734375,-0.005859375
1009,0.0849609375,-0.9697265625,-0.0048828125
1010,0.083984375,-0.97265625,-0.0048828125
1011,0.080078125,-0.970703125,-0.0029296875
1012,0.0771484375,-0.9736328125,-0.0029296875
1013,0.0810546875,-0.97265625,0.0009765625
1014,0.0810546875,-0.9736328125,-0.0068359375
1015,0.08203125,-0.9775390625,-0.005859375
1016,0.083984375,-0.974609375,-0.005859375
1017,0.083984375,-0.970703125,-0.0078125
1018,0.080078125,-0.974609375,-0.0087890625
1019,0.0810546875,-0.9716796875,-0.0087890625
1020,0.0830078125,-0.9755859375,-0.0068359375
1021,0.0869140625,-0.98828125,-0.0107421875
1022,0.0849609375,-0.9736328125,-0.0087890625
1023,0.0830078125,-0.9765625,-0.009765625
1024,0.0859375,-0.9755859375,-0.0087890625
1025,0.0849609375,-0.974609375,-0.0107421875
1026,0.083984375,-0.97265625,-0.0146484375
1027,0.083984375,-0.9736328125,-0.0078125
1028,0.083984375,-0.9765625,-0.01171875
1029,0.076171875,-0.9677734375,0.00390625
1030,0.0830078125,-0.962890625,-0.009765625
1031,0.0830078125,-0.966796875,-0.0107421875
1032,0.0869140625,-0.9716796875,-0.005859375
1033,0.0849609375,-0.9736328125,-0.005859375
1034,0.0830078125,-0.97265625,-0.009765625
1035,0.0888671875,-0.97265625,-0.009765625
1036,0.0849609375,-0.9697265625,-0.0078125
1037,0.087890625,-0.96875,-0.013671875
1038,0.0869140625,-0.966796875,-0.009765625
1039,0.0849609375,-0.9736328125,-0.0087890625
1040,0.0869140625,-0.96875,-0.0087890625
1041,0.0849609375,-0.974609375,-0.0068359375
1042,0.0830078125,-0.970703125,-0.0078125
1043,0.0859375,-0.970703125,-0.0087890625
1044,0.0869140625,-0.97265625,-0.00390625
1045,0.0849609375,-0.97265625,-0.01171875
1046,0.083984375,-0.970703125,-0.0087890625
1047,0.0791015625,-0.970703125,-0.005859375
1048,0.083984375,-0.9697265625,-0.0029296875
1049,0.08203125,-0.9697265625,-0.0107421875
1050,0.083984375,-0.97265625,-0.0048828125
1051,0.0849609375,-0.9716796875,-0.0078125
1052,0.087890625,-0.9716796875,-0.005859375
1053,0.0830078125,-0.96875,-0.0068359375
1054,0.0830078125,-0.9716796875,-0.01171875
1055,0.0830078125,-0.9638671875,-0.0048828125
1056,0.08203125,-0.9716796875,-0.009765625
1057,0.0791015625,-0.97265625,-0.005859375
1058,0.0849609375,-0.9736328125,-0.0087890625
1059,0.0849609375,-0.970703125,-0.0146484375
1060,0.0830078125,-0.9677734375,-0.0107421875
1061,0.083984375,-0.96875,-0.0078125
1062,0.0791015625,-0.9697265625,-0.0078125
1063,0.080078125,-0.97265625,-0.0048828125
1064,0.083984375,-0.9697265625,-0.0126953125
1065,0.08203125,-0.966796875,-0.0126953125
1066,0.080078125,-0.970703125,-0.01171875
1067,0.0810546875,-0.9716796875,-0.01171875
1068,0.0791015625,-0.9677734375,-0.0126953125
1069,0.076171875,-0.970703125,-0.0087890625
1070,0.08203125,-0.974609375,-0.0166015625
1071,0.080078125,-0.9697265625,-0.0126953125
1072,0.0771484375,-1.009765625,-0.0263671875
1073,0.0791015625,-0.958984375,-0.0146484375
1074,0.0791015625,-0.9716796875,-0.0166015625
1075,0.078125,-0.9697265625,-0.017578125
1076,0.08203125,-0.9736328125,-0.025390625
1077,0.08203125,-0.97265625,-0.01953125
1078,0.078125,-0.970703125,-0.0244140625
1079,0.08203125,-0.9638671875,-0.0185546875
1080,0.080078125,-0.97265625,-0.0263671875
1081,0.080078125,-0.9697265625,-0.0185546875
1082,0.0830078125,-0.9697265625,-0.0205078125
1083,0.080078125,-0.96875,-0.0244140625
1084,0.0830078125,-0.9736328125,-0.02734375
1085,0.08203125,-0.9697265625,-0.0234375
1086,0.083984375,-0.97265625,-0.0263671875
1087,0.080078125,-0.96875,-0.03515625
1088,0.080078125,-0.96875,-0.0283203125
1089,0.0810546875,-0.9677734375,-0.0263671875
1090,0.0810546875,-0.9716796875,-0.02734375
1091,0.0830078125,-0.9677734375,-0.0263671875
1092,0.080078125,-0.9716796875,-0.0263671875
1093,0.0810546875,-0.970703125,-0.029296875
1094,0.0830078125,-0.96875,-0.0341796875
1095,0.087890625,-0.9697265625,-0.0283203125
1096,0.083984375,-0.970703125,-0.0380859375
1097,0.0869140625,-0.9736328125,-0.04296875
1098,0.0888671875,-0.962890625,-0.0400390625
1099,0.0859375,-0.9677734375,-0.033203125
1100,0.087890625,-0.9677734375,-0.03125
1101,0.0859375,-0.96484375,-0.037109375
1102,0.087890625,-0.96875,-0.0400390625
1103,0.0869140625,-0.96875,-0.0400390625
1104,0.087890625,-0.9716796875,-0.0478515625
1105,0.080078125,-0.9599609375,-0.0380859375
1106,0.087890625,-0.958984375,-0.0439453125
1107,0.087890625,-0.966796875,-0.0439453125
1108,0.0859375,-0.96484375,-0.048828125
1109,0.0888671875,-0.970703125,-0.0458984375
1110,0.0927734375,-0.970703125,-0.05078125
1111,0.083984375,-0.9697265625,-0.05078125
1112,0.08984375,-0.9697265625,-0.0537109375
1113,0.087890625,-0.9697265625,-0.0556640625
1114,0.087890625,-0.9677734375,-0.056640625
1115,0.087890625,-0.9697265625,-0.0576171875
1116,0.0869140625,-0.9619140625,-0.0576171875
1117,0.0927734375,-0.96484375,-0.060546875
1118,0.0869140625,-0.962890625,-0.0634765625
1119,0.087890625,-0.96875,-0.05859375
1120,0.08203125,-0.9716796875,-0.0673828125
1121,0.0888671875,-0.9609375,-0.060546875
1122,0.08203125,-0.962890625,-0.0595703125
1123,0.080078125,-0.9599609375,-0.068359375
1124,0.0869140625,-0.9697265625,-0.0673828125
1125,0.083984375,-0.96484375,-0.072265625
1126,0.083984375,-0.9716796875,-0.068359375
1127,0.087890625,-0.966796875,-0.078125
1128,0.0830078125,-0.966796875,-0.068359375
1129,0.080078125,-0.9697265625,-0.07421875
1130,0.0791015625,-0.962890625,-0.0703125
1131,0.08203125,-0.9638671875,-0.0732421875
1132,0.0771484375,-0.9677734375,-0.0693359375
1133,0.0771484375,-0.9658203125,-0.078125
1134,0.07421875,-0.9638671875,-0.076171875
1135,0.0732421875,-0.96484375,-0.076171875
1136,0.0732421875,-0.958984375,-0.080078125
1137,0.072265625,-0.9638671875,-0.083984375
1138,0.0771484375,-0.966796875,-0.0849609375
1139,0.0751953125,-0.9658203125,-0.0859375
1140,0.076171875,-0.96875,-0.0927734375
1141,0.078125,-0.9609375,-0.0927734375
1142,0.08203125,-0.9599609375,-0.1005859375
1143,0.0791015625,-0.9609375,-0.0966796875
1144,0.078125,-0.9599609375,-0.1044921875
1145,0.08203125,-0.9609375,-0.103515625
1146,0.0888671875,-0.9560546875,-0.1015625
1147,0.0859375,-0.958984375,-0.1083984375
1148,0.0859375,-0.9599609375,-0.109375
1149,0.09375,-0.9619140625,-0.1044921875
1150,0.087890625,-0.96484375,-0.10546875
1151,0.0888671875,-0.95703125,-0.109375
1152,0.08984375,-0.96484375,-0.11328125
1153,0.0986328125,-0.958984375,-0.111328125
1154,0.0947265625,-0.955078125,-0.1201171875
1155,0.099609375,-0.9599609375,-0.1162109375
1156,0.099609375,-0.962890625,-0.11328125
1157,0.10546875,-0.96484375,-0.115234375
1158,0.10546875,-0.9482421875,-0.1171875
1159,0.1103515625,-0.9541015625,-0.123046875
1160,0.1162109375,-0.955078125,-0.12109375
1161,0.1142578125,-0.9541015625,-0.12109375
1162,0.1123046875,-0.953125,-0.123046875
1163,0.11328125,-0.9462890625,-0.12890625
1164,0.1201171875,-0.9404296875,-0.130859375
1165,0.119140625,-0.9482421875,-0.1318359375
1166,0.1220703125,-0.9423828125,-0.13671875
1167,0.125,-0.9453125,-0.1328125
1168,0.1259765625,-0.9423828125,-0.1337890625
1169,0.130859375,-0.9453125,-0.1435546875
1170,0.1279296875,-0.9365234375,-0.1455078125
1171,0.126953125,-0.9443359375,-0.154296875
1172,0.123046875,-0.939453125,-0.1513671875
1173,0.1318359375,-0.9384765625,-0.1611328125
1174,0.1328125,-0.9375,-0.162109375
1175,0.1357421875,-0.9541015625,-0.169921875
1176,0.1298828125,-0.9375,-0.1669921875
1177,0.134765625,-0.9384765625,-0.169921875
1178,0.1337890625,-0.9375,-0.171875
1179,0.130859375,-0.9423828125,-0.171875
1180,0.1318359375,-0.9375,-0.1767578125
1181,0.1318359375,-0.935546875,-0.17578125
1182,0.1328125,-0.9296875,-0.1826171875
1183,0.1298828125,-0.9287109375,-0.1845703125
1184,0.1318359375,-0.9404296875,-0.1875
1185,0.1337890625,-0.9404296875,-0.193359375
1186,0.134765625,-0.9482421875,-0.19921875
1187,0.130859375,-0.947265625,-0.1982421875
1188,0.12890625,-0.93359375,-0.19921875
1189,0.1298828125,-0.9384765625,-0.2080078125
1190,0.130859375,-0.9296875,-0.208984375
1191,0.1279296875,-0.92578125,-0.2119140625
1192,0.1318359375,-0.9296875,-0.2138671875
1193,0.130859375,-0.9423828125,-0.2265625
1194,0.1279296875,-0.9267578125,-0.2275390625
1195,0.1240234375,-0.9248046875,-0.2275390625
1196,0.123046875,-0.9189453125,-0.2216796875
1197,0.1162109375,-0.9169921875,-0.2333984375
1198,0.11328125,-0.91796875,-0.2294921875
1199,0.11328125,-0.923828125,-0.23828125
1200,0.125,-0.9296875,-0.25
1201,0.1142578125,-0.921875,-0.2431640625
1202,0.107421875,-0.9189453125,-0.25390625
1203,0.109375,-0.904296875,-0.2587890625
1204,0.115234375,-0.9072265625,-0.2626953125
1205,0.10546875,-0.91796875,-0.27734375
1206,0.1162109375,-0.908203125,-0.2744140625
1207,0.11328125,-0.91796875,-0.28125
1208,0.1123046875,-0.9189453125,-0.2861328125
1209,0.119140625,-0.90234375,-0.2919921875
1210,0.1171875,-0.8994140625,-0.2919921875
1211,0.1181640625,-0.8974609375,-0.2958984375
1212,0.115234375,-0.9033203125,-0.3017578125
1213,0.138671875,-0.8955078125,-0.2998046875
1214,0.142578125,-0.9609375,-0.30078125
1215,0.1318359375,-0.873046875,-0.302734375
1216,0.14453125,-0.8623046875,-0.3125
1217,0.1201171875,-0.8759765625,-0.3115234375
1218,0.1318359375,-0.8583984375,-0.314453125
1219,0.1279296875,-0.896484375,-0.3330078125
1220,0.1103515625,-0.900390625,-0.359375
1221,0.126953125,-0.8818359375,-0.3564453125
1222,0.130859375,-0.8671875,-0.3671875
1223,0.134765625,-0.873046875,-0.375
1224,0.123046875,-0.8916015625,-0.373046875
1225,0.119140625,-0.8935546875,-0.431640625
1226,0.1533203125,-0.7958984375,-0.3779296875
1227,0.1025390625,-0.8544921875,-0.3828125
1228,0.138671875,-0.8564453125,-0.4111328125
1229,0.138671875,-0.84375,-0.4267578125
1230,0.17578125,-0.830078125,-0.4365234375
1231,0.1484375,-0.8408203125,-0.419921875
1232,0.1572265625,-0.8876953125,-0.4521484375
1233,0.134765625,-0.783203125,-0.3955078125
1234,0.1357421875,-0.8359375,-0.4306640625
1235,0.1591796875,-0.8388671875,-0.4619140625
1236,0.13671875,-0.8154296875,-0.4794921875
1237,0.1337890625,-0.8271484375,-0.4501953125
1238,0.1953125,-0.8291015625,-0.4794921875
1239,0.1611328125,-0.84375,-0.501953125
1240,0.1884765625,-0.8955078125,-0.5126953125
1241,0.1552734375,-0.7109375,-0.4423828125
1242,0.14453125,-0.814453125,-0.470703125
1243,0.169921875,-0.822265625,-0.529296875
1244,0.185546875,-0.7998046875,-0.5439453125
1245,0.12890625,-0.818359375,-0.5
1246,0.1396484375,-0.83203125,-0.5322265625
1247,0.1494140625,-0.796875,-0.568359375
1248,0.1494140625,-0.767578125,-0.583984375
1249,0.11328125,-0.7548828125,-0.578125
1250,0.125,-0.76953125,-0.580078125
1251,0.1318359375,-0.7802734375,-0.599609375
1252,0.1669921875,-0.7490234375,-0.62109375
1253,0.1416015625,-0.935546875,-0.708984375
1254,0.14453125,-0.568359375,-0.5361328125
1255,0.1435546875,-0.697265625,-0.6044921875
1256,0.1796875,-0.7412109375,-0.6201171875
1257,0.099609375,-0.7236328125,-0.6396484375
1258,0.111328125,-0.7802734375,-0.5830078125
1259,0.130859375,-0.732421875,-0.6455078125
1260,0.083984375,-0.728515625,-0.6357421875
1261,0.1005859375,-0.7509765625,-0.6240234375
1262,0.09375,-0.74609375,-0.65234375
1263,0.076171875,-0.7060546875,-0.658203125
1264,0.0380859375,-0.7099609375,-0.6435546875
1265,0.0654296875,-0.6884765625,-0.693359375
1266,0.037109375,-0.6865234375,-0.6962890625
1267,0.0078125,-0.7802734375,-0.662109375
1268,0.0654296875,-0.7744140625,-0.7734375
1269,-0.060546875,-0.6337890625,-0.6484375
1270,-0.0107421875,-0.58203125,-0.6884765625
1271,0.0224609375,-0.638671875,-0.7626953125
1272,-0.0283203125,-0.7255859375,-0.66796875
1273,-0.005859375,-0.7001953125,-0.736328125
1274,-0.0517578125,-0.70703125,-0.67578125
1275,-0.0263671875,-0.669921875,-0.740234375
1276,-0.0283203125,-0.666015625,-0.6669921875
1277,0.0263671875,-0.69921875,-0.705078125
1278,-0.0078125,-0.6962890625,-0.677734375
1279,-0.0283203125,-0.7470703125,-0.7177734375
1280,-0.0810546875,-0.556640625,-0.6240234375
1281,0.1474609375,-0.5419921875,-0.7783203125
1282,-0.130859375,-0.6748046875,-0.5673828125
1283,-0.025390625,-0.6240234375,-0.78125
1284,0.0107421875,-0.69921875,-0.6953125
1285,-0.0966796875,-0.7021484375,-0.6796875
1286,0.0390625,-0.6103515625,-0.7548828125
1287,0.0087890625,-0.580078125,-0.759765625
1288,0.0087890625,-0.6357421875,-0.728515625
1289,-0.0498046875,-0.6513671875,-0.6767578125
1290,-0.1142578125,-0.6826171875,-0.6494140625
1291,-0.19140625,-0.609375,-0.7607421875
1292,0.017578125,-0.5654296875,-0.8193359375
1293,-0.0322265625,-0.6298828125,-0.7021484375
1294,-0.0576171875,-0.6845703125,-0.6201171875
1295,-0.1337890625,-0.599609375,-0.6640625
1296,-0.1650390625,-0.58984375,-0.7177734375
1297,0.0244140625,-0.541015625,-0.8359375
1298,0.0498046875,-0.5517578125,-0.8076171875
1299,-0.05859375,-0.5859375,-0.7265625
1300,0.0009765625,-0.6259765625,-0.73828125
1301,-0.1943359375,-0.5986328125,-0.62109375
1302,-0.08984375,-0.5595703125,-0.72265625
1303,-0.1376953125,-0.5947265625,-0.720703125
1304,-0.111328125,-0.607421875,-0.7626953125
1305,-0.09765625,-0.5478515625,-0.728515625
1306,-0.0908203125,-0.560546875,-0.67578125
1307,-0.107421875,-0.6123046875,-0.7138671875
1308,-0.1337890625,-0.548828125,-0.703125
1309,-0.0458984375,-0.537109375,-0.7587890625
1310,-0.1162109375,-0.6337890625,-0.650390625
1311,-0.0244140625,-0.5341796875,-0.744140625
1312,-0.044921875,-0.5546875,-0.67578125
1313,-0.0927734375,-0.5751953125,-0.703125
1314,0.017578125,-0.568359375,-0.7451171875
1315,-0.0712890625,-0.501953125,-0.6591796875
1316,-0.025390625,-0.5791015625,-0.7646484375
1317,-0.111328125,-0.5712890625,-0.6396484375
1318,0.0400390625,-0.5,-0.7841796875
1319,-0.046875,-0.603515625,-0.72265625
1320,-0.01953125,-0.5400390625,-0.6708984375
1321,-0.0205078125,-0.5634765625,-0.7490234375
1322,-0.080078125,-0.5849609375,-0.6474609375
1323,0.0849609375,-0.5654296875,-0.7783203125
1324,-0.0625,-0.55859375,-0.625
1325,-0.0263671875,-0.5625,-0.6826171875
1326,-0.0390625,-0.5146484375,-0.6552734375
1327,0.048828125,-0.548828125,-0.66796875
1328,-0.1103515625,-0.626953125,-0.5634765625
1329,-0.02734375,-0.509765625,-0.6787109375
1330,-0.0234375,-0.595703125,-0.6201171875
1331,0.0,-0.5810546875,-0.5732421875
1332,0.0029296875,-0.5068359375,-0.6162109375
1333,-0.0068359375,-0.552734375,-0.578125
1334,-0.0576171875,-0.544921875,-0.556640625
1335,-0.0146484375,-0.5302734375,-0.5888671875
1336,-0.0166015625,-0.513671875,-0.5576171875
1337,-0.07421875,-0.58984375,-0.53125
1338,-0.0419921875,-0.51953125,-0.5478515625
1339,-0.0478515625,-0.5234375,-0.5224609375
1340,-0.037109375,-0.5009765625,-0.529296875
1341,-0.03125,-0.5205078125,-0.5146484375
1342,-0.02734375,-0.48828125,-0.521484375
1343,-0.01953125,-0.484375,-0.5009765625
1344,-0.005859375,-0.4599609375,-0.4990234375
1345,-0.0166015625,-0.4443359375,-0.48828125
1346,-0.029296875,-0.4189453125,-0.47265625
1347,-0.0361328125,-0.4111328125,-0.4619140625
1348,-0.044921875,-0.416015625,-0.4619140625
1349,-0.0498046875,-0.42578125,-0.4599609375
1350,-0.0576171875,-0.4326171875,-0.474609375
1351,-0.064453125,-0.4482421875,-0.498046875
1352,-0.029296875,-0.423828125,-0.6015625
1353,-0.0654296875,-0.4296875,-0.57421875
1354,-0.0849609375,-0.447265625,-0.6064453125
1355,-0.0791015625,-0.4775390625,-0.630859375
1356,-0.115234375,-0.478515625,-0.6630859375
1357,-0.107421875,-0.5009765625,-0.64453125
1358,-0.09375,-0.474609375,-0.7314453125
1359,-0.0849609375,-0.52734375,-0.7099609375
1360,-0.0810546875,-0.4873046875,-0.771484375
1361,-0.1083984375,-0.4951171875,-0.7568359375
1362,-0.125,-0.6044921875,-0.724609375
1363,-0.0009765625,-0.630859375,-0.7734375
1364,0.0576171875,-0.5908203125,-0.8203125
1365,-0.048828125,-0.568359375,-0.7919921875
1366,-0.1865234375,-0.6513671875,-0.7158203125
1367,0.0791015625,-0.69140625,-0.8642578125
1368,-0.140625,-0.712890625,-0.7724609375
1369,0.064453125,-0.748046875,-0.849609375
1370,-0.15234375,-0.779296875,-0.904296875
1371,-0.01953125,-0.7734375,-0.8701171875
1372,-0.0693359375,-0.697265625,-0.970703125
1373,-0.103515625,-0.7099609375,-0.9814453125
1374,-0.234375,-0.703125,-1.0224609375
1375,-0.23828125,-0.6259765625,-1.1044921875
1376,-0.310546875,-0.47265625,-1.26953125
1377,-0.203125,-0.4521484375,-1.32421875
1378,-0.177734375,-0.3818359375,-1.5205078125
1379,-0.2099609375,-0.2421875,-1.7197265625
1380,-0.1669921875,-0.126953125,-1.9091796875
1381,-0.1181640625,0.0419921875,-2.099609375
1382,0.0009765625,0.1357421875,-2.2509765625
1383,-0.15625,0.3203125,-2.4599609375
1384,-0.326171875,0.537109375,-2.6142578125
1385,-0.212890625,0.119140625,-2.505859375
1386,-0.2236328125,0.1474609375,-2.72265625
1387,-0.3408203125,0.44921875,-2.7509765625
1388,-0.6767578125,0.53515625,-2.6904296875
1389,-0.927734375,0.552734375,-2.5517578125
1390,-0.705078125,0.2568359375,-2.505859375
1391,-0.673828125,-0.0302734375,-2.2890625
1392,-0.6943359375,-0.1728515625,-2.0068359375
1393,-0.4921875,-0.3486328125,-1.8125
1394,-0.40625,-0.4140625,-1.6435546875
1395,-0.25,-0.537109375,-1.556640625
1396,-0.19140625,-0.544921875,-1.451171875
1397,-0.015625,-0.5927734375,-1.32421875
1398,-0.0234375,-0.560546875,-1.265625
1399,0.037109375,-0.4638671875,-1.271484375
1400,0.0830078125,-0.3154296875,-1.3427734375
1401,0.0751953125,-0.2919921875,-1.37109375
1402,0.09375,-0.265625,-1.4140625
1403,0.06640625,-0.30078125,-1.4580078125
1404,0.0439453125,-0.3564453125,-1.46875
1405,0.046875,-0.376953125,-1.4521484375
1406,0.0361328125,-0.3955078125,-1.474609375
1407,0.0,-0.353515625,-1.423828125
1408,-0.033203125,-0.3408203125,-1.3798828125
1409,-0.0302734375,-0.328125,-1.263671875
1410,0.009765625,-0.267578125,-1.1142578125
1411,0.009765625,-0.16796875,-0.9189453125
1412,0.017578125,-0.0576171875,-0.734375
1413,0.064453125,0.0830078125,-0.533203125
1414,-0.0322265625,0.08203125,-0.369140625
1415,0.0263671875,0.171875,-0.2607421875
1416,0.060546875,0.2587890625,-0.31640625
1417,0.0849609375,0.25390625,-0.458984375
1418,0.1337890625,0.2138671875,-0.630859375
1419,0.1591796875,0.1240234375,-0.7568359375
1420,0.1484375,0.0625,-0.8486328125
1421,0.1240234375,0.0419921875,-0.892578125
1422,0.1806640625,0.0,-0.8740234375
1423,0.115234375,-0.0439453125,-0.8193359375
1424,0.19921875,-0.0068359375,-0.7958984375
1425,0.1279296875,0.0654296875,-0.7080078125
1426,0.111328125,0.1435546875,-0.6259765625
1427,0.083984375,0.224609375,-0.533203125
1428,0.060546875,0.3310546875,-0.4482421875
1429,0.1123046875,0.4306640625,-0.3896484375
1430,0.1171875,0.544921875,-0.33984375
1431,0.123046875,0.666015625,-0.28515625
1432,0.1650390625,0.7822265625,-0.2939453125
1433,0.1689453125,0.8876953125,-0.326171875
1434,0.2099609375,0.96484375,-0.3251953125
1435,0.216796875,1.02734375,-0.3681640625
1436,0.19921875,1.048828125,-0.3857421875
1437,0.1875,1.0224609375,-0.4150390625
1438,0.169921875,0.9677734375,-0.4033203125
1439,0.150390625,0.8955078125,-0.3916015625
1440,0.134765625,0.8134765625,-0.36328125
1441,0.0986328125,0.74609375,-0.361328125
1442,0.09765625,0.6748046875,-0.359375
1443,0.0927734375,0.599609375,-0.376953125
1444,0.056640625,0.5439453125,-0.4072265625
1445,0.0283203125,0.5,-0.423828125
1446,-0.01171875,0.470703125,-0.439453125
1447,-0.0185546875,0.4638671875,-0.474609375
1448,-0.0400390625,0.4541015625,-0.4951171875
1449,-0.0439453125,0.451171875,-0.5224609375
1450,-0.0625,0.4619140625,-0.5283203125
1451,-0.04296875,0.470703125,-0.552734375
1452,-0.0234375,0.4775390625,-0.578125
1453,-0.009765625,0.498046875,-0.599609375
1454,0.029296875,0.4912109375,-0.6044921875
1455,0.0634765625,0.5087890625,-0.6298828125
1456,0.0546875,0.5126953125,-0.6689453125
1457,0.091796875,0.5068359375,-0.6884765625
1458,0.1220703125,0.4921875,-0.7021484375
1459,0.14453125,0.501953125,-0.724609375
1460,0.1904296875,0.4921875,-0.736328125
1461,0.2236328125,0.4892578125,-0.74609375
1462,0.2587890625,0.486328125,-0.7529296875
1463,0.2861328125,0.5009765625,-0.76171875
1464,0.2939453125,0.515625,-0.765625
1465,0.3291015625,0.5263671875,-0.7802734375
1466,0.3291015625,0.560546875,-0.783203125
1467,0.3193359375,0.560546875,-0.779296875
1468,0.318359375,0.5712890625,-0.78125
1469,0.3115234375,0.578125,-0.779296875
1470,0.2724609375,0.5791015625,-0.7724609375
1471,0.2841796875,0.57421875,-0.771484375
1472,0.2685546875,0.576171875,-0.7744140625
1473,0.2548828125,0.5693359375,-0.7685546875
1474,0.2294921875,0.5615234375,-0.7490234375
1475,0.23828125,0.53125,-0.73046875
1476,0.2265625,0.5166015625,-0.71875
1477,0.216796875,0.5126953125,-0.7041015625
1478,0.216796875,0.5029296875,-0.689453125
1479,0.193359375,0.484375,-0.67578125
1480,0.1865234375,0.478515625,-0.662109375
1481,0.18359375,0.4658203125,-0.638671875
1482,0.2041015625,0.46484375,-0.619140625
1483,0.1748046875,0.4560546875,-0.607421875
1484,0.17578125,0.4501953125,-0.6005859375
1485,0.1953125,0.4345703125,-0.580078125
1486,0.1904296875,0.412109375,-0.5625
1487,0.1884765625,0.4169921875,-0.5556640625
1488,0.1787109375,0.41015625,-0.5556640625
1489,0.2021484375,0.4111328125,-0.5341796875
1490,0.2021484375,0.4091796875,-0.529296875
1491,0.216796875,0.390625,-0.517578125
1492,0.2080078125,0.4169921875,-0.5107421875
1493,0.20703125,0.41015625,-0.4931640625
1494,0.1982421875,0.3994140625,-0.4833984375
1495,0.2080078125,0.3994140625,-0.470703125
1496,0.23046875,0.3876953125,-0.4423828125
1497,0.2177734375,0.380859375,-0.42578125
1498,0.2431640625,0.3681640625,-0.4189453125
1499,0.2646484375,0.3720703125,-0.400390625
1500,0.2900390625,0.3544921875,-0.3974609375
1501,0.3271484375,0.349609375,-0.3798828125
1502,0.349609375,0.341796875,-0.3798828125
1503,0.3603515625,0.3349609375,-0.380859375
1504,0.400390625,0.34375,-0.408203125
1505,0.4560546875,0.3388671875,-0.3583984375
1506,0.447265625,0.35546875,-0.345703125
1507,0.490234375,0.33203125,-0.3623046875
1508,0.5595703125,0.3115234375,-0.4091796875
1509,0.6572265625,0.287109375,-0.4716796875
1510,0.7890625,0.251953125,-0.5263671875
1511,1.0009765625,0.2509765625,-0.5673828125
1512,1.201171875,0.3271484375,-0.6259765625
1513,1.2724609375,0.5283203125,-0.6826171875
1514,1.15625,0.8193359375,-0.7119140625
1515,1.0224609375,1.0556640625,-0.7001953125
1516,0.9931640625,1.2041015625,-0.7216796875
1517,1.0927734375,1.173828125,-0.7138671875
1518,1.16796875,1.013671875,-0.6796875
1519,1.291015625,0.8046875,-0.677734375
1520,1.447265625,0.65625,-0.6826171875
1521,1.583984375,0.591796875,-0.6962890625
1522,1.716796875,0.5869140625,-0.6923828125
1523,1.814453125,0.5966796875,-0.708984375
1524,1.90234375,0.61328125,-0.67578125
1525,1.94921875,0.6240234375,-0.65234375
1526,1.951171875,0.65234375,-0.64453125
1527,2.001953125,0.6953125,-0.5966796875
1528,2.033203125,0.728515625,-0.5537109375
1529,1.96875,0.7470703125,-0.5146484375
1530,1.8564453125,0.76171875,-0.4501953125
1531,1.7412109375,0.740234375,-0.3837890625
1532,1.6162109375,0.673828125,-0.30859375
1533,1.630859375,0.6015625,-0.22265625
1534,1.619140625,0.525390625,-0.138671875
1535,1.474609375,0.4462890625,-0.0654296875
1536,1.388671875,0.3994140625,-0.015625
1537,1.3486328125,0.3310546875,0.0419921875
1538,1.2734375,0.2626953125,0.072265625
1539,1.2626953125,0.2021484375,0.0712890625
1540,1.119140625,0.099609375,0.1025390625
1541,1.1259765625,0.0546875,0.107421875
1542,1.046875,0.001953125,0.12109375
1543,1.0361328125,-0.0546875,0.1064453125
1544,1.009765625,-0.099609375,0.0908203125
1545,0.958984375,-0.134765625,0.1025390625
1546,0.9228515625,-0.169921875,0.119140625
1547,0.888671875,-0.1865234375,0.08203125
1548,0.845703125,-0.185546875,0.0576171875
1549,0.82421875,-0.1923828125,0.0341796875
1550,0.8330078125,-0.1875,-0.017578125
1551,0.8037109375,-0.16015625,-0.0400390625
1552,0.767578125,-0.142578125,-0.04296875
1553,0.7607421875,-0.1455078125,-0.0439453125
1554,0.7333984375,-0.1318359375,-0.029296875
1555,0.74609375,-0.1259765625,-0.0078125
1556,0.720703125,-0.1279296875,0.0048828125
1557,0.6591796875,-0.1298828125,0.029296875
1558,0.662109375,-0.1240234375,0.05859375
1559,0.6396484375,-0.1162109375,0.06640625
1560,0.6103515625,-0.10546875,0.0712890625
1561,0.6015625,-0.0908203125,0.0751953125
1562,0.5966796875,-0.076171875,0.0859375
1563,0.5849609375,-0.072265625,0.0908203125
1564,0.5966796875,-0.076171875,0.1005859375
1565,0.6298828125,-0.068359375,0.1025390625
1566,0.662109375,-0.0693359375,0.0908203125
1567,0.6982421875,-0.0654296875,0.080078125
1568,0.7412109375,-0.0625,0.072265625
1569,0.7724609375,-0.048828125,0.0595703125
1570,0.81640625,-0.046875,0.044921875
1571,0.8603515625,-0.0439453125,0.0380859375
1572,0.884765625,-0.044921875,0.02734375
1573,0.9189453125,-0.0380859375,0.009765625
1574,0.9423828125,-0.037109375,-0.001953125
1575,0.966796875,-0.0341796875,-0.01171875
1576,0.9931640625,-0.025390625,-0.0234375
1577,1.0107421875,-0.0234375,-0.0322265625
1578,1.02734375,-0.0166015625,-0.04296875
1579,1.03515625,-0.0087890625,-0.048828125
1580,1.048828125,0.0048828125,-0.0537109375
1581,1.0634765625,0.0,-0.0703125
1582,1.0791015625,0.0126953125,-0.0791015625
1583,1.0771484375,0.0244140625,-0.0810546875
1584,1.080078125,0.0263671875,-0.0908203125
1585,1.0888671875,0.03515625,-0.1083984375
1586,1.0771484375,0.0419921875,-0.1220703125
1587,1.06640625,0.041015625,-0.125
1588,1.05859375,0.04296875,-0.1376953125
1589,1.052734375,0.044921875,-0.154296875
1590,1.025390625,0.0498046875,-0.1669921875
1591,1.01171875,0.044921875,-0.17578125
1592,1.0078125,0.0458984375,-0.1865234375
1593,0.9814453125,0.0439453125,-0.193359375
1594,0.9580078125,0.0361328125,-0.1943359375
1595,0.9482421875,0.0361328125,-0.205078125
1596,0.943359375,0.0390625,-0.220703125
1597,0.9345703125,0.0439453125,-0.224609375
1598,0.919921875,0.0478515625,-0.2236328125
1599,0.9306640625,0.060546875,-0.2373046875
1600,0.916015625,0.0673828125,-0.2392578125
1601,0.9208984375,0.068359375,-0.2421875
1602,0.9228515625,0.0751953125,-0.2548828125
1603,0.9140625,0.0810546875,-0.2509765625
1604,0.9189453125,0.1015625,-0.259765625
1605,0.931640625,0.119140625,-0.2822265625
1606,0.931640625,0.1357421875,-0.2939453125
1607,0.912109375,0.1572265625,-0.294921875
1608,0.916015625,0.15625,-0.3046875
1609,0.919921875,0.158203125,-0.3154296875
1610,0.939453125,0.1904296875,-0.3447265625
1611,0.931640625,0.2041015625,-0.357421875
1612,0.9140625,0.2109375,-0.359375
1613,0.91796875,0.21875,-0.361328125
1614,0.9072265625,0.2265625,-0.3623046875
1615,0.90625,0.2265625,-0.365234375
1616,0.896484375,0.2333984375,-0.3671875
1617,0.904296875,0.2373046875,-0.388671875
1618,0.8837890625,0.2373046875,-0.388671875
1619,0.896484375,0.2451171875,-0.39453125
1620,0.884765625,0.2490234375,-0.4072265625
1621,0.8935546875,0.251953125,-0.419921875
1622,0.888671875,0.2509765625,-0.4267578125
1623,0.8857421875,0.251953125,-0.435546875
1624,0.8642578125,0.25390625,-0.44140625
1625,0.875,0.2548828125,-0.453125
1626,0.8642578125,0.2509765625,-0.4716796875
1627,0.85546875,0.259765625,-0.4716796875
1628,0.8623046875,0.2568359375,-0.482421875
1629,0.8525390625,0.2646484375,-0.4970703125
1630,0.869140625,0.2529296875,-0.494140625
1631,0.859375,0.26171875,-0.4931640625
1632,0.859375,0.2578125,-0.5029296875
1633,0.869140625,0.263671875,-0.5048828125
1634,0.8740234375,0.2587890625,-0.5068359375
1635,0.880859375,0.2646484375,-0.5078125
1636,0.8681640625,0.267578125,-0.513671875
1637,0.8759765625,0.2646484375,-0.51171875
1638,0.8662109375,0.26171875,-0.5068359375
1639,0.875,0.265625,-0.5087890625
1640,0.873046875,0.2744140625,-0.5166015625
1641,0.853515625,0.275390625,-0.5068359375
1642,0.8564453125,0.271484375,-0.5068359375
1643,0.853515625,0.2705078125,-0.501953125
1644,0.8427734375,0.2685546875,-0.5068359375
1645,0.8466796875,0.267578125,-0.4951171875
1646,0.8466796875,0.265625,-0.5
1647,0.8359375,0.26953125,-0.490234375
1648,0.8349609375,0.26953125,-0.486328125
1649,0.8349609375,0.2705078125,-0.4814453125
1650,0.8310546875,0.263671875,-0.4775390625
1651,0.83203125,0.2666015625,-0.474609375
1652,0.830078125,0.2734375,-0.4775390625
1653,0.8271484375,0.2744140625,-0.4677734375
1654,0.8291015625,0.2705078125,-0.466796875
1655,0.830078125,0.2744140625,-0.462890625
1656,0.8291015625,0.2734375,-0.455078125
1657,0.828125,0.271484375,-0.4521484375
1658,0.8310546875,0.2744140625,-0.4521484375
1659,0.8310546875,0.28125,-0.447265625
1660,0.828125,0.27734375,-0.4453125
1661,0.83203125,0.271484375,-0.4443359375
1662,0.8330078125,0.2724609375,-0.439453125
1663,0.8369140625,0.271484375,-0.4365234375
1664,0.83984375,0.275390625,-0.4375
1665,0.8388671875,0.2734375,-0.4345703125
1666,0.84375,0.2734375,-0.431640625
1667,0.8466796875,0.2705078125,-0.4375
1668,0.8447265625,0.2724609375,-0.431640625
1669,0.8505859375,0.2685546875,-0.43359375
1670,0.8544921875,0.265625,-0.42578125
1671,0.85546875,0.2685546875,-0.423828125
1672,0.859375,0.2685546875,-0.427734375
1673,0.857421875,0.2666015625,-0.419921875
1674,0.859375,0.2646484375,-0.4208984375
1675,0.8662109375,0.265625,-0.4150390625
1676,0.8720703125,0.26171875,-0.4140625
1677,0.8720703125,0.2578125,-0.412109375
1678,0.8740234375,0.26171875,-0.4150390625
1679,0.876953125,0.259765625,-0.4150390625
1680,0.87890625,0.2529296875,-0.4140625
1681,0.8798828125,0.2529296875,-0.4111328125
1682,0.8857421875,0.24609375,-0.4091796875
1683,0.88671875,0.2451171875,-0.4150390625
1684,0.888671875,0.2421875,-0.4091796875
1685,0.8916015625,0.2421875,-0.4072265625
1686,0.8935546875,0.2333984375,-0.4072265625
1687,0.892578125,0.2275390625,-0.404296875
1688,0.8935546875,0.2265625,-0.4033203125
1689,0.892578125,0.220703125,-0.40234375
1690,0.8916015625,0.220703125,-0.4013671875
1691,0.892578125,0.2158203125,-0.3916015625
1692,0.8896484375,0.2138671875,-0.3896484375
1693,0.8916015625,0.2080078125,-0.3876953125
1694,0.888671875,0.20703125,-0.3779296875
1695,0.8857421875,0.2080078125,-0.380859375
1696,0.890625,0.2060546875,-0.3740234375
1697,0.8876953125,0.205078125,-0.3681640625
1698,0.8837890625,0.2001953125,-0.361328125
1699,0.8935546875,0.203125,-0.36328125
1700,0.8837890625,0.20703125,-0.3564453125
1701,0.8828125,0.2109375,-0.3505859375
1702,0.884765625,0.2109375,-0.349609375
1703,0.880859375,0.21484375,-0.34765625
1704,0.8828125,0.2099609375,-0.3466796875
1705,0.8828125,0.2109375,-0.3427734375
1706,0.8828125,0.2109375,-0.3369140625
1707,0.880859375,0.208984375,-0.3388671875
1708,0.8818359375,0.2138671875,-0.337890625
1709,0.8876953125,0.216796875,-0.33203125
1710,0.8818359375,0.2138671875,-0.333984375
1711,0.8779296875,0.2216796875,-0.33203125
1712,0.8876953125,0.2216796875,-0.3359375
1713,0.8818359375,0.220703125,-0.3330078125
1714,0.8828125,0.2236328125,-0.3359375
1715,0.8857421875,0.22265625,-0.3310546875
1716,0.8818359375,0.2236328125,-0.3291015625
1717,0.8818359375,0.2216796875,-0.3330078125
1718,0.8818359375,0.228515625,-0.3369140625
1719,0.884765625,0.224609375,-0.34375
1720,0.888671875,0.2275390625,-0.3408203125
1721,0.8876953125,0.224609375,-0.341796875
1722,0.8876953125,0.2265625,-0.3544921875
1723,0.884765625,0.2236328125,-0.3466796875
1724,0.8876953125,0.2275390625,-0.3525390625
1725,0.8857421875,0.224609375,-0.3583984375
1726,0.888671875,0.2255859375,-0.3603515625
1727,0.892578125,0.2255859375,-0.365234375
1728,0.880859375,0.228515625,-0.36328125
1729,0.8828125,0.2275390625,-0.361328125
1730,0.8837890625,0.2236328125,-0.3642578125
1731,0.8798828125,0.232421875,-0.3642578125
1732,0.87890625,0.2275390625,-0.3681640625
1733,0.8779296875,0.2265625,-0.3671875
1734,0.87890625,0.234375,-0.3720703125
1735,0.8828125,0.234375,-0.376953125
1736,0.8798828125,0.2353515625,-0.3837890625
1737,0.8798828125,0.23828125,-0.384765625
1738,0.876953125,0.232421875,-0.3857421875
1739,0.8740234375,0.2412109375,-0.3876953125
1740,0.876953125,0.2392578125,-0.3876953125
1741,0.875,0.244140625,-0.388671875
1742,0.873046875,0.2470703125,-0.3876953125
1743,0.8720703125,0.248046875,-0.3857421875
1744,0.873046875,0.2451171875,-0.390625
1745,0.873046875,0.2509765625,-0.392578125
1746,0.8701171875,0.24609375,-0.396484375
1747,0.869140625,0.2509765625,-0.39453125
1748,0.875,0.2470703125,-0.40234375
1749,0.8701171875,0.25,-0.40234375
1750,0.8720703125,0.2509765625,-0.400390625
1751,0.8701171875,0.2490234375,-0.40234375
1752,0.8662109375,0.248046875,-0.404296875
1753,0.8720703125,0.25,-0.4052734375
1754,0.865234375,0.2509765625,-0.4013671875
1755,0.8603515625,0.255859375,-0.3984375
1756,0.8642578125,0.2529296875,-0.3974609375
1757,0.8642578125,0.2509765625,-0.3935546875
1758,0.8603515625,0.251953125,-0.396484375
1759,0.8662109375,0.2529296875,-0.396484375
1760,0.8603515625,0.251953125,-0.4013671875
1761,0.8583984375,0.25390625,-0.400390625
1762,0.86328125,0.25,-0.400390625
1763,0.8623046875,0.2509765625,-0.3974609375
1764,0.869140625,0.251953125,-0.400390625
1765,0.875,0.2431640625,-0.40234375
1766,0.865234375,0.251953125,-0.4033203125
1767,0.8701171875,0.2509765625,-0.40234375
1768,0.8720703125,0.24609375,-0.4072265625
1769,0.8662109375,0.251953125,-0.404296875
1770,0.8681640625,0.25,-0.40625
1771,0.8720703125,0.2509765625,-0.4052734375
1772,0.8701171875,0.2529296875,-0.4072265625
1773,0.8740234375,0.2529296875,-0.4072265625
1774,0.8740234375,0.2529296875,-0.40625
1775,0.875,0.251953125,-0.3994140625
1776,0.87890625,0.251953125,-0.4013671875
1777,0.8779296875,0.2607421875,-0.400390625
1778,0.875,0.2529296875,-0.40625
1779,0.8759765625,0.2587890625,-0.40625
1780,0.8759765625,0.255859375,-0.3974609375
1781,0.8720703125,0.255859375,-0.3994140625
1782,0.8759765625,0.2607421875,-0.3994140625
1783,0.875,0.2578125,-0.3955078125
1784,0.87109375,0.2568359375,-0.3955078125
1785,0.8701171875,0.2529296875,-0.390625
1786,0.875,0.2529296875,-0.3876953125
1787,0.8701171875,0.2568359375,-0.388671875
1788,0.8740234375,0.26171875,-0.38671875
1789,0.873046875,0.2578125,-0.384765625
1790,0.875,0.251953125,-0.3857421875
1791,0.8759765625,0.2626953125,-0.3818359375
1792,0.875,0.2587890625,-0.3818359375
1793,0.8720703125,0.2568359375,-0.3798828125
1794,0.875,0.2607421875,-0.376953125
1795,0.8779296875,0.259765625,-0.3857421875
1796,0.8759765625,0.259765625,-0.3798828125
1797,0.876953125,0.2666015625,-0.384765625
1798,0.87890625,0.2744140625,-0.3798828125
1799,0.875,0.275390625,-0.3798828125
1800,0.8701171875,0.2705078125,-0.376953125
1801,0.87109375,0.265625,-0.3798828125
1802,0.8720703125,0.2705078125,-0.3818359375
1803,0.8779296875,0.2578125,-0.37890625
1804,0.8779296875,0.2607421875,-0.3740234375
1805,0.8681640625,0.2607421875,-0.3740234375
1806,0.8671875,0.2607421875,-0.3720703125
1807,0.8701171875,0.25390625,-0.3798828125
1808,0.875,0.251953125,-0.3759765625
1809,0.8681640625,0.2548828125,-0.380859375
1810,0.869140625,0.2568359375,-0.3828125
1811,0.8671875,0.2587890625,-0.3779296875
1812,0.87109375,0.248046875,-0.3857421875
1813,0.861328125,0.24609375,-0.384765625
1814,0.859375,0.2451171875,-0.37890625
1815,0.865234375,0.23828125,-0.376953125
1816,0.8623046875,0.2392578125,-0.3798828125
1817,0.8603515625,0.236328125,-0.384765625
1818,0.8583984375,0.240234375,-0.380859375
1819,0.85546875,0.2431640625,-0.3818359375
1820,0.861328125,0.2490234375,-0.3759765625
1821,0.8486328125,0.248046875,-0.38671875
1822,0.86328125,0.2626953125,-0.376953125
1823,0.865234375,0.2607421875,-0.37890625
1824,0.8671875,0.263671875,-0.384765625
1825,0.865234375,0.26953125,-0.3828125
1826,0.8662109375,0.26953125,-0.3916015625
1827,0.876953125,0.2666015625,-0.3857421875
1828,0.8740234375,0.271484375,-0.38671875
1829,0.873046875,0.275390625,-0.3857421875
1830,0.87890625,0.283203125,-0.384765625
1831,0.876953125,0.28125,-0.384765625
1832,0.873046875,0.2822265625,-0.3828125
1833,0.873046875,0.2783203125,-0.384765625
1834,0.87890625,0.2783203125,-0.3857421875
1835,0.87890625,0.2783203125,-0.38671875
1836,0.8837890625,0.2822265625,-0.38671875
1837,0.884765625,0.2724609375,-0.384765625
1838,0.8798828125,0.26953125,-0.390625
1839,0.87890625,0.267578125,-0.390625
1840,0.880859375,0.265625,-0.388671875
1841,0.875,0.26171875,-0.3935546875
1842,0.8759765625,0.2568359375,-0.3896484375
1843,0.869140625,0.251953125,-0.384765625
1844,0.869140625,0.2509765625,-0.3876953125
1845,0.8740234375,0.248046875,-0.38671875
1846,0.865234375,0.25,-0.3857421875
1847,0.8671875,0.251953125,-0.3828125
1848,0.8623046875,0.2509765625,-0.3837890625
1849,0.86328125,0.2490234375,-0.376953125
1850,0.8583984375,0.25390625,-0.3759765625
1851,0.865234375,0.2529296875,-0.3759765625
1852,0.8662109375,0.251953125,-0.37890625
1853,0.8642578125,0.2568359375,-0.3779296875
1854,0.861328125,0.2578125,-0.3837890625
1855,0.8642578125,0.2607421875,-0.37890625
1856,0.8671875,0.26953125,-0.384765625
1857,0.8671875,0.2666015625,-0.38671875
1858,0.8701171875,0.26953125,-0.3828125
1859,0.8720703125,0.2724609375,-0.3876953125
1860,0.8720703125,0.2705078125,-0.3916015625
1861,0.869140625,0.271484375,-0.3876953125
1862,0.8720703125,0.2734375,-0.3837890625
1863,0.87109375,0.2734375,-0.384765625
1864,0.8681640625,0.275390625,-0.384765625
1865,0.8701171875,0.2763671875,-0.3857421875
1866,0.8662109375,0.2724609375,-0.3818359375
1867,0.8681640625,0.2734375,-0.384765625
1868,0.8662109375,0.2685546875,-0.3857421875
1869,0.8671875,0.265625,-0.3828125
1870,0.8701171875,0.2646484375,-0.384765625
1871,0.8662109375,0.265625,-0.388671875
1872,0.8681640625,0.2685546875,-0.388671875
1873,0.8662109375,0.2646484375,-0.3916015625
1874,0.875,0.26171875,-0.3876953125
1875,0.8720703125,0.2646484375,-0.3935546875
1876,0.869140625,0.2587890625,-0.3896484375
1877,0.875,0.26171875,-0.392578125
1878,0.8720703125,0.2568359375,-0.390625
1879,0.873046875,0.2607421875,-0.3916015625
1880,0.8720703125,0.26171875,-0.3955078125
1881,0.8701171875,0.2568359375,-0.388671875
1882,0.875,0.2646484375,-0.390625
1883,0.8701171875,0.259765625,-0.3955078125
1884,0.8681640625,0.259765625,-0.3916015625
1885,0.86328125,0.255859375,-0.3916015625
1886,0.8671875,0.2568359375,-0.392578125
1887,0.8623046875,0.251953125,-0.3994140625
1888,0.8701171875,0.2587890625,-0.3896484375
1889,0.8642578125,0.251953125,-0.396484375
1890,0.8662109375,0.251953125,-0.3857421875
1891,0.8671875,0.251953125,-0.3857421875
1892,0.865234375,0.2509765625,-0.3837890625
1893,0.8720703125,0.248046875,-0.38671875
1894,0.865234375,0.251953125,-0.390625
1895,0.8701171875,0.251953125,-0.390625
1896,0.865234375,0.255859375,-0.3974609375
1897,0.865234375,0.2548828125,-0.392578125
1898,0.8671875,0.2587890625,-0.3984375
1899,0.8701171875,0.2568359375,-0.390625
1900,0.8701171875,0.2587890625,-0.3857421875
1901,0.8681640625,0.2607421875,-0.3857421875
1902,0.8671875,0.2646484375,-0.3828125
1903,0.87109375,0.2666015625,-0.3837890625
1904,0.8671875,0.265625,-0.3818359375
1905,0.87109375,0.2626953125,-0.3857421875
1906,0.87109375,0.2646484375,-0.3818359375
1907,0.8681640625,0.263671875,-0.3779296875
1908,0.8701171875,0.26171875,-0.38671875
1909,0.87109375,0.26171875,-0.3857421875
1910,0.869140625,0.255859375,-0.38671875
1911,0.87109375,0.2587890625,-0.3876953125
1912,0.8701171875,0.2666015625,-0.3837890625
1913,0.87109375,0.2646484375,-0.3857421875
1914,0.869140625,0.2646484375,-0.38671875
1915,0.8681640625,0.2568359375,-0.384765625
1916,0.86328125,0.255859375,-0.3935546875
1917,0.8642578125,0.25390625,-0.3857421875
1918,0.8671875,0.263671875,-0.388671875
1919,0.8662109375,0.2626953125,-0.3876953125
1920,0.8662109375,0.2548828125,-0.396484375
1921,0.8623046875,0.26171875,-0.3857421875
1922,0.8681640625,0.263671875,-0.3935546875
1923,0.8662109375,0.263671875,-0.388671875
1924,0.869140625,0.2587890625,-0.38671875
1925,0.8662109375,0.2607421875,-0.3857421875
1926,0.8642578125,0.259765625,-0.3857421875
1927,0.8671875,0.2646484375,-0.3876953125
1928,0.8642578125,0.263671875,-0.3876953125
1929,0.8642578125,0.259765625,-0.3876953125
1930,0.8642578125,0.265625,-0.388671875
1931,0.865234375,0.265625,-0.39453125
1932,0.8662109375,0.267578125,-0.3896484375
1933,0.8623046875,0.2646484375,-0.3896484375
1934,0.8662109375,0.263671875,-0.392578125
1935,0.865234375,0.26171875,-0.3896484375
1936,0.8671875,0.2705078125,-0.39453125
1937,0.8642578125,0.2666015625,-0.392578125
1938,0.8681640625,0.2626953125,-0.392578125
1939,0.87109375,0.267578125,-0.39453125
1940,0.8701171875,0.26953125,-0.3916015625
1941,0.8701171875,0.265625,-0.3955078125
1942,0.8681640625,0.2666015625,-0.392578125
1943,0.8671875,0.267578125,-0.392578125
1944,0.8681640625,0.263671875,-0.3974609375
1945,0.865234375,0.259765625,-0.38671875
1946,0.869140625,0.259765625,-0.392578125
1947,0.8720703125,0.265625,-0.390625
1948,0.8701171875,0.2646484375,-0.3935546875
1949,0.8662109375,0.265625,-0.400390625
1950,0.86328125,0.2646484375,-0.3916015625
1951,0.865234375,0.26171875,-0.392578125
1952,0.8662109375,0.2568359375,-0.3984375
1953,0.8720703125,0.263671875,-0.3974609375
1954,0.869140625,0.25390625,-0.39453125
1955,0.865234375,0.2578125,-0.3984375
1956,0.87109375,0.2529296875,-0.404296875
1957,0.8681640625,0.2529296875,-0.400390625
1958,0.8671875,0.2529296875,-0.3984375
1959,0.8720703125,0.251953125,-0.3994140625
1960,0.865234375,0.2587890625,-0.40234375
1961,0.865234375,0.2578125,-0.38671875
1962,0.8681640625,0.2548828125,-0.400390625
1963,0.865234375,0.255859375,-0.392578125
1964,0.8671875,0.2529296875,-0.388671875
1965,0.8603515625,0.251953125,-0.392578125
1966,0.87109375,0.2529296875,-0.392578125
1967,0.865234375,0.255859375,-0.396484375
1968,0.8662109375,0.2568359375,-0.3896484375
1969,0.8671875,0.2509765625,-0.3896484375
1970,0.87109375,0.2587890625,-0.392578125
1971,0.869140625,0.255859375,-0.3955078125
1972,0.8681640625,0.2646484375,-0.392578125
1973,0.8642578125,0.2578125,-0.3955078125
1974,0.8671875,0.259765625,-0.3994140625
1975,0.8642578125,0.267578125,-0.3984375
1976,0.8681640625,0.2646484375,-0.388671875
1977,0.8671875,0.2578125,-0.3984375
1978,0.87109375,0.2685546875,-0.3955078125
1979,0.8662109375,0.2666015625,-0.3984375
1980,0.8671875,0.2646484375,-0.3896484375
1981,0.8701171875,0.2646484375,-0.39453125
1982,0.87109375,0.259765625,-0.39453125
1983,0.869140625,0.2626953125,-0.3955078125
1984,0.8623046875,0.26171875,-0.400390625
1985,0.857421875,0.2646484375,-0.3935546875
1986,0.8642578125,0.2666015625,-0.388671875
1987,0.8671875,0.265625,-0.390625
1988,0.8623046875,0.2607421875,-0.396484375
1989,0.8603515625,0.263671875,-0.39453125
1990,0.8603515625,0.2548828125,-0.3955078125
1991,0.857421875,0.251953125,-0.388671875
1992,0.8525390625,0.2548828125,-0.3955078125
1993,0.8642578125,0.25390625,-0.4013671875
1994,0.859375,0.25390625,-0.400390625
1995,0.8603515625,0.2529296875,-0.40234375
1996,0.8662109375,0.2509765625,-0.396484375
1997,0.8603515625,0.251953125,-0.4013671875
1998,0.8583984375,0.251953125,-0.3984375
1999,0.8642578125,0.248046875,-0.40234375
2000,0.8642578125,0.2509765625,-0.4013671875
2001,0.8642578125,0.2529296875,-0.40625
2002,0.865234375,0.2548828125,-0.4072265625
2003,0.8642578125,0.251953125,-0.404296875
2004,0.8720703125,0.2529296875,-0.4091796875
2005,0.8623046875,0.2548828125,-0.4052734375
2006,0.869140625,0.2548828125,-0.41015625
2007,0.8623046875,0.251953125,-0.40625
2008,0.865234375,0.25,-0.4052734375
2009,0.865234375,0.251953125,-0.4013671875
2010,0.859375,0.25,-0.4033203125
2011,0.8662109375,0.2451171875,-0.4091796875
2012,0.861328125,0.248046875,-0.40625
2013,0.8623046875,0.248046875,-0.4052734375
2014,0.865234375,0.2421875,-0.4052734375
2015,0.865234375,0.2431640625,-0.4052734375
2016,0.8623046875,0.248046875,-0.4052734375
2017,0.8662109375,0.2470703125,-0.40234375
2018,0.86328125,0.2451171875,-0.40625
2019,0.85546875,0.248046875,-0.4033203125
2020,0.859375,0.25,-0.4072265625
2021,0.85546875,0.24609375,-0.4033203125
2022,0.861328125,0.2470703125,-0.3984375
2023,0.853515625,0.251953125,-0.4013671875
2024,0.85546875,0.251953125,-0.3935546875
2025,0.853515625,0.2548828125,-0.3984375
2026,0.8505859375,0.2578125,-0.3974609375
2027,0.85546875,0.263671875,-0.400390625
2028,0.8603515625,0.2626953125,-0.396484375
2029,0.8623046875,0.267578125,-0.3955078125
2030,0.8515625,0.265625,-0.40234375
2031,0.8662109375,0.265625,-0.404296875
2032,0.8642578125,0.26171875,-0.4091796875
2033,0.8623046875,0.2578125,-0.4169921875
2034,0.8623046875,0.263671875,-0.419921875
2035,0.859375,0.251953125,-0.419921875
2036,0.8583984375,0.251953125,-0.42578125
2037,0.857421875,0.2529296875,-0.4267578125
2038,0.8603515625,0.2548828125,-0.4296875
2039,0.85546875,0.2587890625,-0.43359375
2040,0.8583984375,0.25,-0.427734375
2041,0.8583984375,0.25,-0.4248046875
2042,0.861328125,0.2529296875,-0.4228515625
2043,0.8583984375,0.2548828125,-0.412109375
2044,0.8544921875,0.2568359375,-0.41015625
2045,0.859375,0.255859375,-0.412109375
2046,0.8583984375,0.25390625,-0.412109375
2047,0.8564453125,0.259765625,-0.4091796875
2048,0.8505859375,0.255859375,-0.4091796875
2049,0.857421875,0.251953125,-0.404296875
2050,0.8544921875,0.251953125,-0.40625
2051,0.8564453125,0.2548828125,-0.408203125
2052,0.85546875,0.2529296875,-0.4140625
2053,0.8525390625,0.2578125,-0.4140625
2054,0.8623046875,0.2529296875,-0.4140625
2055,0.8564453125,0.2578125,-0.416015625
2056,0.859375,0.2607421875,-0.4169921875
2057,0.8623046875,0.2548828125,-0.4140625
2058,0.8583984375,0.25390625,-0.41796875
2059,0.861328125,0.2548828125,-0.4248046875
2060,0.8603515625,0.2529296875,-0.41796875
2061,0.865234375,0.255859375,-0.4248046875
2062,0.861328125,0.25390625,-0.416015625
2063,0.865234375,0.2509765625,-0.416015625
2064,0.8623046875,0.25390625,-0.416015625
2065,0.8603515625,0.251953125,-0.419921875
2066,0.8583984375,0.25,-0.416015625
2067,0.859375,0.2470703125,-0.419921875
2068,0.8544921875,0.2470703125,-0.4150390625
2069,0.8544921875,0.24609375,-0.41796875
2070,0.8466796875,0.24609375,-0.416015625
2071,0.8623046875,0.244140625,-0.4091796875
2072,0.857421875,0.248046875,-0.4140625
2073,0.857421875,0.25,-0.41796875
2074,0.853515625,0.25,-0.41015625
2075,0.8525390625,0.248046875,-0.40625
2076,0.853515625,0.2451171875,-0.41015625
2077,0.853515625,0.2470703125,-0.4130859375
2078,0.8505859375,0.25,-0.4130859375
2079,0.8544921875,0.2509765625,-0.4130859375
2080,0.8544921875,0.2509765625,-0.4140625
2081,0.8515625,0.2509765625,-0.41015625
2082,0.8447265625,0.248046875,-0.4072265625
2083,0.853515625,0.25,-0.4150390625
2084,0.8662109375,0.2529296875,-0.4189453125
2085,0.8583984375,0.2607421875,-0.4140625
2086,0.8583984375,0.255859375,-0.4150390625
2087,0.8525390625,0.2548828125,-0.412109375
2088,0.85546875,0.2607421875,-0.4169921875
2089,0.8564453125,0.2626953125,-0.4130859375
2090,0.8642578125,0.2578125,-0.408203125
2091,0.8583984375,0.265625,-0.41015625
2092,0.8564453125,0.2548828125,-0.408203125
2093,0.8525390625,0.2646484375,-0.4052734375
2094,0.8623046875,0.263671875,-0.40625
2095,0.861328125,0.265625,-0.408203125
2096,0.8544921875,0.2734375,-0.4033203125
2097,0.853515625,0.275390625,-0.400390625
2098,0.859375,0.2744140625,-0.400390625
2099,0.853515625,0.2744140625,-0.40234375
2100,0.85546875,0.275390625,-0.4033203125
2101,0.861328125,0.271484375,-0.4091796875
2102,0.857421875,0.2734375,-0.4111328125
2103,0.8583984375,0.2685546875,-0.4111328125
2104,0.861328125,0.2705078125,-0.412109375
2105,0.859375,0.271484375,-0.4150390625
2106,0.8603515625,0.2685546875,-0.416015625
2107,0.8603515625,0.26953125,-0.4150390625
2108,0.8583984375,0.2705078125,-0.4150390625
2109,0.861328125,0.2685546875,-0.4091796875
2110,0.865234375,0.271484375,-0.4140625
2111,0.8642578125,0.26953125,-0.412109375
2112,0.861328125,0.27734375,-0.412109375
2113,0.86328125,0.26953125,-0.41015625
2114,0.8642578125,0.2685546875,-0.4130859375
2115,0.8642578125,0.26953125,-0.412109375
2116,0.8603515625,0.26953125,-0.4091796875
2117,0.8603515625,0.2685546875,-0.41015625
2118,0.859375,0.265625,-0.4091796875
2119,0.8583984375,0.265625,-0.4091796875
2120,0.857421875,0.26953125,-0.41015625
2121,0.8583984375,0.267578125,-0.408203125
2122,0.859375,0.2607421875,-0.4091796875
2123,0.8564453125,0.259765625,-0.4111328125
2124,0.857421875,0.2607421875,-0.41015625
2125,0.859375,0.263671875,-0.40625
2126,0.8525390625,0.2607421875,-0.41015625
2127,0.8583984375,0.259765625,-0.4091796875
2128,0.8525390625,0.2529296875,-0.4072265625
2129,0.8642578125,0.251953125,-0.40625
2130,0.8525390625,0.2626953125,-0.41015625
2131,0.84765625,0.255859375,-0.408203125
2132,0.857421875,0.2578125,-0.404296875
2133,0.8505859375,0.2626953125,-0.404296875
2134,0.8583984375,0.2568359375,-0.4052734375
2135,0.8544921875,0.259765625,-0.4033203125
2136,0.853515625,0.265625,-0.3994140625
2137,0.85546875,0.2626953125,-0.40625
2138,0.8525390625,0.2685546875,-0.4033203125
2139,0.853515625,0.267578125,-0.4091796875
2140,0.84375,0.2646484375,-0.408203125
2141,0.84765625,0.2568359375,-0.4091796875
2142,0.86328125,0.263671875,-0.41015625
2143,0.8525390625,0.2578125,-0.4091796875
2144,0.857421875,0.2568359375,-0.412109375
2145,0.861328125,0.2568359375,-0.4130859375
2146,0.8564453125,0.2548828125,-0.41015625
2147,0.861328125,0.2646484375,-0.41015625
2148,0.857421875,0.26171875,-0.4150390625
2149,0.8564453125,0.265625,-0.4111328125
2150,0.8564453125,0.2646484375,-0.40625
2151,0.859375,0.26953125,-0.4033203125
2152,0.857421875,0.2705078125,-0.40625
2153,0.859375,0.265625,-0.4091796875
2154,0.859375,0.2646484375,-0.412109375
2155,0.857421875,0.2666015625,-0.41015625
2156,0.8603515625,0.26171875,-0.4150390625
2157,0.8544921875,0.2646484375,-0.416015625
2158,0.8583984375,0.26953125,-0.41796875
2159,0.861328125,0.2705078125,-0.4189453125
2160,0.8662109375,0.271484375,-0.4169921875
2161,0.8681640625,0.2685546875,-0.4091796875
2162,0.8525390625,0.271484375,-0.41796875
2163,0.865234375,0.26953125,-0.412109375
2164,0.861328125,0.2705078125,-0.4111328125
2165,0.8603515625,0.2734375,-0.41015625
2166,0.8603515625,0.2724609375,-0.408203125
2167,0.8623046875,0.271484375,-0.408203125
2168,0.8642578125,0.2734375,-0.404296875
2169,0.8623046875,0.2744140625,-0.408203125
2170,0.8603515625,0.27734375,-0.4033203125
2171,0.8603515625,0.2744140625,-0.4052734375
2172,0.859375,0.2744140625,-0.40625
2173,0.8583984375,0.2802734375,-0.3974609375
2174,0.859375,0.2763671875,-0.4072265625
2175,0.857421875,0.2724609375,-0.4033203125
2176,0.857421875,0.2685546875,-0.40234375
2177,0.85546875,0.2666015625,-0.4033203125
2178,0.861328125,0.2666015625,-0.40234375
2179,0.8603515625,0.2724609375,-0.4033203125
2180,0.8564453125,0.2666015625,-0.4052734375
2181,0.8486328125,0.2734375,-0.4072265625
2182,0.8525390625,0.2705078125,-0.404296875
2183,0.8544921875,0.2666015625,-0.400390625
2184,0.853515625,0.275390625,-0.3984375
2185,0.8544921875,0.2705078125,-0.4033203125
2186,0.8515625,0.26953125,-0.40234375
2187,0.853515625,0.271484375,-0.4091796875
2188,0.859375,0.271484375,-0.408203125
2189,0.85546875,0.2705078125,-0.4033203125
2190,0.8544921875,0.2724609375,-0.40625
2191,0.857421875,0.2705078125,-0.4013671875
2192,0.857421875,0.275390625,-0.40234375
2193,0.8515625,0.271484375,-0.40625
2194,0.849609375,0.27734375,-0.4091796875
2195,0.857421875,0.26953125,-0.40625
2196,0.857421875,0.267578125,-0.40625
2197,0.8603515625,0.2705078125,-0.41015625
2198,0.859375,0.255859375,-0.412109375
2199,0.8583984375,0.2587890625,-0.412109375
2200,0.8583984375,0.2529296875,-0.4130859375
2201,0.8583984375,0.2529296875,-0.4091796875
2202,0.8671875,0.2509765625,-0.4169921875
2203,0.865234375,0.2587890625,-0.4140625
2204,0.876953125,0.26953125,-0.416015625
2205,0.85546875,0.2841796875,-0.4033203125
2206,0.8701171875,0.2734375,-0.421875
2207,0.8603515625,0.2666015625,-0.412109375
2208,0.8671875,0.2666015625,-0.4052734375
2209,0.8701171875,0.2724609375,-0.408203125
2210,0.873046875,0.275390625,-0.3974609375
2211,0.8701171875,0.2802734375,-0.4072265625
2212,0.8681640625,0.287109375,-0.4072265625
2213,0.8642578125,0.2841796875,-0.4072265625
2214,0.8583984375,0.275390625,-0.4013671875
2215,0.8525390625,0.271484375,-0.404296875
2216,0.8525390625,0.271484375,-0.404296875
2217,0.8466796875,0.2646484375,-0.39453125
2218,0.85546875,0.2587890625,-0.41015625
2219,0.8505859375,0.26171875,-0.404296875
2220,0.83984375,0.2568359375,-0.3974609375
2221,0.8369140625,0.2509765625,-0.4052734375
2222,0.8583984375,0.2490234375,-0.404296875
2223,0.84765625,0.255859375,-0.404296875
2224,0.8544921875,0.2578125,-0.4072265625
2225,0.8525390625,0.2548828125,-0.404296875
2226,0.841796875,0.265625,-0.404296875
2227,0.849609375,0.2607421875,-0.40625
2228,0.8486328125,0.2685546875,-0.41015625
2229,0.84765625,0.265625,-0.40625
2230,0.84375,0.2646484375,-0.40625
2231,0.83984375,0.2666015625,-0.40625
2232,0.84375,0.2666015625,-0.404296875
2233,0.8427734375,0.2685546875,-0.408203125
2234,0.85546875,0.2724609375,-0.41015625
2235,0.8515625,0.27734375,-0.41015625
2236,0.8447265625,0.279296875,-0.412109375
2237,0.8515625,0.279296875,-0.41015625
2238,0.8505859375,0.2841796875,-0.4111328125
2239,0.8544921875,0.279296875,-0.41015625
2240,0.8583984375,0.2822265625,-0.412109375
2241,0.8583984375,0.2763671875,-0.416015625
2242,0.8583984375,0.279296875,-0.4111328125
2243,0.8623046875,0.2724609375,-0.4130859375
2244,0.8603515625,0.275390625,-0.412109375
2245,0.8642578125,0.271484375,-0.4208984375
2246,0.859375,0.2724609375,-0.4208984375
2247,0.86328125,0.2724609375,-0.4130859375
2248,0.861328125,0.26953125,-0.4208984375
2249,0.8681640625,0.2666015625,-0.41796875
2250,0.865234375,0.265625,-0.4150390625
2251,0.8642578125,0.26953125,-0.4150390625
2252,0.86328125,0.2626953125,-0.41796875
2253,0.8671875,0.2685546875,-0.4150390625
2254,0.8642578125,0.2685546875,-0.4208984375
2255,0.8662109375,0.271484375,-0.41015625
2256,0.8623046875,0.2734375,-0.4150390625
2257,0.8642578125,0.2744140625,-0.4140625
2258,0.865234375,0.2744140625,-0.4091796875
2259,0.8642578125,0.275390625,-0.4072265625
2260,0.8642578125,0.275390625,-0.4130859375
2261,0.8623046875,0.2724609375,-0.408203125
2262,0.8583984375,0.2763671875,-0.4111328125
2263,0.857421875,0.2724609375,-0.41015625
2264,0.8642578125,0.27734375,-0.4013671875
2265,0.859375,0.271484375,-0.4052734375
2266,0.853515625,0.2685546875,-0.40234375
2267,0.853515625,0.2724609375,-0.40234375
2268,0.857421875,0.26953125,-0.4033203125
2269,0.8515625,0.2685546875,-0.400390625
2270,0.849609375,0.267578125,-0.400390625
2271,0.8525390625,0.2666015625,-0.400390625
2272,0.8544921875,0.26953125,-0.40625
2273,0.8525390625,0.275390625,-0.400390625
2274,0.8486328125,0.275390625,-0.3994140625
2275,0.8515625,0.271484375,-0.40625
2276,0.8515625,0.2744140625,-0.3974609375
2277,0.857421875,0.275390625,-0.40625
2278,0.861328125,0.2744140625,-0.40234375
2279,0.869140625,0.2783203125,-0.4052734375
2280,0.8564453125,0.2734375,-0.408203125
2281,0.865234375,0.275390625,-0.41015625
2282,0.8642578125,0.27734375,-0.41015625
2283,0.8623046875,0.2734375,-0.4072265625
2284,0.86328125,0.2783203125,-0.4052734375
2285,0.8642578125,0.2841796875,-0.4033203125
2286,0.8603515625,0.28125,-0.4052734375
2287,0.861328125,0.2763671875,-0.40625
2288,0.859375,0.279296875,-0.4052734375
2289,0.8525390625,0.27734375,-0.404296875
2290,0.861328125,0.2744140625,-0.4033203125
2291,0.8583984375,0.2724609375,-0.4091796875
2292,0.859375,0.2763671875,-0.4013671875
2293,0.8515625,0.2666015625,-0.4033203125
2294,0.8583984375,0.2685546875,-0.40625
2295,0.8564453125,0.26953125,-0.404296875
2296,0.8544921875,0.2666015625,-0.4052734375
2297,0.8505859375,0.267578125,-0.4072265625
2298,0.853515625,0.2646484375,-0.404296875
2299,0.8564453125,0.265625,-0.4072265625
2300,0.853515625,0.26171875,-0.408203125
2301,0.8583984375,0.2666015625,-0.41015625
2302,0.8525390625,0.265625,-0.404296875
2303,0.85546875,0.263671875,-0.41015625
2304,0.8525390625,0.267578125,-0.4052734375
2305,0.8505859375,0.2724609375,-0.40625
2306,0.8515625,0.271484375,-0.404296875
2307,0.8486328125,0.26953125,-0.4072265625
2308,0.84765625,0.2705078125,-0.412109375
2309,0.84765625,0.26953125,-0.4052734375
2310,0.849609375,0.275390625,-0.4072265625
2311,0.853515625,0.275390625,-0.4052734375
2312,0.849609375,0.2744140625,-0.4052734375
2313,0.8466796875,0.2724609375,-0.41015625
2314,0.84765625,0.275390625,-0.4091796875
2315,0.849609375,0.2744140625,-0.412109375
2316,0.853515625,0.2734375,-0.4130859375
2317,0.8486328125,0.275390625,-0.4091796875
2318,0.85546875,0.2724609375,-0.4111328125
2319,0.8564453125,0.2734375,-0.4150390625
2320,0.8544921875,0.2744140625,-0.41015625
2321,0.857421875,0.271484375,-0.416015625
2322,0.859375,0.2666015625,-0.4140625
2323,0.8603515625,0.2685546875,-0.4130859375
2324,0.8720703125,0.2744140625,-0.412109375
2325,0.8642578125,0.265625,-0.416015625
2326,0.8642578125,0.2646484375,-0.4140625
2327,0.8701171875,0.259765625,-0.4111328125
2328,0.873046875,0.2685546875,-0.4072265625
2329,0.8740234375,0.2744140625,-0.4111328125
2330,0.8671875,0.267578125,-0.40625
2331,0.8671875,0.265625,-0.40234375
2332,0.8623046875,0.263671875,-0.404296875
2333,0.8671875,0.267578125,-0.400390625
2334,0.85546875,0.267578125,-0.3994140625
2335,0.8564453125,0.265625,-0.390625
2336,0.8544921875,0.2626953125,-0.39453125
2337,0.865234375,0.2607421875,-0.392578125
2338,0.85546875,0.265625,-0.3876953125
2339,0.865234375,0.2646484375,-0.388671875
2340,0.8623046875,0.26171875,-0.38671875
2341,0.857421875,0.263671875,-0.3779296875
2342,0.857421875,0.2607421875,-0.3818359375
2343,0.8623046875,0.2529296875,-0.384765625
2344,0.861328125,0.2568359375,-0.3876953125
2345,0.8623046875,0.2626953125,-0.3828125
2346,0.8662109375,0.265625,-0.3837890625
2347,0.8623046875,0.2646484375,-0.3837890625
2348,0.8642578125,0.2666015625,-0.3837890625
2349,0.861328125,0.2607421875,-0.3828125
2350,0.8642578125,0.263671875,-0.3818359375
2351,0.8603515625,0.2666015625,-0.3837890625
2352,0.8603515625,0.2685546875,-0.384765625
2353,0.869140625,0.265625,-0.3876953125
2354,0.8623046875,0.2666015625,-0.3916015625
2355,0.8681640625,0.267578125,-0.3857421875
2356,0.8642578125,0.2705078125,-0.390625
2357,0.861328125,0.2685546875,-0.392578125
2358,0.8671875,0.271484375,-0.396484375
2359,0.8603515625,0.2734375,-0.4013671875
2360,0.8642578125,0.267578125,-0.4033203125
2361,0.8642578125,0.2705078125,-0.404296875
2362,0.869140625,0.2744140625,-0.400390625
2363,0.861328125,0.2705078125,-0.404296875
2364,0.8623046875,0.2734375,-0.40234375
2365,0.861328125,0.26953125,-0.4091796875
2366,0.8662109375,0.26953125,-0.4072265625
2367,0.8623046875,0.26953125,-0.408203125
2368,0.8642578125,0.271484375,-0.41015625
2369,0.869140625,0.2666015625,-0.4072265625
2370,0.859375,0.2705078125,-0.4111328125
2371,0.859375,0.2705078125,-0.404296875
2372,0.84375,0.271484375,-0.400390625
2373,0.8837890625,0.25390625,-0.423828125
2374,0.86328125,0.28515625,-0.412109375
2375,0.859375,0.2783203125,-0.4111328125
2376,0.85546875,0.2783203125,-0.4091796875
2377,0.861328125,0.271484375,-0.4130859375
2378,0.859375,0.2744140625,-0.412109375
2379,0.859375,0.2705078125,-0.4072265625
2380,0.8642578125,0.271484375,-0.412109375
2381,0.8642578125,0.2734375,-0.4111328125
2382,0.861328125,0.267578125,-0.40625
2383,0.8525390625,0.267578125,-0.4091796875
2384,0.859375,0.2685546875,-0.4072265625
2385,0.8564453125,0.267578125,-0.4033203125
2386,0.859375,0.2685546875,-0.4072265625
2387,0.8583984375,0.263671875,-0.4111328125
2388,0.85546875,0.2646484375,-0.4091796875
2389,0.8583984375,0.2607421875,-0.404296875
2390,0.861328125,0.2568359375,-0.40625
2391,0.865234375,0.2607421875,-0.40625
2392,0.8623046875,0.2607421875,-0.400390625
2393,0.861328125,0.2607421875,-0.4013671875
2394,0.8642578125,0.2666015625,-0.40234375
2395,0.8466796875,0.2607421875,-0.4052734375
2396,0.857421875,0.26953125,-0.400390625
2397,0.8662109375,0.265625,-0.400390625
2398,0.865234375,0.267578125,-0.400390625
2399,0.8642578125,0.267578125,-0.3955078125
2400,0.859375,0.271484375,-0.3896484375
2401,0.8662109375,0.2724609375,-0.396484375
2402,0.8662109375,0.267578125,-0.396484375
2403,0.8681640625,0.267578125,-0.3896484375
2404,0.86328125,0.2705078125,-0.38671875
2405,0.8642578125,0.2666015625,-0.3916015625
2406,0.8671875,0.271484375,-0.390625
2407,0.8623046875,0.26953125,-0.384765625
2408,0.8671875,0.2705078125,-0.388671875
2409,0.8662109375,0.271484375,-0.38671875
2410,0.8642578125,0.2724609375,-0.388671875
2411,0.8671875,0.2724609375,-0.388671875
2412,0.865234375,0.2666015625,-0.3896484375
2413,0.8671875,0.271484375,-0.38671875
2414,0.869140625,0.2666015625,-0.3916015625
2415,0.8642578125,0.2666015625,-0.390625
2416,0.8603515625,0.2646484375,-0.392578125
2417,0.865234375,0.2685546875,-0.3984375
2418,0.8662109375,0.2685546875,-0.3994140625
2419,0.869140625,0.271484375,-0.3955078125
2420,0.86328125,0.26953125,-0.3994140625
2421,0.8681640625,0.2666015625,-0.4013671875
2422,0.8642578125,0.2646484375,-0.3974609375
2423,0.8662109375,0.271484375,-0.396484375
2424,0.8642578125,0.267578125,-0.3994140625
2425,0.86328125,0.267578125,-0.3994140625
2426,0.8623046875,0.26953125,-0.39453125
2427,0.8662109375,0.2685546875,-0.3984375
2428,0.8642578125,0.2724609375,-0.3984375
2429,0.8603515625,0.2685546875,-0.3876953125
2430,0.8662109375,0.2705078125,-0.3916015625
2431,0.859375,0.265625,-0.3935546875
2432,0.8623046875,0.2685546875,-0.396484375
2433,0.8662109375,0.265625,-0.39453125
2434,0.861328125,0.2666015625,-0.396484375
2435,0.861328125,0.265625,-0.3994140625
2436,0.861328125,0.2666015625,-0.3935546875
2437,0.8564453125,0.259765625,-0.3974609375
2438,0.861328125,0.2626953125,-0.396484375
2439,0.86328125,0.26171875,-0.392578125
2440,0.857421875,0.26171875,-0.3984375
2441,0.8603515625,0.265625,-0.40234375
2442,0.853515625,0.267578125,-0.4052734375
2443,0.8583984375,0.265625,-0.40234375
2444,0.8564453125,0.26171875,-0.400390625
2445,0.8583984375,0.267578125,-0.3974609375
2446,0.8583984375,0.2646484375,-0.3994140625
2447,0.8544921875,0.267578125,-0.40234375
2448,0.8603515625,0.2666015625,-0.4013671875
2449,0.8583984375,0.265625,-0.40234375
2450,0.8564453125,0.271484375,-0.40234375
2451,0.8515625,0.271484375,-0.400390625
2452,0.8525390625,0.2734375,-0.404296875
2453,0.85546875,0.275390625,-0.404296875
2454,0.861328125,0.2763671875,-0.40234375
2455,0.8564453125,0.279296875,-0.4072265625
2456,0.861328125,0.275390625,-0.4052734375
2457,0.86328125,0.279296875,-0.4033203125
2458,0.8603515625,0.2763671875,-0.4013671875
2459,0.8583984375,0.2744140625,-0.40625
2460,0.798828125,0.2734375,-0.390625
2461,0.8994140625,0.2568359375,-0.4140625
2462,0.87109375,0.2822265625,-0.4140625
2463,0.873046875,0.2890625,-0.4150390625
2464,0.8603515625,0.296875,-0.40234375
2465,0.8603515625,0.2802734375,-0.3984375
2466,0.8603515625,0.2724609375,-0.3984375
2467,0.8623046875,0.26953125,-0.4013671875
2468,0.8662109375,0.267578125,-0.4052734375
2469,0.8623046875,0.263671875,-0.40234375
2470,0.8642578125,0.2685546875,-0.3984375
2471,0.8662109375,0.2626953125,-0.4013671875
2472,0.8642578125,0.26171875,-0.3994140625
2473,0.859375,0.2587890625,-0.400390625
2474,0.86328125,0.2529296875,-0.392578125
2475,0.865234375,0.2578125,-0.400390625
2476,0.8642578125,0.2587890625,-0.3984375
2477,0.8623046875,0.26171875,-0.39453125
2478,0.8623046875,0.2578125,-0.396484375
2479,0.861328125,0.2646484375,-0.3935546875
2480,0.8603515625,0.263671875,-0.3994140625
2481,0.8603515625,0.26171875,-0.3935546875
2482,0.8671875,0.2705078125,-0.38671875
2483,0.861328125,0.26953125,-0.3935546875
2484,0.859375,0.2734375,-0.380859375
2485,0.859375,0.2724609375,-0.3857421875
2486,0.8603515625,0.2685546875,-0.3876953125
2487,0.8603515625,0.2763671875,-0.3896484375
2488,0.859375,0.2734375,-0.384765625
2489,0.8583984375,0.2666015625,-0.3876953125
2490,0.861328125,0.2724609375,-0.3955078125
2491,0.8623046875,0.2734375,-0.38671875
2492,0.865234375,0.2705078125,-0.38671875
2493,0.8701171875,0.2783203125,-0.390625
2494,0.8671875,0.27734375,-0.392578125
2495,0.87109375,0.275390625,-0.3955078125
2496,0.8642578125,0.28125,-0.3935546875
2497,0.861328125,0.28515625,-0.38671875
2498,0.8681640625,0.28125,-0.396484375
2499,0.8681640625,0.287109375,-0.388671875
2500,0.8701171875,0.2861328125,-0.392578125
2501,0.8681640625,0.2861328125,-0.396484375
2502,0.8642578125,0.2783203125,-0.388671875
2503,0.8642578125,0.2724609375,-0.38671875
2504,0.8681640625,0.2744140625,-0.388671875
2505,0.8662109375,0.275390625,-0.3896484375
2506,0.86328125,0.2705078125,-0.3916015625
2507,0.8662109375,0.2705078125,-0.3935546875
2508,0.865234375,0.265625,-0.3955078125
2509,0.8603515625,0.26953125,-0.3994140625
2510,0.8662109375,0.2685546875,-0.390625
2511,0.8662109375,0.26953125,-0.3994140625
2512,0.859375,0.2685546875,-0.39453125
2513,0.8623046875,0.2724609375,-0.40234375
2514,0.8662109375,0.26171875,-0.3984375
2515,0.869140625,0.2666015625,-0.3974609375
2516,0.8623046875,0.2685546875,-0.400390625
2517,0.85546875,0.2734375,-0.404296875
2518,0.8623046875,0.26953125,-0.4072265625
2519,0.8603515625,0.271484375,-0.4052734375
2520,0.8642578125,0.2705078125,-0.4072265625
2521,0.8623046875,0.26953125,-0.4013671875
2522,0.8603515625,0.267578125,-0.40234375
2523,0.8603515625,0.26953125,-0.4052734375
2524,0.853515625,0.2724609375,-0.400390625
2525,0.8525390625,0.2744140625,-0.4033203125
2526,0.8525390625,0.2724609375,-0.40234375
2527,0.8515625,0.2744140625,-0.3994140625
2528,0.8505859375,0.267578125,-0.40625
2529,0.8525390625,0.2705078125,-0.40234375
2530,0.84765625,0.267578125,-0.404296875
2531,0.84765625,0.2705078125,-0.400390625
2532,0.8505859375,0.2685546875,-0.40234375
2533,0.84765625,0.2705078125,-0.40625
2534,0.8544921875,0.2734375,-0.4072265625
2535,0.8564453125,0.267578125,-0.4052734375
2536,0.8525390625,0.26953125,-0.40234375
2537,0.849609375,0.2734375,-0.4072265625
2538,0.8515625,0.27734375,-0.4013671875
2539,0.8564453125,0.27734375,-0.4013671875
2540,0.85546875,0.2734375,-0.4013671875
2541,0.8486328125,0.275390625,-0.400390625
2542,0.8525390625,0.26171875,-0.392578125
2543,0.8623046875,0.2802734375,-0.4208984375
2544,0.86328125,0.2890625,-0.412109375
2545,0.86328125,0.287109375,-0.4091796875
2546,0.865234375,0.2861328125,-0.4072265625
2547,0.861328125,0.2890625,-0.4091796875
2548,0.8642578125,0.28515625,-0.4052734375
2549,0.8662109375,0.2861328125,-0.4091796875
2550,0.8642578125,0.287109375,-0.4052734375
2551,0.8681640625,0.2861328125,-0.40234375
2552,0.865234375,0.2802734375,-0.400390625
2553,0.8623046875,0.2783203125,-0.3984375
2554,0.869140625,0.279296875,-0.4033203125
2555,0.8701171875,0.2783203125,-0.4033203125
2556,0.8681640625,0.2763671875,-0.4033203125
2557,0.8671875,0.2734375,-0.40625
2558,0.865234375,0.2763671875,-0.4013671875
2559,0.8701171875,0.2744140625,-0.400390625
2560,0.865234375,0.2763671875,-0.3916015625
2561,0.8701171875,0.2744140625,-0.3994140625
2562,0.8642578125,0.2763671875,-0.3896484375
2563,0.861328125,0.2734375,-0.396484375
2564,0.8603515625,0.271484375,-0.38671875
2565,0.859375,0.27734375,-0.396484375
2566,0.8583984375,0.2783203125,-0.3984375
2567,0.8583984375,0.279296875,-0.3984375
2568,0.8603515625,0.27734375,-0.3955078125
2569,0.8642578125,0.2734375,-0.3876953125
2570,0.8564453125,0.287109375,-0.3916015625
2571,0.8564453125,0.2783203125,-0.3876953125
2572,0.8505859375,0.2783203125,-0.3896484375
2573,0.859375,0.275390625,-0.396484375
2574,0.85546875,0.27734375,-0.3974609375
2575,0.861328125,0.275390625,-0.40234375
2576,0.8544921875,0.2763671875,-0.400390625
2577,0.8525390625,0.2734375,-0.3984375
2578,0.8701171875,0.2548828125,-0.3935546875
2579,0.85546875,0.28125,-0.4052734375
2580,0.8720703125,0.287109375,-0.40625
2581,0.8466796875,0.2900390625,-0.3974609375
2582,0.8583984375,0.283203125,-0.3994140625
2583,0.857421875,0.279296875,-0.3974609375
2584,0.865234375,0.2763671875,-0.3935546875
2585,0.859375,0.28125,-0.40234375
2586,0.865234375,0.2734375,-0.40234375
2587,0.8662109375,0.275390625,-0.3984375
2588,0.8662109375,0.2744140625,-0.40234375
2589,0.86328125,0.2724609375,-0.4033203125
2590,0.8681640625,0.2724609375,-0.40625
2591,0.8671875,0.27734375,-0.3974609375
2592,0.865234375,0.2734375,-0.40234375
2593,0.861328125,0.275390625,-0.3994140625
2594,0.8564453125,0.2724609375,-0.400390625
2595,0.853515625,0.2734375,-0.39453125
2596,0.86328125,0.2734375,-0.3955078125
2597,0.8505859375,0.2734375,-0.396484375
2598,0.8603515625,0.28515625,-0.39453125
2599,0.85546875,0.27734375,-0.392578125
2600,0.8564453125,0.279296875,-0.3955078125
2601,0.857421875,0.2802734375,-0.388671875
2602,0.8603515625,0.2763671875,-0.3896484375
2603,0.8623046875,0.2802734375,-0.4033203125
2604,0.8662109375,0.2841796875,-0.3857421875
2605,0.859375,0.2744140625,-0.3974609375
2606,0.861328125,0.2763671875,-0.3955078125
2607,0.865234375,0.2763671875,-0.4013671875
2608,0.8662109375,0.279296875,-0.40234375
2609,0.8623046875,0.2763671875,-0.3994140625
2610,0.86328125,0.2802734375,-0.3994140625
2611,0.857421875,0.2802734375,-0.4033203125
2612,0.8642578125,0.2734375,-0.3994140625
2613,0.8662109375,0.2763671875,-0.400390625
2614,0.8642578125,0.2763671875,-0.400390625
2615,0.8564453125,0.279296875,-0.3974609375
2616,0.8603515625,0.2783203125,-0.400390625
2617,0.8603515625,0.2763671875,-0.3955078125
2618,0.8662109375,0.2724609375,-0.3955078125
2619,0.861328125,0.287109375,-0.3935546875
2620,0.857421875,0.279296875,-0.3955078125
2621,0.859375,0.2822265625,-0.3984375
2622,0.859375,0.2802734375,-0.3876953125
2623,0.8603515625,0.2802734375,-0.3896484375
2624,0.859375,0.2763671875,-0.3876953125
2625,0.861328125,0.2861328125,-0.390625
2626,0.859375,0.2802734375,-0.3984375
2627,0.8603515625,0.2744140625,-0.3916015625
2628,0.8642578125,0.279296875,-0.3876953125
2629,0.8642578125,0.279296875,-0.3935546875
2630,0.857421875,0.2783203125,-0.3916015625
2631,0.8623046875,0.2822265625,-0.3974609375
2632,0.8603515625,0.2734375,-0.3984375
2633,0.859375,0.2744140625,-0.3916015625
2634,0.8525390625,0.2802734375,-0.3876953125
2635,0.8603515625,0.2490234375,-0.37890625
2636,0.8544921875,0.2763671875,-0.4033203125
2637,0.8671875,0.2841796875,-0.40234375
2638,0.8642578125,0.28515625,-0.396484375
2639,0.861328125,0.275390625,-0.3896484375
2640,0.8564453125,0.2744140625,-0.3955078125
2641,0.8583984375,0.2705078125,-0.388671875
2642,0.859375,0.2744140625,-0.388671875
2643,0.861328125,0.2783203125,-0.3916015625
2644,0.8583984375,0.2734375,-0.38671875
2645,0.8642578125,0.2783203125,-0.3896484375
2646,0.8603515625,0.279296875,-0.3935546875
2647,0.857421875,0.2744140625,-0.392578125
2648,0.8642578125,0.2763671875,-0.38671875
2649,0.8671875,0.275390625,-0.3974609375
2650,0.8642578125,0.2744140625,-0.3994140625
2651,0.869140625,0.27734375,-0.39453125
2652,0.8623046875,0.2783203125,-0.4013671875
2653,0.865234375,0.2802734375,-0.39453125
2654,0.8701171875,0.275390625,-0.400390625
2655,0.857421875,0.2783203125,-0.396484375
2656,0.8583984375,0.283203125,-0.3974609375
2657,0.8623046875,0.2822265625,-0.400390625
2658,0.8623046875,0.27734375,-0.392578125
2659,0.857421875,0.2763671875,-0.390625
2660,0.8642578125,0.2763671875,-0.3876953125
2661,0.8623046875,0.2763671875,-0.388671875
2662,0.8564453125,0.2802734375,-0.39453125
2663,0.861328125,0.28125,-0.392578125
2664,0.8623046875,0.2783203125,-0.3935546875
2665,0.857421875,0.28125,-0.3857421875
2666,0.857421875,0.2744140625,-0.396484375
2667,0.8623046875,0.279296875,-0.38671875
2668,0.857421875,0.27734375,-0.390625
2669,0.861328125,0.279296875,-0.392578125
2670,0.861328125,0.2822265625,-0.38671875
2671,0.8642578125,0.2841796875,-0.392578125
2672,0.8525390625,0.275390625,-0.3857421875
2673,0.865234375,0.265625,-0.3837890625
2674,0.8701171875,0.2861328125,-0.3994140625
2675,0.8681640625,0.29296875,-0.392578125
2676,0.8623046875,0.28515625,-0.3916015625
2677,0.8642578125,0.2822265625,-0.384765625
2678,0.8623046875,0.2822265625,-0.3935546875
2679,0.86328125,0.28125,-0.3955078125
2680,0.8623046875,0.2822265625,-0.388671875
2681,0.8681640625,0.2802734375,-0.3935546875
2682,0.861328125,0.275390625,-0.3955078125
2683,0.865234375,0.2841796875,-0.3955078125
2684,0.8642578125,0.287109375,-0.3935546875
2685,0.8642578125,0.283203125,-0.3916015625
2686,0.865234375,0.28125,-0.3974609375
2687,0.869140625,0.2822265625,-0.392578125
2688,0.8603515625,0.2744140625,-0.396484375
2689,0.8583984375,0.2705078125,-0.3994140625
2690,0.8701171875,0.2724609375,-0.3935546875
2691,0.8525390625,0.2763671875,-0.39453125
2692,0.861328125,0.275390625,-0.388671875
2693,0.869140625,0.283203125,-0.396484375
2694,0.86328125,0.275390625,-0.396484375
2695,0.865234375,0.2783203125,-0.3974609375
2696,0.8662109375,0.279296875,-0.3974609375
2697,0.8642578125,0.2724609375,-0.392578125
2698,0.857421875,0.2802734375,-0.392578125
2699,0.8515625,0.2783203125,-0.3955078125
2700,0.859375,0.2783203125,-0.390625
2701,0.857421875,0.2744140625,-0.388671875
2702,0.865234375,0.2822265625,-0.392578125
2703,0.859375,0.279296875,-0.3837890625
2704,0.86328125,0.283203125,-0.3876953125
2705,0.857421875,0.2802734375,-0.380859375
2706,0.8623046875,0.2763671875,-0.38671875
2707,0.861328125,0.2841796875,-0.388671875
2708,0.8642578125,0.2861328125,-0.390625
2709,0.8544921875,0.2744140625,-0.388671875
2710,0.8642578125,0.2744140625,-0.392578125
2711,0.865234375,0.275390625,-0.3935546875
2712,0.8603515625,0.2734375,-0.3935546875
2713,0.85546875,0.267578125,-0.38671875
2714,0.85546875,0.2685546875,-0.392578125
2715,0.8583984375,0.2705078125,-0.3994140625
2716,0.8671875,0.2744140625,-0.400390625
2717,0.8701171875,0.279296875,-0.4013671875
2718,0.8623046875,0.2861328125,-0.4033203125
2719,0.859375,0.275390625,-0.3935546875
2720,0.8681640625,0.279296875,-0.400390625
2721,0.85546875,0.27734375,-0.3935546875
2722,0.8642578125,0.283203125,-0.404296875
2723,0.8642578125,0.283203125,-0.3935546875
2724,0.876953125,0.2802734375,-0.3994140625
2725,0.8564453125,0.2822265625,-0.4013671875
2726,0.861328125,0.2880859375,-0.3896484375
2727,0.859375,0.28125,-0.3896484375
2728,0.861328125,0.2841796875,-0.396484375
2729,0.865234375,0.2880859375,-0.3916015625
2730,0.8642578125,0.283203125,-0.3955078125
2731,0.865234375,0.2783203125,-0.396484375
2732,0.8662109375,0.28125,-0.390625
2733,0.859375,0.275390625,-0.390625
2734,0.8671875,0.27734375,-0.3896484375
2735,0.8662109375,0.283203125,-0.39453125
2736,0.8623046875,0.283203125,-0.38671875
2737,0.8564453125,0.2822265625,-0.3818359375
2738,0.8564453125,0.2822265625,-0.3896484375
2739,0.8544921875,0.27734375,-0.3935546875
2740,0.85546875,0.2802734375,-0.388671875
2741,0.8603515625,0.2802734375,-0.384765625
2742,0.857421875,0.2802734375,-0.3837890625
2743,0.873046875,0.2724609375,-0.3916015625
2744,0.859375,0.283203125,-0.3857421875
2745,0.85546875,0.2861328125,-0.3798828125
2746,0.861328125,0.283203125,-0.3857421875
2747,0.8720703125,0.275390625,-0.3896484375
2748,0.8564453125,0.279296875,-0.3876953125
2749,0.8671875,0.283203125,-0.38671875
2750,0.8662109375,0.26953125,-0.3857421875
2751,0.8623046875,0.2763671875,-0.388671875
2752,0.857421875,0.271484375,-0.3896484375
2753,0.875,0.265625,-0.39453125
2754,0.8720703125,0.2861328125,-0.4013671875
2755,0.8740234375,0.2783203125,-0.40234375
2756,0.8525390625,0.2841796875,-0.3984375
2757,0.857421875,0.2744140625,-0.3876953125
2758,0.8623046875,0.275390625,-0.3955078125
2759,0.853515625,0.27734375,-0.3955078125
2760,0.859375,0.2802734375,-0.3994140625
2761,0.8623046875,0.2783203125,-0.392578125
2762,0.8603515625,0.275390625,-0.3994140625
2763,0.861328125,0.27734375,-0.3896484375
2764,0.86328125,0.2783203125,-0.396484375
2765,0.859375,0.279296875,-0.388671875
2766,0.8603515625,0.283203125,-0.3857421875
2767,0.8583984375,0.2763671875,-0.38671875
2768,0.8564453125,0.2802734375,-0.3857421875
2769,0.8701171875,0.28125,-0.392578125
2770,0.861328125,0.2802734375,-0.390625
2771,0.85546875,0.275390625,-0.388671875
2772,0.8623046875,0.28515625,-0.388671875
2773,0.86328125,0.27734375,-0.388671875
2774,0.8623046875,0.2802734375,-0.384765625
2775,0.861328125,0.2822265625,-0.4072265625
2776,0.8583984375,0.2822265625,-0.380859375
2777,0.859375,0.28125,-0.3876953125
2778,0.857421875,0.2841796875,-0.38671875
2779,0.86328125,0.283203125,-0.392578125
2780,0.8642578125,0.2783203125,-0.3896484375
2781,0.859375,0.279296875,-0.3916015625
2782,0.861328125,0.2783203125,-0.392578125
2783,0.8681640625,0.2734375,-0.3916015625
2784,0.8623046875,0.2783203125,-0.392578125
2785,0.865234375,0.279296875,-0.3876953125
2786,0.8564453125,0.2763671875,-0.3857421875
2787,0.857421875,0.2734375,-0.384765625
2788,0.861328125,0.2763671875,-0.38671875
2789,0.8583984375,0.275390625,-0.3896484375
2790,0.8623046875,0.275390625,-0.3896484375
2791,0.8623046875,0.27734375,-0.3857421875
2792,0.8642578125,0.27734375,-0.392578125
2793,0.8662109375,0.28515625,-0.392578125
2794,0.8681640625,0.2841796875,-0.3896484375
2795,0.8642578125,0.2802734375,-0.3896484375
2796,0.8662109375,0.28125,-0.3955078125
2797,0.8583984375,0.28125,-0.392578125
2798,0.861328125,0.27734375,-0.3935546875
2799,0.8623046875,0.2822265625,-0.3896484375
2800,0.8671875,0.28125,-0.3994140625
2801,0.8583984375,0.2802734375,-0.38671875
2802,0.8642578125,0.2802734375,-0.3935546875
2803,0.861328125,0.28515625,-0.3955078125
2804,0.8642578125,0.279296875,-0.392578125
2805,0.869140625,0.2841796875,-0.392578125
2806,0.86328125,0.2841796875,-0.390625
2807,0.8662109375,0.2763671875,-0.388671875
2808,0.8642578125,0.275390625,-0.400390625
2809,0.8623046875,0.28125,-0.39453125
2810,0.8623046875,0.275390625,-0.396484375
2811,0.8662109375,0.275390625,-0.3896484375
2812,0.8583984375,0.2783203125,-0.392578125
2813,0.865234375,0.279296875,-0.3916015625
2814,0.8623046875,0.2783203125,-0.3916015625
2815,0.859375,0.2802734375,-0.390625
2816,0.8603515625,0.275390625,-0.384765625
2817,0.859375,0.2841796875,-0.390625
2818,0.869140625,0.275390625,-0.39453125
2819,0.859375,0.28125,-0.39453125
2820,0.8583984375,0.2763671875,-0.388671875
2821,0.861328125,0.2802734375,-0.38671875
2822,0.861328125,0.2802734375,-0.388671875
2823,0.857421875,0.275390625,-0.38671875
2824,0.861328125,0.279296875,-0.3876953125
2825,0.85546875,0.2734375,-0.3818359375
2826,0.859375,0.2744140625,-0.3896484375
2827,0.8583984375,0.2734375,-0.3857421875
2828,0.861328125,0.279296875,-0.388671875
2829,0.8603515625,0.2763671875,-0.390625
2830,0.859375,0.275390625,-0.3876953125
2831,0.8564453125,0.275390625,-0.390625
2832,0.8603515625,0.275390625,-0.390625
2833,0.8603515625,0.2744140625,-0.388671875
2834,0.8623046875,0.2685546875,-0.388671875
2835,0.8564453125,0.279296875,-0.390625
2836,0.8603515625,0.2734375,-0.3896484375
2837,0.8603515625,0.2724609375,-0.3935546875
2838,0.857421875,0.2705078125,-0.39453125
2839,0.8564453125,0.2744140625,-0.38671875
2840,0.859375,0.2734375,-0.39453125
2841,0.8623046875,0.275390625,-0.3955078125
2842,0.85546875,0.2744140625,-0.3935546875
2843,0.86328125,0.2734375,-0.392578125
2844,0.8662109375,0.2734375,-0.390625
2845,0.8642578125,0.2705078125,-0.3994140625
2846,0.8681640625,0.267578125,-0.3994140625
2847,0.8681640625,0.2685546875,-0.3984375
2848,0.8701171875,0.2666015625,-0.4052734375
2849,0.8671875,0.2685546875,-0.400390625
2850,0.87109375,0.2666015625,-0.40234375
2851,0.8671875,0.271484375,-0.4052734375
2852,0.8740234375,0.2705078125,-0.404296875
2853,0.865234375,0.271484375,-0.3984375
2854,0.861328125,0.2705078125,-0.400390625
2855,0.861328125,0.271484375,-0.40234375
2856,0.8662109375,0.26953125,-0.3984375
2857,0.8681640625,0.2724609375,-0.3974609375
2858,0.865234375,0.2724609375,-0.3984375
2859,0.861328125,0.2724609375,-0.3994140625
2860,0.8583984375,0.2724609375,-0.3994140625
2861,0.8564453125,0.2744140625,-0.396484375
2862,0.8564453125,0.275390625,-0.3994140625
2863,0.8603515625,0.2724609375,-0.38671875
2864,0.8544921875,0.2734375,-0.3984375
2865,0.8525390625,0.2744140625,-0.3896484375
2866,0.8486328125,0.271484375,-0.3994140625
2867,0.849609375,0.2724609375,-0.3955078125
