,accelerometerAccelerationX(G),accelerometerAccelerationY(G),accelerometerAccelerationZ(G)
0,0.0869140625,-0.9150390625,0.2685546875
1,0.08984375,-0.9130859375,0.267578125
2,0.0859375,-0.916015625,0.2744140625
3,0.0927734375,-0.9169921875,0.2705078125
4,0.0927734375,-0.9140625,0.2685546875
5,0.091796875,-0.9189453125,0.2666015625
6,0.09375,-0.91796875,0.263671875
7,0.0927734375,-0.9189453125,0.2666015625
8,0.0927734375,-0.9169921875,0.2646484375
9,0.08984375,-0.9130859375,0.263671875
10,0.0927734375,-0.912109375,0.2626953125
11,0.0908203125,-0.91015625,0.2607421875
12,0.091796875,-0.9091796875,0.265625
13,0.0888671875,-0.9072265625,0.265625
14,0.0888671875,-0.908203125,0.2666015625
15,0.0888671875,-0.908203125,0.2666015625
16,0.08984375,-0.912109375,0.2626953125
17,0.091796875,-0.91015625,0.2626953125
18,0.087890625,-0.9140625,0.2666015625
19,0.0849609375,-0.9130859375,0.259765625
20,0.0927734375,-0.9140625,0.26171875
21,0.087890625,-0.91015625,0.26171875
22,0.09375,-0.908203125,0.259765625
23,0.09375,-0.9111328125,0.259765625
24,0.08984375,-0.9111328125,0.259765625
25,0.0888671875,-0.9140625,0.2587890625
26,0.0859375,-0.908203125,0.26171875
27,0.087890625,-0.9111328125,0.255859375
28,0.0888671875,-0.908203125,0.263671875
29,0.0849609375,-0.908203125,0.259765625
30,0.0869140625,-0.908203125,0.26171875
31,0.0908203125,-0.9091796875,0.265625
32,0.091796875,-0.9072265625,0.259765625
33,0.09375,-0.9072265625,0.2646484375
34,0.08984375,-0.9072265625,0.265625
35,0.091796875,-0.91015625,0.263671875
36,0.091796875,-0.91796875,0.2666015625
37,0.0966796875,-0.9140625,0.2685546875
38,0.0908203125,-0.9169921875,0.263671875
39,0.091796875,-0.9169921875,0.267578125
40,0.095703125,-0.9111328125,0.263671875
41,0.0947265625,-0.9140625,0.2646484375
42,0.0927734375,-0.9091796875,0.2607421875
43,0.095703125,-0.9091796875,0.2626953125
44,0.0927734375,-0.9091796875,0.259765625
45,0.09375,-0.908203125,0.2626953125
46,0.091796875,-0.9072265625,0.2626953125
47,0.0947265625,-0.9091796875,0.26171875
48,0.0927734375,-0.908203125,0.263671875
49,0.0966796875,-0.9130859375,0.2666015625
50,0.0966796875,-0.9267578125,0.2705078125
51,0.0947265625,-0.9208984375,0.2626953125
52,0.0966796875,-0.9228515625,0.2607421875
53,0.0927734375,-0.921875,0.2685546875
54,0.0908203125,-0.92578125,0.2626953125
55,0.0966796875,-0.9189453125,0.263671875
56,0.09375,-0.9267578125,0.2646484375
57,0.0927734375,-0.9208984375,0.263671875
58,0.0947265625,-0.9169921875,0.2626953125
59,0.0927734375,-0.9140625,0.2666015625
60,0.095703125,-0.9130859375,0.263671875
61,0.08984375,-0.91015625,0.2626953125
62,0.0927734375,-0.9111328125,0.267578125
63,0.091796875,-0.91015625,0.265625
64,0.0947265625,-0.9072265625,0.2666015625
65,0.0947265625,-0.9130859375,0.263671875
66,0.091796875,-0.908203125,0.263671875
67,0.08984375,-0.9091796875,0.26171875
68,0.0947265625,-0.91015625,0.26171875
69,0.09375,-0.916015625,0.2587890625
70,0.0966796875,-0.9140625,0.2646484375
71,0.0908203125,-0.9150390625,0.2666015625
72,0.08984375,-0.9130859375,0.2646484375
73,0.0908203125,-0.91015625,0.2646484375
74,0.09375,-0.9140625,0.2646484375
75,0.0927734375,-0.9169921875,0.263671875
76,0.0927734375,-0.912109375,0.2626953125
77,0.0869140625,-0.9130859375,0.259765625
78,0.0869140625,-0.9111328125,0.255859375
79,0.0869140625,-0.9072265625,0.248046875
80,0.08984375,-0.91015625,0.251953125
81,0.091796875,-0.90625,0.251953125
82,0.0869140625,-0.912109375,0.2578125
83,0.0908203125,-0.912109375,0.2568359375
84,0.0927734375,-0.9130859375,0.26171875
85,0.09765625,-0.9150390625,0.2626953125
86,0.09765625,-0.9150390625,0.265625
87,0.095703125,-0.9091796875,0.265625
88,0.0908203125,-0.91015625,0.2666015625
89,0.09375,-0.9091796875,0.26171875
90,0.095703125,-0.9072265625,0.2587890625
91,0.0927734375,-0.90625,0.267578125
92,0.091796875,-0.904296875,0.26953125
93,0.0908203125,-0.90234375,0.2666015625
94,0.0947265625,-0.9013671875,0.2666015625
95,0.0927734375,-0.9033203125,0.265625
96,0.0966796875,-0.91015625,0.2666015625
97,0.099609375,-0.9150390625,0.265625
98,0.0986328125,-0.9189453125,0.2646484375
99,0.0966796875,-0.921875,0.2626953125
100,0.09765625,-0.9296875,0.2666015625
101,0.0986328125,-0.9228515625,0.2626953125
102,0.10546875,-0.921875,0.2666015625
103,0.10546875,-0.9208984375,0.2607421875
104,0.107421875,-0.923828125,0.2587890625
105,0.103515625,-0.923828125,0.263671875
106,0.099609375,-0.91796875,0.2578125
107,0.09765625,-0.9169921875,0.2607421875
108,0.0966796875,-0.9130859375,0.259765625
109,0.1005859375,-0.9111328125,0.2587890625
110,0.0986328125,-0.9091796875,0.2626953125
111,0.1005859375,-0.90234375,0.2587890625
112,0.09375,-0.90625,0.2587890625
113,0.091796875,-0.9091796875,0.259765625
114,0.0888671875,-0.9140625,0.2587890625
115,0.08984375,-0.912109375,0.2568359375
116,0.0908203125,-0.9130859375,0.2607421875
117,0.0966796875,-0.9150390625,0.2587890625
118,0.0869140625,-0.919921875,0.259765625
119,0.0927734375,-0.9150390625,0.259765625
120,0.0908203125,-0.9189453125,0.2607421875
121,0.08984375,-0.91796875,0.259765625
122,0.087890625,-0.919921875,0.255859375
123,0.08984375,-0.9150390625,0.25390625
124,0.09375,-0.916015625,0.2587890625
125,0.0888671875,-0.912109375,0.2568359375
126,0.0966796875,-0.9111328125,0.255859375
127,0.091796875,-0.912109375,0.2529296875
128,0.095703125,-0.9111328125,0.259765625
129,0.0947265625,-0.90625,0.2568359375
130,0.095703125,-0.9140625,0.2587890625
131,0.0947265625,-0.9091796875,0.2568359375
132,0.095703125,-0.9150390625,0.2529296875
133,0.0966796875,-0.9150390625,0.2578125
134,0.0927734375,-0.9111328125,0.2607421875
135,0.0947265625,-0.912109375,0.2587890625
136,0.0966796875,-0.91796875,0.2529296875
137,0.0966796875,-0.9140625,0.255859375
138,0.087890625,-0.9150390625,0.251953125
139,0.09375,-0.916015625,0.25390625
140,0.0927734375,-0.916015625,0.251953125
141,0.08984375,-0.9111328125,0.25390625
142,0.0908203125,-0.91796875,0.2509765625
143,0.0859375,-0.9130859375,0.25
144,0.091796875,-0.912109375,0.25390625
145,0.0888671875,-0.91796875,0.24609375
146,0.09375,-0.912109375,0.2490234375
147,0.0927734375,-0.91015625,0.2529296875
148,0.099609375,-0.9140625,0.251953125
149,0.0966796875,-0.9169921875,0.251953125
150,0.103515625,-0.91796875,0.2509765625
151,0.099609375,-0.916015625,0.2568359375
152,0.1005859375,-0.916015625,0.26171875
153,0.09765625,-0.9130859375,0.251953125
154,0.103515625,-0.91015625,0.259765625
155,0.1005859375,-0.9140625,0.2607421875
156,0.099609375,-0.9140625,0.2578125
157,0.099609375,-0.912109375,0.2548828125
158,0.1044921875,-0.912109375,0.2568359375
159,0.1015625,-0.9140625,0.2568359375
160,0.09765625,-0.9140625,0.2587890625
161,0.1005859375,-0.91015625,0.2529296875
162,0.1005859375,-0.91796875,0.2568359375
163,0.0966796875,-0.9140625,0.2568359375
164,0.0947265625,-0.9150390625,0.25
165,0.0947265625,-0.9130859375,0.251953125
166,0.0908203125,-0.91796875,0.2548828125
167,0.08984375,-0.91796875,0.25390625
168,0.08984375,-0.9169921875,0.2529296875
169,0.087890625,-0.9169921875,0.2568359375
170,0.0947265625,-0.91796875,0.259765625
171,0.091796875,-0.9169921875,0.255859375
172,0.0869140625,-0.919921875,0.2626953125
173,0.0908203125,-0.9130859375,0.2578125
174,0.0888671875,-0.91796875,0.2568359375
175,0.0927734375,-0.9150390625,0.259765625
176,0.09375,-0.919921875,0.26171875
177,0.0947265625,-0.9150390625,0.263671875
178,0.08984375,-0.912109375,0.259765625
179,0.091796875,-0.9189453125,0.2587890625
180,0.091796875,-0.9189453125,0.26171875
181,0.0927734375,-0.916015625,0.2607421875
182,0.0927734375,-0.912109375,0.26171875
183,0.0947265625,-0.9140625,0.2587890625
184,0.0927734375,-0.91796875,0.2568359375
185,0.0947265625,-0.9111328125,0.2529296875
186,0.09375,-0.9169921875,0.25390625
187,0.0927734375,-0.9169921875,0.255859375
188,0.0927734375,-0.919921875,0.2578125
189,0.0908203125,-0.9111328125,0.2568359375
190,0.0966796875,-0.9130859375,0.259765625
191,0.09375,-0.9150390625,0.2568359375
192,0.0986328125,-0.9150390625,0.26171875
193,0.099609375,-0.9140625,0.2626953125
194,0.09375,-0.9111328125,0.26171875
195,0.1005859375,-0.91015625,0.2578125
196,0.0966796875,-0.9140625,0.2626953125
197,0.1044921875,-0.9091796875,0.263671875
198,0.1005859375,-0.912109375,0.2568359375
199,0.1044921875,-0.9111328125,0.2607421875
200,0.09765625,-0.91015625,0.25390625
201,0.099609375,-0.9169921875,0.251953125
202,0.0947265625,-0.9150390625,0.2490234375
203,0.10546875,-0.916015625,0.251953125
204,0.0966796875,-0.91796875,0.2529296875
205,0.095703125,-0.9169921875,0.2509765625
206,0.0947265625,-0.9130859375,0.2548828125
207,0.0986328125,-0.91015625,0.2548828125
208,0.095703125,-0.9111328125,0.255859375
209,0.095703125,-0.91015625,0.2587890625
210,0.09765625,-0.9091796875,0.263671875
211,0.1005859375,-0.908203125,0.265625
212,0.0966796875,-0.90625,0.263671875
213,0.09765625,-0.91015625,0.265625
214,0.0986328125,-0.91015625,0.267578125
215,0.1025390625,-0.91015625,0.2646484375
216,0.1005859375,-0.91796875,0.2646484375
217,0.099609375,-0.9169921875,0.267578125
218,0.1015625,-0.9130859375,0.271484375
219,0.0966796875,-0.9189453125,0.2646484375
220,0.09765625,-0.921875,0.2646484375
221,0.09375,-0.91796875,0.2607421875
222,0.091796875,-0.916015625,0.2607421875
223,0.08984375,-0.916015625,0.25390625
224,0.09375,-0.912109375,0.2509765625
225,0.0888671875,-0.9091796875,0.2529296875
226,0.0908203125,-0.9130859375,0.255859375
227,0.0888671875,-0.9072265625,0.259765625
228,0.09375,-0.9072265625,0.2587890625
229,0.0927734375,-0.912109375,0.26171875
230,0.0908203125,-0.9140625,0.2626953125
231,0.0966796875,-0.916015625,0.259765625
232,0.09375,-0.9091796875,0.263671875
233,0.09765625,-0.919921875,0.2587890625
234,0.091796875,-0.9169921875,0.265625
235,0.0927734375,-0.91796875,0.2646484375
236,0.09765625,-0.9140625,0.265625
237,0.09375,-0.919921875,0.2666015625
238,0.0966796875,-0.916015625,0.265625
239,0.0947265625,-0.912109375,0.2646484375
240,0.0966796875,-0.91015625,0.2666015625
241,0.095703125,-0.9150390625,0.2607421875
242,0.09375,-0.91015625,0.259765625
243,0.09375,-0.9091796875,0.2646484375
244,0.0908203125,-0.912109375,0.2607421875
245,0.09375,-0.9140625,0.2607421875
246,0.0927734375,-0.9130859375,0.2578125
247,0.09765625,-0.916015625,0.2587890625
248,0.09375,-0.9150390625,0.255859375
249,0.0927734375,-0.9150390625,0.2548828125
250,0.091796875,-0.9169921875,0.2568359375
251,0.0888671875,-0.91796875,0.255859375
252,0.0927734375,-0.9189453125,0.255859375
253,0.091796875,-0.91796875,0.2568359375
254,0.0908203125,-0.9140625,0.2548828125
255,0.0869140625,-0.9130859375,0.255859375
256,0.08984375,-0.91796875,0.255859375
257,0.0888671875,-0.916015625,0.26171875
258,0.0888671875,-0.9111328125,0.2587890625
259,0.0908203125,-0.9140625,0.26171875
260,0.091796875,-0.9140625,0.26171875
261,0.0908203125,-0.9130859375,0.2607421875
262,0.09375,-0.91015625,0.26171875
263,0.0908203125,-0.9111328125,0.26171875
264,0.0927734375,-0.90625,0.2587890625
265,0.091796875,-0.9140625,0.2578125
266,0.091796875,-0.908203125,0.2646484375
267,0.0888671875,-0.9091796875,0.2626953125
268,0.0927734375,-0.91015625,0.2607421875
269,0.0927734375,-0.91015625,0.26171875
270,0.091796875,-0.9111328125,0.2568359375
271,0.08984375,-0.9091796875,0.2607421875
272,0.08984375,-0.9150390625,0.2607421875
273,0.09375,-0.9140625,0.26171875
274,0.0927734375,-0.91015625,0.259765625
275,0.095703125,-0.9111328125,0.259765625
276,0.0908203125,-0.912109375,0.2587890625
277,0.08984375,-0.9130859375,0.259765625
278,0.09375,-0.9169921875,0.259765625
279,0.0947265625,-0.9130859375,0.2578125
280,0.0947265625,-0.9140625,0.2568359375
281,0.0986328125,-0.916015625,0.2607421875
282,0.09375,-0.9189453125,0.26171875
283,0.0908203125,-0.9169921875,0.255859375
284,0.0927734375,-0.9150390625,0.259765625
285,0.0966796875,-0.9130859375,0.2626953125
286,0.091796875,-0.9091796875,0.26171875
287,0.095703125,-0.91015625,0.2626953125
288,0.0966796875,-0.9111328125,0.26171875
289,0.0966796875,-0.9130859375,0.2626953125
290,0.0908203125,-0.91015625,0.2607421875
291,0.09375,-0.91015625,0.263671875
292,0.0908203125,-0.9111328125,0.2587890625
293,0.09765625,-0.90625,0.2626953125
294,0.095703125,-0.904296875,0.2646484375
295,0.091796875,-0.908203125,0.2666015625
296,0.095703125,-0.91015625,0.267578125
297,0.0966796875,-0.908203125,0.265625
298,0.095703125,-0.90625,0.271484375
299,0.09375,-0.91015625,0.2646484375
300,0.099609375,-0.9150390625,0.2666015625
301,0.095703125,-0.9091796875,0.2666015625
302,0.0966796875,-0.9072265625,0.2744140625
303,0.0986328125,-0.9150390625,0.2734375
304,0.0966796875,-0.9111328125,0.271484375
305,0.0966796875,-0.9130859375,0.26953125
306,0.0986328125,-0.9111328125,0.2666015625
307,0.0927734375,-0.912109375,0.267578125
308,0.09765625,-0.9150390625,0.2705078125
309,0.09765625,-0.9140625,0.267578125
310,0.099609375,-0.9130859375,0.2685546875
311,0.095703125,-0.9130859375,0.267578125
312,0.0947265625,-0.9189453125,0.267578125
313,0.091796875,-0.9169921875,0.2626953125
314,0.0927734375,-0.91796875,0.2607421875
315,0.0908203125,-0.9169921875,0.2568359375
316,0.0908203125,-0.91796875,0.25390625
317,0.0888671875,-0.9150390625,0.2578125
318,0.0859375,-0.9111328125,0.2607421875
319,0.08984375,-0.9140625,0.2568359375
320,0.087890625,-0.916015625,0.26171875
321,0.08203125,-0.91796875,0.265625
322,0.08984375,-0.912109375,0.2666015625
323,0.0888671875,-0.91015625,0.275390625
324,0.0908203125,-0.9111328125,0.2705078125
325,0.0927734375,-0.9052734375,0.2685546875
326,0.095703125,-0.9072265625,0.265625
327,0.09765625,-0.908203125,0.263671875
328,0.09765625,-0.908203125,0.26171875
329,0.09765625,-0.9072265625,0.2509765625
330,0.091796875,-0.9130859375,0.2578125
331,0.0908203125,-0.9111328125,0.2509765625
332,0.0849609375,-0.91796875,0.2529296875
333,0.0849609375,-0.9140625,0.251953125
334,0.0810546875,-0.9150390625,0.2529296875
335,0.080078125,-0.919921875,0.25
336,0.080078125,-0.919921875,0.25
337,0.07421875,-0.91796875,0.2470703125
338,0.07421875,-0.9189453125,0.244140625
339,0.078125,-0.9150390625,0.2421875
340,0.080078125,-0.9140625,0.244140625
341,0.083984375,-0.9111328125,0.240234375
342,0.0859375,-0.9091796875,0.25
343,0.0869140625,-0.908203125,0.251953125
344,0.0888671875,-0.90625,0.255859375
345,0.0966796875,-0.904296875,0.251953125
346,0.09765625,-0.9033203125,0.2568359375
347,0.09765625,-0.9013671875,0.25390625
348,0.09765625,-0.91015625,0.2548828125
349,0.091796875,-0.9111328125,0.259765625
350,0.08984375,-0.9150390625,0.2568359375
351,0.09375,-0.916015625,0.26171875
352,0.091796875,-0.919921875,0.259765625
353,0.08984375,-0.9208984375,0.2607421875
354,0.091796875,-0.921875,0.26171875
355,0.08984375,-0.91796875,0.263671875
356,0.0859375,-0.9169921875,0.2587890625
357,0.091796875,-0.919921875,0.26171875
358,0.08984375,-0.9208984375,0.263671875
359,0.0908203125,-0.9248046875,0.259765625
360,0.08984375,-0.91796875,0.2646484375
361,0.087890625,-0.9169921875,0.26171875
362,0.09375,-0.916015625,0.263671875
363,0.0947265625,-0.9169921875,0.259765625
364,0.091796875,-0.916015625,0.2626953125
365,0.09375,-0.9189453125,0.259765625
366,0.08984375,-0.919921875,0.2626953125
367,0.0908203125,-0.9130859375,0.265625
368,0.0908203125,-0.9140625,0.259765625
369,0.091796875,-0.9111328125,0.267578125
370,0.08984375,-0.9130859375,0.263671875
371,0.0888671875,-0.9130859375,0.2626953125
372,0.095703125,-0.91015625,0.26171875
373,0.091796875,-0.9130859375,0.263671875
374,0.0888671875,-0.9130859375,0.2646484375
375,0.087890625,-0.912109375,0.2646484375
376,0.0888671875,-0.912109375,0.2646484375
377,0.0927734375,-0.9111328125,0.263671875
378,0.08984375,-0.912109375,0.2646484375
379,0.0888671875,-0.9150390625,0.2626953125
380,0.0908203125,-0.912109375,0.259765625
381,0.0849609375,-0.9140625,0.2568359375
382,0.0849609375,-0.912109375,0.2646484375
383,0.0849609375,-0.908203125,0.2578125
384,0.0859375,-0.9091796875,0.2646484375
385,0.0927734375,-0.908203125,0.263671875
386,0.0908203125,-0.912109375,0.2646484375
387,0.09375,-0.912109375,0.2626953125
388,0.091796875,-0.9169921875,0.263671875
389,0.0947265625,-0.9130859375,0.263671875
390,0.0947265625,-0.916015625,0.2607421875
391,0.0947265625,-0.9150390625,0.267578125
392,0.0966796875,-0.9150390625,0.2666015625
393,0.0927734375,-0.9169921875,0.263671875
394,0.09765625,-0.9169921875,0.2626953125
395,0.091796875,-0.9130859375,0.2685546875
396,0.0966796875,-0.9169921875,0.263671875
397,0.095703125,-0.9140625,0.267578125
398,0.1005859375,-0.9130859375,0.2685546875
399,0.099609375,-0.9150390625,0.263671875
400,0.0947265625,-0.912109375,0.271484375
401,0.0927734375,-0.91015625,0.2646484375
402,0.0908203125,-0.912109375,0.26953125
403,0.1005859375,-0.91015625,0.2734375
404,0.0986328125,-0.9111328125,0.26953125
405,0.0966796875,-0.9150390625,0.2744140625
406,0.0947265625,-0.916015625,0.2685546875
407,0.0986328125,-0.916015625,0.2666015625
408,0.0947265625,-0.916015625,0.26953125
409,0.0966796875,-0.9150390625,0.2666015625
410,0.09765625,-0.91015625,0.2685546875
411,0.09375,-0.9140625,0.265625
412,0.1005859375,-0.9111328125,0.2646484375
413,0.095703125,-0.908203125,0.2685546875
414,0.0947265625,-0.91015625,0.2626953125
415,0.1005859375,-0.9111328125,0.259765625
416,0.0986328125,-0.912109375,0.26171875
417,0.0966796875,-0.908203125,0.26171875
418,0.0966796875,-0.9052734375,0.259765625
419,0.0947265625,-0.90625,0.26171875
420,0.0947265625,-0.90625,0.2568359375
421,0.0947265625,-0.9033203125,0.2587890625
422,0.0966796875,-0.9091796875,0.2568359375
423,0.0986328125,-0.90625,0.2548828125
424,0.095703125,-0.9072265625,0.26171875
425,0.0927734375,-0.9130859375,0.2587890625
426,0.0927734375,-0.90625,0.2548828125
427,0.0908203125,-0.9091796875,0.2568359375
428,0.08984375,-0.91015625,0.259765625
429,0.0908203125,-0.91015625,0.255859375
430,0.087890625,-0.9111328125,0.2568359375
431,0.0888671875,-0.90625,0.251953125
432,0.0869140625,-0.908203125,0.25390625
433,0.087890625,-0.9091796875,0.2587890625
434,0.08984375,-0.908203125,0.251953125
435,0.09375,-0.908203125,0.2548828125
436,0.087890625,-0.9130859375,0.2509765625
437,0.0927734375,-0.9140625,0.2509765625
438,0.0927734375,-0.9130859375,0.251953125
439,0.0966796875,-0.919921875,0.2529296875
440,0.0986328125,-0.9189453125,0.2578125
441,0.0927734375,-0.923828125,0.2578125
442,0.099609375,-0.9208984375,0.2607421875
443,0.0966796875,-0.9267578125,0.2666015625
444,0.091796875,-0.9228515625,0.265625
445,0.0908203125,-0.931640625,0.2685546875
446,0.0908203125,-0.927734375,0.2646484375
447,0.0849609375,-0.916015625,0.2783203125
448,0.091796875,-0.9150390625,0.2734375
449,0.087890625,-0.9091796875,0.2666015625
450,0.0888671875,-0.9033203125,0.2646484375
451,0.08984375,-0.9013671875,0.2626953125
452,0.091796875,-0.90234375,0.259765625
453,0.09375,-0.9072265625,0.265625
454,0.091796875,-0.90625,0.26953125
455,0.0986328125,-0.9111328125,0.2744140625
456,0.1005859375,-0.912109375,0.2744140625
457,0.0986328125,-0.91796875,0.27734375
458,0.10546875,-0.921875,0.2744140625
459,0.1015625,-0.9228515625,0.2763671875
460,0.0986328125,-0.916015625,0.2822265625
461,0.1005859375,-0.919921875,0.2783203125
462,0.0966796875,-0.9189453125,0.2783203125
463,0.099609375,-0.9130859375,0.2763671875
464,0.095703125,-0.912109375,0.271484375
465,0.0947265625,-0.9130859375,0.2705078125
466,0.1005859375,-0.912109375,0.265625
467,0.1005859375,-0.9111328125,0.267578125
468,0.09765625,-0.9091796875,0.2646484375
469,0.09765625,-0.91015625,0.26953125
470,0.0947265625,-0.908203125,0.26171875
471,0.095703125,-0.912109375,0.2666015625
472,0.09765625,-0.9072265625,0.267578125
473,0.0986328125,-0.9130859375,0.263671875
474,0.09765625,-0.91015625,0.2646484375
475,0.1015625,-0.91015625,0.2666015625
476,0.09765625,-0.912109375,0.263671875
477,0.095703125,-0.9091796875,0.2666015625
478,0.1025390625,-0.9072265625,0.2568359375
479,0.09765625,-0.90234375,0.259765625
480,0.09375,-0.908203125,0.263671875
481,0.099609375,-0.904296875,0.2646484375
482,0.099609375,-0.9033203125,0.2626953125
483,0.0986328125,-0.9072265625,0.265625
484,0.1064453125,-0.9091796875,0.2646484375
485,0.1103515625,-0.912109375,0.26953125
486,0.1044921875,-0.90625,0.26953125
487,0.1083984375,-0.908203125,0.2646484375
488,0.1083984375,-0.90625,0.2646484375
489,0.099609375,-0.91015625,0.2646484375
490,0.1025390625,-0.91015625,0.271484375
491,0.10546875,-0.908203125,0.263671875
492,0.10546875,-0.904296875,0.265625
493,0.1015625,-0.9091796875,0.267578125
494,0.0986328125,-0.904296875,0.263671875
495,0.0986328125,-0.9052734375,0.2646484375
496,0.1005859375,-0.91015625,0.2626953125
497,0.103515625,-0.9091796875,0.2626953125
498,0.1025390625,-0.9091796875,0.265625
499,0.10546875,-0.916015625,0.263671875
500,0.107421875,-0.91796875,0.26171875
501,0.1123046875,-0.91796875,0.26171875
502,0.10546875,-0.9150390625,0.263671875
503,0.1083984375,-0.91796875,0.265625
504,0.103515625,-0.916015625,0.265625
505,0.103515625,-0.9130859375,0.2666015625
506,0.099609375,-0.9150390625,0.26953125
507,0.1015625,-0.912109375,0.2705078125
508,0.0966796875,-0.908203125,0.2666015625
509,0.0947265625,-0.9140625,0.26953125
510,0.099609375,-0.91796875,0.2724609375
511,0.095703125,-0.9130859375,0.2685546875
512,0.0986328125,-0.9111328125,0.271484375
513,0.0927734375,-0.9111328125,0.2724609375
514,0.0947265625,-0.9150390625,0.26953125
515,0.0927734375,-0.9111328125,0.267578125
516,0.0908203125,-0.91796875,0.2705078125
517,0.0966796875,-0.9140625,0.2705078125
518,0.099609375,-0.9169921875,0.2724609375
519,0.1025390625,-0.9130859375,0.265625
520,0.099609375,-0.912109375,0.26953125
521,0.099609375,-0.912109375,0.2666015625
522,0.107421875,-0.9140625,0.265625
523,0.1044921875,-0.912109375,0.267578125
524,0.103515625,-0.912109375,0.2685546875
525,0.103515625,-0.9130859375,0.26953125
526,0.0966796875,-0.912109375,0.2685546875
527,0.1015625,-0.9091796875,0.271484375
528,0.1025390625,-0.9111328125,0.2744140625
529,0.1015625,-0.9091796875,0.2685546875
530,0.103515625,-0.912109375,0.2705078125
531,0.1005859375,-0.908203125,0.271484375
532,0.0986328125,-0.9091796875,0.2685546875
533,0.099609375,-0.9072265625,0.267578125
534,0.1064453125,-0.9091796875,0.267578125
535,0.10546875,-0.9150390625,0.26953125
536,0.1103515625,-0.91015625,0.2744140625
537,0.109375,-0.9150390625,0.2685546875
538,0.1083984375,-0.91015625,0.2724609375
539,0.10546875,-0.9140625,0.26953125
540,0.103515625,-0.9091796875,0.271484375
541,0.1064453125,-0.908203125,0.2763671875
542,0.1005859375,-0.908203125,0.2705078125
543,0.103515625,-0.904296875,0.2705078125
544,0.0966796875,-0.900390625,0.2744140625
545,0.09375,-0.90234375,0.2666015625
546,0.0927734375,-0.904296875,0.271484375
547,0.095703125,-0.8994140625,0.26953125
548,0.091796875,-0.9033203125,0.2724609375
549,0.0947265625,-0.90625,0.2744140625
550,0.091796875,-0.908203125,0.2705078125
551,0.095703125,-0.9189453125,0.2685546875
552,0.1005859375,-0.91796875,0.265625
553,0.099609375,-0.9208984375,0.263671875
554,0.1044921875,-0.921875,0.267578125
555,0.1005859375,-0.919921875,0.2646484375
556,0.1064453125,-0.916015625,0.263671875
557,0.103515625,-0.9130859375,0.26953125
558,0.1064453125,-0.9150390625,0.26953125
559,0.1015625,-0.9091796875,0.2666015625
560,0.10546875,-0.9150390625,0.265625
561,0.1015625,-0.912109375,0.2587890625
562,0.09765625,-0.90625,0.2666015625
563,0.103515625,-0.9072265625,0.2705078125
564,0.099609375,-0.90625,0.265625
565,0.0986328125,-0.9072265625,0.267578125
566,0.09765625,-0.908203125,0.2744140625
567,0.10546875,-0.908203125,0.275390625
568,0.1025390625,-0.9111328125,0.2744140625
569,0.1015625,-0.912109375,0.27734375
570,0.1025390625,-0.9150390625,0.271484375
571,0.103515625,-0.912109375,0.271484375
572,0.10546875,-0.91796875,0.267578125
573,0.107421875,-0.9130859375,0.2705078125
574,0.103515625,-0.91796875,0.2685546875
575,0.1064453125,-0.9169921875,0.26953125
576,0.1064453125,-0.91796875,0.2666015625
577,0.1123046875,-0.9150390625,0.271484375
578,0.115234375,-0.9150390625,0.2666015625
579,0.10546875,-0.912109375,0.2646484375
580,0.1103515625,-0.908203125,0.263671875
581,0.107421875,-0.9072265625,0.2646484375
582,0.103515625,-0.90625,0.265625
583,0.1083984375,-0.9072265625,0.263671875
584,0.103515625,-0.9091796875,0.2626953125
585,0.11328125,-0.908203125,0.2646484375
586,0.1044921875,-0.908203125,0.263671875
587,0.1103515625,-0.9052734375,0.2724609375
588,0.111328125,-0.9072265625,0.2685546875
589,0.1103515625,-0.904296875,0.2724609375
590,0.1162109375,-0.9013671875,0.26953125
591,0.11328125,-0.90625,0.2724609375
592,0.1181640625,-0.904296875,0.271484375
593,0.11328125,-0.9052734375,0.2705078125
594,0.109375,-0.9072265625,0.271484375
595,0.1123046875,-0.908203125,0.271484375
596,0.1083984375,-0.9091796875,0.271484375
597,0.1103515625,-0.916015625,0.267578125
598,0.1044921875,-0.91015625,0.265625
599,0.1044921875,-0.9140625,0.267578125
600,0.1025390625,-0.91796875,0.271484375
601,0.1015625,-0.9130859375,0.267578125
602,0.1025390625,-0.9169921875,0.265625
603,0.1005859375,-0.9169921875,0.26953125
604,0.0986328125,-0.912109375,0.267578125
605,0.0947265625,-0.9130859375,0.2705078125
606,0.091796875,-0.91015625,0.271484375
607,0.0966796875,-0.9111328125,0.275390625
608,0.1015625,-0.9111328125,0.2802734375
609,0.103515625,-0.90625,0.2734375
610,0.1044921875,-0.9033203125,0.2744140625
611,0.1015625,-0.9072265625,0.2744140625
612,0.1025390625,-0.9091796875,0.275390625
613,0.103515625,-0.9033203125,0.2744140625
614,0.1005859375,-0.9091796875,0.27734375
615,0.1025390625,-0.908203125,0.279296875
616,0.10546875,-0.9130859375,0.275390625
617,0.0947265625,-0.91015625,0.275390625
618,0.1015625,-0.916015625,0.271484375
619,0.09375,-0.9130859375,0.2734375
620,0.0908203125,-0.9140625,0.2744140625
621,0.0966796875,-0.912109375,0.2744140625
622,0.09375,-0.9150390625,0.279296875
623,0.0947265625,-0.9140625,0.27734375
624,0.095703125,-0.9091796875,0.271484375
625,0.0947265625,-0.908203125,0.2783203125
626,0.10546875,-0.9072265625,0.27734375
627,0.1005859375,-0.9091796875,0.2783203125
628,0.099609375,-0.9052734375,0.27734375
629,0.103515625,-0.9072265625,0.27734375
630,0.1015625,-0.9091796875,0.267578125
631,0.1044921875,-0.9072265625,0.271484375
632,0.0986328125,-0.9052734375,0.2744140625
633,0.1005859375,-0.91015625,0.2724609375
634,0.0986328125,-0.9111328125,0.275390625
635,0.09765625,-0.91015625,0.2783203125
636,0.1044921875,-0.9140625,0.2783203125
637,0.099609375,-0.91015625,0.27734375
638,0.09765625,-0.9072265625,0.2744140625
639,0.099609375,-0.9130859375,0.2822265625
640,0.0947265625,-0.9091796875,0.275390625
641,0.099609375,-0.9111328125,0.2763671875
642,0.099609375,-0.9052734375,0.2802734375
643,0.1044921875,-0.9091796875,0.2744140625
644,0.0966796875,-0.9072265625,0.2744140625
645,0.1005859375,-0.91015625,0.2724609375
646,0.0986328125,-0.912109375,0.275390625
647,0.1005859375,-0.91015625,0.2705078125
648,0.10546875,-0.912109375,0.2724609375
649,0.10546875,-0.908203125,0.2685546875
650,0.1044921875,-0.91015625,0.2783203125
651,0.1005859375,-0.9150390625,0.27734375
652,0.1064453125,-0.9130859375,0.28125
653,0.103515625,-0.9091796875,0.279296875
654,0.107421875,-0.91015625,0.283203125
655,0.109375,-0.9072265625,0.2822265625
656,0.1064453125,-0.9072265625,0.2890625
657,0.1044921875,-0.9033203125,0.287109375
658,0.10546875,-0.9013671875,0.28515625
659,0.107421875,-0.9033203125,0.287109375
660,0.103515625,-0.900390625,0.291015625
661,0.1064453125,-0.8984375,0.2919921875
662,0.1044921875,-0.9033203125,0.2900390625
663,0.103515625,-0.91015625,0.2958984375
664,0.1083984375,-0.9130859375,0.2900390625
665,0.1123046875,-0.919921875,0.2880859375
666,0.1171875,-0.9248046875,0.2880859375
667,0.107421875,-0.9267578125,0.2841796875
668,0.11328125,-0.9306640625,0.28125
669,0.1103515625,-0.931640625,0.2841796875
670,0.115234375,-0.927734375,0.2841796875
671,0.115234375,-0.9326171875,0.2822265625
672,0.1181640625,-0.927734375,0.279296875
673,0.119140625,-0.9248046875,0.2822265625
674,0.119140625,-0.9208984375,0.28125
675,0.107421875,-0.9150390625,0.2783203125
676,0.1064453125,-0.908203125,0.2802734375
677,0.1064453125,-0.9091796875,0.283203125
678,0.103515625,-0.9072265625,0.28125
679,0.109375,-0.90234375,0.2880859375
680,0.107421875,-0.9013671875,0.29296875
681,0.1044921875,-0.8955078125,0.28125
682,0.1103515625,-0.892578125,0.28515625
683,0.1103515625,-0.8955078125,0.283203125
684,0.1083984375,-0.8935546875,0.28515625
685,0.103515625,-0.896484375,0.279296875
686,0.109375,-0.89453125,0.2841796875
687,0.107421875,-0.900390625,0.283203125
688,0.1123046875,-0.8974609375,0.28125
689,0.1064453125,-0.9033203125,0.2822265625
690,0.1064453125,-0.8994140625,0.28515625
691,0.1064453125,-0.8994140625,0.28125
692,0.1103515625,-0.90625,0.2744140625
693,0.103515625,-0.904296875,0.27734375
694,0.1015625,-0.9130859375,0.28125
695,0.103515625,-0.9091796875,0.2744140625
696,0.1123046875,-0.908203125,0.271484375
697,0.1044921875,-0.9150390625,0.2705078125
698,0.1025390625,-0.9130859375,0.2705078125
699,0.1044921875,-0.9140625,0.2783203125
700,0.1123046875,-0.91796875,0.2734375
701,0.1083984375,-0.91015625,0.27734375
702,0.111328125,-0.904296875,0.283203125
703,0.1083984375,-0.904296875,0.2802734375
704,0.107421875,-0.8984375,0.2861328125
705,0.1025390625,-0.8994140625,0.287109375
706,0.1005859375,-0.896484375,0.2890625
707,0.1044921875,-0.8935546875,0.2900390625
708,0.0986328125,-0.892578125,0.296875
709,0.0966796875,-0.8994140625,0.2939453125
710,0.09765625,-0.89453125,0.2939453125
711,0.0947265625,-0.8974609375,0.2978515625
712,0.0966796875,-0.8974609375,0.3017578125
713,0.0947265625,-0.8994140625,0.2998046875
714,0.1015625,-0.9072265625,0.302734375
715,0.103515625,-0.9072265625,0.30859375
716,0.10546875,-0.9072265625,0.310546875
717,0.10546875,-0.9130859375,0.3115234375
718,0.1025390625,-0.912109375,0.3095703125
719,0.107421875,-0.9150390625,0.310546875
720,0.1103515625,-0.91015625,0.3125
721,0.1123046875,-0.90625,0.31640625
722,0.10546875,-0.9033203125,0.3154296875
723,0.1083984375,-0.9013671875,0.30859375
724,0.103515625,-0.90234375,0.3115234375
725,0.1064453125,-0.90625,0.3125
726,0.1103515625,-0.904296875,0.3125
727,0.111328125,-0.9072265625,0.3115234375
728,0.1142578125,-0.908203125,0.3115234375
729,0.1103515625,-0.908203125,0.310546875
730,0.11328125,-0.9091796875,0.3173828125
731,0.107421875,-0.91015625,0.3154296875
732,0.1123046875,-0.9072265625,0.318359375
733,0.1162109375,-0.908203125,0.3115234375
734,0.109375,-0.9052734375,0.3134765625
735,0.1142578125,-0.90625,0.3115234375
736,0.107421875,-0.900390625,0.318359375
737,0.10546875,-0.9033203125,0.322265625
738,0.107421875,-0.9013671875,0.330078125
739,0.1123046875,-0.9052734375,0.3271484375
740,0.1240234375,-0.8955078125,0.328125
741,0.1240234375,-0.89453125,0.3310546875
742,0.1201171875,-0.8974609375,0.3388671875
743,0.1220703125,-0.89453125,0.330078125
744,0.1220703125,-0.89453125,0.3271484375
745,0.126953125,-0.8974609375,0.328125
746,0.126953125,-0.89453125,0.3212890625
747,0.130859375,-0.900390625,0.3212890625
748,0.1318359375,-0.90234375,0.322265625
749,0.126953125,-0.90234375,0.318359375
750,0.123046875,-0.9111328125,0.318359375
751,0.1337890625,-0.908203125,0.3212890625
752,0.1279296875,-0.91015625,0.31640625
753,0.1318359375,-0.908203125,0.3173828125
754,0.1259765625,-0.90625,0.3203125
755,0.1298828125,-0.9033203125,0.318359375
756,0.130859375,-0.900390625,0.3212890625
757,0.1259765625,-0.908203125,0.3203125
758,0.12109375,-0.9013671875,0.32421875
759,0.125,-0.8984375,0.330078125
760,0.1240234375,-0.8955078125,0.328125
761,0.125,-0.8955078125,0.326171875
762,0.1220703125,-0.892578125,0.328125
763,0.1279296875,-0.8876953125,0.3388671875
764,0.1298828125,-0.884765625,0.333984375
765,0.1318359375,-0.87890625,0.337890625
766,0.1318359375,-0.8720703125,0.337890625
767,0.1328125,-0.873046875,0.341796875
768,0.1328125,-0.8720703125,0.34375
769,0.1376953125,-0.8740234375,0.341796875
770,0.130859375,-0.875,0.345703125
771,0.134765625,-0.875,0.3505859375
772,0.1328125,-0.8740234375,0.3544921875
773,0.1298828125,-0.876953125,0.3505859375
774,0.13671875,-0.8779296875,0.3544921875
775,0.138671875,-0.8759765625,0.353515625
776,0.13671875,-0.876953125,0.3515625
777,0.1435546875,-0.8837890625,0.349609375
778,0.14453125,-0.8837890625,0.359375
779,0.138671875,-0.880859375,0.359375
780,0.1455078125,-0.8876953125,0.3583984375
781,0.1474609375,-0.8896484375,0.3583984375
782,0.14453125,-0.8876953125,0.359375
783,0.146484375,-0.8828125,0.365234375
784,0.1416015625,-0.884765625,0.3603515625
785,0.1416015625,-0.8876953125,0.3603515625
786,0.1376953125,-0.888671875,0.3681640625
787,0.1337890625,-0.875,0.37109375
788,0.1298828125,-0.884765625,0.37109375
789,0.123046875,-0.8828125,0.3671875
790,0.115234375,-0.8740234375,0.37109375
791,0.11328125,-0.87109375,0.3740234375
792,0.1044921875,-0.869140625,0.37890625
793,0.1025390625,-0.8681640625,0.3779296875
794,0.099609375,-0.86328125,0.3828125
795,0.091796875,-0.8642578125,0.3916015625
796,0.0888671875,-0.8720703125,0.3857421875
797,0.0927734375,-0.8720703125,0.3857421875
798,0.0908203125,-0.8720703125,0.384765625
799,0.0908203125,-0.875,0.38671875
800,0.0908203125,-0.880859375,0.39453125
801,0.08984375,-0.88671875,0.40234375
802,0.0869140625,-0.888671875,0.4072265625
803,0.0888671875,-0.8955078125,0.4130859375
804,0.08984375,-0.8896484375,0.4228515625
805,0.099609375,-0.8974609375,0.412109375
806,0.1044921875,-0.8935546875,0.4140625
807,0.1123046875,-0.88671875,0.4169921875
808,0.1171875,-0.8798828125,0.41015625
809,0.125,-0.8642578125,0.4033203125
810,0.1416015625,-0.8583984375,0.40234375
811,0.1591796875,-0.8369140625,0.3955078125
812,0.166015625,-0.8310546875,0.404296875
813,0.1728515625,-0.80859375,0.412109375
814,0.1787109375,-0.8017578125,0.416015625
815,0.181640625,-0.7939453125,0.419921875
816,0.1904296875,-0.787109375,0.4228515625
817,0.197265625,-0.783203125,0.4267578125
818,0.2021484375,-0.775390625,0.4296875
819,0.201171875,-0.7734375,0.4169921875
820,0.201171875,-0.771484375,0.4140625
821,0.2080078125,-0.7744140625,0.400390625
822,0.212890625,-0.771484375,0.396484375
823,0.228515625,-0.7763671875,0.3876953125
824,0.23828125,-0.7802734375,0.39453125
825,0.236328125,-0.7841796875,0.3935546875
826,0.1689453125,-0.76953125,0.4443359375
827,0.271484375,-0.798828125,0.392578125
828,0.2548828125,-0.8056640625,0.40625
829,0.26171875,-0.8095703125,0.4189453125
830,0.2587890625,-0.802734375,0.421875
831,0.2529296875,-0.8046875,0.4267578125
832,0.25390625,-0.8046875,0.42578125
833,0.24609375,-0.798828125,0.431640625
834,0.251953125,-0.7958984375,0.4423828125
835,0.2490234375,-0.7890625,0.4423828125
836,0.2451171875,-0.775390625,0.4482421875
837,0.2421875,-0.7724609375,0.453125
838,0.23828125,-0.76953125,0.4619140625
839,0.2373046875,-0.7744140625,0.466796875
840,0.2314453125,-0.763671875,0.4775390625
841,0.2236328125,-0.7607421875,0.4892578125
842,0.220703125,-0.76171875,0.4931640625
843,0.21484375,-0.755859375,0.498046875
844,0.2138671875,-0.759765625,0.50390625
845,0.2734375,-0.76171875,0.4462890625
846,0.21484375,-0.759765625,0.490234375
847,0.21484375,-0.7626953125,0.4921875
848,0.2060546875,-0.759765625,0.4970703125
849,0.203125,-0.7568359375,0.4912109375
850,0.2041015625,-0.75390625,0.4873046875
851,0.205078125,-0.7587890625,0.490234375
852,0.2041015625,-0.7568359375,0.490234375
853,0.201171875,-0.7509765625,0.5048828125
854,0.193359375,-0.75390625,0.5048828125
855,0.2373046875,-0.7568359375,0.478515625
856,0.20703125,-0.7421875,0.4970703125
857,0.2109375,-0.744140625,0.490234375
858,0.2119140625,-0.7431640625,0.484375
859,0.2080078125,-0.740234375,0.4677734375
860,0.12890625,-0.72265625,0.5
861,0.224609375,-0.7314453125,0.4453125
862,0.1953125,-0.7236328125,0.4384765625
863,0.189453125,-0.7265625,0.4384765625
864,0.1826171875,-0.724609375,0.4453125
865,0.177734375,-0.7236328125,0.453125
866,0.1787109375,-0.71484375,0.4580078125
867,0.1611328125,-0.7080078125,0.462890625
868,0.1083984375,-0.6884765625,0.48046875
869,0.1787109375,-0.6923828125,0.4404296875
870,0.1474609375,-0.6953125,0.451171875
871,0.146484375,-0.6865234375,0.4501953125
872,0.1455078125,-0.685546875,0.4462890625
873,0.13671875,-0.6787109375,0.435546875
874,0.1357421875,-0.6767578125,0.4365234375
875,0.1328125,-0.673828125,0.423828125
876,0.130859375,-0.6669921875,0.4267578125
877,0.12890625,-0.666015625,0.4208984375
878,0.130859375,-0.67578125,0.435546875
879,0.125,-0.666015625,0.43359375
880,0.134765625,-0.677734375,0.453125
881,0.140625,-0.6787109375,0.4697265625
882,0.1474609375,-0.685546875,0.4912109375
883,0.146484375,-0.6865234375,0.5087890625
884,0.0322265625,-0.662109375,0.5908203125
885,0.2041015625,-0.6826171875,0.5205078125
886,0.173828125,-0.693359375,0.541015625
887,0.18359375,-0.705078125,0.5615234375
888,0.1904296875,-0.7158203125,0.580078125
889,0.1953125,-0.7275390625,0.5966796875
890,0.1953125,-0.7265625,0.595703125
891,0.208984375,-0.7275390625,0.6015625
892,0.21875,-0.73046875,0.609375
893,0.228515625,-0.736328125,0.6298828125
894,0.2373046875,-0.73828125,0.6513671875
895,0.2421875,-0.7333984375,0.669921875
896,0.25390625,-0.7177734375,0.6796875
897,0.2607421875,-0.701171875,0.685546875
898,0.2734375,-0.6865234375,0.7041015625
899,0.2763671875,-0.666015625,0.7041015625
900,0.2724609375,-0.646484375,0.7080078125
901,0.2626953125,-0.630859375,0.71875
902,0.25390625,-0.6025390625,0.71484375
903,0.2490234375,-0.583984375,0.705078125
904,0.2353515625,-0.5517578125,0.69921875
905,0.2080078125,-0.5068359375,0.6806640625
906,0.1640625,-0.47265625,0.6708984375
907,0.158203125,-0.451171875,0.6416015625
908,0.166015625,-0.4287109375,0.5986328125
909,0.125,-0.4130859375,0.580078125
910,0.1162109375,-0.3916015625,0.5693359375
911,0.09765625,-0.376953125,0.560546875
912,0.0888671875,-0.3642578125,0.5498046875
913,0.078125,-0.3466796875,0.5302734375
914,0.0771484375,-0.33984375,0.5009765625
915,0.0791015625,-0.337890625,0.466796875
916,0.07421875,-0.33984375,0.4345703125
917,0.07421875,-0.3369140625,0.40625
918,0.068359375,-0.34375,0.3779296875
919,0.0615234375,-0.3603515625,0.380859375
920,0.0634765625,-0.3837890625,0.408203125
921,0.083984375,-0.42578125,0.4384765625
922,0.087890625,-0.4580078125,0.4892578125
923,0.09375,-0.4833984375,0.53515625
924,0.0908203125,-0.4873046875,0.5791015625
925,0.0830078125,-0.4951171875,0.62109375
926,0.076171875,-0.4892578125,0.66015625
927,0.0712890625,-0.462890625,0.6826171875
928,0.0751953125,-0.4482421875,0.7021484375
929,0.076171875,-0.4208984375,0.70703125
930,0.068359375,-0.400390625,0.7060546875
931,0.07421875,-0.3603515625,0.705078125
932,0.091796875,-0.3310546875,0.7099609375
933,0.1103515625,-0.3037109375,0.701171875
934,0.1123046875,-0.2734375,0.7001953125
935,0.0966796875,-0.251953125,0.705078125
936,0.080078125,-0.2275390625,0.7177734375
937,0.0849609375,-0.201171875,0.7255859375
938,0.0634765625,-0.1728515625,0.716796875
939,0.05859375,-0.1240234375,0.7138671875
940,0.0703125,-0.0771484375,0.705078125
941,0.0322265625,-0.0087890625,0.70703125
942,0.0498046875,0.0419921875,0.6845703125
943,0.0849609375,0.0380859375,0.6025390625
944,0.0537109375,0.0146484375,0.498046875
945,0.048828125,-0.0234375,0.4365234375
946,0.0068359375,-0.064453125,0.3662109375
947,0.0029296875,-0.0966796875,0.296875
948,-0.0322265625,-0.1103515625,0.216796875
949,-0.044921875,-0.1357421875,0.119140625
950,-0.05078125,-0.173828125,0.05859375
951,-0.044921875,-0.185546875,0.01171875
952,-0.0146484375,-0.1533203125,0.0
953,0.005859375,-0.1455078125,0.0380859375
954,0.02734375,-0.18359375,0.064453125
955,0.05859375,-0.2568359375,0.125
956,0.125,-0.3203125,0.2041015625
957,0.1728515625,-0.3720703125,0.30078125
958,0.177734375,-0.3759765625,0.373046875
959,0.14453125,-0.3935546875,0.3583984375
960,0.1806640625,-0.435546875,0.2294921875
961,0.1728515625,-0.4619140625,0.0859375
962,0.056640625,-0.4013671875,0.0478515625
963,0.0029296875,-0.306640625,-0.0205078125
964,0.03125,-0.2275390625,-0.087890625
965,0.10546875,-0.146484375,-0.041015625
966,0.173828125,-0.05859375,-0.0107421875
967,0.1689453125,0.03515625,-0.001953125
968,0.130859375,0.1337890625,0.0029296875
969,0.13671875,0.20703125,-0.0283203125
970,0.0546875,0.2890625,-0.0966796875
971,-0.0048828125,0.333984375,-0.1103515625
972,-0.0546875,0.353515625,-0.1005859375
973,-0.0576171875,0.3271484375,-0.12890625
974,-0.0478515625,0.265625,-0.13671875
975,0.044921875,0.244140625,-0.119140625
976,0.0126953125,0.201171875,-0.009765625
977,-0.029296875,0.1767578125,0.169921875
978,-0.0537109375,0.1416015625,0.2958984375
979,-0.001953125,0.060546875,0.4384765625
980,0.05078125,-0.1171875,0.5966796875
981,0.1357421875,-0.28515625,0.92578125
982,0.1357421875,-0.498046875,1.3125
983,0.361328125,-0.7451171875,1.7802734375
984,0.2548828125,-1.2099609375,2.3623046875
985,0.2607421875,-1.6337890625,3.0791015625
986,0.2939453125,-2.193359375,3.84375
987,0.4306640625,-2.6640625,4.732421875
988,0.6884765625,-3.0634765625,5.6826171875
989,1.1728515625,-3.357421875,6.470703125
990,0.904296875,-3.607421875,6.6796875
991,0.4765625,-3.6640625,6.228515625
992,0.2822265625,-3.1435546875,5.904296875
993,0.361328125,-2.2021484375,5.1953125
994,0.337890625,-1.2880859375,4.09375
995,-0.021484375,-0.3544921875,3.2919921875
996,-0.2978515625,0.599609375,2.6650390625
997,-0.3330078125,1.12109375,2.0302734375
998,-0.408203125,1.51171875,1.3818359375
999,-0.2939453125,1.591796875,0.8515625
1000,0.04296875,1.4521484375,0.3740234375
1001,0.341796875,1.220703125,-0.0078125
1002,0.625,1.0927734375,-0.150390625
1003,0.6455078125,1.0439453125,-0.046875
1004,0.6689453125,1.0654296875,0.095703125
1005,0.634765625,1.0986328125,0.310546875
1006,0.5537109375,1.048828125,0.6357421875
1007,0.478515625,0.951171875,0.9677734375
1008,0.435546875,0.8173828125,1.2158203125
1009,0.3818359375,0.609375,1.3505859375
1010,0.373046875,0.314453125,1.32421875
1011,0.3525390625,0.0244140625,1.294921875
1012,0.353515625,-0.21875,1.2861328125
1013,0.3828125,-0.3310546875,1.2666015625
1014,0.4248046875,-0.3095703125,1.18359375
1015,0.3525390625,-0.236328125,1.029296875
1016,0.2880859375,-0.111328125,0.826171875
1017,0.224609375,0.0361328125,0.5947265625
1018,0.0595703125,0.1533203125,0.5087890625
1019,-0.072265625,0.2822265625,0.529296875
1020,-0.1650390625,0.40234375,0.587890625
1021,-0.1904296875,0.4853515625,0.6142578125
1022,-0.193359375,0.52734375,0.5859375
1023,-0.2197265625,0.5205078125,0.4599609375
1024,-0.205078125,0.4990234375,0.33203125
1025,-0.306640625,0.45703125,0.2998046875
1026,-0.296875,0.4091796875,0.19921875
1027,-0.29296875,0.4140625,0.1884765625
1028,-0.2822265625,0.4462890625,0.1962890625
1029,-0.265625,0.5146484375,0.22265625
1030,-0.2490234375,0.5986328125,0.2509765625
1031,-0.224609375,0.658203125,0.2978515625
1032,-0.1943359375,0.6875,0.337890625
1033,-0.140625,0.6611328125,0.3955078125
1034,-0.138671875,0.6513671875,0.4638671875
1035,-0.1083984375,0.6162109375,0.51953125
1036,-0.0751953125,0.5849609375,0.5576171875
1037,-0.044921875,0.5595703125,0.6240234375
1038,-0.0087890625,0.5390625,0.6767578125
1039,0.0146484375,0.5458984375,0.7275390625
1040,0.0615234375,0.5556640625,0.7646484375
1041,0.07421875,0.5830078125,0.7763671875
1042,0.087890625,0.6005859375,0.7744140625
1043,0.09375,0.6171875,0.76171875
1044,0.087890625,0.63671875,0.748046875
1045,0.0849609375,0.642578125,0.71875
1046,0.0712890625,0.6474609375,0.6962890625
1047,0.068359375,0.6484375,0.6630859375
1048,0.0498046875,0.642578125,0.634765625
1049,0.0107421875,0.6572265625,0.619140625
1050,0.0361328125,0.662109375,0.5888671875
1051,0.0595703125,0.66015625,0.5927734375
1052,0.05078125,0.6748046875,0.611328125
1053,-0.00390625,0.7158203125,0.6650390625
1054,-0.033203125,0.7265625,0.712890625
1055,-0.0732421875,0.748046875,0.80078125
1056,-0.0908203125,0.7744140625,0.8896484375
1057,-0.1201171875,0.78515625,0.9609375
1058,-0.099609375,0.810546875,1.025390625
1059,-0.0673828125,0.8486328125,1.1005859375
1060,-0.1005859375,0.853515625,1.1376953125
1061,-0.10546875,0.8701171875,1.1669921875
1062,-0.06640625,0.8779296875,1.171875
1063,-0.060546875,0.8671875,1.1865234375
1064,-0.0068359375,0.873046875,1.2177734375
1065,0.0478515625,0.857421875,1.23828125
1066,0.076171875,0.8349609375,1.2880859375
1067,0.0576171875,0.82421875,1.3408203125
1068,0.08203125,0.796875,1.35546875
1069,0.1162109375,0.7626953125,1.3212890625
1070,0.125,0.71484375,1.3017578125
1071,0.138671875,0.65625,1.2392578125
1072,0.1484375,0.58203125,1.1923828125
1073,0.1484375,0.5107421875,1.1484375
1074,0.1455078125,0.4365234375,1.1181640625
1075,0.1533203125,0.37109375,1.115234375
1076,0.1728515625,0.2998046875,1.109375
1077,0.17578125,0.248046875,1.0947265625
1078,0.1826171875,0.197265625,1.080078125
1079,0.1767578125,0.1630859375,1.064453125
1080,0.16015625,0.1279296875,1.037109375
1081,0.1328125,0.103515625,1.00390625
1082,0.1298828125,0.1025390625,0.966796875
1083,0.1298828125,0.115234375,0.92578125
1084,0.1142578125,0.1337890625,0.8876953125
1085,0.1162109375,0.158203125,0.849609375
1086,0.10546875,0.185546875,0.8037109375
1087,0.0791015625,0.21875,0.79296875
1088,0.0947265625,0.2353515625,0.7734375
1089,0.0791015625,0.2421875,0.7734375
1090,0.078125,0.255859375,0.7822265625
1091,0.05078125,0.2392578125,0.802734375
1092,0.0185546875,0.216796875,0.8359375
1093,0.0244140625,0.2001953125,0.86328125
1094,0.015625,0.1796875,0.908203125
1095,0.0263671875,0.1474609375,0.9443359375
1096,0.0263671875,0.1259765625,0.9619140625
1097,0.03515625,0.1044921875,0.9853515625
1098,0.0458984375,0.087890625,1.001953125
1099,0.0498046875,0.076171875,1.0302734375
1100,0.0595703125,0.0625,1.041015625
1101,0.072265625,0.0537109375,1.0712890625
1102,0.0791015625,0.044921875,1.08984375
1103,0.0986328125,0.03125,1.107421875
1104,0.095703125,0.021484375,1.12109375
1105,0.103515625,0.013671875,1.1376953125
1106,0.1162109375,0.0029296875,1.14453125
1107,0.0927734375,0.001953125,1.1552734375
1108,0.10546875,-0.0107421875,1.1494140625
1109,0.09765625,-0.0224609375,1.1357421875
1110,0.076171875,-0.02734375,1.1318359375
1111,0.0625,-0.03515625,1.115234375
1112,0.060546875,-0.044921875,1.0908203125
1113,0.0380859375,-0.0458984375,1.0771484375
1114,0.0517578125,-0.05078125,1.0498046875
1115,0.0517578125,-0.0576171875,1.0458984375
1116,0.0634765625,-0.0712890625,1.017578125
1117,0.0517578125,-0.0703125,1.015625
1118,0.0703125,-0.06640625,1.005859375
1119,0.0869140625,-0.052734375,1.0107421875
1120,0.0908203125,-0.0419921875,1.013671875
1121,0.0966796875,-0.0244140625,1.0224609375
1122,0.115234375,-0.0009765625,1.0244140625
1123,0.1171875,0.0087890625,1.0302734375
1124,0.1162109375,0.029296875,1.046875
1125,0.1181640625,0.0537109375,1.046875
1126,0.134765625,0.080078125,1.046875
1127,0.1396484375,0.10546875,1.0537109375
1128,0.13671875,0.1337890625,1.060546875
1129,0.1328125,0.16015625,1.0576171875
1130,0.115234375,0.17578125,1.072265625
1131,0.0986328125,0.1982421875,1.0791015625
1132,0.091796875,0.2138671875,1.087890625
1133,0.087890625,0.2412109375,1.0927734375
1134,0.0869140625,0.2607421875,1.091796875
1135,0.0908203125,0.265625,1.0810546875
1136,0.08984375,0.2724609375,1.068359375
1137,0.087890625,0.279296875,1.0517578125
1138,0.0859375,0.283203125,1.0458984375
1139,0.1181640625,0.3017578125,1.01953125
1140,0.1279296875,0.3154296875,0.998046875
1141,0.1337890625,0.3359375,0.966796875
1142,0.1474609375,0.3544921875,0.923828125
1143,0.1513671875,0.365234375,0.873046875
1144,0.15234375,0.373046875,0.8232421875
1145,0.1552734375,0.3671875,0.7802734375
1146,0.166015625,0.353515625,0.7431640625
1147,0.1650390625,0.3349609375,0.7158203125
1148,0.1513671875,0.3046875,0.7177734375
1149,0.1328125,0.2744140625,0.732421875
1150,0.09765625,0.244140625,0.7783203125
1151,0.08984375,0.2216796875,0.8271484375
1152,0.0654296875,0.203125,0.8994140625
1153,0.068359375,0.193359375,0.9658203125
1154,0.076171875,0.1865234375,1.0166015625
1155,0.0888671875,0.1884765625,1.052734375
1156,0.099609375,0.2021484375,1.0810546875
1157,0.1123046875,0.20703125,1.076171875
1158,0.1298828125,0.23046875,1.0654296875
1159,0.1396484375,0.2431640625,1.04296875
1160,0.154296875,0.2451171875,1.017578125
1161,0.1611328125,0.2470703125,0.984375
1162,0.16796875,0.232421875,0.9619140625
1163,0.16015625,0.2119140625,0.9287109375
1164,0.1484375,0.1904296875,0.9052734375
1165,0.1376953125,0.158203125,0.89453125
1166,0.1259765625,0.1201171875,0.8837890625
1167,0.125,0.0859375,0.88671875
1168,0.1220703125,0.048828125,0.9072265625
1169,0.1171875,0.01953125,0.9228515625
1170,0.115234375,-0.0087890625,0.9443359375
1171,0.10546875,-0.021484375,0.982421875
1172,0.1015625,-0.0361328125,1.0087890625
1173,0.0888671875,-0.0322265625,1.03515625
1174,0.083984375,-0.013671875,1.0673828125
1175,0.0947265625,0.0068359375,1.0791015625
1176,0.0869140625,0.037109375,1.091796875
1177,0.08203125,0.0693359375,1.0986328125
1178,0.0859375,0.107421875,1.083984375
1179,0.0810546875,0.1630859375,1.0693359375
1180,0.0830078125,0.193359375,1.046875
1181,0.087890625,0.232421875,1.0146484375
1182,0.0908203125,0.251953125,0.9912109375
1183,0.103515625,0.2646484375,0.9697265625
1184,0.109375,0.271484375,0.9482421875
1185,0.1083984375,0.2646484375,0.9326171875
1186,0.1025390625,0.244140625,0.9111328125
1187,0.1181640625,0.224609375,0.90234375
1188,0.1279296875,0.1943359375,0.8974609375
1189,0.1318359375,0.1630859375,0.8955078125
1190,0.1484375,0.1259765625,0.8994140625
1191,0.150390625,0.0888671875,0.908203125
1192,0.150390625,0.0498046875,0.9208984375
1193,0.1474609375,0.01171875,0.9365234375
1194,0.1494140625,-0.021484375,0.9677734375
1195,0.150390625,-0.044921875,0.990234375
1196,0.1494140625,-0.07421875,1.005859375
1197,0.1533203125,-0.1015625,1.0205078125
1198,0.1552734375,-0.1171875,1.0341796875
1199,0.16015625,-0.12890625,1.0595703125
1200,0.1572265625,-0.13671875,1.078125
1201,0.169921875,-0.1279296875,1.0810546875
1202,0.1767578125,-0.10546875,1.0869140625
1203,0.1826171875,-0.0810546875,1.0869140625
1204,0.181640625,-0.0498046875,1.076171875
1205,0.181640625,-0.0185546875,1.076171875
1206,0.1728515625,0.0029296875,1.068359375
1207,0.1787109375,0.0234375,1.0546875
1208,0.1708984375,0.0478515625,1.0322265625
1209,0.1689453125,0.0693359375,1.0341796875
1210,0.166015625,0.0888671875,1.0205078125
1211,0.154296875,0.09765625,1.0048828125
1212,0.158203125,0.1142578125,0.9951171875
1213,0.1513671875,0.1123046875,0.9873046875
1214,0.146484375,0.107421875,0.9873046875
1215,0.146484375,0.115234375,0.9794921875
1216,0.1337890625,0.1123046875,0.978515625
1217,0.1162109375,0.107421875,0.982421875
1218,0.1123046875,0.1044921875,0.9765625
1219,0.0986328125,0.1123046875,0.9697265625
1220,0.087890625,0.1162109375,0.97265625
1221,0.0947265625,0.11328125,0.96484375
1222,0.0966796875,0.1240234375,0.96875
1223,0.1025390625,0.1279296875,0.9619140625
1224,0.107421875,0.1416015625,0.9658203125
1225,0.1240234375,0.1513671875,0.9619140625
1226,0.126953125,0.1630859375,0.966796875
1227,0.1328125,0.1796875,0.9716796875
1228,0.146484375,0.1982421875,0.96875
1229,0.1474609375,0.2158203125,0.9736328125
1230,0.154296875,0.2265625,0.970703125
1231,0.1689453125,0.2412109375,0.97265625
1232,0.1787109375,0.263671875,0.9736328125
1233,0.1767578125,0.267578125,0.978515625
1234,0.1826171875,0.2763671875,0.9765625
1235,0.18359375,0.2890625,0.9794921875
1236,0.1865234375,0.298828125,0.9853515625
1237,0.18359375,0.3076171875,0.9755859375
1238,0.185546875,0.310546875,0.974609375
1239,0.1767578125,0.318359375,0.966796875
1240,0.177734375,0.3232421875,0.970703125
1241,0.171875,0.33203125,0.970703125
1242,0.16796875,0.3359375,0.96875
1243,0.1591796875,0.33984375,0.96484375
1244,0.1611328125,0.3359375,0.962890625
1245,0.1591796875,0.3408203125,0.958984375
1246,0.1591796875,0.3466796875,0.9580078125
1247,0.158203125,0.3505859375,0.9609375
1248,0.166015625,0.3505859375,0.9619140625
1249,0.1669921875,0.3525390625,0.9609375
1250,0.16015625,0.3486328125,0.9697265625
1251,0.1591796875,0.345703125,0.9755859375
1252,0.154296875,0.333984375,0.9775390625
1253,0.15234375,0.3359375,0.9853515625
1254,0.1552734375,0.322265625,0.9970703125
1255,0.146484375,0.30078125,0.9970703125
1256,0.146484375,0.2841796875,0.9951171875
1257,0.1455078125,0.279296875,0.9912109375
1258,0.140625,0.2763671875,0.9951171875
1259,0.1337890625,0.26953125,0.982421875
1260,0.1337890625,0.263671875,0.986328125
1261,0.1298828125,0.2509765625,0.978515625
1262,0.12890625,0.2451171875,0.9833984375
1263,0.1318359375,0.2392578125,0.97265625
1264,0.123046875,0.2275390625,0.982421875
1265,0.125,0.212890625,0.9814453125
1266,0.126953125,0.205078125,0.9775390625
1267,0.12109375,0.197265625,0.9794921875
1268,0.1220703125,0.1875,0.9794921875
1269,0.123046875,0.1796875,0.9814453125
1270,0.119140625,0.16796875,0.98046875
1271,0.1259765625,0.16796875,0.9892578125
1272,0.12109375,0.16015625,0.9931640625
1273,0.1220703125,0.154296875,0.9951171875
1274,0.123046875,0.140625,1.0009765625
1275,0.1298828125,0.1376953125,0.9931640625
1276,0.1279296875,0.1376953125,1.0009765625
1277,0.1328125,0.13671875,0.998046875
1278,0.130859375,0.1328125,1.0087890625
1279,0.130859375,0.1328125,1.0029296875
1280,0.138671875,0.126953125,1.0087890625
1281,0.142578125,0.1279296875,1.0009765625
1282,0.14453125,0.1279296875,1.0068359375
1283,0.142578125,0.1220703125,1.0
1284,0.14453125,0.1240234375,1.001953125
1285,0.1484375,0.1181640625,1.0078125
1286,0.14453125,0.1240234375,0.9970703125
1287,0.1455078125,0.119140625,1.0
1288,0.1455078125,0.1162109375,0.998046875
1289,0.146484375,0.1171875,0.9970703125
1290,0.1474609375,0.1181640625,0.9931640625
1291,0.150390625,0.12109375,0.9892578125
1292,0.150390625,0.1240234375,0.98828125
1293,0.1484375,0.1259765625,0.986328125
1294,0.15234375,0.125,0.9873046875
1295,0.1533203125,0.12890625,0.9833984375
1296,0.1533203125,0.1357421875,0.9814453125
1297,0.1484375,0.134765625,0.9814453125
1298,0.1513671875,0.1396484375,0.984375
1299,0.15234375,0.1416015625,0.982421875
1300,0.1484375,0.142578125,0.984375
1301,0.1591796875,0.1435546875,0.978515625
1302,0.154296875,0.14453125,0.9814453125
1303,0.1552734375,0.1455078125,0.974609375
1304,0.1533203125,0.1494140625,0.9755859375
1305,0.150390625,0.15234375,0.9716796875
1306,0.1533203125,0.1533203125,0.9736328125
1307,0.1513671875,0.1533203125,0.978515625
1308,0.1572265625,0.1591796875,0.9794921875
1309,0.1474609375,0.162109375,0.984375
1310,0.1494140625,0.162109375,0.9794921875
1311,0.1474609375,0.173828125,0.984375
1312,0.1474609375,0.171875,0.986328125
1313,0.146484375,0.17578125,0.98046875
1314,0.1474609375,0.1826171875,0.984375
1315,0.1455078125,0.1845703125,0.9833984375
1316,0.140625,0.18359375,0.984375
1317,0.142578125,0.189453125,0.984375
1318,0.138671875,0.19140625,0.9833984375
1319,0.13671875,0.2001953125,0.9853515625
1320,0.1396484375,0.197265625,0.982421875
1321,0.13671875,0.19921875,0.9853515625
1322,0.134765625,0.2001953125,0.98828125
1323,0.1357421875,0.1953125,0.986328125
1324,0.1328125,0.197265625,0.9853515625
1325,0.1328125,0.201171875,0.986328125
1326,0.13671875,0.201171875,0.9833984375
1327,0.1396484375,0.201171875,0.990234375
1328,0.13671875,0.2041015625,0.982421875
1329,0.142578125,0.2080078125,0.984375
1330,0.1455078125,0.208984375,0.982421875
1331,0.1396484375,0.2158203125,0.978515625
1332,0.1416015625,0.21875,0.9716796875
1333,0.14453125,0.21484375,0.9794921875
1334,0.1396484375,0.2119140625,0.9833984375
1335,0.13671875,0.2236328125,0.9833984375
1336,0.134765625,0.2177734375,0.98046875
1337,0.1416015625,0.21484375,0.9833984375
1338,0.1337890625,0.220703125,0.9853515625
1339,0.134765625,0.216796875,0.9873046875
1340,0.13671875,0.216796875,0.9833984375
1341,0.1416015625,0.2099609375,0.984375
1342,0.13671875,0.21484375,0.982421875
1343,0.13671875,0.20703125,0.9833984375
1344,0.1376953125,0.203125,0.984375
1345,0.1396484375,0.1953125,0.9892578125
1346,0.134765625,0.2001953125,0.9814453125
1347,0.13671875,0.19921875,0.984375
1348,0.13671875,0.189453125,0.9833984375
1349,0.13671875,0.1806640625,0.978515625
1350,0.140625,0.1796875,0.9755859375
1351,0.1435546875,0.1767578125,0.978515625
1352,0.142578125,0.17578125,0.978515625
1353,0.13671875,0.1767578125,0.9833984375
1354,0.1357421875,0.17578125,0.9775390625
1355,0.138671875,0.1767578125,0.9794921875
1356,0.1376953125,0.1728515625,0.9833984375
1357,0.138671875,0.17578125,0.9873046875
1358,0.1357421875,0.171875,0.986328125
1359,0.140625,0.1708984375,0.986328125
1360,0.146484375,0.171875,0.9912109375
1361,0.1376953125,0.166015625,0.990234375
1362,0.140625,0.1640625,0.9931640625
1363,0.1396484375,0.1640625,0.9951171875
1364,0.1455078125,0.1591796875,0.9921875
1365,0.1376953125,0.1572265625,0.994140625
1366,0.1455078125,0.15625,0.9873046875
1367,0.1416015625,0.15625,0.986328125
1368,0.1435546875,0.158203125,0.984375
1369,0.14453125,0.15625,0.9853515625
1370,0.1474609375,0.1630859375,0.9853515625
1371,0.146484375,0.162109375,0.9892578125
1372,0.1435546875,0.1611328125,0.9921875
1373,0.1455078125,0.1611328125,0.986328125
1374,0.1435546875,0.16796875,0.984375
1375,0.146484375,0.1689453125,0.982421875
1376,0.1396484375,0.1748046875,0.982421875
1377,0.1435546875,0.1708984375,0.9814453125
1378,0.1474609375,0.1767578125,0.9794921875
1379,0.1396484375,0.177734375,0.9814453125
1380,0.142578125,0.1748046875,0.9853515625
1381,0.140625,0.1767578125,0.98828125
1382,0.1455078125,0.181640625,0.986328125
1383,0.140625,0.1767578125,0.9833984375
1384,0.146484375,0.1728515625,0.9921875
1385,0.1435546875,0.1787109375,0.9892578125
1386,0.14453125,0.1796875,0.98828125
1387,0.146484375,0.1787109375,0.9931640625
1388,0.1435546875,0.1826171875,0.9931640625
1389,0.1396484375,0.18359375,0.98828125
1390,0.1474609375,0.1875,0.9921875
1391,0.1484375,0.1865234375,0.9873046875
1392,0.1474609375,0.1884765625,0.9912109375
1393,0.14453125,0.19140625,0.9853515625
1394,0.1416015625,0.1904296875,0.98828125
1395,0.1474609375,0.1875,0.98828125
1396,0.1416015625,0.19140625,0.9853515625
1397,0.1435546875,0.1904296875,0.9873046875
1398,0.1416015625,0.1943359375,0.98828125
1399,0.142578125,0.1962890625,0.9853515625
1400,0.1396484375,0.2001953125,0.9853515625
1401,0.140625,0.1962890625,0.984375
1402,0.1376953125,0.1953125,0.986328125
1403,0.138671875,0.1982421875,0.984375
1404,0.1376953125,0.2001953125,0.982421875
1405,0.1416015625,0.1943359375,0.9833984375
1406,0.142578125,0.1962890625,0.9833984375
1407,0.1416015625,0.19921875,0.986328125
1408,0.142578125,0.193359375,0.9873046875
1409,0.1376953125,0.193359375,0.986328125
1410,0.1357421875,0.1923828125,0.990234375
1411,0.1455078125,0.1875,0.990234375
1412,0.134765625,0.1865234375,0.9873046875
1413,0.140625,0.1845703125,0.9873046875
1414,0.1396484375,0.185546875,0.990234375
1415,0.1376953125,0.1875,0.9853515625
1416,0.138671875,0.1806640625,0.986328125
1417,0.13671875,0.18359375,0.9892578125
1418,0.1455078125,0.18359375,0.9931640625
1419,0.1396484375,0.181640625,0.98828125
1420,0.1513671875,0.1806640625,0.984375
1421,0.1416015625,0.1845703125,0.9853515625
1422,0.1435546875,0.1865234375,0.9873046875
1423,0.1416015625,0.1875,0.9814453125
1424,0.140625,0.1787109375,0.9892578125
1425,0.1376953125,0.18359375,0.984375
1426,0.1435546875,0.185546875,0.9873046875
1427,0.142578125,0.1796875,0.98046875
1428,0.14453125,0.1748046875,0.984375
1429,0.142578125,0.177734375,0.9912109375
1430,0.138671875,0.17578125,0.984375
1431,0.1416015625,0.1767578125,0.98828125
1432,0.1474609375,0.1767578125,0.982421875
1433,0.1474609375,0.1748046875,0.9794921875
1434,0.1494140625,0.1748046875,0.98828125
1435,0.1484375,0.177734375,0.982421875
1436,0.1484375,0.1787109375,0.982421875
1437,0.146484375,0.1748046875,0.986328125
1438,0.1455078125,0.17578125,0.98828125
1439,0.1474609375,0.1796875,0.9853515625
1440,0.1474609375,0.1796875,0.9814453125
1441,0.1494140625,0.177734375,0.9814453125
1442,0.1474609375,0.1806640625,0.9873046875
1443,0.150390625,0.1787109375,0.984375
1444,0.146484375,0.1787109375,0.9814453125
1445,0.1435546875,0.1796875,0.9814453125
1446,0.1474609375,0.18359375,0.9853515625
1447,0.1455078125,0.1806640625,0.9873046875
1448,0.1474609375,0.1826171875,0.98828125
1449,0.1416015625,0.1845703125,0.98828125
1450,0.142578125,0.1806640625,0.986328125
1451,0.146484375,0.1845703125,0.984375
1452,0.1435546875,0.1806640625,0.9873046875
1453,0.14453125,0.1806640625,0.984375
1454,0.146484375,0.177734375,0.9892578125
1455,0.1435546875,0.177734375,0.98046875
1456,0.142578125,0.181640625,0.9814453125
1457,0.1484375,0.177734375,0.9716796875
1458,0.146484375,0.17578125,0.978515625
1459,0.1455078125,0.1796875,0.9775390625
1460,0.142578125,0.18359375,0.9833984375
1461,0.1455078125,0.1826171875,0.9755859375
1462,0.1435546875,0.1796875,0.984375
1463,0.140625,0.1787109375,0.9873046875
1464,0.14453125,0.181640625,0.986328125
1465,0.142578125,0.177734375,0.9951171875
1466,0.138671875,0.1806640625,0.9921875
1467,0.142578125,0.1767578125,0.998046875
1468,0.1416015625,0.1748046875,0.9990234375
1469,0.1416015625,0.1767578125,0.994140625
1470,0.103515625,0.1806640625,0.9892578125
1471,0.1484375,0.1796875,0.990234375
1472,0.1474609375,0.1875,0.9853515625
1473,0.1484375,0.185546875,0.984375
1474,0.14453125,0.1904296875,0.982421875
1475,0.146484375,0.1884765625,0.984375
1476,0.1494140625,0.1865234375,0.984375
1477,0.14453125,0.185546875,0.9833984375
1478,0.142578125,0.1884765625,0.98046875
1479,0.1455078125,0.18359375,0.984375
1480,0.142578125,0.1875,0.98828125
1481,0.138671875,0.1875,0.9833984375
1482,0.1357421875,0.185546875,0.9794921875
1483,0.1396484375,0.1875,0.9853515625
1484,0.1484375,0.1806640625,0.9775390625
1485,0.1416015625,0.1806640625,0.9833984375
1486,0.1416015625,0.185546875,0.986328125
1487,0.1435546875,0.185546875,0.9873046875
1488,0.142578125,0.1845703125,0.9912109375
1489,0.142578125,0.185546875,0.9892578125
1490,0.14453125,0.18359375,0.986328125
1491,0.142578125,0.1845703125,0.98828125
1492,0.1396484375,0.1787109375,0.9912109375
1493,0.13671875,0.1875,0.990234375
1494,0.1396484375,0.1875,0.9892578125
1495,0.142578125,0.1806640625,0.9921875
1496,0.1416015625,0.189453125,0.9873046875
1497,0.142578125,0.1923828125,0.990234375
1498,0.1416015625,0.18359375,0.986328125
1499,0.146484375,0.185546875,0.9892578125
1500,0.1435546875,0.1845703125,0.990234375
1501,0.146484375,0.1806640625,0.9912109375
1502,0.1455078125,0.177734375,0.9873046875
1503,0.1474609375,0.1826171875,0.9892578125
1504,0.1474609375,0.1806640625,0.9892578125
1505,0.14453125,0.1806640625,0.9853515625
1506,0.1435546875,0.1796875,0.978515625
1507,0.140625,0.181640625,0.98046875
1508,0.14453125,0.1806640625,0.9814453125
1509,0.142578125,0.1845703125,0.9814453125
1510,0.142578125,0.1826171875,0.982421875
1511,0.1455078125,0.185546875,0.9814453125
1512,0.1435546875,0.181640625,0.982421875
1513,0.1474609375,0.1787109375,0.984375
1514,0.1435546875,0.185546875,0.9873046875
1515,0.142578125,0.1796875,0.986328125
1516,0.140625,0.18359375,0.9892578125
1517,0.1435546875,0.17578125,0.9892578125
1518,0.13671875,0.17578125,0.98828125
1519,0.1474609375,0.1787109375,0.9873046875
1520,0.14453125,0.1728515625,0.990234375
1521,0.1455078125,0.173828125,0.9892578125
1522,0.1396484375,0.17578125,0.9921875
1523,0.13671875,0.171875,0.9931640625
1524,0.1357421875,0.17578125,0.9951171875
1525,0.146484375,0.1728515625,0.9921875
1526,0.1435546875,0.1748046875,0.9931640625
1527,0.1357421875,0.1767578125,0.99609375
1528,0.13671875,0.181640625,1.0009765625
1529,0.1357421875,0.1767578125,0.994140625
1530,0.1337890625,0.1787109375,0.994140625
1531,0.140625,0.17578125,0.9892578125
1532,0.1337890625,0.1787109375,0.9853515625
1533,0.13671875,0.1748046875,0.982421875
1534,0.130859375,0.17578125,0.9833984375
1535,0.13671875,0.1767578125,0.98046875
1536,0.134765625,0.173828125,0.978515625
1537,0.13671875,0.1708984375,0.978515625
1538,0.140625,0.1728515625,0.97265625
1539,0.1396484375,0.1708984375,0.9736328125
1540,0.1376953125,0.17578125,0.9716796875
1541,0.142578125,0.17578125,0.9765625
1542,0.1484375,0.1796875,0.982421875
1543,0.138671875,0.177734375,0.9765625
1544,0.1416015625,0.1787109375,0.98046875
1545,0.138671875,0.177734375,0.9794921875
1546,0.1376953125,0.1767578125,0.9775390625
1547,0.1376953125,0.1845703125,0.98828125
1548,0.1416015625,0.1845703125,0.9873046875
1549,0.138671875,0.1787109375,0.9912109375
1550,0.1435546875,0.189453125,0.990234375
1551,0.14453125,0.19140625,0.9970703125
1552,0.1435546875,0.1904296875,0.994140625
1553,0.14453125,0.1845703125,0.9931640625
1554,0.1376953125,0.1826171875,0.994140625
1555,0.140625,0.177734375,0.994140625
1556,0.146484375,0.18359375,0.9912109375
1557,0.1455078125,0.17578125,0.9853515625
1558,0.14453125,0.1748046875,0.9853515625
1559,0.146484375,0.1787109375,0.98828125
1560,0.140625,0.1796875,0.9814453125
1561,0.1376953125,0.1767578125,0.986328125
1562,0.1416015625,0.17578125,0.9775390625
1563,0.1396484375,0.1767578125,0.9794921875
1564,0.13671875,0.1787109375,0.9794921875
1565,0.1396484375,0.1796875,0.9794921875
1566,0.140625,0.1806640625,0.9814453125
1567,0.1396484375,0.1796875,0.9833984375
1568,0.1396484375,0.1806640625,0.9833984375
1569,0.1357421875,0.1826171875,0.984375
1570,0.134765625,0.1787109375,0.9833984375
1571,0.1357421875,0.1787109375,0.984375
1572,0.146484375,0.1708984375,0.9775390625
1573,0.140625,0.1796875,0.9755859375
1574,0.1484375,0.1796875,0.9853515625
1575,0.150390625,0.177734375,0.98828125
1576,0.1513671875,0.1728515625,0.98828125
1577,0.1474609375,0.1728515625,0.98828125
1578,0.158203125,0.16796875,0.978515625
1579,0.130859375,0.16796875,0.9931640625
1580,0.1328125,0.166015625,0.99609375
1581,0.1318359375,0.1669921875,0.9921875
1582,0.130859375,0.16796875,0.9931640625
1583,0.1328125,0.1826171875,0.990234375
1584,0.13671875,0.177734375,0.9892578125
1585,0.1376953125,0.181640625,0.9912109375
1586,0.1357421875,0.181640625,0.9912109375
1587,0.1396484375,0.1796875,0.9931640625
1588,0.14453125,0.18359375,0.9912109375
1589,0.138671875,0.1845703125,0.9912109375
1590,0.1416015625,0.177734375,0.98828125
1591,0.142578125,0.1767578125,0.98828125
1592,0.1396484375,0.181640625,0.9873046875
1593,0.142578125,0.1748046875,0.9814453125
1594,0.1435546875,0.177734375,0.982421875
1595,0.140625,0.177734375,0.98046875
1596,0.146484375,0.1787109375,0.984375
1597,0.1416015625,0.171875,0.970703125
1598,0.1357421875,0.1767578125,0.9833984375
1599,0.1337890625,0.17578125,0.9765625
1600,0.142578125,0.1767578125,0.984375
1601,0.1494140625,0.17578125,0.9833984375
1602,0.1494140625,0.1767578125,0.9892578125
1603,0.1455078125,0.1826171875,0.9892578125
1604,0.14453125,0.1845703125,0.9853515625
1605,0.142578125,0.177734375,0.9931640625
1606,0.14453125,0.173828125,0.9912109375
1607,0.138671875,0.181640625,0.986328125
1608,0.1455078125,0.1806640625,0.9873046875
1609,0.146484375,0.1796875,0.986328125
1610,0.1474609375,0.177734375,0.9892578125
1611,0.1435546875,0.1806640625,0.9853515625
1612,0.142578125,0.1796875,0.9853515625
1613,0.138671875,0.177734375,0.98828125
1614,0.142578125,0.1796875,0.98828125
1615,0.13671875,0.177734375,0.9892578125
1616,0.134765625,0.1767578125,0.98828125
1617,0.140625,0.177734375,0.9873046875
1618,0.1416015625,0.17578125,0.9912109375
1619,0.1337890625,0.177734375,0.9873046875
1620,0.134765625,0.1806640625,0.98828125
1621,0.1376953125,0.1796875,0.9853515625
1622,0.1337890625,0.1796875,0.9912109375
1623,0.1357421875,0.181640625,0.986328125
1624,0.138671875,0.1767578125,0.98828125
1625,0.142578125,0.181640625,0.990234375
1626,0.1455078125,0.177734375,0.990234375
1627,0.138671875,0.1748046875,0.986328125
1628,0.13671875,0.1767578125,0.9892578125
1629,0.1376953125,0.1748046875,0.9892578125
1630,0.1357421875,0.1708984375,0.9892578125
1631,0.13671875,0.1689453125,0.98828125
1632,0.140625,0.173828125,0.9833984375
1633,0.1337890625,0.16796875,0.9892578125
1634,0.138671875,0.1689453125,0.98828125
1635,0.1376953125,0.1650390625,0.9921875
1636,0.1376953125,0.1630859375,0.9931640625
1637,0.138671875,0.1650390625,0.9990234375
1638,0.142578125,0.16796875,0.990234375
1639,0.1357421875,0.171875,0.98828125
1640,0.1328125,0.171875,0.9912109375
1641,0.1376953125,0.1728515625,0.986328125
1642,0.140625,0.17578125,0.9814453125
1643,0.138671875,0.1708984375,0.9833984375
1644,0.1376953125,0.1748046875,0.9775390625
1645,0.1376953125,0.1728515625,0.9736328125
1646,0.1396484375,0.1728515625,0.9814453125
1647,0.140625,0.171875,0.9716796875
1648,0.1416015625,0.1748046875,0.970703125
1649,0.138671875,0.17578125,0.9794921875
1650,0.1376953125,0.1767578125,0.97265625
1651,0.134765625,0.177734375,0.9794921875
1652,0.1298828125,0.181640625,0.98046875
1653,0.1328125,0.185546875,0.978515625
1654,0.1484375,0.1875,0.9951171875
1655,0.14453125,0.185546875,0.9931640625
1656,0.1455078125,0.1923828125,0.9931640625
1657,0.142578125,0.193359375,0.99609375
1658,0.1455078125,0.1953125,1.0009765625
1659,0.134765625,0.189453125,0.9990234375
1660,0.13671875,0.1875,1.0
1661,0.1376953125,0.189453125,0.9951171875
1662,0.134765625,0.1826171875,0.994140625
1663,0.1337890625,0.177734375,0.994140625
1664,0.140625,0.17578125,0.9912109375
1665,0.1416015625,0.1748046875,0.9921875
1666,0.138671875,0.1708984375,0.990234375
1667,0.1376953125,0.1708984375,0.990234375
1668,0.1455078125,0.1748046875,0.9814453125
1669,0.1376953125,0.177734375,0.9853515625
1670,0.1416015625,0.173828125,0.982421875
1671,0.138671875,0.1767578125,0.9814453125
1672,0.142578125,0.177734375,0.9794921875
1673,0.142578125,0.177734375,0.98046875
1674,0.1416015625,0.1787109375,0.9833984375
1675,0.1376953125,0.1796875,0.984375
1676,0.1455078125,0.1806640625,0.98828125
1677,0.1455078125,0.181640625,0.98828125
1678,0.14453125,0.1806640625,0.986328125
1679,0.1396484375,0.181640625,0.9892578125
1680,0.14453125,0.177734375,0.9921875
1681,0.140625,0.181640625,0.9951171875
1682,0.138671875,0.1796875,0.9921875
1683,0.1455078125,0.1787109375,0.9951171875
1684,0.138671875,0.1787109375,0.994140625
1685,0.1396484375,0.1748046875,0.9931640625
1686,0.142578125,0.1767578125,0.99609375
1687,0.140625,0.177734375,0.9873046875
1688,0.14453125,0.1748046875,0.990234375
1689,0.142578125,0.1748046875,0.9912109375
1690,0.1416015625,0.1767578125,0.9912109375
1691,0.1455078125,0.1748046875,0.990234375
1692,0.140625,0.169921875,0.9873046875
1693,0.142578125,0.169921875,0.982421875
1694,0.138671875,0.16796875,0.982421875
1695,0.1396484375,0.1708984375,0.9814453125
1696,0.14453125,0.1669921875,0.98046875
1697,0.1416015625,0.1640625,0.974609375
1698,0.13671875,0.162109375,0.9697265625
1699,0.1337890625,0.166015625,0.9814453125
1700,0.13671875,0.1689453125,0.98046875
1701,0.1337890625,0.1669921875,0.9775390625
1702,0.1337890625,0.1640625,0.982421875
1703,0.1376953125,0.1611328125,0.9833984375
1704,0.1396484375,0.1640625,0.9814453125
1705,0.12109375,0.16796875,0.982421875
1706,0.1396484375,0.15625,0.974609375
1707,0.1533203125,0.1650390625,0.9921875
1708,0.1533203125,0.1689453125,0.9970703125
1709,0.150390625,0.1728515625,1.0
1710,0.150390625,0.1669921875,1.001953125
1711,0.1484375,0.1669921875,0.99609375
1712,0.150390625,0.16796875,0.9931640625
1713,0.1533203125,0.16796875,0.9892578125
1714,0.1494140625,0.169921875,0.9873046875
1715,0.1474609375,0.17578125,0.982421875
1716,0.15234375,0.177734375,0.9755859375
1717,0.1455078125,0.181640625,0.9736328125
1718,0.1455078125,0.1806640625,0.97265625
1719,0.1455078125,0.1787109375,0.9716796875
1720,0.1416015625,0.185546875,0.984375
1721,0.1396484375,0.1826171875,0.982421875
1722,0.140625,0.1884765625,0.9814453125
1723,0.1376953125,0.1875,0.98046875
1724,0.138671875,0.189453125,0.9853515625
1725,0.1435546875,0.1904296875,0.9833984375
1726,0.138671875,0.1904296875,0.9853515625
1727,0.146484375,0.1923828125,0.98828125
1728,0.1416015625,0.185546875,0.986328125
1729,0.1337890625,0.1875,0.9892578125
1730,0.1318359375,0.1845703125,0.990234375
1731,0.1318359375,0.1865234375,0.9931640625
1732,0.1318359375,0.189453125,0.9921875
1733,0.1328125,0.185546875,0.994140625
1734,0.12890625,0.1875,0.9921875
1735,0.130859375,0.185546875,0.9833984375
1736,0.125,0.1865234375,0.98828125
1737,0.126953125,0.1875,0.9873046875
1738,0.119140625,0.1875,0.986328125
1739,0.125,0.1865234375,0.986328125
1740,0.1171875,0.1787109375,0.9873046875
1741,0.1142578125,0.173828125,0.9794921875
1742,0.134765625,0.185546875,0.982421875
1743,0.130859375,0.1806640625,0.982421875
1744,0.1416015625,0.1796875,0.9853515625
1745,0.1416015625,0.1806640625,0.98828125
1746,0.1396484375,0.181640625,0.9873046875
1747,0.150390625,0.1845703125,0.98828125
1748,0.1328125,0.177734375,0.9765625
1749,0.1455078125,0.1767578125,0.9853515625
1750,0.142578125,0.1787109375,0.9853515625
1751,0.138671875,0.1767578125,0.9912109375
1752,0.1357421875,0.17578125,0.98828125
1753,0.1328125,0.173828125,0.98828125
1754,0.1318359375,0.1728515625,0.9892578125
1755,0.13671875,0.173828125,0.9892578125
1756,0.1337890625,0.177734375,0.9892578125
1757,0.1337890625,0.177734375,0.986328125
1758,0.1416015625,0.1767578125,0.9873046875
1759,0.142578125,0.1767578125,0.9931640625
1760,0.138671875,0.173828125,0.9833984375
1761,0.1435546875,0.1767578125,0.984375
1762,0.1396484375,0.173828125,0.986328125
1763,0.146484375,0.169921875,0.9921875
1764,0.13671875,0.169921875,0.9892578125
1765,0.140625,0.1669921875,0.98828125
1766,0.1416015625,0.166015625,0.9912109375
1767,0.1376953125,0.1650390625,0.98828125
1768,0.1337890625,0.1650390625,0.9912109375
1769,0.1259765625,0.1689453125,0.9951171875
1770,0.1259765625,0.1630859375,0.994140625
1771,0.123046875,0.16796875,0.9931640625
1772,0.1220703125,0.169921875,0.9912109375
1773,0.12109375,0.166015625,0.9921875
1774,0.1220703125,0.1689453125,0.9931640625
1775,0.12109375,0.171875,0.9912109375
1776,0.12109375,0.1689453125,0.98828125
1777,0.1220703125,0.1689453125,0.990234375
1778,0.12109375,0.1689453125,0.9873046875
1779,0.109375,0.1708984375,0.9873046875
1780,0.126953125,0.173828125,0.9912109375
1781,0.12890625,0.1787109375,0.9853515625
1782,0.1259765625,0.17578125,0.9931640625
1783,0.1298828125,0.1806640625,0.9912109375
1784,0.1318359375,0.1806640625,0.9931640625
1785,0.1318359375,0.1826171875,0.9873046875
1786,0.130859375,0.1767578125,0.990234375
1787,0.1328125,0.177734375,0.9912109375
1788,0.1318359375,0.17578125,0.978515625
1789,0.1298828125,0.1787109375,0.9892578125
1790,0.12890625,0.1767578125,0.994140625
1791,0.1318359375,0.177734375,0.990234375
1792,0.1279296875,0.181640625,0.990234375
1793,0.130859375,0.1787109375,0.9931640625
1794,0.1318359375,0.177734375,0.994140625
1795,0.1318359375,0.1806640625,0.9892578125
1796,0.130859375,0.1796875,0.994140625
1797,0.126953125,0.18359375,0.9921875
1798,0.1318359375,0.1787109375,0.9921875
1799,0.1318359375,0.1826171875,0.9921875
1800,0.1298828125,0.1767578125,0.9931640625
1801,0.1279296875,0.1796875,0.994140625
1802,0.1279296875,0.1767578125,0.9990234375
1803,0.1328125,0.1796875,0.9921875
1804,0.1220703125,0.1845703125,0.99609375
1805,0.1240234375,0.1767578125,0.9912109375
1806,0.1259765625,0.177734375,0.994140625
1807,0.1240234375,0.17578125,0.99609375
1808,0.1279296875,0.17578125,0.9931640625
1809,0.123046875,0.1767578125,0.990234375
1810,0.1220703125,0.173828125,0.9931640625
1811,0.1279296875,0.1767578125,0.9921875
1812,0.125,0.17578125,0.9912109375
1813,0.12890625,0.173828125,0.9951171875
1814,0.1279296875,0.173828125,0.9912109375
1815,0.125,0.17578125,0.994140625
1816,0.1318359375,0.177734375,0.9921875
1817,0.1337890625,0.1767578125,0.9912109375
1818,0.1298828125,0.1728515625,0.9931640625
1819,0.130859375,0.171875,0.9833984375
1820,0.1328125,0.1728515625,0.9814453125
1821,0.130859375,0.1669921875,0.984375
1822,0.130859375,0.1669921875,0.98046875
1823,0.1318359375,0.166015625,0.9775390625
1824,0.134765625,0.16796875,0.9755859375
1825,0.1337890625,0.166015625,0.9775390625
1826,0.12890625,0.1689453125,0.9833984375
1827,0.1259765625,0.1708984375,0.98828125
1828,0.1201171875,0.17578125,0.9921875
1829,0.1181640625,0.1748046875,0.9892578125
1830,0.1123046875,0.1767578125,0.9951171875
1831,0.1201171875,0.1796875,0.998046875
1832,0.1181640625,0.17578125,0.99609375
1833,0.1171875,0.1767578125,0.9990234375
1834,0.11328125,0.1806640625,1.0029296875
1835,0.123046875,0.1787109375,0.9951171875
1836,0.119140625,0.177734375,1.0029296875
1837,0.1171875,0.1787109375,0.9970703125
1838,0.1181640625,0.171875,0.994140625
1839,0.125,0.1728515625,0.99609375
1840,0.126953125,0.171875,0.990234375
1841,0.1259765625,0.16796875,0.9892578125
1842,0.1318359375,0.16796875,0.9892578125
1843,0.13671875,0.16796875,0.98828125
1844,0.13671875,0.1630859375,0.984375
1845,0.138671875,0.1630859375,0.9873046875
1846,0.140625,0.16796875,0.9853515625
1847,0.1376953125,0.169921875,0.9853515625
1848,0.138671875,0.166015625,0.9873046875
1849,0.1484375,0.171875,0.990234375
1850,0.1494140625,0.169921875,0.9853515625
1851,0.150390625,0.1728515625,0.994140625
1852,0.1494140625,0.1669921875,0.990234375
1853,0.15234375,0.1630859375,0.9892578125
1854,0.1552734375,0.158203125,0.994140625
1855,0.15625,0.1572265625,0.998046875
1856,0.1591796875,0.16015625,0.99609375
1857,0.15625,0.1572265625,0.9970703125
1858,0.15625,0.158203125,0.9921875
1859,0.154296875,0.1591796875,0.9931640625
1860,0.15234375,0.16015625,0.986328125
1861,0.15625,0.1640625,0.9873046875
1862,0.150390625,0.16796875,0.98046875
1863,0.1513671875,0.169921875,0.9873046875
1864,0.1513671875,0.1767578125,0.9873046875
1865,0.15234375,0.1748046875,0.9853515625
1866,0.158203125,0.1748046875,0.990234375
1867,0.1552734375,0.1767578125,0.9873046875
1868,0.154296875,0.1728515625,0.990234375
1869,0.154296875,0.173828125,0.984375
1870,0.1552734375,0.1728515625,0.984375
1871,0.15625,0.173828125,0.9833984375
1872,0.15625,0.173828125,0.9814453125
1873,0.15234375,0.17578125,0.9833984375
1874,0.1552734375,0.171875,0.9892578125
1875,0.1533203125,0.17578125,0.982421875
1876,0.158203125,0.173828125,0.9833984375
1877,0.1552734375,0.1728515625,0.982421875
1878,0.1513671875,0.173828125,0.978515625
1879,0.1552734375,0.1640625,0.982421875
1880,0.16015625,0.1689453125,0.9833984375
1881,0.15625,0.1708984375,0.9853515625
1882,0.1611328125,0.1708984375,0.984375
1883,0.15625,0.169921875,0.984375
1884,0.1630859375,0.169921875,0.98828125
1885,0.1611328125,0.1708984375,0.9853515625
1886,0.1591796875,0.1689453125,0.98828125
1887,0.1572265625,0.166015625,0.9873046875
1888,0.1611328125,0.166015625,0.9912109375
1889,0.1552734375,0.1669921875,0.9912109375
1890,0.1572265625,0.1630859375,0.9892578125
1891,0.1572265625,0.1689453125,0.9853515625
1892,0.1640625,0.162109375,0.9921875
1893,0.154296875,0.16015625,0.9892578125
1894,0.15234375,0.1611328125,0.9931640625
1895,0.15625,0.162109375,0.9921875
1896,0.15625,0.1572265625,0.98828125
1897,0.154296875,0.1650390625,0.9873046875
1898,0.150390625,0.1640625,0.9833984375
1899,0.14453125,0.1611328125,0.9814453125
1900,0.1474609375,0.158203125,0.984375
1901,0.1513671875,0.1572265625,0.9912109375
1902,0.1484375,0.1572265625,0.9853515625
1903,0.150390625,0.1611328125,0.9873046875
1904,0.1484375,0.16015625,0.9833984375
1905,0.1455078125,0.1591796875,0.9853515625
1906,0.1484375,0.154296875,0.984375
1907,0.1435546875,0.1591796875,0.9912109375
1908,0.14453125,0.1533203125,0.986328125
1909,0.1474609375,0.154296875,0.986328125
1910,0.146484375,0.1572265625,0.9814453125
1911,0.1455078125,0.15234375,0.982421875
1912,0.14453125,0.154296875,0.990234375
1913,0.1455078125,0.154296875,0.990234375
1914,0.1474609375,0.1572265625,0.9921875
1915,0.140625,0.1572265625,0.98828125
1916,0.1455078125,0.15625,0.986328125
1917,0.138671875,0.15625,0.9892578125
1918,0.1484375,0.15234375,0.9912109375
1919,0.1494140625,0.1611328125,0.9912109375
1920,0.1474609375,0.158203125,0.9873046875
1921,0.150390625,0.1591796875,0.9873046875
1922,0.1494140625,0.158203125,0.990234375
1923,0.15234375,0.162109375,0.990234375
1924,0.1484375,0.162109375,0.990234375
1925,0.1533203125,0.158203125,0.9892578125
1926,0.1484375,0.1572265625,0.9892578125
1927,0.154296875,0.16015625,0.984375
1928,0.1484375,0.1650390625,0.9853515625
1929,0.1513671875,0.158203125,0.986328125
1930,0.1484375,0.1611328125,0.986328125
1931,0.150390625,0.16015625,0.9814453125
1932,0.150390625,0.1630859375,0.982421875
1933,0.1513671875,0.1650390625,0.986328125
1934,0.150390625,0.16796875,0.984375
1935,0.1474609375,0.1650390625,0.986328125
1936,0.15234375,0.166015625,0.9853515625
1937,0.146484375,0.1650390625,0.9853515625
1938,0.15234375,0.1689453125,0.986328125
1939,0.15234375,0.16796875,0.986328125
1940,0.154296875,0.169921875,0.984375
1941,0.154296875,0.1669921875,0.9892578125
1942,0.15625,0.169921875,0.986328125
1943,0.1552734375,0.1669921875,0.98828125
1944,0.1611328125,0.1708984375,0.98828125
1945,0.16015625,0.166015625,0.9833984375
1946,0.1630859375,0.1640625,0.9853515625
1947,0.1591796875,0.1640625,0.98828125
1948,0.1611328125,0.1650390625,0.9814453125
1949,0.15625,0.1640625,0.9853515625
1950,0.166015625,0.1611328125,0.984375
1951,0.1640625,0.1640625,0.9814453125
1952,0.16015625,0.1640625,0.9755859375
1953,0.154296875,0.162109375,0.9833984375
1954,0.1591796875,0.1650390625,0.98046875
1955,0.1572265625,0.1630859375,0.974609375
1956,0.1572265625,0.1630859375,0.97265625
1957,0.1630859375,0.162109375,0.974609375
1958,0.1611328125,0.1630859375,0.9794921875
1959,0.1591796875,0.162109375,0.97265625
1960,0.16015625,0.1611328125,0.9755859375
1961,0.1572265625,0.162109375,0.98046875
1962,0.16015625,0.1640625,0.9833984375
1963,0.1572265625,0.162109375,0.98046875
1964,0.1533203125,0.16015625,0.98046875
1965,0.158203125,0.1640625,0.9853515625
1966,0.154296875,0.1611328125,0.9873046875
1967,0.15625,0.162109375,0.98828125
1968,0.1552734375,0.162109375,0.986328125
1969,0.1591796875,0.162109375,0.9892578125
1970,0.1572265625,0.1640625,0.9921875
1971,0.15625,0.1630859375,0.9912109375
1972,0.158203125,0.1611328125,0.9931640625
1973,0.154296875,0.1591796875,0.9921875
1974,0.1572265625,0.1591796875,0.990234375
1975,0.1552734375,0.162109375,0.9892578125
1976,0.1513671875,0.1591796875,0.9931640625
1977,0.1533203125,0.1591796875,0.9892578125
1978,0.15625,0.158203125,0.990234375
1979,0.150390625,0.1572265625,0.98828125
1980,0.1484375,0.1591796875,0.986328125
1981,0.1494140625,0.1533203125,0.986328125
1982,0.14453125,0.1513671875,0.9873046875
1983,0.150390625,0.1552734375,0.9873046875
1984,0.1484375,0.158203125,0.9873046875
1985,0.1474609375,0.1572265625,0.9873046875
1986,0.146484375,0.166015625,0.982421875
1987,0.1484375,0.1650390625,0.9853515625
1988,0.1435546875,0.169921875,0.982421875
1989,0.1494140625,0.1591796875,0.9814453125
1990,0.1455078125,0.1708984375,0.98046875
1991,0.1474609375,0.1650390625,0.984375
1992,0.1474609375,0.1708984375,0.9853515625
1993,0.1484375,0.169921875,0.9833984375
1994,0.1474609375,0.171875,0.9814453125
1995,0.14453125,0.171875,0.9853515625
1996,0.14453125,0.1748046875,0.9853515625
1997,0.14453125,0.169921875,0.9853515625
1998,0.142578125,0.173828125,0.986328125
1999,0.1435546875,0.171875,0.986328125
2000,0.1455078125,0.1689453125,0.986328125
2001,0.1494140625,0.1630859375,0.990234375
2002,0.146484375,0.16796875,0.9892578125
2003,0.1435546875,0.1591796875,0.990234375
2004,0.1474609375,0.1640625,0.990234375
2005,0.140625,0.16015625,0.9873046875
2006,0.1435546875,0.1650390625,0.990234375
2007,0.146484375,0.1650390625,0.9853515625
2008,0.1513671875,0.1689453125,0.98046875
2009,0.1474609375,0.1728515625,0.9814453125
2010,0.1572265625,0.173828125,0.986328125
2011,0.1494140625,0.1796875,0.978515625
2012,0.154296875,0.1787109375,0.9755859375
2013,0.15234375,0.181640625,0.98046875
2014,0.1513671875,0.1826171875,0.98046875
2015,0.154296875,0.185546875,0.9833984375
2016,0.1513671875,0.18359375,0.9833984375
2017,0.15234375,0.1787109375,0.9853515625
2018,0.1484375,0.1796875,0.9833984375
2019,0.150390625,0.181640625,0.986328125
2020,0.1484375,0.1748046875,0.9814453125
2021,0.14453125,0.169921875,0.98828125
2022,0.1474609375,0.1728515625,0.9912109375
2023,0.1484375,0.169921875,0.9873046875
2024,0.1455078125,0.16796875,0.986328125
2025,0.1494140625,0.169921875,0.9853515625
2026,0.1513671875,0.1630859375,0.990234375
2027,0.146484375,0.173828125,0.9892578125
2028,0.1474609375,0.1689453125,0.986328125
2029,0.1484375,0.169921875,0.9853515625
2030,0.1474609375,0.169921875,0.990234375
2031,0.150390625,0.1689453125,0.9873046875
2032,0.1474609375,0.169921875,0.9873046875
2033,0.15234375,0.1708984375,0.9853515625
2034,0.1494140625,0.1689453125,0.9921875
2035,0.1591796875,0.16796875,0.9892578125
2036,0.1533203125,0.166015625,0.990234375
2037,0.146484375,0.166015625,0.9892578125
2038,0.150390625,0.16796875,0.9873046875
2039,0.1455078125,0.1640625,0.9853515625
2040,0.1474609375,0.1640625,0.9873046875
2041,0.1474609375,0.1640625,0.9912109375
2042,0.1455078125,0.1669921875,0.9892578125
2043,0.146484375,0.162109375,0.98828125
2044,0.146484375,0.1640625,0.984375
2045,0.1474609375,0.173828125,0.982421875
2046,0.1513671875,0.1669921875,0.9853515625
2047,0.1552734375,0.1669921875,0.982421875
2048,0.1513671875,0.171875,0.9873046875
2049,0.1513671875,0.171875,0.98828125
2050,0.15234375,0.173828125,0.98828125
2051,0.150390625,0.169921875,0.9892578125
2052,0.1484375,0.171875,0.9921875
2053,0.146484375,0.16796875,0.990234375
2054,0.150390625,0.1689453125,0.986328125
2055,0.1494140625,0.1689453125,0.9873046875
2056,0.15625,0.16796875,0.986328125
2057,0.1513671875,0.1640625,0.984375
2058,0.150390625,0.1640625,0.9873046875
2059,0.1474609375,0.1689453125,0.98828125
2060,0.1533203125,0.16796875,0.9853515625
2061,0.1494140625,0.1689453125,0.98828125
2062,0.1484375,0.1650390625,0.986328125
2063,0.1494140625,0.1669921875,0.9912109375
2064,0.1484375,0.1650390625,0.9853515625
2065,0.1513671875,0.1748046875,0.9833984375
2066,0.1474609375,0.171875,0.98828125
2067,0.146484375,0.171875,0.9873046875
2068,0.146484375,0.173828125,0.9892578125
2069,0.1513671875,0.177734375,0.986328125
2070,0.1484375,0.1748046875,0.9931640625
2071,0.1533203125,0.173828125,0.9912109375
2072,0.1533203125,0.1708984375,0.990234375
2073,0.1474609375,0.17578125,0.9921875
2074,0.1552734375,0.1767578125,0.9873046875
2075,0.1474609375,0.177734375,0.9833984375
2076,0.1484375,0.1748046875,0.9873046875
2077,0.150390625,0.17578125,0.984375
2078,0.150390625,0.17578125,0.9833984375
2079,0.1474609375,0.173828125,0.984375
2080,0.15234375,0.1728515625,0.978515625
2081,0.1474609375,0.169921875,0.984375
2082,0.1474609375,0.169921875,0.984375
2083,0.150390625,0.169921875,0.978515625
2084,0.1474609375,0.169921875,0.98046875
2085,0.150390625,0.16796875,0.9775390625
2086,0.1435546875,0.166015625,0.978515625
2087,0.1484375,0.1708984375,0.978515625
2088,0.1494140625,0.1640625,0.9814453125
2089,0.1455078125,0.169921875,0.9775390625
2090,0.150390625,0.173828125,0.982421875
2091,0.1533203125,0.171875,0.982421875
2092,0.1484375,0.1708984375,0.982421875
2093,0.15625,0.1796875,0.9931640625
2094,0.150390625,0.1787109375,0.98046875
2095,0.1533203125,0.1767578125,0.986328125
2096,0.15234375,0.1806640625,0.990234375
2097,0.15234375,0.1728515625,0.9912109375
2098,0.1474609375,0.1806640625,0.986328125
2099,0.15234375,0.1796875,0.9951171875
2100,0.154296875,0.1748046875,0.9912109375
2101,0.1552734375,0.17578125,0.9931640625
2102,0.1552734375,0.1748046875,0.9921875
2103,0.1513671875,0.169921875,0.9892578125
2104,0.1484375,0.1669921875,0.98828125
2105,0.15234375,0.1728515625,0.9892578125
2106,0.1474609375,0.1708984375,0.990234375
2107,0.1494140625,0.169921875,0.9853515625
2108,0.1513671875,0.16796875,0.98828125
2109,0.150390625,0.173828125,0.9912109375
2110,0.15625,0.1708984375,0.9931640625
2111,0.15234375,0.1748046875,0.986328125
2112,0.1552734375,0.16796875,0.986328125
2113,0.1533203125,0.1689453125,0.986328125
2114,0.1572265625,0.171875,0.9814453125
2115,0.15625,0.1689453125,0.9873046875
2116,0.1533203125,0.1669921875,0.990234375
2117,0.1533203125,0.1689453125,0.984375
2118,0.1484375,0.171875,0.986328125
2119,0.1494140625,0.1708984375,0.986328125
2120,0.1484375,0.1767578125,0.982421875
2121,0.1572265625,0.1748046875,0.982421875
2122,0.150390625,0.17578125,0.9873046875
2123,0.1533203125,0.17578125,0.982421875
2124,0.1474609375,0.171875,0.9853515625
2125,0.1484375,0.17578125,0.98828125
2126,0.15234375,0.1748046875,0.98828125
2127,0.1513671875,0.173828125,0.986328125
2128,0.1484375,0.1728515625,0.9892578125
2129,0.1513671875,0.1806640625,0.9873046875
2130,0.1484375,0.177734375,0.986328125
2131,0.1513671875,0.17578125,0.9873046875
2132,0.1513671875,0.181640625,0.9892578125
2133,0.1513671875,0.1767578125,0.9912109375
2134,0.1494140625,0.1728515625,0.98828125
2135,0.1552734375,0.1767578125,0.9892578125
2136,0.150390625,0.1767578125,0.986328125
2137,0.15234375,0.1826171875,0.98828125
2138,0.154296875,0.1767578125,0.9853515625
2139,0.1513671875,0.1787109375,0.984375
2140,0.1513671875,0.1767578125,0.986328125
2141,0.1494140625,0.1728515625,0.990234375
2142,0.150390625,0.1767578125,0.982421875
2143,0.1533203125,0.1767578125,0.98828125
2144,0.1513671875,0.1748046875,0.986328125
2145,0.146484375,0.177734375,0.984375
2146,0.1474609375,0.1787109375,0.98828125
2147,0.1494140625,0.171875,0.98046875
2148,0.146484375,0.1796875,0.9873046875
2149,0.1474609375,0.1796875,0.9814453125
2150,0.1474609375,0.1796875,0.9814453125
2151,0.1455078125,0.1767578125,0.982421875
2152,0.146484375,0.1787109375,0.98046875
2153,0.1455078125,0.1748046875,0.98046875
2154,0.146484375,0.177734375,0.97265625
2155,0.1533203125,0.177734375,0.986328125
2156,0.150390625,0.1689453125,0.98046875
2157,0.1474609375,0.1708984375,0.9853515625
2158,0.1474609375,0.1689453125,0.986328125
2159,0.1484375,0.1669921875,0.98828125
2160,0.1494140625,0.1640625,0.9892578125
2161,0.1484375,0.1611328125,0.9951171875
2162,0.146484375,0.158203125,0.9931640625
2163,0.1494140625,0.16015625,0.9892578125
2164,0.1484375,0.16015625,0.9892578125
2165,0.150390625,0.1611328125,0.982421875
2166,0.1484375,0.1640625,0.9833984375
2167,0.14453125,0.16796875,0.9833984375
2168,0.1513671875,0.1708984375,0.9716796875
2169,0.142578125,0.1669921875,0.970703125
2170,0.1630859375,0.1728515625,0.986328125
2171,0.15625,0.17578125,0.978515625
2172,0.1552734375,0.177734375,0.982421875
2173,0.1513671875,0.1806640625,0.9853515625
2174,0.1552734375,0.1796875,0.986328125
2175,0.154296875,0.1767578125,0.9814453125
2176,0.15625,0.1748046875,0.986328125
2177,0.173828125,0.16796875,0.9775390625
2178,0.1298828125,0.1689453125,0.98828125
2179,0.1474609375,0.1708984375,0.9931640625
2180,0.15234375,0.1728515625,0.9892578125
2181,0.150390625,0.1728515625,0.9921875
2182,0.1455078125,0.1728515625,0.990234375
2183,0.1494140625,0.1767578125,0.9873046875
2184,0.146484375,0.177734375,0.9892578125
2185,0.146484375,0.1728515625,0.984375
2186,0.146484375,0.1767578125,0.990234375
2187,0.1474609375,0.1708984375,0.98828125
2188,0.1435546875,0.1767578125,0.9853515625
2189,0.146484375,0.1748046875,0.9853515625
2190,0.1484375,0.1748046875,0.984375
2191,0.1494140625,0.177734375,0.984375
2192,0.1455078125,0.173828125,0.9931640625
2193,0.138671875,0.1767578125,0.9912109375
2194,0.1474609375,0.1767578125,0.98828125
2195,0.14453125,0.173828125,0.98828125
2196,0.146484375,0.1728515625,0.9892578125
2197,0.1435546875,0.1748046875,0.9853515625
2198,0.1435546875,0.1728515625,0.986328125
2199,0.13671875,0.171875,0.98828125
2200,0.1328125,0.1708984375,0.9833984375
2201,0.1484375,0.1708984375,0.986328125
2202,0.1611328125,0.181640625,0.98828125
2203,0.1611328125,0.1767578125,0.9912109375
2204,0.150390625,0.1767578125,0.9892578125
2205,0.1494140625,0.1787109375,0.9892578125
2206,0.15234375,0.1767578125,0.98828125
2207,0.150390625,0.177734375,0.984375
2208,0.1513671875,0.1787109375,0.9892578125
2209,0.1474609375,0.17578125,0.982421875
2210,0.150390625,0.171875,0.9833984375
2211,0.154296875,0.1728515625,0.984375
2212,0.1484375,0.169921875,0.9892578125
2213,0.146484375,0.171875,0.986328125
2214,0.1435546875,0.1708984375,0.990234375
2215,0.150390625,0.1767578125,0.9921875
2216,0.1474609375,0.1708984375,0.9892578125
2217,0.1416015625,0.173828125,0.9833984375
2218,0.1513671875,0.1728515625,0.9892578125
2219,0.146484375,0.1708984375,0.986328125
2220,0.1455078125,0.171875,0.9892578125
2221,0.1435546875,0.1728515625,0.990234375
2222,0.1455078125,0.1708984375,0.984375
2223,0.146484375,0.169921875,0.986328125
2224,0.146484375,0.173828125,0.986328125
2225,0.1484375,0.1669921875,0.9873046875
2226,0.1416015625,0.1708984375,0.98828125
2227,0.1376953125,0.169921875,0.990234375
2228,0.146484375,0.1748046875,0.986328125
2229,0.146484375,0.1796875,0.9892578125
2230,0.1474609375,0.1767578125,0.9921875
2231,0.14453125,0.1767578125,0.990234375
2232,0.138671875,0.1728515625,0.98828125
2233,0.1455078125,0.171875,0.9853515625
2234,0.142578125,0.173828125,0.9873046875
2235,0.1435546875,0.17578125,0.984375
2236,0.1435546875,0.1748046875,0.986328125
2237,0.146484375,0.173828125,0.9892578125
2238,0.142578125,0.17578125,0.984375
2239,0.1513671875,0.17578125,0.9873046875
2240,0.1552734375,0.1748046875,0.9892578125
2241,0.1533203125,0.1767578125,0.9873046875
2242,0.1474609375,0.17578125,0.9912109375
2243,0.1484375,0.177734375,0.986328125
2244,0.1513671875,0.1708984375,0.98828125
2245,0.1533203125,0.1748046875,0.982421875
2246,0.14453125,0.1689453125,0.9912109375
2247,0.146484375,0.173828125,0.9853515625
2248,0.1455078125,0.173828125,0.990234375
2249,0.1474609375,0.17578125,0.990234375
2250,0.1435546875,0.1728515625,0.990234375
2251,0.1484375,0.1708984375,0.990234375
2252,0.1513671875,0.171875,0.9931640625
2253,0.1484375,0.16796875,0.9873046875
2254,0.1474609375,0.1708984375,0.990234375
2255,0.1474609375,0.1728515625,0.98828125
2256,0.1484375,0.169921875,0.986328125
2257,0.1494140625,0.17578125,0.9912109375
2258,0.15234375,0.169921875,0.9892578125
2259,0.146484375,0.173828125,0.98828125
2260,0.150390625,0.171875,0.9892578125
2261,0.1455078125,0.169921875,0.986328125
2262,0.1455078125,0.171875,0.9912109375
2263,0.1474609375,0.169921875,0.9853515625
2264,0.15234375,0.173828125,0.984375
2265,0.1474609375,0.169921875,0.9873046875
2266,0.14453125,0.169921875,0.9892578125
2267,0.1396484375,0.1689453125,0.990234375
2268,0.1435546875,0.173828125,0.990234375
2269,0.146484375,0.1748046875,0.98828125
2270,0.14453125,0.1689453125,0.9873046875
2271,0.150390625,0.17578125,0.9912109375
2272,0.1455078125,0.171875,0.986328125
2273,0.14453125,0.1728515625,0.984375
2274,0.146484375,0.1748046875,0.990234375
2275,0.1484375,0.169921875,0.9833984375
2276,0.1474609375,0.1728515625,0.98828125
2277,0.146484375,0.1748046875,0.990234375
2278,0.146484375,0.1669921875,0.9892578125
2279,0.146484375,0.1748046875,0.984375
2280,0.1474609375,0.1689453125,0.98828125
2281,0.1484375,0.173828125,0.9873046875
2282,0.146484375,0.1748046875,0.98828125
2283,0.1513671875,0.1640625,0.986328125
2284,0.1435546875,0.16796875,0.9873046875
2285,0.1455078125,0.169921875,0.9873046875
2286,0.1494140625,0.1669921875,0.990234375
2287,0.1474609375,0.1708984375,0.9892578125
2288,0.1494140625,0.1728515625,0.994140625
2289,0.1455078125,0.171875,0.98828125
2290,0.14453125,0.1689453125,0.9873046875
2291,0.1484375,0.16796875,0.9873046875
2292,0.150390625,0.1689453125,0.9853515625
2293,0.1513671875,0.1708984375,0.978515625
2294,0.1494140625,0.1708984375,0.9833984375
2295,0.1484375,0.1689453125,0.9912109375
2296,0.154296875,0.16796875,0.986328125
2297,0.15234375,0.166015625,0.9853515625
2298,0.1513671875,0.166015625,0.986328125
2299,0.15234375,0.171875,0.98828125
2300,0.146484375,0.1630859375,0.984375
2301,0.1474609375,0.1650390625,0.986328125
2302,0.1455078125,0.171875,0.9873046875
2303,0.1474609375,0.1708984375,0.9873046875
2304,0.15234375,0.166015625,0.9873046875
2305,0.1513671875,0.169921875,0.98828125
2306,0.1513671875,0.169921875,0.9892578125
2307,0.1455078125,0.1708984375,0.984375
2308,0.150390625,0.169921875,0.9951171875
2309,0.1474609375,0.169921875,0.98828125
2310,0.1484375,0.1748046875,0.98828125
2311,0.15234375,0.1728515625,0.98828125
2312,0.1552734375,0.171875,0.9853515625
2313,0.1484375,0.1689453125,0.9853515625
2314,0.1513671875,0.169921875,0.9912109375
2315,0.1533203125,0.166015625,0.990234375
2316,0.1494140625,0.162109375,0.990234375
2317,0.1513671875,0.1650390625,0.9892578125
2318,0.1474609375,0.166015625,0.9853515625
2319,0.1494140625,0.166015625,0.98828125
2320,0.1435546875,0.16796875,0.9873046875
2321,0.14453125,0.166015625,0.982421875
2322,0.1474609375,0.1630859375,0.9873046875
2323,0.14453125,0.1650390625,0.984375
2324,0.142578125,0.169921875,0.9853515625
2325,0.146484375,0.1650390625,0.9853515625
2326,0.1494140625,0.1630859375,0.9853515625
2327,0.154296875,0.1591796875,0.990234375
2328,0.154296875,0.16796875,0.9853515625
2329,0.15234375,0.16015625,0.990234375
2330,0.1494140625,0.1572265625,0.994140625
2331,0.1494140625,0.1611328125,0.9970703125
2332,0.1474609375,0.1533203125,0.99609375
2333,0.146484375,0.1533203125,0.9951171875
2334,0.1513671875,0.15234375,0.9931640625
2335,0.1484375,0.154296875,0.9892578125
2336,0.150390625,0.15625,0.984375
2337,0.1494140625,0.1630859375,0.9853515625
2338,0.146484375,0.1650390625,0.9775390625
2339,0.1494140625,0.1650390625,0.986328125
2340,0.150390625,0.1689453125,0.986328125
2341,0.1513671875,0.1708984375,0.9794921875
2342,0.1484375,0.16796875,0.984375
2343,0.150390625,0.1728515625,0.984375
2344,0.1494140625,0.1669921875,0.9873046875
2345,0.150390625,0.1689453125,0.9873046875
2346,0.1494140625,0.166015625,0.9853515625
2347,0.1484375,0.1640625,0.9873046875
2348,0.15234375,0.166015625,0.982421875
2349,0.14453125,0.166015625,0.9892578125
2350,0.1513671875,0.162109375,0.986328125
2351,0.1484375,0.1640625,0.9873046875
2352,0.1572265625,0.1640625,0.9873046875
2353,0.15234375,0.16796875,0.986328125
2354,0.1513671875,0.1669921875,0.984375
2355,0.1513671875,0.166015625,0.98828125
2356,0.1474609375,0.162109375,0.98828125
2357,0.1494140625,0.166015625,0.9892578125
2358,0.1435546875,0.1650390625,0.9892578125
2359,0.1455078125,0.169921875,0.9892578125
2360,0.146484375,0.16796875,0.9853515625
2361,0.1484375,0.1640625,0.9873046875
2362,0.14453125,0.1640625,0.9892578125
2363,0.1474609375,0.162109375,0.9892578125
2364,0.1474609375,0.162109375,0.986328125
2365,0.1455078125,0.1630859375,0.9892578125
2366,0.146484375,0.1630859375,0.9892578125
2367,0.1484375,0.158203125,0.9814453125
2368,0.14453125,0.1630859375,0.990234375
2369,0.1474609375,0.1572265625,0.990234375
2370,0.14453125,0.1591796875,0.986328125
2371,0.150390625,0.1630859375,0.9921875
2372,0.150390625,0.162109375,0.990234375
2373,0.1484375,0.162109375,0.986328125
2374,0.1513671875,0.1640625,0.984375
2375,0.1513671875,0.1572265625,0.9873046875
2376,0.15234375,0.162109375,0.9853515625
2377,0.15234375,0.1611328125,0.98828125
2378,0.15234375,0.15625,0.9853515625
2379,0.1513671875,0.1611328125,0.984375
2380,0.154296875,0.1611328125,0.9853515625
2381,0.1513671875,0.16015625,0.9873046875
2382,0.1484375,0.154296875,0.9853515625
2383,0.1474609375,0.15625,0.9853515625
2384,0.1533203125,0.1552734375,0.98828125
2385,0.1513671875,0.1435546875,0.9912109375
2386,0.1484375,0.150390625,0.9892578125
2387,0.1484375,0.154296875,0.9853515625
2388,0.1455078125,0.15234375,0.9912109375
2389,0.146484375,0.150390625,0.9921875
2390,0.1484375,0.154296875,0.98828125
2391,0.150390625,0.154296875,0.9921875
2392,0.1494140625,0.150390625,0.990234375
2393,0.1455078125,0.154296875,0.9873046875
2394,0.146484375,0.158203125,0.9892578125
2395,0.1552734375,0.1591796875,0.9921875
2396,0.154296875,0.1552734375,0.98828125
2397,0.154296875,0.158203125,0.9921875
2398,0.1533203125,0.1611328125,0.98828125
2399,0.1533203125,0.162109375,0.9892578125
2400,0.1630859375,0.1591796875,0.98828125
2401,0.1572265625,0.1591796875,0.98828125
2402,0.15234375,0.1533203125,0.9892578125
2403,0.1513671875,0.1611328125,0.9921875
2404,0.15625,0.16015625,0.9912109375
2405,0.1533203125,0.158203125,0.990234375
2406,0.158203125,0.1591796875,0.98828125
2407,0.1494140625,0.1591796875,0.9853515625
2408,0.1484375,0.1611328125,0.9833984375
2409,0.150390625,0.158203125,0.986328125
2410,0.1484375,0.1572265625,0.9873046875
2411,0.1435546875,0.1572265625,0.98828125
2412,0.1513671875,0.158203125,0.9892578125
2413,0.154296875,0.1591796875,0.9873046875
2414,0.15234375,0.1611328125,0.9892578125
2415,0.150390625,0.1591796875,0.9873046875
2416,0.15234375,0.16015625,0.986328125
2417,0.1513671875,0.162109375,0.990234375
2418,0.158203125,0.1572265625,0.986328125
2419,0.1552734375,0.1591796875,0.990234375
2420,0.158203125,0.162109375,0.9833984375
2421,0.1552734375,0.162109375,0.9892578125
2422,0.1591796875,0.1572265625,0.9892578125
2423,0.1494140625,0.1591796875,0.986328125
2424,0.1533203125,0.16015625,0.9892578125
2425,0.15625,0.1533203125,0.9853515625
2426,0.1533203125,0.1611328125,0.990234375
2427,0.1533203125,0.1533203125,0.98828125
2428,0.1533203125,0.1533203125,0.986328125
2429,0.1513671875,0.154296875,0.986328125
2430,0.150390625,0.1533203125,0.990234375
2431,0.154296875,0.154296875,0.986328125
2432,0.1494140625,0.154296875,0.9853515625
2433,0.1474609375,0.1533203125,0.9853515625
2434,0.154296875,0.1552734375,0.9853515625
2435,0.150390625,0.15625,0.986328125
2436,0.150390625,0.1572265625,0.9892578125
2437,0.1494140625,0.15234375,0.986328125
2438,0.1552734375,0.1552734375,0.982421875
2439,0.15234375,0.1533203125,0.9853515625
2440,0.15234375,0.15625,0.9873046875
2441,0.15234375,0.1552734375,0.98046875
2442,0.1484375,0.154296875,0.986328125
2443,0.1513671875,0.150390625,0.9833984375
2444,0.15234375,0.15234375,0.984375
2445,0.1494140625,0.15625,0.9853515625
2446,0.1533203125,0.154296875,0.986328125
2447,0.1533203125,0.154296875,0.984375
2448,0.1533203125,0.1513671875,0.98828125
2449,0.1533203125,0.1533203125,0.9892578125
2450,0.1533203125,0.1533203125,0.9892578125
2451,0.1552734375,0.15625,0.9873046875
2452,0.146484375,0.1533203125,0.990234375
2453,0.1572265625,0.1552734375,0.9833984375
2454,0.1513671875,0.15625,0.9814453125
2455,0.1494140625,0.1533203125,0.98828125
2456,0.15234375,0.154296875,0.984375
2457,0.154296875,0.158203125,0.98828125
2458,0.1552734375,0.1630859375,0.9853515625
2459,0.154296875,0.158203125,0.9912109375
2460,0.1513671875,0.1533203125,0.978515625
2461,0.1591796875,0.1552734375,0.9912109375
2462,0.15625,0.1552734375,0.98828125
2463,0.1533203125,0.15234375,0.982421875
2464,0.150390625,0.15625,0.9853515625
2465,0.150390625,0.1533203125,0.9912109375
2466,0.1533203125,0.1591796875,0.9853515625
2467,0.150390625,0.1572265625,0.9873046875
2468,0.158203125,0.1572265625,0.982421875
2469,0.1513671875,0.1552734375,0.98828125
2470,0.15234375,0.1591796875,0.9873046875
2471,0.15234375,0.1572265625,0.98828125
2472,0.1494140625,0.162109375,0.984375
2473,0.154296875,0.15625,0.986328125
2474,0.150390625,0.1591796875,0.9853515625
2475,0.150390625,0.162109375,0.986328125
2476,0.15234375,0.15625,0.9833984375
2477,0.15625,0.1640625,0.9833984375
2478,0.150390625,0.1640625,0.982421875
2479,0.150390625,0.1591796875,0.9853515625
2480,0.1552734375,0.158203125,0.986328125
2481,0.15625,0.15625,0.98046875
2482,0.1572265625,0.1533203125,0.9814453125
2483,0.1513671875,0.1552734375,0.9833984375
2484,0.158203125,0.1611328125,0.9853515625
2485,0.1494140625,0.162109375,0.982421875
2486,0.1484375,0.1650390625,0.9794921875
2487,0.1474609375,0.1611328125,0.982421875
2488,0.146484375,0.1591796875,0.9873046875
2489,0.15234375,0.162109375,0.990234375
2490,0.150390625,0.1572265625,0.9794921875
2491,0.150390625,0.15625,0.9892578125
2492,0.1533203125,0.1591796875,0.9912109375
2493,0.150390625,0.154296875,0.99609375
2494,0.15234375,0.1533203125,0.994140625
2495,0.1552734375,0.1552734375,0.994140625
2496,0.154296875,0.1552734375,0.9931640625
2497,0.15234375,0.154296875,0.9833984375
2498,0.150390625,0.1572265625,0.9873046875
2499,0.15234375,0.16015625,0.9814453125
2500,0.150390625,0.1630859375,0.9814453125
2501,0.1572265625,0.1630859375,0.9765625
2502,0.154296875,0.1650390625,0.982421875
2503,0.1513671875,0.1650390625,0.9755859375
2504,0.15234375,0.169921875,0.982421875
2505,0.158203125,0.16796875,0.9873046875
2506,0.1513671875,0.1669921875,0.98828125
2507,0.1533203125,0.16796875,0.9873046875
2508,0.1484375,0.1689453125,0.9892578125
2509,0.1513671875,0.16796875,0.9951171875
2510,0.1572265625,0.1669921875,0.9921875
2511,0.154296875,0.166015625,0.99609375
2512,0.1572265625,0.162109375,0.9990234375
2513,0.15234375,0.1689453125,0.9970703125
2514,0.1494140625,0.1669921875,0.9970703125
2515,0.1552734375,0.1630859375,0.9970703125
2516,0.154296875,0.1640625,0.99609375
2517,0.15625,0.1611328125,0.994140625
2518,0.154296875,0.162109375,0.990234375
2519,0.154296875,0.1689453125,0.9912109375
2520,0.1513671875,0.1611328125,0.9853515625
2521,0.15234375,0.166015625,0.9814453125
2522,0.15234375,0.1650390625,0.9853515625
2523,0.154296875,0.162109375,0.9794921875
2524,0.1533203125,0.1640625,0.98828125
2525,0.1533203125,0.1650390625,0.9853515625
2526,0.1513671875,0.16015625,0.978515625
2527,0.14453125,0.1591796875,0.9873046875
2528,0.150390625,0.1591796875,0.9853515625
2529,0.1494140625,0.1611328125,0.9853515625
2530,0.1513671875,0.16015625,0.9892578125
2531,0.1494140625,0.1591796875,0.98828125
2532,0.1513671875,0.1591796875,0.9853515625
2533,0.1494140625,0.162109375,0.986328125
2534,0.15234375,0.1630859375,0.9892578125
2535,0.154296875,0.162109375,0.9873046875
2536,0.1513671875,0.166015625,0.9873046875
2537,0.1513671875,0.1640625,0.9892578125
2538,0.1513671875,0.1650390625,0.986328125
2539,0.15625,0.1640625,0.986328125
2540,0.1513671875,0.1669921875,0.982421875
2541,0.154296875,0.1591796875,0.9853515625
2542,0.1552734375,0.15625,0.98828125
2543,0.1513671875,0.16015625,0.9892578125
2544,0.1513671875,0.16015625,0.9853515625
2545,0.15234375,0.1513671875,0.990234375
2546,0.1533203125,0.150390625,0.986328125
2547,0.1494140625,0.150390625,0.9853515625
2548,0.1484375,0.146484375,0.9853515625
2549,0.15234375,0.1484375,0.9853515625
2550,0.150390625,0.1513671875,0.9892578125
2551,0.1513671875,0.154296875,0.9873046875
2552,0.150390625,0.1533203125,0.9892578125
2553,0.154296875,0.1513671875,0.9892578125
2554,0.154296875,0.15234375,0.990234375
2555,0.154296875,0.16015625,0.9921875
2556,0.154296875,0.16015625,0.9921875
2557,0.1513671875,0.1591796875,0.9912109375
2558,0.1533203125,0.16015625,0.9912109375
2559,0.1484375,0.15625,0.9912109375
2560,0.1533203125,0.1591796875,0.9873046875
2561,0.15234375,0.1611328125,0.98828125
2562,0.15234375,0.154296875,0.986328125
2563,0.1474609375,0.1591796875,0.986328125
2564,0.1484375,0.16015625,0.9921875
2565,0.15234375,0.158203125,0.98828125
2566,0.15234375,0.15625,0.9873046875
2567,0.1494140625,0.1611328125,0.9892578125
2568,0.1494140625,0.1572265625,0.9892578125
2569,0.1513671875,0.162109375,0.9853515625
2570,0.1513671875,0.16015625,0.984375
2571,0.1494140625,0.1611328125,0.986328125
2572,0.15234375,0.162109375,0.9833984375
2573,0.15234375,0.1640625,0.984375
2574,0.15234375,0.1611328125,0.984375
2575,0.1552734375,0.1640625,0.9853515625
2576,0.154296875,0.1630859375,0.98828125
2577,0.150390625,0.1630859375,0.986328125
2578,0.150390625,0.1630859375,0.9892578125
2579,0.158203125,0.1611328125,0.986328125
2580,0.15625,0.166015625,0.9853515625
2581,0.1572265625,0.162109375,0.990234375
2582,0.15234375,0.1669921875,0.9970703125
2583,0.1533203125,0.1640625,0.9892578125
2584,0.15234375,0.1630859375,0.9892578125
2585,0.1533203125,0.1630859375,0.9912109375
2586,0.1552734375,0.1640625,0.9912109375
2587,0.1513671875,0.162109375,0.98828125
2588,0.1533203125,0.1640625,0.98828125
2589,0.15234375,0.1630859375,0.9833984375
2590,0.15625,0.16015625,0.9873046875
2591,0.150390625,0.1611328125,0.990234375
2592,0.154296875,0.1611328125,0.984375
2593,0.15234375,0.16015625,0.986328125
2594,0.154296875,0.1611328125,0.984375
2595,0.1552734375,0.15625,0.9873046875
2596,0.1552734375,0.1572265625,0.98828125
2597,0.1533203125,0.1572265625,0.9892578125
2598,0.1533203125,0.1533203125,0.986328125
2599,0.150390625,0.1572265625,0.9853515625
2600,0.150390625,0.15625,0.9873046875
2601,0.1494140625,0.1552734375,0.9892578125
2602,0.1533203125,0.16015625,0.990234375
2603,0.1484375,0.15625,0.990234375
2604,0.1474609375,0.15625,0.9873046875
2605,0.1513671875,0.154296875,0.9873046875
2606,0.15234375,0.154296875,0.98828125
2607,0.1552734375,0.158203125,0.98828125
2608,0.15234375,0.1533203125,0.9873046875
2609,0.1513671875,0.154296875,0.9892578125
2610,0.1572265625,0.1533203125,0.986328125
2611,0.1572265625,0.1533203125,0.990234375
2612,0.1572265625,0.15234375,0.994140625
2613,0.15625,0.15625,0.9912109375
2614,0.1552734375,0.1533203125,0.986328125
2615,0.1572265625,0.1552734375,0.98828125
2616,0.1533203125,0.1533203125,0.9853515625
2617,0.1611328125,0.158203125,0.984375
2618,0.15625,0.1591796875,0.986328125
2619,0.158203125,0.158203125,0.98828125
2620,0.1533203125,0.15625,0.986328125
2621,0.1572265625,0.15625,0.9873046875
2622,0.154296875,0.1572265625,0.9892578125
2623,0.1513671875,0.162109375,0.9892578125
2624,0.1533203125,0.1630859375,0.990234375
2625,0.154296875,0.162109375,0.990234375
2626,0.1533203125,0.1591796875,0.9931640625
2627,0.1533203125,0.1640625,0.9921875
2628,0.1533203125,0.1611328125,0.98828125
2629,0.1552734375,0.162109375,0.9814453125
2630,0.150390625,0.1591796875,0.9833984375
2631,0.1533203125,0.1630859375,0.9833984375
2632,0.15234375,0.1650390625,0.9814453125
2633,0.1552734375,0.1630859375,0.9814453125
2634,0.1494140625,0.1650390625,0.984375
2635,0.15234375,0.1669921875,0.9814453125
2636,0.1552734375,0.1640625,0.982421875
2637,0.1494140625,0.16015625,0.9814453125
2638,0.15234375,0.15234375,0.9775390625
2639,0.15234375,0.1591796875,0.9794921875
2640,0.1572265625,0.1474609375,0.98046875
2641,0.150390625,0.150390625,0.9814453125
2642,0.1484375,0.1474609375,0.98828125
2643,0.1494140625,0.1513671875,0.98828125
2644,0.1533203125,0.1494140625,0.986328125
2645,0.1572265625,0.1533203125,0.98828125
2646,0.15625,0.150390625,0.9892578125
2647,0.154296875,0.158203125,0.9892578125
2648,0.1533203125,0.1552734375,0.984375
2649,0.1591796875,0.1591796875,0.9833984375
2650,0.154296875,0.16796875,0.9853515625
2651,0.1513671875,0.166015625,0.9853515625
2652,0.1494140625,0.1689453125,0.9892578125
2653,0.1533203125,0.16796875,0.986328125
2654,0.15625,0.171875,0.990234375
2655,0.1552734375,0.1689453125,0.986328125
2656,0.1484375,0.1689453125,0.9931640625
2657,0.1552734375,0.16796875,0.98828125
2658,0.1484375,0.162109375,0.9921875
2659,0.1513671875,0.16015625,0.9912109375
2660,0.1494140625,0.1650390625,0.9912109375
2661,0.1513671875,0.1552734375,0.98828125
2662,0.1513671875,0.15625,0.9873046875
2663,0.1572265625,0.1591796875,0.98828125
2664,0.15234375,0.158203125,0.9873046875
2665,0.1494140625,0.154296875,0.982421875
2666,0.154296875,0.15625,0.9853515625
2667,0.1484375,0.158203125,0.9833984375
2668,0.150390625,0.1611328125,0.986328125
2669,0.1533203125,0.1591796875,0.98828125
2670,0.1494140625,0.16796875,0.990234375
2671,0.1513671875,0.1640625,0.9853515625
2672,0.1533203125,0.1689453125,0.984375
2673,0.1513671875,0.1708984375,0.990234375
2674,0.158203125,0.1640625,0.982421875
2675,0.15625,0.162109375,0.986328125
2676,0.146484375,0.1669921875,0.986328125
2677,0.150390625,0.1669921875,0.98828125
2678,0.150390625,0.16796875,0.9912109375
2679,0.154296875,0.1611328125,0.9892578125
2680,0.150390625,0.1640625,0.986328125
2681,0.1513671875,0.16015625,0.98828125
2682,0.1513671875,0.1640625,0.9873046875
2683,0.154296875,0.1640625,0.990234375
2684,0.1533203125,0.1630859375,0.9873046875
2685,0.1494140625,0.166015625,0.9873046875
2686,0.1533203125,0.1669921875,0.9892578125
2687,0.150390625,0.1650390625,0.9873046875
2688,0.15625,0.171875,0.984375
2689,0.154296875,0.171875,0.9892578125
2690,0.154296875,0.1650390625,0.98828125
2691,0.154296875,0.1640625,0.9892578125
2692,0.1552734375,0.1640625,0.9873046875
2693,0.154296875,0.158203125,0.984375
2694,0.1591796875,0.1572265625,0.9892578125
2695,0.15625,0.1591796875,0.986328125
2696,0.15234375,0.154296875,0.98828125
2697,0.15625,0.1572265625,0.9853515625
2698,0.15234375,0.1552734375,0.9853515625
2699,0.1513671875,0.1572265625,0.9931640625
2700,0.1533203125,0.1591796875,0.9873046875
2701,0.1552734375,0.1611328125,0.9873046875
2702,0.1591796875,0.1611328125,0.9873046875
2703,0.1591796875,0.16015625,0.9833984375
2704,0.16015625,0.15625,0.98828125
2705,0.154296875,0.162109375,0.9853515625
2706,0.1513671875,0.1640625,0.994140625
2707,0.150390625,0.158203125,0.98828125
2708,0.1513671875,0.158203125,0.9921875
2709,0.1494140625,0.158203125,0.9873046875
2710,0.1494140625,0.1572265625,0.986328125
2711,0.150390625,0.1591796875,0.9853515625
2712,0.14453125,0.1611328125,0.982421875
2713,0.1494140625,0.1640625,0.9833984375
2714,0.150390625,0.162109375,0.978515625
2715,0.1484375,0.158203125,0.978515625
2716,0.1494140625,0.1611328125,0.98046875
2717,0.1533203125,0.1650390625,0.9775390625
2718,0.1484375,0.162109375,0.9833984375
2719,0.1494140625,0.1611328125,0.9794921875
2720,0.1513671875,0.162109375,0.9833984375
2721,0.1533203125,0.1630859375,0.982421875
2722,0.15234375,0.1650390625,0.9892578125
2723,0.1513671875,0.1640625,0.984375
2724,0.1513671875,0.1650390625,0.98828125
2725,0.1494140625,0.1640625,0.9853515625
2726,0.1552734375,0.166015625,0.990234375
2727,0.150390625,0.162109375,0.9853515625
2728,0.150390625,0.1640625,0.98828125
2729,0.1533203125,0.162109375,0.98828125
2730,0.15234375,0.1591796875,0.98828125
2731,0.1513671875,0.162109375,0.9912109375
2732,0.1494140625,0.16015625,0.9873046875
2733,0.1513671875,0.1630859375,0.990234375
2734,0.1552734375,0.158203125,0.9853515625
2735,0.150390625,0.1552734375,0.990234375
2736,0.1494140625,0.1572265625,0.98828125
2737,0.1533203125,0.158203125,0.98828125
2738,0.1494140625,0.158203125,0.98828125
2739,0.1552734375,0.1630859375,0.9892578125
2740,0.1513671875,0.16015625,0.98828125
2741,0.15234375,0.1611328125,0.9873046875
2742,0.154296875,0.1591796875,0.9775390625
2743,0.154296875,0.1552734375,0.986328125
2744,0.158203125,0.1572265625,0.9833984375
2745,0.1513671875,0.1611328125,0.98046875
2746,0.154296875,0.1591796875,0.9814453125
2747,0.1572265625,0.158203125,0.9853515625
2748,0.150390625,0.1591796875,0.98828125
2749,0.150390625,0.1552734375,0.9833984375
2750,0.1484375,0.162109375,0.982421875
2751,0.1474609375,0.1630859375,0.9814453125
2752,0.150390625,0.16015625,0.9833984375
2753,0.1533203125,0.158203125,0.9775390625
2754,0.150390625,0.15625,0.9765625
2755,0.1484375,0.158203125,0.9794921875
2756,0.1484375,0.158203125,0.97265625
2757,0.1494140625,0.15625,0.974609375
2758,0.146484375,0.16015625,0.9775390625
2759,0.150390625,0.1591796875,0.9755859375
2760,0.15234375,0.1611328125,0.98046875
2761,0.1494140625,0.162109375,0.98046875
2762,0.15234375,0.1669921875,0.982421875
2763,0.15625,0.1650390625,0.9853515625
2764,0.154296875,0.1748046875,0.9951171875
2765,0.1552734375,0.17578125,0.9892578125
2766,0.150390625,0.1787109375,0.994140625
2767,0.1494140625,0.1845703125,0.9970703125
2768,0.1533203125,0.1796875,0.99609375
2769,0.1552734375,0.173828125,0.99609375
2770,0.1484375,0.177734375,0.998046875
2771,0.150390625,0.1748046875,1.001953125
2772,0.1513671875,0.17578125,1.0048828125
2773,0.1494140625,0.1787109375,1.0029296875
2774,0.1474609375,0.1669921875,0.99609375
2775,0.1494140625,0.1708984375,0.99609375
2776,0.150390625,0.166015625,0.9970703125
2777,0.1494140625,0.1630859375,0.9921875
2778,0.1494140625,0.16796875,0.9912109375
2779,0.150390625,0.166015625,0.9912109375
2780,0.146484375,0.1630859375,0.9833984375
2781,0.1484375,0.1650390625,0.9873046875
2782,0.1474609375,0.1630859375,0.984375
2783,0.1474609375,0.1640625,0.9833984375
2784,0.1484375,0.1640625,0.982421875
2785,0.146484375,0.16796875,0.9775390625
2786,0.14453125,0.166015625,0.9853515625
2787,0.15234375,0.1669921875,0.986328125
2788,0.1552734375,0.171875,0.9892578125
2789,0.1552734375,0.1650390625,0.9921875
2790,0.1533203125,0.1640625,0.9921875
2791,0.15625,0.1640625,0.990234375
2792,0.15234375,0.1630859375,0.986328125
2793,0.154296875,0.1689453125,0.9853515625
2794,0.1533203125,0.1728515625,0.984375
2795,0.1533203125,0.1708984375,0.982421875
2796,0.1533203125,0.171875,0.984375
2797,0.150390625,0.171875,0.9814453125
2798,0.1533203125,0.1728515625,0.98046875
2799,0.1484375,0.17578125,0.9814453125
2800,0.1513671875,0.1728515625,0.9814453125
2801,0.146484375,0.177734375,0.9814453125
2802,0.15234375,0.1748046875,0.9853515625
2803,0.150390625,0.17578125,0.9853515625
2804,0.1474609375,0.1728515625,0.9853515625
2805,0.146484375,0.1767578125,0.9873046875
2806,0.1455078125,0.1689453125,0.986328125
2807,0.154296875,0.169921875,0.9833984375
2808,0.1552734375,0.166015625,0.984375
2809,0.150390625,0.1640625,0.9853515625
2810,0.1533203125,0.1640625,0.9873046875
2811,0.1484375,0.162109375,0.9892578125
2812,0.150390625,0.1630859375,0.9853515625
2813,0.1494140625,0.1611328125,0.986328125
2814,0.1494140625,0.16015625,0.9873046875
2815,0.150390625,0.1552734375,0.98828125
2816,0.1513671875,0.1611328125,0.98828125
2817,0.1474609375,0.1630859375,0.9912109375
2818,0.1474609375,0.1611328125,0.9873046875
2819,0.15234375,0.169921875,0.98828125
2820,0.1494140625,0.166015625,0.9853515625
2821,0.1484375,0.162109375,0.98828125
2822,0.146484375,0.1640625,0.990234375
2823,0.1494140625,0.162109375,0.9873046875
2824,0.15234375,0.1640625,0.9873046875
2825,0.1513671875,0.16015625,0.986328125
2826,0.1513671875,0.1611328125,0.986328125
2827,0.1484375,0.1630859375,0.990234375
2828,0.146484375,0.1650390625,0.984375
2829,0.1474609375,0.1650390625,0.9833984375
2830,0.1484375,0.166015625,0.98828125
2831,0.1552734375,0.1630859375,0.986328125
2832,0.146484375,0.162109375,0.98046875
2833,0.150390625,0.166015625,0.9833984375
2834,0.1328125,0.162109375,0.982421875
2835,0.15234375,0.1572265625,0.9833984375
2836,0.1484375,0.15234375,0.9755859375
2837,0.1494140625,0.1650390625,0.98828125
2838,0.146484375,0.162109375,0.984375
2839,0.1533203125,0.162109375,0.9853515625
2840,0.1484375,0.1630859375,0.9921875
2841,0.150390625,0.16015625,0.986328125
2842,0.1533203125,0.1611328125,0.986328125
2843,0.1611328125,0.1611328125,0.9775390625
2844,0.14453125,0.166015625,0.994140625
2845,0.1513671875,0.1630859375,0.9931640625
2846,0.1494140625,0.1650390625,0.990234375
2847,0.146484375,0.1640625,0.9892578125
2848,0.1484375,0.162109375,0.986328125
2849,0.1494140625,0.1640625,0.990234375
2850,0.15234375,0.1611328125,0.990234375
2851,0.1474609375,0.1630859375,0.990234375
2852,0.1484375,0.1640625,0.990234375
2853,0.1494140625,0.1640625,0.990234375
2854,0.1455078125,0.1650390625,0.9912109375
2855,0.1474609375,0.16796875,0.9892578125
2856,0.150390625,0.1640625,0.9853515625
2857,0.1513671875,0.16796875,0.9814453125
2858,0.1484375,0.1689453125,0.984375
2859,0.1533203125,0.173828125,0.98828125
2860,0.15234375,0.1708984375,0.990234375
2861,0.1484375,0.1689453125,0.9892578125
2862,0.154296875,0.169921875,0.9873046875
2863,0.15234375,0.169921875,0.984375
2864,0.1484375,0.166015625,0.9873046875
2865,0.1513671875,0.1669921875,0.9853515625
2866,0.1513671875,0.169921875,0.9873046875
2867,0.1513671875,0.1650390625,0.98828125
2868,0.1474609375,0.16796875,0.986328125
2869,0.1494140625,0.16796875,0.9833984375
2870,0.1396484375,0.162109375,0.984375
2871,0.12109375,0.1650390625,0.96875
2872,0.162109375,0.1630859375,0.9951171875
2873,0.162109375,0.162109375,0.986328125
2874,0.162109375,0.1689453125,0.9921875
2875,0.1494140625,0.169921875,0.9951171875
2876,0.1474609375,0.166015625,0.9931640625
2877,0.1533203125,0.1640625,0.990234375
2878,0.15234375,0.1650390625,0.9912109375
2879,0.1474609375,0.1669921875,0.9892578125
2880,0.150390625,0.1650390625,0.990234375
2881,0.150390625,0.1640625,0.9921875
2882,0.1494140625,0.1630859375,0.9921875
2883,0.150390625,0.1650390625,0.9921875
2884,0.154296875,0.158203125,0.9951171875
2885,0.1513671875,0.166015625,0.9951171875
2886,0.158203125,0.1611328125,0.98828125
2887,0.1484375,0.1669921875,0.9921875
2888,0.1484375,0.1630859375,0.986328125
2889,0.1513671875,0.16796875,0.9873046875
2890,0.1484375,0.1630859375,0.98828125
2891,0.1474609375,0.162109375,0.9892578125
2892,0.146484375,0.16015625,0.9873046875
2893,0.150390625,0.162109375,0.9892578125
2894,0.1484375,0.16015625,0.98828125
2895,0.15234375,0.16796875,0.9892578125
2896,0.150390625,0.162109375,0.9853515625
2897,0.1484375,0.16015625,0.9833984375
2898,0.150390625,0.1669921875,0.9873046875
2899,0.15625,0.166015625,0.9892578125
2900,0.1494140625,0.1689453125,0.986328125
2901,0.1513671875,0.1640625,0.9892578125
2902,0.154296875,0.1669921875,0.990234375
2903,0.15234375,0.16796875,0.990234375
2904,0.1494140625,0.16796875,0.9921875
2905,0.150390625,0.1611328125,0.9892578125
2906,0.15234375,0.166015625,0.9892578125
2907,0.150390625,0.1640625,0.990234375
2908,0.1494140625,0.1650390625,0.9931640625
2909,0.1484375,0.1630859375,0.9921875
2910,0.142578125,0.1650390625,0.9912109375
2911,0.1455078125,0.1689453125,0.9912109375
2912,0.1494140625,0.162109375,0.9951171875
2913,0.1455078125,0.166015625,0.9931640625
2914,0.1474609375,0.1630859375,0.994140625
2915,0.1494140625,0.1650390625,0.9912109375
2916,0.1484375,0.162109375,0.9921875
