,accelerometerAccelerationX(G),accelerometerAccelerationY(G),accelerometerAccelerationZ(G)
0,-0.1015625,-0.939453125,0.1728515625
1,-0.103515625,-0.9404296875,0.1767578125
2,-0.1044921875,-0.935546875,0.1748046875
3,-0.1044921875,-0.9375,0.1787109375
4,-0.1044921875,-0.9345703125,0.1728515625
5,-0.103515625,-0.9326171875,0.1748046875
6,-0.1015625,-0.9404296875,0.1748046875
7,-0.103515625,-0.935546875,0.17578125
8,-0.0966796875,-0.9384765625,0.177734375
9,-0.1025390625,-0.9404296875,0.1767578125
10,-0.103515625,-0.9345703125,0.17578125
11,-0.103515625,-0.9345703125,0.1796875
12,-0.1015625,-0.9326171875,0.1826171875
13,-0.1025390625,-0.9287109375,0.17578125
14,-0.099609375,-0.9345703125,0.1767578125
15,-0.1015625,-0.9384765625,0.17578125
16,-0.103515625,-0.9404296875,0.1748046875
17,-0.099609375,-0.943359375,0.1728515625
18,-0.1005859375,-0.9404296875,0.173828125
19,-0.099609375,-0.9375,0.1748046875
20,-0.095703125,-0.9423828125,0.177734375
21,-0.0986328125,-0.9375,0.1708984375
22,-0.099609375,-0.939453125,0.1708984375
23,-0.1015625,-0.9384765625,0.173828125
24,-0.1025390625,-0.9365234375,0.1728515625
25,-0.099609375,-0.94140625,0.1787109375
26,-0.0986328125,-0.9345703125,0.1806640625
27,-0.1025390625,-0.93359375,0.1708984375
28,-0.09765625,-0.935546875,0.173828125
29,-0.1025390625,-0.9404296875,0.173828125
30,-0.1044921875,-0.943359375,0.17578125
31,-0.09765625,-0.9375,0.1748046875
32,-0.099609375,-0.94140625,0.173828125
33,-0.1015625,-0.935546875,0.1748046875
34,-0.1015625,-0.9345703125,0.1728515625
35,-0.1015625,-0.9375,0.1728515625
36,-0.1025390625,-0.935546875,0.1748046875
37,-0.1025390625,-0.939453125,0.1728515625
38,-0.0947265625,-0.9345703125,0.173828125
39,-0.099609375,-0.9384765625,0.1748046875
40,-0.1025390625,-0.935546875,0.1767578125
41,-0.1015625,-0.939453125,0.17578125
42,-0.103515625,-0.943359375,0.177734375
43,-0.1005859375,-0.9423828125,0.173828125
44,-0.1005859375,-0.9443359375,0.171875
45,-0.1005859375,-0.9423828125,0.171875
46,-0.099609375,-0.9443359375,0.171875
47,-0.1005859375,-0.9296875,0.1689453125
48,-0.099609375,-0.9296875,0.169921875
49,-0.103515625,-0.93359375,0.1728515625
50,-0.1044921875,-0.9345703125,0.17578125
51,-0.1044921875,-0.94140625,0.17578125
52,-0.099609375,-0.9453125,0.17578125
53,-0.09765625,-0.9453125,0.173828125
54,-0.0986328125,-0.9443359375,0.171875
55,-0.1015625,-0.9453125,0.173828125
56,-0.0966796875,-0.9404296875,0.173828125
57,-0.1025390625,-0.9375,0.173828125
58,-0.1044921875,-0.9375,0.17578125
59,-0.1015625,-0.9375,0.173828125
60,-0.103515625,-0.9345703125,0.173828125
61,-0.099609375,-0.935546875,0.171875
62,-0.0986328125,-0.931640625,0.173828125
63,-0.09765625,-0.93359375,0.1728515625
64,-0.09765625,-0.9306640625,0.1728515625
65,-0.1025390625,-0.939453125,0.1767578125
66,-0.1005859375,-0.94140625,0.173828125
67,-0.1005859375,-0.9404296875,0.173828125
68,-0.1015625,-0.9423828125,0.1748046875
69,-0.103515625,-0.9453125,0.1728515625
70,-0.0986328125,-0.943359375,0.1728515625
71,-0.095703125,-0.9443359375,0.169921875
72,-0.099609375,-0.939453125,0.173828125
73,-0.0986328125,-0.9404296875,0.1728515625
74,-0.099609375,-0.9375,0.173828125
75,-0.1044921875,-0.9462890625,0.1728515625
76,-0.1005859375,-0.939453125,0.1748046875
77,-0.1025390625,-0.9423828125,0.171875
78,-0.1015625,-0.9423828125,0.17578125
79,-0.09765625,-0.9404296875,0.1796875
80,-0.099609375,-0.939453125,0.17578125
81,-0.0986328125,-0.935546875,0.173828125
82,-0.0986328125,-0.93359375,0.1767578125
83,-0.09765625,-0.9306640625,0.17578125
84,-0.1015625,-0.9365234375,0.17578125
85,-0.1005859375,-0.9404296875,0.171875
86,-0.103515625,-0.94140625,0.1728515625
87,-0.103515625,-0.9443359375,0.171875
88,-0.1025390625,-0.943359375,0.173828125
89,-0.0986328125,-0.9423828125,0.1708984375
90,-0.1044921875,-0.939453125,0.1689453125
91,-0.1025390625,-0.943359375,0.1728515625
92,-0.09765625,-0.9404296875,0.171875
93,-0.09765625,-0.9384765625,0.1708984375
94,-0.0986328125,-0.9365234375,0.177734375
95,-0.1005859375,-0.9326171875,0.173828125
96,-0.1005859375,-0.9345703125,0.17578125
97,-0.09765625,-0.9326171875,0.1767578125
98,-0.103515625,-0.935546875,0.18359375
99,-0.1015625,-0.935546875,0.177734375
100,-0.099609375,-0.94140625,0.185546875
101,-0.1015625,-0.93359375,0.1748046875
102,-0.1005859375,-0.9375,0.169921875
103,-0.1015625,-0.9287109375,0.173828125
104,-0.1025390625,-0.9326171875,0.177734375
105,-0.1015625,-0.9375,0.173828125
106,-0.1025390625,-0.9384765625,0.1728515625
107,-0.1044921875,-0.94140625,0.17578125
108,-0.1025390625,-0.94140625,0.173828125
109,-0.1015625,-0.9423828125,0.173828125
110,-0.1005859375,-0.9365234375,0.173828125
111,-0.1025390625,-0.9453125,0.17578125
112,-0.1015625,-0.9482421875,0.1748046875
113,-0.1005859375,-0.9423828125,0.1767578125
114,-0.09765625,-0.9423828125,0.173828125
115,-0.1005859375,-0.9365234375,0.173828125
116,-0.1025390625,-0.939453125,0.171875
117,-0.1044921875,-0.9384765625,0.173828125
118,-0.1015625,-0.9375,0.1748046875
119,-0.103515625,-0.9345703125,0.173828125
120,-0.1015625,-0.9375,0.171875
121,-0.1025390625,-0.9365234375,0.1708984375
122,-0.1015625,-0.9345703125,0.1767578125
123,-0.09765625,-0.935546875,0.17578125
124,-0.09765625,-0.9384765625,0.173828125
125,-0.099609375,-0.935546875,0.1767578125
126,-0.0986328125,-0.943359375,0.177734375
127,-0.099609375,-0.9375,0.18359375
128,-0.1015625,-0.9384765625,0.1826171875
129,-0.1015625,-0.9345703125,0.1787109375
130,-0.09765625,-0.9365234375,0.1728515625
131,-0.0986328125,-0.9384765625,0.17578125
132,-0.095703125,-0.943359375,0.173828125
133,-0.09765625,-0.939453125,0.1728515625
134,-0.0966796875,-0.9384765625,0.1728515625
135,-0.0986328125,-0.9453125,0.173828125
136,-0.099609375,-0.935546875,0.1728515625
137,-0.0927734375,-0.9384765625,0.1767578125
138,-0.0986328125,-0.9384765625,0.17578125
139,-0.0947265625,-0.93359375,0.1748046875
140,-0.095703125,-0.9326171875,0.1748046875
141,-0.1015625,-0.931640625,0.1796875
142,-0.1015625,-0.9326171875,0.1875
143,-0.1005859375,-0.9384765625,0.177734375
144,-0.0986328125,-0.9453125,0.1787109375
145,-0.09765625,-0.9443359375,0.1728515625
146,-0.1015625,-0.9462890625,0.177734375
147,-0.099609375,-0.9423828125,0.177734375
148,-0.09765625,-0.9404296875,0.1806640625
149,-0.0966796875,-0.935546875,0.17578125
150,-0.1015625,-0.93359375,0.17578125
151,-0.1005859375,-0.9423828125,0.1728515625
152,-0.1025390625,-0.931640625,0.173828125
153,-0.099609375,-0.94140625,0.1796875
154,-0.1025390625,-0.9423828125,0.1767578125
155,-0.1005859375,-0.9453125,0.1806640625
156,-0.103515625,-0.9404296875,0.1865234375
157,-0.1064453125,-0.9453125,0.1826171875
158,-0.103515625,-0.9453125,0.1826171875
159,-0.1025390625,-0.9384765625,0.185546875
160,-0.1005859375,-0.9423828125,0.177734375
161,-0.103515625,-0.9404296875,0.173828125
162,-0.0986328125,-0.9375,0.1787109375
163,-0.099609375,-0.93359375,0.1787109375
164,-0.1044921875,-0.94140625,0.1806640625
165,-0.099609375,-0.9375,0.1787109375
166,-0.1044921875,-0.9345703125,0.1806640625
167,-0.103515625,-0.9375,0.1796875
168,-0.1015625,-0.9404296875,0.177734375
169,-0.103515625,-0.9365234375,0.17578125
170,-0.1025390625,-0.9384765625,0.1767578125
171,-0.1005859375,-0.9375,0.1826171875
172,-0.1064453125,-0.9384765625,0.1845703125
173,-0.099609375,-0.9345703125,0.173828125
174,-0.103515625,-0.939453125,0.181640625
175,-0.1005859375,-0.9365234375,0.1796875
176,-0.1005859375,-0.931640625,0.1796875
177,-0.099609375,-0.94140625,0.1767578125
178,-0.1025390625,-0.9365234375,0.1806640625
179,-0.1005859375,-0.9404296875,0.1796875
180,-0.09765625,-0.9423828125,0.18359375
181,-0.1015625,-0.9443359375,0.1748046875
182,-0.099609375,-0.9404296875,0.17578125
183,-0.0986328125,-0.9345703125,0.1748046875
184,-0.099609375,-0.931640625,0.1767578125
185,-0.09765625,-0.931640625,0.1806640625
186,-0.1044921875,-0.931640625,0.1796875
187,-0.1044921875,-0.931640625,0.1806640625
188,-0.1005859375,-0.9365234375,0.18359375
189,-0.09765625,-0.9443359375,0.1845703125
190,-0.1005859375,-0.9443359375,0.177734375
191,-0.103515625,-0.947265625,0.1787109375
192,-0.099609375,-0.9453125,0.177734375
193,-0.1005859375,-0.9453125,0.173828125
194,-0.09765625,-0.94140625,0.177734375
195,-0.1015625,-0.9384765625,0.177734375
196,-0.1015625,-0.931640625,0.1708984375
197,-0.1044921875,-0.9326171875,0.1826171875
198,-0.1015625,-0.9365234375,0.17578125
199,-0.0986328125,-0.935546875,0.173828125
200,-0.1005859375,-0.939453125,0.173828125
201,-0.0986328125,-0.93359375,0.173828125
202,-0.1025390625,-0.9306640625,0.181640625
203,-0.0986328125,-0.9345703125,0.1796875
204,-0.1015625,-0.947265625,0.185546875
205,-0.1005859375,-0.9384765625,0.1787109375
206,-0.103515625,-0.9404296875,0.17578125
207,-0.09375,-0.9384765625,0.173828125
208,-0.0986328125,-0.9462890625,0.17578125
209,-0.099609375,-0.939453125,0.1796875
210,-0.095703125,-0.9375,0.1787109375
211,-0.1005859375,-0.935546875,0.1787109375
212,-0.103515625,-0.93359375,0.1767578125
213,-0.1025390625,-0.94140625,0.1845703125
214,-0.103515625,-0.94140625,0.1845703125
215,-0.103515625,-0.94140625,0.185546875
216,-0.1005859375,-0.939453125,0.18359375
217,-0.10546875,-0.939453125,0.1865234375
218,-0.1025390625,-0.9365234375,0.1845703125
219,-0.0947265625,-0.935546875,0.181640625
220,-0.1015625,-0.935546875,0.177734375
221,-0.099609375,-0.9384765625,0.1806640625
222,-0.1025390625,-0.9375,0.17578125
223,-0.099609375,-0.94140625,0.1806640625
224,-0.1005859375,-0.9384765625,0.177734375
225,-0.103515625,-0.9453125,0.1767578125
226,-0.1005859375,-0.94140625,0.181640625
227,-0.10546875,-0.94140625,0.17578125
228,-0.1044921875,-0.9326171875,0.1796875
229,-0.1005859375,-0.9384765625,0.18359375
230,-0.1044921875,-0.9345703125,0.1845703125
231,-0.0986328125,-0.9365234375,0.185546875
232,-0.1015625,-0.9384765625,0.18359375
233,-0.099609375,-0.935546875,0.1845703125
234,-0.0966796875,-0.93359375,0.1826171875
235,-0.1025390625,-0.93359375,0.1767578125
236,-0.1044921875,-0.9365234375,0.173828125
237,-0.103515625,-0.931640625,0.1875
238,-0.1015625,-0.943359375,0.1748046875
239,-0.1044921875,-0.9384765625,0.1806640625
240,-0.099609375,-0.9423828125,0.181640625
241,-0.1005859375,-0.9365234375,0.1767578125
242,-0.1015625,-0.939453125,0.1796875
243,-0.0986328125,-0.9375,0.1767578125
244,-0.1015625,-0.93359375,0.1787109375
245,-0.099609375,-0.9345703125,0.1806640625
246,-0.1005859375,-0.9384765625,0.1787109375
247,-0.099609375,-0.93359375,0.177734375
248,-0.09765625,-0.9345703125,0.181640625
249,-0.1015625,-0.9375,0.1865234375
250,-0.103515625,-0.9345703125,0.1845703125
251,-0.1025390625,-0.9404296875,0.18359375
252,-0.1005859375,-0.9345703125,0.1806640625
253,-0.103515625,-0.9375,0.1787109375
254,-0.0986328125,-0.939453125,0.1796875
255,-0.09765625,-0.9404296875,0.17578125
256,-0.1015625,-0.94140625,0.1787109375
257,-0.0986328125,-0.9365234375,0.1806640625
258,-0.1044921875,-0.9375,0.17578125
259,-0.1015625,-0.93359375,0.185546875
260,-0.099609375,-0.931640625,0.1767578125
261,-0.099609375,-0.935546875,0.1787109375
262,-0.0986328125,-0.939453125,0.185546875
263,-0.1025390625,-0.9482421875,0.1806640625
264,-0.09765625,-0.9404296875,0.18359375
265,-0.1005859375,-0.94140625,0.18359375
266,-0.1015625,-0.9365234375,0.181640625
267,-0.1005859375,-0.93359375,0.1806640625
268,-0.0986328125,-0.939453125,0.1845703125
269,-0.099609375,-0.9326171875,0.18359375
270,-0.1005859375,-0.9345703125,0.18359375
271,-0.09765625,-0.931640625,0.181640625
272,-0.099609375,-0.9296875,0.1875
273,-0.1025390625,-0.9306640625,0.1875
274,-0.1015625,-0.931640625,0.18359375
275,-0.1015625,-0.9296875,0.189453125
276,-0.09765625,-0.931640625,0.1904296875
277,-0.099609375,-0.9345703125,0.1904296875
278,-0.1005859375,-0.9365234375,0.1884765625
279,-0.0986328125,-0.9423828125,0.1884765625
280,-0.0986328125,-0.94140625,0.1845703125
281,-0.09375,-0.9423828125,0.1865234375
282,-0.1005859375,-0.94140625,0.1865234375
283,-0.09765625,-0.9384765625,0.1865234375
284,-0.0947265625,-0.9423828125,0.18359375
285,-0.095703125,-0.9375,0.1806640625
286,-0.09765625,-0.9404296875,0.18359375
287,-0.0966796875,-0.9384765625,0.18359375
288,-0.1015625,-0.9384765625,0.1796875
289,-0.099609375,-0.935546875,0.181640625
290,-0.095703125,-0.939453125,0.1865234375
291,-0.09765625,-0.9375,0.189453125
292,-0.09765625,-0.9365234375,0.1875
293,-0.1015625,-0.9365234375,0.1865234375
294,-0.1025390625,-0.935546875,0.1865234375
295,-0.0986328125,-0.9384765625,0.1875
296,-0.1025390625,-0.94140625,0.1865234375
297,-0.0986328125,-0.93359375,0.1845703125
298,-0.09765625,-0.935546875,0.185546875
299,-0.0966796875,-0.935546875,0.18359375
300,-0.1005859375,-0.93359375,0.1884765625
301,-0.1005859375,-0.939453125,0.189453125
302,-0.0986328125,-0.939453125,0.185546875
303,-0.1005859375,-0.9365234375,0.185546875
304,-0.10546875,-0.943359375,0.185546875
305,-0.099609375,-0.935546875,0.185546875
306,-0.1005859375,-0.9375,0.1875
307,-0.099609375,-0.9384765625,0.1884765625
308,-0.1005859375,-0.9326171875,0.1884765625
309,-0.0966796875,-0.93359375,0.1865234375
310,-0.09765625,-0.9365234375,0.1904296875
311,-0.099609375,-0.94140625,0.1923828125
312,-0.1015625,-0.9404296875,0.1904296875
313,-0.1005859375,-0.9365234375,0.189453125
314,-0.1025390625,-0.9453125,0.1904296875
315,-0.1044921875,-0.94140625,0.19140625
316,-0.103515625,-0.9453125,0.189453125
317,-0.0986328125,-0.9443359375,0.1884765625
318,-0.09765625,-0.943359375,0.1875
319,-0.1044921875,-0.943359375,0.189453125
320,-0.091796875,-0.943359375,0.1865234375
321,-0.0947265625,-0.9423828125,0.1884765625
322,-0.1015625,-0.9443359375,0.1884765625
323,-0.0966796875,-0.9423828125,0.1875
324,-0.09765625,-0.9443359375,0.18359375
325,-0.09765625,-0.9453125,0.1845703125
326,-0.1025390625,-0.94140625,0.185546875
327,-0.099609375,-0.935546875,0.1884765625
328,-0.1005859375,-0.931640625,0.1865234375
329,-0.1044921875,-0.9267578125,0.1884765625
330,-0.1025390625,-0.92578125,0.19140625
331,-0.1005859375,-0.9287109375,0.1904296875
332,-0.1005859375,-0.931640625,0.1884765625
333,-0.099609375,-0.9345703125,0.185546875
334,-0.099609375,-0.9365234375,0.181640625
335,-0.09375,-0.9423828125,0.18359375
336,-0.0908203125,-0.9423828125,0.177734375
337,-0.099609375,-0.9443359375,0.1767578125
338,-0.0908203125,-0.9345703125,0.1787109375
339,-0.09375,-0.94140625,0.1806640625
340,-0.09375,-0.9345703125,0.177734375
341,-0.0947265625,-0.9384765625,0.185546875
342,-0.099609375,-0.94140625,0.185546875
343,-0.099609375,-0.9443359375,0.181640625
344,-0.0966796875,-0.9453125,0.18359375
345,-0.0986328125,-0.9423828125,0.18359375
346,-0.1015625,-0.9404296875,0.181640625
347,-0.0986328125,-0.943359375,0.177734375
348,-0.099609375,-0.9423828125,0.1796875
349,-0.09375,-0.939453125,0.177734375
350,-0.09375,-0.9326171875,0.1728515625
351,-0.09765625,-0.9345703125,0.1748046875
352,-0.095703125,-0.9345703125,0.1767578125
353,-0.0966796875,-0.93359375,0.1796875
354,-0.0966796875,-0.9326171875,0.1806640625
355,-0.1025390625,-0.935546875,0.1865234375
356,-0.0966796875,-0.939453125,0.1923828125
357,-0.1025390625,-0.93359375,0.1904296875
358,-0.0966796875,-0.9365234375,0.1923828125
359,-0.1005859375,-0.9326171875,0.1904296875
360,-0.0947265625,-0.939453125,0.19140625
361,-0.099609375,-0.9384765625,0.1904296875
362,-0.0986328125,-0.9365234375,0.1923828125
363,-0.099609375,-0.939453125,0.19140625
364,-0.0986328125,-0.9345703125,0.193359375
365,-0.1005859375,-0.935546875,0.19140625
366,-0.1015625,-0.9404296875,0.193359375
367,-0.1005859375,-0.943359375,0.1943359375
368,-0.1025390625,-0.947265625,0.1943359375
369,-0.1015625,-0.943359375,0.1943359375
370,-0.099609375,-0.9404296875,0.1923828125
371,-0.09765625,-0.943359375,0.1875
372,-0.0966796875,-0.9345703125,0.19140625
373,-0.09765625,-0.9404296875,0.1904296875
374,-0.1005859375,-0.9345703125,0.1923828125
375,-0.0966796875,-0.9384765625,0.1923828125
376,-0.09765625,-0.9326171875,0.1923828125
377,-0.0986328125,-0.93359375,0.197265625
378,-0.1015625,-0.9306640625,0.1923828125
379,-0.099609375,-0.9345703125,0.1962890625
380,-0.09765625,-0.9326171875,0.2021484375
381,-0.1044921875,-0.9326171875,0.19921875
382,-0.10546875,-0.93359375,0.201171875
383,-0.1015625,-0.9375,0.1943359375
384,-0.103515625,-0.93359375,0.1943359375
385,-0.1015625,-0.939453125,0.1953125
386,-0.1015625,-0.931640625,0.1982421875
387,-0.107421875,-0.9345703125,0.2001953125
388,-0.1025390625,-0.9326171875,0.19921875
389,-0.099609375,-0.9384765625,0.205078125
390,-0.1015625,-0.9306640625,0.2041015625
391,-0.095703125,-0.9296875,0.2041015625
392,-0.095703125,-0.9287109375,0.2021484375
393,-0.09765625,-0.9296875,0.203125
394,-0.095703125,-0.9326171875,0.2021484375
395,-0.087890625,-0.9296875,0.1982421875
396,-0.0859375,-0.9365234375,0.1953125
397,-0.09765625,-0.9296875,0.201171875
398,-0.091796875,-0.9345703125,0.1953125
399,-0.087890625,-0.9326171875,0.1982421875
400,-0.083984375,-0.9326171875,0.1943359375
401,-0.08984375,-0.9326171875,0.2001953125
402,-0.083984375,-0.9306640625,0.19921875
403,-0.0869140625,-0.93359375,0.1982421875
404,-0.0849609375,-0.9306640625,0.1923828125
405,-0.08203125,-0.93359375,0.1962890625
406,-0.087890625,-0.9375,0.197265625
407,-0.076171875,-0.94140625,0.201171875
408,-0.0859375,-0.9384765625,0.1982421875
409,-0.0849609375,-0.9345703125,0.203125
410,-0.08984375,-0.9375,0.2060546875
411,-0.091796875,-0.9384765625,0.203125
412,-0.091796875,-0.9375,0.203125
413,-0.08984375,-0.9345703125,0.2109375
414,-0.0927734375,-0.9326171875,0.2138671875
415,-0.09765625,-0.931640625,0.2109375
416,-0.091796875,-0.927734375,0.2119140625
417,-0.095703125,-0.93359375,0.2119140625
418,-0.087890625,-0.931640625,0.2138671875
419,-0.0947265625,-0.9296875,0.2138671875
420,-0.09765625,-0.9326171875,0.21484375
421,-0.0947265625,-0.9365234375,0.2158203125
422,-0.095703125,-0.9345703125,0.216796875
423,-0.1015625,-0.9404296875,0.2138671875
424,-0.1005859375,-0.9375,0.2119140625
425,-0.09765625,-0.931640625,0.2138671875
426,-0.09765625,-0.9345703125,0.21484375
427,-0.1015625,-0.93359375,0.220703125
428,-0.1015625,-0.931640625,0.2197265625
429,-0.099609375,-0.939453125,0.2177734375
430,-0.1015625,-0.9365234375,0.2216796875
431,-0.0986328125,-0.9345703125,0.21484375
432,-0.0986328125,-0.9296875,0.21875
433,-0.0966796875,-0.9326171875,0.21875
434,-0.0986328125,-0.9326171875,0.2236328125
435,-0.099609375,-0.9287109375,0.2197265625
436,-0.09765625,-0.935546875,0.2138671875
437,-0.09765625,-0.9306640625,0.2158203125
438,-0.0986328125,-0.9267578125,0.212890625
439,-0.095703125,-0.9287109375,0.2138671875
440,-0.09765625,-0.92578125,0.2119140625
441,-0.0966796875,-0.9267578125,0.2109375
442,-0.09375,-0.9228515625,0.21484375
443,-0.0947265625,-0.9267578125,0.216796875
444,-0.091796875,-0.9228515625,0.220703125
445,-0.09375,-0.92578125,0.2255859375
446,-0.099609375,-0.927734375,0.224609375
447,-0.095703125,-0.92578125,0.2275390625
448,-0.099609375,-0.9248046875,0.232421875
449,-0.0908203125,-0.931640625,0.228515625
450,-0.09375,-0.9267578125,0.23046875
451,-0.0927734375,-0.927734375,0.232421875
452,-0.0947265625,-0.9287109375,0.2333984375
453,-0.095703125,-0.9267578125,0.2333984375
454,-0.091796875,-0.9228515625,0.2392578125
455,-0.0947265625,-0.9248046875,0.234375
456,-0.0947265625,-0.9208984375,0.2353515625
457,-0.09375,-0.921875,0.2353515625
458,-0.09375,-0.9228515625,0.23828125
459,-0.09375,-0.923828125,0.2412109375
460,-0.095703125,-0.921875,0.240234375
461,-0.0849609375,-0.923828125,0.2421875
462,-0.0908203125,-0.9208984375,0.236328125
463,-0.091796875,-0.923828125,0.236328125
464,-0.0927734375,-0.923828125,0.2431640625
465,-0.0908203125,-0.9248046875,0.2412109375
466,-0.0966796875,-0.919921875,0.244140625
467,-0.0966796875,-0.921875,0.24609375
468,-0.0908203125,-0.916015625,0.2451171875
469,-0.08984375,-0.9169921875,0.25
470,-0.091796875,-0.921875,0.25390625
471,-0.09375,-0.9248046875,0.259765625
472,-0.091796875,-0.927734375,0.2568359375
473,-0.095703125,-0.921875,0.2578125
474,-0.1005859375,-0.9228515625,0.2568359375
475,-0.0927734375,-0.9296875,0.259765625
476,-0.095703125,-0.921875,0.2578125
477,-0.0908203125,-0.9267578125,0.2587890625
478,-0.0966796875,-0.921875,0.2607421875
479,-0.0927734375,-0.92578125,0.2646484375
480,-0.0966796875,-0.927734375,0.26953125
481,-0.0966796875,-0.9287109375,0.2626953125
482,-0.09765625,-0.9296875,0.2685546875
483,-0.095703125,-0.9326171875,0.2685546875
484,-0.09375,-0.9208984375,0.2666015625
485,-0.091796875,-0.916015625,0.2646484375
486,-0.0927734375,-0.912109375,0.2724609375
487,-0.0947265625,-0.9140625,0.2763671875
488,-0.09765625,-0.91015625,0.2763671875
489,-0.099609375,-0.9072265625,0.283203125
490,-0.1005859375,-0.9033203125,0.2861328125
491,-0.0966796875,-0.9052734375,0.2900390625
492,-0.09765625,-0.9033203125,0.2958984375
493,-0.091796875,-0.9033203125,0.2939453125
494,-0.0986328125,-0.9052734375,0.2998046875
495,-0.0947265625,-0.90625,0.3095703125
496,-0.0966796875,-0.908203125,0.302734375
497,-0.09375,-0.9072265625,0.3037109375
498,-0.0966796875,-0.9150390625,0.302734375
499,-0.0947265625,-0.9150390625,0.3056640625
500,-0.09765625,-0.9111328125,0.3056640625
501,-0.09375,-0.9169921875,0.3134765625
502,-0.0966796875,-0.9013671875,0.3173828125
503,-0.09375,-0.9033203125,0.318359375
504,-0.099609375,-0.90234375,0.3203125
505,-0.1015625,-0.8916015625,0.3193359375
506,-0.09765625,-0.8955078125,0.32421875
507,-0.099609375,-0.8896484375,0.3271484375
508,-0.09765625,-0.888671875,0.32421875
509,-0.0986328125,-0.892578125,0.3251953125
510,-0.1005859375,-0.890625,0.328125
511,-0.09765625,-0.8837890625,0.328125
512,-0.091796875,-0.884765625,0.3291015625
513,-0.08984375,-0.884765625,0.3271484375
514,-0.091796875,-0.8896484375,0.3310546875
515,-0.0908203125,-0.8876953125,0.33203125
516,-0.08984375,-0.888671875,0.328125
517,-0.0869140625,-0.89453125,0.3349609375
518,-0.087890625,-0.904296875,0.333984375
519,-0.09375,-0.890625,0.3359375
520,-0.0888671875,-0.900390625,0.3359375
521,-0.0986328125,-0.8974609375,0.3359375
522,-0.09375,-0.900390625,0.333984375
523,-0.087890625,-0.896484375,0.3271484375
524,-0.0908203125,-0.8984375,0.3310546875
525,-0.0927734375,-0.8935546875,0.330078125
526,-0.0927734375,-0.896484375,0.3359375
527,-0.09375,-0.892578125,0.3330078125
528,-0.087890625,-0.8955078125,0.3310546875
529,-0.08984375,-0.8935546875,0.33984375
530,-0.0888671875,-0.890625,0.341796875
531,-0.0849609375,-0.8896484375,0.3486328125
532,-0.083984375,-0.8837890625,0.3544921875
533,-0.0830078125,-0.8779296875,0.353515625
534,-0.0791015625,-0.875,0.3544921875
535,-0.0859375,-0.8720703125,0.357421875
536,-0.080078125,-0.8759765625,0.359375
537,-0.0751953125,-0.8681640625,0.3720703125
538,-0.072265625,-0.8701171875,0.361328125
539,-0.076171875,-0.873046875,0.3681640625
540,-0.0732421875,-0.8779296875,0.36328125
541,-0.078125,-0.876953125,0.359375
542,-0.087890625,-0.8759765625,0.357421875
543,-0.0810546875,-0.884765625,0.353515625
544,-0.0888671875,-0.8857421875,0.357421875
545,-0.083984375,-0.88671875,0.3544921875
546,-0.087890625,-0.900390625,0.353515625
547,-0.0888671875,-0.8994140625,0.3564453125
548,-0.091796875,-0.896484375,0.3662109375
549,-0.0947265625,-0.89453125,0.3720703125
550,-0.091796875,-0.8974609375,0.3798828125
551,-0.0927734375,-0.88671875,0.380859375
552,-0.0947265625,-0.880859375,0.384765625
553,-0.09765625,-0.873046875,0.384765625
554,-0.095703125,-0.8720703125,0.390625
555,-0.095703125,-0.8564453125,0.39453125
556,-0.0947265625,-0.8583984375,0.400390625
557,-0.09765625,-0.8564453125,0.40234375
558,-0.099609375,-0.861328125,0.4033203125
559,-0.09375,-0.8671875,0.408203125
560,-0.0986328125,-0.8603515625,0.41015625
561,-0.09375,-0.865234375,0.4150390625
562,-0.0947265625,-0.8662109375,0.4169921875
563,-0.0908203125,-0.8740234375,0.41796875
564,-0.0908203125,-0.8681640625,0.4111328125
565,-0.0869140625,-0.876953125,0.419921875
566,-0.0849609375,-0.8740234375,0.4189453125
567,-0.08203125,-0.8720703125,0.4208984375
568,-0.0830078125,-0.865234375,0.423828125
569,-0.083984375,-0.86328125,0.4267578125
570,-0.07421875,-0.8662109375,0.4287109375
571,-0.080078125,-0.8681640625,0.431640625
572,-0.0751953125,-0.8642578125,0.4306640625
573,-0.0712890625,-0.861328125,0.43359375
574,-0.0712890625,-0.8544921875,0.4384765625
575,-0.07421875,-0.8505859375,0.4384765625
576,-0.068359375,-0.84765625,0.44140625
577,-0.060546875,-0.8447265625,0.4423828125
578,-0.05859375,-0.837890625,0.4443359375
579,-0.0546875,-0.8349609375,0.4462890625
580,-0.05859375,-0.8271484375,0.447265625
581,-0.0595703125,-0.830078125,0.4482421875
582,-0.0595703125,-0.8251953125,0.455078125
583,-0.05859375,-0.82421875,0.4501953125
584,-0.064453125,-0.8271484375,0.4580078125
585,-0.06640625,-0.828125,0.46484375
586,-0.068359375,-0.8291015625,0.45703125
587,-0.078125,-0.833984375,0.462890625
588,-0.083984375,-0.8291015625,0.4609375
589,-0.0830078125,-0.8330078125,0.4677734375
590,-0.087890625,-0.837890625,0.4736328125
591,-0.083984375,-0.8310546875,0.470703125
592,-0.08984375,-0.8291015625,0.470703125
593,-0.087890625,-0.82421875,0.4775390625
594,-0.08984375,-0.8212890625,0.4794921875
595,-0.091796875,-0.8125,0.4892578125
596,-0.0810546875,-0.8076171875,0.486328125
597,-0.0908203125,-0.810546875,0.4931640625
598,-0.0810546875,-0.8095703125,0.5009765625
599,-0.087890625,-0.8125,0.5087890625
600,-0.0888671875,-0.8095703125,0.5068359375
601,-0.091796875,-0.8125,0.509765625
602,-0.0966796875,-0.8203125,0.51171875
603,-0.0908203125,-0.822265625,0.51171875
604,-0.09375,-0.8212890625,0.513671875
605,-0.095703125,-0.8203125,0.517578125
606,-0.091796875,-0.818359375,0.5205078125
607,-0.0859375,-0.8193359375,0.521484375
608,-0.0908203125,-0.8125,0.5263671875
609,-0.0771484375,-0.814453125,0.537109375
610,-0.0771484375,-0.8095703125,0.54296875
611,-0.0830078125,-0.8076171875,0.5546875
612,-0.072265625,-0.8046875,0.5546875
613,-0.0771484375,-0.798828125,0.5595703125
614,-0.0791015625,-0.8037109375,0.5654296875
615,-0.0791015625,-0.80078125,0.568359375
616,-0.0771484375,-0.8017578125,0.5673828125
617,-0.0751953125,-0.7919921875,0.5625
618,-0.0712890625,-0.796875,0.560546875
619,-0.072265625,-0.80078125,0.55859375
620,-0.0654296875,-0.7978515625,0.55859375
621,-0.0615234375,-0.7958984375,0.5546875
622,-0.0576171875,-0.7880859375,0.5673828125
623,-0.0556640625,-0.7744140625,0.5654296875
624,-0.0556640625,-0.7685546875,0.5673828125
625,-0.0537109375,-0.7578125,0.5712890625
626,-0.056640625,-0.7509765625,0.5693359375
627,-0.0517578125,-0.7451171875,0.5732421875
628,-0.048828125,-0.7392578125,0.5771484375
629,-0.044921875,-0.73828125,0.5771484375
630,-0.0458984375,-0.73046875,0.5849609375
631,-0.0517578125,-0.728515625,0.58984375
632,-0.052734375,-0.7373046875,0.58203125
633,-0.056640625,-0.7392578125,0.578125
634,-0.0634765625,-0.7392578125,0.5791015625
635,-0.05859375,-0.73828125,0.583984375
636,-0.052734375,-0.734375,0.583984375
637,-0.052734375,-0.7431640625,0.58984375
638,-0.0615234375,-0.7431640625,0.5966796875
639,-0.0634765625,-0.7392578125,0.5927734375
640,-0.0625,-0.736328125,0.59765625
641,-0.0595703125,-0.7412109375,0.6044921875
642,-0.05859375,-0.734375,0.6064453125
643,-0.0634765625,-0.7294921875,0.6083984375
644,-0.064453125,-0.7265625,0.6162109375
645,-0.0693359375,-0.728515625,0.6103515625
646,-0.06640625,-0.7265625,0.6201171875
647,-0.0556640625,-0.7275390625,0.6181640625
648,-0.0595703125,-0.7275390625,0.6328125
649,-0.0546875,-0.7255859375,0.6279296875
650,-0.052734375,-0.7294921875,0.6279296875
651,-0.0556640625,-0.732421875,0.6279296875
652,-0.05078125,-0.736328125,0.6318359375
653,-0.0556640625,-0.73828125,0.634765625
654,-0.060546875,-0.7333984375,0.6396484375
655,-0.060546875,-0.7294921875,0.6396484375
656,-0.0634765625,-0.720703125,0.6376953125
657,-0.0673828125,-0.7177734375,0.646484375
658,-0.06640625,-0.7119140625,0.65234375
659,-0.0693359375,-0.708984375,0.65625
660,-0.064453125,-0.7041015625,0.662109375
661,-0.0634765625,-0.697265625,0.662109375
662,-0.0556640625,-0.69921875,0.669921875
663,-0.046875,-0.701171875,0.67578125
664,-0.0361328125,-0.7001953125,0.6845703125
665,-0.0234375,-0.69921875,0.6845703125
666,-0.021484375,-0.701171875,0.68359375
667,-0.017578125,-0.703125,0.681640625
668,-0.0146484375,-0.7060546875,0.6806640625
669,-0.0146484375,-0.701171875,0.6826171875
670,-0.013671875,-0.6923828125,0.6787109375
671,-0.0166015625,-0.689453125,0.677734375
672,-0.0205078125,-0.677734375,0.6728515625
673,-0.01953125,-0.66796875,0.66796875
674,-0.01953125,-0.662109375,0.666015625
675,-0.025390625,-0.6533203125,0.662109375
676,-0.0234375,-0.640625,0.6669921875
677,-0.021484375,-0.634765625,0.6611328125
678,-0.0224609375,-0.634765625,0.66015625
679,-0.025390625,-0.626953125,0.6572265625
680,-0.025390625,-0.626953125,0.6630859375
681,-0.0185546875,-0.630859375,0.662109375
682,-0.0244140625,-0.623046875,0.6591796875
683,-0.0234375,-0.62109375,0.658203125
684,-0.02734375,-0.6298828125,0.6611328125
685,-0.0244140625,-0.63671875,0.66796875
686,-0.033203125,-0.6298828125,0.6748046875
687,-0.0380859375,-0.6279296875,0.6865234375
688,-0.0341796875,-0.6298828125,0.6884765625
689,-0.041015625,-0.625,0.7021484375
690,-0.0390625,-0.6318359375,0.708984375
691,-0.0439453125,-0.6328125,0.708984375
692,-0.037109375,-0.6357421875,0.705078125
693,-0.0400390625,-0.6328125,0.6962890625
694,-0.0458984375,-0.6318359375,0.6953125
695,-0.0478515625,-0.6357421875,0.6982421875
696,-0.046875,-0.6396484375,0.7001953125
697,-0.0498046875,-0.634765625,0.7060546875
698,-0.037109375,-0.6416015625,0.697265625
699,-0.037109375,-0.6357421875,0.6953125
700,-0.033203125,-0.6240234375,0.69140625
701,-0.03515625,-0.6220703125,0.6875
702,-0.0244140625,-0.62109375,0.693359375
703,-0.0205078125,-0.6201171875,0.701171875
704,-0.021484375,-0.6162109375,0.708984375
705,-0.01953125,-0.6142578125,0.7275390625
706,-0.0244140625,-0.611328125,0.7373046875
707,-0.029296875,-0.60546875,0.7529296875
708,-0.0341796875,-0.6142578125,0.7705078125
709,-0.03515625,-0.6181640625,0.779296875
710,-0.048828125,-0.6201171875,0.7734375
711,-0.0576171875,-0.6240234375,0.7763671875
712,-0.0546875,-0.623046875,0.7509765625
713,-0.0537109375,-0.6171875,0.7578125
714,-0.0556640625,-0.61328125,0.7421875
715,-0.056640625,-0.5947265625,0.7138671875
716,-0.05859375,-0.5908203125,0.716796875
717,-0.0654296875,-0.578125,0.6982421875
718,-0.0595703125,-0.5634765625,0.6943359375
719,-0.05859375,-0.546875,0.689453125
720,-0.0615234375,-0.5380859375,0.6904296875
721,-0.0498046875,-0.5224609375,0.71484375
722,-0.046875,-0.5068359375,0.7138671875
723,-0.033203125,-0.4873046875,0.736328125
724,-0.0185546875,-0.4677734375,0.744140625
725,-0.0068359375,-0.451171875,0.7734375
726,0.0009765625,-0.44140625,0.78515625
727,0.0087890625,-0.4296875,0.7783203125
728,0.013671875,-0.41796875,0.7431640625
729,0.013671875,-0.416015625,0.744140625
730,0.01953125,-0.4150390625,0.75390625
731,0.021484375,-0.412109375,0.736328125
732,0.03125,-0.40625,0.7158203125
733,0.044921875,-0.400390625,0.7041015625
734,0.0439453125,-0.3984375,0.697265625
735,0.037109375,-0.3896484375,0.693359375
736,0.0234375,-0.3779296875,0.6982421875
737,0.017578125,-0.3642578125,0.69140625
738,0.009765625,-0.353515625,0.6953125
739,0.0048828125,-0.34375,0.705078125
740,0.001953125,-0.3388671875,0.7197265625
741,0.0068359375,-0.328125,0.708984375
742,0.01171875,-0.3203125,0.728515625
743,0.021484375,-0.3115234375,0.728515625
744,0.025390625,-0.294921875,0.7138671875
745,0.025390625,-0.2841796875,0.7158203125
746,0.0302734375,-0.2822265625,0.7138671875
747,0.01953125,-0.2734375,0.720703125
748,0.0205078125,-0.2568359375,0.6962890625
749,0.025390625,-0.23828125,0.708984375
750,0.0341796875,-0.224609375,0.6767578125
751,0.033203125,-0.2041015625,0.673828125
752,0.0283203125,-0.1845703125,0.6796875
753,0.02734375,-0.1787109375,0.6845703125
754,0.029296875,-0.173828125,0.701171875
755,0.029296875,-0.1611328125,0.6689453125
756,0.021484375,-0.1533203125,0.662109375
757,0.017578125,-0.14453125,0.66015625
758,0.0166015625,-0.123046875,0.6630859375
759,0.01171875,-0.109375,0.6455078125
760,0.0087890625,-0.0888671875,0.6259765625
761,0.009765625,-0.052734375,0.595703125
762,0.005859375,-0.0302734375,0.5771484375
763,0.0068359375,-0.0029296875,0.5673828125
764,0.009765625,0.0205078125,0.5419921875
765,0.0224609375,0.048828125,0.501953125
766,0.0361328125,0.0654296875,0.451171875
767,0.04296875,0.0732421875,0.4150390625
768,0.0498046875,0.080078125,0.373046875
769,0.0517578125,0.0830078125,0.3369140625
770,0.0498046875,0.087890625,0.306640625
771,0.0498046875,0.0869140625,0.2734375
772,0.0322265625,0.0947265625,0.2353515625
773,0.037109375,0.10546875,0.1904296875
774,0.037109375,0.134765625,0.140625
775,0.0361328125,0.1611328125,0.083984375
776,0.03515625,0.18359375,0.03125
777,0.03125,0.201171875,-0.02734375
778,0.0224609375,0.2177734375,-0.06640625
779,0.0361328125,0.2255859375,-0.0908203125
780,0.013671875,0.23828125,-0.09375
781,-0.005859375,0.2578125,-0.0888671875
782,-0.0234375,0.271484375,-0.06640625
783,-0.0400390625,0.2783203125,-0.0322265625
784,-0.05859375,0.2646484375,-0.0126953125
785,-0.0615234375,0.2373046875,-0.0244140625
786,-0.0634765625,0.193359375,-0.0263671875
787,-0.0419921875,0.1103515625,-0.021484375
788,-0.0283203125,0.0498046875,-0.005859375
789,-0.0595703125,-0.01171875,0.0234375
790,-0.166015625,-0.0390625,0.05859375
791,-0.255859375,-0.001953125,0.1328125
792,0.07421875,0.1025390625,0.5361328125
793,0.2421875,0.2783203125,0.8837890625
794,0.09375,0.5859375,1.31640625
795,0.1689453125,0.9228515625,1.849609375
796,0.2763671875,1.3095703125,2.5322265625
797,-0.021484375,1.74609375,3.166015625
798,0.046875,2.087890625,3.900390625
799,0.2490234375,2.712890625,4.935546875
800,0.1279296875,3.3515625,5.2939453125
801,0.556640625,4.0986328125,5.828125
802,1.0380859375,4.5107421875,6.033203125
803,1.1083984375,3.9345703125,5.59765625
804,0.697265625,2.7509765625,4.53515625
805,0.2255859375,1.7373046875,3.17578125
806,-0.0869140625,0.798828125,1.689453125
807,-0.361328125,-0.0146484375,0.3818359375
808,-0.4814453125,-0.857421875,-0.7783203125
809,-0.4521484375,-1.6103515625,-1.345703125
810,-0.1123046875,-2.2392578125,-1.109375
811,0.017578125,-2.5185546875,-0.546875
812,-0.060546875,-2.931640625,0.4345703125
813,-0.111328125,-3.166015625,1.373046875
814,-0.2109375,-3.0673828125,2.208984375
815,-0.140625,-2.4599609375,2.8876953125
816,-0.1015625,-1.365234375,3.025390625
817,-0.080078125,-0.4716796875,2.9931640625
818,-0.03515625,0.3046875,2.9248046875
819,0.0654296875,1.015625,2.728515625
820,0.1044921875,1.7431640625,2.3857421875
821,-0.015625,2.3056640625,1.7666015625
822,-0.1259765625,2.43359375,1.0224609375
823,-0.11328125,2.2646484375,0.4775390625
824,0.0087890625,1.787109375,-0.1689453125
825,0.22265625,1.1748046875,-0.2021484375
826,0.2314453125,0.7314453125,0.0205078125
827,0.1650390625,0.34375,0.26953125
828,0.09765625,-0.0126953125,0.515625
829,0.0654296875,-0.2958984375,0.7138671875
830,0.0009765625,-0.4521484375,0.90234375
831,0.0546875,-0.7958984375,1.18359375
832,0.1083984375,-1.046875,1.1640625
833,0.076171875,-0.96484375,1.0283203125
834,0.05859375,-0.6982421875,0.765625
835,0.0185546875,-0.427734375,0.5791015625
836,0.009765625,-0.1962890625,0.5361328125
837,0.021484375,0.078125,0.52734375
838,0.06640625,0.28125,0.525390625
839,0.11328125,0.419921875,0.5283203125
840,0.15234375,0.5302734375,0.52734375
841,0.1826171875,0.6103515625,0.5185546875
842,0.189453125,0.6435546875,0.5126953125
843,0.1875,0.62109375,0.5009765625
844,0.16015625,0.580078125,0.501953125
845,0.134765625,0.5400390625,0.4892578125
846,0.095703125,0.4853515625,0.4794921875
847,0.0615234375,0.443359375,0.478515625
848,0.021484375,0.3955078125,0.513671875
849,-0.0185546875,0.359375,0.578125
850,-0.0517578125,0.2978515625,0.640625
851,-0.068359375,0.2548828125,0.71875
852,-0.0810546875,0.2158203125,0.8017578125
853,-0.0849609375,0.1953125,0.888671875
854,-0.0751953125,0.1865234375,0.9609375
855,-0.0751953125,0.189453125,1.0146484375
856,-0.0908203125,0.208984375,1.05078125
857,-0.0986328125,0.2236328125,1.080078125
858,-0.0966796875,0.2490234375,1.1015625
859,-0.080078125,0.2705078125,1.12890625
860,-0.083984375,0.28125,1.126953125
861,-0.1044921875,0.2861328125,1.1337890625
862,-0.12109375,0.2724609375,1.1669921875
863,-0.1298828125,0.23828125,1.2021484375
864,-0.1298828125,0.1962890625,1.25390625
865,-0.1279296875,0.1357421875,1.3046875
866,-0.1435546875,0.0732421875,1.3466796875
867,-0.1298828125,-0.0078125,1.388671875
868,-0.1123046875,-0.0888671875,1.4150390625
869,-0.0771484375,-0.1650390625,1.4384765625
870,-0.05078125,-0.22265625,1.4638671875
871,-0.041015625,-0.2841796875,1.490234375
872,-0.0361328125,-0.322265625,1.4892578125
873,-0.0263671875,-0.345703125,1.4814453125
874,-0.0166015625,-0.3505859375,1.451171875
875,-0.0107421875,-0.3447265625,1.412109375
876,-0.013671875,-0.337890625,1.373046875
877,-0.0166015625,-0.3076171875,1.326171875
878,-0.021484375,-0.2685546875,1.283203125
879,-0.021484375,-0.2265625,1.2236328125
880,-0.0244140625,-0.171875,1.177734375
881,-0.021484375,-0.134765625,1.111328125
882,-0.0087890625,-0.0849609375,1.0390625
883,0.0087890625,-0.056640625,0.9765625
884,0.0458984375,-0.03125,0.9033203125
885,0.0576171875,-0.01171875,0.8271484375
886,0.0625,-0.0146484375,0.7666015625
887,0.078125,-0.033203125,0.68359375
888,0.095703125,-0.052734375,0.69140625
889,0.091796875,-0.072265625,0.671875
890,0.09375,-0.095703125,0.6220703125
891,0.1044921875,-0.1201171875,0.57421875
892,0.029296875,-0.126953125,0.5986328125
893,-0.1015625,-0.1396484375,0.6826171875
894,-0.2119140625,-0.1669921875,0.7900390625
895,-0.24609375,-0.2080078125,0.8701171875
896,-0.2412109375,-0.24609375,0.94140625
897,-0.203125,-0.2646484375,0.9482421875
898,-0.1416015625,-0.2578125,0.931640625
899,-0.123046875,-0.203125,0.9111328125
900,-0.083984375,-0.177734375,0.9140625
901,-0.0244140625,-0.16015625,0.8974609375
902,0.0224609375,-0.13671875,0.857421875
903,0.015625,-0.11328125,0.83984375
904,-0.0048828125,-0.11328125,0.8251953125
905,-0.0263671875,-0.1181640625,0.8134765625
906,-0.037109375,-0.1708984375,0.8203125
907,-0.05078125,-0.2197265625,0.8427734375
908,-0.0439453125,-0.2568359375,0.861328125
909,-0.0439453125,-0.28515625,0.8896484375
910,-0.041015625,-0.283203125,0.900390625
911,-0.0556640625,-0.2802734375,0.9453125
912,-0.07421875,-0.2890625,0.9873046875
913,-0.0625,-0.2744140625,0.9794921875
914,-0.048828125,-0.2734375,0.994140625
915,-0.0263671875,-0.275390625,1.001953125
916,-0.021484375,-0.275390625,1.0087890625
917,-0.05859375,-0.267578125,1.0205078125
918,-0.0673828125,-0.267578125,1.0185546875
919,-0.07421875,-0.2861328125,1.0087890625
920,-0.072265625,-0.2890625,0.9833984375
921,-0.06640625,-0.2861328125,0.9619140625
922,-0.0771484375,-0.2998046875,0.955078125
923,-0.0595703125,-0.2890625,0.94921875
924,-0.0439453125,-0.287109375,0.9521484375
925,-0.0078125,-0.28515625,0.9462890625
926,-0.0478515625,-0.2578125,0.9794921875
927,-0.0693359375,-0.2431640625,1.0078125
928,-0.0166015625,-0.2197265625,0.99609375
929,-0.0419921875,-0.23828125,0.9912109375
930,-0.0400390625,-0.2294921875,1.0029296875
931,-0.046875,-0.2236328125,1.0087890625
932,-0.0615234375,-0.2177734375,1.013671875
933,-0.033203125,-0.228515625,1.0263671875
934,-0.0068359375,-0.19921875,1.00390625
935,-0.0244140625,-0.208984375,1.005859375
936,-0.0380859375,-0.189453125,1.0009765625
937,-0.099609375,-0.1455078125,0.9892578125
938,-0.1015625,-0.1650390625,0.9970703125
939,-0.060546875,-0.1416015625,0.9619140625
940,-0.0654296875,-0.1337890625,0.953125
941,-0.04296875,-0.130859375,0.9501953125
942,-0.044921875,-0.138671875,0.947265625
943,-0.056640625,-0.166015625,0.9755859375
944,-0.0126953125,-0.185546875,0.986328125
945,-0.00390625,-0.1953125,0.990234375
946,-0.00390625,-0.197265625,0.9990234375
947,0.013671875,-0.208984375,1.0185546875
948,0.0302734375,-0.21484375,1.0302734375
949,0.0224609375,-0.220703125,1.04296875
950,0.0068359375,-0.216796875,1.060546875
951,0.0078125,-0.203125,1.060546875
952,-0.00390625,-0.1962890625,1.0673828125
953,-0.015625,-0.2197265625,1.0869140625
954,0.0068359375,-0.193359375,1.048828125
955,-0.0087890625,-0.18359375,1.05859375
956,0.005859375,-0.18359375,1.0595703125
957,0.025390625,-0.1884765625,1.0615234375
958,0.0400390625,-0.1484375,1.017578125
959,0.0322265625,-0.125,1.0087890625
960,0.0419921875,-0.0986328125,0.98046875
961,0.0517578125,-0.072265625,0.9638671875
962,0.037109375,-0.048828125,0.955078125
963,-0.001953125,0.0126953125,0.9208984375
964,0.0244140625,0.0458984375,0.8466796875
965,0.0517578125,0.0244140625,0.837890625
966,0.0341796875,0.021484375,0.8828125
967,0.0419921875,-0.001953125,0.921875
968,0.03125,-0.0205078125,0.966796875
969,0.0205078125,-0.0712890625,1.001953125
970,0.01171875,-0.1083984375,1.0009765625
971,0.033203125,-0.212890625,1.03125
972,0.0029296875,-0.2060546875,1.0283203125
973,-0.0234375,-0.1875,1.0244140625
974,-0.03125,-0.1865234375,1.04296875
975,-0.046875,-0.171875,1.0615234375
976,-0.0478515625,-0.16015625,1.080078125
977,-0.0615234375,-0.14453125,1.0771484375
978,-0.06640625,-0.13671875,1.076171875
979,-0.078125,-0.1142578125,1.0615234375
980,-0.0771484375,-0.1015625,1.0595703125
981,-0.064453125,-0.087890625,1.052734375
982,-0.0546875,-0.056640625,1.0419921875
983,-0.05859375,-0.041015625,1.0224609375
984,-0.0625,-0.0263671875,0.994140625
985,-0.072265625,-0.0009765625,0.9853515625
986,-0.0791015625,0.01171875,0.96484375
987,-0.0849609375,0.041015625,0.96484375
988,-0.0888671875,0.048828125,0.96875
989,-0.080078125,0.0478515625,0.9736328125
990,-0.0849609375,0.041015625,0.9892578125
991,-0.076171875,0.037109375,1.0068359375
992,-0.0693359375,0.0244140625,1.0224609375
993,-0.0712890625,0.01953125,1.03125
994,-0.0703125,0.0078125,1.0341796875
995,-0.0654296875,0.0048828125,1.0341796875
996,-0.064453125,0.0048828125,1.029296875
997,-0.060546875,0.001953125,1.021484375
998,-0.0751953125,-0.0048828125,1.0
999,-0.0771484375,-0.0185546875,0.9833984375
1000,-0.0791015625,-0.025390625,0.9736328125
1001,-0.09375,-0.041015625,0.9619140625
1002,-0.0927734375,-0.0556640625,0.9501953125
1003,-0.1015625,-0.0634765625,0.955078125
1004,-0.08984375,-0.0791015625,0.958984375
1005,-0.0849609375,-0.087890625,0.97265625
1006,-0.0693359375,-0.1015625,0.986328125
1007,-0.0634765625,-0.11328125,1.0068359375
1008,-0.0556640625,-0.1201171875,1.01171875
1009,-0.041015625,-0.1279296875,1.0234375
1010,-0.037109375,-0.1318359375,1.033203125
1011,-0.0234375,-0.130859375,1.03125
1012,-0.0234375,-0.126953125,1.0322265625
1013,-0.017578125,-0.12109375,1.03125
1014,-0.017578125,-0.10546875,1.0302734375
1015,-0.017578125,-0.09375,1.03125
1016,-0.01953125,-0.08203125,1.029296875
1017,-0.015625,-0.0654296875,1.0244140625
1018,-0.0166015625,-0.0625,1.021484375
1019,-0.021484375,-0.048828125,1.0205078125
1020,-0.01953125,-0.0390625,1.01953125
1021,-0.0234375,-0.0341796875,1.0126953125
1022,-0.0205078125,-0.0302734375,1.0126953125
1023,-0.0185546875,-0.0302734375,1.0078125
1024,-0.021484375,-0.0283203125,1.001953125
1025,-0.0185546875,-0.0224609375,1.00390625
1026,-0.017578125,-0.0234375,1.0
1027,-0.0185546875,-0.0283203125,0.986328125
1028,-0.0146484375,-0.0302734375,0.990234375
1029,-0.013671875,-0.0322265625,0.984375
1030,-0.015625,-0.03515625,0.98046875
1031,-0.015625,-0.0400390625,0.9765625
1032,-0.01953125,-0.0419921875,0.9765625
1033,-0.01953125,-0.0439453125,0.97265625
1034,-0.0234375,-0.044921875,0.97265625
1035,-0.0234375,-0.041015625,0.9775390625
1036,-0.0263671875,-0.0439453125,0.98046875
1037,-0.0244140625,-0.044921875,0.9814453125
1038,-0.0244140625,-0.0390625,0.990234375
1039,-0.0224609375,-0.0380859375,0.994140625
1040,-0.03125,-0.0341796875,0.9990234375
1041,-0.03515625,-0.0361328125,0.9990234375
1042,-0.0361328125,-0.0419921875,1.001953125
1043,-0.037109375,-0.041015625,1.0029296875
1044,-0.041015625,-0.04296875,1.009765625
1045,-0.0380859375,-0.044921875,1.009765625
1046,-0.0380859375,-0.0400390625,1.013671875
1047,-0.041015625,-0.044921875,1.0146484375
1048,-0.0400390625,-0.052734375,1.0166015625
1049,-0.044921875,-0.05859375,1.0166015625
1050,-0.0419921875,-0.0576171875,1.0146484375
1051,-0.0390625,-0.0576171875,1.0146484375
1052,-0.041015625,-0.0556640625,1.0126953125
1053,-0.03515625,-0.060546875,1.0068359375
1054,-0.0361328125,-0.05859375,1.0048828125
1055,-0.0390625,-0.0595703125,1.0029296875
1056,-0.037109375,-0.0556640625,0.9990234375
1057,-0.0322265625,-0.0517578125,0.9970703125
1058,-0.03515625,-0.0537109375,0.9951171875
1059,-0.033203125,-0.05078125,0.986328125
1060,-0.0361328125,-0.048828125,0.986328125
1061,-0.029296875,-0.05078125,0.9912109375
1062,-0.0361328125,-0.052734375,0.98828125
1063,-0.029296875,-0.0556640625,0.9912109375
1064,-0.029296875,-0.0556640625,0.9921875
1065,-0.0263671875,-0.0537109375,0.9853515625
1066,-0.0322265625,-0.052734375,0.9892578125
1067,-0.0341796875,-0.0576171875,0.98828125
1068,-0.0283203125,-0.052734375,0.9921875
1069,-0.033203125,-0.0546875,0.994140625
1070,-0.03125,-0.0546875,0.99609375
1071,-0.029296875,-0.0478515625,0.9990234375
1072,-0.03125,-0.048828125,1.0
1073,-0.0390625,-0.037109375,0.9990234375
1074,-0.02734375,-0.0458984375,1.0107421875
1075,-0.0263671875,-0.0439453125,1.0078125
1076,-0.029296875,-0.044921875,1.0068359375
1077,-0.0283203125,-0.0439453125,1.0078125
1078,-0.0302734375,-0.0458984375,1.01171875
1079,-0.02734375,-0.0478515625,1.01171875
1080,-0.0322265625,-0.046875,1.0068359375
1081,-0.0283203125,-0.048828125,1.00390625
1082,-0.029296875,-0.0517578125,1.0068359375
1083,-0.033203125,-0.0556640625,1.0048828125
1084,-0.0263671875,-0.05078125,1.001953125
1085,-0.0322265625,-0.0478515625,1.0029296875
1086,-0.02734375,-0.044921875,1.00390625
1087,-0.025390625,-0.05078125,1.0009765625
1088,-0.0283203125,-0.0458984375,1.001953125
1089,-0.0234375,-0.0478515625,0.9951171875
1090,-0.0283203125,-0.0390625,0.9951171875
1091,-0.025390625,-0.0380859375,0.9970703125
1092,-0.0263671875,-0.0419921875,0.9970703125
1093,-0.0263671875,-0.041015625,0.994140625
1094,-0.0244140625,-0.0400390625,0.998046875
1095,-0.0263671875,-0.0419921875,0.9990234375
1096,-0.0263671875,-0.041015625,0.9990234375
1097,-0.025390625,-0.041015625,0.9990234375
1098,-0.02734375,-0.04296875,1.0009765625
1099,-0.0302734375,-0.046875,1.0009765625
1100,-0.02734375,-0.0458984375,1.0048828125
1101,-0.025390625,-0.041015625,1.0009765625
1102,-0.0224609375,-0.04296875,1.0
1103,-0.0234375,-0.0419921875,1.0029296875
1104,-0.0263671875,-0.046875,1.00390625
1105,-0.0263671875,-0.05078125,1.001953125
1106,-0.0283203125,-0.0458984375,0.9990234375
1107,-0.0283203125,-0.0517578125,1.00390625
1108,-0.02734375,-0.0537109375,1.0009765625
1109,-0.0234375,-0.0556640625,0.9970703125
1110,-0.025390625,-0.052734375,1.001953125
1111,-0.0283203125,-0.0556640625,0.99609375
1112,-0.025390625,-0.052734375,0.998046875
1113,-0.0322265625,-0.048828125,0.9951171875
1114,-0.0283203125,-0.046875,0.9912109375
1115,-0.0263671875,-0.04296875,1.0009765625
1116,-0.0234375,-0.0419921875,0.998046875
1117,-0.0234375,-0.044921875,1.0029296875
1118,-0.029296875,-0.044921875,0.99609375
1119,-0.0234375,-0.0400390625,1.0009765625
1120,-0.0244140625,-0.0439453125,0.9990234375
1121,-0.0224609375,-0.041015625,1.0
1122,-0.0224609375,-0.044921875,1.0029296875
1123,-0.0234375,-0.0419921875,1.00390625
1124,-0.0234375,-0.046875,1.0009765625
1125,-0.0205078125,-0.0458984375,1.00390625
1126,-0.01953125,-0.0439453125,1.0029296875
1127,-0.0234375,-0.0478515625,1.001953125
1128,-0.0234375,-0.0439453125,1.0009765625
1129,-0.021484375,-0.044921875,1.001953125
1130,-0.021484375,-0.0458984375,1.0009765625
1131,-0.021484375,-0.044921875,0.9990234375
1132,-0.0185546875,-0.0458984375,0.9990234375
1133,-0.0205078125,-0.04296875,0.9970703125
1134,-0.017578125,-0.044921875,0.9990234375
1135,-0.01953125,-0.044921875,0.99609375
1136,-0.015625,-0.0380859375,0.9912109375
1137,-0.0205078125,-0.041015625,0.99609375
1138,-0.0146484375,-0.041015625,0.9970703125
1139,-0.0185546875,-0.0390625,0.9931640625
1140,-0.0205078125,-0.041015625,1.0009765625
1141,-0.0234375,-0.0439453125,0.994140625
1142,-0.017578125,-0.044921875,0.9921875
1143,-0.021484375,-0.0439453125,0.9873046875
1144,-0.0234375,-0.0439453125,0.9951171875
1145,-0.021484375,-0.0419921875,0.994140625
1146,-0.0244140625,-0.0400390625,0.990234375
1147,-0.0263671875,-0.0439453125,0.9912109375
1148,-0.01953125,-0.0419921875,0.9892578125
1149,-0.0283203125,-0.0400390625,0.9873046875
1150,-0.0244140625,-0.03515625,0.9921875
1151,-0.0244140625,-0.0390625,0.9912109375
1152,-0.021484375,-0.0361328125,0.9912109375
1153,-0.021484375,-0.0361328125,0.9931640625
1154,-0.0224609375,-0.04296875,0.994140625
1155,-0.0244140625,-0.0419921875,0.9990234375
1156,-0.0244140625,-0.0498046875,0.99609375
1157,-0.0205078125,-0.05078125,0.9921875
1158,-0.0244140625,-0.044921875,1.0009765625
1159,-0.025390625,-0.04296875,0.9970703125
1160,-0.0234375,-0.0439453125,0.9990234375
1161,-0.0244140625,-0.04296875,0.9970703125
1162,-0.021484375,-0.0390625,0.998046875
1163,-0.0234375,-0.041015625,0.998046875
1164,-0.025390625,-0.0390625,1.001953125
1165,-0.0224609375,-0.0361328125,1.0009765625
1166,-0.0234375,-0.037109375,1.0
1167,-0.0244140625,-0.04296875,1.001953125
1168,-0.0263671875,-0.0400390625,1.0
1169,-0.029296875,-0.041015625,1.0
1170,-0.0341796875,-0.04296875,0.9951171875
1171,-0.0361328125,-0.0419921875,0.99609375
1172,-0.033203125,-0.0400390625,0.9912109375
1173,-0.0283203125,-0.03515625,0.9970703125
1174,-0.0263671875,-0.0390625,0.9970703125
1175,-0.02734375,-0.037109375,0.998046875
1176,-0.0302734375,-0.0400390625,0.9970703125
1177,-0.0234375,-0.0439453125,1.0009765625
1178,-0.0234375,-0.041015625,1.005859375
1179,-0.0244140625,-0.0439453125,1.0068359375
1180,-0.0244140625,-0.046875,1.001953125
1181,-0.0205078125,-0.048828125,1.0068359375
1182,-0.0205078125,-0.044921875,1.0048828125
1183,-0.0205078125,-0.0400390625,1.0029296875
1184,-0.0224609375,-0.0400390625,1.00390625
1185,-0.0234375,-0.03515625,1.0009765625
1186,-0.021484375,-0.0341796875,1.00390625
1187,-0.0234375,-0.0322265625,0.998046875
1188,-0.0185546875,-0.029296875,0.9990234375
1189,-0.0224609375,-0.0341796875,0.99609375
1190,-0.0234375,-0.029296875,1.0
1191,-0.0224609375,-0.0283203125,0.994140625
1192,-0.0234375,-0.03515625,1.0
1193,-0.0234375,-0.03515625,0.99609375
1194,-0.02734375,-0.0322265625,0.998046875
1195,-0.0234375,-0.03515625,0.998046875
1196,-0.021484375,-0.0361328125,1.0
1197,-0.0234375,-0.0400390625,1.0
1198,-0.0234375,-0.0341796875,1.0048828125
1199,-0.0244140625,-0.0390625,1.0029296875
1200,-0.025390625,-0.0380859375,1.0029296875
1201,-0.0224609375,-0.0341796875,1.0029296875
1202,-0.0234375,-0.03125,1.001953125
1203,-0.025390625,-0.0390625,1.0009765625
1204,-0.0263671875,-0.0322265625,1.00390625
1205,-0.025390625,-0.033203125,1.0029296875
1206,-0.025390625,-0.029296875,1.0029296875
1207,-0.0224609375,-0.0322265625,1.0
1208,-0.0224609375,-0.033203125,1.0
1209,-0.0263671875,-0.0322265625,1.0048828125
1210,-0.0283203125,-0.03125,1.001953125
1211,-0.029296875,-0.0283203125,1.001953125
1212,-0.01953125,-0.0302734375,0.998046875
1213,-0.02734375,-0.0361328125,1.0068359375
1214,-0.03125,-0.037109375,1.0009765625
1215,-0.0234375,-0.03125,0.998046875
1216,-0.0283203125,-0.03125,1.0
1217,-0.02734375,-0.0341796875,1.0009765625
1218,-0.0283203125,-0.0322265625,1.0048828125
1219,-0.03125,-0.0302734375,1.001953125
1220,-0.02734375,-0.0322265625,0.9931640625
1221,-0.029296875,-0.0341796875,1.0
1222,-0.03125,-0.03125,1.005859375
1223,-0.03515625,-0.0283203125,1.0009765625
1224,-0.0283203125,-0.0341796875,1.001953125
1225,-0.03125,-0.0283203125,1.0
1226,-0.03125,-0.029296875,0.998046875
1227,-0.0263671875,-0.0283203125,1.001953125
1228,-0.0263671875,-0.02734375,1.001953125
1229,-0.02734375,-0.029296875,0.9951171875
1230,-0.0263671875,-0.025390625,1.001953125
1231,-0.0263671875,-0.0244140625,1.0078125
1232,-0.0283203125,-0.025390625,1.0029296875
1233,-0.029296875,-0.025390625,1.0029296875
1234,-0.0283203125,-0.025390625,1.00390625
1235,-0.02734375,-0.03125,1.0048828125
1236,-0.021484375,-0.029296875,1.0068359375
1237,-0.025390625,-0.029296875,1.009765625
1238,-0.025390625,-0.03125,1.005859375
1239,-0.0244140625,-0.03125,1.0029296875
1240,-0.0263671875,-0.0341796875,1.0029296875
1241,-0.02734375,-0.033203125,1.0
1242,-0.0322265625,-0.029296875,1.0009765625
1243,-0.0283203125,-0.0302734375,1.00390625
1244,-0.0302734375,-0.0302734375,1.0048828125
1245,-0.02734375,-0.0302734375,1.001953125
1246,-0.03125,-0.0302734375,1.0009765625
1247,-0.0283203125,-0.0283203125,1.0009765625
1248,-0.0263671875,-0.0263671875,1.001953125
1249,-0.03125,-0.021484375,1.0048828125
1250,-0.0341796875,-0.0224609375,1.0087890625
1251,-0.0322265625,-0.0234375,1.0087890625
1252,-0.03125,-0.025390625,1.0078125
1253,-0.0302734375,-0.0263671875,1.0107421875
1254,-0.029296875,-0.025390625,1.0146484375
1255,-0.0302734375,-0.0263671875,1.0126953125
1256,-0.02734375,-0.02734375,1.0107421875
1257,-0.03515625,-0.0283203125,1.0107421875
1258,-0.025390625,-0.0302734375,1.0068359375
1259,-0.0283203125,-0.033203125,1.00390625
1260,-0.0283203125,-0.02734375,1.00390625
1261,-0.03125,-0.0283203125,1.001953125
1262,-0.029296875,-0.03515625,1.0009765625
1263,-0.0302734375,-0.03125,1.001953125
1264,-0.037109375,-0.03125,1.0009765625
1265,-0.0302734375,-0.03125,0.99609375
1266,-0.03125,-0.029296875,1.0
1267,-0.0341796875,-0.0283203125,0.9990234375
1268,-0.029296875,-0.02734375,0.998046875
1269,-0.0302734375,-0.021484375,0.9990234375
1270,-0.0322265625,-0.0234375,0.994140625
1271,-0.03125,-0.025390625,0.998046875
1272,-0.02734375,-0.02734375,0.9990234375
1273,-0.0322265625,-0.01953125,1.0009765625
1274,-0.0341796875,-0.0234375,1.0029296875
1275,-0.0361328125,-0.0263671875,1.001953125
1276,-0.0341796875,-0.01953125,1.001953125
1277,-0.037109375,-0.021484375,1.001953125
1278,-0.0361328125,-0.025390625,1.0048828125
1279,-0.0341796875,-0.0224609375,1.0068359375
1280,-0.0361328125,-0.025390625,0.9951171875
1281,-0.03125,-0.0244140625,1.0078125
1282,-0.03515625,-0.025390625,1.0068359375
1283,-0.0361328125,-0.029296875,1.0087890625
1284,-0.0380859375,-0.02734375,1.005859375
1285,-0.0322265625,-0.0263671875,1.0087890625
1286,-0.0302734375,-0.0283203125,1.0087890625
1287,-0.033203125,-0.02734375,1.0068359375
1288,-0.0361328125,-0.0244140625,1.0029296875
1289,-0.0341796875,-0.0224609375,1.0068359375
1290,-0.037109375,-0.0244140625,1.001953125
1291,-0.0390625,-0.017578125,1.005859375
1292,-0.0361328125,-0.01953125,1.0029296875
1293,-0.0361328125,-0.0205078125,1.0
1294,-0.037109375,-0.0234375,0.9990234375
1295,-0.037109375,-0.0224609375,1.00390625
1296,-0.037109375,-0.0244140625,1.0048828125
1297,-0.037109375,-0.0234375,1.0009765625
1298,-0.033203125,-0.0263671875,1.001953125
1299,-0.0361328125,-0.0283203125,1.0009765625
1300,-0.0380859375,-0.029296875,1.00390625
1301,-0.0361328125,-0.029296875,1.0
1302,-0.0380859375,-0.0234375,1.0009765625
1303,-0.037109375,-0.0244140625,1.005859375
1304,-0.0361328125,-0.02734375,1.0029296875
1305,-0.0361328125,-0.021484375,1.0068359375
1306,-0.0341796875,-0.0185546875,1.001953125
1307,-0.037109375,-0.0205078125,1.0029296875
1308,-0.0341796875,-0.015625,1.0048828125
1309,-0.0380859375,-0.0166015625,1.0029296875
1310,-0.037109375,-0.0146484375,1.0048828125
1311,-0.0390625,-0.01171875,1.0029296875
1312,-0.037109375,-0.013671875,1.00390625
1313,-0.041015625,-0.0185546875,1.0048828125
1314,-0.0361328125,-0.0166015625,1.005859375
1315,-0.0380859375,-0.021484375,1.0078125
1316,-0.037109375,-0.0224609375,1.009765625
1317,-0.0361328125,-0.0244140625,1.013671875
1318,-0.041015625,-0.025390625,1.0048828125
1319,-0.033203125,-0.025390625,1.0068359375
1320,-0.037109375,-0.029296875,1.0
1321,-0.0361328125,-0.02734375,1.0009765625
1322,-0.0341796875,-0.0234375,1.0
1323,-0.0380859375,-0.0234375,0.9970703125
1324,-0.03515625,-0.0205078125,0.9931640625
1325,-0.033203125,-0.0205078125,0.9873046875
1326,-0.0322265625,-0.015625,0.9873046875
1327,-0.037109375,-0.013671875,0.9951171875
1328,-0.0419921875,-0.017578125,1.0009765625
1329,-0.0400390625,-0.01171875,0.9951171875
1330,-0.0380859375,-0.013671875,0.9970703125
1331,-0.0400390625,-0.0166015625,1.001953125
1332,-0.0380859375,-0.0185546875,1.00390625
1333,-0.0400390625,-0.0166015625,1.0087890625
1334,-0.0419921875,-0.015625,1.0068359375
1335,-0.0390625,-0.0224609375,1.00390625
1336,-0.0419921875,-0.021484375,1.0078125
1337,-0.0439453125,-0.0224609375,1.0087890625
1338,-0.0419921875,-0.0205078125,1.013671875
1339,-0.0439453125,-0.0205078125,1.0107421875
1340,-0.041015625,-0.021484375,1.01171875
1341,-0.044921875,-0.0234375,1.013671875
1342,-0.048828125,-0.021484375,1.0087890625
1343,-0.0478515625,-0.0224609375,1.01171875
1344,-0.046875,-0.0205078125,1.005859375
1345,-0.048828125,-0.0146484375,1.0048828125
1346,-0.0478515625,-0.015625,1.0048828125
1347,-0.046875,-0.021484375,0.998046875
1348,-0.048828125,-0.01953125,1.001953125
1349,-0.0498046875,-0.0205078125,1.00390625
1350,-0.0478515625,-0.021484375,1.00390625
1351,-0.0458984375,-0.017578125,1.001953125
1352,-0.046875,-0.015625,1.0
1353,-0.044921875,-0.0166015625,0.9990234375
1354,-0.044921875,-0.021484375,1.0009765625
1355,-0.0458984375,-0.0146484375,1.001953125
1356,-0.048828125,-0.01953125,1.005859375
1357,-0.0458984375,-0.0185546875,1.0009765625
1358,-0.0458984375,-0.0146484375,1.0048828125
1359,-0.04296875,-0.0224609375,1.00390625
1360,-0.044921875,-0.0146484375,1.0009765625
1361,-0.04296875,-0.015625,1.005859375
1362,-0.0458984375,-0.01953125,1.005859375
1363,-0.0439453125,-0.0234375,1.0068359375
1364,-0.04296875,-0.0166015625,1.0048828125
1365,-0.0458984375,-0.0146484375,1.00390625
1366,-0.0419921875,-0.0185546875,1.0068359375
1367,-0.0439453125,-0.017578125,1.0078125
1368,-0.046875,-0.0185546875,1.0068359375
1369,-0.0419921875,-0.015625,1.0078125
1370,-0.04296875,-0.0185546875,1.0048828125
1371,-0.041015625,-0.015625,1.0068359375
1372,-0.041015625,-0.0126953125,1.0087890625
1373,-0.0458984375,-0.0185546875,1.0107421875
1374,-0.04296875,-0.0166015625,1.01171875
1375,-0.0458984375,-0.0166015625,1.009765625
1376,-0.0439453125,-0.01953125,1.01171875
1377,-0.041015625,-0.01953125,1.0048828125
1378,-0.0439453125,-0.0224609375,1.0048828125
1379,-0.046875,-0.02734375,1.005859375
1380,-0.044921875,-0.021484375,0.9931640625
1381,-0.044921875,-0.0263671875,1.00390625
1382,-0.0458984375,-0.017578125,1.00390625
1383,-0.048828125,-0.01953125,1.0068359375
1384,-0.0390625,-0.015625,1.0
1385,-0.046875,-0.021484375,1.0009765625
1386,-0.0478515625,-0.0234375,1.0029296875
1387,-0.0439453125,-0.017578125,0.9990234375
1388,-0.044921875,-0.0166015625,1.0009765625
1389,-0.046875,-0.021484375,1.0009765625
1390,-0.048828125,-0.021484375,1.001953125
1391,-0.0419921875,-0.015625,1.0
1392,-0.0419921875,-0.017578125,0.9990234375
1393,-0.0458984375,-0.01953125,0.9970703125
1394,-0.044921875,-0.01953125,1.0048828125
1395,-0.0439453125,-0.0244140625,1.00390625
1396,-0.04296875,-0.0146484375,1.0029296875
1397,-0.041015625,-0.015625,1.0068359375
1398,-0.04296875,-0.0205078125,1.00390625
1399,-0.0517578125,-0.017578125,1.005859375
1400,-0.046875,-0.0185546875,1.00390625
1401,-0.0439453125,-0.0185546875,1.005859375
1402,-0.046875,-0.015625,1.0009765625
1403,-0.0458984375,-0.0166015625,1.00390625
1404,-0.041015625,-0.017578125,1.009765625
1405,-0.05078125,-0.0234375,1.0078125
1406,-0.0498046875,-0.0244140625,1.0048828125
1407,-0.0400390625,-0.0166015625,1.0029296875
1408,-0.048828125,-0.0234375,1.00390625
1409,-0.04296875,-0.0234375,1.0029296875
1410,-0.0439453125,-0.0224609375,1.001953125
1411,-0.044921875,-0.0224609375,1.0029296875
1412,-0.0439453125,-0.0244140625,1.0029296875
1413,-0.0419921875,-0.0234375,1.0029296875
1414,-0.0478515625,-0.0185546875,1.005859375
1415,-0.0419921875,-0.0185546875,0.998046875
1416,-0.0439453125,-0.0205078125,1.005859375
1417,-0.044921875,-0.01953125,1.0078125
1418,-0.0400390625,-0.017578125,1.0029296875
1419,-0.041015625,-0.017578125,1.0009765625
1420,-0.048828125,-0.017578125,1.00390625
1421,-0.04296875,-0.0205078125,1.0
1422,-0.0390625,-0.01953125,1.0048828125
1423,-0.0361328125,-0.01953125,1.0009765625
1424,-0.041015625,-0.01953125,1.0
1425,-0.0419921875,-0.017578125,1.0048828125
1426,-0.0478515625,-0.021484375,1.00390625
1427,-0.044921875,-0.021484375,1.0048828125
1428,-0.0439453125,-0.01953125,1.00390625
1429,-0.0419921875,-0.0234375,1.0048828125
1430,-0.0400390625,-0.021484375,1.0009765625
1431,-0.0419921875,-0.017578125,1.0048828125
1432,-0.0419921875,-0.0224609375,1.0048828125
1433,-0.0439453125,-0.015625,1.0029296875
1434,-0.0400390625,-0.0185546875,1.0087890625
1435,-0.04296875,-0.015625,1.0068359375
1436,-0.0439453125,-0.0166015625,1.0048828125
1437,-0.048828125,-0.0146484375,1.009765625
1438,-0.046875,-0.0126953125,1.009765625
1439,-0.046875,-0.0146484375,1.0078125
1440,-0.0458984375,-0.01953125,1.0107421875
1441,-0.0458984375,-0.0244140625,1.009765625
1442,-0.04296875,-0.0244140625,1.0068359375
1443,-0.046875,-0.0224609375,1.0078125
1444,-0.0517578125,-0.021484375,1.013671875
1445,-0.044921875,-0.0205078125,1.0087890625
1446,-0.0478515625,-0.01953125,1.0048828125
1447,-0.0439453125,-0.013671875,1.0107421875
1448,-0.0458984375,-0.017578125,1.0048828125
1449,-0.0478515625,-0.01171875,1.0087890625
1450,-0.046875,-0.013671875,1.0087890625
1451,-0.0458984375,-0.0146484375,1.0068359375
1452,-0.0419921875,-0.021484375,1.0107421875
1453,-0.041015625,-0.0166015625,1.0107421875
1454,-0.0478515625,-0.0234375,1.009765625
1455,-0.0458984375,-0.02734375,1.015625
1456,-0.0390625,-0.0283203125,1.009765625
1457,-0.04296875,-0.029296875,1.009765625
1458,-0.044921875,-0.0302734375,1.009765625
1459,-0.04296875,-0.029296875,1.0068359375
1460,-0.044921875,-0.0185546875,1.01171875
1461,-0.0400390625,-0.025390625,1.005859375
1462,-0.0419921875,-0.029296875,1.0048828125
1463,-0.0419921875,-0.0283203125,1.0009765625
1464,-0.041015625,-0.0224609375,0.998046875
1465,-0.0380859375,-0.0224609375,1.001953125
1466,-0.0419921875,-0.021484375,1.0
1467,-0.0478515625,-0.0224609375,1.001953125
1468,-0.0419921875,-0.021484375,0.998046875
1469,-0.044921875,-0.0263671875,1.001953125
1470,-0.0380859375,-0.025390625,0.998046875
1471,-0.0390625,-0.02734375,1.0029296875
1472,-0.041015625,-0.03125,0.9970703125
1473,-0.041015625,-0.0341796875,1.01171875
1474,-0.0478515625,-0.037109375,1.0107421875
1475,-0.0478515625,-0.0390625,1.01171875
1476,-0.044921875,-0.0400390625,1.0048828125
1477,-0.0458984375,-0.041015625,1.0029296875
1478,-0.04296875,-0.0361328125,1.0009765625
1479,-0.037109375,-0.0390625,1.0009765625
1480,-0.041015625,-0.0283203125,0.9931640625
1481,-0.0439453125,-0.0322265625,0.994140625
1482,-0.041015625,-0.0234375,0.9970703125
1483,-0.0400390625,-0.0234375,0.9970703125
1484,-0.0390625,-0.0185546875,0.998046875
1485,-0.0390625,-0.0224609375,0.994140625
1486,-0.0361328125,-0.0263671875,0.998046875
1487,-0.03515625,-0.025390625,1.001953125
1488,-0.0400390625,-0.029296875,1.0068359375
1489,-0.0390625,-0.0283203125,1.00390625
1490,-0.0400390625,-0.0322265625,1.0078125
1491,-0.0380859375,-0.0361328125,1.00390625
1492,-0.0390625,-0.037109375,1.0078125
1493,-0.04296875,-0.0361328125,1.009765625
1494,-0.0419921875,-0.0419921875,1.0087890625
1495,-0.0419921875,-0.0390625,1.005859375
1496,-0.0390625,-0.0400390625,1.0087890625
1497,-0.04296875,-0.0361328125,1.0068359375
1498,-0.037109375,-0.0390625,1.005859375
1499,-0.041015625,-0.03515625,1.0029296875
1500,-0.0419921875,-0.0302734375,1.0029296875
1501,-0.041015625,-0.03515625,1.0
1502,-0.0390625,-0.0322265625,1.0029296875
1503,-0.0400390625,-0.0302734375,1.00390625
1504,-0.041015625,-0.029296875,1.00390625
1505,-0.0380859375,-0.03125,1.0009765625
1506,-0.04296875,-0.03125,1.0078125
1507,-0.041015625,-0.0361328125,1.001953125
1508,-0.037109375,-0.0341796875,1.001953125
1509,-0.0400390625,-0.0390625,1.0009765625
1510,-0.0439453125,-0.0390625,0.998046875
1511,-0.037109375,-0.03515625,0.998046875
1512,-0.0322265625,-0.0380859375,1.0009765625
1513,-0.0341796875,-0.0390625,1.001953125
1514,-0.037109375,-0.0341796875,1.00390625
1515,-0.037109375,-0.037109375,1.001953125
1516,-0.03515625,-0.0390625,0.9990234375
1517,-0.03515625,-0.0400390625,1.0
1518,-0.0380859375,-0.033203125,1.0009765625
1519,-0.0322265625,-0.0341796875,1.0029296875
1520,-0.037109375,-0.0283203125,0.9951171875
1521,-0.03125,-0.0361328125,1.0
1522,-0.0341796875,-0.0390625,0.998046875
1523,-0.03515625,-0.03515625,1.0009765625
1524,-0.0283203125,-0.0390625,1.0009765625
1525,-0.029296875,-0.0341796875,1.0009765625
1526,-0.0380859375,-0.037109375,1.0009765625
1527,-0.0361328125,-0.0341796875,1.0009765625
1528,-0.03125,-0.0302734375,0.99609375
1529,-0.02734375,-0.033203125,1.001953125
1530,-0.033203125,-0.0361328125,0.998046875
1531,-0.03125,-0.033203125,1.001953125
1532,-0.0341796875,-0.037109375,1.0068359375
1533,-0.03125,-0.0400390625,1.005859375
1534,-0.029296875,-0.037109375,1.001953125
1535,-0.033203125,-0.0439453125,1.0
1536,-0.03515625,-0.046875,1.001953125
1537,-0.0322265625,-0.0400390625,0.9970703125
1538,-0.037109375,-0.0419921875,1.001953125
1539,-0.0361328125,-0.0419921875,0.9951171875
1540,-0.0361328125,-0.04296875,0.9990234375
1541,-0.0302734375,-0.03515625,1.0
1542,-0.0322265625,-0.0390625,1.0
1543,-0.0283203125,-0.0361328125,0.998046875
1544,-0.0341796875,-0.0361328125,1.001953125
1545,-0.0322265625,-0.03515625,0.9970703125
1546,-0.033203125,-0.0361328125,1.001953125
1547,-0.033203125,-0.0439453125,0.9990234375
1548,-0.0361328125,-0.037109375,1.001953125
1549,-0.0341796875,-0.0390625,1.00390625
1550,-0.0322265625,-0.041015625,1.0029296875
1551,-0.03125,-0.0400390625,1.0029296875
1552,-0.029296875,-0.0361328125,1.005859375
1553,-0.0283203125,-0.041015625,1.00390625
1554,-0.029296875,-0.0458984375,1.0009765625
1555,-0.025390625,-0.04296875,1.0068359375
1556,-0.0322265625,-0.041015625,1.0078125
1557,-0.0302734375,-0.041015625,1.00390625
1558,-0.0302734375,-0.0400390625,1.0029296875
1559,-0.029296875,-0.04296875,1.001953125
1560,-0.02734375,-0.0400390625,1.001953125
1561,-0.033203125,-0.0439453125,1.0009765625
1562,-0.0234375,-0.037109375,0.9990234375
1563,-0.0283203125,-0.0400390625,1.0009765625
1564,-0.025390625,-0.04296875,1.0
1565,-0.0263671875,-0.0380859375,1.0009765625
1566,-0.03125,-0.0380859375,1.0
1567,-0.0244140625,-0.0390625,1.0
1568,-0.0283203125,-0.0400390625,0.9951171875
1569,-0.0244140625,-0.041015625,1.0009765625
1570,-0.025390625,-0.0390625,0.99609375
1571,-0.0302734375,-0.0400390625,0.9990234375
1572,-0.0302734375,-0.0380859375,0.9990234375
1573,-0.0244140625,-0.0400390625,0.9970703125
1574,-0.0263671875,-0.0419921875,1.0029296875
1575,-0.01953125,-0.037109375,1.0
1576,-0.0283203125,-0.041015625,1.0048828125
1577,-0.0283203125,-0.0419921875,1.00390625
1578,-0.0263671875,-0.0400390625,0.9990234375
1579,-0.0263671875,-0.0400390625,1.001953125
1580,-0.0283203125,-0.0390625,1.00390625
1581,-0.025390625,-0.044921875,1.0009765625
1582,-0.02734375,-0.0361328125,1.0048828125
1583,-0.03125,-0.04296875,1.001953125
1584,-0.02734375,-0.041015625,1.00390625
1585,-0.0244140625,-0.0361328125,1.005859375
1586,-0.0234375,-0.04296875,1.0029296875
1587,-0.0234375,-0.0400390625,1.005859375
1588,-0.0244140625,-0.0400390625,1.00390625
1589,-0.0224609375,-0.0380859375,1.0029296875
1590,-0.0224609375,-0.03515625,1.0048828125
1591,-0.02734375,-0.037109375,1.00390625
1592,-0.0263671875,-0.0419921875,1.0009765625
1593,-0.025390625,-0.0400390625,1.001953125
1594,-0.0322265625,-0.0439453125,1.0009765625
1595,-0.0244140625,-0.04296875,1.0
1596,-0.025390625,-0.044921875,0.9970703125
1597,-0.02734375,-0.0439453125,0.998046875
1598,-0.025390625,-0.0439453125,0.9931640625
1599,-0.0244140625,-0.041015625,0.998046875
1600,-0.025390625,-0.041015625,1.0
1601,-0.025390625,-0.0419921875,0.998046875
1602,-0.033203125,-0.037109375,0.9990234375
1603,-0.0263671875,-0.037109375,1.0
1604,-0.0205078125,-0.037109375,0.998046875
1605,-0.025390625,-0.0390625,0.998046875
1606,-0.029296875,-0.0400390625,0.9990234375
1607,-0.01953125,-0.0419921875,1.0
1608,-0.0234375,-0.044921875,0.9990234375
1609,-0.0234375,-0.044921875,1.0
1610,-0.025390625,-0.04296875,1.0009765625
1611,-0.021484375,-0.041015625,0.99609375
1612,-0.0244140625,-0.0439453125,1.0009765625
1613,-0.0234375,-0.0380859375,0.998046875
1614,-0.0234375,-0.0380859375,1.0
1615,-0.025390625,-0.0390625,0.9921875
1616,-0.021484375,-0.037109375,0.9990234375
1617,-0.01953125,-0.0380859375,0.9970703125
1618,-0.017578125,-0.0400390625,0.998046875
1619,-0.021484375,-0.041015625,0.9990234375
1620,-0.021484375,-0.0439453125,0.9873046875
1621,-0.021484375,-0.041015625,0.99609375
1622,-0.0302734375,-0.0419921875,0.982421875
1623,-0.0283203125,-0.04296875,0.984375
1624,-0.02734375,-0.0400390625,0.982421875
1625,-0.0234375,-0.0390625,0.9833984375
1626,-0.0234375,-0.03515625,0.986328125
1627,-0.0244140625,-0.03515625,0.9912109375
1628,-0.0234375,-0.0380859375,0.9931640625
1629,-0.0244140625,-0.04296875,0.9990234375
1630,-0.0205078125,-0.04296875,0.9990234375
1631,-0.0224609375,-0.0419921875,1.001953125
1632,-0.01953125,-0.0419921875,0.9990234375
1633,-0.01953125,-0.041015625,0.990234375
1634,-0.0234375,-0.0390625,1.00390625
1635,-0.021484375,-0.0361328125,0.9970703125
1636,-0.0205078125,-0.0341796875,0.994140625
1637,-0.0244140625,-0.03125,0.9931640625
1638,-0.0224609375,-0.0322265625,0.990234375
1639,-0.025390625,-0.0322265625,0.998046875
1640,-0.0234375,-0.0302734375,0.9990234375
1641,-0.0234375,-0.0302734375,0.9970703125
1642,-0.0234375,-0.03125,0.998046875
1643,-0.0234375,-0.03125,1.001953125
1644,-0.0244140625,-0.033203125,0.9990234375
1645,-0.0234375,-0.0390625,1.0009765625
1646,-0.0263671875,-0.0380859375,0.99609375
1647,-0.0244140625,-0.03515625,1.0029296875
1648,-0.0244140625,-0.037109375,1.0029296875
1649,-0.0234375,-0.03125,1.005859375
1650,-0.0234375,-0.0322265625,1.005859375
1651,-0.0224609375,-0.0361328125,1.0048828125
1652,-0.0244140625,-0.0380859375,1.0048828125
1653,-0.021484375,-0.0361328125,1.0048828125
1654,-0.01953125,-0.0341796875,1.0009765625
1655,-0.021484375,-0.0341796875,1.0087890625
1656,-0.0244140625,-0.0361328125,1.001953125
1657,-0.0244140625,-0.03125,1.0068359375
1658,-0.0234375,-0.0380859375,1.0009765625
1659,-0.0302734375,-0.037109375,1.0048828125
1660,-0.0263671875,-0.0341796875,1.0048828125
1661,-0.025390625,-0.0380859375,1.0029296875
1662,-0.0244140625,-0.033203125,1.00390625
1663,-0.025390625,-0.0400390625,1.0009765625
1664,-0.03125,-0.0380859375,0.998046875
1665,-0.0234375,-0.03515625,1.001953125
1666,-0.02734375,-0.037109375,0.9990234375
1667,-0.0234375,-0.0302734375,1.0
1668,-0.0244140625,-0.03515625,0.9990234375
1669,-0.0244140625,-0.033203125,0.99609375
1670,-0.02734375,-0.037109375,1.0009765625
1671,-0.02734375,-0.0283203125,1.0078125
1672,-0.0263671875,-0.0380859375,0.9970703125
1673,-0.0234375,-0.0361328125,1.0
1674,-0.0283203125,-0.033203125,1.0009765625
1675,-0.0234375,-0.0322265625,1.0029296875
1676,-0.0263671875,-0.033203125,1.0009765625
1677,-0.02734375,-0.033203125,1.00390625
1678,-0.029296875,-0.03515625,1.00390625
1679,-0.0224609375,-0.0322265625,1.001953125
1680,-0.02734375,-0.0263671875,1.0048828125
1681,-0.0263671875,-0.029296875,1.0009765625
1682,-0.0263671875,-0.029296875,1.0
1683,-0.025390625,-0.0263671875,1.0009765625
1684,-0.0263671875,-0.03125,1.0029296875
1685,-0.0263671875,-0.0302734375,1.0009765625
1686,-0.0263671875,-0.0322265625,1.00390625
1687,-0.0263671875,-0.0302734375,1.001953125
1688,-0.025390625,-0.03125,1.0009765625
1689,-0.02734375,-0.03515625,1.001953125
1690,-0.025390625,-0.033203125,0.998046875
1691,-0.03125,-0.037109375,1.0048828125
1692,-0.02734375,-0.0341796875,1.00390625
1693,-0.03125,-0.0341796875,1.0009765625
1694,-0.0263671875,-0.0361328125,1.0
1695,-0.0322265625,-0.03515625,1.001953125
1696,-0.0263671875,-0.033203125,1.0029296875
1697,-0.0322265625,-0.0302734375,0.9990234375
1698,-0.0302734375,-0.03125,1.0048828125
1699,-0.02734375,-0.029296875,1.005859375
1700,-0.025390625,-0.03125,1.00390625
1701,-0.0302734375,-0.0263671875,1.0029296875
1702,-0.0283203125,-0.0283203125,1.0029296875
1703,-0.0263671875,-0.029296875,1.0087890625
1704,-0.0283203125,-0.0302734375,1.00390625
1705,-0.033203125,-0.0341796875,1.0048828125
1706,-0.02734375,-0.033203125,1.0048828125
1707,-0.0283203125,-0.0341796875,1.00390625
1708,-0.0244140625,-0.0361328125,1.00390625
1709,-0.0244140625,-0.029296875,1.0087890625
1710,-0.0263671875,-0.02734375,1.005859375
1711,-0.029296875,-0.0322265625,1.001953125
1712,-0.0302734375,-0.0322265625,1.0029296875
1713,-0.0263671875,-0.0283203125,1.0048828125
1714,-0.03515625,-0.0263671875,1.0029296875
1715,-0.0322265625,-0.02734375,1.005859375
1716,-0.0234375,-0.02734375,1.0029296875
1717,-0.03125,-0.0302734375,1.0009765625
1718,-0.0302734375,-0.0302734375,1.0
1719,-0.02734375,-0.033203125,1.0009765625
1720,-0.0302734375,-0.0283203125,0.9990234375
1721,-0.02734375,-0.029296875,0.9990234375
1722,-0.029296875,-0.0322265625,1.0
1723,-0.0283203125,-0.0341796875,1.0009765625
1724,-0.03125,-0.03515625,1.0009765625
1725,-0.0263671875,-0.0302734375,1.0009765625
1726,-0.02734375,-0.033203125,1.0
1727,-0.0263671875,-0.0302734375,1.0029296875
1728,-0.0283203125,-0.0302734375,1.00390625
1729,-0.02734375,-0.029296875,1.001953125
1730,-0.03125,-0.029296875,1.0009765625
1731,-0.0263671875,-0.0302734375,1.0
1732,-0.02734375,-0.0322265625,1.0029296875
1733,-0.03125,-0.03125,1.0068359375
1734,-0.025390625,-0.0322265625,1.0068359375
1735,-0.03125,-0.03125,1.0048828125
1736,-0.03125,-0.0283203125,1.005859375
1737,-0.02734375,-0.0322265625,1.0048828125
1738,-0.033203125,-0.0322265625,1.0048828125
1739,-0.0263671875,-0.03125,1.005859375
1740,-0.0283203125,-0.0263671875,1.0068359375
1741,-0.029296875,-0.0234375,1.0009765625
1742,-0.0263671875,-0.0263671875,1.001953125
1743,-0.02734375,-0.02734375,1.0
1744,-0.0283203125,-0.029296875,1.0009765625
1745,-0.0283203125,-0.0322265625,1.0009765625
1746,-0.0302734375,-0.0302734375,1.0009765625
1747,-0.0263671875,-0.0322265625,1.0
1748,-0.02734375,-0.0322265625,1.0009765625
1749,-0.0302734375,-0.0302734375,1.0029296875
1750,-0.037109375,-0.02734375,1.0009765625
1751,-0.03515625,-0.03125,1.001953125
1752,-0.03125,-0.0263671875,1.0029296875
1753,-0.029296875,-0.0302734375,1.0
1754,-0.0283203125,-0.025390625,1.0029296875
1755,-0.029296875,-0.0283203125,1.0048828125
1756,-0.029296875,-0.02734375,1.0048828125
1757,-0.02734375,-0.02734375,1.00390625
1758,-0.0263671875,-0.0244140625,1.0068359375
1759,-0.025390625,-0.029296875,1.009765625
1760,-0.0302734375,-0.0302734375,1.0078125
1761,-0.0322265625,-0.03515625,1.009765625
1762,-0.0302734375,-0.0341796875,1.0087890625
1763,-0.0283203125,-0.02734375,1.0068359375
1764,-0.033203125,-0.033203125,1.0029296875
1765,-0.03125,-0.033203125,1.005859375
1766,-0.02734375,-0.03515625,1.0
1767,-0.0322265625,-0.0380859375,1.0029296875
1768,-0.033203125,-0.0322265625,1.0
1769,-0.033203125,-0.0322265625,1.0009765625
1770,-0.02734375,-0.029296875,0.9990234375
1771,-0.033203125,-0.02734375,0.9990234375
1772,-0.03125,-0.0234375,0.9970703125
1773,-0.0341796875,-0.025390625,0.998046875
1774,-0.0361328125,-0.0234375,0.9931640625
1775,-0.0361328125,-0.0224609375,0.99609375
1776,-0.033203125,-0.0263671875,1.0
1777,-0.0283203125,-0.021484375,1.0009765625
1778,-0.033203125,-0.0244140625,1.0
1779,-0.037109375,-0.02734375,1.0048828125
1780,-0.0322265625,-0.029296875,1.0068359375
1781,-0.0341796875,-0.03515625,1.009765625
1782,-0.0361328125,-0.03125,1.0107421875
1783,-0.03515625,-0.0361328125,1.00390625
1784,-0.0322265625,-0.03515625,1.005859375
1785,-0.0322265625,-0.029296875,0.994140625
1786,-0.0302734375,-0.033203125,1.0009765625
1787,-0.0302734375,-0.029296875,0.994140625
1788,-0.0283203125,-0.02734375,0.9970703125
1789,-0.03125,-0.0283203125,0.9990234375
1790,-0.0302734375,-0.0283203125,0.9892578125
1791,-0.0322265625,-0.0234375,0.994140625
1792,-0.0322265625,-0.0234375,0.99609375
1793,-0.0361328125,-0.0224609375,1.0
1794,-0.033203125,-0.021484375,1.0
1795,-0.037109375,-0.0185546875,1.0029296875
1796,-0.033203125,-0.017578125,0.9990234375
1797,-0.0361328125,-0.0234375,1.0029296875
1798,-0.03125,-0.0224609375,1.0078125
1799,-0.03515625,-0.0244140625,1.0087890625
1800,-0.037109375,-0.0263671875,1.0068359375
1801,-0.033203125,-0.025390625,1.0087890625
1802,-0.0361328125,-0.0283203125,1.0126953125
1803,-0.0380859375,-0.025390625,1.005859375
1804,-0.033203125,-0.03125,1.0126953125
1805,-0.029296875,-0.02734375,1.009765625
1806,-0.0361328125,-0.0263671875,1.01171875
1807,-0.03515625,-0.03125,1.0068359375
1808,-0.03515625,-0.03125,1.009765625
1809,-0.0322265625,-0.0244140625,1.0078125
1810,-0.03515625,-0.0283203125,1.009765625
1811,-0.0361328125,-0.0224609375,1.0009765625
1812,-0.0341796875,-0.025390625,1.0068359375
1813,-0.037109375,-0.029296875,1.0009765625
1814,-0.0380859375,-0.0263671875,1.0
1815,-0.0361328125,-0.03125,0.998046875
1816,-0.0380859375,-0.029296875,1.0009765625
1817,-0.0341796875,-0.0302734375,1.005859375
1818,-0.0380859375,-0.0302734375,1.0029296875
1819,-0.0390625,-0.0263671875,1.00390625
1820,-0.0361328125,-0.0302734375,0.9951171875
1821,-0.0341796875,-0.0234375,1.0009765625
1822,-0.037109375,-0.025390625,1.00390625
1823,-0.037109375,-0.0263671875,1.0126953125
1824,-0.0341796875,-0.02734375,1.00390625
1825,-0.0361328125,-0.029296875,1.0029296875
1826,-0.0400390625,-0.0283203125,1.001953125
1827,-0.0400390625,-0.0302734375,1.005859375
1828,-0.0380859375,-0.0263671875,1.00390625
1829,-0.0380859375,-0.0244140625,1.0009765625
1830,-0.0380859375,-0.029296875,1.0068359375
1831,-0.037109375,-0.0263671875,1.001953125
1832,-0.0380859375,-0.0263671875,1.005859375
1833,-0.037109375,-0.025390625,1.0029296875
1834,-0.0361328125,-0.0224609375,1.0068359375
1835,-0.0380859375,-0.0244140625,1.0048828125
1836,-0.0361328125,-0.025390625,1.0048828125
1837,-0.03515625,-0.0185546875,1.0029296875
1838,-0.037109375,-0.0234375,1.0087890625
1839,-0.037109375,-0.025390625,1.0048828125
1840,-0.037109375,-0.0283203125,1.005859375
1841,-0.0419921875,-0.0283203125,1.0
1842,-0.0380859375,-0.03125,1.00390625
1843,-0.0400390625,-0.029296875,1.005859375
1844,-0.0400390625,-0.0361328125,1.001953125
1845,-0.0390625,-0.0302734375,1.0009765625
1846,-0.033203125,-0.029296875,1.0009765625
1847,-0.041015625,-0.0283203125,1.0
1848,-0.0390625,-0.03125,1.0029296875
1849,-0.0361328125,-0.029296875,1.001953125
1850,-0.03515625,-0.0283203125,1.0
1851,-0.0361328125,-0.021484375,1.0029296875
1852,-0.0322265625,-0.0244140625,1.0
1853,-0.0302734375,-0.0244140625,1.005859375
1854,-0.0400390625,-0.025390625,1.001953125
1855,-0.0361328125,-0.0234375,1.00390625
1856,-0.03515625,-0.0234375,1.0029296875
1857,-0.03515625,-0.0263671875,1.0
1858,-0.037109375,-0.025390625,1.0029296875
1859,-0.037109375,-0.0302734375,1.0009765625
1860,-0.0361328125,-0.0283203125,1.00390625
1861,-0.037109375,-0.0234375,1.0029296875
1862,-0.0361328125,-0.0263671875,1.0048828125
1863,-0.033203125,-0.029296875,1.001953125
1864,-0.0341796875,-0.0263671875,1.00390625
1865,-0.0390625,-0.03125,0.9990234375
1866,-0.033203125,-0.029296875,1.00390625
1867,-0.0380859375,-0.029296875,0.9990234375
1868,-0.0361328125,-0.025390625,1.005859375
1869,-0.0361328125,-0.03125,1.001953125
1870,-0.041015625,-0.0283203125,1.00390625
1871,-0.037109375,-0.0263671875,1.0009765625
1872,-0.0380859375,-0.02734375,1.0
1873,-0.037109375,-0.0244140625,1.0048828125
1874,-0.0361328125,-0.02734375,1.00390625
1875,-0.0380859375,-0.025390625,0.9990234375
1876,-0.0380859375,-0.0234375,1.0
1877,-0.037109375,-0.0283203125,1.0
1878,-0.037109375,-0.029296875,1.0009765625
1879,-0.0361328125,-0.02734375,1.0009765625
1880,-0.0390625,-0.0302734375,1.001953125
1881,-0.033203125,-0.02734375,1.0068359375
1882,-0.03125,-0.0322265625,1.001953125
1883,-0.0361328125,-0.03125,0.9990234375
1884,-0.0400390625,-0.0283203125,0.998046875
1885,-0.0380859375,-0.0283203125,1.005859375
1886,-0.0361328125,-0.029296875,1.0029296875
1887,-0.0361328125,-0.025390625,1.0029296875
1888,-0.0341796875,-0.0283203125,1.0029296875
1889,-0.03515625,-0.025390625,1.005859375
1890,-0.0380859375,-0.029296875,1.0009765625
1891,-0.0380859375,-0.0263671875,1.001953125
1892,-0.0341796875,-0.029296875,1.0009765625
1893,-0.037109375,-0.0263671875,1.0029296875
1894,-0.0341796875,-0.0283203125,1.0
1895,-0.0380859375,-0.029296875,1.00390625
1896,-0.0302734375,-0.0244140625,0.9990234375
1897,-0.0361328125,-0.0263671875,0.9970703125
1898,-0.0380859375,-0.033203125,1.0009765625
1899,-0.0390625,-0.0234375,1.0029296875
1900,-0.0439453125,-0.0244140625,1.0009765625
1901,-0.0380859375,-0.025390625,0.998046875
1902,-0.041015625,-0.0302734375,1.001953125
1903,-0.041015625,-0.0322265625,0.9990234375
1904,-0.0390625,-0.02734375,1.00390625
1905,-0.0419921875,-0.025390625,0.9990234375
1906,-0.0380859375,-0.025390625,1.0009765625
1907,-0.037109375,-0.0302734375,1.0029296875
1908,-0.0390625,-0.029296875,1.0029296875
1909,-0.0419921875,-0.0263671875,0.998046875
1910,-0.041015625,-0.033203125,1.0029296875
1911,-0.041015625,-0.029296875,1.0029296875
1912,-0.0361328125,-0.0302734375,1.0009765625
1913,-0.041015625,-0.0341796875,1.001953125
1914,-0.041015625,-0.0361328125,1.0048828125
1915,-0.0390625,-0.0361328125,1.0009765625
1916,-0.0390625,-0.0302734375,1.0
1917,-0.0380859375,-0.0322265625,0.9990234375
1918,-0.0400390625,-0.029296875,1.0009765625
1919,-0.041015625,-0.0263671875,0.9990234375
1920,-0.0361328125,-0.0244140625,1.0029296875
1921,-0.0380859375,-0.021484375,0.9970703125
1922,-0.0390625,-0.0205078125,1.00390625
1923,-0.0322265625,-0.0224609375,1.001953125
1924,-0.0341796875,-0.0205078125,1.0029296875
1925,-0.0341796875,-0.021484375,1.005859375
1926,-0.0341796875,-0.02734375,1.0009765625
1927,-0.03515625,-0.0244140625,1.0009765625
1928,-0.0390625,-0.0244140625,1.0009765625
1929,-0.0380859375,-0.029296875,1.0029296875
1930,-0.0361328125,-0.0263671875,1.0029296875
1931,-0.0341796875,-0.025390625,0.9990234375
1932,-0.0361328125,-0.025390625,1.001953125
1933,-0.037109375,-0.0283203125,1.001953125
1934,-0.0390625,-0.0244140625,1.0009765625
1935,-0.037109375,-0.02734375,1.0048828125
1936,-0.03515625,-0.0244140625,1.0029296875
1937,-0.0341796875,-0.01953125,1.0009765625
1938,-0.0361328125,-0.0185546875,1.0009765625
1939,-0.037109375,-0.0263671875,0.9990234375
1940,-0.0390625,-0.029296875,0.998046875
1941,-0.0361328125,-0.025390625,1.0009765625
1942,-0.0390625,-0.02734375,1.0009765625
1943,-0.037109375,-0.0283203125,1.005859375
1944,-0.0390625,-0.033203125,1.0048828125
1945,-0.0380859375,-0.03515625,1.00390625
1946,-0.041015625,-0.0380859375,1.0087890625
1947,-0.041015625,-0.0361328125,1.01171875
1948,-0.0380859375,-0.03515625,1.001953125
1949,-0.0400390625,-0.037109375,1.0078125
1950,-0.0361328125,-0.0322265625,1.001953125
1951,-0.0419921875,-0.029296875,0.9892578125
1952,-0.0380859375,-0.0283203125,0.9951171875
1953,-0.0439453125,-0.0283203125,0.9931640625
1954,-0.03515625,-0.017578125,0.9931640625
1955,-0.0380859375,-0.0205078125,0.9931640625
1956,-0.0380859375,-0.0244140625,0.9892578125
1957,-0.041015625,-0.0185546875,0.994140625
1958,-0.037109375,-0.0224609375,1.0
1959,-0.0361328125,-0.01953125,1.0009765625
1960,-0.0390625,-0.0185546875,1.0087890625
1961,-0.0380859375,-0.025390625,1.0126953125
1962,-0.037109375,-0.02734375,1.0166015625
1963,-0.0380859375,-0.0234375,1.01171875
1964,-0.0419921875,-0.025390625,1.01171875
1965,-0.0380859375,-0.0283203125,1.0126953125
1966,-0.044921875,-0.0234375,1.0107421875
1967,-0.041015625,-0.0263671875,1.013671875
1968,-0.0458984375,-0.0234375,1.0087890625
1969,-0.04296875,-0.0224609375,1.0068359375
1970,-0.0478515625,-0.0234375,0.9990234375
1971,-0.0478515625,-0.0283203125,1.0009765625
1972,-0.05078125,-0.02734375,1.0
1973,-0.05078125,-0.02734375,1.001953125
1974,-0.0517578125,-0.0244140625,1.0029296875
1975,-0.0478515625,-0.0283203125,0.9970703125
1976,-0.0478515625,-0.02734375,0.998046875
1977,-0.046875,-0.025390625,1.0009765625
1978,-0.0498046875,-0.029296875,0.9990234375
1979,-0.0478515625,-0.03125,1.0009765625
1980,-0.0419921875,-0.0283203125,1.00390625
1981,-0.0498046875,-0.0244140625,1.0068359375
1982,-0.05078125,-0.025390625,1.0009765625
1983,-0.0478515625,-0.0302734375,1.00390625
1984,-0.0537109375,-0.0283203125,0.998046875
1985,-0.046875,-0.025390625,1.00390625
1986,-0.0439453125,-0.02734375,1.00390625
1987,-0.0498046875,-0.02734375,1.001953125
1988,-0.044921875,-0.0244140625,1.00390625
1989,-0.046875,-0.0244140625,1.005859375
1990,-0.046875,-0.029296875,1.0029296875
1991,-0.044921875,-0.0302734375,1.00390625
1992,-0.044921875,-0.0302734375,1.001953125
1993,-0.0439453125,-0.0234375,1.0068359375
1994,-0.0419921875,-0.029296875,1.0068359375
1995,-0.044921875,-0.0283203125,1.001953125
1996,-0.04296875,-0.0263671875,1.0029296875
1997,-0.0458984375,-0.029296875,1.0029296875
1998,-0.044921875,-0.0283203125,1.0029296875
1999,-0.04296875,-0.0244140625,1.0078125
2000,-0.0419921875,-0.0283203125,1.0029296875
2001,-0.0419921875,-0.0234375,1.005859375
2002,-0.0419921875,-0.02734375,1.00390625
2003,-0.0390625,-0.0263671875,1.0029296875
2004,-0.0390625,-0.03125,1.0029296875
2005,-0.04296875,-0.033203125,1.0048828125
2006,-0.0419921875,-0.0322265625,1.0078125
2007,-0.0419921875,-0.033203125,1.001953125
2008,-0.044921875,-0.0322265625,1.005859375
2009,-0.041015625,-0.0302734375,1.005859375
2010,-0.0400390625,-0.0322265625,1.005859375
2011,-0.0400390625,-0.029296875,1.005859375
2012,-0.0439453125,-0.0283203125,1.001953125
2013,-0.0419921875,-0.03125,0.9990234375
2014,-0.044921875,-0.029296875,1.001953125
2015,-0.04296875,-0.0283203125,1.0
2016,-0.0419921875,-0.0302734375,1.0
2017,-0.044921875,-0.0283203125,1.0009765625
2018,-0.048828125,-0.03125,1.0009765625
2019,-0.0439453125,-0.0302734375,1.0
2020,-0.048828125,-0.029296875,1.001953125
2021,-0.0419921875,-0.029296875,1.0009765625
2022,-0.048828125,-0.0302734375,1.0009765625
2023,-0.0400390625,-0.0283203125,1.00390625
2024,-0.04296875,-0.02734375,1.0029296875
2025,-0.048828125,-0.033203125,0.9990234375
2026,-0.0380859375,-0.02734375,1.005859375
2027,-0.0478515625,-0.0302734375,1.0087890625
2028,-0.04296875,-0.0244140625,1.0009765625
2029,-0.0419921875,-0.029296875,1.005859375
2030,-0.04296875,-0.029296875,1.0029296875
2031,-0.0439453125,-0.0283203125,1.0029296875
2032,-0.048828125,-0.02734375,1.00390625
2033,-0.044921875,-0.0302734375,1.0029296875
2034,-0.0478515625,-0.03125,1.005859375
2035,-0.044921875,-0.0341796875,1.001953125
2036,-0.0458984375,-0.0263671875,1.0009765625
2037,-0.04296875,-0.02734375,1.0078125
2038,-0.0478515625,-0.02734375,1.0
2039,-0.0439453125,-0.0283203125,0.9990234375
2040,-0.046875,-0.029296875,1.00390625
2041,-0.0478515625,-0.02734375,1.0
2042,-0.044921875,-0.0244140625,0.9990234375
2043,-0.0517578125,-0.0322265625,1.005859375
2044,-0.0458984375,-0.029296875,1.0068359375
2045,-0.0478515625,-0.029296875,1.001953125
2046,-0.05078125,-0.029296875,1.0009765625
2047,-0.048828125,-0.029296875,1.0009765625
2048,-0.0498046875,-0.0263671875,1.0048828125
2049,-0.0478515625,-0.0302734375,1.0048828125
2050,-0.0478515625,-0.03125,1.0
2051,-0.0498046875,-0.02734375,1.005859375
2052,-0.0478515625,-0.029296875,1.0009765625
2053,-0.0498046875,-0.0283203125,1.00390625
2054,-0.0478515625,-0.03125,1.0048828125
2055,-0.044921875,-0.0302734375,1.0009765625
2056,-0.048828125,-0.02734375,1.0009765625
2057,-0.0458984375,-0.0322265625,1.0
2058,-0.0400390625,-0.0322265625,0.9990234375
2059,-0.0439453125,-0.0283203125,1.0009765625
2060,-0.0439453125,-0.029296875,1.0009765625
2061,-0.046875,-0.03125,1.0009765625
2062,-0.0439453125,-0.0283203125,1.0029296875
2063,-0.0419921875,-0.0302734375,1.005859375
2064,-0.046875,-0.0263671875,1.0068359375
2065,-0.04296875,-0.025390625,1.001953125
2066,-0.0400390625,-0.0263671875,1.0029296875
2067,-0.0400390625,-0.0341796875,1.0068359375
2068,-0.04296875,-0.0302734375,1.00390625
2069,-0.0419921875,-0.0322265625,1.0068359375
2070,-0.0400390625,-0.033203125,1.00390625
2071,-0.04296875,-0.0322265625,1.00390625
2072,-0.0390625,-0.029296875,1.0048828125
2073,-0.0400390625,-0.0302734375,1.0087890625
2074,-0.04296875,-0.033203125,1.0107421875
2075,-0.0419921875,-0.033203125,1.00390625
2076,-0.0361328125,-0.0361328125,1.0078125
2077,-0.0390625,-0.033203125,1.0068359375
2078,-0.0400390625,-0.03125,1.0048828125
2079,-0.037109375,-0.03515625,1.0009765625
2080,-0.0380859375,-0.029296875,1.005859375
2081,-0.0400390625,-0.0322265625,1.00390625
2082,-0.0400390625,-0.0302734375,1.0068359375
2083,-0.0390625,-0.0322265625,1.005859375
2084,-0.04296875,-0.03515625,1.0078125
2085,-0.0419921875,-0.029296875,1.00390625
2086,-0.0380859375,-0.033203125,1.01171875
2087,-0.037109375,-0.029296875,1.001953125
2088,-0.0439453125,-0.03125,1.0068359375
2089,-0.03515625,-0.03125,1.01171875
2090,-0.0390625,-0.0302734375,1.005859375
2091,-0.0458984375,-0.029296875,1.0068359375
2092,-0.0458984375,-0.02734375,1.0068359375
2093,-0.041015625,-0.0283203125,1.0087890625
2094,-0.041015625,-0.03125,1.0068359375
2095,-0.0400390625,-0.0302734375,1.005859375
2096,-0.04296875,-0.0341796875,1.005859375
2097,-0.0458984375,-0.0341796875,1.001953125
2098,-0.0458984375,-0.0322265625,1.0078125
2099,-0.0458984375,-0.0341796875,1.001953125
2100,-0.0478515625,-0.0341796875,1.0048828125
2101,-0.0478515625,-0.0380859375,1.00390625
2102,-0.048828125,-0.0361328125,1.001953125
2103,-0.0498046875,-0.0322265625,1.0009765625
2104,-0.0478515625,-0.0322265625,1.0
2105,-0.05078125,-0.033203125,1.0009765625
2106,-0.0458984375,-0.03125,1.0
2107,-0.0419921875,-0.029296875,1.0
2108,-0.046875,-0.03125,1.0078125
2109,-0.0419921875,-0.0361328125,1.0029296875
2110,-0.04296875,-0.0400390625,1.001953125
2111,-0.0458984375,-0.037109375,1.005859375
2112,-0.0400390625,-0.0390625,1.0078125
2113,-0.0517578125,-0.0400390625,1.0087890625
2114,-0.0458984375,-0.0439453125,1.001953125
2115,-0.0439453125,-0.0419921875,1.0048828125
2116,-0.044921875,-0.03515625,1.00390625
2117,-0.0478515625,-0.033203125,1.001953125
2118,-0.041015625,-0.0390625,1.0009765625
2119,-0.0400390625,-0.0322265625,1.00390625
2120,-0.041015625,-0.03515625,1.0068359375
2121,-0.0390625,-0.0322265625,1.00390625
2122,-0.041015625,-0.03515625,1.0
2123,-0.037109375,-0.0302734375,0.9931640625
2124,-0.0380859375,-0.03125,0.9951171875
2125,-0.041015625,-0.033203125,0.9970703125
2126,-0.0380859375,-0.033203125,1.0
2127,-0.037109375,-0.0322265625,0.998046875
2128,-0.0390625,-0.0390625,0.998046875
2129,-0.0400390625,-0.0419921875,0.99609375
2130,-0.037109375,-0.044921875,0.998046875
2131,-0.04296875,-0.0478515625,1.0009765625
2132,-0.0390625,-0.04296875,1.0
2133,-0.0361328125,-0.046875,0.9970703125
2134,-0.0341796875,-0.044921875,0.9970703125
2135,-0.0341796875,-0.0419921875,0.9990234375
2136,-0.0361328125,-0.0419921875,0.99609375
2137,-0.037109375,-0.0361328125,0.9951171875
2138,-0.033203125,-0.0361328125,0.9951171875
2139,-0.03515625,-0.0361328125,0.9990234375
2140,-0.029296875,-0.03125,0.9951171875
2141,-0.0322265625,-0.0361328125,0.998046875
2142,-0.0322265625,-0.0322265625,1.0
2143,-0.0302734375,-0.0380859375,1.0029296875
2144,-0.03125,-0.0380859375,1.001953125
2145,-0.02734375,-0.0400390625,1.0029296875
2146,-0.033203125,-0.046875,1.0029296875
2147,-0.03515625,-0.0478515625,1.0087890625
2148,-0.0283203125,-0.048828125,1.0078125
2149,-0.03515625,-0.052734375,1.0029296875
2150,-0.0341796875,-0.0458984375,1.0068359375
2151,-0.03515625,-0.044921875,1.00390625
2152,-0.0361328125,-0.046875,1.005859375
2153,-0.0380859375,-0.041015625,1.0068359375
2154,-0.0341796875,-0.0400390625,1.009765625
2155,-0.0380859375,-0.037109375,1.0
2156,-0.037109375,-0.0439453125,1.001953125
2157,-0.0390625,-0.0341796875,1.0009765625
2158,-0.0400390625,-0.0380859375,1.0009765625
2159,-0.0400390625,-0.03515625,1.005859375
2160,-0.0390625,-0.037109375,1.0
2161,-0.0361328125,-0.0361328125,1.0009765625
2162,-0.0361328125,-0.037109375,1.0
2163,-0.0439453125,-0.0361328125,1.001953125
2164,-0.0400390625,-0.041015625,1.0029296875
2165,-0.041015625,-0.04296875,1.0029296875
2166,-0.0400390625,-0.04296875,1.0
2167,-0.0400390625,-0.0400390625,0.9990234375
2168,-0.0380859375,-0.0419921875,1.001953125
2169,-0.0361328125,-0.041015625,1.001953125
2170,-0.037109375,-0.041015625,1.0009765625
2171,-0.0361328125,-0.04296875,0.998046875
2172,-0.0341796875,-0.0419921875,1.001953125
2173,-0.0361328125,-0.041015625,0.9970703125
2174,-0.0380859375,-0.0439453125,0.998046875
2175,-0.0341796875,-0.0419921875,1.0009765625
2176,-0.0400390625,-0.041015625,1.0009765625
2177,-0.037109375,-0.0458984375,0.9990234375
2178,-0.0361328125,-0.0419921875,1.001953125
2179,-0.0380859375,-0.0458984375,1.0009765625
2180,-0.03515625,-0.0498046875,1.0009765625
2181,-0.037109375,-0.0390625,1.0009765625
2182,-0.041015625,-0.0439453125,1.00390625
2183,-0.0322265625,-0.0400390625,1.001953125
2184,-0.03125,-0.0400390625,1.001953125
2185,-0.03125,-0.0380859375,1.0
2186,-0.0263671875,-0.041015625,1.0009765625
2187,-0.0361328125,-0.0400390625,1.0029296875
2188,-0.0263671875,-0.0390625,1.00390625
2189,-0.0341796875,-0.04296875,1.001953125
2190,-0.029296875,-0.044921875,1.0068359375
2191,-0.0322265625,-0.046875,1.001953125
2192,-0.0322265625,-0.0498046875,0.9990234375
2193,-0.0341796875,-0.0517578125,1.0009765625
2194,-0.0361328125,-0.048828125,1.0009765625
2195,-0.033203125,-0.048828125,0.998046875
2196,-0.03125,-0.048828125,0.998046875
2197,-0.03515625,-0.0419921875,1.0
2198,-0.0341796875,-0.041015625,0.99609375
2199,-0.03515625,-0.0390625,0.9970703125
2200,-0.0322265625,-0.04296875,0.998046875
2201,-0.033203125,-0.0419921875,0.9951171875
2202,-0.03515625,-0.0400390625,1.001953125
2203,-0.0341796875,-0.04296875,0.9931640625
2204,-0.0302734375,-0.0400390625,1.0009765625
2205,-0.033203125,-0.041015625,0.9990234375
2206,-0.02734375,-0.041015625,1.001953125
2207,-0.0341796875,-0.0478515625,1.0029296875
2208,-0.029296875,-0.0458984375,1.0048828125
2209,-0.03125,-0.04296875,1.0029296875
2210,-0.029296875,-0.044921875,1.0048828125
2211,-0.0322265625,-0.0498046875,1.0029296875
2212,-0.0322265625,-0.0439453125,1.00390625
2213,-0.0283203125,-0.0419921875,1.001953125
2214,-0.033203125,-0.037109375,1.0
2215,-0.0283203125,-0.0419921875,1.001953125
2216,-0.0283203125,-0.0458984375,1.0029296875
2217,-0.0341796875,-0.0458984375,0.9990234375
2218,-0.029296875,-0.0478515625,0.998046875
2219,-0.0283203125,-0.0439453125,0.9970703125
2220,-0.0234375,-0.044921875,1.0
2221,-0.029296875,-0.0458984375,0.9931640625
2222,-0.0234375,-0.0458984375,0.994140625
2223,-0.0322265625,-0.0439453125,0.998046875
2224,-0.025390625,-0.046875,0.998046875
2225,-0.0263671875,-0.0439453125,0.9990234375
2226,-0.025390625,-0.041015625,0.99609375
2227,-0.02734375,-0.0419921875,0.9951171875
2228,-0.0302734375,-0.0400390625,0.9951171875
2229,-0.0234375,-0.0419921875,1.0009765625
2230,-0.0244140625,-0.04296875,0.9990234375
2231,-0.0263671875,-0.0390625,1.0
2232,-0.0224609375,-0.0400390625,1.001953125
2233,-0.0263671875,-0.0458984375,1.0048828125
2234,-0.025390625,-0.041015625,1.0029296875
2235,-0.0234375,-0.0419921875,1.0029296875
2236,-0.0224609375,-0.0478515625,1.0
2237,-0.0234375,-0.0478515625,1.0009765625
2238,-0.0234375,-0.044921875,1.0029296875
2239,-0.0244140625,-0.046875,1.0
2240,-0.01953125,-0.04296875,1.0029296875
2241,-0.021484375,-0.0439453125,1.009765625
2242,-0.0185546875,-0.048828125,1.001953125
2243,-0.0224609375,-0.044921875,1.0009765625
2244,-0.0234375,-0.0400390625,1.0
2245,-0.021484375,-0.041015625,1.0048828125
2246,-0.0234375,-0.0439453125,1.0009765625
2247,-0.01953125,-0.0458984375,1.0009765625
2248,-0.0205078125,-0.041015625,1.0009765625
2249,-0.0244140625,-0.037109375,1.0
2250,-0.025390625,-0.037109375,0.9990234375
2251,-0.0244140625,-0.0341796875,0.9990234375
2252,-0.0244140625,-0.04296875,0.9970703125
2253,-0.025390625,-0.04296875,0.9970703125
2254,-0.025390625,-0.04296875,0.998046875
2255,-0.0263671875,-0.04296875,0.9921875
2256,-0.0263671875,-0.041015625,0.9892578125
2257,-0.02734375,-0.046875,0.998046875
2258,-0.03125,-0.046875,0.994140625
2259,-0.029296875,-0.0419921875,0.9951171875
2260,-0.0302734375,-0.0419921875,0.994140625
2261,-0.0322265625,-0.0419921875,0.9931640625
2262,-0.0341796875,-0.0400390625,0.9951171875
2263,-0.037109375,-0.0439453125,0.998046875
2264,-0.0361328125,-0.041015625,0.994140625
2265,-0.03125,-0.041015625,1.0009765625
2266,-0.029296875,-0.0400390625,0.9990234375
2267,-0.0361328125,-0.044921875,1.0009765625
2268,-0.03125,-0.048828125,1.0
2269,-0.0361328125,-0.0439453125,0.998046875
2270,-0.0361328125,-0.0478515625,1.0009765625
2271,-0.033203125,-0.04296875,0.9951171875
2272,-0.0361328125,-0.0390625,1.0009765625
2273,-0.037109375,-0.0390625,0.9990234375
2274,-0.03125,-0.0400390625,0.98828125
2275,-0.0322265625,-0.0361328125,0.99609375
2276,-0.02734375,-0.0361328125,0.9951171875
2277,-0.0283203125,-0.03125,1.0009765625
2278,-0.0263671875,-0.0361328125,0.9990234375
2279,-0.029296875,-0.0390625,0.998046875
2280,-0.0283203125,-0.0419921875,0.9951171875
2281,-0.0341796875,-0.044921875,1.0
2282,-0.033203125,-0.044921875,0.9931640625
2283,-0.0322265625,-0.044921875,0.9951171875
2284,-0.0302734375,-0.0419921875,0.98828125
2285,-0.025390625,-0.041015625,0.998046875
2286,-0.02734375,-0.0400390625,0.9921875
2287,-0.025390625,-0.033203125,0.99609375
2288,-0.0224609375,-0.03515625,1.001953125
2289,-0.0244140625,-0.037109375,1.0009765625
2290,-0.0224609375,-0.0361328125,1.0029296875
2291,-0.01953125,-0.0478515625,1.0
2292,-0.017578125,-0.046875,1.0078125
2293,-0.017578125,-0.048828125,1.00390625
2294,-0.0166015625,-0.0478515625,1.005859375
2295,-0.0185546875,-0.0419921875,1.0029296875
2296,-0.0146484375,-0.0478515625,1.0009765625
2297,-0.0185546875,-0.0390625,1.005859375
2298,-0.0185546875,-0.0390625,0.9970703125
2299,-0.0205078125,-0.03515625,1.0
2300,-0.021484375,-0.0341796875,0.998046875
2301,-0.0185546875,-0.0302734375,0.99609375
2302,-0.0205078125,-0.0341796875,0.994140625
2303,-0.01953125,-0.03515625,0.9970703125
2304,-0.0185546875,-0.041015625,1.0
2305,-0.0224609375,-0.0361328125,1.0009765625
2306,-0.021484375,-0.0361328125,1.001953125
2307,-0.0244140625,-0.0380859375,1.0029296875
2308,-0.0263671875,-0.0390625,1.001953125
2309,-0.0234375,-0.0380859375,1.0009765625
2310,-0.0234375,-0.0419921875,1.0029296875
2311,-0.025390625,-0.0390625,1.0078125
2312,-0.025390625,-0.0380859375,1.0029296875
2313,-0.03125,-0.0390625,1.0078125
2314,-0.02734375,-0.0380859375,1.005859375
2315,-0.0341796875,-0.037109375,1.001953125
2316,-0.037109375,-0.03515625,1.00390625
2317,-0.037109375,-0.0380859375,0.998046875
2318,-0.0341796875,-0.0390625,1.0009765625
2319,-0.0361328125,-0.037109375,1.001953125
2320,-0.03515625,-0.0322265625,1.0
2321,-0.03125,-0.0361328125,1.0029296875
2322,-0.037109375,-0.0400390625,0.9990234375
2323,-0.037109375,-0.0400390625,1.001953125
2324,-0.037109375,-0.03515625,1.0009765625
2325,-0.0400390625,-0.0400390625,0.99609375
2326,-0.0380859375,-0.0361328125,0.99609375
2327,-0.0361328125,-0.03515625,1.001953125
2328,-0.041015625,-0.03515625,0.998046875
2329,-0.0361328125,-0.0380859375,1.0048828125
2330,-0.0390625,-0.041015625,1.0009765625
2331,-0.0322265625,-0.0322265625,1.001953125
2332,-0.0341796875,-0.0341796875,1.001953125
2333,-0.0400390625,-0.0322265625,1.0009765625
2334,-0.041015625,-0.0341796875,0.9990234375
2335,-0.0361328125,-0.0380859375,1.0068359375
2336,-0.0341796875,-0.03125,1.0048828125
2337,-0.033203125,-0.0341796875,1.0009765625
2338,-0.033203125,-0.029296875,1.0048828125
2339,-0.02734375,-0.03125,1.00390625
2340,-0.0322265625,-0.0322265625,1.0
2341,-0.02734375,-0.0302734375,1.001953125
2342,-0.0283203125,-0.033203125,1.0
2343,-0.03125,-0.03125,1.0068359375
2344,-0.0263671875,-0.0283203125,1.0078125
2345,-0.0283203125,-0.0224609375,1.001953125
2346,-0.02734375,-0.02734375,0.9990234375
2347,-0.0302734375,-0.0322265625,1.0009765625
2348,-0.0263671875,-0.033203125,1.00390625
2349,-0.03125,-0.0322265625,1.001953125
2350,-0.0322265625,-0.033203125,1.001953125
2351,-0.02734375,-0.03515625,1.005859375
2352,-0.03125,-0.0390625,1.00390625
2353,-0.0263671875,-0.0400390625,1.0
2354,-0.025390625,-0.041015625,1.0009765625
2355,-0.0341796875,-0.0390625,1.001953125
2356,-0.025390625,-0.037109375,0.9970703125
2357,-0.02734375,-0.041015625,1.001953125
2358,-0.0263671875,-0.0380859375,1.0048828125
2359,-0.0322265625,-0.0341796875,0.99609375
2360,-0.037109375,-0.037109375,1.0
2361,-0.03515625,-0.0380859375,1.001953125
2362,-0.029296875,-0.033203125,1.0009765625
2363,-0.02734375,-0.0361328125,1.001953125
2364,-0.02734375,-0.037109375,0.9990234375
2365,-0.033203125,-0.0361328125,1.0
2366,-0.0341796875,-0.0390625,1.0009765625
2367,-0.0380859375,-0.037109375,0.9970703125
2368,-0.0361328125,-0.041015625,1.0029296875
2369,-0.0361328125,-0.033203125,1.0078125
2370,-0.037109375,-0.037109375,1.005859375
2371,-0.0341796875,-0.03515625,1.0048828125
2372,-0.037109375,-0.037109375,1.00390625
2373,-0.0341796875,-0.03125,1.005859375
2374,-0.0361328125,-0.0361328125,1.001953125
2375,-0.0361328125,-0.0322265625,1.0029296875
2376,-0.033203125,-0.0322265625,1.0
2377,-0.0390625,-0.029296875,1.0029296875
2378,-0.037109375,-0.029296875,1.001953125
2379,-0.0361328125,-0.0283203125,1.0009765625
2380,-0.037109375,-0.0322265625,1.0029296875
2381,-0.0322265625,-0.029296875,0.998046875
2382,-0.03125,-0.0302734375,1.0
2383,-0.0341796875,-0.029296875,1.0029296875
2384,-0.0341796875,-0.029296875,1.0009765625
2385,-0.03515625,-0.0263671875,1.0009765625
2386,-0.037109375,-0.025390625,1.0009765625
2387,-0.0322265625,-0.0263671875,1.0009765625
2388,-0.0361328125,-0.02734375,1.0009765625
2389,-0.0341796875,-0.0283203125,1.0048828125
2390,-0.0390625,-0.025390625,1.0048828125
2391,-0.0361328125,-0.03125,1.00390625
2392,-0.0361328125,-0.033203125,1.0078125
2393,-0.0322265625,-0.03515625,1.01171875
2394,-0.0341796875,-0.0341796875,1.0048828125
2395,-0.0361328125,-0.033203125,1.0048828125
2396,-0.0341796875,-0.0400390625,1.0009765625
2397,-0.0380859375,-0.0380859375,1.0029296875
2398,-0.0419921875,-0.0390625,1.009765625
2399,-0.0380859375,-0.0390625,1.0078125
2400,-0.037109375,-0.0419921875,1.0068359375
2401,-0.033203125,-0.0439453125,1.00390625
2402,-0.0390625,-0.04296875,1.0029296875
2403,-0.037109375,-0.041015625,1.0029296875
2404,-0.037109375,-0.0380859375,1.00390625
2405,-0.0390625,-0.0390625,0.9990234375
2406,-0.037109375,-0.033203125,1.005859375
2407,-0.0400390625,-0.0322265625,1.0009765625
2408,-0.037109375,-0.0341796875,1.0009765625
2409,-0.0361328125,-0.033203125,1.0
2410,-0.0380859375,-0.0302734375,1.0048828125
2411,-0.0380859375,-0.0302734375,0.9970703125
2412,-0.0419921875,-0.029296875,1.0
2413,-0.0400390625,-0.02734375,1.0009765625
2414,-0.0380859375,-0.0283203125,1.0
2415,-0.0390625,-0.0283203125,1.0009765625
2416,-0.0380859375,-0.0244140625,1.0009765625
2417,-0.041015625,-0.029296875,1.0009765625
2418,-0.0341796875,-0.02734375,0.998046875
2419,-0.0419921875,-0.0302734375,1.0009765625
2420,-0.0380859375,-0.02734375,0.99609375
2421,-0.029296875,-0.0322265625,1.00390625
2422,-0.0380859375,-0.0341796875,1.0009765625
2423,-0.0380859375,-0.03515625,1.0
2424,-0.041015625,-0.0361328125,1.0
2425,-0.0390625,-0.0322265625,1.0
2426,-0.0380859375,-0.0341796875,1.001953125
2427,-0.0361328125,-0.0302734375,1.001953125
2428,-0.037109375,-0.033203125,1.0009765625
2429,-0.0361328125,-0.0322265625,1.0068359375
2430,-0.0380859375,-0.03515625,1.0078125
2431,-0.0400390625,-0.037109375,1.0068359375
2432,-0.0380859375,-0.0302734375,1.0078125
2433,-0.0380859375,-0.0361328125,1.009765625
2434,-0.0400390625,-0.03515625,1.009765625
2435,-0.037109375,-0.03515625,1.0
2436,-0.0380859375,-0.0361328125,1.0048828125
2437,-0.037109375,-0.03515625,1.005859375
2438,-0.0400390625,-0.029296875,0.9990234375
2439,-0.0361328125,-0.029296875,1.001953125
2440,-0.0400390625,-0.029296875,1.0
2441,-0.0322265625,-0.0283203125,1.001953125
2442,-0.03125,-0.0283203125,0.99609375
2443,-0.0400390625,-0.0224609375,1.001953125
2444,-0.0380859375,-0.0283203125,0.998046875
2445,-0.0400390625,-0.0302734375,0.99609375
2446,-0.0400390625,-0.025390625,0.9970703125
2447,-0.0400390625,-0.0302734375,0.9931640625
2448,-0.037109375,-0.0302734375,0.99609375
2449,-0.0400390625,-0.0302734375,0.9990234375
2450,-0.0390625,-0.03515625,1.001953125
2451,-0.033203125,-0.03515625,1.0009765625
2452,-0.037109375,-0.0390625,1.001953125
2453,-0.0478515625,-0.037109375,1.0048828125
2454,-0.048828125,-0.041015625,1.0048828125
2455,-0.0458984375,-0.0419921875,1.0048828125
2456,-0.044921875,-0.0400390625,1.0029296875
2457,-0.041015625,-0.0390625,1.0009765625
2458,-0.04296875,-0.033203125,1.0009765625
2459,-0.037109375,-0.0341796875,0.994140625
2460,-0.0390625,-0.02734375,0.9912109375
2461,-0.041015625,-0.025390625,0.998046875
2462,-0.0419921875,-0.02734375,0.9931640625
2463,-0.0390625,-0.021484375,0.9931640625
2464,-0.041015625,-0.0244140625,0.9970703125
2465,-0.037109375,-0.01953125,1.0009765625
2466,-0.0380859375,-0.0166015625,0.9990234375
2467,-0.0390625,-0.0234375,1.0
2468,-0.0400390625,-0.01953125,1.005859375
2469,-0.0439453125,-0.021484375,0.9990234375
2470,-0.0390625,-0.0244140625,1.005859375
2471,-0.04296875,-0.0234375,1.0048828125
2472,-0.041015625,-0.0224609375,1.0048828125
2473,-0.0390625,-0.0283203125,1.01171875
2474,-0.044921875,-0.0263671875,1.01171875
2475,-0.041015625,-0.0283203125,1.0087890625
2476,-0.0400390625,-0.0263671875,1.0087890625
2477,-0.044921875,-0.029296875,1.01171875
2478,-0.0439453125,-0.0283203125,1.01171875
2479,-0.044921875,-0.02734375,1.00390625
2480,-0.0439453125,-0.03125,1.0078125
2481,-0.0458984375,-0.0302734375,1.0078125
2482,-0.0458984375,-0.0341796875,1.005859375
2483,-0.046875,-0.03515625,1.0029296875
2484,-0.046875,-0.0283203125,1.0029296875
2485,-0.044921875,-0.03125,1.0
2486,-0.046875,-0.03515625,1.00390625
2487,-0.046875,-0.033203125,1.001953125
2488,-0.0478515625,-0.0361328125,1.005859375
2489,-0.048828125,-0.033203125,1.001953125
2490,-0.0458984375,-0.0322265625,1.0
2491,-0.0537109375,-0.03515625,0.9990234375
2492,-0.046875,-0.0361328125,1.0048828125
2493,-0.046875,-0.029296875,1.0009765625
2494,-0.0498046875,-0.02734375,1.0048828125
2495,-0.0439453125,-0.03125,1.001953125
2496,-0.041015625,-0.0302734375,1.00390625
2497,-0.046875,-0.0322265625,1.001953125
2498,-0.0478515625,-0.0302734375,1.001953125
2499,-0.044921875,-0.0283203125,1.0009765625
2500,-0.0400390625,-0.029296875,1.0029296875
2501,-0.0419921875,-0.0302734375,1.001953125
2502,-0.0439453125,-0.0263671875,1.0009765625
2503,-0.0478515625,-0.029296875,1.00390625
2504,-0.0419921875,-0.0244140625,1.001953125
2505,-0.04296875,-0.0263671875,1.0009765625
2506,-0.0498046875,-0.025390625,1.0048828125
2507,-0.0390625,-0.02734375,1.0009765625
2508,-0.0400390625,-0.0244140625,1.0068359375
2509,-0.0390625,-0.02734375,1.00390625
2510,-0.0390625,-0.0234375,1.0029296875
2511,-0.041015625,-0.0283203125,1.001953125
2512,-0.0380859375,-0.029296875,1.0029296875
2513,-0.044921875,-0.0341796875,1.0087890625
2514,-0.04296875,-0.03515625,1.009765625
2515,-0.0390625,-0.0341796875,1.0068359375
2516,-0.044921875,-0.0322265625,1.00390625
2517,-0.0478515625,-0.0322265625,1.0068359375
2518,-0.0458984375,-0.0341796875,1.0048828125
2519,-0.0419921875,-0.0341796875,1.0009765625
2520,-0.04296875,-0.03515625,0.9990234375
2521,-0.0439453125,-0.0302734375,1.001953125
2522,-0.0478515625,-0.033203125,1.0009765625
2523,-0.0419921875,-0.029296875,1.0
2524,-0.0419921875,-0.0302734375,0.998046875
2525,-0.0458984375,-0.03515625,0.9990234375
2526,-0.04296875,-0.0302734375,1.0
2527,-0.0458984375,-0.0341796875,1.0029296875
2528,-0.0439453125,-0.033203125,0.998046875
2529,-0.0400390625,-0.0322265625,1.0048828125
2530,-0.041015625,-0.03125,1.001953125
2531,-0.044921875,-0.03125,1.00390625
2532,-0.0458984375,-0.02734375,1.0
2533,-0.048828125,-0.0283203125,1.0009765625
2534,-0.044921875,-0.0263671875,1.0029296875
2535,-0.0439453125,-0.0283203125,0.99609375
2536,-0.04296875,-0.0263671875,1.0029296875
2537,-0.0361328125,-0.0283203125,1.0029296875
2538,-0.041015625,-0.0263671875,1.001953125
2539,-0.0419921875,-0.03125,1.001953125
2540,-0.0419921875,-0.0302734375,1.0
2541,-0.0478515625,-0.0283203125,0.9990234375
2542,-0.0439453125,-0.0302734375,0.9970703125
2543,-0.041015625,-0.0283203125,1.001953125
2544,-0.0458984375,-0.0283203125,1.00390625
2545,-0.0439453125,-0.03125,0.9970703125
2546,-0.046875,-0.03125,1.0
2547,-0.041015625,-0.029296875,1.0009765625
2548,-0.0439453125,-0.0341796875,1.0
2549,-0.0458984375,-0.0302734375,1.001953125
2550,-0.0390625,-0.03125,1.0009765625
2551,-0.041015625,-0.0302734375,1.0048828125
2552,-0.0419921875,-0.0302734375,1.0078125
2553,-0.046875,-0.0322265625,1.0078125
2554,-0.0419921875,-0.03515625,1.0009765625
2555,-0.0419921875,-0.0302734375,1.00390625
2556,-0.0400390625,-0.029296875,1.0029296875
2557,-0.0458984375,-0.02734375,1.0087890625
2558,-0.046875,-0.0302734375,1.0048828125
2559,-0.0458984375,-0.02734375,1.00390625
2560,-0.0478515625,-0.0341796875,1.005859375
2561,-0.04296875,-0.0302734375,1.00390625
2562,-0.04296875,-0.029296875,1.001953125
2563,-0.0419921875,-0.0322265625,1.0009765625
2564,-0.04296875,-0.0283203125,1.001953125
2565,-0.044921875,-0.029296875,1.001953125
2566,-0.048828125,-0.0283203125,1.00390625
2567,-0.05078125,-0.0302734375,1.0009765625
2568,-0.048828125,-0.025390625,0.998046875
2569,-0.0498046875,-0.029296875,1.0
2570,-0.0498046875,-0.03125,1.001953125
2571,-0.0498046875,-0.03125,0.9990234375
2572,-0.048828125,-0.03125,1.0009765625
2573,-0.046875,-0.029296875,1.0
2574,-0.0478515625,-0.0263671875,1.0048828125
2575,-0.041015625,-0.029296875,1.0
2576,-0.0478515625,-0.03125,1.001953125
2577,-0.046875,-0.02734375,1.0009765625
2578,-0.0439453125,-0.0302734375,1.0029296875
2579,-0.0458984375,-0.02734375,1.005859375
2580,-0.046875,-0.0283203125,1.0048828125
2581,-0.0439453125,-0.0302734375,1.0048828125
2582,-0.0400390625,-0.03125,1.0029296875
2583,-0.048828125,-0.03125,1.0029296875
2584,-0.0439453125,-0.0341796875,1.001953125
2585,-0.04296875,-0.0322265625,1.0048828125
2586,-0.0419921875,-0.03515625,1.001953125
2587,-0.046875,-0.0302734375,1.0009765625
2588,-0.0380859375,-0.0322265625,1.0
2589,-0.0439453125,-0.029296875,0.998046875
2590,-0.0419921875,-0.0302734375,0.99609375
2591,-0.044921875,-0.0302734375,0.998046875
2592,-0.0458984375,-0.029296875,0.998046875
2593,-0.0419921875,-0.025390625,0.9970703125
2594,-0.0390625,-0.0263671875,0.9951171875
2595,-0.0419921875,-0.0361328125,1.0009765625
2596,-0.0419921875,-0.03125,1.0009765625
2597,-0.0380859375,-0.033203125,1.0
2598,-0.0400390625,-0.03515625,1.0029296875
2599,-0.0400390625,-0.0341796875,1.0029296875
2600,-0.044921875,-0.0419921875,1.0029296875
2601,-0.04296875,-0.03515625,1.0068359375
2602,-0.0439453125,-0.03515625,1.0009765625
2603,-0.046875,-0.0283203125,1.0048828125
2604,-0.0439453125,-0.0302734375,1.00390625
2605,-0.0419921875,-0.0283203125,1.0009765625
2606,-0.0390625,-0.02734375,1.0009765625
2607,-0.044921875,-0.02734375,1.0029296875
2608,-0.041015625,-0.02734375,1.0078125
2609,-0.0400390625,-0.0244140625,1.00390625
2610,-0.0478515625,-0.021484375,0.9990234375
2611,-0.044921875,-0.0234375,1.0009765625
2612,-0.041015625,-0.0224609375,1.0
2613,-0.048828125,-0.025390625,1.001953125
2614,-0.041015625,-0.025390625,1.001953125
2615,-0.0439453125,-0.025390625,0.998046875
2616,-0.05078125,-0.029296875,1.0009765625
2617,-0.046875,-0.02734375,0.9970703125
2618,-0.0478515625,-0.033203125,0.998046875
2619,-0.0458984375,-0.0283203125,1.0029296875
2620,-0.0498046875,-0.0302734375,1.0
2621,-0.046875,-0.037109375,1.0087890625
2622,-0.048828125,-0.0341796875,1.0009765625
2623,-0.0458984375,-0.033203125,0.9970703125
2624,-0.0498046875,-0.03125,0.998046875
2625,-0.0478515625,-0.0283203125,0.9921875
2626,-0.0458984375,-0.03125,0.9921875
2627,-0.048828125,-0.03125,0.9921875
2628,-0.0478515625,-0.029296875,0.9931640625
2629,-0.0498046875,-0.02734375,0.9970703125
2630,-0.05078125,-0.0302734375,0.9921875
2631,-0.048828125,-0.02734375,0.99609375
2632,-0.0517578125,-0.0322265625,0.998046875
2633,-0.05078125,-0.0283203125,0.9990234375
2634,-0.0537109375,-0.02734375,1.00390625
2635,-0.0478515625,-0.0322265625,1.0029296875
2636,-0.044921875,-0.029296875,1.005859375
2637,-0.0458984375,-0.0283203125,1.009765625
2638,-0.0419921875,-0.03125,1.0087890625
2639,-0.04296875,-0.0283203125,1.0087890625
2640,-0.0517578125,-0.03125,1.0078125
2641,-0.052734375,-0.029296875,1.01171875
2642,-0.0517578125,-0.0283203125,1.0107421875
2643,-0.0478515625,-0.0302734375,1.005859375
2644,-0.046875,-0.0302734375,1.013671875
2645,-0.046875,-0.033203125,1.005859375
2646,-0.048828125,-0.0302734375,1.0107421875
2647,-0.046875,-0.0322265625,1.0068359375
2648,-0.0498046875,-0.0302734375,1.005859375
2649,-0.046875,-0.029296875,1.005859375
2650,-0.0498046875,-0.0302734375,1.0048828125
2651,-0.05078125,-0.02734375,1.00390625
2652,-0.0478515625,-0.03125,1.00390625
2653,-0.05078125,-0.029296875,0.998046875
2654,-0.048828125,-0.0302734375,1.001953125
2655,-0.044921875,-0.0283203125,0.9990234375
2656,-0.0498046875,-0.033203125,1.0029296875
2657,-0.048828125,-0.0322265625,1.0029296875
2658,-0.0498046875,-0.0263671875,1.00390625
2659,-0.048828125,-0.03125,1.001953125
2660,-0.0478515625,-0.033203125,1.0
2661,-0.0517578125,-0.0283203125,1.0
2662,-0.0498046875,-0.03125,1.0009765625
2663,-0.046875,-0.0341796875,1.0048828125
2664,-0.0498046875,-0.033203125,1.001953125
2665,-0.0478515625,-0.0341796875,1.00390625
2666,-0.0498046875,-0.0361328125,1.0029296875
2667,-0.05078125,-0.03515625,1.0068359375
2668,-0.048828125,-0.037109375,1.0009765625
2669,-0.0458984375,-0.0341796875,1.0048828125
2670,-0.0458984375,-0.0361328125,1.001953125
2671,-0.0498046875,-0.0380859375,1.0068359375
2672,-0.0458984375,-0.0341796875,1.0029296875
2673,-0.0400390625,-0.0322265625,0.9990234375
2674,-0.0439453125,-0.0341796875,0.9990234375
2675,-0.0458984375,-0.0322265625,1.0009765625
2676,-0.041015625,-0.0322265625,1.00390625
2677,-0.0439453125,-0.0341796875,1.00390625
2678,-0.04296875,-0.0400390625,1.0
2679,-0.0478515625,-0.037109375,1.005859375
2680,-0.0439453125,-0.0419921875,1.0048828125
2681,-0.0478515625,-0.041015625,1.0107421875
2682,-0.046875,-0.037109375,1.0048828125
2683,-0.046875,-0.0380859375,1.001953125
2684,-0.044921875,-0.0322265625,1.001953125
2685,-0.04296875,-0.0341796875,1.0048828125
2686,-0.044921875,-0.0322265625,1.0029296875
2687,-0.0439453125,-0.029296875,1.00390625
2688,-0.0400390625,-0.0283203125,1.0048828125
2689,-0.041015625,-0.0302734375,1.001953125
2690,-0.048828125,-0.0341796875,1.005859375
2691,-0.0439453125,-0.0302734375,1.0009765625
2692,-0.046875,-0.0322265625,1.0029296875
2693,-0.0478515625,-0.03125,1.0068359375
2694,-0.0439453125,-0.03125,1.0078125
2695,-0.04296875,-0.03125,1.005859375
2696,-0.046875,-0.0341796875,1.0048828125
2697,-0.0478515625,-0.0341796875,1.00390625
2698,-0.0478515625,-0.0380859375,1.0068359375
2699,-0.046875,-0.03515625,1.0068359375
2700,-0.044921875,-0.0322265625,1.005859375
2701,-0.04296875,-0.03515625,1.0048828125
2702,-0.046875,-0.033203125,1.0048828125
2703,-0.05078125,-0.037109375,1.0048828125
2704,-0.0498046875,-0.0380859375,1.0078125
2705,-0.0546875,-0.0361328125,1.0078125
2706,-0.0498046875,-0.041015625,1.0029296875
2707,-0.048828125,-0.04296875,1.00390625
2708,-0.05078125,-0.0439453125,1.0078125
2709,-0.0537109375,-0.044921875,1.0029296875
2710,-0.048828125,-0.0361328125,0.998046875
2711,-0.0537109375,-0.0400390625,1.0048828125
2712,-0.0546875,-0.0419921875,1.0
2713,-0.0546875,-0.037109375,1.0029296875
2714,-0.0517578125,-0.0361328125,0.998046875
2715,-0.05078125,-0.037109375,1.0009765625
2716,-0.044921875,-0.0361328125,1.001953125
2717,-0.0439453125,-0.0341796875,1.0009765625
2718,-0.046875,-0.041015625,1.0
2719,-0.0439453125,-0.03515625,1.0
2720,-0.048828125,-0.0322265625,0.9990234375
2721,-0.046875,-0.0380859375,1.0068359375
2722,-0.04296875,-0.033203125,0.9990234375
2723,-0.0478515625,-0.0341796875,1.001953125
2724,-0.0458984375,-0.0361328125,1.00390625
2725,-0.04296875,-0.041015625,1.001953125
2726,-0.041015625,-0.0400390625,1.0048828125
2727,-0.0400390625,-0.0390625,1.00390625
2728,-0.0400390625,-0.0400390625,1.0
2729,-0.0390625,-0.044921875,0.9990234375
2730,-0.0380859375,-0.044921875,1.0009765625
2731,-0.0400390625,-0.0439453125,1.0009765625
2732,-0.0380859375,-0.0458984375,1.0029296875
2733,-0.0400390625,-0.041015625,1.0009765625
2734,-0.0380859375,-0.0380859375,1.0
2735,-0.0390625,-0.046875,1.0048828125
2736,-0.037109375,-0.044921875,1.001953125
2737,-0.041015625,-0.0419921875,1.0029296875
2738,-0.03515625,-0.0458984375,1.001953125
2739,-0.041015625,-0.041015625,1.0009765625
2740,-0.033203125,-0.041015625,1.0009765625
2741,-0.0380859375,-0.0390625,1.0009765625
2742,-0.04296875,-0.0439453125,1.0
2743,-0.0380859375,-0.0400390625,1.0009765625
2744,-0.0380859375,-0.0439453125,1.0
2745,-0.037109375,-0.0390625,1.0009765625
2746,-0.033203125,-0.0478515625,1.0009765625
2747,-0.037109375,-0.0419921875,0.9970703125
2748,-0.0400390625,-0.0361328125,1.001953125
2749,-0.0390625,-0.041015625,0.9990234375
2750,-0.03515625,-0.0419921875,0.9990234375
2751,-0.03515625,-0.04296875,1.0009765625
2752,-0.037109375,-0.0439453125,1.0009765625
2753,-0.03515625,-0.0400390625,1.00390625
2754,-0.0380859375,-0.04296875,1.0048828125
2755,-0.037109375,-0.0419921875,1.005859375
2756,-0.0390625,-0.0458984375,1.0
2757,-0.04296875,-0.041015625,1.0009765625
2758,-0.0439453125,-0.044921875,1.0
2759,-0.041015625,-0.0498046875,1.0029296875
2760,-0.041015625,-0.0517578125,0.9990234375
2761,-0.044921875,-0.046875,0.998046875
2762,-0.0400390625,-0.0458984375,0.9970703125
2763,-0.041015625,-0.0419921875,1.0
2764,-0.041015625,-0.0390625,1.0009765625
2765,-0.0400390625,-0.044921875,0.998046875
2766,-0.0361328125,-0.0400390625,1.001953125
2767,-0.0419921875,-0.041015625,0.9970703125
2768,-0.04296875,-0.0380859375,0.998046875
2769,-0.04296875,-0.0390625,1.0009765625
2770,-0.0390625,-0.0361328125,1.00390625
2771,-0.0380859375,-0.0439453125,1.005859375
2772,-0.037109375,-0.04296875,1.005859375
2773,-0.0380859375,-0.0458984375,1.005859375
2774,-0.0390625,-0.0419921875,1.0029296875
2775,-0.0400390625,-0.0478515625,1.0
2776,-0.0390625,-0.048828125,1.001953125
2777,-0.0390625,-0.046875,1.001953125
2778,-0.0322265625,-0.0439453125,1.0
2779,-0.03515625,-0.044921875,1.0
2780,-0.0361328125,-0.04296875,1.0009765625
2781,-0.03515625,-0.044921875,0.9990234375
2782,-0.0341796875,-0.041015625,1.0009765625
2783,-0.0322265625,-0.0400390625,1.0029296875
2784,-0.0341796875,-0.044921875,0.9951171875
2785,-0.037109375,-0.0439453125,0.9990234375
2786,-0.0361328125,-0.0419921875,0.9931640625
2787,-0.0361328125,-0.041015625,0.994140625
2788,-0.03515625,-0.04296875,0.9970703125
2789,-0.03515625,-0.0439453125,0.9921875
2790,-0.0302734375,-0.0517578125,0.998046875
2791,-0.037109375,-0.0439453125,0.994140625
2792,-0.033203125,-0.0458984375,0.998046875
2793,-0.0361328125,-0.0478515625,1.0029296875
2794,-0.03515625,-0.044921875,1.0009765625
2795,-0.0302734375,-0.0458984375,1.0048828125
2796,-0.0322265625,-0.044921875,1.0029296875
2797,-0.0322265625,-0.0419921875,1.00390625
2798,-0.0380859375,-0.0400390625,1.009765625
2799,-0.0263671875,-0.041015625,1.0009765625
2800,-0.0322265625,-0.0380859375,1.00390625
2801,-0.033203125,-0.0400390625,1.0048828125
2802,-0.0283203125,-0.037109375,1.0029296875
2803,-0.037109375,-0.04296875,1.001953125
2804,-0.0283203125,-0.0439453125,1.0009765625
2805,-0.03515625,-0.0458984375,1.001953125
2806,-0.0263671875,-0.0439453125,1.0009765625
2807,-0.0322265625,-0.0439453125,1.0
2808,-0.0341796875,-0.0458984375,1.0
2809,-0.03125,-0.04296875,1.0029296875
2810,-0.037109375,-0.0537109375,0.998046875
2811,-0.0361328125,-0.046875,1.001953125
2812,-0.0361328125,-0.046875,0.9970703125
2813,-0.0380859375,-0.044921875,1.0
2814,-0.0380859375,-0.044921875,1.0009765625
2815,-0.03515625,-0.04296875,1.0009765625
2816,-0.0361328125,-0.041015625,1.0048828125
2817,-0.0380859375,-0.0390625,1.001953125
2818,-0.037109375,-0.037109375,1.0009765625
2819,-0.0361328125,-0.0400390625,1.0087890625
2820,-0.0380859375,-0.037109375,1.00390625
2821,-0.03515625,-0.0458984375,1.0068359375
2822,-0.0341796875,-0.0390625,1.0048828125
2823,-0.037109375,-0.041015625,1.0078125
2824,-0.0380859375,-0.05078125,1.0029296875
2825,-0.0390625,-0.046875,1.001953125
2826,-0.0361328125,-0.0458984375,1.0
2827,-0.037109375,-0.0458984375,1.0029296875
2828,-0.03515625,-0.0498046875,1.001953125
2829,-0.0361328125,-0.05078125,1.0009765625
2830,-0.0341796875,-0.05078125,1.0
2831,-0.0322265625,-0.0498046875,0.9970703125
2832,-0.03515625,-0.046875,0.998046875
2833,-0.03515625,-0.046875,0.9990234375
2834,-0.0341796875,-0.046875,0.99609375
