,accelerometerAccelerationX(G),accelerometerAccelerationY(G),accelerometerAccelerationZ(G)
0,0.0234375,-1.0234375,-0.078125
1,0.0234375,-1.0234375,-0.07421875
2,0.03125,-1.01171875,-0.07421875
3,0.0390625,-1.015625,-0.05859375
4,0.015625,-0.99609375,-0.0703125
5,0.03125,-1.0,-0.08203125
6,0.01171875,-1.01171875,-0.109375
7,-0.01171875,-1.0078125,-0.07421875
8,-0.0078125,-0.984375,-0.05859375
9,-0.0078125,-1.03125,-0.09375
10,0.0,-0.99609375,-0.0859375
11,-0.0390625,-0.98828125,-0.0859375
12,-0.01171875,-1.05078125,-0.015625
13,-0.02734375,-1.05078125,-0.0390625
14,-0.02734375,-1.078125,-0.0546875
15,-0.0390625,-1.08203125,-0.04296875
16,-0.015625,-1.0703125,-0.015625
17,-0.04296875,-1.09375,-0.046875
18,-0.04296875,-1.14453125,0.00390625
19,0.015625,-1.0859375,-0.0078125
20,-0.03515625,-1.1328125,-0.0390625
21,-0.01953125,-1.09765625,-0.046875
22,0.0,-1.125,-0.00390625
23,0.01171875,-1.1328125,-0.015625
24,-0.00390625,-1.12890625,-0.03515625
25,-0.01171875,-1.13671875,-0.05859375
26,0.0,-1.1484375,-0.05859375
27,0.0,-1.140625,-0.0625
28,0.0,-1.12109375,-0.0859375
29,0.0234375,-1.10546875,-0.0859375
30,0.0390625,-1.10546875,-0.09765625
31,0.02734375,-1.0859375,-0.109375
32,0.0234375,-1.078125,-0.08984375
33,0.01171875,-1.078125,-0.11328125
34,0.015625,-1.0625,-0.0859375
35,-0.01953125,-1.078125,-0.1171875
36,-0.02734375,-1.08984375,-0.07421875
37,-0.02734375,-1.0546875,-0.078125
38,-0.0546875,-1.09765625,-0.1171875
39,-0.078125,-1.125,-0.05078125
40,-0.078125,-1.07421875,-0.13671875
41,-0.08203125,-1.08984375,-0.05078125
42,-0.078125,-1.08984375,-0.0546875
43,-0.109375,-1.0703125,-0.07421875
44,-0.109375,-1.09375,-0.05078125
45,-0.12890625,-1.07421875,-0.0859375
46,-0.1015625,-1.07421875,-0.09375
47,-0.1171875,-1.06640625,-0.046875
48,-0.08203125,-1.03125,-0.0546875
49,-0.09765625,-1.05859375,-0.08984375
50,-0.078125,-1.0390625,-0.109375
51,-0.06640625,-0.9765625,-0.1171875
52,-0.0546875,-1.015625,-0.09375
53,-0.046875,-0.9765625,-0.1015625
54,-0.04296875,-0.9765625,-0.09765625
55,-0.0390625,-0.9765625,-0.09375
56,-0.03515625,-0.98828125,-0.0703125
57,-0.0234375,-0.98828125,-0.07421875
58,-0.02734375,-0.98828125,-0.0703125
59,-0.0234375,-1.0,-0.06640625
60,-0.04296875,-0.9921875,-0.0546875
61,-0.046875,-1.00390625,-0.05078125
62,-0.046875,-0.99609375,-0.0625
63,-0.03515625,-1.00390625,-0.05078125
64,-0.04296875,-0.98046875,-0.0703125
65,-0.02734375,-0.98046875,-0.07421875
66,-0.02734375,-0.98828125,-0.078125
67,-0.0234375,-0.97265625,-0.0859375
68,-0.01171875,-0.984375,-0.09375
69,-0.01953125,-0.984375,-0.078125
70,-0.00390625,-1.00390625,-0.08203125
71,-0.0234375,-1.00390625,-0.078125
72,-0.02734375,-1.01171875,-0.078125
73,-0.0390625,-1.02734375,-0.07421875
74,-0.03515625,-1.0390625,-0.078125
75,-0.03515625,-1.05078125,-0.0859375
76,-0.04296875,-1.03515625,-0.0859375
77,-0.046875,-1.015625,-0.0859375
78,-0.046875,-1.0078125,-0.0703125
79,-0.046875,-0.9921875,-0.0703125
80,-0.046875,-0.98046875,-0.078125
81,-0.04296875,-0.9609375,-0.0859375
82,-0.0546875,-0.9609375,-0.09765625
83,-0.046875,-0.96484375,-0.1171875
84,-0.0546875,-0.984375,-0.125
85,-0.046875,-0.9921875,-0.13671875
86,-0.0546875,-1.01171875,-0.16796875
87,-0.0703125,-1.0390625,-0.18359375
88,-0.0625,-1.06640625,-0.203125
89,-0.0703125,-1.078125,-0.203125
90,-0.05859375,-1.09765625,-0.2265625
91,-0.0546875,-1.109375,-0.2265625
92,-0.02734375,-1.1328125,-0.21484375
93,-0.03125,-1.1328125,-0.19140625
94,0.0,-1.14453125,-0.15625
95,0.00390625,-1.16015625,-0.1484375
96,0.015625,-1.1484375,-0.13671875
97,0.046875,-1.12890625,-0.15234375
98,0.0390625,-1.109375,-0.14453125
99,0.05078125,-1.1015625,-0.15234375
100,0.05859375,-1.078125,-0.15625
101,0.05078125,-1.078125,-0.13671875
102,0.03125,-1.07421875,-0.15625
103,0.0078125,-1.07421875,-0.14453125
104,-0.015625,-1.07421875,-0.12109375
105,-0.03515625,-1.06640625,-0.12109375
106,-0.0390625,-1.0703125,-0.12890625
107,-0.05859375,-1.0703125,-0.1171875
108,-0.05859375,-1.07421875,-0.1328125
109,-0.08203125,-1.06640625,-0.125
110,-0.0859375,-1.0703125,-0.1328125
111,-0.07421875,-1.078125,-0.1328125
112,-0.0703125,-1.0859375,-0.15625
113,-0.06640625,-1.078125,-0.15234375
114,-0.046875,-1.08203125,-0.1640625
115,-0.04296875,-1.08203125,-0.16796875
116,-0.046875,-1.08203125,-0.1640625
117,-0.02734375,-1.078125,-0.15625
118,-0.03515625,-1.06640625,-0.14453125
119,-0.0234375,-1.078125,-0.1484375
120,-0.0234375,-1.07421875,-0.1328125
121,-0.02734375,-1.078125,-0.11328125
122,-0.01953125,-1.0859375,-0.12109375
123,-0.03515625,-1.09375,-0.109375
124,-0.03125,-1.1171875,-0.09765625
125,-0.04296875,-1.125,-0.08984375
126,-0.03515625,-1.1328125,-0.09765625
127,-0.04296875,-1.14453125,-0.10546875
128,-0.046875,-1.14453125,-0.1171875
129,-0.046875,-1.1484375,-0.12109375
130,-0.046875,-1.1640625,-0.12890625
131,-0.0390625,-1.1796875,-0.1328125
132,-0.04296875,-1.1796875,-0.14453125
133,-0.04296875,-1.18359375,-0.1484375
134,-0.0390625,-1.21875,-0.15625
135,-0.03125,-1.25390625,-0.1796875
136,-0.04296875,-1.2734375,-0.17578125
137,-0.04296875,-1.328125,-0.19921875
138,-0.08203125,-1.35546875,-0.23046875
139,-0.06640625,-1.39453125,-0.24609375
140,-0.0703125,-1.4296875,-0.25
141,-0.09375,-1.46484375,-0.24609375
142,-0.08203125,-1.48828125,-0.25
143,-0.078125,-1.51171875,-0.2578125
144,-0.078125,-1.51953125,-0.25
145,-0.0859375,-1.53125,-0.2578125
146,-0.1015625,-1.51953125,-0.25
147,-0.10546875,-1.49609375,-0.2578125
148,-0.11328125,-1.48046875,-0.26953125
149,-0.140625,-1.4609375,-0.265625
150,-0.1328125,-1.4453125,-0.2890625
151,-0.12109375,-1.41015625,-0.31640625
152,-0.1171875,-1.375,-0.3203125
153,-0.10546875,-1.34375,-0.33203125
154,-0.09375,-1.3125,-0.33984375
155,-0.05859375,-1.28515625,-0.33203125
156,-0.05078125,-1.2578125,-0.3828125
157,-0.015625,-1.25390625,-0.3828125
158,0.0078125,-1.24609375,-0.3984375
159,0.0390625,-1.2421875,-0.41015625
160,0.07421875,-1.2421875,-0.4140625
161,0.0703125,-1.23046875,-0.421875
162,0.08984375,-1.2421875,-0.3984375
163,0.08984375,-1.20703125,-0.3828125
164,0.10546875,-1.1796875,-0.36328125
165,0.0859375,-1.15234375,-0.3515625
166,0.08203125,-1.12890625,-0.34765625
167,0.078125,-1.09765625,-0.3515625
168,0.07421875,-1.08203125,-0.32421875
169,0.0625,-1.078125,-0.31640625
170,0.0546875,-1.07421875,-0.3125
171,0.04296875,-1.0546875,-0.3046875
172,0.04296875,-1.05078125,-0.2734375
173,0.0234375,-1.0390625,-0.2734375
174,0.0,-1.01171875,-0.2578125
175,-0.01171875,-1.00390625,-0.2734375
176,-0.0390625,-0.9609375,-0.28125
177,-0.046875,-0.91796875,-0.3125
178,-0.078125,-0.87890625,-0.3046875
179,-0.09765625,-0.828125,-0.27734375
180,-0.11328125,-0.82421875,-0.24609375
181,-0.1484375,-0.796875,-0.234375
182,-0.171875,-0.7890625,-0.18359375
183,-0.1796875,-0.796875,-0.140625
184,-0.17578125,-0.8203125,-0.1328125
185,-0.1796875,-0.828125,-0.10546875
186,-0.19921875,-0.8515625,-0.08984375
187,-0.1875,-0.890625,-0.09375
188,-0.1875,-0.921875,-0.1171875
189,-0.19140625,-0.94921875,-0.11328125
190,-0.16015625,-0.96875,-0.13671875
191,-0.13671875,-0.9609375,-0.140625
192,-0.0859375,-0.95703125,-0.12890625
193,-0.046875,-0.94921875,-0.15234375
194,0.0078125,-0.9296875,-0.140625
195,0.0,-0.9140625,-0.0859375
196,0.02734375,-0.96875,-0.1171875
197,0.0546875,-0.9140625,-0.13671875
198,0.14453125,-0.91015625,-0.0703125
199,0.1015625,-0.93359375,-0.09375
200,0.21484375,-0.8828125,-0.1328125
201,0.203125,-0.890625,-0.125
202,0.20703125,-0.921875,-0.171875
203,0.26953125,-0.84765625,-0.13671875
204,0.3046875,-0.86328125,-0.1484375
205,0.265625,-0.8203125,-0.16015625
206,0.2734375,-0.828125,-0.12890625
207,0.2265625,-0.79296875,-0.14453125
208,0.18359375,-0.76953125,-0.1171875
209,0.19140625,-0.80078125,-0.13671875
210,0.1484375,-0.7734375,-0.171875
211,0.1484375,-0.7734375,-0.16015625
212,0.14453125,-0.78125,-0.20703125
213,0.1328125,-0.77734375,-0.1015625
214,0.125,-0.78515625,-0.09765625
215,0.12890625,-0.8046875,-0.0859375
216,0.1171875,-0.828125,-0.07421875
217,0.1171875,-0.8203125,-0.125
218,0.1328125,-0.84375,-0.05078125
219,0.1171875,-0.8671875,-0.05078125
220,0.10546875,-0.87890625,-0.0625
221,0.1171875,-0.90234375,-0.05859375
222,0.09765625,-0.92578125,-0.04296875
223,0.09765625,-0.92578125,-0.0703125
224,0.06640625,-0.9296875,-0.05859375
225,0.0390625,-0.94140625,-0.08203125
226,0.00390625,-0.94921875,-0.1015625
227,-0.01171875,-0.9453125,-0.10546875
228,-0.0234375,-0.94140625,-0.125
229,-0.04296875,-0.94921875,-0.12890625
230,-0.046875,-0.921875,-0.14453125
231,-0.046875,-0.93359375,-0.12890625
232,-0.046875,-0.93359375,-0.14453125
233,-0.04296875,-0.94140625,-0.140625
234,-0.0078125,-0.95703125,-0.1484375
235,0.0234375,-0.9765625,-0.1484375
236,0.04296875,-0.984375,-0.12109375
237,0.0703125,-0.9921875,-0.12109375
238,0.1015625,-1.01953125,-0.09375
239,0.13671875,-1.0078125,-0.09375
240,0.17578125,-1.015625,-0.1015625
241,0.1875,-1.01171875,-0.09375
242,0.203125,-1.01953125,-0.078125
243,0.2109375,-1.00390625,-0.09375
244,0.22265625,-0.9921875,-0.0859375
245,0.203125,-0.9765625,-0.10546875
246,0.20703125,-0.95703125,-0.08984375
247,0.19921875,-0.94140625,-0.10546875
248,0.19140625,-0.9375,-0.109375
249,0.1484375,-0.9375,-0.1015625
250,0.140625,-0.93359375,-0.08203125
251,0.1171875,-0.91796875,-0.07421875
252,0.125,-0.921875,-0.078125
253,0.1015625,-0.91796875,-0.08203125
254,0.0859375,-0.89453125,-0.0859375
255,0.11328125,-0.8984375,-0.08203125
256,0.12109375,-0.90625,-0.1015625
257,0.12890625,-0.91015625,-0.078125
258,0.14453125,-0.92578125,-0.0859375
259,0.16796875,-0.953125,-0.078125
260,0.16796875,-0.9765625,-0.0625
261,0.17578125,-1.01171875,-0.08203125
262,0.1640625,-1.03125,-0.0703125
263,0.1640625,-1.05859375,-0.0546875
264,0.1875,-1.0859375,-0.0625
265,0.13671875,-1.078125,-0.05859375
266,0.10546875,-1.08203125,-0.02734375
267,0.0546875,-1.08203125,-0.00390625
268,0.015625,-1.078125,0.0
269,-0.02734375,-1.08203125,0.03125
270,-0.04296875,-1.07421875,0.05078125
271,-0.0390625,-1.1015625,0.05859375
272,-0.00390625,-1.09765625,0.05078125
273,0.0078125,-1.1015625,0.015625
274,0.0390625,-1.09375,0.0234375
275,0.07421875,-1.09375,-0.0078125
276,0.0859375,-1.09765625,0.0
277,0.05859375,-1.08203125,-0.04296875
278,0.03125,-1.07421875,-0.0546875
279,0.0390625,-1.07421875,-0.06640625
280,0.04296875,-1.08203125,-0.09765625
281,0.10546875,-1.1015625,-0.1328125
282,0.171875,-1.15234375,-0.1484375
283,0.20703125,-1.2265625,-0.16015625
284,0.23046875,-1.3203125,-0.15625
285,0.25,-1.41015625,-0.1640625
286,0.28125,-1.48046875,-0.15625
287,0.30078125,-1.53515625,-0.1796875
288,0.3125,-1.5546875,-0.203125
289,0.3046875,-1.53515625,-0.2265625
290,0.33203125,-1.51171875,-0.2421875
291,0.32421875,-1.48046875,-0.234375
292,0.3515625,-1.453125,-0.2421875
293,0.30859375,-1.4453125,-0.23046875
294,0.2890625,-1.44140625,-0.22265625
295,0.26953125,-1.4296875,-0.25390625
296,0.28125,-1.42578125,-0.32421875
297,0.33203125,-1.4140625,-0.42578125
298,0.40625,-1.41796875,-0.48828125
299,0.4375,-1.40625,-0.5390625
300,0.453125,-1.42578125,-0.53125
301,0.453125,-1.42578125,-0.52734375
302,0.45703125,-1.4140625,-0.50390625
303,0.44140625,-1.3671875,-0.49609375
304,0.44140625,-1.33984375,-0.51953125
305,0.4453125,-1.30078125,-0.5546875
306,0.421875,-1.23828125,-0.57421875
307,0.40234375,-1.20703125,-0.5703125
308,0.3515625,-1.203125,-0.57421875
309,0.30078125,-1.19921875,-0.53515625
310,0.25,-1.2109375,-0.52734375
311,0.234375,-1.23828125,-0.51953125
312,0.20703125,-1.25,-0.5
313,0.1796875,-1.265625,-0.4765625
314,0.16015625,-1.2578125,-0.46875
315,0.140625,-1.23046875,-0.4375
316,0.1328125,-1.20703125,-0.41015625
317,0.12109375,-1.19140625,-0.36328125
318,0.125,-1.15234375,-0.359375
319,0.1171875,-1.109375,-0.3359375
320,0.1171875,-1.0625,-0.34375
321,0.11328125,-1.00390625,-0.34765625
322,0.1171875,-0.94140625,-0.37109375
323,0.109375,-0.90234375,-0.375
324,0.125,-0.859375,-0.35546875
325,0.15234375,-0.859375,-0.3359375
326,0.17578125,-0.87890625,-0.30078125
327,0.15625,-0.8671875,-0.27734375
328,0.13671875,-0.859375,-0.25390625
329,0.14453125,-0.859375,-0.25
330,0.16015625,-0.86328125,-0.24609375
331,0.171875,-0.87109375,-0.2265625
332,0.1875,-0.88671875,-0.23046875
333,0.171875,-0.90625,-0.23046875
334,0.16796875,-0.9296875,-0.23828125
335,0.1640625,-0.94140625,-0.25
336,0.16796875,-0.92578125,-0.26953125
337,0.16015625,-0.94140625,-0.3046875
338,0.1328125,-0.94921875,-0.328125
339,0.09765625,-0.9375,-0.33984375
340,0.0625,-0.94140625,-0.328125
341,0.03515625,-0.9453125,-0.3359375
342,-0.03125,-0.94921875,-0.33203125
343,-0.07421875,-0.9296875,-0.32421875
344,-0.1328125,-0.9140625,-0.30078125
345,-0.16015625,-0.90234375,-0.28515625
346,-0.19921875,-0.88671875,-0.265625
347,-0.203125,-0.875,-0.24609375
348,-0.23828125,-0.83984375,-0.25390625
349,-0.22265625,-0.8359375,-0.2421875
350,-0.2109375,-0.8203125,-0.24609375
351,-0.203125,-0.80078125,-0.25390625
352,-0.1953125,-0.78515625,-0.26953125
353,-0.1640625,-0.78515625,-0.265625
354,-0.1328125,-0.7734375,-0.296875
355,-0.1015625,-0.765625,-0.296875
356,-0.06640625,-0.76953125,-0.30859375
357,-0.01953125,-0.77734375,-0.32421875
358,0.03125,-0.80078125,-0.30859375
359,0.0703125,-0.8125,-0.3046875
360,0.078125,-0.81640625,-0.30078125
361,0.09375,-0.8203125,-0.27734375
362,0.1015625,-0.80859375,-0.27734375
363,0.08984375,-0.8125,-0.26953125
364,0.07421875,-0.80859375,-0.265625
365,0.07421875,-0.80078125,-0.2734375
366,0.08203125,-0.79296875,-0.26953125
367,0.08203125,-0.796875,-0.265625
368,0.0625,-0.796875,-0.29296875
369,0.078125,-0.8046875,-0.29296875
370,0.078125,-0.8125,-0.3046875
371,0.0703125,-0.83203125,-0.30859375
372,0.0703125,-0.83984375,-0.32421875
373,0.07421875,-0.86328125,-0.31640625
374,0.078125,-0.85546875,-0.30078125
375,0.05859375,-0.87890625,-0.29296875
376,0.0390625,-0.90234375,-0.31640625
377,0.0390625,-0.92578125,-0.296875
378,0.0078125,-0.94140625,-0.30078125
379,0.0,-0.9453125,-0.28515625
380,-0.03125,-0.94921875,-0.28515625
381,-0.04296875,-0.9609375,-0.28515625
382,-0.05078125,-0.95703125,-0.30078125
383,-0.046875,-0.953125,-0.29296875
384,-0.0546875,-0.953125,-0.30078125
385,-0.0546875,-0.94921875,-0.2890625
386,-0.046875,-0.9453125,-0.28125
387,-0.046875,-0.9375,-0.28515625
388,-0.046875,-0.9296875,-0.28125
389,-0.04296875,-0.9296875,-0.2890625
390,-0.046875,-0.9296875,-0.26953125
391,-0.0546875,-0.94921875,-0.26953125
392,-0.05078125,-0.96875,-0.25
393,-0.078125,-1.0,-0.2421875
394,-0.09765625,-1.03125,-0.21875
395,-0.0859375,-1.046875,-0.21875
396,-0.0859375,-1.078125,-0.1953125
397,-0.08203125,-1.078125,-0.2109375
398,-0.0625,-1.0859375,-0.19921875
399,-0.05078125,-1.08203125,-0.20703125
400,-0.07421875,-1.0625,-0.203125
401,-0.0703125,-1.078125,-0.19921875
402,-0.046875,-1.08203125,-0.19921875
403,-0.04296875,-1.06640625,-0.21875
404,-0.02734375,-1.0703125,-0.21484375
405,0.01953125,-1.0390625,-0.22265625
406,0.02734375,-1.01171875,-0.2578125
407,0.02734375,-1.00390625,-0.28125
408,-0.0234375,-1.015625,-0.3046875
409,-0.0546875,-1.0078125,-0.3046875
410,-0.1171875,-1.0234375,-0.31640625
411,-0.13671875,-1.046875,-0.359375
412,-0.16015625,-1.07421875,-0.42578125
413,-0.15625,-1.15625,-0.49609375
414,-0.08203125,-1.28515625,-0.5234375
415,-0.04296875,-1.453125,-0.48828125
416,-0.02734375,-1.58984375,-0.45703125
417,-0.0234375,-1.7109375,-0.375
418,-0.03125,-1.75390625,-0.33203125
419,-0.02734375,-1.765625,-0.31640625
420,-0.015625,-1.7109375,-0.37890625
421,0.0,-1.59375,-0.49609375
422,0.01953125,-1.46484375,-0.61328125
423,0.01953125,-1.31640625,-0.73828125
424,0.0078125,-1.2109375,-0.80078125
425,0.01171875,-1.125,-0.8515625
426,0.05078125,-1.09765625,-0.828125
427,0.078125,-1.0703125,-0.77734375
428,0.0390625,-1.078125,-0.75
429,-0.0234375,-1.11328125,-0.703125
430,-0.04296875,-1.14453125,-0.6640625
431,-0.0546875,-1.1484375,-0.58984375
432,-0.07421875,-1.13671875,-0.546875
433,-0.08203125,-1.10546875,-0.5234375
434,-0.07421875,-1.08984375,-0.5234375
435,-0.07421875,-1.0625,-0.5625
436,-0.046875,-1.03125,-0.58203125
437,-0.046875,-1.0,-0.61328125
438,-0.046875,-0.98828125,-0.625
439,-0.0390625,-0.9921875,-0.64453125
440,-0.02734375,-1.015625,-0.65234375
441,-0.01953125,-1.0390625,-0.6328125
442,-0.01171875,-1.05859375,-0.609375
443,-0.01171875,-1.078125,-0.60546875
444,-0.00390625,-1.10546875,-0.59765625
445,0.01171875,-1.08984375,-0.5859375
446,0.0234375,-1.0703125,-0.56640625
447,0.03515625,-1.05078125,-0.58203125
448,0.0546875,-0.9921875,-0.57421875
449,0.05078125,-0.94921875,-0.55859375
450,0.04296875,-0.92578125,-0.54296875
451,0.04296875,-0.88671875,-0.5234375
452,0.046875,-0.859375,-0.4921875
453,0.0390625,-0.83203125,-0.4921875
454,0.0390625,-0.8359375,-0.46875
455,0.03515625,-0.84765625,-0.46875
456,0.05859375,-0.84765625,-0.48828125
457,0.0546875,-0.8828125,-0.46484375
458,0.08203125,-0.90625,-0.4609375
459,0.07421875,-0.9453125,-0.453125
460,0.08203125,-0.984375,-0.4140625
461,0.09375,-1.01953125,-0.4140625
462,0.1015625,-1.05078125,-0.41015625
463,0.09375,-1.0625,-0.3984375
464,0.1015625,-1.0625,-0.41796875
465,0.11328125,-1.04296875,-0.40625
466,0.09765625,-1.03125,-0.41796875
467,0.1015625,-1.00390625,-0.421875
468,0.09375,-0.96875,-0.4296875
469,0.08984375,-0.9453125,-0.45703125
470,0.10546875,-0.91015625,-0.47265625
471,0.1171875,-0.8828125,-0.48046875
472,0.1171875,-0.85546875,-0.4921875
473,0.1328125,-0.84375,-0.4609375
474,0.14453125,-0.83203125,-0.46484375
475,0.140625,-0.828125,-0.421875
476,0.15234375,-0.8359375,-0.40234375
477,0.15234375,-0.8359375,-0.3828125
478,0.15234375,-0.828125,-0.3671875
479,0.14453125,-0.84375,-0.34375
480,0.13671875,-0.84765625,-0.35546875
481,0.125,-0.84375,-0.34375
482,0.1171875,-0.83203125,-0.328125
483,0.10546875,-0.81640625,-0.3359375
484,0.08984375,-0.8046875,-0.328125
485,0.09765625,-0.80078125,-0.32421875
486,0.08984375,-0.78515625,-0.34375
487,0.0859375,-0.78515625,-0.32421875
488,0.07421875,-0.7734375,-0.3125
489,0.07421875,-0.7890625,-0.3125
490,0.0703125,-0.77734375,-0.32421875
491,0.0703125,-0.77734375,-0.31640625
492,0.0625,-0.77734375,-0.33203125
493,0.05859375,-0.796875,-0.328125
494,0.07421875,-0.79296875,-0.3046875
495,0.0625,-0.7890625,-0.3125
496,0.0390625,-0.76953125,-0.3203125
497,0.01953125,-0.765625,-0.3125
498,0.01171875,-0.7578125,-0.296875
499,-0.00390625,-0.77734375,-0.30859375
500,-0.00390625,-0.75390625,-0.29296875
501,-0.0078125,-0.75390625,-0.30859375
502,-0.0234375,-0.75390625,-0.30078125
503,-0.03125,-0.74609375,-0.31640625
504,-0.0234375,-0.76953125,-0.3125
505,-0.0078125,-0.7734375,-0.34375
506,-0.00390625,-0.78125,-0.34375
507,0.0078125,-0.80859375,-0.328125
508,0.02734375,-0.83203125,-0.33984375
509,0.03125,-0.84375,-0.36328125
510,0.0625,-0.87890625,-0.35546875
511,0.1015625,-0.8984375,-0.3671875
512,0.10546875,-0.921875,-0.375
513,0.1328125,-0.91796875,-0.40234375
514,0.14453125,-0.94921875,-0.3828125
515,0.1484375,-0.95703125,-0.3828125
516,0.14453125,-0.96875,-0.40234375
517,0.14453125,-0.96875,-0.390625
518,0.1640625,-0.9765625,-0.3828125
519,0.16796875,-0.98828125,-0.38671875
520,0.19140625,-1.0,-0.3828125
521,0.1953125,-1.0390625,-0.3671875
522,0.20703125,-1.07421875,-0.359375
523,0.2109375,-1.09375,-0.34765625
524,0.203125,-1.11328125,-0.34765625
525,0.203125,-1.13671875,-0.33203125
526,0.19921875,-1.15234375,-0.30859375
527,0.1953125,-1.1640625,-0.30859375
528,0.1875,-1.15234375,-0.27734375
529,0.17578125,-1.13671875,-0.28515625
530,0.17578125,-1.12890625,-0.28515625
531,0.16015625,-1.125,-0.265625
532,0.1484375,-1.109375,-0.2734375
533,0.1171875,-1.1015625,-0.25390625
534,0.1328125,-1.1015625,-0.24609375
535,0.140625,-1.11328125,-0.22265625
536,0.12890625,-1.11328125,-0.2265625
537,0.140625,-1.1171875,-0.23046875
538,0.1484375,-1.11328125,-0.2421875
539,0.16015625,-1.09375,-0.23046875
540,0.171875,-1.0859375,-0.2421875
541,0.15625,-1.07421875,-0.24609375
542,0.125,-1.06640625,-0.23828125
543,0.09765625,-1.07421875,-0.25
544,0.1328125,-1.08203125,-0.25390625
545,0.19140625,-1.109375,-0.26171875
546,0.2578125,-1.16015625,-0.28515625
547,0.3046875,-1.23828125,-0.34375
548,0.33984375,-1.28125,-0.40234375
549,0.359375,-1.3125,-0.47265625
550,0.34765625,-1.328125,-0.5
551,0.328125,-1.328125,-0.50390625
552,0.34375,-1.3671875,-0.5
553,0.33203125,-1.375,-0.4765625
554,0.32421875,-1.390625,-0.4296875
555,0.29296875,-1.40234375,-0.40625
556,0.23828125,-1.40234375,-0.40234375
557,0.1875,-1.37109375,-0.42578125
558,0.14453125,-1.3203125,-0.44921875
559,0.1171875,-1.2578125,-0.5078125
560,0.09765625,-1.16796875,-0.58203125
561,0.09375,-1.109375,-0.65625
562,0.0859375,-1.05078125,-0.703125
563,0.07421875,-0.9921875,-0.73828125
564,0.0625,-0.96484375,-0.74609375
565,0.06640625,-0.96484375,-0.71875
566,0.10546875,-1.0078125,-0.69140625
567,0.1328125,-1.04296875,-0.66015625
568,0.1484375,-1.05078125,-0.65234375
569,0.16015625,-1.06640625,-0.6015625
570,0.18359375,-1.0703125,-0.58984375
571,0.1953125,-1.07421875,-0.56640625
572,0.19921875,-1.0625,-0.54296875
573,0.1953125,-1.0390625,-0.53125
574,0.19921875,-1.046875,-0.51953125
575,0.19140625,-1.0234375,-0.5234375
576,0.1640625,-0.98828125,-0.52734375
577,0.1640625,-0.97265625,-0.52734375
578,0.1328125,-0.95703125,-0.515625
579,0.12109375,-0.94140625,-0.484375
580,0.1015625,-0.9296875,-0.47265625
581,0.08203125,-0.90234375,-0.453125
582,0.0625,-0.875,-0.42578125
583,0.0625,-0.859375,-0.4140625
584,0.0625,-0.828125,-0.41015625
585,0.0703125,-0.8359375,-0.421875
586,0.0625,-0.84375,-0.41796875
587,0.0703125,-0.84375,-0.37890625
588,0.06640625,-0.8828125,-0.34765625
589,0.04296875,-0.89453125,-0.3359375
590,0.03515625,-0.9140625,-0.3359375
591,0.03515625,-0.93359375,-0.33203125
592,0.0390625,-0.953125,-0.3203125
593,0.015625,-0.94921875,-0.3359375
594,0.015625,-0.94140625,-0.32421875
595,0.0,-0.95703125,-0.3125
596,0.01171875,-0.97265625,-0.32421875
597,0.0,-0.96484375,-0.31640625
598,0.0078125,-0.96484375,-0.3125
599,0.0078125,-0.95703125,-0.30859375
600,0.00390625,-0.94921875,-0.31640625
601,0.00390625,-0.92578125,-0.31640625
602,0.015625,-0.921875,-0.3203125
603,0.01953125,-0.89453125,-0.3125
604,0.015625,-0.890625,-0.31640625
605,0.015625,-0.89453125,-0.3125
606,-0.015625,-0.88671875,-0.31640625
607,-0.0078125,-0.88671875,-0.3125
608,-0.01171875,-0.87890625,-0.31640625
609,0.00390625,-0.8828125,-0.30859375
610,0.0078125,-0.88671875,-0.328125
611,0.01171875,-0.890625,-0.296875
612,0.0,-0.890625,-0.31640625
613,-0.01171875,-0.890625,-0.3046875
614,-0.015625,-0.890625,-0.30078125
615,-0.015625,-0.875,-0.3203125
616,-0.01953125,-0.89453125,-0.30078125
617,-0.0234375,-0.890625,-0.29296875
618,-0.0234375,-0.890625,-0.2890625
619,-0.0234375,-0.890625,-0.29296875
620,-0.00390625,-0.890625,-0.30859375
621,0.00390625,-0.8828125,-0.3125
622,0.01171875,-0.8828125,-0.32421875
623,0.01953125,-0.87890625,-0.3046875
624,0.03515625,-0.875,-0.3203125
625,0.046875,-0.88671875,-0.31640625
626,0.015625,-0.890625,-0.30859375
627,0.01953125,-0.875,-0.29296875
628,0.02734375,-0.87890625,-0.30078125
629,0.03125,-0.88671875,-0.29296875
630,0.01171875,-0.87890625,-0.2734375
631,0.015625,-0.89453125,-0.27734375
632,0.01953125,-0.890625,-0.26171875
633,0.015625,-0.90234375,-0.25
634,0.0234375,-0.9296875,-0.25390625
635,0.01171875,-0.9375,-0.24609375
636,0.00390625,-0.9453125,-0.2421875
637,0.0,-0.96875,-0.25390625
638,0.0078125,-0.9765625,-0.2578125
639,-0.015625,-0.96875,-0.2578125
640,-0.0078125,-0.95703125,-0.2890625
641,-0.0078125,-0.96484375,-0.2890625
642,-0.02734375,-0.95703125,-0.28515625
643,-0.04296875,-0.9375,-0.2890625
644,-0.0625,-0.94921875,-0.26953125
645,-0.08203125,-0.94140625,-0.26171875
646,-0.078125,-0.94921875,-0.25390625
647,-0.09375,-0.9609375,-0.2421875
648,-0.08984375,-0.953125,-0.21875
649,-0.09765625,-0.9609375,-0.2109375
650,-0.10546875,-0.96484375,-0.19921875
651,-0.12109375,-0.95703125,-0.1875
652,-0.13671875,-0.953125,-0.19921875
653,-0.1484375,-0.93359375,-0.203125
654,-0.16796875,-0.9140625,-0.203125
655,-0.1640625,-0.92578125,-0.21484375
656,-0.15234375,-0.92578125,-0.21875
657,-0.13671875,-0.9375,-0.22265625
658,-0.13671875,-0.96484375,-0.2109375
659,-0.13671875,-0.98046875,-0.20703125
660,-0.1015625,-1.015625,-0.1875
661,-0.0859375,-1.02734375,-0.203125
662,-0.0859375,-1.0625,-0.19140625
663,-0.0703125,-1.05078125,-0.21484375
664,-0.078125,-1.0625,-0.2109375
665,-0.0703125,-1.07421875,-0.2109375
666,-0.05859375,-1.078125,-0.203125
667,-0.06640625,-1.07421875,-0.1875
668,-0.06640625,-1.0703125,-0.1796875
669,-0.06640625,-1.07421875,-0.16796875
670,-0.06640625,-1.06640625,-0.1796875
671,-0.046875,-1.06640625,-0.1875
672,-0.0546875,-1.0703125,-0.1796875
673,-0.046875,-1.078125,-0.19140625
674,-0.04296875,-1.08984375,-0.16796875
675,-0.03125,-1.0859375,-0.17578125
676,-0.0078125,-1.1015625,-0.1875
677,-0.00390625,-1.11328125,-0.171875
678,0.0078125,-1.1328125,-0.171875
679,0.0,-1.15625,-0.16015625
680,0.01171875,-1.1640625,-0.1640625
681,0.0234375,-1.1953125,-0.16796875
682,0.01171875,-1.203125,-0.16015625
683,-0.03125,-1.203125,-0.19140625
684,-0.078125,-1.203125,-0.2265625
685,-0.1015625,-1.2421875,-0.26953125
686,-0.125,-1.26953125,-0.328125
687,-0.13671875,-1.31640625,-0.3515625
688,-0.13671875,-1.3515625,-0.34375
689,-0.140625,-1.41015625,-0.3515625
690,-0.1484375,-1.47265625,-0.33203125
691,-0.1640625,-1.515625,-0.2890625
692,-0.1796875,-1.54296875,-0.25
693,-0.1796875,-1.55078125,-0.21875
694,-0.1953125,-1.51953125,-0.21875
695,-0.19140625,-1.484375,-0.2734375
696,-0.20703125,-1.42578125,-0.30859375
697,-0.19140625,-1.38671875,-0.39453125
698,-0.12890625,-1.33203125,-0.47265625
699,-0.1015625,-1.296875,-0.51953125
700,-0.078125,-1.265625,-0.5390625
701,-0.0625,-1.234375,-0.53515625
702,-0.046875,-1.2265625,-0.54296875
703,-0.03125,-1.2265625,-0.53125
704,-0.046875,-1.20703125,-0.53515625
705,-0.05859375,-1.19140625,-0.52734375
706,-0.0546875,-1.1796875,-0.5078125
707,-0.046875,-1.14453125,-0.5
708,-0.0390625,-1.125,-0.49609375
709,-0.0234375,-1.1171875,-0.48046875
710,-0.02734375,-1.1015625,-0.44921875
711,-0.03125,-1.1015625,-0.45703125
712,-0.02734375,-1.10546875,-0.42578125
713,-0.03515625,-1.09765625,-0.4375
714,-0.0390625,-1.09765625,-0.43359375
715,-0.04296875,-1.08203125,-0.43359375
716,-0.0390625,-1.078125,-0.4296875
717,-0.03125,-1.0703125,-0.4140625
718,-0.01953125,-1.0546875,-0.4296875
719,-0.0078125,-1.0546875,-0.43359375
720,-0.0078125,-1.02734375,-0.4296875
721,-0.00390625,-1.0078125,-0.41015625
722,0.00390625,-0.98828125,-0.40625
723,0.05078125,-0.9296875,-0.37890625
724,0.0,-0.9375,-0.39453125
725,0.0078125,-0.9140625,-0.40234375
726,0.015625,-0.90234375,-0.3828125
727,0.015625,-0.88671875,-0.37109375
728,0.01171875,-0.87109375,-0.34765625
729,0.0078125,-0.8828125,-0.32421875
730,-0.0078125,-0.88671875,-0.31640625
731,0.0,-0.9140625,-0.33203125
732,0.0078125,-0.9296875,-0.3515625
733,0.0,-0.95703125,-0.34765625
734,0.00390625,-0.984375,-0.375
735,0.00390625,-0.984375,-0.390625
736,0.01171875,-0.98828125,-0.40625
737,0.015625,-0.99609375,-0.41015625
738,0.01171875,-0.984375,-0.375
739,0.015625,-0.98046875,-0.37890625
740,0.01953125,-0.96484375,-0.37109375
741,0.03125,-0.96875,-0.37109375
742,0.02734375,-0.94921875,-0.37890625
743,0.0390625,-0.9375,-0.390625
744,0.03515625,-0.90625,-0.37890625
745,0.0546875,-0.90234375,-0.38671875
746,0.06640625,-0.88671875,-0.38671875
747,0.0703125,-0.86328125,-0.3984375
748,0.07421875,-0.859375,-0.39453125
749,0.0859375,-0.84375,-0.390625
750,0.10546875,-0.8515625,-0.390625
751,0.109375,-0.8515625,-0.390625
752,0.125,-0.8515625,-0.37109375
753,0.140625,-0.84765625,-0.36328125
754,0.12109375,-0.8515625,-0.34765625
755,0.1328125,-0.84765625,-0.328125
756,0.11328125,-0.83203125,-0.33984375
757,0.1015625,-0.82421875,-0.3359375
758,0.09765625,-0.828125,-0.32421875
759,0.10546875,-0.8125,-0.3203125
760,0.08984375,-0.796875,-0.3203125
761,0.08984375,-0.79296875,-0.3125
762,0.078125,-0.7890625,-0.328125
763,0.078125,-0.76953125,-0.3046875
764,0.08203125,-0.7890625,-0.30859375
765,0.1015625,-0.796875,-0.30859375
766,0.1171875,-0.80859375,-0.30078125
767,0.1328125,-0.81640625,-0.30078125
768,0.1484375,-0.8203125,-0.28125
769,0.16796875,-0.828125,-0.2890625
770,0.1640625,-0.8203125,-0.29296875
771,0.171875,-0.8359375,-0.28125
772,0.16796875,-0.83984375,-0.2890625
773,0.1640625,-0.84765625,-0.30078125
774,0.1640625,-0.84765625,-0.30078125
775,0.1328125,-0.8515625,-0.3125
776,0.12109375,-0.8515625,-0.30859375
777,0.09375,-0.85546875,-0.33984375
778,0.0546875,-0.86328125,-0.3203125
779,0.0390625,-0.86328125,-0.33203125
780,0.0078125,-0.8671875,-0.328125
781,-0.00390625,-0.87109375,-0.34765625
782,0.0,-0.89453125,-0.3359375
783,-0.01171875,-0.89453125,-0.33984375
784,-0.015625,-0.90625,-0.328125
785,-0.00390625,-0.93359375,-0.33203125
786,-0.01171875,-0.9140625,-0.29296875
787,0.01953125,-0.93359375,-0.296875
788,0.04296875,-0.95703125,-0.29296875
789,0.07421875,-0.94921875,-0.30078125
790,0.109375,-0.96875,-0.296875
791,0.11328125,-0.96484375,-0.3046875
792,0.125,-0.96875,-0.30859375
793,0.12890625,-0.94921875,-0.3125
794,0.1328125,-0.95703125,-0.33984375
795,0.1328125,-0.93359375,-0.31640625
796,0.15234375,-0.9296875,-0.34375
797,0.140625,-0.921875,-0.3515625
798,0.15625,-0.94140625,-0.36328125
799,0.15234375,-0.93359375,-0.3671875
800,0.15234375,-0.93359375,-0.3515625
801,0.16796875,-0.94921875,-0.37890625
802,0.1796875,-0.96484375,-0.37109375
803,0.1796875,-0.96484375,-0.35546875
804,0.18359375,-0.96484375,-0.3515625
805,0.1953125,-0.9609375,-0.3203125
806,0.1953125,-0.96484375,-0.34375
807,0.1796875,-0.97265625,-0.30859375
808,0.18359375,-0.9609375,-0.296875
809,0.1796875,-0.9765625,-0.29296875
810,0.1640625,-0.96484375,-0.265625
811,0.15234375,-0.96875,-0.26171875
812,0.14453125,-0.96875,-0.26171875
813,0.1328125,-0.984375,-0.2578125
814,0.13671875,-0.9921875,-0.25390625
815,0.1171875,-1.0078125,-0.25
816,0.1328125,-1.0,-0.25
817,0.12890625,-1.01953125,-0.25390625
818,0.13671875,-1.046875,-0.265625
819,0.14453125,-1.0703125,-0.2578125
820,0.15234375,-1.0859375,-0.2578125
821,0.16015625,-1.1015625,-0.26171875
822,0.1796875,-1.125,-0.25390625
823,0.16796875,-1.14453125,-0.25390625
824,0.15625,-1.16015625,-0.25390625
825,0.19140625,-1.17578125,-0.25
826,0.17578125,-1.18359375,-0.27734375
827,0.1484375,-1.203125,-0.2734375
828,0.13671875,-1.19921875,-0.27734375
829,0.12109375,-1.1953125,-0.29296875
830,0.0859375,-1.19140625,-0.31640625
831,0.0859375,-1.1875,-0.3125
832,0.0859375,-1.1796875,-0.36328125
833,0.10546875,-1.1875,-0.39453125
834,0.125,-1.19140625,-0.40234375
835,0.171875,-1.22265625,-0.44140625
836,0.1953125,-1.265625,-0.4609375
837,0.20703125,-1.3046875,-0.4609375
838,0.19921875,-1.33984375,-0.484375
839,0.1875,-1.390625,-0.48828125
840,0.203125,-1.4296875,-0.48828125
841,0.19140625,-1.44921875,-0.49609375
842,0.17578125,-1.46484375,-0.50390625
843,0.15234375,-1.4453125,-0.515625
844,0.1484375,-1.4140625,-0.54296875
845,0.1171875,-1.36328125,-0.56640625
846,0.1171875,-1.32421875,-0.56640625
847,0.12109375,-1.26953125,-0.58984375
848,0.12109375,-1.203125,-0.62890625
849,0.12890625,-1.14453125,-0.6328125
850,0.16015625,-1.0859375,-0.6640625
851,0.1875,-1.05859375,-0.66015625
852,0.203125,-1.046875,-0.66015625
853,0.21875,-1.0390625,-0.62890625
854,0.23046875,-1.03515625,-0.59765625
855,0.234375,-1.046875,-0.6015625
856,0.23046875,-1.03125,-0.578125
857,0.25,-1.04296875,-0.5625
858,0.26171875,-1.0234375,-0.55078125
859,0.2578125,-1.0078125,-0.5078125
860,0.2578125,-0.9921875,-0.5078125
861,0.25390625,-0.96875,-0.4609375
862,0.25,-0.96875,-0.4609375
863,0.2265625,-0.94921875,-0.45703125
864,0.20703125,-0.953125,-0.45703125
865,0.18359375,-0.953125,-0.44921875
866,0.1640625,-0.95703125,-0.47265625
867,0.16015625,-0.96484375,-0.46484375
868,0.140625,-0.97265625,-0.484375
869,0.140625,-0.984375,-0.49609375
870,0.12109375,-0.984375,-0.4921875
871,0.09765625,-0.99609375,-0.47265625
872,0.08984375,-0.9921875,-0.47265625
873,0.05859375,-0.99609375,-0.4609375
874,0.04296875,-0.98828125,-0.4609375
875,0.03515625,-0.98828125,-0.44140625
876,0.015625,-0.9765625,-0.453125
877,0.01171875,-0.95703125,-0.43359375
878,0.0,-0.94921875,-0.44921875
879,-0.00390625,-0.93359375,-0.43359375
880,0.0,-0.91015625,-0.4375
881,0.00390625,-0.8984375,-0.4375
882,0.0078125,-0.88671875,-0.4375
883,0.03125,-0.890625,-0.4453125
884,0.05078125,-0.8828125,-0.44140625
885,0.05078125,-0.8984375,-0.41015625
886,0.0625,-0.90234375,-0.41796875
887,0.05859375,-0.91015625,-0.41015625
888,0.07421875,-0.91015625,-0.375
889,0.078125,-0.90234375,-0.359375
890,0.08984375,-0.90625,-0.36328125
891,0.09375,-0.90234375,-0.34375
892,0.10546875,-0.90234375,-0.33203125
893,0.09765625,-0.8984375,-0.33984375
894,0.10546875,-0.90234375,-0.3359375
895,0.11328125,-0.890625,-0.3125
896,0.10546875,-0.89453125,-0.30859375
897,0.11328125,-0.8984375,-0.296875
898,0.1015625,-0.88671875,-0.31640625
899,0.09765625,-0.8828125,-0.328125
900,0.0859375,-0.875,-0.328125
901,0.06640625,-0.86328125,-0.359375
902,0.05859375,-0.86328125,-0.35546875
903,0.0390625,-0.8515625,-0.3359375
904,0.01953125,-0.83984375,-0.3359375
905,-0.01953125,-0.82421875,-0.34765625
906,-0.0390625,-0.828125,-0.34765625
907,-0.05859375,-0.83203125,-0.3515625
908,-0.06640625,-0.8359375,-0.3515625
909,-0.08984375,-0.859375,-0.34765625
910,-0.09765625,-0.86328125,-0.30859375
911,-0.08984375,-0.8984375,-0.32421875
912,-0.08203125,-0.9140625,-0.328125
913,-0.07421875,-0.93359375,-0.3046875
914,-0.046875,-0.93359375,-0.3203125
915,-0.03515625,-0.93359375,-0.328125
916,-0.00390625,-0.93359375,-0.328125
917,0.0078125,-0.92578125,-0.33203125
918,0.03125,-0.90625,-0.3515625
919,0.03125,-0.8671875,-0.33984375
920,0.0625,-0.87109375,-0.33984375
921,0.078125,-0.875,-0.34765625
922,0.0859375,-0.87109375,-0.3203125
923,0.078125,-0.8671875,-0.3125
924,0.06640625,-0.86328125,-0.32421875
925,0.078125,-0.86328125,-0.32421875
926,0.04296875,-0.875,-0.32421875
927,0.02734375,-0.88671875,-0.3125
928,-0.01171875,-0.8984375,-0.30078125
929,-0.02734375,-0.8984375,-0.29296875
930,-0.03515625,-0.921875,-0.2890625
931,-0.05078125,-0.9375,-0.2734375
932,-0.078125,-0.9296875,-0.26953125
933,-0.08984375,-0.921875,-0.26171875
934,-0.08203125,-0.92578125,-0.26953125
935,-0.078125,-0.921875,-0.2734375
936,-0.05078125,-0.9453125,-0.2578125
937,-0.04296875,-0.9296875,-0.26953125
938,-0.02734375,-0.92578125,-0.26953125
939,-0.01171875,-0.93359375,-0.28125
940,0.00390625,-0.9296875,-0.2734375
941,0.0,-0.91015625,-0.296875
942,0.02734375,-0.9140625,-0.30859375
943,0.03515625,-0.9140625,-0.31640625
944,0.05078125,-0.9140625,-0.328125
945,0.046875,-0.91796875,-0.3359375
946,0.046875,-0.9140625,-0.3359375
947,0.0546875,-0.921875,-0.328125
948,0.06640625,-0.921875,-0.33203125
949,0.06640625,-0.9296875,-0.32421875
950,0.06640625,-0.94140625,-0.32421875
951,0.05078125,-0.95703125,-0.30859375
952,0.03515625,-0.96875,-0.29296875
953,0.01171875,-0.97265625,-0.30078125
954,0.0,-0.98046875,-0.265625
955,-0.00390625,-0.99609375,-0.27734375
956,-0.03125,-1.01171875,-0.2578125
957,-0.03125,-1.0234375,-0.265625
958,-0.04296875,-1.0390625,-0.26171875
959,-0.046875,-1.046875,-0.2734375
960,-0.046875,-1.0546875,-0.265625
961,-0.0703125,-1.07421875,-0.26953125
962,-0.09375,-1.078125,-0.28125
963,-0.109375,-1.09375,-0.2734375
964,-0.08984375,-1.109375,-0.26953125
965,-0.1015625,-1.1015625,-0.265625
966,-0.09765625,-1.11328125,-0.265625
967,-0.0859375,-1.12109375,-0.25390625
968,-0.09375,-1.10546875,-0.2578125
969,-0.078125,-1.1171875,-0.2578125
970,-0.05859375,-1.109375,-0.2578125
971,-0.05859375,-1.1015625,-0.2421875
972,-0.04296875,-1.09765625,-0.2421875
973,-0.02734375,-1.09765625,-0.23828125
974,-0.015625,-1.08203125,-0.2421875
975,0.0,-1.08203125,-0.234375
976,0.00390625,-1.09375,-0.23046875
977,0.01171875,-1.09375,-0.22265625
978,0.01171875,-1.10546875,-0.2109375
979,0.0078125,-1.109375,-0.2109375
980,0.01171875,-1.10546875,-0.2265625
981,0.02734375,-1.1328125,-0.2421875
982,0.03125,-1.12890625,-0.26953125
983,0.02734375,-1.14453125,-0.30859375
984,0.0078125,-1.1484375,-0.34765625
985,-0.01171875,-1.1796875,-0.37109375
986,-0.0390625,-1.2109375,-0.3828125
987,-0.08984375,-1.23828125,-0.38671875
988,-0.12890625,-1.28125,-0.4140625
989,-0.140625,-1.3203125,-0.41015625
990,-0.1484375,-1.3515625,-0.4296875
991,-0.16015625,-1.375,-0.4609375
992,-0.1328125,-1.40625,-0.48828125
993,-0.1328125,-1.40625,-0.515625
994,-0.1328125,-1.40625,-0.50390625
995,-0.125,-1.4140625,-0.48828125
996,-0.12109375,-1.4296875,-0.48046875
997,-0.09375,-1.44140625,-0.46875
998,-0.05859375,-1.4375,-0.48828125
999,-0.02734375,-1.41015625,-0.49609375
1000,-0.00390625,-1.36328125,-0.53125
1001,-0.01171875,-1.30859375,-0.5625
1002,-0.03515625,-1.27734375,-0.578125
1003,-0.05078125,-1.203125,-0.5859375
1004,-0.078125,-1.15625,-0.56640625
1005,-0.1015625,-1.12890625,-0.5859375
1006,-0.1171875,-1.08203125,-0.59375
1007,-0.1328125,-1.0546875,-0.58203125
1008,-0.140625,-1.015625,-0.578125
1009,-0.125,-0.9921875,-0.56640625
1010,-0.12109375,-0.98046875,-0.5546875
1011,-0.09375,-0.96484375,-0.53515625
1012,-0.0703125,-0.97265625,-0.5078125
1013,-0.046875,-0.97265625,-0.515625
1014,-0.03125,-0.99609375,-0.48828125
1015,-0.0078125,-0.98828125,-0.4609375
1016,0.015625,-1.015625,-0.45703125
1017,0.02734375,-1.02734375,-0.453125
1018,0.0390625,-1.046875,-0.453125
1019,0.046875,-1.0546875,-0.46875
1020,0.04296875,-1.05859375,-0.453125
1021,0.0703125,-1.05859375,-0.45703125
1022,0.06640625,-1.05859375,-0.44921875
1023,0.0703125,-1.06640625,-0.44921875
1024,0.05859375,-1.05859375,-0.43359375
1025,0.05859375,-1.0546875,-0.4375
1026,0.05078125,-1.02734375,-0.43359375
1027,0.04296875,-1.0078125,-0.43359375
1028,0.04296875,-0.98828125,-0.41796875
1029,0.01171875,-0.9453125,-0.40234375
1030,0.015625,-0.921875,-0.41015625
1031,-0.00390625,-0.90234375,-0.40234375
1032,-0.02734375,-0.8828125,-0.390625
1033,-0.0234375,-0.88671875,-0.37109375
1034,-0.0390625,-0.890625,-0.3671875
1035,-0.046875,-0.921875,-0.36328125
1036,-0.046875,-0.9375,-0.34375
1037,-0.0703125,-0.94921875,-0.33984375
1038,-0.06640625,-0.96875,-0.3203125
1039,-0.08203125,-0.984375,-0.328125
1040,-0.09765625,-1.0,-0.30859375
1041,-0.08984375,-1.00390625,-0.3046875
1042,-0.0859375,-1.0,-0.33203125
1043,-0.0625,-0.99609375,-0.328125
1044,-0.0703125,-0.97265625,-0.32421875
1045,-0.046875,-0.95703125,-0.3203125
1046,-0.03125,-0.9375,-0.33984375
1047,-0.015625,-0.921875,-0.34375
1048,0.01953125,-0.91015625,-0.34765625
1049,0.02734375,-0.8984375,-0.35546875
1050,0.0625,-0.91015625,-0.3671875
1051,0.078125,-0.8828125,-0.37109375
1052,0.1171875,-0.890625,-0.3828125
1053,0.12890625,-0.890625,-0.3828125
1054,0.1328125,-0.8828125,-0.35546875
1055,0.16796875,-0.8984375,-0.37109375
1056,0.17578125,-0.90625,-0.3828125
1057,0.171875,-0.8984375,-0.37109375
1058,0.1875,-0.8984375,-0.37890625
1059,0.19140625,-0.90625,-0.37109375
1060,0.16796875,-0.890625,-0.375
1061,0.16796875,-0.88671875,-0.359375
1062,0.1640625,-0.89453125,-0.35546875
1063,0.1640625,-0.88671875,-0.3359375
1064,0.12890625,-0.86328125,-0.328125
1065,0.109375,-0.85546875,-0.30859375
1066,0.09375,-0.828125,-0.3203125
1067,0.1015625,-0.828125,-0.3125
1068,0.1015625,-0.82421875,-0.30078125
1069,0.109375,-0.8125,-0.328125
1070,0.10546875,-0.81640625,-0.328125
1071,0.1171875,-0.8203125,-0.30859375
1072,0.13671875,-0.828125,-0.3125
1073,0.14453125,-0.83984375,-0.3046875
1074,0.16015625,-0.85546875,-0.30859375
1075,0.1484375,-0.87109375,-0.30859375
1076,0.13671875,-0.87890625,-0.3125
1077,0.14453125,-0.88671875,-0.3203125
1078,0.1484375,-0.87890625,-0.33984375
1079,0.1484375,-0.8828125,-0.32421875
1080,0.12109375,-0.88671875,-0.35546875
1081,0.08984375,-0.875,-0.3203125
1082,0.0703125,-0.89453125,-0.3359375
1083,0.04296875,-0.89453125,-0.32421875
1084,0.02734375,-0.90234375,-0.33203125
1085,0.01171875,-0.88671875,-0.32421875
1086,0.0078125,-0.8828125,-0.33203125
1087,-0.00390625,-0.8828125,-0.34375
1088,-0.00390625,-0.875,-0.3359375
1089,0.00390625,-0.890625,-0.33984375
1090,0.0078125,-0.8671875,-0.32421875
1091,0.02734375,-0.87109375,-0.32421875
1092,0.04296875,-0.890625,-0.32421875
1093,0.0625,-0.890625,-0.33984375
1094,0.0625,-0.8828125,-0.328125
1095,0.078125,-0.91015625,-0.33984375
1096,0.0859375,-0.9140625,-0.328125
1097,0.1015625,-0.92578125,-0.3046875
1098,0.11328125,-0.92578125,-0.3359375
1099,0.1171875,-0.93359375,-0.3125
1100,0.12109375,-0.94140625,-0.3203125
1101,0.13671875,-0.94140625,-0.29296875
1102,0.12109375,-0.94140625,-0.2890625
1103,0.12890625,-0.94921875,-0.27734375
1104,0.12109375,-0.953125,-0.29296875
1105,0.125,-0.96875,-0.2734375
1106,0.125,-0.984375,-0.2734375
1107,0.11328125,-0.96484375,-0.28515625
1108,0.125,-0.98046875,-0.30078125
1109,0.109375,-0.9765625,-0.30078125
1110,0.1171875,-0.9921875,-0.3125
1111,0.12890625,-1.0078125,-0.3046875
1112,0.12109375,-1.0078125,-0.3125
1113,0.140625,-1.0234375,-0.28515625
1114,0.15234375,-1.05078125,-0.2734375
1115,0.1640625,-1.05078125,-0.26171875
1116,0.1796875,-1.06640625,-0.25
1117,0.16796875,-1.06640625,-0.2421875
1118,0.16796875,-1.078125,-0.234375
1119,0.1640625,-1.0703125,-0.2421875
1120,0.16015625,-1.07421875,-0.23828125
1121,0.14453125,-1.06640625,-0.24609375
1122,0.140625,-1.05859375,-0.2578125
1123,0.1328125,-1.07421875,-0.25390625
1124,0.1171875,-1.07421875,-0.26171875
1125,0.12109375,-1.09375,-0.26171875
1126,0.08984375,-1.1015625,-0.265625
1127,0.109375,-1.12109375,-0.26171875
1128,0.0703125,-1.1171875,-0.2734375
1129,0.09765625,-1.140625,-0.28125
1130,0.0703125,-1.1328125,-0.2734375
1131,0.0625,-1.140625,-0.27734375
1132,0.078125,-1.14453125,-0.30078125
1133,0.13671875,-1.17578125,-0.27734375
1134,0.1796875,-1.22265625,-0.2890625
1135,0.2265625,-1.29296875,-0.27734375
1136,0.265625,-1.34375,-0.28125
1137,0.296875,-1.3828125,-0.35546875
1138,0.29296875,-1.37109375,-0.43359375
1139,0.30859375,-1.359375,-0.515625
1140,0.30078125,-1.33984375,-0.5546875
1141,0.2734375,-1.30859375,-0.578125
1142,0.3125,-1.3203125,-0.55859375
1143,0.2890625,-1.32421875,-0.5234375
1144,0.26171875,-1.32421875,-0.51171875
1145,0.25390625,-1.328125,-0.50390625
1146,0.234375,-1.3203125,-0.52734375
1147,0.2109375,-1.26953125,-0.55078125
1148,0.203125,-1.24609375,-0.5859375
1149,0.1875,-1.17578125,-0.625
1150,0.16796875,-1.12109375,-0.68359375
1151,0.171875,-1.0703125,-0.6796875
1152,0.1875,-1.05859375,-0.6640625
1153,0.19140625,-1.0390625,-0.6328125
1154,0.1875,-1.02734375,-0.6328125
1155,0.1796875,-1.03125,-0.62890625
1156,0.16796875,-1.015625,-0.60546875
1157,0.16015625,-1.015625,-0.58984375
1158,0.1484375,-1.015625,-0.55859375
1159,0.15625,-1.0,-0.57421875
1160,0.15625,-1.0,-0.5546875
1161,0.140625,-0.98828125,-0.578125
1162,0.15625,-0.984375,-0.55859375
1163,0.13671875,-0.9921875,-0.56640625
1164,0.15234375,-0.99609375,-0.5546875
1165,0.15234375,-1.00390625,-0.546875
1166,0.140625,-1.01171875,-0.56640625
1167,0.13671875,-1.0234375,-0.57421875
1168,0.12109375,-1.03515625,-0.5546875
1169,0.1171875,-1.02734375,-0.55859375
1170,0.1171875,-1.03515625,-0.57421875
1171,0.109375,-1.01171875,-0.58203125
1172,0.1171875,-1.0,-0.56640625
1173,0.0859375,-0.96484375,-0.5703125
1174,0.0859375,-0.96875,-0.5625
1175,0.0859375,-0.94921875,-0.55859375
1176,0.0703125,-0.93359375,-0.55078125
1177,0.07421875,-0.90625,-0.5546875
1178,0.078125,-0.90625,-0.54296875
1179,0.07421875,-0.89453125,-0.52734375
1180,0.07421875,-0.89453125,-0.5234375
1181,0.07421875,-0.89453125,-0.49609375
1182,0.0703125,-0.90234375,-0.484375
1183,0.0546875,-0.90234375,-0.46875
1184,0.046875,-0.90234375,-0.4453125
1185,0.03515625,-0.8984375,-0.4375
1186,0.046875,-0.90625,-0.421875
1187,0.03125,-0.90234375,-0.4296875
1188,0.03515625,-0.890625,-0.4296875
1189,0.046875,-0.90625,-0.421875
1190,0.05859375,-0.90625,-0.39453125
1191,0.046875,-0.90625,-0.375
1192,0.05859375,-0.91796875,-0.36328125
1193,0.05859375,-0.9296875,-0.3515625
1194,0.0546875,-0.91796875,-0.3515625
1195,0.0859375,-0.91796875,-0.3515625
1196,0.0859375,-0.921875,-0.3359375
1197,0.0859375,-0.9140625,-0.33984375
1198,0.08984375,-0.92578125,-0.328125
1199,0.0859375,-0.921875,-0.328125
1200,0.07421875,-0.92578125,-0.328125
1201,0.0625,-0.921875,-0.3203125
1202,0.0546875,-0.91015625,-0.32421875
1203,0.03515625,-0.90625,-0.3046875
1204,0.01171875,-0.8828125,-0.328125
1205,0.0,-0.87109375,-0.31640625
1206,-0.0078125,-0.8671875,-0.328125
1207,-0.01171875,-0.86328125,-0.3125
1208,-0.01953125,-0.84765625,-0.32421875
1209,-0.03125,-0.84765625,-0.31640625
1210,-0.02734375,-0.859375,-0.3203125
1211,-0.0234375,-0.87890625,-0.30078125
1212,-0.02734375,-0.8671875,-0.3046875
1213,-0.01953125,-0.890625,-0.296875
1214,-0.0078125,-0.90625,-0.29296875
1215,0.00390625,-0.91015625,-0.27734375
1216,0.02734375,-0.9140625,-0.28515625
1217,0.01953125,-0.90234375,-0.28125
1218,0.02734375,-0.8984375,-0.296875
1219,0.03125,-0.890625,-0.29296875
1220,0.046875,-0.8984375,-0.30078125
1221,0.046875,-0.89453125,-0.28515625
1222,0.04296875,-0.87890625,-0.27734375
1223,0.01171875,-0.8671875,-0.30078125
1224,0.01953125,-0.875,-0.296875
1225,-0.0078125,-0.87890625,-0.30078125
1226,-0.01171875,-0.8671875,-0.296875
1227,-0.02734375,-0.86328125,-0.296875
1228,-0.04296875,-0.87890625,-0.296875
1229,-0.04296875,-0.88671875,-0.2890625
1230,-0.04296875,-0.90625,-0.27734375
1231,-0.0546875,-0.9140625,-0.28515625
1232,-0.06640625,-0.93359375,-0.27734375
1233,-0.046875,-0.9296875,-0.26171875
1234,-0.05859375,-0.94140625,-0.26171875
1235,-0.0546875,-0.953125,-0.26171875
1236,-0.05859375,-0.9453125,-0.24609375
1237,-0.0546875,-0.93359375,-0.2578125
1238,-0.05859375,-0.93359375,-0.25390625
1239,-0.03515625,-0.94140625,-0.26171875
1240,-0.04296875,-0.92578125,-0.2578125
1241,-0.02734375,-0.92578125,-0.2578125
1242,-0.01953125,-0.921875,-0.2578125
1243,-0.01953125,-0.9375,-0.25
1244,-0.02734375,-0.9296875,-0.25
1245,-0.0390625,-0.9375,-0.2421875
1246,-0.046875,-0.94140625,-0.23828125
1247,-0.046875,-0.94140625,-0.23828125
1248,-0.046875,-0.9453125,-0.24609375
1249,-0.04296875,-0.9609375,-0.23828125
1250,-0.03125,-0.94921875,-0.2265625
1251,-0.03515625,-0.95703125,-0.23828125
1252,-0.03125,-0.9765625,-0.23046875
1253,-0.015625,-0.98046875,-0.234375
1254,-0.0234375,-0.98828125,-0.22265625
1255,-0.02734375,-0.984375,-0.20703125
1256,-0.04296875,-1.0,-0.19921875
1257,-0.0390625,-1.00390625,-0.20703125
1258,-0.04296875,-1.01953125,-0.19921875
1259,-0.03125,-1.0234375,-0.1875
1260,-0.046875,-1.015625,-0.1953125
1261,-0.04296875,-1.02734375,-0.1875
1262,-0.046875,-1.03125,-0.1953125
1263,-0.0546875,-1.03515625,-0.1796875
1264,-0.08984375,-1.046875,-0.17578125
1265,-0.1015625,-1.04296875,-0.171875
1266,-0.11328125,-1.0546875,-0.19921875
1267,-0.12109375,-1.0703125,-0.18359375
1268,-0.12890625,-1.0703125,-0.19140625
1269,-0.109375,-1.0859375,-0.1875
1270,-0.1171875,-1.0859375,-0.1953125
1271,-0.13671875,-1.09765625,-0.1875
1272,-0.140625,-1.10546875,-0.19140625
1273,-0.13671875,-1.1171875,-0.1875
1274,-0.1328125,-1.1328125,-0.15234375
1275,-0.140625,-1.13671875,-0.14453125
1276,-0.1328125,-1.140625,-0.140625
1277,-0.12109375,-1.15625,-0.12109375
1278,-0.10546875,-1.15625,-0.1328125
1279,-0.078125,-1.171875,-0.1171875
1280,-0.046875,-1.171875,-0.140625
1281,-0.0234375,-1.16015625,-0.1640625
1282,0.00390625,-1.15625,-0.203125
1283,0.02734375,-1.14453125,-0.26171875
1284,0.01171875,-1.140625,-0.3125
1285,0.0234375,-1.1640625,-0.328125
1286,-0.015625,-1.16015625,-0.34765625
1287,-0.0703125,-1.15234375,-0.34375
1288,-0.1640625,-1.2109375,-0.3125
1289,-0.25,-1.32421875,-0.28125
1290,-0.26171875,-1.4296875,-0.296875
1291,-0.2890625,-1.4765625,-0.3203125
1292,-0.296875,-1.484375,-0.39453125
1293,-0.26953125,-1.5,-0.5
1294,-0.22265625,-1.51953125,-0.54296875
1295,-0.20703125,-1.55078125,-0.5390625
1296,-0.1875,-1.59375,-0.5078125
1297,-0.140625,-1.66015625,-0.4609375
1298,-0.09765625,-1.6875,-0.3984375
1299,-0.0625,-1.69140625,-0.359375
1300,-0.046875,-1.66015625,-0.33203125
1301,-0.02734375,-1.578125,-0.390625
1302,-0.01953125,-1.47265625,-0.45703125
1303,-0.00390625,-1.33203125,-0.5390625
1304,0.01171875,-1.1796875,-0.58203125
1305,0.01953125,-1.0625,-0.59765625
1306,0.0078125,-1.0,-0.5859375
1307,-0.03515625,-0.953125,-0.5078125
1308,-0.06640625,-0.94921875,-0.41015625
1309,-0.10546875,-1.0078125,-0.34765625
1310,-0.1015625,-1.0625,-0.3203125
1311,-0.12109375,-1.08984375,-0.32421875
1312,-0.09765625,-1.0859375,-0.33984375
1313,-0.05859375,-1.078125,-0.37109375
1314,-0.05078125,-1.07421875,-0.375
1315,-0.046875,-1.06640625,-0.38671875
1316,-0.0390625,-1.0703125,-0.390625
1317,-0.0390625,-1.05859375,-0.3671875
1318,-0.046875,-1.046875,-0.34765625
1319,-0.046875,-1.01171875,-0.3515625
1320,-0.03515625,-0.98828125,-0.34375
1321,-0.0390625,-0.9453125,-0.3359375
1322,-0.00390625,-0.9453125,-0.33984375
1323,-0.0078125,-0.921875,-0.32421875
1324,-0.015625,-0.8984375,-0.30859375
1325,-0.01953125,-0.890625,-0.30078125
1326,-0.03125,-0.88671875,-0.296875
1327,-0.0390625,-0.87890625,-0.3125
1328,-0.0390625,-0.890625,-0.296875
1329,-0.046875,-0.90625,-0.296875
1330,-0.0546875,-0.91015625,-0.28125
1331,-0.046875,-0.92578125,-0.27734375
1332,-0.04296875,-0.94140625,-0.2578125
1333,-0.03515625,-0.96875,-0.2578125
1334,-0.02734375,-0.984375,-0.2421875
1335,-0.015625,-0.98828125,-0.2421875
1336,-0.0078125,-0.99609375,-0.25
1337,-0.0078125,-0.9921875,-0.2578125
1338,-0.00390625,-0.9765625,-0.26171875
1339,0.01171875,-0.9765625,-0.27734375
1340,0.01171875,-0.94921875,-0.28125
1341,0.01953125,-0.95703125,-0.28515625
1342,0.0390625,-0.95703125,-0.26953125
1343,0.0390625,-0.9375,-0.29296875
1344,0.05859375,-0.9453125,-0.28125
1345,0.078125,-0.94921875,-0.2734375
1346,0.09375,-0.953125,-0.29296875
1347,0.1015625,-0.9609375,-0.27734375
1348,0.12109375,-0.96875,-0.296875
1349,0.11328125,-0.96875,-0.28515625
1350,0.14453125,-0.97265625,-0.28515625
1351,0.140625,-0.953125,-0.27734375
1352,0.12890625,-0.94921875,-0.28515625
1353,0.1171875,-0.9296875,-0.27734375
1354,0.125,-0.91796875,-0.2734375
1355,0.1171875,-0.91015625,-0.2890625
1356,0.09765625,-0.890625,-0.28515625
1357,0.0859375,-0.890625,-0.2578125
1358,0.0703125,-0.89453125,-0.25
1359,0.05859375,-0.90234375,-0.23828125
1360,0.04296875,-0.8984375,-0.20703125
1361,0.04296875,-0.90234375,-0.19921875
1362,0.04296875,-0.90234375,-0.1953125
1363,0.05078125,-0.8984375,-0.1796875
1364,0.046875,-0.91015625,-0.1953125
1365,0.0546875,-0.8984375,-0.20703125
1366,0.046875,-0.890625,-0.22265625
1367,0.04296875,-0.8671875,-0.2421875
1368,0.03515625,-0.87109375,-0.23828125
1369,0.05078125,-0.87890625,-0.25
1370,0.08203125,-0.87109375,-0.25390625
1371,0.08984375,-0.8828125,-0.23828125
1372,0.09375,-0.87890625,-0.22265625
1373,0.11328125,-0.90234375,-0.2109375
1374,0.125,-0.91015625,-0.19921875
1375,0.125,-0.9140625,-0.18359375
1376,0.11328125,-0.89453125,-0.1484375
1377,0.12109375,-0.90234375,-0.16015625
1378,0.11328125,-0.89453125,-0.1875
1379,0.11328125,-0.8828125,-0.17578125
1380,0.08984375,-0.859375,-0.19140625
1381,0.08984375,-0.8671875,-0.19921875
1382,0.0859375,-0.859375,-0.1953125
1383,0.08203125,-0.875,-0.19140625
1384,0.0625,-0.890625,-0.1796875
1385,0.08203125,-0.90234375,-0.1953125
1386,0.07421875,-0.91015625,-0.19140625
1387,0.19921875,-0.88671875,-0.203125
1388,0.04296875,-0.9375,-0.19140625
1389,0.03125,-0.9296875,-0.19140625
1390,0.046875,-0.93359375,-0.2109375
1391,0.05859375,-0.9375,-0.21484375
1392,0.0703125,-0.92578125,-0.1796875
1393,0.08984375,-0.92578125,-0.1484375
1394,0.03515625,-0.9296875,-0.12109375
1395,0.0703125,-0.91015625,-0.2109375
1396,0.08984375,-0.94140625,-0.15234375
1397,0.11328125,-0.92578125,-0.14453125
1398,0.1328125,-0.96484375,-0.15625
1399,0.140625,-0.94921875,-0.203125
1400,0.08984375,-0.9453125,-0.1640625
1401,0.16015625,-0.97265625,-0.15234375
1402,0.1328125,-0.97265625,-0.203125
1403,0.16015625,-0.94140625,-0.1875
1404,0.11328125,-0.9765625,-0.2265625
1405,0.09375,-0.9609375,-0.23828125
1406,0.1015625,-0.9765625,-0.21484375
1407,0.1484375,-1.015625,-0.1796875
1408,0.16796875,-1.0390625,-0.16015625
1409,0.15234375,-1.03125,-0.19921875
1410,0.16796875,-1.0625,-0.1796875
1411,0.15625,-1.07421875,-0.16796875
1412,0.14453125,-1.06640625,-0.1640625
1413,0.13671875,-1.0625,-0.171875
1414,0.1484375,-1.05078125,-0.16796875
1415,0.125,-1.01953125,-0.15625
1416,0.13671875,-1.02734375,-0.1640625
1417,0.1328125,-1.0078125,-0.13671875
1418,0.11328125,-0.99609375,-0.13671875
1419,0.1015625,-0.99609375,-0.12890625
1420,0.09765625,-1.00390625,-0.125
1421,0.0859375,-1.015625,-0.109375
1422,0.09765625,-1.03125,-0.109375
1423,0.09375,-1.03515625,-0.09765625
1424,0.09375,-1.05859375,-0.08984375
1425,0.09765625,-1.05859375,-0.09375
1426,0.11328125,-1.0625,-0.13671875
1427,0.109375,-1.07421875,-0.140625
1428,0.1171875,-1.05078125,-0.1875
1429,0.09375,-1.03125,-0.19921875
1430,0.0546875,-1.03125,-0.1875
1431,0.02734375,-1.07421875,-0.1640625
1432,0.08203125,-1.0703125,-0.14453125
1433,0.11328125,-1.09765625,-0.10546875
1434,0.13671875,-1.16015625,-0.1171875
1435,0.15234375,-1.2265625,-0.10546875
1436,0.1796875,-1.2890625,-0.1640625
1437,0.12890625,-1.28515625,-0.1875
1438,0.18359375,-1.30859375,-0.24609375
1439,0.1171875,-1.33203125,-0.34765625
1440,0.0546875,-1.3359375,-0.3984375
1441,0.03515625,-1.33984375,-0.3671875
1442,0.01171875,-1.3046875,-0.34375
1443,-0.03125,-1.30859375,-0.3359375
1444,-0.03125,-1.3125,-0.296875
1445,-0.00390625,-1.33203125,-0.29296875
1446,0.05859375,-1.33984375,-0.2890625
1447,0.13671875,-1.3046875,-0.28515625
1448,0.2109375,-1.2890625,-0.33203125
1449,0.25,-1.27734375,-0.35546875
1450,0.26953125,-1.25,-0.3828125
1451,0.28515625,-1.234375,-0.3984375
1452,0.296875,-1.23828125,-0.40625
1453,0.31640625,-1.25,-0.40625
1454,0.30078125,-1.2578125,-0.40625
1455,0.2578125,-1.2578125,-0.41796875
1456,0.2421875,-1.23828125,-0.3828125
1457,0.26953125,-1.23828125,-0.35546875
1458,0.19921875,-1.19140625,-0.44140625
1459,0.15625,-1.1484375,-0.4296875
1460,0.13671875,-1.125,-0.4296875
1461,0.12109375,-1.08984375,-0.4296875
1462,0.12109375,-1.07421875,-0.41796875
1463,0.10546875,-1.0546875,-0.40234375
1464,0.07421875,-1.046875,-0.40625
1465,0.08984375,-1.0546875,-0.40234375
1466,0.0859375,-1.078125,-0.4140625
1467,0.1328125,-1.10546875,-0.40234375
1468,0.13671875,-1.12109375,-0.421875
1469,0.140625,-1.1171875,-0.390625
1470,0.14453125,-1.125,-0.3828125
1471,0.140625,-1.1171875,-0.38671875
1472,0.1328125,-1.1171875,-0.41796875
1473,0.17578125,-1.109375,-0.39453125
1474,0.1796875,-1.08984375,-0.3828125
1475,0.1953125,-1.078125,-0.41015625
1476,0.19140625,-1.0546875,-0.40234375
1477,0.2109375,-1.05859375,-0.3984375
1478,0.19140625,-1.0390625,-0.40625
1479,0.19140625,-1.01953125,-0.3984375
1480,0.19921875,-1.04296875,-0.390625
1481,0.19921875,-1.04296875,-0.3828125
1482,0.20703125,-1.05859375,-0.3984375
1483,0.20703125,-1.0625,-0.3828125
1484,0.19921875,-1.0546875,-0.37890625
1485,0.203125,-1.0390625,-0.3515625
1486,0.19921875,-1.0703125,-0.34765625
1487,0.18359375,-1.02734375,-0.35546875
1488,0.19140625,-1.01171875,-0.33203125
1489,0.1796875,-1.0,-0.33203125
1490,0.16015625,-0.98828125,-0.33203125
1491,0.12109375,-0.96875,-0.33203125
1492,0.13671875,-0.9609375,-0.31640625
1493,0.12109375,-0.93359375,-0.31640625
1494,0.10546875,-0.94140625,-0.30078125
1495,0.0859375,-0.95703125,-0.3046875
1496,0.1328125,-0.95703125,-0.35546875
1497,0.1328125,-0.93359375,-0.30859375
1498,0.0625,-0.921875,-0.28515625
1499,0.15234375,-0.96875,-0.27734375
1500,0.140625,-0.9453125,-0.328125
1501,0.140625,-0.91796875,-0.3046875
1502,0.11328125,-0.95703125,-0.32421875
1503,0.1328125,-0.90234375,-0.27734375
1504,0.1171875,-0.9453125,-0.28125
1505,0.16015625,-0.9375,-0.3203125
1506,0.14453125,-0.87890625,-0.31640625
1507,0.1796875,-0.91796875,-0.3046875
1508,0.14453125,-0.9140625,-0.296875
1509,0.1875,-0.9296875,-0.3046875
1510,0.13671875,-0.8984375,-0.2734375
1511,0.13671875,-0.89453125,-0.2578125
1512,0.13671875,-0.90234375,-0.25
1513,0.125,-0.890625,-0.26171875
1514,0.12890625,-0.88671875,-0.26171875
1515,0.1328125,-0.88671875,-0.26171875
1516,0.12109375,-0.8828125,-0.27734375
1517,0.09765625,-0.890625,-0.26953125
1518,0.11328125,-0.89453125,-0.2890625
1519,0.09375,-0.9140625,-0.265625
1520,0.12109375,-0.88671875,-0.25390625
1521,0.1015625,-0.88671875,-0.25
1522,0.05078125,-0.93359375,-0.2890625
1523,0.07421875,-0.875,-0.3125
1524,0.06640625,-0.91015625,-0.2734375
1525,0.0546875,-0.88671875,-0.2890625
1526,0.05078125,-0.875,-0.23828125
1527,0.05859375,-0.90234375,-0.265625
1528,0.02734375,-0.9140625,-0.28515625
1529,0.05859375,-0.87890625,-0.3046875
1530,0.0625,-0.94921875,-0.26953125
1531,0.09375,-0.9296875,-0.25
1532,0.0078125,-0.875,-0.25390625
1533,-0.0078125,-0.91015625,-0.25390625
1534,0.03125,-0.8984375,-0.25390625
1535,0.0234375,-0.9140625,-0.2734375
1536,0.0234375,-0.9375,-0.28515625
1537,0.00390625,-0.92578125,-0.28125
1538,0.0078125,-0.9296875,-0.2890625
1539,0.0,-0.93359375,-0.26953125
1540,0.01171875,-0.91015625,-0.2734375
1541,0.0,-0.92578125,-0.26171875
1542,-0.0078125,-0.9296875,-0.2734375
1543,-0.0078125,-0.921875,-0.2734375
1544,-0.0078125,-0.93359375,-0.25
1545,0.0078125,-0.94140625,-0.28515625
1546,0.01171875,-0.9453125,-0.265625
1547,0.01171875,-0.94140625,-0.25390625
1548,0.0234375,-0.953125,-0.26171875
1549,0.03515625,-0.94140625,-0.28125
1550,0.0,-0.95703125,-0.2890625
1551,0.046875,-0.96875,-0.265625
1552,0.046875,-0.9609375,-0.265625
1553,0.05859375,-0.96484375,-0.26171875
1554,0.06640625,-0.94921875,-0.26171875
1555,0.05859375,-0.96875,-0.25
1556,0.06640625,-0.95703125,-0.27734375
1557,0.07421875,-0.95703125,-0.26171875
1558,0.08203125,-0.94921875,-0.26171875
1559,0.0859375,-0.96484375,-0.26171875
1560,0.05859375,-0.9609375,-0.2578125
1561,0.08984375,-0.9765625,-0.24609375
1562,0.078125,-0.96875,-0.2578125
1563,0.0859375,-0.97265625,-0.2578125
1564,0.08203125,-0.9921875,-0.25
1565,0.0546875,-0.98828125,-0.25
1566,0.08203125,-0.98046875,-0.25
1567,0.09375,-0.9765625,-0.25390625
1568,0.08984375,-0.96875,-0.25
1569,0.0859375,-0.95703125,-0.25
1570,0.109375,-0.921875,-0.2421875
1571,0.05859375,-0.9453125,-0.265625
1572,0.0546875,-0.94140625,-0.24609375
1573,0.046875,-0.94140625,-0.2421875
1574,0.05859375,-0.953125,-0.23828125
1575,0.046875,-0.9609375,-0.25390625
1576,0.0546875,-0.96484375,-0.2578125
1577,0.03515625,-0.95703125,-0.25
1578,0.0546875,-0.9765625,-0.25
1579,0.05078125,-0.96484375,-0.25390625
1580,0.06640625,-0.96875,-0.2734375
1581,0.07421875,-0.96484375,-0.28515625
1582,0.08984375,-0.96875,-0.265625
1583,0.1015625,-0.98046875,-0.27734375
1584,0.11328125,-0.984375,-0.28515625
1585,0.109375,-1.0078125,-0.29296875
1586,0.1015625,-1.0234375,-0.29296875
1587,0.09375,-1.046875,-0.296875
1588,0.10546875,-1.0546875,-0.31640625
1589,0.12109375,-1.08203125,-0.31640625
1590,0.125,-1.10546875,-0.3046875
1591,0.0859375,-1.1328125,-0.3046875
1592,0.0625,-1.14453125,-0.30078125
1593,0.07421875,-1.140625,-0.30078125
1594,0.0625,-1.12890625,-0.33203125
1595,0.0546875,-1.1015625,-0.39453125
1596,-0.01171875,-1.1015625,-0.4375
1597,-0.0546875,-1.10546875,-0.42578125
1598,-0.11328125,-1.12109375,-0.38671875
1599,-0.12890625,-1.19921875,-0.328125
1600,-0.12890625,-1.24609375,-0.3046875
1601,-0.1328125,-1.296875,-0.26953125
1602,-0.109375,-1.296875,-0.3125
1603,-0.0703125,-1.26953125,-0.34375
1604,-0.015625,-1.1796875,-0.375
1605,0.046875,-1.0859375,-0.4296875
1606,0.10546875,-1.0625,-0.4375
1607,0.13671875,-1.0390625,-0.453125
1608,0.1640625,-1.01953125,-0.4140625
1609,0.19921875,-1.02734375,-0.39453125
1610,0.2109375,-0.9921875,-0.36328125
1611,0.2109375,-0.9765625,-0.3359375
1612,0.20703125,-0.96484375,-0.3359375
1613,0.19140625,-0.9453125,-0.37109375
1614,0.19140625,-0.96875,-0.390625
1615,0.203125,-0.9765625,-0.390625
1616,0.2109375,-1.00390625,-0.4296875
1617,0.20703125,-1.015625,-0.40234375
1618,0.19921875,-1.0234375,-0.3828125
1619,0.1953125,-1.03515625,-0.3515625
1620,0.17578125,-1.03125,-0.31640625
1621,0.17578125,-0.99609375,-0.32421875
1622,0.19140625,-0.94921875,-0.31640625
1623,0.19921875,-0.9296875,-0.32421875
1624,0.21875,-0.87890625,-0.34765625
1625,0.25,-0.87109375,-0.34375
1626,0.2578125,-0.84765625,-0.33203125
1627,0.28515625,-0.85546875,-0.328125
1628,0.28515625,-0.89453125,-0.32421875
1629,0.30078125,-0.93359375,-0.296875
1630,0.28515625,-0.94921875,-0.29296875
1631,0.2734375,-0.96484375,-0.27734375
1632,0.25,-0.97265625,-0.27734375
1633,0.23828125,-0.984375,-0.28125
1634,0.234375,-0.98828125,-0.3046875
1635,0.21484375,-0.96875,-0.3203125
1636,0.21875,-0.9609375,-0.30859375
1637,0.21484375,-0.9609375,-0.33203125
1638,0.22265625,-0.953125,-0.3359375
1639,0.2109375,-0.96484375,-0.34375
1640,0.21484375,-0.97265625,-0.3515625
1641,0.20703125,-0.9609375,-0.36328125
1642,0.1953125,-0.95703125,-0.36328125
1643,0.171875,-0.9609375,-0.35546875
1644,0.1484375,-0.96484375,-0.34375
1645,0.1328125,-0.96875,-0.328125
1646,0.1015625,-0.97265625,-0.328125
1647,0.08203125,-0.95703125,-0.33984375
1648,0.078125,-0.96875,-0.3515625
1649,0.046875,-0.94921875,-0.33203125
1650,0.0390625,-0.953125,-0.3359375
1651,0.03515625,-0.9609375,-0.34375
1652,0.0390625,-0.97265625,-0.34375
1653,0.0234375,-0.98828125,-0.3203125
1654,0.03515625,-0.99609375,-0.3203125
1655,0.04296875,-1.0,-0.31640625
1656,0.07421875,-1.02734375,-0.28515625
1657,0.08984375,-1.0390625,-0.28515625
1658,0.12109375,-1.05078125,-0.265625
1659,0.140625,-1.06640625,-0.2734375
1660,0.1484375,-1.0390625,-0.2890625
1661,0.171875,-1.03515625,-0.28125
1662,0.1796875,-1.0234375,-0.31640625
1663,0.19140625,-1.00390625,-0.31640625
1664,0.18359375,-0.984375,-0.3359375
1665,0.1640625,-0.97265625,-0.3359375
1666,0.171875,-0.9765625,-0.34375
1667,0.1484375,-1.00390625,-0.328125
1668,0.12890625,-1.015625,-0.32421875
1669,0.1171875,-1.0625,-0.3046875
1670,0.1015625,-1.078125,-0.28515625
1671,0.0859375,-1.0859375,-0.28515625
1672,0.08203125,-1.10546875,-0.2890625
1673,0.05859375,-1.08984375,-0.28125
1674,0.05078125,-1.08203125,-0.2734375
1675,0.03515625,-1.0625,-0.28125
1676,0.015625,-1.046875,-0.2734375
1677,0.015625,-1.046875,-0.2734375
1678,0.015625,-1.0390625,-0.26171875
1679,0.0078125,-1.0390625,-0.26171875
1680,0.03125,-1.04296875,-0.25
1681,0.04296875,-1.04296875,-0.25390625
1682,0.05859375,-1.04296875,-0.2578125
1683,0.05078125,-1.04296875,-0.25
1684,0.07421875,-1.03515625,-0.2421875
1685,0.08984375,-1.0390625,-0.234375
1686,0.09765625,-1.0390625,-0.23828125
1687,0.1015625,-1.04296875,-0.25390625
1688,0.1015625,-1.0546875,-0.265625
1689,0.109375,-1.0546875,-0.26953125
1690,0.11328125,-1.03515625,-0.2578125
1691,0.1171875,-1.0390625,-0.26171875
1692,0.1015625,-1.04296875,-0.2578125
1693,0.0859375,-1.015625,-0.2734375
1694,0.0859375,-1.015625,-0.27734375
1695,0.08203125,-0.9921875,-0.2734375
1696,0.0625,-0.98046875,-0.26171875
1697,0.0703125,-0.98828125,-0.2578125
1698,0.0859375,-0.99609375,-0.25390625
1699,0.11328125,-0.9921875,-0.24609375
1700,0.13671875,-1.01171875,-0.24609375
1701,0.14453125,-1.01953125,-0.23828125
1702,0.16796875,-1.02734375,-0.21875
1703,0.1640625,-1.03125,-0.21875
1704,0.17578125,-1.046875,-0.20703125
1705,0.16796875,-1.0546875,-0.22265625
1706,0.17578125,-1.04296875,-0.2109375
1707,0.171875,-1.02734375,-0.19921875
1708,0.16796875,-1.03125,-0.2265625
1709,0.14453125,-1.0234375,-0.21484375
1710,0.1484375,-1.01953125,-0.23828125
1711,0.1484375,-1.01953125,-0.23046875
1712,0.13671875,-1.02734375,-0.23828125
1713,0.109375,-1.03125,-0.23828125
1714,0.11328125,-1.02734375,-0.2421875
1715,0.1015625,-1.02734375,-0.25
1716,0.09375,-1.03125,-0.25
1717,0.08203125,-1.04296875,-0.23828125
1718,0.078125,-1.05859375,-0.23828125
1719,0.0703125,-1.05078125,-0.23046875
1720,0.0625,-1.06640625,-0.23828125
1721,0.05859375,-1.07421875,-0.20703125
1722,0.05859375,-1.07421875,-0.203125
1723,0.04296875,-1.08203125,-0.1953125
1724,0.046875,-1.08203125,-0.19140625
1725,0.0546875,-1.0703125,-0.1953125
1726,0.046875,-1.07421875,-0.203125
1727,0.03515625,-1.06640625,-0.19140625
1728,0.03125,-1.05078125,-0.1875
1729,0.02734375,-1.046875,-0.17578125
1730,0.02734375,-1.05859375,-0.12890625
1731,0.0234375,-1.078125,-0.12890625
1732,0.01953125,-1.07421875,-0.12890625
1733,0.01953125,-1.10546875,-0.12890625
1734,0.015625,-1.109375,-0.1328125
1735,0.01953125,-1.13671875,-0.1328125
1736,0.01171875,-1.1640625,-0.12109375
1737,0.0,-1.1640625,-0.1328125
1738,-0.0078125,-1.1875,-0.140625
1739,-0.01171875,-1.1953125,-0.17578125
1740,-0.0234375,-1.18359375,-0.17578125
1741,-0.0234375,-1.15625,-0.21875
1742,-0.0078125,-1.140625,-0.22265625
1743,0.0,-1.1171875,-0.19921875
1744,0.015625,-1.1015625,-0.21875
1745,0.01171875,-1.08984375,-0.1875
1746,0.03515625,-1.078125,-0.1875
1747,0.0390625,-1.078125,-0.1796875
1748,0.0234375,-1.078125,-0.171875
1749,0.02734375,-1.0859375,-0.16015625
1750,0.0234375,-1.078125,-0.15234375
1751,0.00390625,-1.06640625,-0.15625
1752,0.01171875,-1.0546875,-0.14453125
1753,0.02734375,-1.03515625,-0.1640625
1754,0.015625,-1.015625,-0.15234375
1755,0.0078125,-0.99609375,-0.15625
1756,0.01953125,-0.98828125,-0.16796875
1757,0.0234375,-0.98828125,-0.14453125
1758,0.01171875,-0.98828125,-0.140625
1759,0.01171875,-0.9921875,-0.15234375
1760,0.0703125,-1.03515625,-0.125
1761,0.04296875,-1.015625,-0.13671875
1762,0.05078125,-1.01953125,-0.140625
1763,0.0625,-1.01171875,-0.16796875
1764,0.06640625,-1.00390625,-0.15625
1765,0.0703125,-1.0078125,-0.17578125
1766,0.05859375,-1.015625,-0.17578125
1767,0.0625,-1.01171875,-0.19140625
1768,0.05078125,-1.00390625,-0.17578125
1769,0.046875,-1.00390625,-0.15234375
1770,0.0390625,-1.01171875,-0.1484375
1771,0.03125,-0.99609375,-0.1484375
1772,0.03515625,-1.01171875,-0.12890625
1773,0.02734375,-1.01953125,-0.1484375
1774,0.03125,-1.02734375,-0.14453125
1775,0.02734375,-1.015625,-0.14453125
1776,0.03515625,-1.03515625,-0.14453125
1777,0.03125,-1.0234375,-0.1484375
1778,0.03515625,-1.015625,-0.17578125
1779,0.0390625,-0.98828125,-0.1796875
1780,0.0390625,-0.97265625,-0.19921875
1781,0.03125,-0.9609375,-0.19921875
1782,0.03515625,-0.96484375,-0.19921875
1783,0.0234375,-0.96875,-0.203125
1784,0.046875,-0.98046875,-0.20703125
1785,0.0546875,-1.0,-0.21484375
1786,0.05859375,-1.0078125,-0.25
1787,0.08203125,-1.03125,-0.25
1788,0.08984375,-1.04296875,-0.265625
1789,0.10546875,-1.07421875,-0.26953125
1790,0.09765625,-1.07421875,-0.26171875
1791,0.09765625,-1.09375,-0.25390625
1792,0.09765625,-1.09765625,-0.25
1793,0.109375,-1.125,-0.234375
1794,0.09765625,-1.14453125,-0.2421875
1795,0.1015625,-1.1484375,-0.2421875
1796,0.08984375,-1.14453125,-0.23046875
1797,0.09375,-1.1484375,-0.234375
1798,0.09375,-1.12890625,-0.21484375
1799,0.0703125,-1.1171875,-0.2421875
1800,0.03515625,-1.078125,-0.234375
1801,0.00390625,-1.0546875,-0.26171875
1802,-0.01171875,-1.0390625,-0.27734375
1803,-0.04296875,-1.015625,-0.296875
1804,-0.046875,-0.99609375,-0.30078125
1805,-0.08203125,-1.01171875,-0.28125
1806,-0.11328125,-1.03515625,-0.2421875
1807,-0.11328125,-1.0703125,-0.1953125
1808,-0.12109375,-1.08984375,-0.16796875
1809,-0.1171875,-1.12109375,-0.13671875
1810,-0.109375,-1.15234375,-0.125
1811,-0.09375,-1.16015625,-0.10546875
1812,-0.08984375,-1.16015625,-0.09375
1813,-0.05859375,-1.1796875,-0.08203125
1814,-0.05078125,-1.17578125,-0.12109375
1815,-0.0546875,-1.1484375,-0.12109375
1816,-0.0234375,-1.13671875,-0.15234375
1817,-0.01953125,-1.11328125,-0.1796875
1818,0.01171875,-1.08203125,-0.171875
1819,0.0234375,-1.05859375,-0.19140625
1820,0.046875,-1.0390625,-0.18359375
1821,0.05859375,-1.03515625,-0.140625
1822,0.08203125,-1.0234375,-0.1328125
1823,0.09375,-1.0078125,-0.10546875
1824,0.11328125,-1.02734375,-0.0703125
1825,0.125,-1.04296875,-0.05078125
1826,0.125,-1.046875,-0.01953125
1827,0.1328125,-1.03515625,-0.00390625
1828,0.12109375,-1.015625,-0.03125
1829,0.11328125,-0.99609375,-0.01171875
1830,0.109375,-0.98046875,-0.01953125
1831,0.08203125,-0.9609375,-0.02734375
1832,0.06640625,-0.9453125,-0.0390625
1833,0.03125,-0.94140625,-0.01953125
1834,0.0,-0.9453125,-0.0078125
1835,-0.01953125,-0.9375,0.0078125
1836,-0.04296875,-0.96484375,0.00390625
1837,-0.046875,-0.94140625,0.015625
1838,-0.06640625,-0.94140625,0.01171875
1839,-0.0859375,-0.9453125,0.0
1840,-0.08203125,-0.9453125,0.0
1841,-0.09375,-0.95703125,-0.01953125
1842,-0.1015625,-0.96875,-0.0078125
1843,-0.08203125,-0.984375,-0.015625
1844,-0.078125,-1.0,0.0
1845,-0.07421875,-1.0078125,0.0078125
1846,-0.06640625,-1.015625,-0.0078125
1847,-0.046875,-1.015625,0.0078125
1848,-0.046875,-0.99609375,0.0
1849,-0.04296875,-0.99609375,0.00390625
1850,-0.03515625,-0.9609375,0.00390625
1851,-0.04296875,-0.9375,0.0
1852,-0.02734375,-0.91796875,-0.01171875
1853,-0.01953125,-0.90625,-0.03125
1854,-0.0234375,-0.91796875,-0.01171875
1855,-0.01171875,-0.93359375,-0.03125
1856,-0.01171875,-0.94140625,-0.0390625
1857,-0.03125,-0.953125,-0.03515625
1858,-0.01171875,-0.98046875,-0.05078125
1859,-0.0234375,-1.01171875,-0.0703125
1860,0.0,-1.0078125,-0.046875
1861,0.0078125,-1.0234375,-0.05078125
1862,0.0078125,-1.01171875,-0.05078125
1863,0.0234375,-0.98828125,-0.0234375
1864,0.0234375,-0.94921875,-0.0234375
1865,0.03515625,-0.91015625,-0.01953125
1866,0.01953125,-0.87890625,-0.0078125
1867,0.0078125,-0.84375,-0.015625
1868,0.0,-0.82421875,-0.0078125
1869,0.01953125,-0.8203125,-0.015625
1870,0.01171875,-0.79296875,-0.01953125
1871,0.0,-0.78125,-0.01171875
1872,-0.01171875,-0.78515625,-0.015625
1873,-0.04296875,-0.7890625,0.0
1874,-0.04296875,-0.79296875,-0.015625
1875,-0.046875,-0.81640625,-0.00390625
1876,-0.046875,-0.83984375,-0.0078125
1877,-0.046875,-0.87109375,0.0
1878,-0.03515625,-0.90234375,0.01953125
1879,-0.03515625,-0.94140625,0.046875
1880,-0.0078125,-0.98046875,0.0546875
1881,0.0,-1.01171875,0.078125
1882,-0.0078125,-1.02734375,0.08203125
1883,0.015625,-1.03125,0.0625
1884,0.01953125,-1.01171875,0.0703125
1885,0.03125,-1.00390625,0.06640625
1886,0.00390625,-0.97265625,0.05078125
1887,-0.01171875,-0.9375,0.015625
1888,-0.02734375,-0.9140625,-0.015625
1889,-0.04296875,-0.90234375,-0.05859375
1890,-0.078125,-0.890625,-0.07421875
1891,-0.0859375,-0.8828125,-0.1015625
1892,-0.09765625,-0.89453125,-0.1015625
1893,-0.12109375,-0.90625,-0.09375
1894,-0.125,-0.94921875,-0.07421875
1895,-0.12890625,-1.00390625,-0.04296875
1896,-0.10546875,-1.0546875,-0.015625
1897,-0.07421875,-1.0625,0.00390625
1898,-0.046875,-1.06640625,0.01953125
1899,-0.0390625,-1.0390625,0.01171875
1900,-0.0078125,-1.015625,0.00390625
1901,0.00390625,-0.98828125,0.01171875
1902,0.01171875,-0.95703125,-0.0234375
1903,0.01171875,-0.9453125,-0.0234375
1904,0.00390625,-0.9296875,-0.015625
1905,-0.0078125,-0.93359375,0.0
1906,-0.0078125,-0.9375,0.0234375
1907,-0.0234375,-0.96875,0.04296875
1908,-0.03515625,-0.98828125,0.08203125
1909,-0.04296875,-1.0078125,0.12109375
1910,-0.0625,-1.02734375,0.15234375
1911,-0.06640625,-1.03515625,0.15625
1912,-0.0546875,-1.02734375,0.16796875
1913,-0.03125,-1.01171875,0.16015625
1914,-0.0546875,-0.96875,0.1484375
1915,-0.06640625,-0.9375,0.17578125
1916,-0.0546875,-0.890625,0.19140625
1917,-0.0546875,-0.859375,0.19140625
1918,-0.078125,-0.8359375,0.18359375
1919,-0.09375,-0.8203125,0.17578125
1920,-0.1015625,-0.79296875,0.1640625
1921,-0.12890625,-0.75390625,0.15625
1922,-0.12890625,-0.74609375,0.1015625
1923,-0.13671875,-0.7421875,0.09375
1924,-0.1640625,-0.76171875,0.09375
1925,-0.171875,-0.7890625,0.109375
1926,-0.1640625,-0.84375,0.12890625
1927,-0.17578125,-0.9140625,0.13671875
1928,-0.171875,-0.953125,0.14453125
1929,-0.14453125,-0.98828125,0.109375
1930,-0.125,-1.0,0.078125
1931,-0.07421875,-1.01953125,0.03515625
1932,-0.05859375,-1.01953125,0.0234375
1933,-0.046875,-1.07421875,0.0078125
1934,-0.02734375,-1.1171875,0.0
1935,-0.0078125,-1.1953125,-0.04296875
1936,0.00390625,-1.2421875,-0.12890625
1937,0.0234375,-1.3125,-0.18359375
1938,0.015625,-1.35546875,-0.2421875
1939,0.02734375,-1.39453125,-0.265625
1940,0.0546875,-1.44140625,-0.28515625
1941,0.09765625,-1.49609375,-0.30078125
1942,0.125,-1.53515625,-0.33984375
1943,0.1484375,-1.5546875,-0.37890625
1944,0.18359375,-1.52734375,-0.3984375
1945,0.2109375,-1.515625,-0.39453125
1946,0.2109375,-1.484375,-0.3828125
1947,0.21484375,-1.46875,-0.3515625
1948,0.15625,-1.4375,-0.33984375
1949,0.08984375,-1.4296875,-0.3203125
1950,0.09765625,-1.4375,-0.296875
1951,0.11328125,-1.42578125,-0.27734375
1952,0.15234375,-1.4296875,-0.28125
1953,0.1875,-1.4140625,-0.34765625
1954,0.203125,-1.40625,-0.375
1955,0.2421875,-1.421875,-0.3984375
1956,0.26953125,-1.4453125,-0.35546875
1957,0.296875,-1.46875,-0.34375
1958,0.33203125,-1.515625,-0.3046875
1959,0.34765625,-1.5390625,-0.265625
1960,0.36328125,-1.55078125,-0.25390625
1961,0.32421875,-1.546875,-0.21484375
1962,0.30078125,-1.52734375,-0.14453125
1963,0.25,-1.5,-0.09375
1964,0.19921875,-1.46484375,-0.05078125
1965,0.1484375,-1.3984375,-0.02734375
1966,0.09375,-1.328125,0.015625
1967,0.0390625,-1.2421875,0.01171875
1968,-0.01171875,-1.15625,0.03125
1969,-0.0390625,-1.08203125,0.04296875
1970,-0.0703125,-1.046875,0.0390625
1971,-0.10546875,-1.01953125,0.0234375
1972,-0.14453125,-1.00390625,0.015625
1973,-0.171875,-1.00390625,0.01171875
1974,-0.1640625,-1.03515625,0.00390625
1975,-0.15234375,-1.0625,-0.0234375
1976,-0.1171875,-1.109375,-0.02734375
1977,-0.046875,-1.15234375,-0.0703125
1978,-0.01171875,-1.19921875,-0.0546875
1979,0.02734375,-1.203125,-0.05859375
1980,0.0390625,-1.21875,-0.05078125
1981,0.046875,-1.2109375,-0.0390625
1982,0.0546875,-1.19140625,-0.03515625
1983,0.02734375,-1.1640625,-0.03125
1984,0.03125,-1.125,-0.02734375
1985,0.0234375,-1.0859375,-0.02734375
1986,0.015625,-1.046875,-0.0234375
1987,0.0,-1.00390625,-0.05078125
1988,-0.015625,-0.9609375,-0.046875
1989,-0.0234375,-0.92578125,-0.046875
1990,-0.03125,-0.90234375,-0.07421875
1991,-0.046875,-0.8828125,-0.09765625
1992,-0.046875,-0.875,-0.11328125
1993,-0.046875,-0.8671875,-0.1171875
1994,-0.046875,-0.88671875,-0.10546875
1995,-0.046875,-0.890625,-0.09765625
1996,-0.0390625,-0.8984375,-0.0859375
1997,-0.04296875,-0.90234375,-0.08203125
1998,-0.00390625,-0.921875,-0.07421875
1999,0.01171875,-0.9296875,-0.06640625
2000,0.04296875,-0.93359375,-0.0859375
2001,0.05859375,-0.9375,-0.078125
2002,0.0703125,-0.9375,-0.08203125
2003,0.08984375,-0.9296875,-0.08203125
2004,0.08984375,-0.92578125,-0.078125
2005,0.09765625,-0.91796875,-0.06640625
2006,0.10546875,-0.91796875,-0.078125
2007,0.10546875,-0.90234375,-0.0625
2008,0.10546875,-0.91796875,-0.0546875
2009,0.12109375,-0.92578125,-0.0625
2010,0.12890625,-0.92578125,-0.0625
2011,0.13671875,-0.91796875,-0.06640625
2012,0.11328125,-0.9140625,-0.07421875
2013,0.078125,-0.89453125,-0.0703125
2014,0.046875,-0.875,-0.0703125
2015,0.0,-0.8359375,-0.08203125
2016,-0.00390625,-0.828125,-0.10546875
2017,-0.0234375,-0.8203125,-0.08984375
2018,-0.046875,-0.82421875,-0.0859375
2019,-0.05078125,-0.83984375,-0.046875
2020,-0.04296875,-0.8671875,-0.00390625
2021,-0.03515625,-0.89453125,0.00390625
2022,-0.046875,-0.91015625,0.0390625
2023,-0.03515625,-0.94140625,0.08203125
2024,-0.03515625,-0.92578125,0.08984375
2025,-0.01953125,-0.91796875,0.08984375
2026,-0.0078125,-0.87109375,0.0859375
2027,0.00390625,-0.83984375,0.07421875
2028,-0.015625,-0.7890625,0.0390625
2029,-0.03125,-0.71875,0.01953125
2030,-0.03125,-0.6640625,-0.0078125
2031,-0.0390625,-0.5859375,-0.03125
2032,-0.03515625,-0.546875,-0.0390625
2033,-0.03125,-0.52734375,-0.07421875
2034,-0.0390625,-0.515625,-0.0625
2035,-0.046875,-0.53515625,-0.046875
2036,-0.03515625,-0.59375,-0.04296875
2037,-0.03515625,-0.67578125,-0.015625
2038,-0.00390625,-0.76171875,0.0
2039,0.01171875,-0.84765625,0.00390625
2040,0.03515625,-0.91015625,0.01953125
2041,0.046875,-0.9921875,0.02734375
2042,0.046875,-1.015625,0.04296875
2043,0.05859375,-1.0234375,0.03125
2044,0.0546875,-1.0,0.0
2045,0.06640625,-0.96875,0.0
2046,0.07421875,-0.91796875,-0.06640625
2047,0.0703125,-0.84765625,-0.1171875
2048,0.05078125,-0.796875,-0.16796875
2049,0.0390625,-0.75,-0.19921875
2050,0.01171875,-0.71875,-0.20703125
2051,0.0078125,-0.73046875,-0.19921875
2052,-0.0234375,-0.7578125,-0.16015625
2053,-0.0390625,-0.82421875,-0.1171875
2054,-0.06640625,-0.87109375,-0.04296875
2055,-0.10546875,-0.90625,-0.01953125
2056,-0.109375,-0.90625,0.0078125
2057,-0.1171875,-0.875,0.0
2058,-0.1015625,-0.82421875,-0.02734375
2059,-0.0703125,-0.78125,-0.0625
2060,-0.03515625,-0.6953125,-0.10546875
2061,0.00390625,-0.61328125,-0.1796875
2062,0.03515625,-0.609375,-0.19140625
2063,0.0390625,-0.62109375,-0.1484375
2064,0.0390625,-0.66796875,-0.14453125
2065,0.01953125,-0.7265625,-0.171875
2066,0.0390625,-0.80078125,-0.23046875
2067,0.0390625,-0.84765625,-0.27734375
2068,0.01953125,-0.9375,-0.3046875
2069,-0.00390625,-1.0546875,-0.3359375
2070,-0.03515625,-1.18359375,-0.37890625
2071,-0.0546875,-1.30859375,-0.4453125
2072,-0.0546875,-1.41796875,-0.546875
2073,-0.04296875,-1.53125,-0.62109375
2074,-0.02734375,-1.59765625,-0.69140625
2075,-0.03125,-1.6328125,-0.75
2076,-0.0390625,-1.6796875,-0.8125
2077,-0.046875,-1.72265625,-0.81640625
2078,-0.1015625,-1.76171875,-0.77734375
2079,-0.1640625,-1.796875,-0.703125
2080,-0.22265625,-1.8203125,-0.55078125
2081,-0.2734375,-1.79296875,-0.4140625
2082,-0.29296875,-1.76953125,-0.2734375
2083,-0.296875,-1.75,-0.19921875
2084,-0.2890625,-1.7109375,-0.15625
2085,-0.28515625,-1.68359375,-0.1640625
2086,-0.26953125,-1.66015625,-0.25
2087,-0.2578125,-1.6484375,-0.32421875
2088,-0.21875,-1.6484375,-0.39453125
2089,-0.14453125,-1.6484375,-0.36328125
2090,-0.1015625,-1.6328125,-0.30078125
2091,-0.08984375,-1.625,-0.2421875
2092,-0.046875,-1.62109375,-0.1875
2093,0.01953125,-1.62109375,-0.1640625
2094,0.09375,-1.625,-0.1640625
2095,0.140625,-1.62109375,-0.13671875
2096,0.16015625,-1.609375,-0.1328125
2097,0.1484375,-1.609375,-0.13671875
2098,0.14453125,-1.59375,-0.1171875
2099,0.14453125,-1.59375,-0.14453125
2100,0.140625,-1.5625,-0.14453125
2101,0.1328125,-1.4765625,-0.15234375
2102,0.12109375,-1.375,-0.15234375
2103,0.09375,-1.2734375,-0.13671875
2104,0.1015625,-1.19921875,-0.125
2105,0.109375,-1.1015625,-0.12890625
2106,0.125,-1.0546875,-0.12109375
2107,0.140625,-1.01953125,-0.0859375
2108,0.140625,-0.9921875,-0.08203125
2109,0.15625,-0.98828125,-0.06640625
2110,0.15234375,-0.984375,-0.0859375
2111,0.125,-0.9765625,-0.08984375
2112,0.11328125,-0.9609375,-0.08203125
2113,0.0859375,-0.94921875,-0.08203125
2114,0.06640625,-0.91796875,-0.08984375
2115,0.05859375,-0.88671875,-0.078125
2116,0.0625,-0.83984375,-0.0625
2117,0.0234375,-0.8125,-0.08984375
2118,0.01953125,-0.76953125,-0.09375
2119,0.0078125,-0.74609375,-0.0859375
2120,0.0078125,-0.7109375,-0.09375
2121,-0.015625,-0.69921875,-0.08984375
2122,-0.0390625,-0.69921875,-0.08203125
2123,-0.05078125,-0.69921875,-0.0625
2124,-0.05859375,-0.734375,-0.0546875
2125,-0.07421875,-0.76171875,-0.03125
2126,-0.08984375,-0.8125,-0.01953125
2127,-0.08203125,-0.859375,-0.00390625
2128,-0.125,-0.89453125,0.01171875
2129,-0.12890625,-0.93359375,-0.01171875
2130,-0.13671875,-0.95703125,-0.015625
2131,-0.13671875,-0.9609375,-0.01171875
2132,-0.12109375,-0.9609375,-0.00390625
2133,-0.1015625,-0.94140625,-0.0078125
2134,-0.10546875,-0.9140625,0.015625
2135,-0.11328125,-0.8671875,0.0390625
2136,-0.109375,-0.828125,0.03125
2137,-0.09375,-0.80078125,0.04296875
2138,-0.08984375,-0.76953125,0.02734375
2139,-0.08984375,-0.71875,0.04296875
2140,-0.07421875,-0.6875,0.015625
2141,-0.07421875,-0.6484375,0.0078125
2142,-0.0703125,-0.61328125,-0.0078125
2143,-0.08203125,-0.6015625,-0.03515625
2144,-0.078125,-0.59375,-0.01171875
2145,-0.08984375,-0.6171875,-0.0078125
2146,-0.09375,-0.625,-0.00390625
2147,-0.09765625,-0.6796875,-0.00390625
2148,-0.10546875,-0.72265625,0.00390625
2149,-0.10546875,-0.78125,0.01171875
2150,-0.0859375,-0.828125,0.046875
2151,-0.06640625,-0.859375,0.0546875
2152,-0.04296875,-0.90625,0.0703125
2153,-0.0234375,-0.890625,0.0625
2154,-0.01953125,-0.88671875,0.0703125
2155,0.0,-0.8828125,0.06640625
2156,0.02734375,-0.87109375,0.0703125
2157,0.02734375,-0.85546875,0.07421875
2158,0.0234375,-0.84375,0.05859375
2159,0.0,-0.84375,0.00390625
2160,-0.00390625,-0.8359375,-0.05078125
2161,0.00390625,-0.8671875,-0.10546875
2162,0.0234375,-0.8671875,-0.15625
2163,0.05859375,-0.8671875,-0.15625
2164,0.09765625,-0.87890625,-0.16796875
2165,0.1328125,-0.8671875,-0.13671875
2166,0.14453125,-0.8671875,-0.1328125
2167,0.1640625,-0.86328125,-0.15234375
2168,0.15234375,-0.83984375,-0.1484375
2169,0.125,-0.8359375,-0.140625
2170,0.109375,-0.83984375,-0.13671875
2171,0.08984375,-0.8671875,-0.125
2172,0.0859375,-0.890625,-0.08984375
2173,0.06640625,-0.91796875,-0.0546875
2174,0.0703125,-0.953125,-0.03515625
2175,0.05859375,-0.9609375,-0.04296875
2176,0.046875,-0.9375,-0.07421875
2177,0.05078125,-0.91796875,-0.09765625
2178,0.046875,-0.88671875,-0.078125
2179,0.0390625,-0.8671875,-0.08984375
2180,0.02734375,-0.86328125,-0.09375
2181,-0.01953125,-0.875,-0.07421875
2182,-0.04296875,-0.94140625,-0.0390625
2183,-0.0703125,-0.9921875,-0.0078125
2184,-0.0703125,-1.05078125,0.01171875
2185,-0.05078125,-1.09765625,0.0
2186,-0.05859375,-1.1171875,-0.02734375
2187,-0.03515625,-1.171875,-0.04296875
2188,-0.00390625,-1.20703125,-0.07421875
2189,0.01171875,-1.26171875,-0.0859375
2190,0.03515625,-1.3125,-0.09375
2191,0.0390625,-1.34375,-0.1328125
2192,0.03515625,-1.3828125,-0.171875
2193,0.015625,-1.421875,-0.22265625
2194,0.0078125,-1.453125,-0.265625
2195,0.0078125,-1.49609375,-0.31640625
2196,0.01953125,-1.5390625,-0.3671875
2197,0.0625,-1.5859375,-0.40234375
2198,0.078125,-1.62109375,-0.37890625
2199,0.07421875,-1.640625,-0.3515625
2200,0.0703125,-1.640625,-0.29296875
2201,0.078125,-1.6484375,-0.265625
2202,0.06640625,-1.63671875,-0.25
2203,0.08203125,-1.640625,-0.23828125
2204,0.109375,-1.62109375,-0.24609375
2205,0.16015625,-1.609375,-0.25
2206,0.20703125,-1.58984375,-0.265625
2207,0.2421875,-1.57421875,-0.30078125
2208,0.265625,-1.55078125,-0.296875
2209,0.2578125,-1.53515625,-0.28125
2210,0.21875,-1.53125,-0.234375
2211,0.17578125,-1.50390625,-0.21484375
2212,0.078125,-1.46875,-0.171875
2213,0.03125,-1.453125,-0.140625
2214,-0.0234375,-1.4375,-0.11328125
2215,-0.046875,-1.40625,-0.09375
2216,-0.0625,-1.40625,-0.09765625
2217,-0.0546875,-1.3984375,-0.078125
2218,-0.06640625,-1.39453125,-0.0625
2219,-0.03515625,-1.40625,-0.02734375
2220,-0.046875,-1.39453125,-0.01171875
2221,-0.046875,-1.36328125,-0.00390625
2222,-0.0390625,-1.34375,0.0
2223,-0.015625,-1.3203125,0.0
2224,-0.0078125,-1.296875,-0.01171875
2225,-0.0234375,-1.25390625,-0.046875
2226,-0.01953125,-1.21875,-0.0703125
2227,-0.015625,-1.1640625,-0.11328125
2228,-0.01953125,-1.1328125,-0.1171875
2229,0.01171875,-1.1015625,-0.125
2230,0.0390625,-1.08984375,-0.11328125
2231,0.05859375,-1.09765625,-0.12890625
2232,0.09375,-1.09375,-0.140625
2233,0.1171875,-1.10546875,-0.13671875
2234,0.12109375,-1.109375,-0.125
2235,0.17578125,-1.12890625,-0.09375
2236,0.21875,-1.140625,-0.1015625
2237,0.21484375,-1.1171875,-0.0859375
2238,0.1953125,-1.09765625,-0.0859375
2239,0.13671875,-1.0703125,-0.0859375
2240,0.0625,-1.0234375,-0.10546875
2241,0.01953125,-0.984375,-0.1328125
2242,-0.0546875,-0.92578125,-0.12890625
2243,-0.078125,-0.89453125,-0.13671875
2244,-0.11328125,-0.85546875,-0.13671875
2245,-0.1171875,-0.8515625,-0.13671875
2246,-0.08984375,-0.83203125,-0.13671875
2247,-0.06640625,-0.8359375,-0.13671875
2248,-0.046875,-0.8359375,-0.12109375
2249,-0.01953125,-0.84375,-0.08984375
2250,0.0390625,-0.87109375,-0.0859375
2251,0.078125,-0.890625,-0.08984375
2252,0.08203125,-0.89453125,-0.05859375
2253,0.09375,-0.91796875,-0.05078125
2254,0.0859375,-0.9296875,-0.046875
2255,0.0625,-0.93359375,-0.05859375
2256,0.08203125,-0.94140625,-0.07421875
2257,0.0625,-0.9375,-0.0703125
2258,0.0390625,-0.91796875,-0.08203125
2259,0.03515625,-0.8984375,-0.08203125
2260,0.0234375,-0.859375,-0.09375
2261,0.00390625,-0.83984375,-0.1015625
2262,-0.01171875,-0.80078125,-0.09765625
2263,-0.03125,-0.75,-0.08203125
2264,-0.04296875,-0.71484375,-0.07421875
2265,-0.04296875,-0.671875,-0.07421875
2266,-0.046875,-0.66015625,-0.06640625
2267,-0.04296875,-0.62109375,-0.046875
2268,-0.02734375,-0.65234375,-0.01171875
2269,0.00390625,-0.66796875,-0.0078125
2270,0.0078125,-0.72265625,0.0078125
2271,0.0390625,-0.77734375,0.01171875
2272,0.0546875,-0.8203125,0.0390625
2273,0.06640625,-0.84765625,0.05859375
2274,0.06640625,-0.86328125,0.06640625
2275,0.0625,-0.87890625,0.0703125
2276,0.05859375,-0.875,0.0703125
2277,0.04296875,-0.85546875,0.06640625
2278,0.0234375,-0.828125,0.05859375
2279,-0.01171875,-0.77734375,0.0390625
2280,0.00390625,-0.74609375,0.03125
2281,-0.03125,-0.69140625,0.015625
2282,-0.03515625,-0.6484375,-0.01953125
2283,-0.0390625,-0.6328125,-0.046875
2284,-0.04296875,-0.6328125,-0.0859375
2285,-0.03515625,-0.6484375,-0.0859375
2286,-0.04296875,-0.6953125,-0.0703125
2287,-0.0546875,-0.7578125,-0.05078125
2288,-0.07421875,-0.82421875,-0.03125
2289,-0.07421875,-0.91796875,-0.0078125
2290,-0.05078125,-1.01171875,-0.01953125
2291,0.0078125,-1.08984375,0.0078125
2292,0.0546875,-1.12109375,0.0
2293,0.0703125,-1.13671875,-0.02734375
2294,0.1015625,-1.13671875,-0.06640625
2295,0.140625,-1.109375,-0.05859375
2296,0.1640625,-1.0859375,-0.06640625
2297,0.16796875,-1.0546875,-0.05078125
2298,0.17578125,-1.01953125,-0.046875
2299,0.171875,-1.015625,-0.0546875
2300,0.15625,-1.0078125,-0.03125
2301,0.109375,-1.00390625,-0.03515625
2302,0.07421875,-1.00390625,-0.03515625
2303,0.03125,-0.97265625,-0.03515625
2304,0.0078125,-0.96875,-0.0390625
2305,-0.00390625,-0.94140625,-0.06640625
2306,0.0,-0.90234375,-0.078125
2307,-0.00390625,-0.8828125,-0.0859375
2308,0.01171875,-0.85546875,-0.0859375
2309,0.0078125,-0.828125,-0.1015625
2310,0.0078125,-0.8046875,-0.08203125
2311,0.01953125,-0.8125,-0.05859375
2312,0.04296875,-0.8125,-0.05078125
2313,0.03125,-0.80859375,0.0
2314,0.05859375,-0.8125,0.0078125
2315,0.08203125,-0.81640625,0.01171875
2316,0.09765625,-0.796875,0.01953125
2317,0.078125,-0.7578125,0.0234375
2318,0.06640625,-0.73046875,0.01171875
2319,0.07421875,-0.75,0.03515625
2320,0.08203125,-0.7890625,0.046875
2321,0.09375,-0.8359375,0.05859375
2322,0.0859375,-0.87109375,0.01953125
2323,0.06640625,-0.91015625,-0.00390625
2324,0.05859375,-0.9453125,-0.0703125
2325,0.05078125,-0.97265625,-0.08984375
2326,0.02734375,-1.0234375,-0.1171875
2327,0.0390625,-1.08203125,-0.13671875
2328,0.046875,-1.13671875,-0.14453125
2329,0.08203125,-1.234375,-0.125
2330,0.1015625,-1.296875,-0.125
2331,0.1328125,-1.3515625,-0.1484375
2332,0.15234375,-1.4140625,-0.17578125
2333,0.16796875,-1.4375,-0.27734375
2334,0.1796875,-1.46484375,-0.375
2335,0.16796875,-1.484375,-0.5
2336,0.1640625,-1.4765625,-0.55078125
2337,0.16796875,-1.4765625,-0.55859375
2338,0.13671875,-1.48046875,-0.52734375
2339,0.04296875,-1.45703125,-0.43359375
2340,-0.04296875,-1.4375,-0.28125
2341,-0.1171875,-1.4296875,-0.16796875
2342,-0.15625,-1.421875,-0.04296875
2343,-0.16015625,-1.42578125,0.0078125
2344,-0.16796875,-1.4375,0.015625
2345,-0.23046875,-1.44140625,-0.02734375
2346,-0.2734375,-1.4375,-0.1171875
2347,-0.3203125,-1.4453125,-0.25
2348,-0.35546875,-1.46484375,-0.375
2349,-0.390625,-1.5,-0.47265625
2350,-0.3671875,-1.546875,-0.515625
2351,-0.30078125,-1.59765625,-0.5
2352,-0.25,-1.6328125,-0.45703125
2353,-0.19140625,-1.6640625,-0.34765625
2354,-0.1171875,-1.6875,-0.25
2355,-0.0625,-1.68359375,-0.18359375
2356,-0.0390625,-1.64453125,-0.12890625
2357,-0.01171875,-1.578125,-0.11328125
2358,-0.0078125,-1.47265625,-0.10546875
2359,-0.01171875,-1.39453125,-0.08984375
2360,-0.02734375,-1.3125,-0.1015625
2361,-0.0390625,-1.23828125,-0.140625
2362,-0.0390625,-1.1953125,-0.125
2363,0.0,-1.1640625,-0.12890625
2364,0.02734375,-1.15625,-0.1328125
2365,0.0703125,-1.16796875,-0.1171875
2366,0.07421875,-1.1953125,-0.1171875
2367,0.078125,-1.2421875,-0.12109375
2368,0.08203125,-1.25390625,-0.12890625
2369,0.08203125,-1.2734375,-0.12890625
2370,0.05859375,-1.29296875,-0.1484375
2371,0.0234375,-1.26953125,-0.1484375
2372,-0.04296875,-1.2578125,-0.125
2373,-0.0625,-1.23828125,-0.1015625
2374,-0.08984375,-1.2109375,-0.0625
2375,-0.09765625,-1.17578125,-0.05859375
2376,-0.125,-1.125,-0.06640625
2377,-0.140625,-1.0703125,-0.0703125
2378,-0.16796875,-1.0078125,-0.08984375
2379,-0.16796875,-0.94921875,-0.09765625
2380,-0.18359375,-0.90234375,-0.109375
2381,-0.171875,-0.859375,-0.12109375
2382,-0.16015625,-0.84765625,-0.140625
2383,-0.1328125,-0.82421875,-0.12109375
2384,-0.09765625,-0.80859375,-0.1640625
2385,-0.0546875,-0.796875,-0.14453125
2386,-0.0234375,-0.8046875,-0.17578125
2387,0.01171875,-0.78125,-0.1640625
2388,0.05078125,-0.78515625,-0.18359375
2389,0.0859375,-0.79296875,-0.20703125
2390,0.1171875,-0.81640625,-0.21484375
2391,0.12109375,-0.828125,-0.21484375
2392,0.1328125,-0.8359375,-0.22265625
2393,0.12109375,-0.890625,-0.2109375
2394,0.08203125,-0.91796875,-0.203125
2395,0.05078125,-0.93359375,-0.19921875
2396,0.05078125,-0.94921875,-0.1875
2397,0.04296875,-0.94921875,-0.1640625
2398,0.01953125,-0.953125,-0.13671875
2399,0.01171875,-0.9375,-0.09765625
2400,-0.0234375,-0.91015625,-0.0234375
2401,-0.0234375,-0.90234375,0.01171875
2402,-0.046875,-0.890625,0.0625
2403,-0.05078125,-0.8515625,0.10546875
2404,-0.03515625,-0.8125,0.1171875
2405,-0.01171875,-0.78125,0.125
2406,0.0,-0.7265625,0.109375
2407,0.01953125,-0.68359375,0.07421875
2408,0.015625,-0.6328125,0.0546875
2409,0.015625,-0.609375,0.0390625
2410,0.015625,-0.61328125,0.01171875
2411,-0.00390625,-0.61328125,0.00390625
2412,-0.03515625,-0.6328125,-0.015625
2413,-0.06640625,-0.6640625,-0.00390625
2414,-0.109375,-0.72265625,-0.015625
2415,-0.1328125,-0.75390625,-0.03125
2416,-0.16015625,-0.8203125,-0.05078125
2417,-0.1875,-0.890625,-0.0390625
2418,-0.19921875,-0.95703125,-0.03125
2419,-0.19921875,-1.02734375,0.0078125
2420,-0.1953125,-1.078125,0.07421875
2421,-0.15234375,-1.08203125,0.140625
2422,-0.11328125,-1.06640625,0.1953125
2423,-0.0703125,-1.03125,0.21484375
2424,-0.01953125,-0.9921875,0.17578125
2425,0.0,-0.91796875,0.11328125
2426,0.01953125,-0.85546875,0.03125
2427,0.01953125,-0.82421875,-0.07421875
2428,0.046875,-0.80859375,-0.15234375
2429,0.06640625,-0.80859375,-0.234375
2430,0.08984375,-0.8515625,-0.234375
2431,0.1171875,-0.89453125,-0.2421875
2432,0.13671875,-0.9609375,-0.2109375
2433,0.1484375,-1.015625,-0.14453125
2434,0.140625,-1.05078125,-0.08203125
2435,0.11328125,-1.04296875,-0.078125
2436,0.0859375,-0.99609375,-0.06640625
2437,0.0625,-0.953125,-0.07421875
2438,0.04296875,-0.91796875,-0.06640625
2439,0.05078125,-0.87109375,-0.09375
2440,0.05859375,-0.84765625,-0.109375
2441,0.0625,-0.81640625,-0.125
2442,0.06640625,-0.8046875,-0.09765625
2443,0.0703125,-0.796875,-0.09375
2444,0.06640625,-0.7890625,-0.0625
2445,0.05859375,-0.81640625,-0.015625
2446,0.0390625,-0.84765625,0.02734375
2447,0.015625,-0.86328125,0.0234375
2448,0.0,-0.90234375,0.04296875
2449,-0.015625,-0.89453125,0.01171875
2450,-0.01953125,-0.875,-0.0078125
2451,-0.0078125,-0.890625,-0.0390625
2452,0.03125,-0.93359375,-0.0625
2453,0.06640625,-0.98828125,-0.04296875
2454,0.11328125,-1.0625,-0.04296875
2455,0.12109375,-1.11328125,-0.01171875
2456,0.1328125,-1.171875,-0.02734375
2457,0.13671875,-1.22265625,-0.07421875
2458,0.1328125,-1.25390625,-0.1328125
2459,0.12109375,-1.28515625,-0.1953125
2460,0.11328125,-1.328125,-0.25
2461,0.0859375,-1.3828125,-0.28515625
2462,0.078125,-1.44140625,-0.3359375
2463,0.07421875,-1.484375,-0.3515625
2464,0.05859375,-1.54296875,-0.3671875
2465,0.08203125,-1.5625,-0.390625
2466,0.08984375,-1.5703125,-0.3984375
2467,0.09375,-1.5390625,-0.38671875
2468,0.05859375,-1.51171875,-0.37890625
2469,0.0390625,-1.46875,-0.390625
2470,0.04296875,-1.421875,-0.36328125
2471,0.05078125,-1.40625,-0.41015625
2472,0.0390625,-1.375,-0.39453125
2473,0.07421875,-1.33203125,-0.4375
2474,0.0390625,-1.3828125,-0.37890625
2475,0.0078125,-1.41015625,-0.328125
2476,0.00390625,-1.46484375,-0.30859375
2477,-0.01171875,-1.515625,-0.28515625
2478,-0.01171875,-1.5390625,-0.26171875
2479,-0.01171875,-1.5703125,-0.234375
2480,-0.01171875,-1.56640625,-0.2109375
2481,-0.01171875,-1.5625,-0.1875
2482,0.0,-1.53515625,-0.17578125
2483,0.0,-1.49609375,-0.1484375
2484,0.01953125,-1.46875,-0.14453125
2485,0.0390625,-1.4296875,-0.1328125
2486,0.06640625,-1.40234375,-0.140625
2487,0.08203125,-1.3515625,-0.14453125
2488,0.07421875,-1.30859375,-0.13671875
2489,0.078125,-1.26171875,-0.13671875
2490,0.06640625,-1.25,-0.1640625
2491,0.05859375,-1.2109375,-0.13671875
2492,0.03125,-1.1953125,-0.140625
2493,0.0,-1.1953125,-0.14453125
2494,-0.00390625,-1.2109375,-0.13671875
2495,-0.02734375,-1.21875,-0.125
2496,-0.046875,-1.25,-0.125
2497,-0.0625,-1.26953125,-0.12890625
2498,-0.07421875,-1.28515625,-0.1328125
2499,-0.08203125,-1.28125,-0.1640625
2500,-0.0859375,-1.26953125,-0.16796875
2501,-0.078125,-1.25,-0.16796875
2502,-0.0859375,-1.22265625,-0.171875
2503,-0.07421875,-1.2109375,-0.1640625
2504,-0.06640625,-1.1796875,-0.13671875
2505,-0.0546875,-1.1328125,-0.1484375
2506,-0.046875,-1.10546875,-0.15234375
2507,-0.02734375,-1.08984375,-0.16015625
2508,0.01953125,-1.0625,-0.15234375
2509,0.06640625,-1.02734375,-0.13671875
2510,0.0625,-1.015625,-0.12890625
2511,0.08984375,-0.98828125,-0.1328125
2512,0.07421875,-0.96875,-0.13671875
2513,0.0625,-0.9375,-0.12890625
2514,0.046875,-0.90234375,-0.13671875
2515,0.0390625,-0.875,-0.1171875
2516,0.0234375,-0.85546875,-0.1171875
2517,0.0234375,-0.8359375,-0.12109375
2518,0.0,-0.82421875,-0.13671875
2519,-0.00390625,-0.81640625,-0.14453125
2520,-0.0234375,-0.7734375,-0.1328125
2521,-0.01171875,-0.80078125,-0.140625
2522,0.00390625,-0.7890625,-0.13671875
2523,0.02734375,-0.8125,-0.140625
2524,0.046875,-0.8203125,-0.140625
2525,0.06640625,-0.83203125,-0.125
2526,0.08203125,-0.83203125,-0.1171875
2527,0.08203125,-0.84765625,-0.12109375
2528,0.1015625,-0.84375,-0.12109375
2529,0.078125,-0.8359375,-0.1015625
2530,0.06640625,-0.80859375,-0.109375
2531,0.05078125,-0.765625,-0.09375
2532,0.04296875,-0.71875,-0.0859375
2533,0.00390625,-0.6796875,-0.0859375
2534,-0.0234375,-0.6328125,-0.1015625
2535,-0.04296875,-0.578125,-0.08203125
2536,-0.0546875,-0.53125,-0.0703125
2537,-0.07421875,-0.5078125,-0.0546875
2538,-0.08984375,-0.49609375,-0.03515625
2539,-0.04296875,-0.5390625,-0.04296875
2540,0.04296875,-0.6328125,-0.03125
2541,0.078125,-0.71875,-0.015625
2542,0.10546875,-0.79296875,0.0
2543,0.15625,-0.87109375,0.02734375
2544,0.15625,-0.94140625,0.04296875
2545,0.15234375,-1.0,0.03125
2546,0.1484375,-1.03125,0.04296875
2547,0.12890625,-1.03125,0.03515625
2548,0.10546875,-1.00390625,0.015625
2549,0.08984375,-0.96875,0.01953125
2550,0.0703125,-0.91796875,-0.00390625
2551,0.0234375,-0.8515625,0.00390625
2552,-0.046875,-0.79296875,-0.015625
2553,-0.078125,-0.73828125,-0.03125
2554,-0.11328125,-0.73828125,-0.0390625
2555,-0.125,-0.76171875,-0.0390625
2556,-0.1171875,-0.81640625,-0.05078125
2557,-0.07421875,-0.88671875,-0.0703125
2558,-0.0546875,-0.93359375,-0.08203125
2559,-0.0234375,-0.98828125,-0.10546875
2560,-0.00390625,-1.02734375,-0.1015625
2561,0.0234375,-1.03515625,-0.09375
2562,0.046875,-1.05078125,-0.078125
2563,0.05078125,-1.0234375,-0.05859375
2564,0.0859375,-1.01171875,-0.02734375
2565,0.08203125,-0.984375,-0.00390625
2566,0.07421875,-0.9765625,-0.0078125
2567,0.078125,-0.95703125,-0.015625
2568,0.08984375,-0.9296875,-0.03515625
2569,0.09765625,-0.91015625,-0.0625
2570,0.0859375,-0.890625,-0.078125
2571,0.07421875,-0.875,-0.078125
2572,0.0703125,-0.87890625,-0.08984375
2573,0.0625,-0.88671875,-0.0703125
2574,0.05859375,-0.859375,-0.078125
2575,0.04296875,-0.83203125,-0.0546875
2576,0.0234375,-0.828125,-0.03515625
2577,0.015625,-0.8046875,-0.03125
2578,-0.015625,-0.76171875,0.00390625
2579,-0.03125,-0.72265625,0.00390625
2580,-0.03515625,-0.6953125,-0.0078125
2581,-0.0390625,-0.66796875,0.01171875
2582,-0.02734375,-0.67578125,0.00390625
2583,-0.0234375,-0.69921875,0.03125
2584,-0.01953125,-0.765625,0.06640625
2585,-0.02734375,-0.8515625,0.07421875
2586,-0.03125,-0.91015625,0.03515625
2587,-0.03125,-0.98046875,0.0
2588,-0.0703125,-1.0234375,-0.08203125
2589,-0.0859375,-1.046875,-0.1171875
2590,-0.10546875,-1.08984375,-0.15625
2591,-0.09765625,-1.16015625,-0.171875
2592,-0.06640625,-1.2421875,-0.13671875
2593,-0.046875,-1.33984375,-0.1015625
2594,-0.046875,-1.4375,-0.1328125
2595,-0.03515625,-1.515625,-0.18359375
2596,-0.01953125,-1.58203125,-0.25390625
2597,-0.0234375,-1.5703125,-0.33984375
2598,-0.015625,-1.58203125,-0.44140625
2599,-0.0078125,-1.57421875,-0.52734375
2600,-0.00390625,-1.5703125,-0.59765625
2601,-0.00390625,-1.56640625,-0.58984375
2602,-0.0234375,-1.5703125,-0.5390625
2603,-0.05859375,-1.5390625,-0.453125
2604,-0.10546875,-1.515625,-0.34375
2605,-0.109375,-1.48828125,-0.23046875
2606,-0.11328125,-1.44921875,-0.171875
2607,-0.125,-1.44921875,-0.12109375
2608,-0.17578125,-1.40234375,-0.12109375
2609,-0.171875,-1.41796875,-0.16796875
2610,-0.1953125,-1.421875,-0.234375
2611,-0.21484375,-1.4375,-0.2734375
2612,-0.22265625,-1.4921875,-0.3046875
2613,-0.1953125,-1.5390625,-0.3046875
2614,-0.17578125,-1.58984375,-0.30078125
2615,-0.16796875,-1.6328125,-0.2734375
2616,-0.13671875,-1.66796875,-0.29296875
2617,-0.12109375,-1.6953125,-0.26171875
2618,-0.1171875,-1.68359375,-0.2265625
2619,-0.12109375,-1.6640625,-0.1796875
2620,-0.10546875,-1.625,-0.16015625
2621,-0.10546875,-1.578125,-0.125
2622,-0.09375,-1.51171875,-0.08203125
2623,-0.09765625,-1.40625,-0.08984375
2624,-0.11328125,-1.32421875,-0.08203125
2625,-0.08203125,-1.25,-0.07421875
2626,-0.09375,-1.16796875,-0.0703125
2627,-0.06640625,-1.12109375,-0.07421875
2628,-0.02734375,-1.08984375,-0.0859375
2629,-0.0078125,-1.09375,-0.078125
2630,0.02734375,-1.09375,-0.0703125
2631,0.05859375,-1.09765625,-0.08203125
2632,0.08984375,-1.109375,-0.0859375
2633,0.125,-1.13671875,-0.0703125
2634,0.12890625,-1.125,-0.046875
2635,0.13671875,-1.12109375,-0.07421875
2636,0.13671875,-1.1015625,-0.0546875
2637,0.11328125,-1.078125,-0.06640625
2638,0.0859375,-1.03515625,-0.0703125
2639,0.04296875,-0.99609375,-0.08984375
2640,0.00390625,-0.94140625,-0.09765625
2641,-0.02734375,-0.890625,-0.09375
2642,-0.046875,-0.83984375,-0.10546875
2643,-0.078125,-0.80859375,-0.10546875
2644,-0.08984375,-0.765625,-0.10546875
2645,-0.07421875,-0.73046875,-0.1328125
2646,-0.08203125,-0.703125,-0.109375
2647,-0.08203125,-0.6875,-0.09765625
2648,-0.09375,-0.6953125,-0.0859375
2649,-0.0859375,-0.703125,-0.046875
2650,-0.08984375,-0.72265625,-0.03515625
2651,-0.0703125,-0.75,-0.015625
2652,-0.07421875,-0.78515625,0.00390625
2653,-0.0703125,-0.8125,-0.00390625
2654,-0.046875,-0.82421875,0.0
2655,-0.0390625,-0.83984375,-0.03125
2656,-0.015625,-0.86328125,-0.01953125
2657,0.0078125,-0.86328125,-0.02734375
2658,0.02734375,-0.87109375,-0.05078125
2659,0.0234375,-0.86328125,-0.0859375
2660,0.03125,-0.84765625,-0.0859375
2661,0.03125,-0.84765625,-0.08203125
2662,0.0234375,-0.83203125,-0.05859375
2663,0.00390625,-0.82421875,-0.0546875
2664,-0.015625,-0.80078125,-0.015625
2665,-0.03125,-0.77734375,0.00390625
2666,-0.0390625,-0.75,0.01953125
2667,-0.0390625,-0.7109375,0.0390625
2668,-0.04296875,-0.66015625,0.046875
2669,-0.03125,-0.64453125,0.05078125
2670,-0.046875,-0.61328125,0.0234375
2671,-0.046875,-0.59375,0.0078125
2672,-0.046875,-0.6171875,0.0
2673,-0.046875,-0.66015625,-0.01953125
2674,-0.04296875,-0.734375,-0.02734375
2675,-0.03125,-0.796875,-0.046875
2676,-0.01171875,-0.83203125,-0.0234375
2677,0.00390625,-0.8984375,-0.01171875
2678,0.01953125,-0.9375,0.0078125
2679,0.04296875,-0.95703125,0.04296875
2680,0.05859375,-0.9375,0.03125
2681,0.0625,-0.91796875,0.04296875
2682,0.0625,-0.87890625,0.05078125
2683,0.046875,-0.82421875,0.04296875
2684,0.046875,-0.79296875,0.03515625
2685,0.015625,-0.7578125,0.0078125
2686,-0.00390625,-0.73828125,0.015625
2687,-0.046875,-0.7421875,0.0
2688,-0.0625,-0.75,-0.00390625
2689,-0.09375,-0.76953125,0.0
2690,-0.09765625,-0.80859375,-0.00390625
2691,-0.1015625,-0.83984375,-0.03125
2692,-0.09375,-0.828125,-0.0703125
2693,-0.08984375,-0.83203125,-0.09765625
2694,-0.08203125,-0.8125,-0.125
2695,-0.0859375,-0.8046875,-0.1171875
2696,-0.0703125,-0.78515625,-0.109375
2697,-0.046875,-0.78515625,-0.08203125
2698,-0.046875,-0.7734375,-0.0546875
2699,-0.04296875,-0.765625,-0.0546875
2700,-0.046875,-0.76953125,-0.046875
2701,-0.07421875,-0.76953125,-0.01953125
2702,-0.08984375,-0.8125,0.00390625
2703,-0.08203125,-0.83984375,0.0078125
2704,-0.05078125,-0.88671875,0.015625
2705,0.00390625,-0.92578125,-0.01953125
2706,0.06640625,-0.97265625,-0.0546875
2707,0.12890625,-1.0234375,-0.0625
2708,0.18359375,-1.05078125,-0.078125
2709,0.23046875,-1.0859375,-0.0703125
2710,0.265625,-1.15234375,-0.07421875
2711,0.3046875,-1.23046875,-0.0703125
2712,0.30859375,-1.30078125,-0.1015625
2713,0.26171875,-1.33984375,-0.125
2714,0.2109375,-1.390625,-0.21484375
2715,0.1796875,-1.42578125,-0.265625
2716,0.15625,-1.453125,-0.28515625
2717,0.1640625,-1.484375,-0.3203125
2718,0.1640625,-1.51953125,-0.3046875
2719,0.1640625,-1.56640625,-0.29296875
2720,0.1171875,-1.59375,-0.2421875
2721,0.07421875,-1.60546875,-0.21484375
2722,0.03515625,-1.59375,-0.20703125
2723,-0.02734375,-1.55859375,-0.21875
2724,-0.0390625,-1.5234375,-0.25
2725,-0.03515625,-1.484375,-0.265625
2726,0.0234375,-1.44921875,-0.26171875
2727,0.08203125,-1.44921875,-0.25
2728,0.12109375,-1.4609375,-0.25
2729,0.13671875,-1.4921875,-0.23828125
2730,0.140625,-1.515625,-0.25390625
2731,0.125,-1.5546875,-0.27734375
2732,0.13671875,-1.57421875,-0.30859375
2733,0.15625,-1.6015625,-0.33203125
2734,0.18359375,-1.6328125,-0.33984375
2735,0.2265625,-1.65234375,-0.3046875
2736,0.2265625,-1.6640625,-0.25
2737,0.16796875,-1.65625,-0.1796875
2738,0.1171875,-1.6328125,-0.10546875
2739,0.08203125,-1.60546875,-0.05859375
2740,0.0625,-1.58984375,-0.015625
2741,0.046875,-1.5390625,-0.015625
2742,0.0703125,-1.46875,-0.046875
2743,0.06640625,-1.40234375,-0.04296875
2744,0.07421875,-1.34375,-0.078125
2745,0.0625,-1.30859375,-0.08984375
2746,0.05078125,-1.28125,-0.09765625
2747,0.02734375,-1.2734375,-0.1015625
2748,-0.015625,-1.265625,-0.10546875
2749,-0.0390625,-1.2734375,-0.125
2750,-0.0625,-1.265625,-0.16015625
2751,-0.08984375,-1.2578125,-0.16796875
2752,-0.10546875,-1.25,-0.1796875
2753,-0.125,-1.21875,-0.18359375
2754,-0.12109375,-1.19921875,-0.17578125
2755,-0.12890625,-1.1875,-0.19921875
2756,-0.09375,-1.1796875,-0.1796875
2757,-0.05859375,-1.1484375,-0.19921875
2758,-0.046875,-1.125,-0.19140625
2759,-0.0234375,-1.10546875,-0.18359375
2760,0.00390625,-1.078125,-0.16796875
2761,0.0234375,-1.0625,-0.15234375
2762,0.046875,-1.04296875,-0.15234375
2763,0.0625,-1.01171875,-0.15234375
2764,0.0703125,-0.984375,-0.1640625
2765,0.08984375,-0.96484375,-0.171875
2766,0.078125,-0.9296875,-0.171875
2767,0.0859375,-0.91796875,-0.1640625
2768,0.1015625,-0.90234375,-0.14453125
2769,0.09375,-0.88671875,-0.14453125
2770,0.1015625,-0.875,-0.1328125
2771,0.1015625,-0.859375,-0.12109375
2772,0.109375,-0.86328125,-0.11328125
2773,0.1171875,-0.87109375,-0.1171875
2774,0.15234375,-0.8828125,-0.09765625
2775,0.16796875,-0.859375,-0.109375
2776,0.1796875,-0.86328125,-0.109375
2777,0.17578125,-0.8359375,-0.125
2778,0.15625,-0.83984375,-0.12109375
2779,0.1484375,-0.8515625,-0.12109375
2780,0.1171875,-0.83984375,-0.109375
2781,0.08984375,-0.83203125,-0.12109375
2782,0.0703125,-0.81640625,-0.12890625
2783,0.0546875,-0.796875,-0.1171875
2784,0.0390625,-0.77734375,-0.11328125
2785,0.03125,-0.73828125,-0.12109375
2786,0.015625,-0.73046875,-0.12109375
2787,0.015625,-0.70703125,-0.1015625
2788,0.015625,-0.703125,-0.09765625
2789,0.02734375,-0.703125,-0.08203125
2790,0.03125,-0.71875,-0.05078125
2791,0.03515625,-0.74609375,-0.03515625
2792,0.03125,-0.76171875,-0.015625
2793,0.02734375,-0.79296875,0.0
2794,0.03515625,-0.80859375,-0.015625
2795,0.04296875,-0.81640625,-0.01171875
2796,0.04296875,-0.8125,0.0
2797,0.015625,-0.80859375,0.0
2798,0.02734375,-0.80078125,-0.02734375
2799,0.01953125,-0.79296875,-0.02734375
2800,0.01953125,-0.80078125,-0.02734375
2801,0.0234375,-0.8046875,-0.03125
2802,0.0234375,-0.8125,-0.05078125
2803,0.01171875,-0.8203125,-0.07421875
2804,0.01171875,-0.84375,-0.09765625
2805,-0.00390625,-0.85546875,-0.125
2806,-0.0078125,-0.88671875,-0.12890625
2807,0.00390625,-0.9453125,-0.11328125
2808,0.01171875,-1.00390625,-0.11328125
2809,0.02734375,-1.0546875,-0.0703125
2810,0.046875,-1.08984375,-0.046875
2811,0.07421875,-1.12109375,-0.046875
2812,0.07421875,-1.14453125,-0.03125
2813,0.078125,-1.140625,-0.046875
2814,0.07421875,-1.12109375,-0.0546875
2815,0.078125,-1.10546875,-0.1015625
2816,0.08203125,-1.078125,-0.10546875
2817,0.08984375,-1.05859375,-0.1171875
2818,0.09765625,-1.03515625,-0.140625
2819,0.10546875,-1.0234375,-0.14453125
2820,0.1015625,-1.0078125,-0.15625
2821,0.09765625,-1.00390625,-0.1484375
2822,0.06640625,-0.9765625,-0.16015625
2823,0.05078125,-0.99609375,-0.1640625
2824,0.01953125,-0.98828125,-0.1640625
2825,-0.0078125,-0.98828125,-0.1484375
2826,-0.0234375,-0.9921875,-0.15234375
2827,-0.046875,-0.97265625,-0.1328125
2828,-0.046875,-0.98828125,-0.1171875
2829,-0.04296875,-1.0078125,-0.0625
2830,-0.046875,-0.98828125,-0.0390625
2831,-0.05078125,-0.9765625,-0.01171875
2832,-0.05078125,-0.9453125,-0.0234375
2833,-0.05859375,-0.9140625,-0.0390625
2834,-0.0390625,-0.8984375,-0.046875
2835,-0.04296875,-0.8671875,-0.05078125
2836,-0.0234375,-0.8359375,-0.06640625
2837,0.0,-0.8203125,-0.078125
2838,0.01171875,-0.8125,-0.078125
2839,0.0234375,-0.81640625,-0.05859375
2840,0.01171875,-0.8125,-0.01171875
2841,0.03125,-0.81640625,0.0
2842,0.046875,-0.82421875,0.01953125
2843,0.04296875,-0.80859375,0.04296875
2844,0.078125,-0.8203125,0.109375
2845,0.08203125,-0.81640625,0.1015625
2846,0.09765625,-0.80078125,0.0703125
2847,0.0625,-0.78515625,0.01171875
2848,0.06640625,-0.8046875,-0.0078125
2849,0.03125,-0.828125,-0.0546875
2850,-0.0078125,-0.828125,-0.0859375
2851,-0.03515625,-0.84375,-0.171875
2852,-0.0546875,-0.87890625,-0.21484375
2853,-0.07421875,-0.93359375,-0.26171875
2854,-0.0859375,-1.0,-0.26953125
2855,-0.08203125,-1.07421875,-0.3125
2856,-0.0703125,-1.12890625,-0.34765625
2857,-0.0546875,-1.21875,-0.4140625
2858,-0.05859375,-1.28515625,-0.4609375
2859,-0.0546875,-1.33203125,-0.5
2860,-0.04296875,-1.40234375,-0.5390625
2861,-0.015625,-1.484375,-0.52734375
2862,0.01953125,-1.53515625,-0.53515625
2863,0.0390625,-1.6015625,-0.53125
2864,0.0390625,-1.62109375,-0.5390625
2865,0.0234375,-1.625,-0.5234375
2866,0.0390625,-1.640625,-0.484375
2867,0.03125,-1.64453125,-0.40625
2868,0.01171875,-1.65234375,-0.3203125
2869,0.0,-1.65234375,-0.265625
2870,-0.00390625,-1.64453125,-0.23046875
2871,-0.01171875,-1.62890625,-0.203125
2872,-0.015625,-1.57421875,-0.2421875
2873,-0.00390625,-1.5390625,-0.23046875
2874,0.01171875,-1.51171875,-0.22265625
2875,0.02734375,-1.46875,-0.2265625
2876,0.03125,-1.421875,-0.19921875
2877,0.0625,-1.41015625,-0.203125
2878,0.0546875,-1.39453125,-0.203125
2879,0.0703125,-1.375,-0.203125
2880,0.0859375,-1.375,-0.18359375
2881,0.09375,-1.37109375,-0.171875
2882,0.07421875,-1.3671875,-0.15625
2883,0.07421875,-1.375,-0.12109375
2884,0.07421875,-1.390625,-0.09375
2885,0.078125,-1.37890625,-0.0546875
2886,0.0546875,-1.38671875,-0.0546875
2887,0.05078125,-1.359375,-0.03125
2888,0.03125,-1.33203125,-0.03515625
2889,-0.00390625,-1.2890625,-0.02734375
2890,-0.01953125,-1.23828125,-0.03125
2891,-0.03515625,-1.19140625,-0.01953125
2892,-0.04296875,-1.140625,-0.05078125
2893,-0.0390625,-1.1015625,-0.03125
2894,-0.03125,-1.078125,-0.0546875
2895,-0.015625,-1.05859375,-0.05859375
2896,-0.00390625,-1.04296875,-0.0859375
2897,-0.0078125,-1.02734375,-0.1015625
2898,-0.00390625,-1.0078125,-0.13671875
2899,0.0078125,-1.01171875,-0.1328125
2900,0.0,-0.99609375,-0.1640625
2901,0.0,-0.984375,-0.171875
2902,-0.00390625,-0.9453125,-0.1640625
2903,0.0,-0.9140625,-0.17578125
2904,-0.00390625,-0.8828125,-0.16796875
2905,0.00390625,-0.84375,-0.171875
2906,0.015625,-0.82421875,-0.16796875
2907,0.0078125,-0.7890625,-0.15625
2908,0.02734375,-0.765625,-0.125
2909,0.01171875,-0.7578125,-0.10546875
2910,0.00390625,-0.75,-0.08984375
2911,0.0,-0.7578125,-0.05078125
2912,0.01953125,-0.7890625,0.0
2913,0.03125,-0.80859375,0.0078125
2914,0.05078125,-0.796875,0.02734375
2915,0.0546875,-0.76953125,0.05859375
2916,0.0625,-0.75,0.05078125
2917,0.05859375,-0.70703125,0.05078125
2918,0.05078125,-0.640625,0.05859375
2919,0.01171875,-0.6171875,0.04296875
2920,0.00390625,-0.6015625,0.015625
2921,-0.015625,-0.578125,0.01953125
2922,-0.0390625,-0.59375,-0.03125
2923,-0.0703125,-0.60546875,-0.05078125
2924,-0.08984375,-0.625,-0.09765625
2925,-0.1015625,-0.65234375,-0.15234375
2926,-0.13671875,-0.67578125,-0.2109375
2927,-0.125,-0.7109375,-0.23828125
2928,-0.12109375,-0.76171875,-0.22265625
2929,-0.109375,-0.8203125,-0.19140625
2930,-0.0859375,-0.859375,-0.16015625
2931,-0.078125,-0.92578125,-0.09375
2932,-0.07421875,-0.9609375,0.0
2933,-0.06640625,-0.9765625,0.04296875
2934,-0.08203125,-0.96484375,0.12109375
2935,-0.09375,-0.9453125,0.1484375
2936,-0.07421875,-0.88671875,0.15234375
2937,-0.0859375,-0.8515625,0.1484375
2938,-0.08984375,-0.8125,0.10546875
2939,-0.0703125,-0.796875,0.0234375
2940,-0.10546875,-0.76953125,-0.01953125
2941,-0.11328125,-0.80078125,-0.09375
2942,-0.1328125,-0.83984375,-0.1640625
2943,-0.11328125,-0.90234375,-0.1796875
2944,-0.0546875,-0.99609375,-0.19140625
2945,-0.03515625,-1.046875,-0.1796875
2946,0.05078125,-1.1015625,-0.14453125
2947,0.09375,-1.12890625,-0.11328125
2948,0.1171875,-1.1328125,-0.09375
2949,0.1484375,-1.10546875,-0.06640625
2950,0.171875,-1.07421875,-0.0390625
2951,0.1875,-1.05859375,-0.0234375
2952,0.203125,-1.046875,-0.0078125
2953,0.19140625,-1.03125,-0.0078125
2954,0.17578125,-1.02734375,0.015625
2955,0.14453125,-1.015625,0.0078125
2956,0.109375,-0.984375,0.01171875
2957,0.0703125,-0.94921875,-0.01171875
2958,0.046875,-0.90625,0.0
2959,0.02734375,-0.87109375,0.0
2960,0.01953125,-0.8359375,0.0
2961,0.02734375,-0.84375,0.0
2962,0.0234375,-0.84375,0.01953125
2963,0.0234375,-0.86328125,0.04296875
2964,0.0390625,-0.890625,0.06640625
2965,0.03515625,-0.9140625,0.0625
2966,0.04296875,-0.92578125,0.0625
2967,0.0390625,-0.94921875,0.0625
2968,0.03125,-0.94921875,0.03125
2969,0.03125,-0.94140625,0.00390625
2970,0.04296875,-0.953125,-0.01171875
2971,0.02734375,-0.96484375,-0.015625
2972,0.01171875,-0.984375,-0.01171875
2973,0.01953125,-1.03125,-0.01953125
2974,0.0390625,-1.0859375,0.0
2975,0.01171875,-1.1171875,-0.02734375
2976,-0.01171875,-1.1953125,-0.08203125
2977,-0.03125,-1.23046875,-0.08984375
2978,-0.046875,-1.28515625,-0.14453125
2979,-0.05078125,-1.34375,-0.20703125
2980,-0.07421875,-1.40234375,-0.25390625
2981,-0.078125,-1.47265625,-0.26171875
2982,-0.0625,-1.52734375,-0.2890625
2983,-0.0625,-1.546875,-0.328125
2984,-0.046875,-1.55859375,-0.3515625
2985,-0.046875,-1.56640625,-0.375
2986,-0.02734375,-1.5390625,-0.40625
2987,0.0078125,-1.515625,-0.44921875
2988,0.06640625,-1.48046875,-0.4375
2989,0.140625,-1.4609375,-0.48046875
2990,0.19140625,-1.42578125,-0.4921875
2991,0.234375,-1.390625,-0.51171875
2992,0.21484375,-1.3515625,-0.484375
2993,0.19140625,-1.3359375,-0.4609375
2994,0.14453125,-1.33203125,-0.390625
2995,0.09375,-1.32421875,-0.3359375
2996,0.02734375,-1.29296875,-0.30859375
2997,0.00390625,-1.29296875,-0.26953125
2998,-0.015625,-1.2734375,-0.23828125
2999,-0.04296875,-1.2734375,-0.23046875
3000,-0.046875,-1.28515625,-0.20703125
3001,-0.0390625,-1.32421875,-0.19140625
3002,-0.0078125,-1.3671875,-0.17578125
3003,0.02734375,-1.41796875,-0.16796875
3004,0.0546875,-1.453125,-0.1640625
3005,0.0703125,-1.484375,-0.1484375
3006,0.0625,-1.48046875,-0.14453125
3007,0.04296875,-1.4609375,-0.14453125
3008,0.05859375,-1.4453125,-0.125
3009,0.06640625,-1.42578125,-0.1171875
3010,0.109375,-1.42578125,-0.109375
3011,0.12890625,-1.40625,-0.10546875
3012,0.14453125,-1.41015625,-0.08203125
3013,0.140625,-1.3984375,-0.078125
3014,0.08984375,-1.37109375,-0.0859375
3015,0.0546875,-1.328125,-0.1015625
3016,0.0234375,-1.30078125,-0.1171875
3017,-0.0078125,-1.25,-0.15625
3018,-0.0234375,-1.203125,-0.1953125
3019,-0.0234375,-1.1640625,-0.20703125
3020,-0.03515625,-1.15625,-0.23046875
3021,-0.0546875,-1.125,-0.21875
3022,-0.09765625,-1.10546875,-0.203125
3023,-0.109375,-1.09375,-0.17578125
3024,-0.12109375,-1.08984375,-0.19140625
3025,-0.09375,-1.0859375,-0.18359375
3026,-0.07421875,-1.05859375,-0.17578125
3027,-0.03515625,-1.03125,-0.1640625
3028,-0.01171875,-1.0078125,-0.15625
3029,0.00390625,-0.98046875,-0.12890625
3030,0.0234375,-0.953125,-0.14453125
3031,0.03125,-0.92578125,-0.125
3032,0.0390625,-0.9140625,-0.10546875
3033,0.03515625,-0.89453125,-0.11328125
3034,0.0703125,-0.875,-0.11328125
3035,0.05078125,-0.84765625,-0.10546875
3036,0.0625,-0.8359375,-0.12109375
3037,0.06640625,-0.828125,-0.10546875
3038,0.078125,-0.828125,-0.1171875
3039,0.0703125,-0.81640625,-0.08984375
3040,0.0703125,-0.8125,-0.12890625
3041,0.0859375,-0.80078125,-0.12890625
3042,0.05859375,-0.796875,-0.14453125
3043,0.05859375,-0.78125,-0.140625
3044,0.04296875,-0.76171875,-0.140625
3045,0.0390625,-0.74609375,-0.15625
3046,0.01953125,-0.71875,-0.16796875
3047,0.01171875,-0.69921875,-0.15625
3048,-0.0234375,-0.671875,-0.171875
3049,-0.03125,-0.6796875,-0.13671875
3050,-0.04296875,-0.6796875,-0.12890625
3051,-0.04296875,-0.70703125,-0.11328125
3052,-0.00390625,-0.73828125,-0.08984375
3053,0.04296875,-0.76953125,-0.05078125
3054,0.09765625,-0.80859375,-0.015625
3055,0.12109375,-0.828125,0.00390625
3056,0.125,-0.828125,0.0234375
3057,0.1640625,-0.84765625,0.0234375
3058,0.16796875,-0.859375,0.01171875
3059,0.1796875,-0.859375,0.03125
3060,0.18359375,-0.8671875,0.03515625
3061,0.1640625,-0.85546875,0.02734375
3062,0.14453125,-0.859375,0.00390625
3063,0.125,-0.87109375,0.00390625
3064,0.09375,-0.8515625,0.0078125
3065,0.06640625,-0.8359375,-0.01171875
3066,0.01171875,-0.81640625,0.015625
3067,-0.046875,-0.80078125,0.02734375
3068,-0.1015625,-0.7734375,0.00390625
3069,-0.1328125,-0.76171875,0.015625
3070,-0.14453125,-0.76171875,0.0
3071,-0.13671875,-0.75,-0.015625
3072,-0.125,-0.765625,-0.0546875
3073,-0.1015625,-0.7890625,-0.08203125
3074,-0.0546875,-0.81640625,-0.109375
3075,-0.03515625,-0.890625,-0.12890625
3076,0.015625,-0.96484375,-0.14453125
3077,0.04296875,-1.02734375,-0.12890625
3078,0.08984375,-1.09375,-0.078125
3079,0.1015625,-1.1328125,-0.0390625
3080,0.13671875,-1.14453125,-0.0234375
3081,0.12109375,-1.13671875,-0.00390625
3082,0.140625,-1.08203125,-0.00390625
3083,0.12890625,-1.03125,-0.01953125
3084,0.11328125,-0.94921875,-0.07421875
3085,0.1015625,-0.8671875,-0.1015625
3086,0.0703125,-0.8203125,-0.1171875
3087,0.0390625,-0.78515625,-0.1484375
3088,0.015625,-0.80078125,-0.15625
3089,-0.03515625,-0.79296875,-0.15234375
3090,-0.046875,-0.82421875,-0.1328125
3091,-0.0703125,-0.83984375,-0.078125
3092,-0.06640625,-0.87109375,-0.06640625
3093,-0.07421875,-0.8515625,-0.0078125
3094,-0.078125,-0.83203125,0.0078125
3095,-0.07421875,-0.8125,0.03125
3096,-0.0625,-0.76953125,0.0390625
3097,-0.046875,-0.73828125,0.03125
3098,-0.0390625,-0.75,0.046875
3099,-0.03125,-0.81640625,0.109375
3100,-0.03515625,-0.87109375,0.15234375
3101,-0.0390625,-0.91015625,0.109375
3102,-0.046875,-0.92578125,-0.04296875
3103,-0.05859375,-0.93359375,-0.16015625
3104,-0.0625,-0.96875,-0.23046875
3105,-0.078125,-1.0390625,-0.296875
3106,-0.07421875,-1.14453125,-0.3125
3107,-0.046875,-1.29296875,-0.328125
3108,-0.0234375,-1.44140625,-0.30859375
3109,0.015625,-1.58203125,-0.33984375
3110,0.04296875,-1.68359375,-0.453125
3111,0.0546875,-1.72265625,-0.55859375
3112,0.08984375,-1.75390625,-0.7109375
3113,0.09765625,-1.76171875,-0.8125
3114,0.1171875,-1.73828125,-0.84765625
3115,0.12109375,-1.70703125,-0.7890625
3116,0.08984375,-1.67578125,-0.6875
3117,0.05078125,-1.65234375,-0.515625
3118,0.01171875,-1.65625,-0.359375
3119,-0.015625,-1.65625,-0.265625
3120,-0.08203125,-1.640625,-0.2109375
3121,-0.15625,-1.63671875,-0.2265625
3122,-0.23828125,-1.625,-0.2890625
3123,-0.30859375,-1.58984375,-0.3671875
3124,-0.37890625,-1.57421875,-0.46484375
3125,-0.37109375,-1.5625,-0.50390625
3126,-0.296875,-1.546875,-0.44140625
3127,-0.25,-1.55078125,-0.3984375
3128,-0.15234375,-1.5390625,-0.328125
3129,-0.07421875,-1.5078125,-0.2734375
3130,-0.00390625,-1.46875,-0.25
3131,0.04296875,-1.41015625,-0.234375
3132,0.09375,-1.375,-0.24609375
3133,0.1328125,-1.33984375,-0.2421875
3134,0.1640625,-1.33984375,-0.24609375
3135,0.19140625,-1.33203125,-0.2265625
3136,0.18359375,-1.33984375,-0.19921875
3137,0.171875,-1.33203125,-0.19140625
3138,0.15234375,-1.33203125,-0.16796875
3139,0.1015625,-1.3046875,-0.16015625
3140,0.078125,-1.234375,-0.14453125
3141,0.0390625,-1.18359375,-0.1484375
3142,0.01171875,-1.12109375,-0.171875
3143,0.0078125,-1.08203125,-0.15625
3144,0.03515625,-1.04296875,-0.1484375
3145,0.0546875,-1.0078125,-0.140625
3146,0.06640625,-0.97265625,-0.13671875
3147,0.078125,-0.94921875,-0.11328125
3148,0.04296875,-0.93359375,-0.12890625
3149,0.0,-0.8984375,-0.13671875
3150,-0.0390625,-0.87890625,-0.140625
3151,-0.04296875,-0.86328125,-0.16015625
3152,-0.0390625,-0.86328125,-0.15234375
3153,-0.046875,-0.85546875,-0.1640625
3154,-0.05078125,-0.85546875,-0.17578125
3155,-0.0546875,-0.88671875,-0.171875
3156,-0.078125,-0.89453125,-0.17578125
3157,-0.07421875,-0.91796875,-0.1796875
3158,-0.08203125,-0.9375,-0.18359375
3159,-0.08203125,-0.96484375,-0.1796875
3160,-0.0625,-0.984375,-0.17578125
3161,-0.046875,-1.015625,-0.15234375
3162,-0.0234375,-1.03125,-0.14453125
3163,0.01171875,-1.0625,-0.1328125
3164,0.01953125,-1.0625,-0.13671875
3165,0.03515625,-1.0625,-0.12890625
3166,0.0546875,-1.06640625,-0.12109375
3167,0.046875,-1.0546875,-0.125
3168,0.05078125,-1.04296875,-0.10546875
3169,0.0546875,-1.03125,-0.1015625
3170,0.05078125,-1.01953125,-0.08203125
3171,0.0625,-1.0,-0.078125
3172,0.05859375,-0.98046875,-0.06640625
3173,0.05859375,-0.96875,-0.078125
3174,0.03515625,-0.9609375,-0.09375
3175,0.03125,-0.94921875,-0.078125
3176,0.01171875,-0.9375,-0.11328125
3177,-0.0234375,-0.9140625,-0.1328125
3178,-0.0390625,-0.9140625,-0.14453125
3179,-0.05859375,-0.921875,-0.15625
3180,-0.0625,-0.9453125,-0.1640625
3181,-0.05859375,-0.98046875,-0.1796875
3182,-0.046875,-1.04296875,-0.17578125
3183,-0.05859375,-1.0703125,-0.14453125
3184,-0.05078125,-1.09765625,-0.1328125
3185,-0.09765625,-1.08984375,-0.12890625
3186,-0.06640625,-1.140625,-0.11328125
3187,-0.0703125,-1.140625,-0.09765625
3188,-0.08984375,-1.125,-0.08984375
3189,-0.09765625,-1.1171875,-0.09375
3190,-0.10546875,-1.0859375,-0.09765625
3191,-0.09765625,-1.07421875,-0.125
3192,-0.08984375,-1.0625,-0.1640625
3193,-0.1015625,-1.0546875,-0.171875
3194,-0.09765625,-1.0859375,-0.16015625
3195,-0.04296875,-1.12890625,-0.17578125
3196,-0.00390625,-1.19140625,-0.18359375
3197,0.05078125,-1.24609375,-0.1953125
3198,0.078125,-1.26171875,-0.21484375
3199,0.1171875,-1.25390625,-0.25
3200,0.1015625,-1.23828125,-0.265625
3201,0.109375,-1.1953125,-0.2578125
3202,0.1171875,-1.13671875,-0.26171875
3203,0.125,-1.0859375,-0.25
3204,0.11328125,-1.0390625,-0.23828125
3205,0.09375,-0.9921875,-0.2109375
3206,0.08203125,-0.9609375,-0.203125
3207,0.06640625,-0.91015625,-0.1953125
3208,0.04296875,-0.859375,-0.20703125
3209,0.0390625,-0.859375,-0.2109375
3210,0.01171875,-0.83203125,-0.22265625
3211,0.0,-0.83203125,-0.21484375
3212,0.0078125,-0.8359375,-0.19921875
3213,-0.01953125,-0.83203125,-0.1875
3214,-0.02734375,-0.84375,-0.1875
3215,-0.04296875,-0.83984375,-0.1640625
3216,-0.046875,-0.84765625,-0.1640625
3217,-0.046875,-0.8671875,-0.140625
3218,-0.078125,-0.88671875,-0.12109375
3219,-0.08203125,-0.90625,-0.125
3220,-0.06640625,-0.921875,-0.10546875
3221,-0.06640625,-0.9375,-0.12109375
3222,-0.0625,-0.9609375,-0.1171875
3223,-0.05078125,-0.984375,-0.1171875
3224,-0.0703125,-0.9921875,-0.10546875
3225,-0.05859375,-1.015625,-0.11328125
3226,-0.0546875,-1.046875,-0.125
3227,-0.046875,-1.0625,-0.13671875
3228,-0.046875,-1.08984375,-0.14453125
3229,-0.046875,-1.10546875,-0.1640625
3230,-0.03515625,-1.1171875,-0.1796875
3231,-0.01953125,-1.140625,-0.1953125
3232,0.0,-1.16015625,-0.2421875
3233,0.02734375,-1.17578125,-0.25
3234,0.02734375,-1.1953125,-0.26171875
3235,0.04296875,-1.2265625,-0.26953125
3236,0.03125,-1.2421875,-0.2421875
3237,0.0390625,-1.25,-0.2578125
3238,0.0546875,-1.24609375,-0.24609375
3239,0.06640625,-1.25390625,-0.2578125
3240,0.08203125,-1.234375,-0.25
3241,0.07421875,-1.2109375,-0.28515625
3242,0.08203125,-1.17578125,-0.2734375
3243,0.09375,-1.1484375,-0.26171875
3244,0.09375,-1.12109375,-0.2578125
3245,0.0859375,-1.09375,-0.23828125
3246,0.10546875,-1.08984375,-0.2421875
3247,0.0859375,-1.0546875,-0.1953125
3248,0.0859375,-1.046875,-0.18359375
3249,0.0859375,-1.0234375,-0.1640625
3250,0.0625,-0.984375,-0.1484375
3251,0.05859375,-0.96484375,-0.1328125
3252,0.03515625,-0.9453125,-0.1171875
3253,0.0234375,-0.9296875,-0.09375
