,accelerometerAccelerationX(G),accelerometerAccelerationY(G),accelerometerAccelerationZ(G),Label
0,-0.98828125,0.11328125,-0.03515625,0
1,-0.98828125,0.109375,-0.0234375,0
2,-0.984375,0.10546875,-0.03125,0
3,-0.98046875,0.11328125,-0.03125,0
4,-0.9765625,0.109375,-0.015625,0
5,-0.97265625,0.08203125,-0.03125,0
6,-0.95703125,0.08203125,-0.05078125,0
7,-0.984375,0.1171875,-0.03125,0
8,-0.98046875,0.11328125,-0.0390625,0
9,-0.98828125,0.109375,-0.03125,0
10,-0.98828125,0.109375,-0.02734375,0
11,-0.9921875,0.109375,-0.0234375,0
12,-0.9921875,0.1015625,-0.0390625,0
13,-0.984375,0.09375,-0.03125,0
14,-0.9921875,0.1171875,-0.0390625,0
15,-1.0078125,0.10546875,-0.0390625,0
16,-0.9921875,0.10546875,-0.0390625,0
17,-1.0078125,0.10546875,-0.0234375,0
18,-0.98828125,0.109375,-0.03125,0
19,-0.9921875,0.12109375,-0.02734375,0
20,-0.984375,0.09765625,-0.02734375,0
21,-0.9765625,0.11328125,-0.03515625,0
22,-0.9921875,0.109375,-0.0234375,0
23,-0.984375,0.11328125,-0.04296875,0
24,-0.984375,0.11328125,-0.03125,0
25,-0.9921875,0.11328125,-0.03515625,0
26,-0.98828125,0.11328125,-0.04296875,0
27,-0.99609375,0.10546875,-0.04296875,0
28,-0.98046875,0.12109375,-0.03515625,0
29,-0.98828125,0.11328125,-0.04296875,0
30,-0.984375,0.11328125,-0.04296875,0
31,-0.98828125,0.11328125,-0.04296875,0
32,-0.98046875,0.1171875,-0.04296875,0
33,-0.984375,0.109375,-0.046875,0
34,-0.98828125,0.1015625,-0.046875,0
35,-0.98828125,0.10546875,-0.04296875,0
36,-1.0,0.10546875,-0.0546875,0
37,-0.98828125,0.1171875,-0.05859375,0
38,-0.98828125,0.10546875,-0.046875,0
39,-0.98046875,0.125,-0.05078125,0
40,-0.9921875,0.09765625,-0.05078125,0
41,-0.9921875,0.1015625,-0.04296875,0
42,-0.98828125,0.12109375,-0.04296875,0
43,-0.98046875,0.109375,-0.0546875,0
44,-0.984375,0.08984375,-0.0546875,0
45,-0.984375,0.08984375,-0.03515625,0
46,-0.99609375,0.09375,-0.03125,0
47,-1.0078125,0.0859375,-0.03515625,0
48,-0.98828125,0.10546875,-0.05078125,0
49,-0.98828125,0.109375,-0.04296875,0
50,-0.984375,0.08984375,-0.046875,0
51,-0.99609375,0.1015625,-0.03125,0
52,-1.0,0.09375,-0.0390625,0
53,-1.0078125,0.109375,-0.03125,0
54,-1.0,0.1015625,-0.02734375,0
55,-0.99609375,0.109375,-0.046875,0
56,-1.0,0.0859375,-0.0390625,0
57,-0.99609375,0.1015625,-0.05078125,0
58,-0.98046875,0.08984375,-0.0546875,0
59,-0.98828125,0.09765625,-0.03125,0
60,-0.984375,0.1015625,-0.03125,0
61,-0.98046875,0.109375,-0.03515625,0
62,-0.98046875,0.09375,-0.0390625,0
63,-0.98828125,0.09765625,-0.03515625,0
64,-0.9765625,0.09375,-0.03515625,0
65,-0.98828125,0.08984375,-0.03515625,0
66,-0.98046875,0.09375,-0.03125,0
67,-0.96875,0.10546875,-0.04296875,0
68,-0.96875,0.0859375,-0.04296875,0
69,-0.98046875,0.109375,-0.0234375,0
70,-1.00390625,0.109375,-0.03515625,0
71,-1.0,0.09765625,-0.03515625,0
72,-1.0078125,0.109375,-0.03125,0
73,-1.00390625,0.109375,-0.03125,0
74,-1.00390625,0.10546875,-0.0390625,0
75,-0.9921875,0.09765625,-0.03125,0
76,-0.98828125,0.10546875,-0.05078125,0
77,-0.98046875,0.1015625,-0.03125,0
78,-0.99609375,0.09375,-0.02734375,0
79,-0.99609375,0.09375,-0.03125,0
80,-1.00390625,0.109375,-0.03515625,0
81,-0.984375,0.09375,-0.0234375,0
82,-1.00390625,0.09375,-0.03515625,0
83,-0.98046875,0.09765625,-0.05078125,0
84,-0.98828125,0.09765625,-0.03515625,0
85,-0.9921875,0.0859375,-0.04296875,0
86,-0.984375,0.1015625,-0.04296875,0
87,-0.99609375,0.08984375,-0.04296875,0
88,-0.984375,0.09765625,-0.046875,0
89,-0.96875,0.08203125,-0.046875,0
90,-0.98046875,0.0859375,-0.0234375,0
91,-0.984375,0.09375,-0.0390625,0
92,-0.984375,0.08984375,-0.03515625,0
93,-0.9765625,0.09765625,-0.03125,0
94,-0.98828125,0.08984375,-0.02734375,0
95,-0.984375,0.109375,-0.02734375,0
96,-0.98828125,0.09375,-0.04296875,0
97,-0.99609375,0.08984375,-0.0390625,0
98,-0.98828125,0.09375,-0.05078125,0
99,-0.9921875,0.10546875,-0.05078125,0
100,-0.98828125,0.1015625,-0.03125,0
101,-0.98828125,0.09375,-0.05078125,0
102,-0.9921875,0.1015625,-0.05859375,0
103,-1.0,0.1015625,-0.046875,0
104,-0.98828125,0.0859375,-0.0546875,0
105,-0.99609375,0.10546875,-0.0625,0
106,-0.984375,0.09765625,-0.05078125,0
107,-0.984375,0.09765625,-0.0546875,0
108,-0.984375,0.09765625,-0.0546875,0
109,-0.98828125,0.09375,-0.03515625,0
110,-0.9921875,0.08984375,-0.03125,0
111,-1.0,0.09375,-0.04296875,0
112,-0.98046875,0.1015625,-0.06640625,0
113,-1.0,0.08984375,-0.0625,0
114,-0.9921875,0.10546875,-0.0546875,0
115,-0.98046875,0.1015625,-0.05859375,0
116,-0.9765625,0.1015625,-0.05859375,0
117,-0.984375,0.10546875,-0.06640625,0
118,-0.9765625,0.08984375,-0.06640625,0
119,-0.97265625,0.08984375,-0.0625,0
120,-0.96875,0.10546875,-0.0703125,0
121,-0.984375,0.09375,-0.0546875,0
122,-0.98046875,0.1015625,-0.078125,0
123,-0.98046875,0.09765625,-0.0703125,0
124,-0.99609375,0.08984375,-0.0546875,0
125,-0.98046875,0.08203125,-0.05859375,0
126,-0.9765625,0.08984375,-0.0625,0
127,-0.9765625,0.09765625,-0.05859375,0
128,-0.9765625,0.1015625,-0.06640625,0
129,-0.9765625,0.09375,-0.05078125,0
130,-1.00390625,0.1015625,-0.05078125,0
131,-1.00390625,0.1015625,-0.05859375,0
132,-0.9921875,0.08203125,-0.046875,0
133,-0.98828125,0.08203125,-0.0546875,0
134,-0.9921875,0.09375,-0.05859375,0
135,-1.00390625,0.0859375,-0.03125,0
136,-0.99609375,0.08203125,-0.0390625,0
137,-0.98828125,0.078125,-0.0390625,0
138,-1.00390625,0.05859375,-0.03125,0
139,-0.97265625,0.05859375,-0.03515625,0
140,-1.0,0.0546875,-0.03125,0
141,-1.0,0.06640625,-0.0234375,0
142,-0.98828125,0.0703125,-0.0390625,0
143,-0.9765625,0.06640625,-0.046875,0
144,-1.0,0.08203125,-0.0546875,0
145,-0.99609375,0.08203125,-0.05859375,0
146,-0.98828125,0.06640625,-0.0390625,0
147,-0.98828125,0.05859375,-0.046875,0
148,-0.99609375,0.0703125,-0.03515625,0
149,-0.98828125,0.0625,-0.0390625,0
150,-0.984375,0.06640625,-0.0546875,0
151,-0.98828125,0.0703125,-0.05078125,0
152,-0.97265625,0.0625,-0.04296875,0
153,-0.96484375,0.08203125,-0.05859375,0
154,-0.99609375,0.078125,-0.05078125,0
155,-0.98828125,0.078125,-0.0625,0
156,-1.00390625,0.078125,-0.07421875,0
157,-0.99609375,0.08203125,-0.06640625,0
158,-0.98828125,0.08984375,-0.08203125,0
159,-0.984375,0.06640625,-0.08203125,0
160,-1.01171875,0.08203125,-0.07421875,0
161,-0.98828125,0.06640625,-0.0703125,0
162,-0.984375,0.0390625,-0.0546875,0
163,-1.015625,0.0546875,-0.0625,0
164,-0.984375,0.0625,-0.08203125,0
165,-0.9921875,0.05859375,-0.05859375,0
166,-0.9921875,0.05078125,-0.07421875,0
167,-1.0078125,0.05859375,-0.11328125,0
168,-0.99609375,0.046875,-0.10546875,0
169,-1.0078125,0.0546875,-0.08203125,0
170,-1.015625,0.0546875,-0.09375,0
171,-1.015625,0.0546875,-0.1015625,0
172,-1.0078125,0.05078125,-0.08203125,0
173,-1.01953125,0.01953125,-0.08203125,0
174,-1.0234375,-0.00390625,-0.0859375,0
175,-1.015625,-0.00390625,-0.078125,0
176,-1.03125,0.01953125,-0.0703125,0
177,-1.0390625,0.01171875,-0.0703125,0
178,-1.02734375,0.01171875,-0.078125,0
179,-1.0390625,0.015625,-0.07421875,0
180,-1.015625,0.00390625,-0.05859375,0
181,-1.01171875,0.0078125,-0.0625,0
182,-1.0,0.01171875,-0.05859375,0
183,-0.98828125,0.0078125,-0.046875,0
184,-1.0,0.01953125,-0.03515625,0
185,-0.97265625,0.00390625,-0.04296875,0
186,-0.984375,0.00390625,-0.0390625,0
187,-0.98046875,0.01171875,-0.02734375,0
188,-0.9765625,0.015625,-0.04296875,0
189,-0.96875,0.0234375,-0.03125,0
190,-0.98046875,0.03125,-0.0234375,0
191,-0.96875,0.015625,-0.0390625,0
192,-0.97265625,0.01953125,-0.0546875,0
193,-0.97265625,0.01953125,-0.03125,0
194,-0.9765625,0.01953125,-0.04296875,0
195,-0.98828125,0.02734375,-0.03125,0
196,-1.0,0.02734375,-0.02734375,0
197,-1.0,0.015625,-0.046875,0
198,-0.9921875,0.0078125,-0.03515625,0
199,-1.00390625,0.0,-0.02734375,0
200,-1.03125,0.0078125,-0.0078125,0
201,-1.0078125,-0.015625,-0.03125,0
202,-1.0078125,-0.015625,-0.015625,0
203,-1.0078125,0.0,-0.00390625,0
204,-0.99609375,-0.01171875,-0.00390625,0
205,-0.984375,-0.01953125,-0.00390625,0
206,-0.99609375,-0.0234375,0.00390625,0
207,-0.98828125,-0.01953125,0.0,0
208,-0.99609375,-0.0078125,0.0,0
209,-0.98828125,-0.015625,0.00390625,0
210,-0.9765625,0.00390625,0.0078125,0
211,-0.9765625,-0.00390625,-0.00390625,0
212,-0.99609375,0.0078125,0.00390625,0
213,-0.98828125,-0.0078125,-0.0078125,0
214,-0.99609375,-0.015625,0.0,0
215,-1.0078125,0.0,0.0,0
216,-1.015625,0.00390625,-0.0078125,0
217,-1.02734375,0.0,-0.02734375,0
218,-1.015625,0.00390625,-0.03125,0
219,-1.015625,0.015625,-0.03125,0
220,-1.01953125,0.01171875,-0.015625,0
221,-1.0234375,0.02734375,-0.01171875,0
222,-1.03125,0.05078125,0.0,0
223,-1.03515625,0.04296875,0.0,0
224,-1.0390625,0.02734375,0.0,0
225,-1.046875,0.03515625,0.0,0
226,-1.0546875,0.0078125,0.0078125,0
227,-1.05078125,0.01953125,0.00390625,0
228,-1.05859375,0.0,0.00390625,0
229,-1.04296875,-0.00390625,0.0,0
230,-1.03125,-0.01171875,0.0,0
231,-1.03125,-0.00390625,0.0,0
232,-1.0234375,0.0078125,0.0,0
233,-1.015625,-0.01171875,0.0,0
234,-1.0078125,-0.01953125,-0.00390625,0
235,-0.99609375,-0.02734375,0.0,0
236,-1.0078125,-0.0234375,0.0,0
237,-0.9921875,-0.01953125,-0.015625,0
238,-0.99609375,-0.0234375,-0.015625,0
239,-0.99609375,-0.03515625,-0.02734375,0
240,-0.99609375,-0.0546875,-0.0390625,0
241,-0.9921875,-0.05078125,-0.0546875,0
242,-0.99609375,-0.05078125,-0.04296875,0
243,-0.98828125,-0.05859375,-0.0546875,0
244,-0.98828125,-0.046875,-0.03515625,0
245,-0.9765625,-0.04296875,-0.05859375,0
246,-0.9765625,-0.04296875,-0.04296875,0
247,-0.96875,-0.03515625,-0.02734375,0
248,-0.98046875,-0.0390625,-0.0390625,0
249,-0.984375,-0.03125,-0.02734375,0
250,-0.9921875,-0.0390625,-0.02734375,0
251,-0.984375,-0.02734375,-0.02734375,0
252,-1.01171875,-0.015625,-0.02734375,0
253,-1.015625,-0.01171875,-0.02734375,0
254,-1.0078125,-0.02734375,-0.0078125,0
255,-1.01953125,-0.03515625,-0.02734375,0
256,-1.0078125,-0.02734375,-0.03125,0
257,-1.00390625,-0.0078125,-0.015625,0
258,-0.99609375,-0.00390625,-0.0234375,0
259,-0.984375,-0.00390625,-0.02734375,0
260,-0.98046875,-0.02734375,-0.0078125,0
261,-0.96484375,-0.03125,0.0,0
262,-0.9765625,-0.00390625,0.0078125,0
263,-0.97265625,-0.0078125,0.01953125,0
264,-0.9765625,-0.01953125,0.0,0
265,-0.984375,-0.015625,0.0078125,0
266,-1.0078125,-0.0078125,0.00390625,0
267,-1.01953125,0.0078125,0.0078125,0
268,-1.03125,0.00390625,0.0078125,0
269,-1.0390625,0.015625,0.00390625,0
270,-1.046875,0.01953125,0.015625,0
271,-1.0546875,0.02734375,0.00390625,0
272,-1.05078125,-0.00390625,0.01171875,0
273,-1.05859375,0.00390625,0.0078125,0
274,-1.046875,0.01171875,0.01171875,0
275,-1.04296875,0.0078125,0.00390625,0
276,-1.03515625,-0.0078125,0.00390625,0
277,-1.02734375,-0.0078125,-0.01953125,0
278,-1.01953125,-0.0078125,-0.02734375,0
279,-1.015625,-0.02734375,-0.015625,0
280,-1.0,-0.02734375,0.0,0
281,-0.98828125,-0.02734375,-0.00390625,0
282,-0.97265625,-0.0390625,-0.01953125,0
283,-0.97265625,-0.0390625,-0.015625,0
284,-0.96875,-0.0234375,-0.015625,0
285,-0.97265625,-0.0078125,-0.03515625,0
286,-0.96484375,-0.03125,-0.02734375,0
287,-0.96875,0.00390625,-0.0390625,0
288,-0.98828125,0.0078125,-0.04296875,0
289,-1.0078125,-0.0078125,-0.04296875,0
290,-0.99609375,-0.0078125,-0.04296875,0
291,-1.015625,0.0,-0.0390625,0
292,-1.01171875,-0.01171875,-0.0546875,0
293,-1.0078125,-0.00390625,-0.05078125,0
294,-1.0,0.00390625,-0.04296875,0
295,-1.00390625,0.0,-0.0625,0
296,-1.01953125,0.0078125,-0.05859375,0
297,-0.99609375,0.00390625,-0.06640625,0
298,-1.0,0.0,-0.0546875,0
299,-1.0,0.0,-0.0703125,0
300,-0.99609375,0.00390625,-0.06640625,0
301,-0.984375,-0.00390625,-0.0625,0
302,-0.98046875,-0.0078125,-0.0625,0
303,-0.98828125,-0.0078125,-0.05859375,0
304,-0.99609375,-0.015625,-0.06640625,0
305,-0.98828125,-0.01171875,-0.0625,0
306,-0.98828125,-0.02734375,-0.05078125,0
307,-0.99609375,-0.01171875,-0.0546875,0
308,-1.01171875,-0.046875,-0.03515625,0
309,-1.00390625,-0.015625,-0.05859375,0
310,-1.01171875,-0.01953125,-0.0546875,0
311,-1.01953125,-0.0078125,-0.0546875,0
312,-1.03125,-0.0234375,-0.04296875,0
313,-1.02734375,-0.015625,-0.0390625,0
314,-1.0234375,-0.01171875,-0.04296875,0
315,-1.0234375,-0.03515625,-0.03125,0
316,-1.0078125,-0.015625,-0.03515625,0
317,-1.01953125,-0.00390625,-0.03125,0
318,-1.01953125,-0.01171875,-0.01953125,0
319,-1.01171875,-0.0078125,-0.0234375,0
320,-1.01171875,0.0,0.0,0
321,-1.01171875,-0.015625,-0.0078125,0
322,-0.98828125,-0.015625,-0.01171875,0
323,-0.99609375,-0.015625,0.00390625,0
324,-0.98828125,-0.0234375,0.0078125,0
325,-0.98828125,-0.0234375,0.0078125,0
326,-0.9921875,-0.01953125,0.0,0
327,-0.9921875,-0.015625,0.0078125,0
328,-1.00390625,-0.015625,0.01171875,0
329,-1.0078125,-0.01953125,0.0078125,0
330,-1.00390625,-0.01953125,0.015625,0
331,-1.00390625,-0.0078125,0.0,0
332,-0.9921875,0.0,0.0,0
333,-0.9921875,-0.01171875,-0.0078125,0
334,-0.99609375,-0.00390625,-0.0234375,0
335,-1.00390625,0.0,-0.01171875,0
336,-1.0078125,-0.00390625,-0.03125,0
337,-1.00390625,-0.0078125,-0.01953125,0
338,-1.0,0.00390625,-0.01953125,0
339,-0.99609375,0.01171875,-0.01171875,0
340,-1.01171875,-0.0078125,-0.0234375,0
341,-1.00390625,0.0078125,-0.0390625,0
342,-1.00390625,0.0,-0.03125,0
343,-0.99609375,0.015625,-0.03125,0
344,-1.0,0.00390625,-0.0234375,0
345,-1.0,0.01171875,-0.03125,0
346,-1.01171875,0.01171875,-0.03515625,0
347,-1.0,0.0234375,-0.03125,0
348,-0.99609375,0.015625,-0.0390625,0
349,-1.0,0.01171875,-0.04296875,0
350,-1.0,0.0,-0.0546875,0
351,-1.01171875,0.0078125,-0.05078125,0
352,-1.00390625,0.01171875,-0.05859375,0
353,-0.99609375,0.0078125,-0.05859375,0
354,-0.98828125,0.01953125,-0.0546875,0
355,-0.9921875,0.015625,-0.0546875,0
356,-0.97265625,-0.00390625,-0.0546875,0
357,-0.984375,0.01171875,-0.0546875,0
358,-0.9921875,0.0,-0.0546875,0
359,-0.99609375,0.01171875,-0.05859375,0
360,-0.984375,0.015625,-0.05859375,0
361,-0.984375,0.01171875,-0.05859375,0
362,-0.9921875,0.0078125,-0.07421875,0
363,-1.0078125,-0.0078125,-0.05859375,0
364,-1.00390625,0.0078125,-0.08203125,0
365,-1.0,0.01171875,-0.0703125,0
366,-1.0,0.01171875,-0.0703125,0
367,-1.0,0.00390625,-0.0703125,0
368,-1.01171875,0.015625,-0.0703125,0
369,-1.01171875,0.0078125,-0.06640625,0
370,-1.00390625,0.01171875,-0.078125,0
371,-1.015625,0.015625,-0.06640625,0
372,-1.01171875,0.02734375,-0.06640625,0
373,-1.046875,0.01171875,-0.0546875,0
374,-1.015625,0.01171875,-0.07421875,0
375,-1.0,0.01171875,-0.06640625,0
376,-1.01171875,0.01953125,-0.06640625,0
377,-1.0,0.01953125,-0.06640625,0
378,-1.015625,0.0,-0.04296875,0
379,-1.0078125,0.015625,-0.0625,0
380,-1.00390625,0.0,-0.06640625,0
381,-0.99609375,0.01171875,-0.07421875,0
382,-1.00390625,0.02734375,-0.07421875,0
383,-1.00390625,0.015625,-0.06640625,0
384,-1.0078125,0.02734375,-0.0625,0
385,-1.0,0.02734375,-0.06640625,0
386,-0.98828125,0.01953125,-0.0703125,0
387,-0.99609375,0.03125,-0.0625,0
388,-0.99609375,0.01953125,-0.07421875,0
389,-1.0078125,0.01953125,-0.05859375,0
390,-0.99609375,0.01953125,-0.0703125,0
391,-1.0,0.03125,-0.0546875,0
392,-1.01171875,0.0234375,-0.05859375,0
393,-1.0,0.03515625,-0.05859375,0
394,-1.015625,0.046875,-0.046875,0
395,-1.015625,0.02734375,-0.04296875,0
396,-1.00390625,0.03515625,-0.04296875,0
397,-1.01171875,0.03125,-0.05078125,0
398,-0.98828125,0.046875,-0.04296875,0
399,-0.99609375,0.03125,-0.046875,0
400,-0.99609375,0.03125,-0.03515625,0
401,-0.99609375,0.04296875,-0.04296875,0
402,-0.98828125,0.0546875,-0.04296875,0
403,-1.0,0.0390625,-0.05078125,0
404,-0.99609375,0.0390625,-0.05078125,0
405,-1.01171875,0.03515625,-0.0390625,0
406,-1.0,0.03125,-0.046875,0
407,-1.00390625,0.0390625,-0.046875,0
408,-1.00390625,0.04296875,-0.04296875,0
409,-1.0078125,0.03125,-0.02734375,0
410,-1.0,0.03515625,-0.03125,0
411,-1.0078125,0.0234375,-0.015625,0
412,-0.98828125,0.046875,-0.015625,0
413,-0.9921875,0.03515625,-0.02734375,0
414,-0.984375,0.03515625,-0.00390625,0
415,-0.9921875,0.05859375,-0.02734375,0
416,-0.98046875,0.04296875,-0.0234375,0
417,-0.98828125,0.046875,-0.03515625,0
418,-0.9765625,0.05078125,-0.04296875,0
419,-0.984375,0.05859375,-0.0390625,0
420,-0.98046875,0.05078125,-0.03515625,0
421,-0.98828125,0.05078125,-0.03515625,0
422,-0.9765625,0.05859375,-0.0390625,0
423,-0.9765625,0.046875,-0.046875,0
424,-0.984375,0.05859375,-0.04296875,0
425,-0.98046875,0.046875,-0.046875,0
426,-0.98046875,0.0546875,-0.046875,0
427,-0.98828125,0.0625,-0.05078125,0
428,-1.00390625,0.0625,-0.046875,0
429,-0.9921875,0.0390625,-0.04296875,0
430,-0.9921875,0.06640625,-0.0390625,0
431,-0.98828125,0.0546875,-0.046875,0
432,-0.984375,0.0703125,-0.05078125,0
433,-0.99609375,0.06640625,-0.03515625,0
434,-0.984375,0.05859375,-0.05078125,0
435,-0.98046875,0.0546875,-0.04296875,0
436,-0.98828125,0.0546875,-0.04296875,0
437,-1.0,0.0546875,-0.03515625,0
438,-0.9921875,0.02734375,-0.0390625,0
439,-0.984375,0.0546875,-0.0234375,0
440,-0.98828125,0.0625,-0.046875,0
441,-0.98828125,0.0625,-0.04296875,0
442,-0.9921875,0.05078125,-0.0390625,0
443,-0.98828125,0.0546875,-0.0390625,0
444,-0.984375,0.0625,-0.03515625,0
445,-0.9921875,0.0625,-0.0390625,0
446,-0.98828125,0.06640625,-0.03515625,0
447,-0.984375,0.0625,-0.04296875,0
448,-1.0,0.06640625,-0.04296875,0
449,-0.99609375,0.05078125,-0.05078125,0
450,-1.015625,0.06640625,-0.05078125,0
451,-0.99609375,0.0546875,-0.0703125,0
452,-1.01171875,0.05859375,-0.06640625,0
453,-1.015625,0.0625,-0.0625,0
454,-1.015625,0.0703125,-0.0703125,0
455,-1.00390625,0.06640625,-0.05078125,0
456,-1.0,0.06640625,-0.0625,0
457,-1.00390625,0.07421875,-0.05859375,0
458,-0.9921875,0.0703125,-0.05859375,0
459,-0.9921875,0.05859375,-0.04296875,0
460,-0.9921875,0.0703125,-0.0625,0
461,-0.9921875,0.05859375,-0.07421875,0
462,-0.99609375,0.0625,-0.05859375,0
463,-0.984375,0.07421875,-0.05078125,0
464,-0.9921875,0.0703125,-0.05078125,0
465,-0.984375,0.0703125,-0.0625,0
466,-0.98828125,0.0625,-0.05859375,0
467,-0.9921875,0.0546875,-0.0546875,0
468,-1.0,0.0703125,-0.046875,0
469,-0.9921875,0.0859375,-0.04296875,0
470,-0.98046875,0.06640625,-0.05859375,0
471,-0.98046875,0.06640625,-0.0625,0
472,-0.99609375,0.07421875,-0.0546875,0
473,-0.9921875,0.07421875,-0.046875,0
474,-1.0,0.07421875,-0.05078125,0
475,-0.9921875,0.0703125,-0.0625,0
476,-0.99609375,0.0625,-0.05859375,0
477,-0.9921875,0.046875,-0.05859375,0
478,-1.0,0.0546875,-0.05859375,0
479,-1.0,0.06640625,-0.0546875,0
480,-0.984375,0.07421875,-0.05078125,0
481,-0.99609375,0.0703125,-0.0390625,0
482,-0.9921875,0.06640625,-0.0390625,0
483,-0.98828125,0.0703125,-0.0390625,0
484,-0.9921875,0.07421875,-0.03125,0
485,-0.9921875,0.07421875,-0.046875,0
486,-0.9765625,0.0703125,-0.04296875,0
487,-0.99609375,0.078125,-0.03515625,0
488,-1.01171875,0.06640625,-0.0390625,0
489,-0.984375,0.0625,-0.03515625,0
490,-1.00390625,0.07421875,-0.03125,0
491,-1.0,0.05078125,-0.0390625,0
492,-0.99609375,0.07421875,-0.05078125,0
493,-1.00390625,0.0625,-0.046875,0
494,-1.0,0.0546875,-0.0390625,0
495,-1.00390625,0.06640625,-0.03515625,0
496,-1.015625,0.07421875,-0.02734375,0
497,-0.99609375,0.06640625,-0.03125,0
498,-1.00390625,0.0703125,-0.02734375,0
499,-0.9921875,0.0703125,-0.02734375,0
500,-0.9921875,0.06640625,-0.0390625,0
501,-0.9921875,0.05859375,-0.01171875,0
502,-0.98046875,0.078125,-0.02734375,0
503,-0.984375,0.06640625,-0.0078125,0
504,-0.99609375,0.078125,-0.03125,0
505,-0.98828125,0.07421875,-0.03125,0
506,-1.0,0.0625,-0.015625,0
507,-0.9921875,0.06640625,-0.03515625,0
508,-0.98828125,0.06640625,-0.0234375,0
509,-0.98828125,0.078125,-0.03515625,0
510,-0.99609375,0.078125,-0.03125,0
511,-0.98828125,0.05859375,-0.046875,0
512,-1.0,0.07421875,-0.03125,0
513,-0.9921875,0.05859375,-0.0234375,0
514,-1.0,0.0625,-0.01171875,0
515,-0.99609375,0.0625,-0.03125,0
516,-0.984375,0.078125,-0.0390625,0
517,-1.0,0.06640625,-0.03125,0
518,-1.0,0.07421875,-0.0234375,0
519,-0.9921875,0.078125,-0.04296875,0
520,-0.99609375,0.0703125,-0.02734375,0
521,-0.9921875,0.0625,-0.03125,0
522,-0.99609375,0.06640625,-0.03125,0
523,-0.99609375,0.078125,-0.03515625,0
524,-1.00390625,0.07421875,-0.03125,0
525,-0.9921875,0.06640625,-0.05078125,0
526,-1.0078125,0.06640625,-0.0390625,0
527,-1.00390625,0.05859375,-0.02734375,0
528,-1.00390625,0.07421875,-0.03125,0
529,-1.0078125,0.0703125,-0.0234375,0
530,-0.99609375,0.0625,-0.02734375,0
531,-1.0,0.08984375,-0.0234375,0
532,-0.99609375,0.0625,-0.0234375,0
533,-0.9921875,0.07421875,-0.03125,0
534,-0.99609375,0.07421875,-0.0234375,0
535,-1.0078125,0.07421875,-0.01953125,0
536,-1.0,0.06640625,-0.02734375,0
537,-0.98828125,0.06640625,-0.03515625,0
538,-0.9921875,0.0546875,-0.03125,0
539,-0.9921875,0.05859375,-0.03125,0
540,-0.99609375,0.07421875,-0.0234375,0
541,-0.98828125,0.0703125,-0.04296875,0
542,-0.99609375,0.0703125,-0.04296875,0
543,-1.00390625,0.078125,-0.046875,0
544,-1.01171875,0.078125,-0.0390625,0
545,-0.97265625,0.07421875,-0.02734375,0
546,-1.00390625,0.08984375,-0.0390625,0
547,-0.99609375,0.06640625,-0.05859375,0
548,-1.00390625,0.0859375,-0.03515625,0
549,-1.00390625,0.078125,-0.02734375,0
550,-0.9765625,0.06640625,-0.04296875,0
551,-1.0,0.06640625,-0.04296875,0
552,-0.98828125,0.07421875,-0.04296875,0
553,-1.01171875,0.06640625,-0.03515625,0
554,-0.9921875,0.078125,-0.03125,0
555,-1.0,0.0703125,-0.046875,0
556,-1.00390625,0.07421875,-0.03515625,0
557,-0.99609375,0.0625,-0.04296875,0
558,-1.0078125,0.05859375,-0.03515625,0
559,-0.984375,0.07421875,-0.05859375,0
560,-1.00390625,0.06640625,-0.04296875,0
561,-0.99609375,0.0703125,-0.04296875,0
562,-0.98828125,0.07421875,-0.04296875,0
563,-0.9921875,0.0703125,-0.0390625,0
564,-0.98828125,0.07421875,-0.0390625,0
565,-0.98828125,0.08203125,-0.0234375,0
566,-0.98046875,0.0625,-0.046875,0
567,-1.0,0.0703125,-0.03515625,0
568,-0.9921875,0.0625,-0.0234375,0
569,-1.0,0.078125,-0.01953125,0
570,-1.0,0.0703125,-0.02734375,0
571,-0.99609375,0.08984375,-0.03125,0
572,-0.9921875,0.0859375,-0.02734375,0
573,-0.99609375,0.07421875,-0.02734375,0
574,-1.0,0.09375,-0.015625,0
575,-0.9921875,0.078125,-0.02734375,0
576,-0.98828125,0.07421875,-0.03125,0
577,-0.98828125,0.078125,-0.015625,0
578,-1.0,0.0859375,-0.02734375,0
579,-0.9921875,0.08203125,-0.015625,0
580,-0.984375,0.0859375,-0.0234375,0
581,-0.9765625,0.0859375,-0.0390625,0
582,-1.0,0.07421875,-0.0390625,0
583,-1.0,0.078125,-0.02734375,0
584,-0.9921875,0.0625,-0.01953125,0
585,-0.98828125,0.0859375,-0.046875,0
586,-0.984375,0.06640625,-0.03515625,0
587,-0.98046875,0.0859375,-0.0234375,0
588,-0.98046875,0.08984375,-0.01171875,0
589,-0.984375,0.08984375,-0.03125,0
590,-0.98828125,0.07421875,-0.015625,0
591,-0.9765625,0.078125,-0.0234375,0
592,-0.98046875,0.08984375,-0.015625,0
593,-0.99609375,0.09375,-0.01953125,0
594,-1.0,0.08984375,-0.02734375,0
595,-1.0,0.078125,-0.0390625,0
596,-0.9921875,0.08984375,-0.03125,0
597,-1.0,0.0859375,-0.0234375,0
598,-1.0,0.0859375,-0.02734375,0
599,-1.0,0.1015625,-0.0234375,0
600,-0.99609375,0.08984375,-0.03515625,0
601,-1.0,0.09765625,-0.03125,0
602,-0.9921875,0.0859375,-0.0390625,0
603,-0.98828125,0.09375,-0.03515625,0
604,-1.00390625,0.09375,-0.01953125,0
605,-1.0,0.08984375,-0.0390625,0
606,-0.9921875,0.09375,-0.04296875,0
607,-1.00390625,0.078125,-0.05078125,0
608,-1.0078125,0.08203125,-0.03515625,0
609,-1.01171875,0.078125,-0.0390625,0
610,-1.01171875,0.09375,-0.02734375,0
611,-1.01171875,0.1171875,-0.02734375,0
612,-1.0078125,0.09375,-0.02734375,0
613,-1.0078125,0.10546875,-0.0390625,0
614,-1.00390625,0.10546875,-0.03515625,0
615,-1.0,0.11328125,-0.0390625,0
616,-0.98046875,0.1171875,-0.015625,0
617,-0.98046875,0.11328125,-0.02734375,0
618,-0.96875,0.11328125,-0.03125,0
619,-0.984375,0.1015625,-0.03515625,0
620,-0.97265625,0.09765625,-0.03125,0
621,-0.97265625,0.10546875,-0.03125,0
622,-0.9765625,0.109375,-0.046875,0
623,-0.98046875,0.09375,-0.03515625,0
624,-0.98828125,0.09375,-0.03515625,0
625,-0.99609375,0.09375,-0.04296875,0
626,-0.99609375,0.1015625,-0.046875,0
627,-0.99609375,0.09765625,-0.0546875,0
628,-1.00390625,0.09375,-0.0390625,0
629,-1.0,0.1015625,-0.04296875,0
630,-0.9921875,0.09765625,-0.0546875,0
631,-0.9765625,0.09765625,-0.046875,0
632,-0.99609375,0.1015625,-0.046875,0
633,-0.96484375,0.08203125,-0.0234375,0
634,-0.98046875,0.09765625,-0.05078125,0
635,-0.9765625,0.08984375,-0.0390625,0
636,-0.98046875,0.09375,-0.04296875,0
637,-0.97265625,0.09765625,-0.04296875,0
638,-0.9765625,0.09375,-0.05078125,0
639,-0.9765625,0.09765625,-0.03515625,0
640,-0.98046875,0.08984375,-0.0390625,0
641,-0.984375,0.09765625,-0.03125,0
642,-0.9921875,0.12109375,-0.01953125,0
643,-0.98828125,0.0859375,-0.0078125,0
644,-0.99609375,0.09765625,-0.0234375,0
645,-1.0078125,0.09765625,-0.03515625,0
646,-0.9921875,0.08984375,-0.02734375,0
647,-0.9921875,0.10546875,-0.02734375,0
648,-0.98046875,0.09375,-0.03515625,0
649,-0.984375,0.08984375,-0.02734375,0
650,-0.98046875,0.0859375,-0.0234375,0
651,-0.97265625,0.0859375,-0.0234375,0
652,-0.96875,0.0859375,-0.0234375,0
653,-0.9765625,0.08203125,-0.02734375,0
654,-0.984375,0.09765625,-0.015625,0
655,-0.98828125,0.1015625,-0.00390625,0
656,-0.984375,0.1171875,0.0,0
657,-1.0,0.109375,-0.015625,0
658,-1.00390625,0.109375,-0.01953125,0
659,-1.0234375,0.09375,-0.00390625,0
660,-1.0234375,0.08984375,-0.01953125,0
661,-1.01171875,0.09375,-0.03125,0
662,-1.02734375,0.08984375,-0.0390625,0
663,-1.03515625,0.08984375,-0.03125,0
664,-1.01953125,0.09765625,-0.046875,0
665,-1.03515625,0.109375,-0.03515625,0
666,-1.03125,0.10546875,-0.0546875,0
667,-1.0234375,0.09765625,-0.0546875,0
668,-1.03515625,0.10546875,-0.046875,0
669,-1.01171875,0.1171875,-0.04296875,0
670,-0.9921875,0.109375,-0.0546875,0
671,-0.98828125,0.1015625,-0.046875,0
672,-0.96484375,0.09375,-0.0546875,0
673,-0.96875,0.09375,-0.0625,0
674,-0.9609375,0.09765625,-0.0546875,0
675,-0.96484375,0.1171875,-0.0625,0
676,-0.97265625,0.11328125,-0.04296875,0
677,-0.96484375,0.11328125,-0.0703125,0
678,-0.95703125,0.09765625,-0.0546875,0
679,-0.9609375,0.09765625,-0.05078125,0
680,-0.9453125,0.08984375,-0.05859375,0
681,-0.94921875,0.0859375,-0.05078125,0
682,-0.953125,0.109375,-0.0546875,0
683,-0.9609375,0.09375,-0.05859375,0
684,-0.9765625,0.1015625,-0.046875,0
685,-0.984375,0.08984375,-0.03515625,0
686,-0.98046875,0.1015625,-0.02734375,0
687,-0.9765625,0.109375,-0.04296875,0
688,-0.98828125,0.109375,-0.015625,0
689,-0.99609375,0.1171875,-0.015625,0
690,-0.98828125,0.1171875,-0.015625,0
691,-0.984375,0.109375,-0.03515625,0
692,-1.00390625,0.1171875,-0.04296875,0
693,-1.01171875,0.10546875,-0.0390625,0
694,-1.0078125,0.1171875,-0.05078125,0
695,-1.01171875,0.12109375,-0.046875,0
696,-0.99609375,0.10546875,-0.0546875,0
697,-0.9921875,0.09375,-0.04296875,0
698,-0.97265625,0.08203125,-0.05859375,0
699,-0.9765625,0.10546875,-0.0546875,0
700,-0.96875,0.09765625,-0.06640625,0
701,-0.96875,0.109375,-0.08203125,0
702,-0.96875,0.11328125,-0.09375,0
703,-0.97265625,0.12109375,-0.11328125,0
704,-0.98046875,0.1171875,-0.12890625,0
705,-0.9765625,0.12109375,-0.15234375,0
706,-0.96484375,0.10546875,-0.16796875,0
707,-0.9765625,0.12109375,-0.16796875,0
708,-0.9609375,0.09375,-0.19140625,0
709,-0.9609375,0.1171875,-0.17578125,0
710,-0.95703125,0.08984375,-0.1875,0
711,-0.95703125,0.08984375,-0.1875,0
712,-0.953125,0.0859375,-0.18359375,0
713,-0.97265625,0.08984375,-0.16796875,0
714,-0.96484375,0.07421875,-0.171875,0
715,-0.9765625,0.0546875,-0.16015625,0
716,-0.98828125,0.0703125,-0.15625,0
717,-0.99609375,0.07421875,-0.15625,0
718,-1.0078125,0.0703125,-0.15234375,0
719,-1.0078125,0.07421875,-0.1328125,0
720,-1.0234375,0.06640625,-0.1484375,0
721,-1.03125,0.08203125,-0.11328125,0
722,-1.02734375,0.08203125,-0.125,0
723,-1.02734375,0.09375,-0.13671875,0
724,-1.0234375,0.08984375,-0.12890625,0
725,-1.02734375,0.09765625,-0.12890625,0
726,-1.015625,0.0859375,-0.12890625,0
727,-0.99609375,0.07421875,-0.14453125,0
728,-1.00390625,0.08203125,-0.15625,0
729,-0.98828125,0.05859375,-0.1640625,0
730,-0.9921875,0.0625,-0.16015625,0
731,-0.98046875,0.05859375,-0.18359375,0
732,-0.984375,0.05078125,-0.19140625,0
733,-0.98046875,0.0546875,-0.19921875,0
734,-0.96875,0.03515625,-0.18359375,0
735,-0.96875,0.03125,-0.1640625,0
736,-0.96875,0.0234375,-0.14453125,0
737,-0.96875,0.015625,-0.12890625,0
738,-0.953125,-0.00390625,-0.125,0
739,-0.9609375,0.00390625,-0.109375,0
740,-0.94921875,0.0,-0.0546875,0
741,-0.93359375,0.0234375,-0.0234375,0
742,-0.90234375,0.015625,0.0078125,0
743,-0.875,0.015625,0.03125,0
744,-0.8515625,0.015625,0.05859375,0
745,-0.8359375,0.01171875,0.125,0
746,-0.81640625,0.0390625,0.14453125,0
747,-0.8046875,0.046875,0.15625,0
748,-0.80078125,0.0625,0.14453125,0
749,-0.80859375,0.046875,0.14453125,0
750,-0.8671875,0.06640625,0.1328125,0
751,-0.90625,0.046875,0.09765625,0
752,-0.97265625,0.06640625,0.04296875,0
753,-1.01953125,0.05078125,0.0,0
754,-1.0703125,0.03125,-0.02734375,0
755,-1.1171875,0.046875,-0.06640625,0
756,-1.1484375,0.0625,-0.1015625,0
757,-1.1640625,0.10546875,-0.078125,0
758,-1.1953125,0.16015625,-0.0625,0
759,-1.1640625,0.203125,-0.05078125,0
760,-1.12890625,0.23046875,-0.0859375,0
761,-1.12109375,0.26953125,-0.1171875,0
762,-1.109375,0.23828125,-0.140625,0
763,-1.10546875,0.2265625,-0.18359375,0
764,-1.0859375,0.21484375,-0.1796875,0
765,-1.09765625,0.171875,-0.15625,0
766,-1.109375,0.1328125,-0.17578125,0
767,-1.12109375,0.09375,-0.1875,0
768,-1.125,0.0859375,-0.19140625,0
769,-1.12109375,0.109375,-0.1953125,0
770,-1.11328125,0.1171875,-0.15625,0
771,-1.08984375,0.1171875,-0.16796875,0
772,-1.0625,0.12109375,-0.1875,0
773,-1.02734375,0.109375,-0.203125,0
774,-0.96875,0.078125,-0.15625,0
775,-0.93359375,0.03125,-0.109375,0
776,-0.90625,-0.00390625,-0.09765625,0
777,-0.8671875,-0.03125,-0.109375,0
778,-0.8359375,-0.08984375,-0.08984375,0
779,-0.8125,-0.1171875,-0.08984375,0
780,-0.78125,-0.15625,-0.0703125,0
781,-0.74609375,-0.15234375,-0.06640625,0
782,-0.71875,-0.18359375,-0.06640625,0
783,-0.67578125,-0.1875,-0.06640625,0
784,-0.65625,-0.1953125,-0.05859375,0
785,-0.62109375,-0.20703125,-0.04296875,0
786,-0.58984375,-0.21484375,0.015625,0
787,-0.55859375,-0.2109375,0.078125,0
788,-0.53515625,-0.1953125,0.140625,0
789,-0.5,-0.1953125,0.18359375,0
790,-0.4765625,-0.16796875,0.23046875,0
791,-0.44921875,-0.125,0.265625,0
792,-0.4453125,-0.11328125,0.30859375,0
793,-0.44921875,-0.078125,0.33203125,0
794,-0.46875,-0.03515625,0.35546875,0
795,-0.49609375,0.00390625,0.33984375,0
796,-0.5234375,0.0625,0.375,0
797,-0.5703125,0.15234375,0.41015625,0
798,-0.640625,0.234375,0.44921875,0
799,-0.70703125,0.328125,0.46875,0
800,-0.8125,0.44921875,0.47265625,0
801,-0.9140625,0.5703125,0.44921875,0
802,-0.9921875,0.6796875,0.43359375,0
803,-1.0625,0.7890625,0.4140625,0
804,-1.09375,0.84765625,0.4140625,0
805,-1.08203125,0.84765625,0.390625,0
806,-1.06640625,0.70703125,0.37109375,0
807,-1.0703125,0.421875,0.27734375,0
808,-1.1484375,0.1796875,0.3046875,0
809,-1.26171875,0.04296875,0.26953125,0
810,-1.421875,0.015625,0.296875,0
811,-1.58984375,0.15625,0.27734375,0
812,-1.7734375,0.43359375,0.109375,0
813,-1.89453125,0.55859375,-0.05078125,0
814,-2.05859375,0.6640625,-0.171875,0
815,-2.26171875,0.73046875,-0.22265625,0
816,-2.453125,0.76953125,-0.2109375,0
817,-2.57421875,0.6953125,-0.11328125,0
818,-2.65234375,0.5859375,0.06640625,0
819,-2.671875,0.57421875,0.140625,0
820,-2.62109375,0.546875,0.21484375,0
821,-2.55078125,0.56640625,0.21484375,0
822,-2.48828125,0.58203125,0.1953125,0
823,-2.4296875,0.578125,0.21875,0
824,-2.30078125,0.55859375,0.25,0
825,-2.14453125,0.51171875,0.29296875,0
826,-1.9375,0.47265625,0.3203125,0
827,-1.73046875,0.42578125,0.37890625,0
828,-1.54296875,0.3671875,0.453125,0
829,-1.36328125,0.3203125,0.50390625,0
830,-1.203125,0.2421875,0.5078125,0
831,-1.046875,0.12109375,0.4765625,0
832,-0.93359375,-0.03125,0.3515625,0
833,-0.8671875,-0.24609375,0.28125,0
834,-0.8125,-0.41015625,0.28125,0
835,-0.76171875,-0.55078125,0.34765625,0
836,-0.7421875,-0.68359375,0.26171875,0
837,-0.828125,-0.8046875,0.03125,0
838,-1.0,-0.96875,-0.1953125,0
839,-1.2265625,-1.18359375,-0.26171875,0
840,-1.4140625,-1.2734375,-0.15234375,0
841,-1.5390625,-1.29296875,0.03515625,0
842,-1.5546875,-1.16015625,0.18359375,0
843,-1.48046875,-0.6484375,0.23828125,0
844,-1.34765625,-0.21875,0.2421875,0
845,-1.2109375,0.13671875,0.23828125,0
846,-1.1015625,0.33984375,0.19921875,0
847,-0.97265625,0.34375,0.13671875,0
848,-0.82421875,0.1640625,0.0625,0
849,-0.6796875,-0.05859375,-0.0078125,0
850,-0.515625,-0.1875,0.00390625,0
851,-0.4609375,-0.41015625,0.0078125,0
852,-0.41796875,-0.51171875,0.05078125,0
853,-0.390625,-0.52734375,0.078125,0
854,-0.41796875,-0.54296875,0.08984375,0
855,-0.48046875,-0.45703125,0.09765625,0
856,-0.56640625,-0.31640625,0.12109375,0
857,-0.671875,-0.1875,0.171875,0
858,-0.7890625,-0.08203125,0.1640625,0
859,-0.96875,-0.0390625,0.1328125,0
860,-1.2109375,0.0234375,0.078125,0
861,-1.421875,0.078125,0.03515625,0
862,-1.61328125,0.11328125,0.0234375,0
863,-1.76171875,0.16796875,-0.05078125,0
864,-1.859375,0.1640625,-0.18359375,0
865,-1.90625,0.12890625,-0.27734375,0
866,-1.93359375,0.09765625,-0.3828125,0
867,-1.9296875,0.05859375,-0.46875,0
868,-1.875,0.05078125,-0.5234375,0
869,-1.8515625,0.078125,-0.52734375,0
870,-1.83203125,0.1171875,-0.53515625,0
871,-1.8359375,0.07421875,-0.54296875,0
872,-1.8359375,0.05859375,-0.51171875,0
873,-1.87109375,0.0546875,-0.51953125,0
874,-1.8984375,0.05078125,-0.51171875,0
875,-1.90625,0.09375,-0.53125,0
876,-1.88671875,0.08984375,-0.484375,0
877,-1.85546875,0.08203125,-0.46875,0
878,-1.75390625,0.09375,-0.4765625,0
879,-1.65234375,0.15625,-0.4453125,0
880,-1.515625,0.1875,-0.4609375,0
881,-1.41015625,0.19921875,-0.3515625,0
882,-1.33203125,0.21484375,-0.2421875,0
883,-1.31640625,0.17578125,0.0,0
884,-1.3046875,0.05078125,0.26953125,0
885,-1.1171875,-0.0859375,0.3984375,0
886,-0.71875,-0.27734375,0.36328125,0
887,-0.29296875,-0.4453125,0.2109375,0
888,0.02734375,-0.515625,0.1015625,0
889,0.3515625,-0.44921875,0.00390625,0
890,0.54296875,-0.44921875,-0.04296875,0
891,0.63671875,-0.44921875,-0.00390625,0
892,0.66796875,-0.33203125,0.0390625,0
893,0.55078125,-0.26171875,0.0625,0
894,0.4453125,-0.20703125,0.046875,0
895,0.30859375,-0.08203125,0.03515625,0
896,0.05859375,-0.03515625,0.03515625,0
897,-0.1640625,0.046875,0.07421875,0
898,-0.3515625,0.1953125,0.109375,0
899,-0.46875,0.3359375,0.109375,0
900,-0.515625,0.421875,0.109375,0
901,-0.5234375,0.50390625,0.12890625,0
902,-0.48046875,0.54296875,0.10546875,0
903,-0.4140625,0.5546875,0.06640625,0
904,-0.26171875,0.46875,0.0546875,0
905,-0.12109375,0.36328125,0.05078125,0
906,0.01953125,0.2265625,0.03515625,0
907,0.17578125,0.046875,0.015625,0
908,0.26953125,-0.2890625,-0.109375,0
909,0.26171875,-0.6953125,-0.30078125,0
910,0.08203125,-1.1015625,-0.36328125,0
911,-0.1640625,-1.37109375,-0.2578125,0
912,-0.33203125,-1.4609375,-0.12890625,0
913,-0.43359375,-1.1953125,-0.0078125,0
914,-0.37890625,-0.6171875,0.06640625,0
915,-0.375,0.140625,0.08984375,0
916,-0.59375,0.7265625,0.01953125,0
917,-1.0078125,0.92578125,-0.125,0
918,-1.47265625,0.76171875,-0.2421875,0
919,-1.9453125,0.40625,-0.234375,0
920,-2.2578125,-0.05859375,-0.05078125,0
921,-2.40234375,-0.26171875,0.2890625,0
922,-2.3125,-0.30859375,0.62890625,0
923,-2.0625,-0.0703125,0.55859375,0
924,-1.91015625,0.16796875,0.0859375,0
925,-1.859375,0.18359375,-0.3203125,0
926,-1.96875,-0.01953125,-0.48046875,0
927,-2.21875,-0.078125,-0.5234375,0
928,-2.4609375,-0.1953125,-0.4921875,0
929,-2.6953125,-0.1640625,-0.43359375,0
930,-2.81640625,-0.08203125,-0.265625,0
931,-2.87890625,0.02734375,-0.0078125,0
932,-2.83984375,0.046875,0.2109375,0
933,-2.80859375,0.03125,0.38671875,0
934,-2.734375,0.03125,0.4453125,0
935,-2.65625,-0.0625,0.5234375,0
936,-2.5859375,-0.125,0.515625,0
937,-2.33984375,-0.37109375,0.4375,0
938,-2.046875,-0.515625,0.390625,0
939,-1.68359375,-0.5234375,0.328125,0
940,-1.27734375,-0.515625,0.3125,0
941,-0.9296875,-0.5234375,0.2890625,0
942,-0.60546875,-0.5546875,0.1796875,0
943,-0.23828125,-0.625,0.046875,0
944,0.05078125,-0.65625,-0.10546875,0
945,0.28515625,-0.609375,-0.21484375,0
946,0.390625,-0.52734375,-0.203125,0
947,0.44140625,-0.4453125,-0.2109375,0
948,0.51953125,-0.12109375,-0.203125,0
949,0.5234375,-0.03125,-0.28515625,0
950,0.48828125,0.11328125,-0.37109375,0
951,0.40234375,0.171875,-0.4609375,0
952,0.26171875,0.19140625,-0.44140625,0
953,0.109375,0.234375,-0.26953125,0
954,0.01953125,0.32421875,-0.0390625,0
955,-0.03125,0.4296875,0.109375,0
956,-0.11328125,0.46484375,0.06640625,0
957,-0.12890625,0.4609375,-0.0234375,0
958,-0.140625,0.22265625,-0.1796875,0
959,-0.24609375,-0.09765625,-0.109375,0
960,-0.37890625,-0.61328125,0.015625,0
961,-0.53125,-1.01953125,0.140625,0
962,-0.65234375,-1.234375,0.140625,0
963,-0.73046875,-1.27734375,0.125,0
964,-0.80078125,-1.0625,0.0703125,0
965,-0.86328125,-0.62109375,-0.015625,0
966,-0.9921875,0.0390625,-0.1015625,0
967,-1.25390625,0.734375,-0.2109375,0
968,-1.62109375,0.90234375,-0.36328125,0
969,-2.01953125,0.8046875,-0.65625,0
970,-2.3671875,0.59375,-1.046875,0
971,-2.5546875,0.38671875,-1.37890625,0
972,-2.48046875,0.22265625,-1.30859375,0
973,-2.2734375,0.15234375,-0.84375,0
974,-2.03515625,0.0,-0.5625,0
975,-1.8359375,0.02734375,-0.41796875,0
976,-1.66796875,-0.015625,-0.28125,0
977,-1.62890625,-0.12109375,-0.0859375,0
978,-1.671875,-0.1953125,0.08203125,0
979,-1.7890625,-0.2265625,0.1171875,0
980,-1.859375,-0.25390625,0.01171875,0
981,-1.8828125,-0.15625,-0.19921875,0
982,-1.90625,0.01171875,-0.33203125,0
983,-1.9140625,0.12890625,-0.44140625,0
984,-1.890625,0.1875,-0.4609375,0
985,-1.8984375,0.16796875,-0.39453125,0
986,-1.8515625,0.08984375,-0.24609375,0
987,-1.70703125,0.01953125,-0.03515625,0
988,-1.453125,-0.01953125,0.01953125,0
989,-1.06640625,-0.15234375,-0.05078125,0
990,-0.65234375,-0.32421875,-0.1796875,0
991,-0.31640625,-0.484375,-0.29296875,0
992,-0.046875,-0.4375,-0.4296875,0
993,0.16015625,-0.40625,-0.5078125,0
994,0.28125,-0.3828125,-0.48828125,0
995,0.35546875,-0.35546875,-0.37109375,0
996,0.359375,-0.3359375,-0.2421875,0
997,0.32421875,-0.32421875,-0.125,0
998,0.25,-0.29296875,-0.0859375,0
999,0.15625,-0.20703125,-0.0859375,0
1000,0.0234375,-0.06640625,-0.05859375,0
1001,-0.05078125,0.10546875,-0.08203125,0
1002,-0.1171875,0.2890625,-0.06640625,0
1003,-0.16015625,0.41015625,-0.0859375,0
1004,-0.1796875,0.55859375,-0.18359375,0
1005,-0.171875,0.578125,-0.27734375,0
1006,-0.20703125,0.6015625,-0.2890625,0
1007,-0.24609375,0.51953125,-0.203125,0
1008,-0.29296875,0.3359375,-0.078125,0
1009,-0.359375,-0.14453125,0.0546875,0
1010,-0.47265625,-0.72265625,0.125,0
1011,-0.59375,-1.26171875,0.19140625,0
1012,-0.71875,-1.6015625,0.24609375,0
1013,-0.80859375,-1.76953125,0.26953125,0
1014,-0.859375,-1.65625,0.3125,0
1015,-0.890625,-1.26171875,0.359375,0
1016,-0.93359375,-0.62890625,0.33203125,0
1017,-1.06640625,0.0078125,0.29296875,0
1018,-1.34765625,0.5703125,0.25,0
1019,-1.86328125,0.63671875,0.38671875,0
1020,-2.5,0.5625,0.71484375,0
1021,-2.93359375,0.30859375,1.16015625,0
1022,-3.01953125,0.1171875,1.515625,0
1023,-2.796875,0.04296875,1.1484375,0
1024,-2.6640625,0.17578125,0.43359375,0
1025,-2.5078125,0.13671875,0.0234375,0
1026,-2.37109375,0.0546875,-0.19140625,0
1027,-2.29296875,-0.07421875,-0.3046875,0
1028,-2.30078125,-0.21484375,-0.33984375,0
1029,-2.2734375,-0.30859375,-0.3125,0
1030,-2.234375,-0.265625,-0.22265625,0
1031,-2.1953125,-0.10546875,-0.09765625,0
1032,-2.171875,-0.078125,-0.02734375,0
1033,-2.12890625,-0.1171875,-0.03125,0
1034,-2.0625,-0.21875,-0.04296875,0
1035,-1.9765625,-0.2890625,-0.0546875,0
1036,-1.7890625,-0.27734375,-0.03125,0
1037,-1.4765625,-0.078125,0.03125,0
1038,-1.12109375,-0.06640625,0.1171875,0
1039,-0.734375,-0.1875,0.14453125,0
1040,-0.3984375,-0.30078125,0.12109375,0
1041,-0.05859375,-0.43359375,0.02734375,0
1042,0.2109375,-0.51171875,-0.015625,0
1043,0.41015625,-0.4921875,-0.078125,0
1044,0.5546875,-0.4453125,-0.16796875,0
1045,0.6328125,-0.31640625,-0.28125,0
1046,0.65625,-0.19921875,-0.40234375,0
1047,0.5703125,-0.0546875,-0.50390625,0
1048,0.453125,0.09765625,-0.5546875,0
1049,0.28125,0.2421875,-0.4921875,0
1050,0.08984375,0.26171875,-0.40234375,0
1051,-0.07421875,0.30078125,-0.28515625,0
1052,-0.19140625,0.33984375,-0.19921875,0
1053,-0.27734375,0.44140625,-0.18359375,0
1054,-0.30859375,0.484375,-0.13671875,0
1055,-0.25390625,0.43359375,-0.09375,0
1056,-0.19921875,0.30078125,-0.04296875,0
1057,-0.10546875,0.1015625,-0.0078125,0
1058,-0.03125,-0.1328125,0.015625,0
1059,-0.01953125,-0.41015625,0.05859375,0
1060,-0.078125,-0.73828125,0.1171875,0
1061,-0.19140625,-0.97265625,0.19140625,0
1062,-0.29296875,-1.08203125,0.1796875,0
1063,-0.40234375,-0.98828125,0.19921875,0
1064,-0.5234375,-0.80859375,0.17578125,0
1065,-0.671875,-0.5234375,0.171875,0
1066,-0.89453125,-0.19140625,0.18359375,0
1067,-1.1640625,0.0078125,0.140625,0
1068,-1.48828125,0.1171875,0.05078125,0
1069,-1.8046875,0.109375,-0.11328125,0
1070,-2.14453125,0.109375,-0.48046875,0
1071,-2.24609375,0.140625,-0.76953125,0
1072,-2.30078125,0.140625,-0.86328125,0
1073,-2.296875,0.125,-0.6796875,0
1074,-2.33203125,0.1015625,-0.45703125,0
1075,-2.3671875,0.11328125,-0.28125,0
1076,-2.34375,-0.015625,-0.25390625,0
1077,-2.40625,0.015625,-0.24609375,0
1078,-2.40234375,0.01953125,-0.203125,0
1079,-2.37890625,0.10546875,-0.3359375,0
1080,-2.328125,0.171875,-0.5078125,0
1081,-2.2265625,0.1640625,-0.6015625,0
1082,-2.125,0.12109375,-0.546875,0
1083,-1.9765625,0.03125,-0.3984375,0
1084,-1.84765625,-0.0078125,-0.13671875,0
1085,-1.72265625,0.0390625,0.11328125,0
1086,-1.5703125,0.03125,0.23046875,0
1087,-1.33203125,-0.046875,0.21875,0
1088,-0.99609375,-0.16796875,0.09765625,0
1089,-0.625,-0.29296875,-0.0390625,0
1090,-0.3046875,-0.35546875,-0.16015625,0
1091,-0.0703125,-0.3984375,-0.23828125,0
1092,0.109375,-0.4296875,-0.296875,0
1093,0.19921875,-0.43359375,-0.34765625,0
1094,0.23046875,-0.41796875,-0.4375,0
1095,0.19921875,-0.40234375,-0.4765625,0
1096,0.15234375,-0.37890625,-0.4375,0
1097,0.109375,-0.36328125,-0.328125,0
1098,0.0625,-0.27734375,-0.1875,0
1099,0.03515625,-0.2265625,-0.13671875,0
1100,-0.0546875,-0.08203125,0.046875,0
1101,-0.11328125,0.06640625,0.16796875,0
1102,-0.1484375,0.12890625,0.140625,0
1103,-0.171875,0.19921875,0.05859375,0
1104,-0.21484375,0.21875,0.00390625,0
1105,-0.19921875,0.21875,-0.04296875,0
1106,-0.203125,0.18359375,-0.0390625,0
1107,-0.17578125,0.125,0.0,0
1108,-0.09765625,0.05859375,0.0625,0
1109,-0.00390625,0.02734375,0.11328125,0
1110,0.09375,0.0234375,0.15625,0
1111,0.22265625,-0.01171875,0.24609375,0
1112,0.29296875,-0.11328125,0.31640625,0
1113,0.33203125,-0.27734375,0.3125,0
1114,0.29296875,-0.5546875,0.19921875,0
1115,0.15234375,-0.78125,-0.00390625,0
1116,-0.05078125,-0.921875,-0.16796875,0
1117,-0.2734375,-1.0234375,-0.2421875,0
1118,-0.484375,-0.98046875,-0.22265625,0
1119,-0.62109375,-0.7734375,-0.16015625,0
1120,-0.68359375,-0.38671875,-0.10546875,0
1121,-0.77734375,0.04296875,-0.0625,0
1122,-0.9921875,0.4453125,0.00390625,0
1123,-1.30859375,0.76171875,0.046875,0
1124,-1.64453125,0.90234375,0.13671875,0
1125,-1.9921875,0.92578125,0.30078125,0
1126,-2.19140625,0.75390625,0.55859375,0
1127,-2.20703125,0.41796875,0.78515625,0
1128,-2.015625,0.1953125,0.88671875,0
1129,-1.82421875,0.09765625,0.6640625,0
1130,-1.80078125,0.35546875,0.16015625,0
1131,-1.88671875,0.46484375,-0.2578125,0
1132,-2.06640625,0.3984375,-0.52734375,0
1133,-2.3203125,0.37890625,-0.61328125,0
1134,-2.5390625,0.34765625,-0.65625,0
1135,-2.7265625,0.2734375,-0.671875,0
1136,-2.85546875,0.1953125,-0.6640625,0
1137,-2.98046875,0.15234375,-0.60546875,0
1138,-3.0625,0.21875,-0.55859375,0
1139,-3.11328125,0.31640625,-0.4453125,0
1140,-3.09375,0.40625,-0.2734375,0
1141,-3.0078125,0.40234375,-0.0546875,0
1142,-2.859375,0.31640625,0.17578125,0
1143,-2.640625,0.2578125,0.38671875,0
1144,-2.44140625,0.23828125,0.54296875,0
1145,-2.18359375,0.18359375,0.7421875,0
1146,-1.95703125,0.10546875,0.828125,0
1147,-1.69140625,-0.01171875,0.91015625,0
1148,-1.44140625,-0.1640625,0.9296875,0
1149,-1.19140625,-0.375,0.87890625,0
1150,-0.98828125,-0.48046875,0.78515625,0
1151,-0.8046875,-0.546875,0.6796875,0
1152,-0.6484375,-0.5859375,0.51171875,0
1153,-0.4921875,-0.671875,0.3125,0
1154,-0.40234375,-0.7578125,0.0703125,0
1155,-0.3359375,-0.71875,-0.12109375,0
1156,-0.21484375,-0.609375,-0.2890625,0
1157,-0.10546875,-0.38671875,-0.39453125,0
1158,0.03125,-0.125,-0.515625,0
1159,0.12109375,0.06640625,-0.609375,0
1160,0.15625,0.1640625,-0.58984375,0
1161,0.17578125,0.17578125,-0.49609375,0
1162,0.1875,0.1328125,-0.359375,0
1163,0.1328125,0.0,-0.19921875,0
1164,0.1171875,-0.109375,-0.09375,0
1165,0.12109375,-0.15234375,0.0078125,0
1166,0.1953125,-0.1171875,-0.03125,0
1167,0.29296875,-0.046875,-0.14453125,0
1168,0.35546875,-0.078125,-0.20703125,0
1169,0.32421875,-0.1875,-0.14453125,0
1170,0.234375,-0.47265625,-0.09765625,0
1171,-0.0234375,-0.80078125,-0.0546875,0
1172,-0.296875,-1.03125,-0.12890625,0
1173,-0.5625,-1.05078125,-0.171875,0
1174,-0.71875,-0.8828125,-0.17578125,0
1175,-0.78515625,-0.59375,-0.08203125,0
1176,-0.9140625,-0.13671875,0.04296875,0
1177,-1.1640625,0.40625,0.078125,0
1178,-1.4921875,0.6796875,0.0234375,0
1179,-1.87890625,0.51171875,-0.09375,0
1180,-2.1640625,0.52734375,-0.30078125,0
1181,-2.22265625,0.30859375,-0.5,0
1182,-2.1796875,0.19921875,-0.734375,0
1183,-2.0,0.01953125,-0.87109375,0
1184,-1.7734375,-0.0234375,-0.9296875,0
1185,-1.58984375,0.07421875,-0.703125,0
1186,-1.484375,0.171875,-0.4921875,0
1187,-1.55859375,0.16015625,-0.3671875,0
1188,-1.734375,0.0625,-0.34375,0
1189,-1.98828125,0.0859375,-0.3828125,0
1190,-2.15625,-0.0546875,-0.3828125,0
1191,-2.21484375,0.01171875,-0.5,0
1192,-2.21875,0.05078125,-0.52734375,0
1193,-2.12109375,0.00390625,-0.5546875,0
1194,-2.0,0.0,-0.50390625,0
1195,-1.88671875,0.04296875,-0.42578125,0
1196,-1.76953125,0.06640625,-0.3515625,0
1197,-1.625,0.0,-0.2265625,0
1198,-1.48046875,-0.015625,-0.05078125,0
1199,-1.27734375,-0.109375,0.07421875,0
1200,-1.00390625,-0.13671875,0.109375,0
1201,-0.734375,-0.19140625,0.13671875,0
1202,-0.4375,-0.2578125,0.08203125,0
1203,-0.1484375,-0.3515625,-0.015625,0
1204,0.03515625,-0.4453125,-0.10546875,0
1205,0.21875,-0.5234375,-0.16015625,0
1206,0.34375,-0.48046875,-0.20703125,0
1207,0.40625,-0.40234375,-0.21484375,0
1208,0.37109375,-0.34765625,-0.19140625,0
1209,0.30859375,-0.28515625,-0.1484375,0
1210,0.26953125,-0.1953125,-0.1171875,0
1211,0.1796875,-0.078125,-0.0390625,0
1212,0.05859375,0.0703125,0.078125,0
1213,-0.06640625,0.21875,0.1796875,0
1214,-0.140625,0.3359375,0.23828125,0
1215,-0.16015625,0.4296875,0.20703125,0
1216,-0.171875,0.515625,0.1875,0
1217,-0.15234375,0.6171875,0.0703125,0
1218,-0.09765625,0.68359375,0.0234375,0
1219,-0.03515625,0.66796875,0.04296875,0
1220,0.01953125,0.5390625,0.07421875,0
1221,-0.00390625,0.33984375,0.05859375,0
1222,-0.078125,0.0703125,-0.05078125,0
1223,-0.203125,-0.3125,-0.15234375,0
1224,-0.34765625,-0.6328125,-0.23828125,0
1225,-0.50390625,-0.87890625,-0.26171875,0
1226,-0.6171875,-1.09765625,-0.26953125,0
1227,-0.73828125,-1.203125,-0.171875,0
1228,-0.89453125,-1.109375,0.01171875,0
1229,-1.09765625,-0.62109375,0.23046875,0
1230,-1.28125,-0.06640625,0.2421875,0
1231,-1.625,0.08203125,0.12890625,0
1232,-2.08984375,0.0625,0.078125,0
1233,-2.55078125,0.00390625,0.171875,0
1234,-2.91015625,0.0859375,0.45703125,0
1235,-3.0078125,0.2109375,0.63671875,0
1236,-2.89453125,0.375,0.5390625,0
1237,-2.64453125,0.3515625,0.07421875,0
1238,-2.4765625,0.28515625,-0.09375,0
1239,-2.37109375,0.140625,-0.1328125,0
1240,-2.32421875,0.01171875,-0.17578125,0
1241,-2.375,0.0,-0.17578125,0
1242,-2.390625,-0.0546875,-0.140625,0
1243,-2.3671875,-0.0625,-0.08984375,0
1244,-2.30859375,-0.046875,-0.08984375,0
1245,-2.18359375,-0.05859375,-0.1484375,0
1246,-2.01171875,-0.13671875,-0.1796875,0
1247,-1.859375,-0.16015625,-0.21484375,0
1248,-1.72265625,-0.12890625,-0.22265625,0
1249,-1.578125,-0.1171875,-0.16015625,0
1250,-1.44921875,-0.15625,-0.10546875,0
1251,-1.30078125,-0.140625,-0.10546875,0
1252,-1.15234375,-0.12109375,-0.09765625,0
1253,-0.96484375,-0.140625,-0.06640625,0
1254,-0.7578125,-0.17578125,-0.0390625,0
1255,-0.5390625,-0.2734375,-0.0078125,0
1256,-0.3671875,-0.32421875,0.02734375,0
1257,-0.17578125,-0.328125,0.05859375,0
1258,-0.01953125,-0.2734375,0.08203125,0
1259,0.0390625,-0.17578125,0.0859375,0
1260,0.11328125,-0.125,0.08984375,0
1261,0.15625,-0.109375,0.11328125,0
1262,0.20703125,-0.0859375,0.13671875,0
1263,0.23046875,-0.0546875,0.12890625,0
1264,0.23828125,-0.04296875,0.109375,0
1265,0.21875,-0.046875,0.08203125,0
1266,0.203125,-0.01171875,0.07421875,0
1267,0.1640625,0.0078125,0.06640625,0
1268,0.09375,0.02734375,0.0546875,0
1269,0.02734375,0.0703125,0.04296875,0
1270,-0.0703125,0.0703125,0.00390625,0
1271,-0.1328125,0.1171875,-0.02734375,0
1272,-0.2109375,0.16015625,-0.078125,0
1273,-0.2578125,0.21484375,-0.1328125,0
1274,-0.3046875,0.26953125,-0.19921875,0
1275,-0.28515625,0.2734375,-0.25390625,0
1276,-0.25390625,0.20703125,-0.2890625,0
1277,-0.18359375,0.06640625,-0.3125,0
1278,-0.1015625,-0.15625,-0.296875,0
1279,-0.00390625,-0.3828125,-0.2734375,0
1280,0.03515625,-0.56640625,-0.2109375,0
1281,0.08203125,-0.6953125,-0.19140625,0
1282,0.07421875,-0.7578125,-0.171875,0
1283,0.01171875,-0.69921875,-0.1640625,0
1284,-0.09765625,-0.55078125,-0.21875,0
1285,-0.28515625,-0.3125,-0.2578125,0
1286,-0.5390625,-0.0546875,-0.328125,0
1287,-0.83984375,0.24609375,-0.3359375,0
1288,-1.203125,0.45703125,-0.265625,0
1289,-1.515625,0.53125,-0.16015625,0
1290,-1.75,0.515625,-0.10546875,0
1291,-1.94140625,0.234375,-0.09765625,0
1292,-2.0625,-0.13671875,-0.1328125,0
1293,-2.10546875,-0.3125,-0.19140625,0
1294,-2.05078125,-0.2265625,-0.2578125,0
1295,-1.88671875,-0.03515625,-0.26171875,0
1296,-1.66796875,0.140625,-0.2890625,0
1297,-1.54296875,0.15234375,-0.2265625,0
1298,-1.5234375,0.12890625,-0.00390625,0
1299,-1.66796875,0.0078125,0.17578125,0
1300,-1.921875,0.0390625,0.234375,0
1301,-2.28515625,0.0703125,0.18359375,0
1302,-2.5546875,0.16796875,0.03515625,0
1303,-2.765625,0.296875,-0.19921875,0
1304,-2.91015625,0.38671875,-0.3984375,0
1305,-2.9375,0.36328125,-0.53515625,0
1306,-2.85546875,0.2890625,-0.62109375,0
1307,-2.66796875,0.21875,-0.640625,0
1308,-2.44140625,0.21875,-0.62890625,0
1309,-2.20703125,0.19921875,-0.609375,0
1310,-1.94140625,0.171875,-0.62109375,0
1311,-1.6953125,0.13671875,-0.58984375,0
1312,-1.49609375,0.05078125,-0.55078125,0
1313,-1.33984375,0.0234375,-0.515625,0
1314,-1.203125,-0.03515625,-0.51953125,0
1315,-1.08203125,-0.05078125,-0.49609375,0
1316,-0.9765625,-0.06640625,-0.421875,0
1317,-0.87109375,-0.05859375,-0.33203125,0
1318,-0.74609375,-0.0390625,-0.25,0
1319,-0.63671875,-0.03125,-0.1875,0
1320,-0.51953125,-0.05078125,-0.15234375,0
1321,-0.38671875,-0.1015625,-0.06640625,0
1322,-0.32421875,-0.16796875,-0.0078125,0
1323,-0.2265625,-0.15625,-0.00390625,0
1324,-0.12109375,-0.16015625,0.01171875,0
1325,-0.0078125,-0.13671875,0.046875,0
1326,0.0546875,-0.19921875,0.16796875,0
1327,0.08203125,-0.265625,0.2265625,0
1328,0.11328125,-0.3046875,0.22265625,0
1329,0.0859375,-0.296875,0.2265625,0
1330,0.04296875,-0.28125,0.20703125,0
1331,0.03125,-0.26953125,0.16015625,0
1332,-0.0390625,-0.1875,0.14453125,0
1333,-0.09765625,-0.10546875,0.14453125,0
1334,-0.16015625,-0.0078125,0.16015625,0
1335,-0.19921875,0.12890625,0.15625,0
1336,-0.23046875,0.22265625,0.16015625,0
1337,-0.24609375,0.30859375,0.16796875,0
1338,-0.21875,0.3671875,0.1640625,0
1339,-0.1953125,0.375,0.13671875,0
1340,-0.1328125,0.3671875,0.09375,0
1341,-0.08984375,0.34765625,0.08984375,0
1342,-0.0703125,0.2890625,0.03125,0
1343,-0.02734375,0.15234375,-0.07421875,0
1344,0.0390625,-0.01953125,-0.0859375,0
1345,0.0703125,-0.20703125,-0.046875,0
1346,0.08984375,-0.34765625,-0.05859375,0
1347,0.0703125,-0.46484375,-0.140625,0
1348,0.0390625,-0.5078125,-0.2578125,0
1349,-0.02734375,-0.515625,-0.4140625,0
1350,-0.1328125,-0.4375,-0.52734375,0
1351,-0.265625,-0.328125,-0.609375,0
1352,-0.4453125,-0.1875,-0.671875,0
1353,-0.66796875,-0.08984375,-0.63671875,0
1354,-0.94140625,-0.08984375,-0.4921875,0
1355,-1.1875,-0.140625,-0.390625,0
1356,-1.44140625,-0.17578125,-0.2578125,0
1357,-1.6875,-0.1796875,-0.2109375,0
1358,-1.875,0.05078125,-0.22265625,0
1359,-2.00390625,0.3203125,-0.1328125,0
1360,-2.0078125,0.4765625,-0.08984375,0
1361,-1.94140625,0.4140625,-0.00390625,0
1362,-1.84375,0.1796875,0.06640625,0
1363,-1.7265625,-0.1328125,0.01953125,0
1364,-1.63671875,-0.36328125,-0.06640625,0
1365,-1.5703125,-0.375,-0.12109375,0
1366,-1.48828125,-0.25390625,-0.12890625,0
1367,-1.33203125,-0.1640625,-0.16015625,0
1368,-1.28125,-0.0703125,-0.19921875,0
1369,-1.26953125,-0.02734375,-0.23828125,0
1370,-1.3203125,0.01171875,-0.25,0
1371,-1.37109375,0.05859375,-0.3046875,0
1372,-1.44140625,0.05859375,-0.359375,0
1373,-1.49609375,0.09765625,-0.39453125,0
1374,-1.55859375,0.140625,-0.41796875,0
1375,-1.61328125,0.15625,-0.46875,0
1376,-1.671875,0.12890625,-0.484375,0
1377,-1.71875,0.04296875,-0.4921875,0
1378,-1.7578125,-0.02734375,-0.4609375,0
1379,-1.7734375,-0.0625,-0.40234375,0
1380,-1.76171875,-0.02734375,-0.3515625,0
1381,-1.72265625,0.01171875,-0.32421875,0
1382,-1.64453125,0.015625,-0.3046875,0
1383,-1.55078125,0.0078125,-0.2890625,0
1384,-1.48828125,0.00390625,-0.25390625,0
1385,-1.453125,-0.07421875,-0.19921875,0
1386,-1.3984375,-0.0703125,-0.1484375,0
1387,-1.3203125,-0.06640625,-0.109375,0
1388,-1.2578125,-0.05859375,-0.08203125,0
1389,-1.23046875,-0.0390625,-0.10546875,0
1390,-1.16796875,-0.03125,-0.0546875,0
1391,-1.08203125,-0.05078125,-0.0703125,0
1392,-1.03125,-0.06640625,-0.08984375,0
1393,-0.96875,-0.1015625,-0.16015625,0
1394,-0.91015625,-0.109375,-0.11328125,0
1395,-0.890625,-0.12890625,-0.203125,0
1396,-0.8671875,-0.12109375,-0.20703125,0
1397,-0.81640625,-0.1484375,-0.20703125,0
1398,-0.7890625,-0.13671875,-0.1875,0
1399,-0.76171875,-0.13671875,-0.15625,0
1400,-0.77734375,-0.171875,-0.1875,0
1401,-0.6875,-0.16015625,-0.2109375,0
1402,-0.703125,-0.14453125,-0.2265625,0
1403,-0.62109375,-0.1484375,-0.23828125,0
1404,-0.6171875,-0.1484375,-0.2421875,0
1405,-0.6171875,-0.1484375,-0.18359375,0
1406,-0.59375,-0.09375,-0.18359375,0
1407,-0.578125,-0.17578125,-0.171875,0
1408,-0.578125,-0.1484375,-0.18359375,0
1409,-0.515625,-0.17578125,-0.1484375,0
1410,-0.49609375,-0.171875,-0.15234375,0
1411,-0.4765625,-0.1796875,-0.140625,0
1412,-0.4609375,-0.1953125,-0.12109375,0
1413,-0.4609375,-0.203125,-0.109375,0
1414,-0.48046875,-0.18359375,-0.12109375,0
1415,-0.40625,-0.23046875,-0.05859375,0
1416,-0.47265625,-0.203125,-0.08984375,0
1417,-0.4296875,-0.22265625,-0.14453125,0
1418,-0.46484375,-0.33203125,-0.046875,0
1419,-0.4453125,-0.2890625,-0.0234375,0
1420,-0.4921875,-0.28515625,0.0234375,0
1421,-0.52734375,-0.24609375,-0.04296875,0
1422,-0.51171875,-0.20703125,-0.0625,0
1423,-0.5859375,-0.26953125,-0.02734375,0
1424,-0.58984375,-0.2109375,-0.04296875,0
1425,-0.62109375,-0.17578125,-0.0625,0
1426,-0.66015625,-0.15625,-0.10546875,0
1427,-0.6953125,-0.12890625,-0.14453125,0
1428,-0.7421875,-0.0859375,-0.171875,0
1429,-0.7890625,-0.1484375,-0.21484375,0
1430,-0.78125,-0.03125,-0.27734375,0
1431,-0.8671875,-0.01953125,-0.3125,0
1432,-0.84765625,0.0078125,-0.32421875,0
1433,-0.875,-0.01953125,-0.296875,0
1434,-0.86328125,-0.0390625,-0.2890625,0
1435,-0.9140625,-0.0546875,-0.28125,0
1436,-0.9296875,-0.05859375,-0.29296875,0
1437,-0.953125,-0.09765625,-0.2734375,0
1438,-0.9921875,-0.16015625,-0.25390625,0
1439,-1.08203125,-0.2421875,-0.24609375,0
1440,-1.15234375,-0.26171875,-0.15234375,0
1441,-1.25390625,-0.29296875,-0.03125,0
1442,-1.37890625,-0.328125,0.12109375,0
1443,-1.5,-0.3359375,0.29296875,0
1444,-1.60546875,-0.28125,0.36328125,0
1445,-1.6484375,-0.2421875,0.42578125,0
1446,-1.66796875,-0.27734375,0.4609375,0
1447,-1.6640625,-0.19921875,0.515625,0
1448,-1.61328125,-0.109375,0.5,0
1449,-1.578125,-0.04296875,0.53515625,0
1450,-1.55078125,0.06640625,0.61328125,0
1451,-1.48046875,0.0859375,0.62890625,0
1452,-1.40234375,0.0703125,0.52734375,0
1453,-1.2578125,0.05078125,0.44140625,0
1454,-1.234375,-0.03125,0.37109375,0
1455,-1.12890625,-0.0078125,0.25,0
1456,-1.01953125,-0.0078125,0.21484375,0
1457,-0.94140625,-0.015625,0.2109375,0
1458,-0.8671875,-0.0703125,0.24609375,0
1459,-0.84375,-0.08984375,0.2421875,0
1460,-0.79296875,-0.01953125,0.12890625,0
1461,-0.75,0.0234375,0.0078125,0
1462,-0.7421875,0.0390625,-0.15234375,0
1463,-0.703125,0.0703125,-0.17578125,0
1464,-0.6640625,0.15625,-0.2890625,0
1465,-0.59765625,0.11328125,-0.33203125,0
1466,-0.5546875,0.125,-0.390625,0
1467,-0.55859375,0.12890625,-0.453125,0
1468,-0.56640625,0.078125,-0.5,0
1469,-0.625,0.05859375,-0.5625,0
1470,-0.71875,0.05859375,-0.62109375,0
1471,-0.8671875,0.0703125,-0.7109375,0
1472,-0.9921875,0.07421875,-0.8203125,0
1473,-1.08984375,0.0390625,-0.796875,0
1474,-1.12109375,-0.01171875,-0.76953125,0
1475,-1.1640625,-0.0703125,-0.6953125,0
1476,-1.109375,-0.17578125,-0.62109375,0
1477,-1.05859375,-0.2734375,-0.55078125,0
1478,-0.97265625,-0.3359375,-0.52734375,0
1479,-0.9140625,-0.34765625,-0.5,0
1480,-0.77734375,-0.375,-0.46484375,0
1481,-0.77734375,-0.328125,-0.45703125,0
1482,-0.76171875,-0.3203125,-0.4375,0
1483,-0.7890625,-0.296875,-0.40625,0
1484,-0.83984375,-0.2578125,-0.3984375,0
1485,-0.92578125,-0.19140625,-0.3828125,0
1486,-0.9453125,-0.19140625,-0.3828125,0
1487,-0.96875,-0.18359375,-0.33984375,0
1488,-0.99609375,-0.1796875,-0.296875,0
1489,-1.01953125,-0.17578125,-0.26171875,0
1490,-1.015625,-0.21484375,-0.2109375,0
1491,-1.04296875,-0.171875,-0.2265625,0
1492,-1.0546875,-0.171875,-0.21875,0
1493,-1.078125,-0.16015625,-0.19921875,0
1494,-1.08203125,-0.12890625,-0.19140625,0
1495,-1.06640625,-0.13671875,-0.1796875,0
1496,-1.0625,-0.11328125,-0.1328125,0
1497,-1.05078125,-0.08203125,-0.09375,0
1498,-1.015625,-0.0703125,-0.05078125,0
1499,-0.99609375,-0.0703125,-0.00390625,0
1500,-0.9921875,-0.07421875,0.00390625,0
1501,-0.984375,-0.0625,0.00390625,0
1502,-0.984375,-0.0546875,0.03125,0
1503,-0.984375,-0.01171875,0.04296875,0
1504,-1.01171875,0.05078125,0.05859375,0
1505,-0.98828125,0.0859375,0.06640625,0
1506,-1.0,0.11328125,0.0625,0
1507,-0.99609375,0.14453125,0.05859375,0
1508,-1.015625,0.171875,0.05859375,0
1509,-1.03125,0.1875,0.02734375,0
1510,-1.03125,0.2109375,0.0,0
1511,-1.0390625,0.23828125,-0.015625,0
1512,-1.0390625,0.2421875,-0.06640625,0
1513,-1.02734375,0.24609375,-0.11328125,0
1514,-1.0,0.25390625,-0.15625,0
1515,-0.99609375,0.24609375,-0.1796875,0
1516,-0.97265625,0.2421875,-0.2109375,0
1517,-0.95703125,0.21875,-0.21875,0
1518,-0.94921875,0.19140625,-0.23046875,0
1519,-0.921875,0.1953125,-0.23046875,0
1520,-0.921875,0.1796875,-0.234375,0
1521,-0.89453125,0.18359375,-0.2421875,0
1522,-0.90625,0.17578125,-0.2421875,0
1523,-0.90625,0.171875,-0.23046875,0
1524,-0.921875,0.17578125,-0.22265625,0
1525,-0.94921875,0.15625,-0.19921875,0
1526,-0.953125,0.14453125,-0.19140625,0
1527,-0.9609375,0.140625,-0.19921875,0
1528,-0.95703125,0.14453125,-0.16796875,0
1529,-0.953125,0.1171875,-0.17578125,0
1530,-0.95703125,0.12890625,-0.16796875,0
1531,-0.95703125,0.12890625,-0.16015625,0
1532,-0.953125,0.140625,-0.14453125,0
1533,-0.96875,0.1484375,-0.12109375,0
1534,-0.96484375,0.1640625,-0.11328125,0
1535,-0.97265625,0.18359375,-0.10546875,0
1536,-0.98046875,0.1796875,-0.10546875,0
1537,-0.99609375,0.1953125,-0.1328125,0
1538,-0.984375,0.1875,-0.16796875,0
1539,-1.015625,0.15625,-0.1953125,0
1540,-1.015625,0.125,-0.23046875,0
1541,-1.02734375,0.11328125,-0.28515625,0
1542,-1.05859375,0.078125,-0.3125,0
1543,-1.078125,0.046875,-0.328125,0
1544,-1.09375,0.05078125,-0.328125,0
1545,-1.12109375,0.04296875,-0.3125,0
1546,-1.11328125,0.0703125,-0.30078125,0
1547,-1.08203125,0.11328125,-0.30078125,0
1548,-1.078125,0.13671875,-0.32421875,0
1549,-1.05078125,0.16796875,-0.32421875,0
1550,-1.03125,0.1796875,-0.32421875,0
1551,-1.0234375,0.1875,-0.29296875,0
1552,-1.0390625,0.171875,-0.26171875,0
1553,-1.03515625,0.1796875,-0.26171875,0
1554,-1.0546875,0.1796875,-0.23046875,0
1555,-1.0625,0.18359375,-0.20703125,0
1556,-1.046875,0.18359375,-0.1796875,0
1557,-1.03515625,0.16015625,-0.16796875,0
1558,-1.01953125,0.14453125,-0.17578125,0
1559,-0.9921875,0.12890625,-0.17578125,0
1560,-0.9765625,0.125,-0.1640625,0
1561,-0.96484375,0.08203125,-0.1953125,0
1562,-0.9375,0.04296875,-0.21484375,0
1563,-0.9375,0.01953125,-0.2265625,0
1564,-0.92578125,-0.00390625,-0.23828125,0
1565,-0.90234375,-0.02734375,-0.23828125,0
1566,-0.875,-0.03515625,-0.23828125,0
1567,-0.87109375,-0.046875,-0.234375,0
1568,-0.890625,-0.07421875,-0.23828125,0
1569,-0.859375,-0.10546875,-0.2421875,0
1570,-0.875,-0.08984375,-0.234375,0
1571,-0.89453125,-0.109375,-0.20703125,0
1572,-0.88671875,-0.09375,-0.21875,0
1573,-0.8984375,-0.0859375,-0.21484375,0
1574,-0.92578125,-0.09375,-0.18359375,0
1575,-0.90234375,-0.0703125,-0.1484375,0
1576,-0.953125,-0.07421875,-0.12109375,0
1577,-0.98046875,-0.07421875,-0.09765625,0
1578,-0.98828125,-0.04296875,-0.0859375,0
1579,-1.015625,0.0078125,-0.03125,0
1580,-1.02734375,0.015625,0.0,0
1581,-1.05078125,0.03515625,0.02734375,0
1582,-1.0625,0.05859375,0.05859375,0
1583,-1.06640625,0.05078125,0.04296875,0
1584,-1.1015625,0.0703125,0.06640625,0
1585,-1.09765625,0.05859375,0.078125,0
1586,-1.1171875,0.04296875,0.08984375,0
1587,-1.11328125,0.015625,0.08203125,0
1588,-1.1328125,-0.00390625,0.1171875,0
1589,-1.16796875,0.01171875,0.109375,0
1590,-1.1796875,0.01171875,0.08203125,0
1591,-1.1953125,0.0078125,0.08203125,0
1592,-1.203125,0.01953125,0.0859375,0
1593,-1.19140625,0.03515625,0.08203125,0
1594,-1.18359375,0.015625,0.046875,0
1595,-1.171875,0.00390625,0.015625,0
1596,-1.11328125,0.00390625,0.0,0
1597,-1.125,0.015625,-0.0078125,0
1598,-1.09375,0.02734375,-0.00390625,0
1599,-1.07421875,0.02734375,0.0,0
1600,-1.0625,0.04296875,0.0,0
1601,-1.0546875,0.0625,-0.00390625,0
1602,-1.05078125,0.0859375,0.0,0
1603,-1.04296875,0.09375,-0.00390625,0
1604,-1.046875,0.09375,-0.01953125,0
1605,-1.03125,0.1171875,-0.0546875,0
1606,-1.01953125,0.12109375,-0.08203125,0
1607,-0.99609375,0.1171875,-0.1171875,0
1608,-0.99609375,0.125,-0.12890625,0
1609,-0.98828125,0.125,-0.1484375,0
1610,-0.953125,0.14453125,-0.171875,0
1611,-0.921875,0.171875,-0.21875,0
1612,-0.89453125,0.18359375,-0.20703125,0
1613,-0.8828125,0.203125,-0.1875,0
1614,-0.87109375,0.203125,-0.1875,0
1615,-0.85546875,0.171875,-0.16015625,0
1616,-0.8203125,0.171875,-0.1640625,0
1617,-0.82421875,0.125,-0.1328125,0
1618,-0.80078125,0.125,-0.11328125,0
1619,-0.81640625,0.109375,-0.09375,0
1620,-0.83203125,0.109375,-0.0546875,0
1621,-0.8203125,0.1015625,-0.03125,0
1622,-0.83203125,0.1015625,0.0078125,0
1623,-0.83203125,0.09375,0.01171875,0
1624,-0.83984375,0.078125,0.03515625,0
1625,-0.8671875,0.08984375,0.07421875,0
1626,-0.89453125,0.08984375,0.09765625,0
1627,-0.9140625,0.07421875,0.0859375,0
1628,-0.93359375,0.0625,0.10546875,0
1629,-0.9609375,0.05859375,0.11328125,0
1630,-1.0,0.05859375,0.140625,0
1631,-1.01953125,0.0625,0.1640625,0
1632,-1.0625,0.08984375,0.23828125,0
1633,-1.1015625,0.109375,0.26953125,0
1634,-1.125,0.1015625,0.26171875,0
1635,-1.140625,0.0625,0.25,0
1636,-1.15625,0.02734375,0.25,0
1637,-1.1796875,-0.0078125,0.2265625,0
1638,-1.18359375,-0.0078125,0.21484375,0
1639,-1.16796875,0.02734375,0.203125,0
1640,-1.14453125,0.0859375,0.17578125,0
1641,-1.08984375,0.13671875,0.1328125,0
1642,-1.0234375,0.17578125,0.08984375,0
1643,-0.94921875,0.18359375,0.05078125,0
1644,-0.890625,0.171875,0.0234375,0
1645,-0.83984375,0.1640625,-0.00390625,0
1646,-0.796875,0.16015625,-0.07421875,0
1647,-0.79296875,0.15625,-0.140625,0
1648,-0.7890625,0.13671875,-0.1953125,0
1649,-0.80078125,0.09375,-0.2109375,0
1650,-0.81640625,0.0703125,-0.23828125,0
1651,-0.83984375,0.04296875,-0.234375,0
1652,-0.87109375,0.03515625,-0.21875,0
1653,-0.90625,0.01171875,-0.23046875,0
1654,-0.9296875,-0.0078125,-0.21875,0
1655,-0.98828125,-0.00390625,-0.23828125,0
1656,-1.015625,0.0,-0.25390625,0
1657,-1.0703125,0.00390625,-0.25390625,0
1658,-1.109375,0.015625,-0.25,0
1659,-1.14453125,0.0390625,-0.23828125,0
1660,-1.14453125,0.05078125,-0.2265625,0
1661,-1.14453125,0.00390625,-0.16796875,0
1662,-1.1328125,0.0,-0.15234375,0
1663,-1.12109375,-0.03125,-0.140625,0
1664,-1.08984375,-0.05859375,-0.10546875,0
1665,-1.03515625,-0.08203125,-0.078125,0
1666,-1.00390625,-0.10546875,-0.03515625,0
1667,-0.984375,-0.10546875,0.0,0
1668,-0.97265625,-0.0859375,0.015625,0
1669,-0.96875,-0.07421875,0.02734375,0
1670,-0.96875,-0.0703125,0.04296875,0
1671,-0.9765625,-0.05078125,0.03515625,0
1672,-1.00390625,-0.046875,0.04296875,0
1673,-1.015625,-0.01953125,0.01171875,0
1674,-1.0390625,-0.02734375,-0.01171875,0
1675,-1.0390625,-0.03125,-0.03125,0
1676,-1.03515625,-0.03125,-0.0546875,0
1677,-1.02734375,-0.02734375,-0.07421875,0
1678,-1.01171875,-0.0234375,-0.0703125,0
1679,-1.0078125,-0.01953125,-0.07421875,0
1680,-1.0,0.02734375,-0.06640625,0
1681,-1.0,0.0390625,-0.0625,0
1682,-0.99609375,0.05078125,-0.07421875,0
1683,-0.9921875,0.05859375,-0.0625,0
1684,-0.98046875,0.0625,-0.06640625,0
1685,-0.9921875,0.0546875,-0.05078125,0
1686,-0.96875,0.08203125,-0.06640625,0
1687,-0.96875,0.109375,-0.09765625,0
1688,-0.9453125,0.09765625,-0.12109375,0
1689,-0.9375,0.09765625,-0.140625,0
1690,-0.9296875,0.08203125,-0.14453125,0
1691,-0.921875,0.08984375,-0.14453125,0
1692,-0.93359375,0.09765625,-0.13671875,0
1693,-0.95703125,0.08203125,-0.12890625,0
1694,-0.96875,0.09765625,-0.140625,0
1695,-0.98046875,0.09375,-0.12890625,0
1696,-0.9921875,0.08984375,-0.1328125,0
1697,-0.99609375,0.08203125,-0.12890625,0
1698,-0.98828125,0.07421875,-0.14453125,0
1699,-0.9765625,0.08203125,-0.125,0
1700,-0.98046875,0.05859375,-0.125,0
1701,-0.96875,0.046875,-0.125,0
1702,-0.9609375,0.06640625,-0.125,0
1703,-0.95703125,0.0546875,-0.125,0
1704,-0.96484375,0.03515625,-0.10546875,0
1705,-0.9765625,0.0625,-0.09765625,0
1706,-0.98046875,0.05859375,-0.109375,0
1707,-1.0,0.07421875,-0.12109375,0
1708,-1.0078125,0.06640625,-0.1328125,0
1709,-1.01953125,0.0546875,-0.1171875,0
1710,-1.0390625,0.0390625,-0.12109375,0
1711,-1.015625,0.0234375,-0.125,0
1712,-1.0234375,0.01953125,-0.1015625,0
1713,-1.015625,0.0234375,-0.109375,0
1714,-1.0078125,0.0,-0.1015625,0
1715,-0.99609375,-0.00390625,-0.1171875,0
1716,-0.99609375,-0.0078125,-0.1015625,0
1717,-0.9921875,0.0078125,-0.1015625,0
1718,-1.0,-0.00390625,-0.08984375,0
1719,-1.015625,0.015625,-0.07421875,0
1720,-1.0078125,0.0078125,-0.08203125,0
1721,-1.01171875,0.02734375,-0.0703125,0
1722,-1.01953125,0.03125,-0.078125,0
1723,-1.015625,0.046875,-0.078125,0
1724,-1.01953125,0.0546875,-0.08203125,0
1725,-1.01953125,0.05859375,-0.078125,0
1726,-1.02734375,0.07421875,-0.0859375,0
1727,-1.0,0.05859375,-0.07421875,0
1728,-0.98046875,0.04296875,-0.08203125,0
1729,-0.9765625,0.0625,-0.08984375,0
1730,-0.96484375,0.0546875,-0.08203125,0
1731,-0.96875,0.0625,-0.09765625,0
1732,-0.97265625,0.05078125,-0.0859375,0
1733,-0.96875,0.07421875,-0.08984375,0
1734,-0.96484375,0.0859375,-0.11328125,0
1735,-0.9609375,0.078125,-0.10546875,0
1736,-0.96484375,0.0859375,-0.109375,0
1737,-0.98828125,0.0859375,-0.078125,0
1738,-0.9921875,0.08984375,-0.08203125,0
1739,-1.0078125,0.10546875,-0.0625,0
1740,-1.015625,0.09375,-0.0625,0
1741,-1.01171875,0.109375,-0.0625,0
1742,-1.01953125,0.09765625,-0.0703125,0
1743,-1.0234375,0.109375,-0.0703125,0
1744,-1.015625,0.109375,-0.0703125,0
1745,-1.00390625,0.09765625,-0.078125,0
1746,-1.00390625,0.08203125,-0.07421875,0
1747,-1.0,0.078125,-0.1015625,0
1748,-0.99609375,0.0625,-0.09765625,0
1749,-0.98828125,0.07421875,-0.09375,0
1750,-0.97265625,0.0546875,-0.09375,0
1751,-0.984375,0.06640625,-0.078125,0
1752,-0.97265625,0.06640625,-0.08984375,0
1753,-0.9765625,0.0859375,-0.08203125,0
1754,-0.9765625,0.1015625,-0.08984375,0
1755,-0.97265625,0.09375,-0.0859375,0
1756,-0.98046875,0.109375,-0.0859375,0
1757,-0.97265625,0.09765625,-0.0859375,0
1758,-0.9921875,0.08203125,-0.0859375,0
1759,-1.0078125,0.09375,-0.0859375,0
1760,-1.0078125,0.06640625,-0.08984375,0
1761,-1.0078125,0.0625,-0.0859375,0
1762,-1.0234375,0.03515625,-0.078125,0
1763,-1.015625,0.04296875,-0.078125,0
1764,-1.015625,0.046875,-0.0859375,0
1765,-1.015625,0.046875,-0.07421875,0
1766,-1.02734375,0.0546875,-0.05859375,0
1767,-1.015625,0.04296875,-0.0625,0
1768,-1.0234375,0.0390625,-0.078125,0
1769,-1.01953125,0.0390625,-0.06640625,0
1770,-1.01953125,0.0390625,-0.05859375,0
1771,-1.00390625,0.03515625,-0.0625,0
1772,-1.015625,0.04296875,-0.05859375,0
1773,-0.99609375,0.04296875,-0.078125,0
1774,-1.0,0.06640625,-0.08203125,0
1775,-1.00390625,0.07421875,-0.0625,0
1776,-1.01171875,0.0859375,-0.0703125,0
1777,-1.0078125,0.0859375,-0.07421875,0
1778,-1.00390625,0.0703125,-0.078125,0
1779,-1.015625,0.07421875,-0.07421875,0
1780,-1.01171875,0.0703125,-0.08203125,0
1781,-1.0234375,0.05859375,-0.0703125,0
1782,-1.0078125,0.0546875,-0.06640625,0
1783,-1.00390625,0.0625,-0.078125,0
1784,-1.0,0.0625,-0.078125,0
1785,-0.98828125,0.078125,-0.0859375,0
1786,-0.97265625,0.08203125,-0.0859375,0
1787,-0.9921875,0.07421875,-0.08203125,0
1788,-0.96875,0.05859375,-0.08203125,0
1789,-0.97265625,0.07421875,-0.06640625,0
1790,-0.98046875,0.06640625,-0.09375,0
1791,-0.97265625,0.0703125,-0.07421875,0
1792,-0.96875,0.078125,-0.07421875,0
1793,-0.98046875,0.078125,-0.0625,0
1794,-0.96875,0.09765625,-0.078125,0
1795,-0.9765625,0.08984375,-0.0703125,0
1796,-0.984375,0.0859375,-0.0625,0
1797,-0.984375,0.0859375,-0.078125,0
1798,-0.99609375,0.10546875,-0.07421875,0
1799,-0.98828125,0.109375,-0.07421875,0
1800,-0.98828125,0.1015625,-0.0546875,0
1801,-0.9921875,0.09765625,-0.06640625,0
1802,-0.98828125,0.08984375,-0.07421875,0
1803,-0.984375,0.09765625,-0.08203125,0
1804,-0.97265625,0.078125,-0.078125,0
1805,-0.9765625,0.0625,-0.06640625,0
1806,-0.9921875,0.06640625,-0.06640625,0
1807,-1.00390625,0.0625,-0.06640625,0
1808,-0.984375,0.0703125,-0.07421875,0
1809,-1.0,0.05859375,-0.078125,0
1810,-1.0,0.0703125,-0.0859375,0
1811,-0.99609375,0.08984375,-0.08203125,0
1812,-0.98828125,0.078125,-0.0859375,0
1813,-0.984375,0.0859375,-0.07421875,0
1814,-0.97265625,0.08203125,-0.08203125,0
1815,-0.98046875,0.06640625,-0.0546875,0
1816,-0.97265625,0.05859375,-0.078125,0
1817,-0.98828125,0.0625,-0.078125,0
1818,-0.984375,0.06640625,-0.07421875,0
1819,-0.9921875,0.0625,-0.08203125,0
1820,-0.98828125,0.05078125,-0.06640625,0
1821,-1.0,0.046875,-0.0625,0
1822,-0.99609375,0.06640625,-0.06640625,0
1823,-1.00390625,0.05859375,-0.0703125,0
1824,-0.984375,0.0625,-0.08203125,0
1825,-1.0,0.0625,-0.0625,0
1826,-0.98828125,0.05859375,-0.0546875,0
1827,-0.984375,0.0546875,-0.05859375,0
1828,-0.984375,0.0546875,-0.0625,0
1829,-0.99609375,0.0546875,-0.05078125,0
1830,-1.00390625,0.0703125,-0.046875,0
1831,-1.0,0.0703125,-0.0390625,0
1832,-1.0078125,0.0703125,-0.05078125,0
1833,-1.04296875,0.09375,-0.05078125,0
1834,-1.0234375,0.08203125,-0.05078125,0
1835,-1.015625,0.07421875,-0.046875,0
1836,-1.0078125,0.08203125,-0.04296875,0
1837,-1.0078125,0.07421875,-0.05078125,0
1838,-1.00390625,0.0703125,-0.0625,0
1839,-0.984375,0.05859375,-0.0703125,0
1840,-0.98828125,0.05078125,-0.0546875,0
1841,-0.98046875,0.04296875,-0.05078125,0
1842,-0.984375,0.03125,-0.03515625,0
1843,-0.9921875,0.0390625,-0.046875,0
1844,-0.98828125,0.03125,-0.0390625,0
1845,-1.00390625,0.05078125,-0.0390625,0
1846,-0.98828125,0.0546875,-0.0546875,0
1847,-1.00390625,0.046875,-0.04296875,0
1848,-0.9921875,0.0546875,-0.0390625,0
1849,-0.98046875,0.046875,-0.02734375,0
1850,-0.9921875,0.0625,-0.03515625,0
1851,-0.9921875,0.0625,-0.0546875,0
1852,-1.00390625,0.07421875,-0.046875,0
1853,-1.01171875,0.0546875,-0.04296875,0
1854,-1.0,0.0859375,-0.05078125,0
1855,-0.9921875,0.1015625,-0.046875,0
1856,-0.984375,0.0859375,-0.0546875,0
1857,-1.00390625,0.09765625,-0.05078125,0
1858,-0.98046875,0.08203125,-0.0390625,0
1859,-0.99609375,0.09375,-0.05859375,0
1860,-0.98828125,0.09765625,-0.05078125,0
1861,-1.0,0.0859375,-0.0546875,0
1862,-0.984375,0.09765625,-0.05859375,0
1863,-0.984375,0.0859375,-0.0546875,0
1864,-1.0,0.06640625,-0.04296875,0
1865,-0.9921875,0.078125,-0.04296875,0
1866,-0.99609375,0.06640625,-0.046875,0
1867,-1.0,0.0703125,-0.0546875,0
1868,-1.00390625,0.0625,-0.05859375,0
1869,-1.00390625,0.046875,-0.05859375,0
1870,-1.00390625,0.0703125,-0.0546875,0
1871,-0.984375,0.0546875,-0.06640625,0
1872,-0.9921875,0.078125,-0.0546875,0
1873,-0.98046875,0.07421875,-0.0703125,0
1874,-0.98046875,0.0546875,-0.0703125,0
1875,-0.96484375,0.05078125,-0.05859375,0
1876,-0.97265625,0.05078125,-0.06640625,0
1877,-0.96875,0.046875,-0.05859375,0
1878,-0.9765625,0.046875,-0.0546875,0
1879,-0.97265625,0.04296875,-0.046875,0
1880,-0.98046875,0.0546875,-0.046875,0
1881,-0.984375,0.0390625,-0.04296875,0
1882,-0.99609375,0.04296875,-0.046875,0
1883,-1.0,0.0390625,-0.05078125,0
1884,-1.0078125,0.04296875,-0.046875,0
1885,-1.0078125,0.0546875,-0.0546875,0
1886,-1.02734375,0.046875,-0.05078125,0
1887,-1.0078125,0.0546875,-0.05859375,0
1888,-1.0234375,0.04296875,-0.06640625,0
1889,-1.0234375,0.05859375,-0.05859375,0
1890,-1.0078125,0.0390625,-0.07421875,0
1891,-1.01171875,0.05859375,-0.078125,0
1892,-0.984375,0.02734375,-0.0859375,0
1893,-0.99609375,0.04296875,-0.078125,0
1894,-0.984375,0.0390625,-0.07421875,0
1895,-0.984375,0.05859375,-0.0703125,0
1896,-0.9921875,0.05078125,-0.078125,0
1897,-0.98046875,0.046875,-0.09375,0
1898,-0.9921875,0.04296875,-0.0703125,0
1899,-1.03515625,0.046875,-0.07421875,0
1900,-0.98046875,0.0390625,-0.0703125,0
1901,-0.984375,0.08203125,-0.0625,0
1902,-0.99609375,0.05859375,-0.06640625,0
1903,-0.984375,0.078125,-0.078125,0
1904,-0.99609375,0.0703125,-0.06640625,0
1905,-0.98828125,0.06640625,-0.07421875,0
1906,-0.99609375,0.05078125,-0.07421875,0
1907,-0.98828125,0.0546875,-0.06640625,0
1908,-1.00390625,0.05859375,-0.0625,0
1909,-1.01171875,0.06640625,-0.0703125,0
1910,-1.01171875,0.0625,-0.06640625,0
1911,-1.0,0.0703125,-0.0859375,0
1912,-0.99609375,0.08203125,-0.08203125,0
1913,-0.984375,0.0703125,-0.09375,0
1914,-0.96875,0.06640625,-0.1015625,0
1915,-0.97265625,0.0546875,-0.08984375,0
1916,-0.97265625,0.0390625,-0.08203125,0
1917,-0.9765625,0.03125,-0.078125,0
1918,-0.96875,0.015625,-0.07421875,0
1919,-0.9765625,0.0390625,-0.0703125,0
1920,-0.99609375,0.03125,-0.046875,0
1921,-0.98828125,0.04296875,-0.0625,0
1922,-0.99609375,0.0390625,-0.046875,0
1923,-0.9921875,0.03515625,-0.03515625,0
1924,-0.9921875,0.04296875,-0.03515625,0
1925,-0.984375,0.0546875,-0.04296875,0
1926,-1.0,0.05859375,-0.03515625,0
1927,-1.0,0.05078125,-0.0390625,0
1928,-1.0078125,0.06640625,-0.046875,0
1929,-1.01953125,0.05078125,-0.04296875,0
1930,-1.02734375,0.05078125,-0.046875,0
1931,-1.0234375,0.0546875,-0.046875,0
1932,-1.03125,0.05078125,-0.0390625,0
1933,-1.01953125,0.07421875,-0.04296875,0
1934,-1.02734375,0.06640625,-0.03515625,0
1935,-1.0234375,0.06640625,-0.05859375,0
1936,-1.0078125,0.05859375,-0.0546875,0
1937,-1.03125,0.05078125,-0.0546875,0
1938,-1.01953125,0.05859375,-0.0546875,0
1939,-1.00390625,0.05078125,-0.0625,0
1940,-1.00390625,0.03515625,-0.05859375,0
1941,-0.984375,0.04296875,-0.05859375,0
1942,-0.9921875,0.0234375,-0.0703125,0
1943,-0.984375,0.02734375,-0.046875,0
1944,-0.98046875,0.0234375,-0.0546875,0
1945,-0.98046875,0.0390625,-0.05859375,0
1946,-0.9921875,0.03515625,-0.05859375,0
1947,-0.9765625,0.03125,-0.06640625,0
1948,-0.9921875,0.05859375,-0.0546875,0
1949,-1.0078125,0.05078125,-0.0546875,0
1950,-1.015625,0.03515625,-0.0546875,0
1951,-1.015625,0.0546875,-0.05859375,0
1952,-1.0234375,0.03515625,-0.05859375,0
1953,-1.02734375,0.03515625,-0.0703125,0
1954,-1.01953125,0.04296875,-0.05859375,0
1955,-1.015625,0.05078125,-0.046875,0
1956,-1.03125,0.05859375,-0.03515625,0
1957,-1.01171875,0.0625,-0.05078125,0
1958,-1.015625,0.06640625,-0.046875,0
1959,-1.01171875,0.046875,-0.04296875,0
1960,-1.01171875,0.04296875,-0.05859375,0
1961,-1.00390625,0.01953125,-0.05078125,0
1962,-0.9921875,0.0234375,-0.05078125,0
1963,-1.00390625,0.015625,-0.05078125,0
1964,-1.0078125,0.05078125,-0.05078125,0
1965,-1.00390625,0.015625,-0.05078125,0
1966,-0.99609375,0.03125,-0.05859375,0
1967,-0.99609375,0.03515625,-0.04296875,0
1968,-0.984375,0.01953125,-0.05078125,0
1969,-0.98046875,0.05078125,-0.03515625,0
1970,-0.984375,0.03515625,-0.06640625,0
1971,-0.97265625,0.02734375,-0.05078125,0
1972,-0.97265625,0.0390625,-0.0546875,0
1973,-0.96875,0.0234375,-0.046875,0
1974,-0.98046875,0.0234375,-0.046875,0
1975,-0.9765625,0.0234375,-0.0390625,0
1976,-0.97265625,0.03125,-0.04296875,0
1977,-0.97265625,0.0390625,-0.0390625,0
1978,-0.9765625,0.05859375,-0.03125,0
1979,-0.98046875,0.0703125,-0.046875,0
1980,-0.98828125,0.09375,-0.0390625,0
1981,-0.98828125,0.0859375,-0.05859375,0
1982,-0.984375,0.08984375,-0.0546875,0
1983,-1.0,0.078125,-0.0625,0
1984,-1.0,0.09375,-0.05859375,0
1985,-0.99609375,0.0546875,-0.0625,0
1986,-1.015625,0.05078125,-0.0625,0
1987,-1.0078125,0.05859375,-0.0625,0
1988,-1.00390625,0.0625,-0.0546875,0
1989,-0.99609375,0.0546875,-0.06640625,0
1990,-0.98046875,0.0546875,-0.078125,0
1991,-0.98828125,0.0390625,-0.0703125,0
1992,-0.984375,0.0546875,-0.07421875,0
1993,-0.96875,0.03515625,-0.06640625,0
1994,-0.9765625,0.03125,-0.0625,0
1995,-0.9765625,0.00390625,-0.0546875,0
1996,-0.9765625,0.0078125,-0.0703125,0
1997,-0.984375,-0.02734375,-0.0546875,0
1998,-0.9765625,-0.0078125,-0.0546875,0
1999,-0.984375,0.00390625,-0.04296875,0
2000,-0.97265625,-0.00390625,-0.04296875,0
2001,-0.96875,-0.01171875,-0.04296875,0
2002,-0.9765625,-0.01171875,-0.03515625,0
2003,-0.97265625,-0.01953125,-0.046875,0
2004,-0.9609375,-0.0078125,-0.0390625,0
2005,-0.9765625,-0.00390625,-0.046875,0
2006,-0.97265625,-0.00390625,-0.04296875,0
2007,-0.97265625,0.01171875,-0.046875,0
2008,-0.98046875,0.01171875,-0.0234375,0
2009,-0.98046875,0.0,-0.046875,0
2010,-0.98828125,0.015625,-0.05859375,0
2011,-1.0078125,0.03515625,-0.0703125,0
2012,-1.01171875,0.03125,-0.06640625,0
2013,-1.01171875,0.0234375,-0.0703125,0
2014,-1.04296875,0.015625,-0.0546875,0
2015,-1.046875,0.01953125,-0.05859375,0
2016,-1.078125,0.0234375,-0.0625,0
2017,-1.08203125,0.04296875,-0.0546875,0
2018,-1.09375,0.02734375,-0.03515625,0
2019,-1.0859375,0.01953125,-0.046875,0
2020,-1.07421875,0.0078125,-0.02734375,0
2021,-1.03515625,0.015625,-0.0546875,0
2022,-1.0390625,0.0234375,-0.046875,0
2023,-1.04296875,0.05078125,-0.05078125,0
2024,-1.046875,0.07421875,-0.05078125,0
2025,-1.046875,0.078125,-0.07421875,0
2026,-1.046875,0.078125,-0.09375,0
2027,-1.04296875,0.04296875,-0.109375,0
2028,-1.04296875,0.05859375,-0.1171875,0
2029,-1.04296875,0.06640625,-0.16015625,0
2030,-1.05078125,0.0234375,-0.15234375,0
2031,-1.0546875,0.03515625,-0.16015625,0
2032,-1.0546875,0.0234375,-0.13671875,0
2033,-1.046875,0.015625,-0.12109375,0
2034,-1.03125,0.02734375,-0.12109375,0
2035,-1.01953125,0.0234375,-0.109375,0
2036,-1.0078125,0.02734375,-0.09765625,0
2037,-0.99609375,0.015625,-0.078125,0
2038,-0.9765625,0.00390625,-0.06640625,0
2039,-0.984375,0.015625,-0.0703125,0
2040,-0.98046875,0.0234375,-0.0703125,0
2041,-0.99609375,0.03125,-0.05859375,0
2042,-1.0,0.00390625,-0.05859375,0
2043,-0.9765625,0.03515625,-0.04296875,0
2044,-0.96875,0.0390625,-0.046875,0
2045,-0.96484375,0.04296875,-0.04296875,0
2046,-0.94140625,0.0390625,-0.0390625,0
2047,-0.93359375,0.0390625,-0.046875,0
2048,-0.93359375,0.01171875,-0.04296875,0
2049,-0.921875,-0.00390625,-0.015625,0
2050,-0.9140625,-0.0078125,-0.0234375,0
2051,-0.9296875,-0.0390625,-0.00390625,0
2052,-0.91796875,-0.06640625,-0.0078125,0
2053,-0.90625,-0.07421875,0.0,0
2054,-0.87109375,-0.09765625,0.00390625,0
2055,-0.86328125,-0.12890625,0.01171875,0
2056,-0.84765625,-0.15234375,0.0234375,0
2057,-0.83203125,-0.15625,0.01953125,0
2058,-0.8125,-0.15234375,0.015625,0
2059,-0.8046875,-0.13671875,0.01953125,0
2060,-0.8125,-0.12890625,0.01953125,0
2061,-0.8046875,-0.08984375,0.015625,0
2062,-0.8203125,-0.05859375,0.0390625,0
2063,-0.82421875,0.0,0.04296875,0
2064,-0.83203125,0.0234375,0.0234375,0
2065,-0.86328125,0.05859375,0.01953125,0
2066,-0.90234375,0.09375,0.02734375,0
2067,-0.953125,0.1484375,0.0390625,0
2068,-0.98046875,0.171875,0.05078125,0
2069,-1.0390625,0.1953125,0.02734375,0
2070,-1.0859375,0.203125,0.02734375,0
2071,-1.12890625,0.203125,0.01953125,0
2072,-1.15625,0.1953125,0.015625,0
2073,-1.17578125,0.171875,0.00390625,0
2074,-1.1953125,0.16015625,-0.00390625,0
2075,-1.19140625,0.15234375,-0.0234375,0
2076,-1.171875,0.15625,-0.03125,0
2077,-1.15625,0.16796875,-0.01171875,0
2078,-1.1484375,0.1640625,-0.0078125,0
2079,-1.12109375,0.19140625,-0.01171875,0
2080,-1.125,0.20703125,-0.0078125,0
2081,-1.12109375,0.21484375,-0.0234375,0
2082,-1.125,0.20703125,-0.015625,0
2083,-1.12109375,0.19921875,-0.0078125,0
2084,-1.1171875,0.15234375,0.015625,0
2085,-1.10546875,0.15625,0.04296875,0
2086,-1.08203125,0.15234375,0.03515625,0
2087,-1.03515625,0.125,0.0078125,0
2088,-1.015625,0.1328125,0.00390625,0
2089,-0.98046875,0.109375,0.00390625,0
2090,-0.96484375,0.09765625,0.0078125,0
2091,-0.9375,0.078125,-0.01171875,0
2092,-0.91015625,0.0859375,-0.03515625,0
2093,-0.890625,0.078125,-0.05078125,0
2094,-0.87890625,0.0703125,-0.05859375,0
2095,-0.8828125,0.07421875,-0.0546875,0
2096,-0.88671875,0.0625,-0.07421875,0
2097,-0.88671875,0.09375,-0.078125,0
2098,-0.87890625,0.07421875,-0.1015625,0
2099,-0.8828125,0.078125,-0.0859375,0
2100,-0.875,0.08203125,-0.078125,0
2101,-0.8828125,0.07421875,-0.06640625,0
2102,-0.87890625,0.0859375,-0.0703125,0
2103,-0.875,0.08203125,-0.05078125,0
2104,-0.86328125,0.09765625,-0.03515625,0
2105,-0.84765625,0.09375,-0.03515625,0
2106,-0.87890625,0.078125,-0.00390625,0
2107,-0.8828125,0.10546875,-0.0078125,0
2108,-0.87890625,0.109375,0.015625,0
2109,-0.90625,0.1171875,0.04296875,0
2110,-0.8984375,0.13671875,0.05078125,0
2111,-0.88671875,0.140625,0.05859375,0
2112,-0.89453125,0.12109375,0.0703125,0
2113,-0.87890625,0.14453125,0.04296875,0
2114,-0.859375,0.16015625,0.0390625,0
2115,-0.83203125,0.14453125,0.02734375,0
2116,-0.8125,0.15625,0.05078125,0
2117,-0.77734375,0.14453125,0.0390625,0
2118,-0.734375,0.13671875,0.05078125,0
2119,-0.71484375,0.11328125,0.046875,0
2120,-0.66796875,0.07421875,0.0546875,0
2121,-0.63671875,0.0625,0.0625,0
2122,-0.6015625,0.03125,0.04296875,0
2123,-0.59375,0.015625,0.04296875,0
2124,-0.56640625,0.015625,0.03515625,0
2125,-0.5625,0.0,0.02734375,0
2126,-0.5703125,0.0078125,0.05078125,0
2127,-0.5625,0.0546875,0.0390625,0
2128,-0.5625,0.10546875,0.046875,0
2129,-0.55078125,0.16796875,0.03125,0
2130,-0.578125,0.2109375,0.0078125,0
2131,-0.58984375,0.28125,-0.015625,0
2132,-0.625,0.359375,-0.0078125,0
2133,-0.65234375,0.45703125,0.015625,0
2134,-0.6796875,0.5234375,0.05859375,0
2135,-0.69140625,0.5390625,0.06640625,0
2136,-0.71484375,0.51171875,0.0546875,0
2137,-0.734375,0.4609375,0.0703125,0
2138,-0.73046875,0.4296875,0.046875,0
2139,-0.75390625,0.40234375,0.0390625,0
2140,-0.79296875,0.37109375,0.01953125,0
2141,-0.83984375,0.3359375,-0.00390625,0
2142,-0.87890625,0.3203125,-0.02734375,0
2143,-0.92578125,0.296875,-0.046875,0
2144,-0.98046875,0.3203125,-0.0546875,0
2145,-1.03125,0.30859375,-0.06640625,0
2146,-1.08984375,0.26953125,-0.0703125,0
2147,-1.15234375,0.2421875,-0.078125,0
2148,-1.22265625,0.21875,-0.05859375,0
2149,-1.27734375,0.21875,-0.03515625,0
2150,-1.31640625,0.23046875,-0.03515625,0
2151,-1.30078125,0.26953125,-0.0390625,0
2152,-1.2734375,0.3046875,-0.0546875,0
2153,-1.2265625,0.34375,-0.05078125,0
2154,-1.17578125,0.3359375,-0.0390625,0
2155,-1.1484375,0.31640625,-0.0078125,0
2156,-1.15625,0.26953125,-0.0078125,0
2157,-1.1875,0.2421875,-0.01171875,0
2158,-1.19140625,0.16796875,0.01953125,0
2159,-1.18359375,0.1015625,0.02734375,0
2160,-1.171875,0.0234375,0.06640625,0
2161,-1.13671875,0.0078125,0.078125,0
2162,-1.08984375,-0.00390625,0.0859375,0
2163,-1.0234375,-0.00390625,0.09765625,0
2164,-0.9765625,-0.06640625,0.0859375,0
2165,-0.921875,-0.12890625,0.09375,0
2166,-0.875,-0.19921875,0.11328125,0
2167,-0.80859375,-0.234375,0.11328125,0
2168,-0.73046875,-0.30078125,0.125,0
2169,-0.63671875,-0.3515625,0.14453125,0
2170,-0.5390625,-0.4140625,0.15625,0
2171,-0.453125,-0.44140625,0.171875,0
2172,-0.3671875,-0.48828125,0.1953125,0
2173,-0.2890625,-0.4921875,0.109375,0
2174,-0.26953125,-0.421875,-0.0234375,0
2175,-0.25,-0.37109375,-0.140625,0
2176,-0.2890625,-0.26953125,-0.19140625,0
2177,-0.39453125,-0.15625,-0.23046875,0
2178,-0.52734375,-0.04296875,-0.26953125,0
2179,-0.640625,0.02734375,-0.3125,0
2180,-0.7265625,0.02734375,-0.29296875,0
2181,-0.859375,-0.01953125,-0.2265625,0
2182,-1.09375,0.01953125,-0.10546875,0
2183,-1.34375,0.04296875,0.03515625,0
2184,-1.50390625,-0.03125,0.15234375,0
2185,-1.5703125,-0.27734375,0.09375,0
2186,-1.66015625,-0.73046875,-0.203125,0
2187,-1.875,-0.84375,-0.5703125,0
2188,-2.01171875,-0.296875,-0.77734375,0
2189,-1.9375,0.21875,-0.70703125,0
2190,-1.78515625,0.40234375,-0.5,0
2191,-1.6328125,0.4140625,-0.28515625,0
2192,-1.6171875,0.3359375,-0.17578125,0
2193,-1.6171875,0.32421875,-0.25390625,0
2194,-1.5859375,0.2890625,-0.29296875,0
2195,-1.5625,0.2578125,-0.2734375,0
2196,-1.5234375,0.28515625,-0.19140625,0
2197,-1.50390625,0.33984375,-0.0390625,0
2198,-1.5078125,0.37890625,0.05078125,0
2199,-1.515625,0.41796875,0.015625,0
2200,-1.55859375,0.37890625,-0.1328125,0
2201,-1.57421875,0.26171875,-0.23046875,0
2202,-1.62109375,0.14453125,-0.2421875,0
2203,-1.58203125,0.00390625,-0.1640625,0
2204,-1.58984375,-0.1015625,-0.08984375,0
2205,-1.57421875,-0.125,-0.03125,0
2206,-1.5078125,-0.06640625,0.0625,0
2207,-1.4609375,-0.00390625,0.109375,0
2208,-1.3984375,0.06640625,0.10546875,0
2209,-1.33984375,0.08984375,0.05078125,0
2210,-1.30078125,0.078125,-0.0078125,0
2211,-1.2265625,0.01953125,-0.12890625,0
2212,-1.171875,-0.02734375,-0.23046875,0
2213,-1.09765625,-0.0703125,-0.3203125,0
2214,-1.0390625,-0.1171875,-0.38671875,0
2215,-0.96484375,-0.17578125,-0.4140625,0
2216,-0.875,-0.25,-0.4296875,0
2217,-0.79296875,-0.31640625,-0.4375,0
2218,-0.6953125,-0.328125,-0.41796875,0
2219,-0.60546875,-0.30859375,-0.39453125,0
2220,-0.54296875,-0.26171875,-0.33203125,0
2221,-0.484375,-0.17578125,-0.265625,0
2222,-0.46875,-0.07421875,-0.1953125,0
2223,-0.46875,0.04296875,-0.1015625,0
2224,-0.4453125,0.17578125,0.04296875,0
2225,-0.40625,0.30859375,0.171875,0
2226,-0.36328125,0.44140625,0.26953125,0
2227,-0.2890625,0.48828125,0.375,0
2228,-0.22265625,0.53125,0.41015625,0
2229,-0.1640625,0.5703125,0.42578125,0
2230,-0.06640625,0.53515625,0.33203125,0
2231,0.05078125,0.43359375,0.25,0
2232,0.12109375,0.37890625,0.20703125,0
2233,0.1875,0.31640625,0.1796875,0
2234,0.23828125,0.25,0.16015625,0
2235,0.2421875,0.1796875,0.1953125,0
2236,0.234375,0.1015625,0.12890625,0
2237,0.234375,-0.00390625,0.06640625,0
2238,0.23828125,-0.11328125,0.01953125,0
2239,0.22265625,-0.1796875,0.02734375,0
2240,0.203125,-0.1953125,0.015625,0
2241,0.14453125,-0.12890625,0.0,0
2242,0.09765625,-0.12109375,-0.02734375,0
2243,0.05078125,-0.13671875,-0.0390625,0
2244,0.0,-0.19921875,-0.07421875,0
2245,-0.09765625,-0.3203125,-0.16796875,0
2246,-0.16796875,-0.28515625,-0.23046875,0
2247,-0.26953125,-0.34765625,-0.2890625,0
2248,-0.37109375,-0.35546875,-0.35546875,0
2249,-0.4375,-0.390625,-0.2421875,0
2250,-0.53515625,-0.3828125,-0.14453125,0
2251,-0.62890625,-0.24609375,-0.2421875,0
2252,-0.765625,-0.05078125,-0.46484375,0
2253,-0.9453125,0.21875,-0.7109375,0
2254,-1.14453125,0.55078125,-0.78515625,0
2255,-1.3203125,0.8203125,-0.703125,0
2256,-1.5234375,0.91015625,-0.390625,0
2257,-1.734375,0.52734375,-0.125,0
2258,-1.92578125,-0.265625,-0.08203125,0
2259,-2.05078125,-1.125,-0.07421875,0
2260,-2.22265625,-1.41015625,-0.0859375,0
2261,-2.36328125,-0.55859375,0.25390625,0
2262,-2.30078125,0.6328125,1.05078125,0
2263,-2.16015625,1.3515625,1.17578125,0
2264,-2.30078125,1.44921875,0.6328125,0
2265,-2.55078125,1.26953125,0.390625,0
2266,-2.69140625,0.9375,0.3671875,0
2267,-2.60546875,0.5078125,0.33984375,0
2268,-2.453125,0.19921875,0.33203125,0
2269,-2.2421875,0.06640625,0.30859375,0
2270,-2.0078125,0.05859375,0.296875,0
2271,-1.79296875,0.0703125,0.28125,0
2272,-1.60546875,0.03125,0.26953125,0
2273,-1.4375,-0.0625,0.28125,0
2274,-1.2421875,-0.17578125,0.30078125,0
2275,-1.1015625,-0.20703125,0.28515625,0
2276,-0.89453125,-0.16796875,0.140625,0
2277,-0.76171875,-0.21875,0.02734375,0
2278,-0.6875,-0.26953125,-0.09375,0
2279,-0.703125,-0.07421875,-0.2734375,0
2280,-0.79296875,0.0234375,-0.3828125,0
2281,-0.8515625,-0.03125,-0.44140625,0
2282,-0.875,-0.11328125,-0.43359375,0
2283,-0.8515625,-0.1875,-0.40234375,0
2284,-0.8046875,-0.2734375,-0.28515625,0
2285,-0.703125,-0.34765625,-0.1484375,0
2286,-0.52734375,-0.4140625,-0.13671875,0
2287,-0.40234375,-0.38671875,-0.23828125,0
2288,-0.25,-0.2578125,-0.375,0
2289,-0.12109375,-0.05078125,-0.44140625,0
2290,-0.05859375,0.13671875,-0.4296875,0
2291,-0.0546875,0.2109375,-0.34765625,0
2292,-0.1015625,0.171875,-0.2421875,0
2293,-0.23046875,0.0625,-0.0859375,0
2294,-0.375,-0.06640625,0.11328125,0
2295,-0.55859375,-0.1484375,0.390625,0
2296,-0.8359375,-0.2890625,0.671875,0
2297,-1.109375,-0.30078125,0.8828125,0
2298,-1.26953125,-0.4453125,0.76953125,0
2299,-1.68359375,-1.4375,0.4453125,0
2300,-2.33203125,-1.8359375,0.06640625,0
2301,-2.73828125,-0.75390625,-0.09375,0
2302,-3.0625,0.49609375,0.0703125,0
2303,-3.16015625,0.8515625,0.1171875,0
2304,-3.0703125,0.78125,-0.08984375,0
2305,-2.76171875,0.4453125,-0.48046875,0
2306,-2.44140625,0.29296875,-0.87109375,0
2307,-1.98046875,0.16796875,-1.2578125,0
2308,-1.44921875,0.0703125,-1.5234375,0
2309,-0.95703125,0.140625,-1.5,0
2310,-0.4140625,0.22265625,-1.0234375,0
2311,-0.203125,0.1328125,-0.57421875,0
2312,-0.12890625,-0.05859375,-0.28125,0
2313,-0.23046875,-0.2578125,-0.20703125,0
2314,-0.421875,-0.359375,-0.296875,0
2315,-0.57421875,-0.41796875,-0.359375,0
2316,-0.6875,-0.3984375,-0.3515625,0
2317,-0.81640625,-0.3984375,-0.2734375,0
2318,-0.9609375,-0.32421875,-0.171875,0
2319,-1.0859375,-0.2109375,-0.09765625,0
2320,-1.2109375,-0.03125,-0.00390625,0
2321,-1.26171875,0.140625,0.0625,0
2322,-1.234375,0.26171875,0.22265625,0
2323,-1.18359375,0.34765625,0.34375,0
2324,-1.0703125,0.3828125,0.46875,0
2325,-0.87109375,0.3671875,0.5,0
2326,-0.58984375,0.296875,0.48046875,0
2327,-0.34765625,0.29296875,0.40625,0
2328,-0.11328125,0.24609375,0.31640625,0
2329,0.1328125,0.171875,0.25390625,0
2330,0.30859375,0.13671875,0.1796875,0
2331,0.4453125,0.171875,0.078125,0
2332,0.49609375,0.171875,-0.00390625,0
2333,0.515625,0.171875,-0.05859375,0
2334,0.54296875,0.1484375,-0.12890625,0
2335,0.515625,0.140625,-0.1640625,0
2336,0.42578125,0.07421875,-0.08984375,0
2337,0.296875,0.0390625,-0.02734375,0
2338,0.171875,-0.00390625,0.03125,0
2339,0.00390625,-0.00390625,0.05859375,0
2340,-0.12890625,-0.00390625,0.0,0
2341,-0.296875,-0.078125,-0.203125,0
2342,-0.37109375,0.00390625,-0.37890625,0
2343,-0.45703125,-0.15234375,-0.484375,0
2344,-0.51953125,-0.3125,-0.484375,0
2345,-0.57421875,-0.515625,-0.26171875,0
2346,-0.61328125,-0.46875,-0.05078125,0
2347,-0.69921875,-0.2421875,-0.0703125,0
2348,-0.81640625,0.05859375,-0.23046875,0
2349,-0.94921875,0.359375,-0.46875,0
2350,-1.11328125,0.4140625,-0.70703125,0
2351,-1.35546875,0.24609375,-0.75,0
2352,-1.6015625,-0.05859375,-0.66015625,0
2353,-1.73046875,-0.73046875,-0.56640625,0
2354,-1.88671875,-1.53515625,-0.53125,0
2355,-2.16015625,-1.77734375,-0.41015625,0
2356,-2.3203125,-0.73828125,0.2890625,0
2357,-2.29296875,0.87109375,1.25390625,0
2358,-2.1484375,1.58203125,1.27734375,0
2359,-2.13671875,1.56640625,0.76953125,0
2360,-2.25390625,1.1640625,0.46484375,0
2361,-2.33984375,0.6640625,0.40625,0
2362,-2.34375,0.234375,0.421875,0
2363,-2.25390625,0.09375,0.37109375,0
2364,-2.12109375,0.234375,0.2109375,0
2365,-1.9609375,0.40625,0.03515625,0
2366,-1.859375,0.4765625,-0.00390625,0
2367,-1.80859375,0.40625,0.046875,0
2368,-1.7734375,0.25,0.12109375,0
2369,-1.6953125,0.09375,0.13671875,0
2370,-1.578125,-0.04296875,0.1328125,0
2371,-1.43359375,-0.1640625,0.11328125,0
2372,-1.28515625,-0.23828125,0.06640625,0
2373,-1.15625,-0.24609375,-0.03515625,0
2374,-1.0703125,-0.20703125,-0.2421875,0
2375,-1.0234375,-0.1640625,-0.37890625,0
2376,-0.97265625,-0.16796875,-0.4765625,0
2377,-0.86328125,-0.1875,-0.48046875,0
2378,-0.7265625,-0.171875,-0.44140625,0
2379,-0.53125,-0.1953125,-0.3359375,0
2380,-0.4453125,-0.19921875,-0.2265625,0
2381,-0.390625,-0.19921875,-0.14453125,0
2382,-0.33203125,-0.26953125,-0.11328125,0
2383,-0.24609375,-0.359375,-0.20703125,0
2384,-0.20703125,-0.33203125,-0.375,0
2385,-0.203125,-0.39453125,-0.390625,0
2386,-0.23046875,-0.390625,-0.27734375,0
2387,-0.37109375,-0.1953125,-0.20703125,0
2388,-0.49609375,-0.07421875,-0.07421875,0
2389,-0.62890625,-0.0859375,0.1484375,0
2390,-0.90234375,-0.00390625,0.30078125,0
2391,-1.25390625,-0.03125,0.41015625,0
2392,-1.51171875,-0.11328125,0.375,0
2393,-1.71875,-0.44921875,0.22265625,0
2394,-1.953125,-0.92578125,0.02734375,0
2395,-2.265625,-0.6953125,-0.18359375,0
2396,-2.359375,-0.08984375,-0.2734375,0
2397,-2.359375,0.37109375,-0.0859375,0
2398,-2.265625,0.55859375,0.08984375,0
2399,-2.125,0.4296875,-0.1328125,0
2400,-1.88671875,0.16015625,-0.45703125,0
2401,-1.609375,-0.11328125,-0.66015625,0
2402,-1.37109375,-0.26953125,-0.765625,0
2403,-1.17578125,-0.21875,-0.83203125,0
2404,-0.96875,-0.0859375,-0.81640625,0
2405,-0.76953125,0.0,-0.75,0
2406,-0.6875,0.01953125,-0.70703125,0
2407,-0.69921875,-0.04296875,-0.6875,0
2408,-0.7421875,-0.1875,-0.6796875,0
2409,-0.8125,-0.33984375,-0.640625,0
2410,-0.890625,-0.44140625,-0.5625,0
2411,-0.9453125,-0.44140625,-0.43359375,0
2412,-0.9609375,-0.30078125,-0.28515625,0
2413,-0.94921875,-0.0390625,-0.07421875,0
2414,-0.95703125,0.20703125,0.08203125,0
2415,-0.9140625,0.40234375,0.21875,0
2416,-0.8359375,0.5234375,0.34375,0
2417,-0.73046875,0.60546875,0.46875,0
2418,-0.59765625,0.64453125,0.5546875,0
2419,-0.44921875,0.66015625,0.640625,0
2420,-0.26953125,0.5703125,0.671875,0
2421,-0.07421875,0.4921875,0.64453125,0
2422,0.0859375,0.41015625,0.54296875,0
2423,0.21484375,0.24609375,0.42578125,0
2424,0.3046875,0.0703125,0.30859375,0
2425,0.38671875,-0.0546875,0.171875,0
2426,0.43359375,-0.1484375,0.03515625,0
2427,0.43359375,-0.171875,-0.04296875,0
2428,0.37109375,-0.1953125,-0.078125,0
2429,0.29296875,-0.16015625,-0.1015625,0
2430,0.1796875,-0.07421875,-0.0859375,0
2431,0.03515625,-0.08203125,-0.16015625,0
2432,-0.14453125,-0.1796875,-0.30859375,0
2433,-0.25390625,-0.0546875,-0.3203125,0
2434,-0.3515625,-0.26171875,-0.33984375,0
2435,-0.4296875,-0.3671875,-0.3671875,0
2436,-0.44921875,-0.51953125,-0.265625,0
2437,-0.53125,-0.59375,-0.10546875,0
2438,-0.61328125,-0.54296875,-0.15234375,0
2439,-0.73046875,-0.30078125,-0.34375,0
2440,-0.91015625,0.0078125,-0.54296875,0
2441,-1.15625,0.234375,-0.6171875,0
2442,-1.46875,0.52734375,-0.55078125,0
2443,-1.72265625,0.62109375,-0.55078125,0
2444,-1.90234375,0.4375,-0.49609375,0
2445,-2.0,-0.0703125,-0.4375,0
2446,-2.109375,-0.62890625,-0.24609375,0
2447,-2.29296875,-0.83984375,-0.08984375,0
2448,-2.44921875,-0.15234375,0.32421875,0
2449,-2.33203125,0.6875,0.7734375,0
2450,-2.1796875,1.24609375,0.88671875,0
2451,-2.1171875,1.296875,0.6015625,0
2452,-2.1640625,1.0234375,0.4453125,0
2453,-2.19921875,0.58984375,0.43359375,0
2454,-2.23828125,0.171875,0.4609375,0
2455,-2.23046875,-0.0390625,0.39453125,0
2456,-2.171875,-0.05078125,0.25390625,0
2457,-2.09765625,0.01953125,0.1484375,0
2458,-1.99609375,0.0703125,0.11328125,0
2459,-1.83984375,0.0546875,0.09375,0
2460,-1.63671875,-0.0390625,0.078125,0
2461,-1.44140625,-0.05078125,0.04296875,0
2462,-1.26171875,-0.0234375,0.0078125,0
2463,-1.09375,-0.0546875,-0.0390625,0
2464,-0.890625,-0.0703125,-0.14453125,0
2465,-0.72265625,-0.1328125,-0.2421875,0
2466,-0.65234375,-0.19140625,-0.3203125,0
2467,-0.66015625,-0.19921875,-0.328125,0
2468,-0.6953125,-0.1953125,-0.3125,0
2469,-0.71875,-0.1328125,-0.27734375,0
2470,-0.69140625,-0.078125,-0.2890625,0
2471,-0.58984375,-0.0234375,-0.30078125,0
2472,-0.46484375,-0.03515625,-0.28515625,0
2473,-0.328125,-0.0234375,-0.2578125,0
2474,-0.22265625,-0.1484375,-0.3125,0
2475,-0.21484375,-0.21484375,-0.4609375,0
2476,-0.265625,-0.28125,-0.5078125,0
2477,-0.40625,-0.28125,-0.390625,0
2478,-0.5703125,-0.21875,-0.16015625,0
2479,-0.75,-0.0546875,0.03125,0
2480,-0.95703125,0.09375,0.15625,0
2481,-1.12890625,0.19140625,0.19140625,0
2482,-1.34765625,0.2265625,0.25390625,0
2483,-1.48828125,0.11328125,0.3203125,0
2484,-1.58984375,-0.08203125,0.37890625,0
2485,-1.671875,-0.3046875,0.3984375,0
2486,-1.76171875,-0.59375,0.390625,0
2487,-1.91796875,-0.87109375,0.39453125,0
2488,-2.08984375,-0.890625,0.27734375,0
2489,-2.25,-0.54296875,0.02734375,0
2490,-2.3203125,0.0,-0.40625,0
2491,-2.30859375,0.390625,-0.703125,0
2492,-2.24609375,0.48828125,-0.78515625,0
2493,-2.17578125,0.25390625,-0.84765625,0
2494,-2.08203125,0.06640625,-0.83984375,0
2495,-1.92578125,-0.09375,-0.89453125,0
2496,-1.66015625,-0.19921875,-1.0,0
2497,-1.37109375,-0.26953125,-1.05078125,0
2498,-1.0859375,-0.2109375,-0.984375,0
2499,-0.88671875,-0.1640625,-0.76171875,0
2500,-0.765625,-0.16015625,-0.4921875,0
2501,-0.703125,-0.22265625,-0.265625,0
2502,-0.6328125,-0.24609375,-0.09375,0
2503,-0.59375,-0.21875,0.0703125,0
2504,-0.53125,-0.16796875,0.20703125,0
2505,-0.52734375,-0.08984375,0.37890625,0
2506,-0.48828125,0.1640625,0.44921875,0
2507,-0.4296875,0.2421875,0.515625,0
2508,-0.34765625,0.3515625,0.625,0
2509,-0.234375,0.42578125,0.66015625,0
2510,-0.15234375,0.53125,0.69921875,0
2511,-0.05078125,0.63671875,0.6953125,0
2512,0.078125,0.62890625,0.6953125,0
2513,0.2109375,0.59375,0.62890625,0
2514,0.30078125,0.5390625,0.40234375,0
2515,0.359375,0.40625,0.20703125,0
2516,0.359375,0.15625,0.05859375,0
2517,0.3359375,-0.078125,0.03515625,0
2518,0.296875,-0.234375,0.03515625,0
2519,0.22265625,-0.28515625,0.07421875,0
2520,0.09765625,-0.24609375,0.00390625,0
2521,0.00390625,-0.20703125,-0.078125,0
2522,-0.109375,-0.1875,-0.125,0
2523,-0.23046875,-0.12109375,-0.1640625,0
2524,-0.390625,-0.08984375,-0.19140625,0
2525,-0.48046875,-0.14453125,-0.24609375,0
2526,-0.5,-0.12109375,-0.32421875,0
2527,-0.4296875,-0.07421875,-0.39453125,0
2528,-0.3359375,-0.1484375,-0.46875,0
2529,-0.25390625,-0.10546875,-0.5625,0
2530,-0.1953125,-0.13671875,-0.57421875,0
2531,-0.171875,-0.078125,-0.51953125,0
2532,-0.203125,0.07421875,-0.33984375,0
2533,-0.296875,0.12109375,-0.171875,0
2534,-0.4453125,0.23046875,0.0078125,0
2535,-0.64453125,0.31640625,0.11328125,0
2536,-0.8203125,0.24609375,0.00390625,0
2537,-0.9921875,0.171875,-0.1171875,0
2538,-1.1640625,0.1953125,-0.1015625,0
2539,-1.23828125,0.203125,-0.00390625,0
2540,-1.28125,0.296875,0.07421875,0
2541,-1.26953125,0.453125,0.04296875,0
2542,-1.296875,0.5390625,-0.0625,0
2543,-1.3671875,0.41015625,-0.22265625,0
2544,-1.5078125,0.16015625,-0.30859375,0
2545,-1.74609375,-0.13671875,-0.28125,0
2546,-1.94140625,-0.296875,-0.1015625,0
2547,-2.1015625,-0.26953125,-0.05859375,0
2548,-2.16015625,-0.04296875,-0.03515625,0
2549,-2.12890625,0.2890625,0.046875,0
2550,-1.9765625,0.46484375,0.21875,0
2551,-1.8828125,0.421875,0.40234375,0
2552,-1.7734375,0.30078125,0.515625,0
2553,-1.62890625,0.11328125,0.62890625,0
2554,-1.4765625,-0.08203125,0.65234375,0
2555,-1.34375,-0.15625,0.66015625,0
2556,-1.3125,-0.1796875,0.66015625,0
2557,-1.3203125,-0.15234375,0.62109375,0
2558,-1.3125,-0.1796875,0.57421875,0
2559,-1.3125,-0.15625,0.6484375,0
2560,-1.3046875,-0.32421875,0.73828125,0
2561,-1.125,-0.3203125,0.70703125,0
2562,-0.93359375,-0.421875,0.49609375,0
2563,-0.84375,-0.4140625,0.078125,0
2564,-0.796875,-0.3671875,-0.21875,0
2565,-0.68359375,-0.18359375,-0.3203125,0
2566,-0.640625,-0.109375,-0.12109375,0
2567,-0.69140625,-0.015625,-0.0625,0
2568,-0.76171875,0.21875,-0.15625,0
2569,-0.9296875,0.3671875,-0.25390625,0
2570,-1.1640625,0.45703125,-0.203125,0
2571,-1.41015625,0.4453125,-0.03515625,0
2572,-1.625,0.18359375,-0.01171875,0
2573,-1.87890625,-0.58203125,-0.16015625,0
2574,-2.21875,-1.10546875,-0.44921875,0
2575,-2.58984375,-0.6796875,-0.87109375,0
2576,-2.7890625,0.41015625,-1.3671875,0
2577,-2.78125,1.20703125,-1.38671875,0
2578,-2.72265625,1.28515625,-0.86328125,0
2579,-2.71875,0.7890625,-0.5,0
2580,-2.64453125,0.2578125,-0.3984375,0
2581,-2.40625,-0.0546875,-0.42578125,0
2582,-2.046875,-0.08203125,-0.40625,0
2583,-1.66015625,0.07421875,-0.28125,0
2584,-1.3359375,0.28125,-0.02734375,0
2585,-1.2734375,0.35546875,0.13671875,0
2586,-1.34375,0.3671875,0.2265625,0
2587,-1.421875,0.2890625,0.22265625,0
2588,-1.453125,0.15234375,0.1953125,0
2589,-1.40625,0.02734375,0.05859375,0
2590,-1.328125,-0.05859375,-0.05078125,0
2591,-1.2265625,-0.0859375,-0.12109375,0
2592,-1.19140625,-0.05859375,-0.1328125,0
2593,-1.19140625,-0.03515625,-0.05859375,0
2594,-1.18359375,-0.05078125,-0.0078125,0
2595,-1.1484375,-0.03515625,-0.01953125,0
2596,-1.09375,-0.015625,-0.0546875,0
2597,-1.01953125,0.046875,-0.08984375,0
2598,-0.953125,0.046875,-0.0703125,0
2599,-0.83984375,0.04296875,-0.0390625,0
2600,-0.6796875,-0.0078125,-0.00390625,0
2601,-0.5078125,-0.05078125,0.046875,0
2602,-0.359375,-0.09375,0.12890625,0
2603,-0.19921875,-0.11328125,0.1953125,0
2604,-0.0390625,-0.12109375,0.22265625,0
2605,0.07421875,-0.07421875,0.24609375,0
2606,0.11328125,-0.0234375,0.24609375,0
2607,0.125,0.01953125,0.234375,0
2608,0.1171875,0.06640625,0.1640625,0
2609,0.140625,0.01953125,0.11328125,0
2610,0.13671875,-0.03125,0.07421875,0
2611,0.1875,-0.125,0.01171875,0
2612,0.203125,-0.1875,-0.078125,0
2613,0.1953125,-0.234375,-0.1484375,0
2614,0.15625,-0.33203125,-0.16796875,0
2615,0.1015625,-0.3203125,-0.21875,0
2616,0.07421875,-0.390625,-0.28125,0
2617,0.0234375,-0.46484375,-0.26953125,0
2618,-0.0390625,-0.4296875,-0.1953125,0
2619,-0.18359375,-0.23828125,-0.109375,0
2620,-0.296875,-0.1015625,-0.05078125,0
2621,-0.33984375,-0.0546875,-0.0234375,0
2622,-0.359375,-0.0859375,-0.03125,0
2623,-0.33984375,-0.12109375,-0.0546875,0
2624,-0.3203125,-0.171875,-0.10546875,0
2625,-0.3671875,-0.18359375,-0.19921875,0
2626,-0.453125,-0.29296875,-0.3125,0
2627,-0.46875,0.0234375,-0.578125,0
2628,-0.390625,-0.140625,-0.64453125,0
2629,-0.34765625,-0.1953125,-0.625,0
2630,-0.39453125,-0.29296875,-0.421875,0
2631,-0.546875,-0.1484375,-0.2578125,0
2632,-0.77734375,0.19921875,-0.23828125,0
2633,-1.16015625,0.72265625,-0.4609375,0
2634,-1.4609375,1.125,-0.87109375,0
2635,-1.484375,-0.2890625,-1.16015625,0
2636,-1.9140625,-2.796875,-1.078125,0
2637,-2.94921875,-3.1953125,0.16015625,0
2638,-4.14453125,-0.23046875,1.875,0
2639,-4.875,1.23828125,2.7421875,0
2640,-4.5078125,2.109375,2.53125,0
2641,-3.87109375,1.9375,1.44921875,0
2642,-3.46484375,1.30078125,0.62109375,0
2643,-3.203125,0.38671875,0.125,0
2644,-3.04296875,-0.37109375,-0.16015625,0
2645,-2.94921875,-0.44921875,-0.1875,0
2646,-2.71875,0.01171875,-0.2421875,0
2647,-2.40625,0.44921875,-0.2421875,0
2648,-2.203125,0.44921875,-0.11328125,0
2649,-2.0625,0.07421875,-0.04296875,0
2650,-2.0234375,-0.33203125,-0.04296875,0
2651,-1.94140625,-0.484375,-0.23828125,0
2652,-1.90625,-0.22265625,-0.44921875,0
2653,-1.8359375,0.30859375,-0.55078125,0
2654,-1.84765625,0.48046875,-0.3515625,0
2655,-1.9609375,0.54296875,-0.078125,0
2656,-2.0546875,0.48828125,0.14453125,0
2657,-1.9921875,0.31640625,0.12109375,0
2658,-1.8125,0.2265625,0.00390625,0
2659,-1.58984375,0.2421875,-0.12890625,0
2660,-1.328125,0.2890625,-0.25390625,0
2661,-1.02734375,0.37109375,-0.3984375,0
2662,-0.77734375,0.3515625,-0.4140625,0
2663,-0.5703125,0.25390625,-0.34375,0
2664,-0.47265625,0.140625,-0.2421875,0
2665,-0.45703125,0.0546875,-0.22265625,0
2666,-0.46484375,0.03125,-0.19921875,0
2667,-0.51953125,0.078125,-0.1640625,0
2668,-0.55078125,0.12109375,-0.1171875,0
2669,-0.64453125,0.171875,-0.07421875,0
2670,-0.69140625,0.1953125,-0.02734375,0
2671,-0.71875,0.19140625,-0.0234375,0
2672,-0.73828125,0.1875,-0.015625,0
2673,-0.75,0.203125,-0.01953125,0
2674,-0.78125,0.21484375,0.06640625,0
2675,-0.74609375,0.16796875,0.03515625,0
2676,-0.703125,0.13671875,0.07421875,0
2677,-0.65234375,0.0859375,0.09765625,0
2678,-0.59765625,0.0390625,0.12890625,0
2679,-0.55859375,0.015625,0.15234375,0
2680,-0.55859375,-0.0234375,0.16015625,0
2681,-0.53125,-0.078125,0.171875,0
2682,-0.53515625,-0.10546875,0.1953125,0
2683,-0.546875,-0.11328125,0.1796875,0
2684,-0.56640625,-0.09765625,0.1640625,0
2685,-0.609375,-0.125,0.12890625,0
2686,-0.62890625,-0.14453125,0.0859375,0
2687,-0.65625,-0.1875,0.0,0
2688,-0.7109375,-0.171875,-0.06640625,0
2689,-0.74609375,-0.1640625,-0.12109375,0
2690,-0.7734375,-0.171875,-0.17578125,0
2691,-0.85546875,-0.15234375,-0.2265625,0
2692,-0.9296875,-0.1171875,-0.234375,0
2693,-0.9921875,-0.1171875,-0.2421875,0
2694,-1.0390625,-0.1171875,-0.25,0
2695,-1.1015625,-0.13671875,-0.25390625,0
2696,-1.1484375,-0.18359375,-0.25,0
2697,-1.17578125,-0.2109375,-0.265625,0
2698,-1.14453125,-0.234375,-0.26953125,0
2699,-1.09375,-0.2265625,-0.26953125,0
2700,-1.01953125,-0.25,-0.24609375,0
2701,-0.9453125,-0.25390625,-0.22265625,0
2702,-0.8828125,-0.26953125,-0.19921875,0
2703,-0.828125,-0.25390625,-0.17578125,0
2704,-0.79296875,-0.25,-0.171875,0
2705,-0.81640625,-0.2265625,-0.140625,0
2706,-0.84765625,-0.171875,-0.15625,0
2707,-0.9140625,-0.1171875,-0.19140625,0
2708,-0.98046875,-0.06640625,-0.2109375,0
2709,-1.03515625,-0.00390625,-0.171875,0
2710,-1.0859375,0.02734375,-0.11328125,0
2711,-1.1171875,0.0546875,-0.078125,0
2712,-1.10546875,0.0703125,-0.0859375,0
2713,-1.140625,0.0703125,-0.09765625,0
2714,-1.14453125,0.0703125,-0.0859375,0
2715,-1.1484375,0.06640625,-0.08984375,0
2716,-1.17578125,0.078125,-0.0546875,0
2717,-1.18359375,0.06640625,-0.0703125,0
2718,-1.1796875,0.09765625,-0.078125,0
2719,-1.1796875,0.14453125,-0.0625,0
2720,-1.15234375,0.1328125,-0.08984375,0
2721,-1.1328125,0.1171875,-0.10546875,0
2722,-1.08984375,0.10546875,-0.1171875,0
2723,-1.04296875,0.08984375,-0.13671875,0
2724,-1.0,0.078125,-0.14453125,0
2725,-0.9765625,0.078125,-0.15625,0
2726,-0.9609375,0.0625,-0.19140625,0
2727,-0.93359375,0.08203125,-0.21875,0
2728,-0.921875,0.05859375,-0.21484375,0
2729,-0.90625,0.046875,-0.21484375,0
2730,-0.91015625,0.02734375,-0.20703125,0
2731,-0.8984375,0.015625,-0.19921875,0
2732,-0.88671875,0.03515625,-0.1796875,0
2733,-0.875,0.0234375,-0.17578125,0
2734,-0.8515625,-0.00390625,-0.1640625,0
2735,-0.8203125,0.0078125,-0.1640625,0
2736,-0.80859375,0.01171875,-0.1484375,0
2737,-0.8046875,0.015625,-0.125,0
2738,-0.79296875,0.015625,-0.10546875,0
2739,-0.80859375,0.01953125,-0.08203125,0
2740,-0.859375,0.03515625,-0.05859375,0
2741,-0.8984375,0.0546875,-0.05078125,0
2742,-0.9453125,0.05859375,-0.046875,0
2743,-0.96875,0.05859375,-0.02734375,0
2744,-0.9921875,0.0625,-0.0234375,0
2745,-0.98828125,0.04296875,-0.03125,0
2746,-0.97265625,0.046875,-0.05078125,0
2747,-0.98046875,0.05078125,-0.0546875,0
2748,-0.96484375,0.0625,-0.09765625,0
2749,-0.96484375,0.0703125,-0.109375,0
2750,-0.98046875,0.07421875,-0.140625,0
2751,-0.9921875,0.08203125,-0.1640625,0
2752,-0.984375,0.08203125,-0.203125,0
2753,-1.0,0.0390625,-0.2265625,0
2754,-1.02734375,0.01171875,-0.234375,0
2755,-1.0546875,-0.01953125,-0.23046875,0
2756,-1.09375,-0.03515625,-0.2109375,0
2757,-1.13671875,-0.0234375,-0.17578125,0
2758,-1.14453125,-0.01953125,-0.1484375,0
2759,-1.1484375,0.015625,-0.11328125,0
2760,-1.16796875,0.05859375,-0.09375,0
2761,-1.14453125,0.07421875,-0.0703125,0
2762,-1.125,0.05859375,-0.07421875,0
2763,-1.1015625,0.03125,-0.05859375,0
2764,-1.078125,-0.00390625,-0.0546875,0
2765,-1.04296875,-0.06640625,-0.0390625,0
2766,-1.03515625,-0.05859375,-0.0390625,0
2767,-1.0234375,-0.05078125,-0.015625,0
2768,-0.9765625,-0.046875,0.0,0
2769,-0.97265625,-0.015625,0.03125,0
2770,-0.9453125,-0.01171875,0.0390625,0
2771,-0.93359375,-0.0078125,0.0390625,0
2772,-0.94140625,0.0078125,0.05078125,0
2773,-0.96875,0.03125,0.078125,0
2774,-0.9765625,0.0546875,0.0859375,0
2775,-0.9765625,0.0703125,0.0859375,0
2776,-0.99609375,0.09765625,0.09375,0
2777,-0.99609375,0.08984375,0.078125,0
2778,-1.0078125,0.109375,0.07421875,0
2779,-1.0078125,0.109375,0.046875,0
2780,-1.0,0.12890625,0.01171875,0
2781,-0.9921875,0.14453125,0.015625,0
2782,-1.00390625,0.15234375,-0.01953125,0
2783,-0.9921875,0.15234375,-0.00390625,0
2784,-1.0,0.1640625,-0.0234375,0
2785,-1.0,0.15625,-0.0390625,0
2786,-0.984375,0.1640625,-0.07421875,0
2787,-0.9765625,0.1484375,-0.0859375,0
2788,-0.99609375,0.15625,-0.10546875,0
2789,-0.98046875,0.140625,-0.125,0
2790,-0.96875,0.1328125,-0.12109375,0
2791,-0.9765625,0.1171875,-0.11328125,0
2792,-0.953125,0.09765625,-0.1328125,0
2793,-0.96484375,0.09765625,-0.1171875,0
2794,-0.9609375,0.0859375,-0.1328125,0
2795,-0.9765625,0.06640625,-0.12109375,0
2796,-0.97265625,0.09765625,-0.08984375,0
2797,-0.98828125,0.1015625,-0.0859375,0
2798,-1.0,0.08203125,-0.0546875,0
2799,-1.01171875,0.08203125,-0.05859375,0
2800,-1.01953125,0.0859375,-0.06640625,0
2801,-1.046875,0.0859375,-0.0625,0
2802,-1.0546875,0.08984375,-0.03515625,0
2803,-1.05078125,0.09375,-0.02734375,0
2804,-1.04296875,0.0859375,-0.0234375,0
2805,-1.02734375,0.08203125,-0.0390625,0
2806,-1.0625,0.08203125,-0.02734375,0
2807,-1.0546875,0.0703125,-0.01953125,0
2808,-1.0390625,0.078125,-0.03125,0
2809,-1.02734375,0.07421875,-0.0234375,0
2810,-1.01171875,0.0703125,-0.01171875,0
2811,-0.9921875,0.0625,-0.01171875,0
2812,-0.96875,0.0546875,-0.03515625,0
2813,-0.96484375,0.0703125,-0.03515625,0
2814,-0.96484375,0.05078125,-0.0234375,0
2815,-0.96875,0.0625,-0.02734375,0
2816,-0.96875,0.0703125,-0.0390625,0
2817,-0.96484375,0.046875,-0.03125,0
2818,-0.97265625,0.06640625,-0.02734375,0
2819,-0.97265625,0.06640625,-0.05078125,0
2820,-0.98046875,0.07421875,-0.05078125,0
2821,-0.99609375,0.078125,-0.0625,0
2822,-1.00390625,0.08984375,-0.05859375,0
2823,-1.0,0.08984375,-0.08984375,0
2824,-1.0078125,0.09375,-0.1015625,0
2825,-1.00390625,0.09765625,-0.1171875,0
2826,-1.01171875,0.07421875,-0.12890625,0
2827,-1.01171875,0.08203125,-0.11328125,0
2828,-1.01171875,0.07421875,-0.109375,0
2829,-1.02734375,0.08203125,-0.09765625,0
2830,-1.03125,0.08984375,-0.0859375,0
2831,-1.01953125,0.0859375,-0.07421875,0
2832,-1.01953125,0.07421875,-0.08203125,0
2833,-1.015625,0.0703125,-0.0625,0
2834,-1.00390625,0.05859375,-0.05078125,0
2835,-0.984375,0.0546875,-0.0625,0
2836,-0.96875,0.0546875,-0.0546875,0
2837,-0.9765625,0.046875,-0.04296875,0
2838,-0.96875,0.05859375,-0.046875,0
2839,-0.97265625,0.03515625,-0.0390625,0
2840,-0.984375,0.046875,-0.03515625,0
2841,-0.98828125,0.046875,-0.02734375,0
2842,-0.99609375,0.0546875,-0.0234375,0
2843,-0.98828125,0.07421875,-0.04296875,0
2844,-0.97265625,0.07421875,-0.05078125,0
2845,-0.97265625,0.078125,-0.05859375,0
2846,-0.96875,0.0703125,-0.05078125,0
2847,-0.9765625,0.08984375,-0.0625,0
2848,-1.0,0.078125,-0.05859375,0
2849,-1.0,0.06640625,-0.0625,0
2850,-1.03125,0.07421875,-0.0546875,0
2851,-1.02734375,0.0859375,-0.0625,0
2852,-1.0390625,0.08203125,-0.0703125,0
2853,-1.01953125,0.09375,-0.08984375,0
2854,-1.00390625,0.08203125,-0.09765625,0
2855,-1.0078125,0.08984375,-0.10546875,0
2856,-1.015625,0.078125,-0.08203125,0
2857,-0.98828125,0.1015625,-0.07421875,0
2858,-0.99609375,0.1015625,-0.0703125,0
2859,-0.98046875,0.0703125,-0.078125,0
2860,-0.98828125,0.0859375,-0.07421875,0
2861,-0.984375,0.109375,-0.07421875,0
2862,-0.9765625,0.11328125,-0.078125,0
2863,-0.984375,0.09375,-0.06640625,0
2864,-0.9921875,0.09375,-0.06640625,0
2865,-0.98828125,0.05859375,-0.06640625,0
2866,-0.98828125,0.05078125,-0.0546875,0
2867,-0.98046875,0.06640625,-0.05078125,0
2868,-0.9765625,0.078125,-0.0625,0
2869,-0.98828125,0.08984375,-0.07421875,0
2870,-0.9921875,0.09375,-0.0625,0
2871,-1.00390625,0.08984375,-0.0625,0
2872,-1.0,0.09765625,-0.0703125,0
2873,-1.0,0.11328125,-0.0703125,0
2874,-0.98828125,0.1015625,-0.08203125,0
2875,-0.984375,0.10546875,-0.08984375,0
2876,-0.97265625,0.1015625,-0.0859375,0
2877,-0.96875,0.09375,-0.09375,0
2878,-0.97265625,0.0859375,-0.078125,0
2879,-0.9609375,0.08203125,-0.07421875,0
2880,-0.9765625,0.0859375,-0.078125,0
2881,-0.96875,0.07421875,-0.08203125,0
2882,-0.984375,0.08984375,-0.07421875,0
2883,-0.98828125,0.0859375,-0.0703125,0
2884,-0.984375,0.0859375,-0.08203125,0
2885,-0.9921875,0.09375,-0.07421875,0
2886,-0.984375,0.09375,-0.08203125,0
2887,-0.98828125,0.09375,-0.0859375,0
2888,-0.984375,0.09765625,-0.08984375,0
2889,-0.98046875,0.10546875,-0.0859375,0
2890,-0.97265625,0.0859375,-0.0703125,0
2891,-0.98828125,0.09765625,-0.09375,0
2892,-0.99609375,0.078125,-0.078125,0
2893,-0.9765625,0.0859375,-0.078125,0
2894,-0.97265625,0.08203125,-0.08984375,0
2895,-0.97265625,0.078125,-0.0859375,0
2896,-0.98046875,0.08984375,-0.078125,0
2897,-0.9765625,0.1015625,-0.0859375,0
2898,-0.9765625,0.07421875,-0.08203125,0
2899,-0.98828125,0.09375,-0.08203125,0
2900,-0.984375,0.1015625,-0.08203125,0
2901,-0.99609375,0.09765625,-0.0859375,0
2902,-0.9921875,0.1015625,-0.08984375,0
2903,-0.98828125,0.09375,-0.0703125,0
2904,-0.98828125,0.0859375,-0.0859375,0
2905,-0.9921875,0.08203125,-0.07421875,0
2906,-0.984375,0.0859375,-0.09375,0
2907,-0.984375,0.08203125,-0.0859375,0
2908,-0.98828125,0.10546875,-0.08203125,0
2909,-0.9921875,0.08203125,-0.078125,0
2910,-0.984375,0.09375,-0.08203125,0
2911,-0.98828125,0.0859375,-0.078125,0
2912,-0.98046875,0.0859375,-0.08984375,0
2913,-0.99609375,0.0859375,-0.08203125,0
2914,-0.99609375,0.08203125,-0.0859375,0
2915,-0.99609375,0.09765625,-0.08203125,0
2916,-1.0,0.0859375,-0.08984375,0
2917,-1.0078125,0.08203125,-0.08984375,0
2918,-0.98828125,0.1015625,-0.09375,0
2919,-0.9921875,0.1015625,-0.0859375,0
2920,-0.9921875,0.08984375,-0.08203125,0
2921,-0.98828125,0.08984375,-0.08984375,0
2922,-0.99609375,0.109375,-0.0859375,0
2923,-1.0,0.09375,-0.078125,0
2924,-0.9921875,0.1015625,-0.0859375,0
2925,-0.984375,0.10546875,-0.078125,0
2926,-0.9921875,0.1015625,-0.078125,0
2927,-0.99609375,0.08984375,-0.08984375,0
2928,-0.98046875,0.1015625,-0.08203125,0
2929,-0.9765625,0.09375,-0.08203125,0
2930,-0.984375,0.0703125,-0.06640625,0
2931,-0.9921875,0.078125,-0.0625,0
2932,-0.98046875,0.0859375,-0.07421875,0
2933,-0.98046875,0.09375,-0.078125,0
2934,-1.0078125,0.08984375,-0.08203125,0
2935,-0.9921875,0.08203125,-0.07421875,0
2936,-1.015625,0.0859375,-0.0703125,0
2937,-1.00390625,0.09765625,-0.06640625,0
2938,-0.9921875,0.08984375,-0.078125,0
2939,-1.00390625,0.09765625,-0.07421875,0
2940,-1.00390625,0.08984375,-0.05859375,0
2941,-1.0,0.08984375,-0.05859375,0
2942,-0.99609375,0.1015625,-0.0546875,0
2943,-0.99609375,0.109375,-0.0703125,0
2944,-1.0,0.0859375,-0.07421875,0
2945,-0.984375,0.0859375,-0.07421875,0
2946,-1.00390625,0.078125,-0.046875,0
2947,-1.00390625,0.09375,-0.05078125,0
2948,-1.0,0.09765625,-0.06640625,0
2949,-1.00390625,0.0859375,-0.07421875,0
2950,-1.00390625,0.09375,-0.08203125,0
2951,-1.01171875,0.09375,-0.0625,0
2952,-0.99609375,0.09765625,-0.0703125,0
2953,-0.9765625,0.09765625,-0.06640625,0
2954,-0.98046875,0.08984375,-0.07421875,0
2955,-0.984375,0.10546875,-0.0390625,0
2956,-0.98828125,0.09375,-0.05859375,0
2957,-0.984375,0.1015625,-0.05859375,0
2958,-0.9765625,0.07421875,-0.07421875,0
2959,-0.99609375,0.08203125,-0.07421875,0
2960,-0.99609375,0.0703125,-0.0546875,0
2961,-0.99609375,0.09765625,-0.046875,0
2962,-0.99609375,0.0859375,-0.05859375,0
2963,-0.99609375,0.08203125,-0.06640625,0
2964,-0.984375,0.0859375,-0.0546875,0
2965,-0.99609375,0.09375,-0.05078125,0
2966,-0.984375,0.10546875,-0.0625,0
2967,-0.98828125,0.0859375,-0.0625,0
2968,-1.0,0.08984375,-0.06640625,0
2969,-1.0,0.09765625,-0.06640625,0
2970,-1.00390625,0.0859375,-0.07421875,0
2971,-1.015625,0.09765625,-0.0703125,0
2972,-1.03515625,0.1015625,-0.0703125,0
2973,-1.015625,0.09375,-0.0703125,0
2974,-0.9921875,0.08984375,-0.06640625,0
2975,-0.97265625,0.08203125,-0.06640625,0
2976,-0.95703125,0.07421875,-0.0625,0
2977,-1.02734375,0.08984375,-0.08203125,0
2978,-1.015625,0.0859375,-0.0546875,0
2979,-1.046875,0.08203125,-0.0234375,0
2980,-1.0546875,0.06640625,-0.03515625,0
2981,-1.07421875,0.07421875,-0.05859375,0
2982,-1.0546875,0.0859375,-0.05859375,0
2983,-1.02734375,0.08203125,-0.04296875,0
2984,-1.0390625,0.08203125,-0.0625,0
2985,-1.0390625,0.08984375,-0.07421875,0
2986,-1.00390625,0.07421875,-0.08984375,0
2987,-0.98828125,0.04296875,-0.0546875,0
2988,-0.99609375,0.07421875,-0.06640625,0
2989,-0.9921875,0.0625,-0.015625,0
2990,-1.03515625,0.1015625,-0.0703125,0
2991,-1.0078125,0.09765625,-0.08203125,0
2992,-1.0546875,0.09765625,-0.07421875,0
2993,-1.0859375,0.08984375,-0.06640625,0
2994,-1.08984375,0.06640625,-0.05078125,0
2995,-1.046875,0.109375,-0.046875,0
2996,-0.984375,0.04296875,-0.1328125,0
2997,-0.9921875,0.09375,-0.09765625,0
2998,-1.0,0.08984375,-0.03515625,0
2999,-0.96484375,0.09765625,-0.0625,0
3000,-1.05078125,0.09375,-0.0859375,0
3001,-1.0,0.06640625,0.03125,0
3002,-0.96875,0.08984375,-0.08203125,0
3003,-1.01953125,0.10546875,-0.0390625,0
3004,-0.9921875,0.0859375,-0.01953125,0
3005,-1.01953125,0.0859375,-0.07421875,0
3006,-1.03125,0.07421875,-0.0703125,0
3007,-1.04296875,0.09765625,-0.0234375,0
3008,-1.04296875,0.09375,-0.03125,0
3009,-1.0078125,0.08984375,-0.05859375,0
3010,-0.99609375,0.0859375,-0.06640625,0
3011,-0.9921875,0.08984375,-0.05078125,0
3012,-0.96875,0.08203125,-0.04296875,0
3013,-0.98046875,0.09375,-0.0546875,0
3014,-0.98828125,0.09375,-0.05859375,0
3015,-0.9921875,0.1015625,-0.0625,0
3016,-0.984375,0.1015625,-0.0546875,0
3017,-0.97265625,0.09375,-0.05078125,0
3018,-0.9921875,0.09375,-0.0625,0
3019,-1.00390625,0.08984375,-0.046875,0
3020,-1.02734375,0.0703125,-0.06640625,0
3021,-1.00390625,0.0703125,-0.05078125,0
3022,-1.00390625,0.10546875,-0.046875,0
3023,-0.984375,0.09375,-0.0546875,0
3024,-0.98828125,0.11328125,-0.0546875,0
3025,-0.98828125,0.09375,-0.0625,0
3026,-0.99609375,0.0703125,-0.07421875,0
3027,-0.98828125,0.07421875,-0.07421875,0
3028,-0.98828125,0.07421875,-0.05078125,0
3029,-0.9921875,0.08203125,-0.04296875,0
3030,-0.98046875,0.0546875,-0.03125,0
3031,-0.9609375,0.0703125,-0.0390625,0
3032,-0.9453125,0.0703125,-0.04296875,0
3033,-0.95703125,0.09375,-0.0546875,0
3034,-0.953125,0.10546875,-0.046875,0
3035,-0.94921875,0.125,-0.06640625,0
3036,-0.95703125,0.12109375,-0.06640625,0
3037,-0.94921875,0.12109375,-0.078125,0
3038,-0.9453125,0.14453125,-0.05859375,0
3039,-0.93359375,0.13671875,-0.06640625,0
3040,-0.92578125,0.14453125,-0.0625,0
3041,-0.9296875,0.15625,-0.078125,0
3042,-0.91796875,0.16015625,-0.08203125,0
3043,-0.94140625,0.16796875,-0.06640625,0
3044,-0.9296875,0.1796875,-0.09765625,0
3045,-0.9453125,0.1875,-0.10546875,0
3046,-0.95703125,0.18359375,-0.109375,0
3047,-0.96484375,0.20703125,-0.08984375,0
3048,-0.97265625,0.2109375,-0.08984375,0
3049,-0.96484375,0.1953125,-0.078125,0
3050,-0.96875,0.1953125,-0.0703125,0
3051,-0.96875,0.19921875,-0.1015625,0
3052,-0.9609375,0.19140625,-0.08984375,0
3053,-0.9609375,0.2109375,-0.08203125,0
3054,-0.9609375,0.2109375,-0.08203125,0
3055,-0.95703125,0.19921875,-0.0703125,0
3056,-0.9609375,0.1953125,-0.08203125,0
3057,-0.95703125,0.21484375,-0.0859375,0
3058,-0.9609375,0.19140625,-0.0703125,0
3059,-0.96484375,0.2109375,-0.07421875,0
3060,-0.9609375,0.20703125,-0.0703125,0
3061,-0.953125,0.1953125,-0.06640625,0
3062,-0.95703125,0.203125,-0.07421875,0
3063,-0.953125,0.203125,-0.0546875,0
3064,-0.94921875,0.1875,-0.06640625,0
3065,-0.94140625,0.203125,-0.06640625,0
3066,-0.953125,0.20703125,-0.078125,0
3067,-0.9609375,0.18359375,-0.07421875,0
3068,-0.95703125,0.2265625,-0.07421875,0
3069,-0.953125,0.22265625,-0.0625,0
3070,-0.9609375,0.2265625,-0.05859375,0
3071,-0.94921875,0.2109375,-0.0703125,0
3072,-0.96484375,0.2109375,-0.06640625,0
3073,-0.96875,0.203125,-0.05078125,0
3074,-0.9609375,0.2109375,-0.0546875,0
3075,-0.97265625,0.2265625,-0.03515625,0
3076,-0.96484375,0.234375,-0.046875,0
3077,-0.96484375,0.23046875,-0.046875,0
3078,-0.9609375,0.2265625,-0.0390625,0
3079,-0.96875,0.22265625,-0.0390625,0
3080,-0.97265625,0.2265625,-0.04296875,0
3081,-0.96484375,0.24609375,-0.03125,0
3082,-0.96875,0.23046875,-0.02734375,0
3083,-0.9765625,0.23046875,-0.03515625,0
3084,-0.96875,0.21875,-0.02734375,0
3085,-0.98046875,0.2578125,-0.03125,0
3086,-0.9609375,0.2421875,-0.03125,0
3087,-0.9609375,0.2421875,-0.02734375,0
3088,-0.96484375,0.2265625,-0.03125,0
3089,-0.96875,0.234375,-0.00390625,0
3090,-0.96875,0.234375,-0.015625,0
3091,-0.96875,0.23828125,-0.02734375,0
3092,-0.97265625,0.2421875,-0.01953125,0
3093,-0.984375,0.2265625,-0.00390625,0
3094,-0.96484375,0.22265625,-0.03125,0
3095,-0.98046875,0.2265625,-0.01953125,0
3096,-0.97265625,0.19921875,-0.01171875,0
3097,-0.96484375,0.203125,-0.01171875,0
3098,-0.96484375,0.20703125,-0.01171875,0
3099,-0.96484375,0.21875,-0.02734375,0
3100,-0.984375,0.21484375,-0.03125,0
3101,-0.96484375,0.21484375,-0.01953125,0
3102,-0.96484375,0.203125,-0.03125,0
3103,-0.98046875,0.22265625,-0.03125,0
3104,-0.96484375,0.22265625,-0.0390625,0
3105,-0.96875,0.203125,-0.04296875,0
3106,-0.96484375,0.1953125,-0.03515625,0
3107,-0.96875,0.203125,-0.046875,0
