,accelerometerAccelerationX(G),accelerometerAccelerationY(G),accelerometerAccelerationZ(G)
0,-0.00390625,-0.9453125,-0.26171875
1,-0.0078125,-0.94140625,-0.26171875
2,-0.0078125,-0.92578125,-0.2578125
3,-0.00390625,-0.9453125,-0.26171875
4,-0.00390625,-0.94140625,-0.26953125
5,0.0,-0.94140625,-0.265625
6,-0.015625,-0.94921875,-0.2734375
7,0.0,-0.953125,-0.25390625
8,-0.00390625,-0.94140625,-0.2578125
9,-0.00390625,-0.94140625,-0.265625
10,-0.00390625,-0.93359375,-0.27734375
11,-0.01171875,-0.9375,-0.26953125
12,0.0,-0.9609375,-0.2578125
13,0.00390625,-0.9453125,-0.26953125
14,0.0,-0.9453125,-0.265625
15,-0.01171875,-0.9453125,-0.23828125
16,0.0234375,-0.97265625,-0.2578125
17,-0.00390625,-0.9453125,-0.26953125
18,-0.00390625,-0.94921875,-0.26171875
19,0.0,-0.95703125,-0.26171875
20,0.0,-0.93359375,-0.265625
21,0.00390625,-0.953125,-0.28125
22,-0.0078125,-0.92578125,-0.265625
23,-0.0078125,-0.94921875,-0.27734375
24,-0.00390625,-0.9375,-0.2578125
25,0.0,-0.9375,-0.27734375
26,-0.01171875,-0.9140625,-0.2578125
27,-0.00390625,-0.9375,-0.27734375
28,-0.01171875,-0.9453125,-0.265625
29,-0.01171875,-0.94921875,-0.2734375
30,-0.00390625,-0.94140625,-0.265625
31,0.0,-0.94921875,-0.2578125
32,-0.0078125,-0.94140625,-0.27734375
33,-0.0078125,-0.953125,-0.265625
34,-0.00390625,-0.94140625,-0.26953125
35,-0.0078125,-0.93359375,-0.27734375
36,-0.015625,-0.9453125,-0.265625
37,0.0,-0.9609375,-0.265625
38,0.0,-0.9453125,-0.25390625
39,-0.00390625,-0.94140625,-0.26953125
40,-0.00390625,-0.94140625,-0.26953125
41,-0.0078125,-0.94921875,-0.2734375
42,-0.00390625,-0.94921875,-0.25390625
43,-0.01171875,-0.94140625,-0.26953125
44,-0.015625,-0.93359375,-0.265625
45,0.0,-0.94921875,-0.26953125
46,-0.0078125,-0.93359375,-0.265625
47,-0.01171875,-0.9375,-0.24609375
48,0.02734375,-0.921875,-0.26953125
49,-0.00390625,-0.94140625,-0.25390625
50,0.00390625,-0.9375,-0.26171875
51,0.0,-0.95703125,-0.2578125
52,-0.0078125,-0.9453125,-0.2578125
53,0.0,-0.9453125,-0.26171875
54,-0.015625,-0.93359375,-0.25390625
55,0.0,-0.9453125,-0.25
56,-0.01171875,-0.94140625,-0.2578125
57,-0.01953125,-0.9375,-0.24609375
58,0.0,-0.9375,-0.2421875
59,0.00390625,-0.9296875,-0.2578125
60,-0.00390625,-0.9453125,-0.25390625
61,-0.015625,-0.94140625,-0.265625
62,-0.01171875,-0.9453125,-0.25390625
63,-0.0078125,-0.9375,-0.2734375
64,-0.00390625,-0.953125,-0.26171875
65,0.00390625,-0.94921875,-0.25390625
66,0.015625,-0.9375,-0.25
67,-0.0078125,-0.9453125,-0.25
68,-0.00390625,-0.953125,-0.25
69,-0.00390625,-0.94921875,-0.2578125
70,-0.00390625,-0.94921875,-0.27734375
71,-0.0078125,-0.94921875,-0.25390625
72,-0.0078125,-0.94921875,-0.2421875
73,-0.01171875,-0.9453125,-0.26171875
74,-0.00390625,-0.94140625,-0.25
75,-0.0078125,-0.9453125,-0.26171875
76,0.0,-0.94921875,-0.25390625
77,-0.00390625,-0.9453125,-0.234375
78,0.0,-0.9375,-0.25390625
79,-0.01171875,-0.94921875,-0.26171875
80,-0.00390625,-0.953125,-0.265625
81,-0.01171875,-0.94921875,-0.265625
82,-0.01171875,-0.9453125,-0.25
83,-0.0078125,-0.94140625,-0.25
84,-0.00390625,-0.9453125,-0.25390625
85,-0.0078125,-0.94140625,-0.26953125
86,-0.01171875,-0.9453125,-0.2421875
87,-0.0078125,-0.953125,-0.2578125
88,-0.0078125,-0.94140625,-0.2578125
89,-0.00390625,-0.94140625,-0.265625
90,-0.00390625,-0.94140625,-0.25390625
91,0.0,-0.953125,-0.265625
92,0.01171875,-0.9609375,-0.25390625
93,-0.00390625,-0.94140625,-0.2578125
94,0.00390625,-0.9296875,-0.24609375
95,-0.0078125,-0.93359375,-0.26953125
96,-0.0078125,-0.9453125,-0.24609375
97,0.0,-0.9453125,-0.2578125
98,-0.0078125,-0.9453125,-0.2421875
99,-0.00390625,-0.94921875,-0.26171875
100,0.0,-0.9609375,-0.24609375
101,0.01171875,-0.95703125,-0.25390625
102,-0.0078125,-0.94921875,-0.25
103,-0.0078125,-0.9453125,-0.26953125
104,-0.01171875,-0.94140625,-0.26953125
105,-0.00390625,-0.9453125,-0.25390625
106,-0.0078125,-0.94140625,-0.26171875
107,-0.01171875,-0.94921875,-0.25
108,0.0,-0.9375,-0.26171875
109,-0.01171875,-0.9453125,-0.2578125
110,-0.015625,-0.94140625,-0.25390625
111,-0.0078125,-0.9375,-0.26171875
112,-0.0078125,-0.94921875,-0.265625
113,0.01953125,-0.9453125,-0.26171875
114,-0.00390625,-0.94140625,-0.26171875
115,0.00390625,-0.94921875,-0.2421875
116,-0.01171875,-0.9375,-0.25
117,0.0,-0.9453125,-0.25390625
118,-0.01171875,-0.953125,-0.2578125
119,0.0078125,-0.94921875,-0.26171875
120,0.00390625,-0.953125,-0.26171875
121,0.0,-0.94140625,-0.265625
122,0.0,-0.94921875,-0.26171875
123,-0.00390625,-0.93359375,-0.25
124,0.00390625,-0.92578125,-0.25
125,-0.01171875,-0.94921875,-0.25390625
126,-0.01171875,-0.9375,-0.25390625
127,-0.00390625,-0.9453125,-0.265625
128,-0.01171875,-0.92578125,-0.25390625
129,0.0,-0.93359375,-0.265625
130,-0.01171875,-0.93359375,-0.24609375
131,-0.0078125,-0.9453125,-0.25390625
132,0.0078125,-0.94921875,-0.23828125
133,0.0,-0.94140625,-0.24609375
134,-0.00390625,-0.94921875,-0.26171875
135,0.0,-0.9375,-0.25390625
136,0.00390625,-0.953125,-0.25
137,0.0,-0.9375,-0.24609375
138,-0.0078125,-0.94140625,-0.24609375
139,-0.0078125,-0.93359375,-0.26171875
140,0.0,-0.94140625,-0.2421875
141,0.0078125,-0.9453125,-0.25
142,0.00390625,-0.9375,-0.25390625
143,-0.0078125,-0.9453125,-0.2578125
144,-0.00390625,-0.9453125,-0.2421875
145,0.00390625,-0.9375,-0.2421875
146,-0.0078125,-0.9375,-0.265625
147,-0.015625,-0.9375,-0.25
148,-0.01171875,-0.93359375,-0.2578125
149,0.0,-0.9453125,-0.26953125
150,-0.0078125,-0.9453125,-0.24609375
151,-0.01171875,-0.9375,-0.2578125
152,-0.00390625,-0.9453125,-0.2578125
153,-0.00390625,-0.953125,-0.2421875
154,0.00390625,-0.9375,-0.25
155,-0.00390625,-0.9375,-0.25390625
156,0.01171875,-0.9375,-0.2421875
157,0.00390625,-0.95703125,-0.26953125
158,0.01171875,-0.94921875,-0.25390625
159,0.00390625,-0.953125,-0.26171875
160,0.0,-0.9453125,-0.25
161,-0.00390625,-0.9453125,-0.23828125
162,0.00390625,-0.94921875,-0.25390625
163,-0.0078125,-0.94921875,-0.24609375
164,0.0,-0.94921875,-0.28125
165,0.0,-0.953125,-0.234375
166,-0.01171875,-0.9375,-0.25
167,-0.00390625,-0.94921875,-0.2578125
168,0.0,-0.94140625,-0.24609375
169,-0.00390625,-0.94921875,-0.2578125
170,-0.0078125,-0.9453125,-0.2578125
171,-0.00390625,-0.94921875,-0.24609375
172,0.0,-0.953125,-0.265625
173,-0.00390625,-0.953125,-0.26171875
174,-0.00390625,-0.9453125,-0.23828125
175,0.01171875,-0.953125,-0.25390625
176,-0.0078125,-0.93359375,-0.24609375
177,-0.0078125,-0.9375,-0.26171875
178,0.0,-0.94140625,-0.234375
179,0.01953125,-0.94921875,-0.23828125
180,0.0,-0.953125,-0.25
181,0.00390625,-0.94921875,-0.25390625
182,-0.00390625,-0.94140625,-0.24609375
183,-0.0078125,-0.9453125,-0.2421875
184,-0.00390625,-0.953125,-0.25
185,-0.00390625,-0.9453125,-0.24609375
186,-0.00390625,-0.9453125,-0.23828125
187,-0.0078125,-0.9375,-0.2578125
188,-0.00390625,-0.94140625,-0.2421875
189,-0.0078125,-0.94140625,-0.25
190,-0.00390625,-0.9609375,-0.265625
191,-0.01171875,-0.9453125,-0.25
192,-0.0078125,-0.9453125,-0.25
193,-0.0078125,-0.94921875,-0.25
194,-0.0078125,-0.94921875,-0.2578125
195,-0.00390625,-0.953125,-0.23828125
196,0.00390625,-0.95703125,-0.2421875
197,0.00390625,-0.95703125,-0.25390625
198,0.0,-0.9453125,-0.2421875
199,0.00390625,-0.95703125,-0.24609375
200,-0.0078125,-0.95703125,-0.25
201,-0.0078125,-0.9453125,-0.25
202,0.0,-0.94140625,-0.2421875
203,0.00390625,-0.94921875,-0.2421875
204,0.0,-0.93359375,-0.25390625
205,-0.0078125,-0.94140625,-0.26171875
206,0.0,-0.94921875,-0.25
207,-0.01171875,-0.9296875,-0.25
208,-0.015625,-0.953125,-0.25390625
209,0.00390625,-0.94140625,-0.25390625
210,-0.0078125,-0.94140625,-0.25
211,-0.0078125,-0.94140625,-0.25
212,-0.01171875,-0.93359375,-0.25390625
213,-0.01171875,-0.9375,-0.25
214,-0.015625,-0.9453125,-0.2578125
215,0.00390625,-0.9453125,-0.25
216,-0.00390625,-0.9296875,-0.2421875
217,0.01171875,-0.95703125,-0.25
218,0.00390625,-0.9375,-0.24609375
219,0.0,-0.93359375,-0.2578125
220,0.00390625,-0.96484375,-0.25
221,0.015625,-0.94140625,-0.25
222,0.00390625,-0.94921875,-0.25
223,-0.00390625,-0.9453125,-0.25390625
224,-0.015625,-0.9375,-0.2578125
225,-0.0078125,-0.94921875,-0.2578125
226,-0.00390625,-0.9453125,-0.25
227,-0.0078125,-0.9453125,-0.24609375
228,-0.0078125,-0.94140625,-0.24609375
229,0.0,-0.92578125,-0.26953125
230,-0.01171875,-0.9453125,-0.24609375
231,-0.0078125,-0.94140625,-0.234375
232,-0.0078125,-0.9375,-0.25
233,-0.0078125,-0.93359375,-0.28515625
234,-0.0078125,-0.94140625,-0.25
235,0.0,-0.94921875,-0.25390625
236,-0.00390625,-0.9375,-0.25390625
237,0.0,-0.9453125,-0.23828125
238,-0.00390625,-0.9453125,-0.24609375
239,-0.0078125,-0.953125,-0.2578125
240,-0.00390625,-0.9453125,-0.234375
241,-0.00390625,-0.9375,-0.25
242,-0.01171875,-0.9375,-0.23046875
243,0.0,-0.94921875,-0.234375
244,-0.015625,-0.9375,-0.24609375
245,-0.01171875,-0.94921875,-0.234375
246,-0.01171875,-0.94921875,-0.25
247,-0.0078125,-0.9375,-0.234375
248,-0.0078125,-0.9375,-0.25390625
249,-0.0078125,-0.94140625,-0.24609375
250,-0.01171875,-0.94140625,-0.2578125
251,-0.01171875,-0.9453125,-0.24609375
252,-0.01171875,-0.9296875,-0.24609375
253,0.0,-0.9375,-0.2421875
254,-0.0078125,-0.9453125,-0.24609375
255,-0.015625,-0.93359375,-0.2421875
256,-0.015625,-0.94140625,-0.25390625
257,-0.0078125,-0.94921875,-0.25
258,-0.00390625,-0.9609375,-0.23046875
259,-0.0078125,-0.953125,-0.25390625
260,0.00390625,-0.94921875,-0.2421875
261,0.0,-0.95703125,-0.2421875
262,0.0,-0.96875,-0.2578125
263,-0.00390625,-0.95703125,-0.2578125
264,-0.0078125,-0.95703125,-0.23828125
265,0.00390625,-0.96484375,-0.21875
266,-0.01171875,-0.96875,-0.23046875
267,-0.0078125,-0.95703125,-0.2421875
268,0.00390625,-0.9453125,-0.2421875
269,-0.00390625,-0.94140625,-0.2421875
270,0.0,-0.94140625,-0.25
271,0.00390625,-0.94140625,-0.24609375
272,0.0,-0.95703125,-0.23046875
273,0.00390625,-0.94140625,-0.2421875
274,0.0,-0.94921875,-0.23046875
275,-0.0078125,-0.94140625,-0.2421875
276,-0.00390625,-0.9375,-0.2421875
277,0.01171875,-0.94921875,-0.234375
278,-0.01171875,-0.94140625,-0.2265625
279,-0.00390625,-0.94140625,-0.24609375
280,0.0,-0.9453125,-0.2421875
281,-0.00390625,-0.9296875,-0.2421875
282,0.00390625,-0.94140625,-0.24609375
283,-0.0078125,-0.94140625,-0.23828125
284,-0.0078125,-0.9453125,-0.23828125
285,-0.00390625,-0.9375,-0.22265625
286,0.00390625,-0.9375,-0.23828125
287,-0.00390625,-0.953125,-0.23046875
288,0.0,-0.91796875,-0.24609375
289,-0.0078125,-0.96484375,-0.234375
290,0.0,-0.94140625,-0.25
291,-0.0078125,-0.953125,-0.2421875
292,0.00390625,-0.953125,-0.23828125
293,0.00390625,-0.94921875,-0.25
294,0.0,-0.94140625,-0.234375
295,0.0,-0.9453125,-0.2265625
296,0.0078125,-0.94921875,-0.23828125
297,0.0078125,-0.9453125,-0.2421875
298,-0.0078125,-0.94140625,-0.234375
299,-0.01171875,-0.9453125,-0.2265625
300,-0.00390625,-0.9453125,-0.24609375
301,-0.00390625,-0.9453125,-0.2421875
302,0.0078125,-0.9453125,-0.23828125
303,0.00390625,-0.94140625,-0.26171875
304,0.0078125,-0.953125,-0.25
305,0.00390625,-0.94921875,-0.23828125
306,0.00390625,-0.94140625,-0.2421875
307,-0.0078125,-0.92578125,-0.24609375
308,-0.01171875,-0.95703125,-0.25390625
309,-0.01171875,-0.94140625,-0.24609375
310,0.0,-0.9375,-0.23828125
311,0.00390625,-0.9453125,-0.265625
312,-0.00390625,-0.9453125,-0.2421875
313,-0.0078125,-0.94921875,-0.23828125
314,-0.00390625,-0.94921875,-0.2421875
315,-0.00390625,-0.94921875,-0.25
316,0.00390625,-0.9609375,-0.2421875
317,0.00390625,-0.94140625,-0.25
318,0.0,-0.9375,-0.25390625
319,0.00390625,-0.953125,-0.23828125
320,-0.01171875,-0.88671875,-0.2578125
321,-0.0078125,-0.94140625,-0.26171875
322,0.0,-0.9375,-0.2578125
323,0.0,-0.9453125,-0.25
324,-0.00390625,-0.94921875,-0.2421875
325,-0.0078125,-0.9453125,-0.2421875
326,-0.0078125,-0.95703125,-0.24609375
327,-0.0078125,-0.9375,-0.25390625
328,-0.0078125,-0.9609375,-0.2421875
329,-0.0078125,-0.94140625,-0.25
330,-0.01171875,-0.94140625,-0.2578125
331,-0.0078125,-0.94921875,-0.25390625
332,-0.0078125,-0.94921875,-0.26171875
333,-0.0078125,-0.9453125,-0.24609375
334,0.0,-0.96484375,-0.2421875
335,-0.0078125,-0.953125,-0.25
336,-0.00390625,-0.94921875,-0.2421875
337,0.00390625,-0.94921875,-0.25390625
338,-0.0078125,-0.95703125,-0.234375
339,-0.01171875,-0.9453125,-0.25
340,0.01171875,-0.9375,-0.265625
341,0.00390625,-0.93359375,-0.25390625
342,0.0078125,-0.95703125,-0.2578125
343,-0.00390625,-0.94140625,-0.2421875
344,-0.01171875,-0.9375,-0.25
345,0.0078125,-0.94140625,-0.2578125
346,0.0,-0.94140625,-0.2421875
347,-0.015625,-0.9453125,-0.25
348,-0.00390625,-0.9453125,-0.24609375
349,-0.0078125,-0.95703125,-0.23828125
350,0.0,-0.95703125,-0.25
351,0.0,-0.93359375,-0.25390625
352,-0.00390625,-0.953125,-0.23828125
353,-0.01953125,-0.9296875,-0.2578125
354,0.00390625,-0.94140625,-0.23828125
355,-0.00390625,-0.94921875,-0.25
356,0.01171875,-0.95703125,-0.2578125
357,0.0,-0.94921875,-0.24609375
358,0.0,-0.9453125,-0.25
359,-0.0078125,-0.94140625,-0.26171875
360,-0.0078125,-0.9453125,-0.2578125
361,0.0,-0.9375,-0.25390625
362,-0.00390625,-0.953125,-0.24609375
363,-0.0078125,-0.94140625,-0.25390625
364,-0.01171875,-0.953125,-0.25
365,-0.00390625,-0.95703125,-0.26171875
366,-0.0078125,-0.9453125,-0.25
367,0.0,-0.94921875,-0.2578125
368,-0.0078125,-0.9453125,-0.24609375
369,-0.01171875,-0.9453125,-0.2578125
370,-0.015625,-0.9453125,-0.25390625
371,-0.01171875,-0.9296875,-0.26171875
372,0.00390625,-0.94921875,-0.25390625
373,-0.01171875,-0.93359375,-0.25390625
374,-0.01171875,-0.9375,-0.24609375
375,-0.0078125,-0.9453125,-0.24609375
376,0.0,-0.9453125,-0.234375
377,0.0,-0.9375,-0.26171875
378,0.0078125,-0.953125,-0.25
379,-0.0078125,-0.94140625,-0.25
380,0.0,-0.9375,-0.25
381,0.0,-0.94140625,-0.2578125
382,0.0078125,-0.95703125,-0.26953125
383,0.0,-0.94921875,-0.25390625
384,0.0,-0.9296875,-0.2578125
385,0.00390625,-0.94140625,-0.24609375
386,0.0,-0.953125,-0.2421875
387,0.01171875,-0.9375,-0.24609375
388,0.00390625,-0.94140625,-0.24609375
389,0.0,-0.9375,-0.23828125
390,-0.00390625,-0.94140625,-0.26171875
391,-0.00390625,-0.9375,-0.24609375
392,0.00390625,-0.953125,-0.23828125
393,0.0,-0.95703125,-0.24609375
394,0.0,-0.94921875,-0.23828125
395,-0.0078125,-0.953125,-0.22265625
396,0.0078125,-0.94921875,-0.2421875
397,0.00390625,-0.9609375,-0.23828125
398,-0.00390625,-0.9453125,-0.23828125
399,-0.00390625,-0.9453125,-0.25390625
400,0.015625,-0.9609375,-0.2421875
401,0.015625,-0.94140625,-0.24609375
402,0.00390625,-0.9453125,-0.25
403,-0.00390625,-0.9375,-0.25
404,0.0,-0.94140625,-0.234375
405,0.0078125,-0.95703125,-0.25
406,0.00390625,-0.94140625,-0.24609375
407,0.0078125,-0.9609375,-0.23046875
408,0.015625,-0.93359375,-0.26171875
409,-0.00390625,-0.9609375,-0.23828125
410,-0.0078125,-0.9453125,-0.2421875
411,0.00390625,-0.953125,-0.25
412,0.00390625,-0.94921875,-0.23828125
413,-0.015625,-0.94921875,-0.2421875
414,-0.0078125,-0.953125,-0.265625
415,0.0,-0.953125,-0.25
416,-0.0078125,-0.953125,-0.25
417,-0.0078125,-0.9453125,-0.2421875
418,-0.0078125,-0.953125,-0.2265625
419,0.0,-0.96484375,-0.234375
420,-0.01171875,-0.9453125,-0.23828125
421,-0.01171875,-0.9375,-0.2578125
422,-0.0078125,-0.9453125,-0.25
423,0.00390625,-0.953125,-0.24609375
424,-0.01171875,-0.953125,-0.24609375
425,0.00390625,-0.9375,-0.2421875
426,-0.00390625,-0.953125,-0.234375
427,0.00390625,-0.94921875,-0.23828125
428,-0.0078125,-0.94140625,-0.25
429,0.0,-0.96484375,-0.24609375
430,-0.00390625,-0.9453125,-0.23828125
431,-0.00390625,-0.953125,-0.24609375
432,-0.0078125,-0.9609375,-0.2265625
433,-0.00390625,-0.94921875,-0.2265625
434,0.00390625,-0.94921875,-0.23828125
435,0.0,-0.94921875,-0.25
436,0.0,-0.94140625,-0.234375
437,-0.01171875,-0.9296875,-0.25
438,0.0,-0.9453125,-0.234375
439,0.00390625,-0.9453125,-0.234375
440,0.01171875,-0.9609375,-0.19140625
441,-0.0078125,-0.9453125,-0.23046875
442,0.00390625,-0.953125,-0.2421875
443,-0.0078125,-0.953125,-0.234375
444,-0.01171875,-0.94140625,-0.234375
445,-0.0078125,-0.9453125,-0.25
446,-0.0078125,-0.94921875,-0.23828125
447,-0.0078125,-0.9453125,-0.24609375
448,-0.00390625,-0.94921875,-0.23828125
449,0.00390625,-0.9609375,-0.25
450,-0.0078125,-0.9609375,-0.2421875
451,-0.015625,-0.9609375,-0.2421875
452,0.00390625,-0.9375,-0.26171875
453,0.01171875,-0.9453125,-0.2578125
454,0.0078125,-0.95703125,-0.25390625
455,0.01171875,-0.9453125,-0.2578125
456,0.01171875,-0.94140625,-0.2421875
457,0.01171875,-0.9375,-0.25390625
458,-0.00390625,-0.9296875,-0.24609375
459,0.0078125,-0.9453125,-0.24609375
460,0.0078125,-0.9453125,-0.25
461,-0.00390625,-0.94140625,-0.25
462,-0.01171875,-0.94921875,-0.234375
463,0.0,-0.94921875,-0.25390625
464,0.01171875,-0.94921875,-0.2578125
465,-0.0078125,-0.9375,-0.26171875
466,0.00390625,-0.9453125,-0.25390625
467,0.0078125,-0.94921875,-0.265625
468,-0.00390625,-0.94140625,-0.25390625
469,-0.00390625,-0.9375,-0.26953125
470,0.00390625,-0.9453125,-0.265625
471,0.0,-0.94140625,-0.265625
472,0.0,-0.9296875,-0.25390625
473,-0.01171875,-0.95703125,-0.26953125
474,-0.00390625,-0.9375,-0.25
475,-0.01171875,-0.9375,-0.26171875
476,0.0,-0.94921875,-0.2734375
477,-0.01171875,-0.9375,-0.265625
478,-0.01171875,-0.9453125,-0.26171875
479,-0.015625,-0.9375,-0.24609375
480,0.0078125,-0.9453125,-0.25
481,0.0,-0.95703125,-0.265625
482,0.0,-0.94140625,-0.26953125
483,0.00390625,-0.94140625,-0.265625
484,-0.00390625,-0.93359375,-0.265625
485,0.00390625,-0.94921875,-0.25390625
486,-0.0078125,-0.9453125,-0.2578125
487,-0.0078125,-0.9375,-0.26171875
488,-0.01171875,-0.93359375,-0.26171875
489,0.0,-0.93359375,-0.2578125
490,0.0,-0.94140625,-0.25390625
491,0.0,-0.9453125,-0.265625
492,0.0,-0.94921875,-0.23828125
493,0.01171875,-0.953125,-0.265625
494,-0.0078125,-0.94140625,-0.265625
495,0.01953125,-0.94921875,-0.28125
496,-0.00390625,-0.953125,-0.26171875
497,-0.00390625,-0.94140625,-0.265625
498,0.00390625,-0.94140625,-0.26953125
499,-0.01171875,-0.9375,-0.265625
500,-0.00390625,-0.9296875,-0.2578125
501,-0.0078125,-0.94921875,-0.2578125
502,-0.0078125,-0.94140625,-0.26171875
503,0.0,-0.94140625,-0.26953125
504,-0.015625,-0.9375,-0.26953125
505,0.0,-0.9609375,-0.26171875
506,-0.01171875,-0.94140625,-0.265625
507,-0.0078125,-0.9375,-0.26171875
508,0.0,-0.94921875,-0.25390625
509,0.00390625,-0.94140625,-0.265625
510,-0.00390625,-0.94140625,-0.25
511,0.0,-0.92578125,-0.25
512,0.0,-0.93359375,-0.26953125
513,-0.0078125,-0.9453125,-0.265625
514,-0.00390625,-0.9375,-0.24609375
515,-0.00390625,-0.9375,-0.26171875
516,-0.01171875,-0.94140625,-0.25390625
517,0.0,-0.9453125,-0.2578125
518,-0.0078125,-0.9375,-0.25390625
519,-0.015625,-0.94140625,-0.25390625
520,0.0,-0.9453125,-0.2734375
521,-0.00390625,-0.94140625,-0.24609375
522,0.0,-0.953125,-0.2734375
523,-0.00390625,-0.94140625,-0.265625
524,0.0078125,-0.94921875,-0.26953125
525,0.0,-0.94140625,-0.265625
526,-0.00390625,-0.95703125,-0.25390625
527,0.02734375,-0.95703125,-0.23046875
528,0.0,-0.953125,-0.265625
529,0.0078125,-0.953125,-0.26953125
530,0.0,-0.94921875,-0.2578125
531,-0.01171875,-0.93359375,-0.26171875
532,-0.0078125,-0.9375,-0.25
533,-0.0078125,-0.9453125,-0.26171875
534,0.0,-0.94140625,-0.2578125
535,-0.01171875,-0.9375,-0.2578125
536,-0.0078125,-0.9375,-0.2578125
537,-0.0078125,-0.9375,-0.2578125
538,-0.00390625,-0.94921875,-0.27734375
539,-0.00390625,-0.94921875,-0.26171875
540,-0.00390625,-0.9453125,-0.2578125
541,-0.00390625,-0.9375,-0.25390625
542,-0.00390625,-0.953125,-0.265625
543,0.0078125,-0.94921875,-0.2578125
544,-0.00390625,-0.9453125,-0.2578125
545,-0.0078125,-0.94921875,-0.24609375
546,-0.00390625,-0.94921875,-0.24609375
547,0.0,-0.94921875,-0.26953125
548,-0.0078125,-0.93359375,-0.265625
549,-0.01171875,-0.94921875,-0.25390625
550,0.0,-0.94140625,-0.265625
551,-0.015625,-0.93359375,-0.265625
552,-0.0078125,-0.9453125,-0.26171875
553,-0.00390625,-0.9375,-0.26171875
554,-0.0078125,-0.9453125,-0.25390625
555,-0.0078125,-0.9453125,-0.25390625
556,-0.01171875,-0.94140625,-0.2578125
557,-0.00390625,-0.953125,-0.2734375
558,-0.00390625,-0.94140625,-0.2578125
559,-0.00390625,-0.9296875,-0.25390625
560,-0.01171875,-0.9453125,-0.25390625
561,0.0078125,-0.94140625,-0.26953125
562,0.0,-0.94921875,-0.25390625
563,-0.0078125,-0.953125,-0.25390625
564,-0.00390625,-0.953125,-0.25
565,-0.00390625,-0.9453125,-0.2421875
566,0.00390625,-0.94140625,-0.25
567,-0.0078125,-0.93359375,-0.26171875
568,-0.00390625,-0.9375,-0.2578125
569,-0.00390625,-0.9375,-0.25
570,0.00390625,-0.92578125,-0.26953125
571,-0.015625,-0.921875,-0.265625
572,0.0078125,-0.94140625,-0.265625
573,0.00390625,-0.94921875,-0.25390625
574,0.0,-0.94140625,-0.25390625
575,-0.01171875,-0.93359375,-0.25
576,0.0,-0.953125,-0.2578125
577,-0.01171875,-0.94140625,-0.25
578,-0.00390625,-0.94921875,-0.26953125
579,-0.00390625,-0.953125,-0.25
580,-0.0078125,-0.94921875,-0.26171875
581,0.0,-0.9453125,-0.25
582,-0.0078125,-0.94140625,-0.29296875
583,-0.01171875,-0.94140625,-0.24609375
584,-0.01171875,-0.9375,-0.25390625
585,-0.00390625,-0.94140625,-0.25
586,0.00390625,-0.9453125,-0.24609375
587,-0.00390625,-0.9296875,-0.26953125
588,-0.01171875,-0.94140625,-0.2578125
589,-0.00390625,-0.9375,-0.25
590,-0.0078125,-0.93359375,-0.26953125
591,-0.00390625,-0.9375,-0.2421875
592,-0.0078125,-0.93359375,-0.2421875
593,-0.01171875,-0.95703125,-0.25
594,-0.0078125,-0.94921875,-0.23046875
595,-0.0078125,-0.9453125,-0.25390625
596,-0.00390625,-0.953125,-0.25390625
597,-0.01171875,-0.9453125,-0.25390625
598,-0.01953125,-0.9375,-0.25
599,-0.00390625,-0.94140625,-0.25
600,-0.0078125,-0.9375,-0.2578125
601,-0.01171875,-0.9375,-0.265625
602,-0.00390625,-0.94140625,-0.24609375
603,-0.01171875,-0.9296875,-0.27734375
604,0.0,-0.953125,-0.22265625
605,-0.01171875,-0.9453125,-0.265625
606,0.0,-0.9375,-0.26171875
607,-0.00390625,-0.9453125,-0.2578125
608,0.0,-0.9453125,-0.2578125
609,0.0,-0.9375,-0.23828125
610,0.0,-0.9375,-0.2578125
611,-0.00390625,-0.953125,-0.265625
612,-0.00390625,-0.93359375,-0.25390625
613,0.0,-0.94140625,-0.26171875
614,0.01171875,-0.953125,-0.24609375
615,0.00390625,-0.92578125,-0.23828125
616,0.0,-0.94921875,-0.26171875
617,0.0078125,-0.94140625,-0.2578125
618,0.00390625,-0.953125,-0.25390625
619,0.00390625,-0.94140625,-0.25
620,-0.00390625,-0.9296875,-0.2578125
621,-0.0078125,-0.9375,-0.26953125
622,0.0078125,-0.9296875,-0.2421875
623,-0.00390625,-0.94140625,-0.2734375
624,-0.00390625,-0.9375,-0.265625
625,-0.00390625,-0.953125,-0.265625
626,0.01171875,-0.9453125,-0.25
627,0.01171875,-0.9453125,-0.23828125
628,0.0078125,-0.94140625,-0.24609375
629,0.01953125,-0.95703125,-0.2421875
630,0.0078125,-0.94921875,-0.265625
631,-0.00390625,-0.9453125,-0.26171875
632,0.0,-0.9375,-0.26171875
633,0.00390625,-0.953125,-0.26171875
634,-0.0078125,-0.9375,-0.28125
635,0.0,-0.93359375,-0.2578125
636,0.01953125,-0.953125,-0.29296875
637,0.0078125,-0.9375,-0.265625
638,-0.00390625,-0.93359375,-0.26953125
639,0.0,-0.94140625,-0.25390625
640,-0.00390625,-0.9375,-0.25390625
641,-0.0078125,-0.94921875,-0.265625
642,-0.01171875,-0.9453125,-0.24609375
643,-0.01171875,-0.9375,-0.265625
644,-0.0078125,-0.9609375,-0.26171875
645,0.00390625,-0.94921875,-0.265625
646,0.00390625,-0.9453125,-0.25
647,0.015625,-0.9296875,-0.2265625
648,-0.0078125,-0.9375,-0.27734375
649,-0.00390625,-0.93359375,-0.26953125
650,-0.00390625,-0.93359375,-0.2578125
651,-0.00390625,-0.93359375,-0.2578125
652,0.0,-0.9375,-0.25390625
653,0.0078125,-0.93359375,-0.25
654,0.0,-0.94140625,-0.26953125
655,0.0078125,-0.953125,-0.26953125
656,0.0,-0.92578125,-0.25390625
657,0.00390625,-0.94140625,-0.2734375
658,-0.015625,-0.92578125,-0.2578125
659,-0.00390625,-0.94140625,-0.24609375
660,0.0,-0.94921875,-0.26953125
661,0.00390625,-0.9453125,-0.27734375
662,0.0,-0.9453125,-0.2734375
663,-0.01171875,-0.9375,-0.2578125
664,-0.00390625,-0.9453125,-0.265625
665,0.00390625,-0.93359375,-0.2578125
666,0.00390625,-0.94140625,-0.25
667,-0.00390625,-0.92578125,-0.265625
668,-0.0078125,-0.93359375,-0.26171875
669,-0.01171875,-0.93359375,-0.2734375
670,0.0,-0.94140625,-0.26171875
671,-0.0078125,-0.93359375,-0.26953125
672,-0.00390625,-0.9375,-0.26953125
673,-0.00390625,-0.93359375,-0.2578125
674,-0.00390625,-0.9453125,-0.265625
675,0.00390625,-0.93359375,-0.26953125
676,-0.01171875,-0.9375,-0.28125
677,-0.00390625,-0.92578125,-0.28515625
678,-0.00390625,-0.94140625,-0.27734375
679,-0.00390625,-0.94140625,-0.265625
680,-0.0078125,-0.9453125,-0.26953125
681,0.00390625,-0.921875,-0.265625
682,-0.00390625,-0.9453125,-0.27734375
683,0.0,-0.94140625,-0.2734375
684,0.00390625,-0.94921875,-0.2734375
685,0.01171875,-0.9375,-0.26953125
686,-0.01171875,-0.93359375,-0.265625
687,-0.0078125,-0.9375,-0.27734375
688,0.01171875,-0.94140625,-0.26953125
689,0.00390625,-0.9453125,-0.26953125
690,0.00390625,-0.94921875,-0.2890625
691,-0.0078125,-0.93359375,-0.27734375
692,0.0,-0.93359375,-0.265625
693,-0.00390625,-0.94921875,-0.2734375
694,0.00390625,-0.94921875,-0.28125
695,0.00390625,-0.953125,-0.26953125
696,0.00390625,-0.94140625,-0.26953125
697,0.0,-0.94921875,-0.26953125
698,0.0078125,-0.94140625,-0.26953125
699,0.01171875,-0.9453125,-0.265625
700,0.0078125,-0.94921875,-0.25390625
701,0.015625,-0.94140625,-0.265625
702,-0.0078125,-0.9296875,-0.27734375
703,0.00390625,-0.94921875,-0.26953125
704,0.0,-0.9296875,-0.26953125
705,-0.00390625,-0.94140625,-0.26953125
706,0.00390625,-0.9375,-0.28125
707,0.0078125,-0.94140625,-0.2734375
708,0.0,-0.9375,-0.26953125
709,-0.01171875,-0.9453125,-0.26171875
710,0.00390625,-0.9375,-0.265625
711,-0.00390625,-0.94140625,-0.2734375
712,-0.00390625,-0.9296875,-0.28125
713,-0.00390625,-0.93359375,-0.28515625
714,0.0,-0.93359375,-0.28125
715,-0.00390625,-0.94140625,-0.28125
716,0.00390625,-0.92578125,-0.2734375
717,0.0078125,-0.93359375,-0.28515625
718,-0.00390625,-0.9375,-0.2734375
719,-0.00390625,-0.93359375,-0.27734375
720,-0.01171875,-0.9375,-0.28515625
721,0.0,-0.94140625,-0.265625
722,0.0,-0.94140625,-0.2734375
723,0.015625,-0.94921875,-0.265625
724,-0.00390625,-0.9375,-0.26171875
725,-0.0078125,-0.9453125,-0.27734375
726,-0.0078125,-0.93359375,-0.2734375
727,0.0078125,-0.94140625,-0.27734375
728,0.0078125,-0.9375,-0.28515625
729,0.01953125,-0.9453125,-0.27734375
730,0.01171875,-0.94921875,-0.26171875
731,0.01171875,-0.9375,-0.28125
732,0.01171875,-0.93359375,-0.28125
733,0.0234375,-0.9453125,-0.2734375
734,0.00390625,-0.9453125,-0.2734375
735,0.0078125,-0.93359375,-0.2734375
736,0.0078125,-0.9375,-0.26953125
737,0.0,-0.9453125,-0.26953125
738,0.00390625,-0.94140625,-0.2578125
739,-0.00390625,-0.9375,-0.28125
740,-0.00390625,-0.9453125,-0.27734375
741,-0.0078125,-0.9609375,-0.26171875
742,-0.0078125,-0.95703125,-0.26171875
743,-0.00390625,-0.94140625,-0.26171875
744,-0.01171875,-0.95703125,-0.26953125
745,0.0,-0.953125,-0.26171875
746,0.0,-0.953125,-0.28125
747,0.00390625,-0.9453125,-0.28125
748,0.01953125,-0.94921875,-0.28125
749,0.0078125,-0.9375,-0.26953125
750,-0.00390625,-0.94140625,-0.26953125
751,0.015625,-0.94140625,-0.27734375
752,0.01171875,-0.94140625,-0.28125
753,0.00390625,-0.9375,-0.27734375
754,0.00390625,-0.94921875,-0.265625
755,0.00390625,-0.9296875,-0.28125
756,0.00390625,-0.9375,-0.27734375
757,0.00390625,-0.9453125,-0.26953125
758,0.0,-0.93359375,-0.29296875
759,-0.0078125,-0.93359375,-0.2734375
760,0.0,-0.93359375,-0.28125
761,0.01171875,-0.94921875,-0.28125
762,0.0,-0.9375,-0.28125
763,0.0078125,-0.94140625,-0.265625
764,0.01171875,-0.953125,-0.2578125
765,0.01171875,-0.9453125,-0.26171875
766,0.00390625,-0.94140625,-0.25390625
767,-0.0078125,-0.95703125,-0.265625
768,-0.00390625,-0.9296875,-0.27734375
769,0.01171875,-0.93359375,-0.27734375
770,0.0,-0.93359375,-0.26953125
771,0.0,-0.9296875,-0.2734375
772,0.00390625,-0.94140625,-0.27734375
773,0.0,-0.94140625,-0.265625
774,0.015625,-0.953125,-0.28515625
775,0.015625,-0.93359375,-0.28125
776,-0.00390625,-0.93359375,-0.2734375
777,-0.00390625,-0.94140625,-0.27734375
778,0.0078125,-0.92578125,-0.28515625
779,0.0,-0.94140625,-0.28125
780,0.00390625,-0.93359375,-0.26953125
781,0.00390625,-0.93359375,-0.265625
782,0.0078125,-0.9375,-0.28515625
783,0.0078125,-0.953125,-0.27734375
784,0.0,-0.9453125,-0.26953125
785,0.0078125,-0.9375,-0.28125
786,0.015625,-0.95703125,-0.27734375
787,-0.01171875,-0.9375,-0.28125
788,0.01953125,-0.9453125,-0.2734375
789,-0.0078125,-0.92578125,-0.28125
790,0.00390625,-0.9375,-0.27734375
791,0.0078125,-0.9453125,-0.2734375
792,-0.00390625,-0.9375,-0.2734375
793,0.00390625,-0.9296875,-0.28125
794,-0.00390625,-0.92578125,-0.28125
795,0.00390625,-0.9453125,-0.265625
796,0.0078125,-0.953125,-0.27734375
797,0.01171875,-0.9375,-0.26953125
798,0.0,-0.9453125,-0.265625
799,0.0,-0.93359375,-0.2734375
800,0.00390625,-0.94140625,-0.26953125
801,0.01171875,-0.94140625,-0.28125
802,0.0,-0.92578125,-0.26171875
803,0.0,-0.9296875,-0.2734375
804,0.01171875,-0.93359375,-0.2734375
805,0.0,-0.9296875,-0.265625
806,-0.0078125,-0.93359375,-0.27734375
807,-0.00390625,-0.9453125,-0.2734375
808,0.0,-0.94140625,-0.28515625
809,-0.00390625,-0.94140625,-0.26953125
810,0.0078125,-0.94140625,-0.30078125
811,0.0,-0.89453125,-0.26953125
812,-0.0078125,-0.94140625,-0.2734375
813,-0.00390625,-0.93359375,-0.26953125
814,-0.0078125,-0.93359375,-0.265625
815,-0.0078125,-0.92578125,-0.25390625
816,-0.00390625,-0.921875,-0.26953125
817,-0.00390625,-0.93359375,-0.265625
818,-0.00390625,-0.9453125,-0.26953125
819,0.0078125,-0.94921875,-0.26171875
820,0.00390625,-0.93359375,-0.27734375
821,-0.00390625,-0.9375,-0.28125
822,-0.00390625,-0.93359375,-0.27734375
823,0.0078125,-0.94140625,-0.27734375
824,0.0,-0.9375,-0.2734375
825,-0.0078125,-0.93359375,-0.28125
826,0.0,-0.92578125,-0.2734375
827,0.0,-0.91796875,-0.28125
828,-0.00390625,-0.91796875,-0.28515625
829,0.0,-0.91796875,-0.27734375
830,0.0078125,-0.91015625,-0.28125
831,0.00390625,-0.93359375,-0.28515625
832,0.01953125,-0.90625,-0.25390625
833,0.00390625,-0.9296875,-0.28125
834,0.0078125,-0.921875,-0.27734375
835,0.0078125,-0.91796875,-0.265625
836,0.0078125,-0.921875,-0.27734375
837,0.00390625,-0.921875,-0.27734375
838,0.015625,-0.921875,-0.2734375
839,0.0,-0.92578125,-0.2890625
840,0.0,-0.9375,-0.26953125
841,0.015625,-0.93359375,-0.2890625
842,0.015625,-0.921875,-0.28125
843,0.0,-0.95703125,-0.2734375
844,0.01171875,-0.9453125,-0.26953125
845,0.0078125,-0.9296875,-0.27734375
846,0.015625,-0.92578125,-0.27734375
847,0.01171875,-0.94140625,-0.28125
848,0.01953125,-0.921875,-0.28125
849,0.015625,-0.9296875,-0.27734375
850,0.00390625,-0.9140625,-0.2890625
851,0.015625,-0.9296875,-0.28515625
852,0.0234375,-0.93359375,-0.2734375
853,0.0390625,-0.9375,-0.28515625
854,0.015625,-0.921875,-0.29296875
855,0.03125,-0.91796875,-0.2890625
856,0.03515625,-0.9296875,-0.28125
857,0.03125,-0.9375,-0.2734375
858,0.01953125,-0.9453125,-0.265625
859,0.01953125,-0.94140625,-0.265625
860,0.01953125,-0.953125,-0.26171875
861,0.015625,-0.9609375,-0.25390625
862,0.0234375,-0.94921875,-0.28125
863,0.01171875,-0.94921875,-0.2734375
864,0.0078125,-0.95703125,-0.27734375
865,0.00390625,-0.9765625,-0.26953125
866,0.01171875,-0.94921875,-0.28125
867,0.01171875,-0.9375,-0.27734375
868,0.01171875,-0.9453125,-0.2890625
869,0.0078125,-0.9296875,-0.28125
870,0.01171875,-0.9375,-0.28125
871,0.01171875,-0.9375,-0.28515625
872,0.0078125,-0.94140625,-0.29296875
873,0.02734375,-0.9375,-0.2890625
874,0.0,-0.9453125,-0.28515625
875,0.01171875,-0.921875,-0.2890625
876,0.015625,-0.94921875,-0.28515625
877,0.015625,-0.92578125,-0.28515625
878,0.00390625,-0.92578125,-0.28515625
879,0.00390625,-0.921875,-0.2734375
880,0.01953125,-0.9140625,-0.28125
881,0.0078125,-0.91796875,-0.29296875
882,0.015625,-0.90625,-0.28515625
883,0.015625,-0.9140625,-0.28515625
884,0.0,-0.90625,-0.29296875
885,0.0,-0.890625,-0.29296875
886,-0.0078125,-0.91015625,-0.30859375
887,-0.01171875,-0.89453125,-0.296875
888,-0.0078125,-0.90625,-0.29296875
889,-0.01171875,-0.9140625,-0.30078125
890,-0.015625,-0.9140625,-0.3046875
891,-0.0078125,-0.9296875,-0.28515625
892,-0.015625,-0.9375,-0.30078125
893,-0.01171875,-0.9453125,-0.28125
894,-0.0078125,-0.9453125,-0.28515625
895,0.0,-0.96875,-0.29296875
896,-0.01171875,-0.9609375,-0.2890625
897,-0.00390625,-0.97265625,-0.29296875
898,-0.00390625,-0.97265625,-0.29296875
899,0.0078125,-0.92578125,-0.328125
900,0.0078125,-0.91796875,-0.328125
901,-0.00390625,-0.9140625,-0.32421875
902,0.0078125,-0.90234375,-0.328125
903,0.00390625,-0.90234375,-0.31640625
904,0.0078125,-0.8984375,-0.33984375
905,0.00390625,-0.90234375,-0.3203125
906,0.00390625,-0.90234375,-0.33203125
907,0.00390625,-0.8984375,-0.328125
908,0.00390625,-0.8984375,-0.3359375
909,-0.01171875,-0.8984375,-0.32421875
910,-0.015625,-0.8984375,-0.3203125
911,-0.01171875,-0.90625,-0.32421875
912,-0.015625,-0.90234375,-0.3203125
913,-0.0234375,-0.91796875,-0.31640625
914,-0.015625,-0.921875,-0.3203125
915,-0.01953125,-0.91796875,-0.3203125
916,-0.01171875,-0.9375,-0.32421875
917,-0.02734375,-0.92578125,-0.32421875
918,-0.0234375,-0.9140625,-0.33203125
919,-0.046875,-0.9140625,-0.3515625
920,-0.01953125,-0.921875,-0.31640625
921,-0.015625,-0.91796875,-0.3359375
922,-0.01171875,-0.91796875,-0.35546875
923,-0.015625,-0.91015625,-0.33984375
924,-0.01953125,-0.91015625,-0.34765625
925,-0.03125,-0.890625,-0.33984375
926,-0.01171875,-0.89453125,-0.328125
927,-0.015625,-0.90625,-0.328125
928,-0.01171875,-0.88671875,-0.35546875
929,-0.02734375,-0.875,-0.34765625
930,0.00390625,-0.890625,-0.3828125
931,-0.015625,-0.8671875,-0.3515625
932,0.0078125,-0.8828125,-0.33984375
933,0.0,-0.875,-0.34375
934,0.01171875,-0.8828125,-0.35546875
935,0.0,-0.8828125,-0.34765625
936,0.01171875,-0.87890625,-0.35546875
937,0.01171875,-0.87109375,-0.359375
938,-0.00390625,-0.8828125,-0.359375
939,0.0,-0.88671875,-0.34375
940,0.00390625,-0.8671875,-0.33203125
941,-0.00390625,-0.90234375,-0.3671875
942,-0.01171875,-0.8984375,-0.359375
943,-0.01171875,-0.89453125,-0.3515625
944,-0.00390625,-0.890625,-0.33984375
945,-0.00390625,-0.90234375,-0.3515625
946,0.00390625,-0.91015625,-0.3515625
947,-0.00390625,-0.90234375,-0.35546875
948,-0.0078125,-0.8984375,-0.3828125
949,0.0078125,-0.91015625,-0.37109375
950,-0.01171875,-0.9140625,-0.36328125
951,-0.01171875,-0.92578125,-0.35546875
952,-0.00390625,-0.92578125,-0.34375
953,-0.01171875,-0.90625,-0.375
954,-0.01171875,-0.9140625,-0.3671875
955,-0.01171875,-0.90625,-0.37890625
956,-0.015625,-0.90625,-0.375
957,-0.015625,-0.89453125,-0.37890625
958,-0.015625,-0.89453125,-0.375
959,-0.015625,-0.89453125,-0.33984375
960,-0.01171875,-0.890625,-0.3515625
961,-0.01953125,-0.90625,-0.35546875
962,-0.02734375,-0.8984375,-0.35546875
963,-0.00390625,-0.92578125,-0.3515625
964,-0.03125,-0.9140625,-0.375
965,-0.015625,-0.9140625,-0.3671875
966,-0.015625,-0.90625,-0.36328125
967,-0.01953125,-0.90625,-0.3828125
968,-0.01171875,-0.90234375,-0.375
969,-0.01171875,-0.88671875,-0.37109375
970,0.0078125,-0.9140625,-0.375
971,0.01171875,-0.88671875,-0.37109375
972,-0.00390625,-0.87890625,-0.37109375
973,0.01171875,-0.8828125,-0.3671875
974,-0.00390625,-0.8828125,-0.390625
975,0.01953125,-0.87890625,-0.38671875
976,0.0234375,-0.88671875,-0.3984375
977,0.015625,-0.8828125,-0.37890625
978,0.03515625,-0.88671875,-0.390625
979,0.03125,-0.8828125,-0.38671875
980,0.03515625,-0.875,-0.40625
981,0.0390625,-0.87109375,-0.38671875
982,0.03125,-0.875,-0.38671875
983,0.01953125,-0.87109375,-0.3671875
984,0.01953125,-0.87890625,-0.38671875
985,0.0,-0.87109375,-0.40625
986,0.01171875,-0.875,-0.3828125
987,0.0,-0.875,-0.390625
988,-0.0078125,-0.88671875,-0.40234375
989,0.00390625,-0.88671875,-0.41015625
990,-0.00390625,-0.8828125,-0.41015625
991,-0.00390625,-0.90625,-0.40234375
992,-0.0078125,-0.87890625,-0.41015625
993,0.0078125,-0.88671875,-0.40234375
994,-0.0078125,-0.8984375,-0.41015625
995,0.00390625,-0.88671875,-0.41015625
996,0.00390625,-0.890625,-0.4140625
997,-0.0078125,-0.87109375,-0.41796875
998,0.0,-0.890625,-0.41796875
999,-0.00390625,-0.88671875,-0.40234375
1000,-0.01171875,-0.89453125,-0.41796875
1001,0.0,-0.890625,-0.41796875
1002,-0.0078125,-0.8984375,-0.41015625
1003,-0.015625,-0.90234375,-0.4140625
1004,-0.00390625,-0.89453125,-0.40234375
1005,0.0,-0.89453125,-0.40234375
1006,-0.00390625,-0.89453125,-0.41796875
1007,-0.00390625,-0.90234375,-0.42578125
1008,-0.00390625,-0.89453125,-0.41015625
1009,-0.00390625,-0.89453125,-0.4140625
1010,-0.015625,-0.90625,-0.4140625
1011,-0.01171875,-0.89453125,-0.41015625
1012,-0.015625,-0.88671875,-0.421875
1013,-0.0078125,-0.890625,-0.421875
1014,-0.015625,-0.875,-0.43359375
1015,-0.015625,-0.87890625,-0.421875
1016,-0.0078125,-0.87890625,-0.4375
1017,-0.0234375,-0.87109375,-0.4453125
1018,-0.01171875,-0.87109375,-0.47265625
1019,-0.01171875,-0.875,-0.4453125
1020,-0.015625,-0.8671875,-0.4296875
1021,-0.01171875,-0.875,-0.421875
1022,0.0,-0.890625,-0.4375
1023,0.0078125,-0.88671875,-0.4375
1024,0.0,-0.875,-0.42578125
1025,0.0,-0.87890625,-0.44140625
1026,0.0,-0.88671875,-0.44921875
1027,0.01953125,-0.87109375,-0.45703125
1028,0.0,-0.89453125,-0.4296875
1029,0.01171875,-0.890625,-0.421875
1030,0.015625,-0.89453125,-0.42578125
1031,0.0,-0.88671875,-0.42578125
1032,-0.00390625,-0.89453125,-0.4453125
1033,0.00390625,-0.89453125,-0.4453125
1034,-0.00390625,-0.88671875,-0.46875
1035,-0.01171875,-0.88671875,-0.4609375
1036,-0.01171875,-0.8984375,-0.4453125
1037,-0.00390625,-0.88671875,-0.46484375
1038,-0.015625,-0.8828125,-0.44921875
1039,0.0,-0.875,-0.43359375
1040,-0.015625,-0.8515625,-0.45703125
1041,-0.0078125,-0.83984375,-0.46484375
1042,-0.01171875,-0.8515625,-0.4609375
1043,-0.01171875,-0.83984375,-0.453125
1044,-0.01171875,-0.84375,-0.4453125
1045,-0.00390625,-0.8359375,-0.4453125
1046,0.00390625,-0.83984375,-0.4453125
1047,0.00390625,-0.82421875,-0.43359375
1048,0.00390625,-0.82421875,-0.45703125
1049,0.015625,-0.83203125,-0.4453125
1050,-0.00390625,-0.796875,-0.46875
1051,0.01171875,-0.80859375,-0.453125
1052,0.015625,-0.8125,-0.4453125
1053,0.0390625,-0.8125,-0.4609375
1054,0.04296875,-0.8125,-0.484375
1055,0.03515625,-0.82421875,-0.4609375
1056,0.05078125,-0.82421875,-0.46484375
1057,0.0390625,-0.8203125,-0.46875
1058,0.0546875,-0.83203125,-0.46875
1059,0.05859375,-0.828125,-0.48046875
1060,0.05078125,-0.83203125,-0.48046875
1061,0.03125,-0.83984375,-0.50390625
1062,0.05078125,-0.83984375,-0.46484375
1063,0.05078125,-0.85546875,-0.484375
1064,0.0390625,-0.84375,-0.5078125
1065,0.04296875,-0.84375,-0.4921875
1066,0.04296875,-0.8359375,-0.5
1067,0.02734375,-0.828125,-0.5078125
1068,0.0390625,-0.828125,-0.5078125
1069,0.0390625,-0.828125,-0.484375
1070,0.03125,-0.82421875,-0.48828125
1071,0.04296875,-0.80078125,-0.5078125
1072,0.046875,-0.8046875,-0.515625
1073,0.04296875,-0.7890625,-0.51171875
1074,0.046875,-0.796875,-0.49609375
1075,0.0546875,-0.79296875,-0.48828125
1076,0.04296875,-0.796875,-0.5
1077,0.03515625,-0.796875,-0.48046875
1078,0.046875,-0.796875,-0.49609375
1079,0.04296875,-0.80859375,-0.5
1080,0.0390625,-0.80078125,-0.51171875
1081,0.05859375,-0.8046875,-0.53515625
1082,0.04296875,-0.79296875,-0.515625
1083,0.04296875,-0.82421875,-0.515625
1084,0.0625,-0.828125,-0.49609375
1085,0.06640625,-0.828125,-0.5078125
1086,0.0625,-0.83203125,-0.5078125
1087,0.05859375,-0.83984375,-0.515625
1088,0.06640625,-0.83984375,-0.51953125
1089,0.05078125,-0.83203125,-0.515625
1090,0.05078125,-0.8203125,-0.51171875
1091,0.04296875,-0.8203125,-0.53125
1092,0.0625,-0.8203125,-0.515625
1093,0.0390625,-0.80859375,-0.5234375
1094,0.0625,-0.80078125,-0.52734375
1095,0.0546875,-0.80859375,-0.51953125
1096,0.04296875,-0.79296875,-0.53515625
1097,0.046875,-0.79296875,-0.53125
1098,0.0546875,-0.8046875,-0.53515625
1099,0.03515625,-0.7890625,-0.53515625
1100,0.04296875,-0.80078125,-0.53515625
1101,0.046875,-0.8046875,-0.53125
1102,0.03515625,-0.80859375,-0.53515625
1103,0.05859375,-0.8203125,-0.5390625
1104,0.05859375,-0.8125,-0.5234375
1105,0.02734375,-0.8046875,-0.53515625
1106,0.046875,-0.83203125,-0.52734375
1107,0.05078125,-0.82421875,-0.5234375
1108,0.06640625,-0.828125,-0.51953125
1109,0.0703125,-0.84375,-0.51953125
1110,0.06640625,-0.84375,-0.50390625
1111,0.06640625,-0.84375,-0.51953125
1112,0.05859375,-0.83984375,-0.515625
1113,0.07421875,-0.8515625,-0.51953125
1114,0.07421875,-0.84375,-0.51171875
1115,0.0625,-0.83984375,-0.53125
1116,0.0859375,-0.85546875,-0.5
1117,0.06640625,-0.80859375,-0.52734375
1118,0.07421875,-0.8125,-0.53125
1119,0.0703125,-0.80078125,-0.5390625
1120,0.07421875,-0.80078125,-0.54296875
1121,0.07421875,-0.8046875,-0.5703125
1122,0.0625,-0.8125,-0.5703125
1123,0.0703125,-0.82421875,-0.55859375
1124,0.07421875,-0.8203125,-0.55859375
1125,0.07421875,-0.83984375,-0.5546875
1126,0.08203125,-0.84375,-0.53515625
1127,0.06640625,-0.84765625,-0.54296875
1128,0.0703125,-0.86328125,-0.5390625
1129,0.0703125,-0.85546875,-0.5546875
1130,0.078125,-0.87109375,-0.53515625
1131,0.05859375,-0.875,-0.546875
1132,0.05859375,-0.86328125,-0.5390625
1133,0.0625,-0.8515625,-0.54296875
1134,0.0546875,-0.8671875,-0.546875
1135,0.06640625,-0.84765625,-0.5703125
1136,0.0390625,-0.84375,-0.55859375
1137,0.046875,-0.83984375,-0.546875
1138,0.0390625,-0.82421875,-0.55078125
1139,0.0546875,-0.8203125,-0.57421875
1140,0.05859375,-0.80859375,-0.57421875
1141,0.0546875,-0.8125,-0.5703125
1142,0.05859375,-0.80078125,-0.58203125
1143,0.0625,-0.8125,-0.56640625
1144,0.0703125,-0.82421875,-0.56640625
1145,0.05859375,-0.83203125,-0.57421875
1146,0.07421875,-0.83203125,-0.546875
1147,0.1015625,-0.83984375,-0.5546875
1148,0.09375,-0.84765625,-0.58203125
1149,0.0859375,-0.84765625,-0.54296875
1150,0.078125,-0.86328125,-0.55078125
1151,0.0625,-0.8515625,-0.546875
1152,0.07421875,-0.84375,-0.5390625
1153,0.0859375,-0.8515625,-0.5703125
1154,0.07421875,-0.84375,-0.54296875
1155,0.078125,-0.84765625,-0.5546875
1156,0.0625,-0.84765625,-0.55078125
1157,0.0703125,-0.8359375,-0.5390625
1158,0.07421875,-0.83203125,-0.55078125
1159,0.08984375,-0.81640625,-0.53515625
1160,0.0703125,-0.81640625,-0.53515625
1161,0.06640625,-0.8046875,-0.5234375
1162,0.0703125,-0.80078125,-0.53125
1163,0.06640625,-0.7890625,-0.52734375
1164,0.0625,-0.78515625,-0.5390625
1165,0.0625,-0.79296875,-0.5390625
1166,0.06640625,-0.78125,-0.53515625
1167,0.078125,-0.7890625,-0.55078125
1168,0.0703125,-0.80078125,-0.5546875
1169,0.1015625,-0.79296875,-0.5390625
1170,0.08203125,-0.78515625,-0.58203125
1171,0.10546875,-0.78125,-0.5546875
1172,0.10546875,-0.76953125,-0.56640625
1173,0.12890625,-0.77734375,-0.5703125
1174,0.109375,-0.78125,-0.56640625
1175,0.125,-0.77734375,-0.5625
1176,0.125,-0.76953125,-0.5625
1177,0.1171875,-0.76953125,-0.5625
1178,0.11328125,-0.7734375,-0.55859375
1179,0.109375,-0.77734375,-0.5625
1180,0.109375,-0.80078125,-0.546875
1181,0.10546875,-0.80078125,-0.56640625
1182,0.10546875,-0.80859375,-0.5546875
1183,0.12109375,-0.82421875,-0.55859375
1184,0.1015625,-0.8203125,-0.55859375
1185,0.10546875,-0.828125,-0.55859375
1186,0.10546875,-0.8359375,-0.55078125
1187,0.109375,-0.828125,-0.53125
1188,0.09375,-0.8125,-0.53125
1189,0.1171875,-0.81640625,-0.51953125
1190,0.09765625,-0.81640625,-0.5234375
1191,0.109375,-0.80859375,-0.52734375
1192,0.09765625,-0.79296875,-0.484375
1193,0.08203125,-0.78515625,-0.5234375
1194,0.0859375,-0.78515625,-0.51171875
1195,0.0859375,-0.7890625,-0.51953125
1196,0.09375,-0.7890625,-0.52734375
1197,0.0703125,-0.78515625,-0.53125
1198,0.078125,-0.78125,-0.5234375
1199,0.0625,-0.78515625,-0.51953125
1200,0.07421875,-0.77734375,-0.515625
1201,0.06640625,-0.7890625,-0.50390625
1202,0.06640625,-0.78125,-0.50390625
1203,0.09765625,-0.80859375,-0.51953125
1204,0.0703125,-0.80859375,-0.48828125
1205,0.0703125,-0.796875,-0.5078125
1206,0.078125,-0.80078125,-0.5
1207,0.07421875,-0.80078125,-0.48828125
1208,0.08203125,-0.80859375,-0.51171875
1209,0.07421875,-0.81640625,-0.4921875
1210,0.07421875,-0.82421875,-0.515625
1211,0.07421875,-0.828125,-0.5
1212,0.0859375,-0.8359375,-0.49609375
1213,0.0625,-0.82421875,-0.48046875
1214,0.0859375,-0.84765625,-0.50390625
1215,0.1015625,-0.84765625,-0.484375
1216,0.09375,-0.84375,-0.5078125
1217,0.09375,-0.85546875,-0.4921875
1218,0.10546875,-0.83984375,-0.5078125
1219,0.09375,-0.85546875,-0.515625
1220,0.09375,-0.84765625,-0.53125
1221,0.1015625,-0.83984375,-0.53125
1222,0.0859375,-0.83984375,-0.5390625
1223,0.1015625,-0.8359375,-0.5390625
1224,0.09765625,-0.84375,-0.515625
1225,0.08984375,-0.8203125,-0.50390625
1226,0.0859375,-0.83203125,-0.53125
1227,0.09765625,-0.82421875,-0.53515625
1228,0.09765625,-0.81640625,-0.55078125
1229,0.08203125,-0.83203125,-0.546875
1230,0.0859375,-0.84375,-0.53125
1231,0.0625,-0.84375,-0.54296875
1232,0.0546875,-0.83984375,-0.53515625
1233,0.05078125,-0.84765625,-0.52734375
1234,0.046875,-0.84375,-0.5078125
1235,0.05859375,-0.82421875,-0.515625
1236,0.03515625,-0.8359375,-0.52734375
1237,0.046875,-0.84375,-0.53125
1238,0.04296875,-0.83984375,-0.53125
1239,0.05078125,-0.8359375,-0.53515625
1240,0.078125,-0.83984375,-0.53125
1241,0.0859375,-0.85546875,-0.5546875
1242,0.10546875,-0.8671875,-0.5390625
1243,0.09765625,-0.84375,-0.5390625
1244,0.11328125,-0.859375,-0.55078125
1245,0.11328125,-0.85546875,-0.546875
1246,0.10546875,-0.85546875,-0.54296875
1247,0.12109375,-0.83984375,-0.53515625
1248,0.12890625,-0.83984375,-0.53515625
1249,0.12890625,-0.83203125,-0.53515625
1250,0.1328125,-0.82421875,-0.53125
1251,0.1171875,-0.828125,-0.5390625
1252,0.109375,-0.83984375,-0.52734375
1253,0.109375,-0.83984375,-0.53125
1254,0.09765625,-0.83984375,-0.53515625
1255,0.09765625,-0.828125,-0.546875
1256,0.08203125,-0.83984375,-0.55859375
1257,0.0625,-0.8359375,-0.5703125
1258,0.0390625,-0.8359375,-0.5546875
1259,0.02734375,-0.84375,-0.5625
1260,0.00390625,-0.85546875,-0.5625
1261,-0.01171875,-0.8515625,-0.54296875
1262,-0.015625,-0.84375,-0.55078125
1263,-0.0234375,-0.84765625,-0.5546875
1264,-0.0234375,-0.8515625,-0.54296875
1265,-0.03125,-0.85546875,-0.5390625
1266,-0.0078125,-0.87109375,-0.5234375
1267,0.0,-0.8671875,-0.55078125
1268,0.01171875,-0.86328125,-0.5546875
1269,0.01171875,-0.890625,-0.5390625
1270,0.03125,-0.859375,-0.52734375
1271,0.0390625,-0.86328125,-0.54296875
1272,0.0625,-0.87109375,-0.5390625
1273,0.06640625,-0.8671875,-0.55078125
1274,0.05859375,-0.8359375,-0.52734375
1275,0.0546875,-0.83984375,-0.52734375
1276,0.05859375,-0.8125,-0.53125
1277,0.0390625,-0.80078125,-0.52734375
1278,0.046875,-0.80859375,-0.52734375
1279,0.046875,-0.8046875,-0.52734375
1280,0.0625,-0.80078125,-0.51953125
1281,0.0625,-0.80078125,-0.52734375
1282,0.0546875,-0.80859375,-0.5078125
1283,0.0546875,-0.8203125,-0.51171875
1284,0.05078125,-0.828125,-0.51953125
1285,0.03125,-0.8515625,-0.50390625
1286,0.04296875,-0.859375,-0.5078125
1287,0.04296875,-0.87109375,-0.53125
1288,0.05078125,-0.87890625,-0.51171875
1289,0.0546875,-0.890625,-0.5078125
1290,0.0390625,-0.8828125,-0.49609375
1291,0.0546875,-0.88671875,-0.50390625
1292,0.04296875,-0.8515625,-0.5
1293,0.05859375,-0.86328125,-0.50390625
1294,0.0625,-0.859375,-0.5
1295,0.0625,-0.8515625,-0.48828125
1296,0.08203125,-0.86328125,-0.5078125
1297,0.06640625,-0.85546875,-0.5
1298,0.0703125,-0.86328125,-0.49609375
1299,0.06640625,-0.8828125,-0.49609375
1300,0.08984375,-0.90234375,-0.484375
1301,0.06640625,-0.890625,-0.50390625
1302,0.08203125,-0.890625,-0.484375
1303,0.0703125,-0.8984375,-0.4921875
1304,0.06640625,-0.90625,-0.4921875
1305,0.0546875,-0.8984375,-0.4921875
1306,0.06640625,-0.8984375,-0.48046875
1307,0.05859375,-0.8984375,-0.48046875
1308,0.05078125,-0.89453125,-0.47265625
1309,0.05859375,-0.87109375,-0.47265625
1310,0.07421875,-0.87890625,-0.4609375
1311,0.05859375,-0.87890625,-0.45703125
1312,0.0625,-0.87890625,-0.48046875
1313,0.08203125,-0.87890625,-0.45703125
1314,0.05859375,-0.86328125,-0.4765625
1315,0.06640625,-0.88671875,-0.4765625
1316,0.0625,-0.91796875,-0.46484375
1317,0.05859375,-0.91796875,-0.46875
1318,0.04296875,-0.91015625,-0.46875
1319,0.05078125,-0.9140625,-0.46484375
1320,0.046875,-0.91796875,-0.46875
1321,0.04296875,-0.921875,-0.47265625
1322,0.04296875,-0.91796875,-0.48046875
1323,0.07421875,-0.90625,-0.46484375
1324,0.01953125,-0.90234375,-0.49609375
1325,0.05078125,-0.9140625,-0.484375
1326,0.015625,-0.90625,-0.51171875
1327,0.046875,-0.91015625,-0.48046875
1328,0.04296875,-0.90625,-0.47265625
1329,0.06640625,-0.91796875,-0.46484375
1330,0.05078125,-0.9296875,-0.4609375
1331,0.0546875,-0.9140625,-0.47265625
1332,0.05859375,-0.8984375,-0.4609375
1333,0.09375,-0.921875,-0.44140625
1334,0.0859375,-0.90625,-0.4375
1335,0.0546875,-0.890625,-0.45703125
1336,0.08203125,-0.90625,-0.4375
1337,0.02734375,-0.890625,-0.4375
1338,0.046875,-0.89453125,-0.42578125
1339,0.05078125,-0.8984375,-0.421875
1340,0.03125,-0.90234375,-0.421875
1341,0.03125,-0.8984375,-0.4140625
1342,0.03515625,-0.90234375,-0.421875
1343,0.01171875,-0.890625,-0.41015625
1344,0.0078125,-0.8984375,-0.4375
1345,0.0078125,-0.890625,-0.41796875
1346,-0.015625,-0.85546875,-0.43359375
1347,0.00390625,-0.875,-0.4375
1348,0.01953125,-0.8828125,-0.43359375
1349,0.01953125,-0.88671875,-0.421875
1350,0.01171875,-0.890625,-0.40234375
1351,-0.0078125,-0.8828125,-0.41015625
1352,-0.00390625,-0.86328125,-0.43359375
1353,0.015625,-0.89453125,-0.40625
1354,0.03125,-0.8984375,-0.39453125
1355,0.0234375,-0.91796875,-0.38671875
1356,0.03125,-0.89453125,-0.40625
1357,0.0390625,-0.8984375,-0.40625
1358,0.04296875,-0.90234375,-0.40625
1359,0.03515625,-0.89453125,-0.40234375
1360,0.0546875,-0.91015625,-0.39453125
1361,0.0234375,-0.9140625,-0.421875
1362,0.02734375,-0.8984375,-0.4296875
1363,0.0234375,-0.91796875,-0.40234375
1364,0.03125,-0.9140625,-0.39453125
1365,0.03125,-0.921875,-0.4140625
1366,0.04296875,-0.95703125,-0.3515625
1367,0.03125,-0.94140625,-0.375
1368,0.03125,-0.9296875,-0.39453125
1369,0.01171875,-0.9296875,-0.37890625
1370,0.0625,-0.94921875,-0.35546875
1371,0.03125,-0.9375,-0.3515625
1372,0.03125,-0.94140625,-0.34765625
1373,0.05859375,-0.96484375,-0.34765625
1374,0.07421875,-0.94921875,-0.34765625
1375,0.03515625,-0.94921875,-0.328125
1376,0.0390625,-0.921875,-0.34375
1377,0.05078125,-0.93359375,-0.31640625
1378,0.05078125,-0.9296875,-0.3125
1379,0.0625,-0.9375,-0.32421875
1380,0.0703125,-0.9609375,-0.30859375
1381,0.04296875,-0.94921875,-0.30859375
1382,0.046875,-0.94921875,-0.29296875
1383,0.0546875,-0.94140625,-0.30078125
1384,0.04296875,-0.94921875,-0.296875
1385,0.0234375,-0.94140625,-0.2890625
1386,0.0234375,-0.9453125,-0.2734375
1387,0.04296875,-0.9453125,-0.26953125
1388,0.00390625,-0.94140625,-0.30078125
1389,0.0390625,-0.94140625,-0.28515625
1390,0.0234375,-0.9375,-0.28515625
1391,0.00390625,-0.9375,-0.2734375
1392,0.0078125,-0.92578125,-0.28515625
1393,0.0,-0.90234375,-0.29296875
1394,0.015625,-0.91796875,-0.29296875
1395,0.03125,-0.94140625,-0.265625
1396,0.0234375,-0.9453125,-0.25390625
1397,0.0078125,-0.953125,-0.2734375
1398,0.01171875,-0.9375,-0.296875
1399,0.015625,-0.9296875,-0.27734375
1400,0.01953125,-0.94140625,-0.26953125
1401,0.0078125,-0.93359375,-0.26953125
1402,0.015625,-0.93359375,-0.26171875
1403,0.0,-0.94140625,-0.2734375
1404,0.0,-0.94921875,-0.2578125
1405,0.01953125,-0.953125,-0.2578125
1406,-0.00390625,-0.9453125,-0.2734375
1407,0.01171875,-0.9453125,-0.26171875
1408,0.00390625,-0.95703125,-0.2421875
1409,0.00390625,-0.94140625,-0.26171875
1410,-0.0078125,-0.94921875,-0.23828125
1411,0.015625,-0.9453125,-0.25390625
1412,0.00390625,-0.9453125,-0.25390625
1413,0.00390625,-0.94921875,-0.265625
1414,0.01171875,-0.9609375,-0.26953125
1415,0.0078125,-0.94921875,-0.265625
1416,0.0078125,-0.95703125,-0.234375
1417,0.015625,-0.97265625,-0.24609375
1418,0.015625,-0.97265625,-0.23828125
1419,0.01171875,-0.9765625,-0.21484375
1420,0.01953125,-0.98046875,-0.2109375
1421,0.01953125,-0.95703125,-0.21875
1422,0.015625,-0.96875,-0.19140625
1423,0.02734375,-0.96484375,-0.15625
1424,0.02734375,-0.95703125,-0.16015625
1425,0.0234375,-0.94921875,-0.1640625
1426,0.03515625,-0.95703125,-0.1484375
1427,0.0234375,-0.9375,-0.1484375
1428,0.03125,-0.94921875,-0.1796875
1429,0.03125,-0.9453125,-0.1640625
1430,0.02734375,-0.94921875,-0.15234375
1431,0.02734375,-0.95703125,-0.15625
1432,0.03515625,-0.953125,-0.13671875
1433,0.02734375,-0.96484375,-0.14453125
1434,0.0234375,-0.9609375,-0.13671875
1435,0.01953125,-0.953125,-0.13671875
1436,0.0234375,-0.96875,-0.15234375
1437,0.01953125,-0.97265625,-0.1171875
1438,0.03515625,-0.9765625,-0.12109375
1439,0.01171875,-0.96875,-0.12109375
1440,0.0234375,-0.96875,-0.09375
1441,0.01953125,-0.9609375,-0.08203125
1442,0.0078125,-0.9765625,-0.06640625
1443,0.03515625,-0.98046875,-0.08203125
1444,0.01953125,-0.98046875,-0.0703125
1445,0.015625,-0.97265625,-0.078125
1446,0.01171875,-0.9765625,-0.08984375
1447,0.01953125,-0.96484375,-0.078125
1448,0.01953125,-0.96484375,-0.07421875
1449,0.01953125,-0.96484375,-0.06640625
1450,0.03515625,-0.95703125,-0.0703125
1451,0.03515625,-0.98046875,-0.05078125
1452,0.03515625,-0.97265625,-0.0703125
1453,0.01953125,-0.984375,-0.0546875
1454,0.03125,-0.96875,-0.05859375
1455,0.03515625,-0.96484375,-0.05078125
1456,0.0390625,-0.9765625,-0.0703125
1457,0.04296875,-0.97265625,-0.046875
1458,0.03515625,-0.95703125,-0.05859375
1459,0.03515625,-0.97265625,-0.0546875
1460,0.01171875,-0.94921875,-0.06640625
1461,0.03515625,-0.96875,-0.05078125
1462,0.03125,-0.95703125,-0.0546875
1463,0.00390625,-0.9375,-0.05859375
1464,0.01953125,-0.97265625,-0.03515625
1465,0.0234375,-0.97265625,-0.03515625
1466,0.01953125,-0.98046875,-0.05078125
1467,0.015625,-0.96484375,-0.04296875
1468,0.0078125,-0.97265625,-0.03515625
1469,0.0078125,-0.95703125,-0.02734375
1470,0.0078125,-0.953125,-0.0234375
1471,0.00390625,-0.96484375,-0.02734375
1472,0.01171875,-0.94921875,-0.02734375
1473,0.0078125,-0.94140625,-0.01171875
1474,0.0234375,-0.94921875,-0.0078125
1475,0.01953125,-0.9453125,-0.01953125
1476,0.01953125,-0.94921875,-0.015625
1477,0.0234375,-0.953125,-0.00390625
1478,0.03125,-0.94921875,-0.015625
1479,0.03515625,-0.95703125,-0.01171875
1480,0.0234375,-0.9609375,-0.00390625
1481,0.01953125,-0.9609375,0.00390625
1482,0.046875,-0.97265625,0.0
1483,0.02734375,-0.9765625,0.01171875
1484,0.03125,-0.97265625,-0.00390625
1485,0.0234375,-0.9765625,0.01953125
1486,0.03515625,-0.9765625,0.0078125
1487,0.03515625,-0.984375,0.0078125
1488,0.02734375,-0.98046875,0.015625
1489,0.0234375,-0.96875,0.0078125
1490,0.02734375,-0.97265625,0.02734375
1491,0.015625,-0.95703125,0.0078125
1492,0.01953125,-0.96484375,0.015625
1493,0.015625,-0.95703125,0.03125
1494,0.00390625,-0.9453125,0.03125
1495,-0.00390625,-0.953125,0.03125
1496,0.01953125,-0.94140625,0.046875
1497,0.01953125,-0.9453125,0.04296875
1498,0.01953125,-0.9453125,0.02734375
1499,0.0234375,-0.953125,0.0390625
1500,0.01953125,-0.953125,0.03125
1501,0.0234375,-0.95703125,0.04296875
1502,0.01953125,-0.95703125,0.04296875
1503,0.01953125,-0.96484375,0.0234375
1504,0.015625,-0.95703125,0.04296875
1505,0.02734375,-0.97265625,0.05078125
1506,0.0078125,-0.95703125,0.0546875
1507,0.0078125,-0.96875,0.05078125
1508,0.015625,-0.96875,0.05859375
1509,0.02734375,-0.96484375,0.05078125
1510,0.0234375,-0.97265625,0.05859375
1511,0.01953125,-0.97265625,0.04296875
1512,0.0234375,-0.95703125,0.03515625
1513,0.01953125,-0.96875,0.0546875
1514,0.015625,-0.95703125,0.06640625
1515,0.0234375,-0.96875,0.0703125
1516,0.01171875,-0.96484375,0.0625
1517,0.0078125,-0.9765625,0.08203125
1518,0.0078125,-0.96484375,0.0703125
1519,0.015625,-0.97265625,0.05078125
1520,0.00390625,-0.95703125,0.05859375
1521,0.015625,-0.96484375,0.0625
1522,0.01171875,-0.94921875,0.0625
1523,0.01171875,-0.953125,0.0625
1524,0.015625,-0.9765625,0.046875
1525,0.01953125,-0.953125,0.0625
1526,0.0,-0.9453125,0.05078125
1527,0.0078125,-0.94921875,0.05859375
1528,0.0078125,-0.94140625,0.07421875
1529,0.015625,-0.95703125,0.05859375
1530,0.015625,-0.96484375,0.0625
1531,0.01953125,-0.96484375,0.0625
1532,-0.00390625,-0.953125,0.0703125
1533,0.00390625,-0.96875,0.07421875
1534,0.0078125,-0.97265625,0.0703125
1535,0.01953125,-0.96484375,0.05078125
1536,0.0,-0.95703125,0.0625
1537,0.0,-0.95703125,0.05078125
1538,0.0078125,-0.9765625,0.0546875
1539,0.00390625,-0.9609375,0.05859375
1540,0.0234375,-0.98046875,0.046875
1541,0.01953125,-0.96875,0.06640625
1542,0.01171875,-0.96875,0.05078125
1543,0.01953125,-0.953125,0.06640625
1544,0.015625,-0.9609375,0.0703125
1545,0.01953125,-0.95703125,0.08984375
1546,0.03125,-0.96875,0.078125
1547,0.00390625,-0.94921875,0.0859375
1548,0.03515625,-0.95703125,0.0859375
1549,0.015625,-0.94140625,0.0703125
1550,0.01171875,-0.94921875,0.0703125
1551,0.03125,-0.9609375,0.078125
1552,0.01171875,-0.94921875,0.078125
1553,0.01953125,-0.95703125,0.078125
1554,0.015625,-0.96484375,0.08984375
1555,0.01953125,-0.9453125,0.09375
1556,0.01953125,-0.953125,0.08984375
1557,0.015625,-0.9453125,0.07421875
1558,0.01953125,-0.9609375,0.07421875
1559,0.015625,-0.96875,0.09375
1560,0.03125,-0.95703125,0.0625
1561,0.01953125,-0.96484375,0.08984375
1562,0.0078125,-0.94921875,0.0859375
1563,0.0234375,-0.96484375,0.0859375
1564,0.015625,-0.9609375,0.0859375
1565,0.01953125,-0.953125,0.0859375
1566,0.0234375,-0.96875,0.1015625
1567,0.01953125,-0.97265625,0.09375
1568,0.00390625,-0.95703125,0.08203125
1569,0.0078125,-0.9609375,0.1015625
1570,0.00390625,-0.96484375,0.08984375
1571,0.0,-0.953125,0.07421875
1572,0.01953125,-0.9609375,0.078125
1573,0.00390625,-0.95703125,0.08203125
1574,0.01953125,-0.96484375,0.07421875
1575,0.00390625,-0.953125,0.09375
1576,0.0078125,-0.96484375,0.0703125
1577,0.0,-0.95703125,0.0859375
1578,0.01171875,-0.9609375,0.0859375
1579,0.0078125,-0.96484375,0.0859375
1580,0.015625,-0.9609375,0.0859375
1581,0.0078125,-0.9609375,0.09375
1582,0.0078125,-0.96875,0.05078125
1583,-0.00390625,-0.94921875,0.08203125
1584,0.00390625,-0.96484375,0.07421875
1585,-0.00390625,-0.96875,0.08984375
1586,-0.00390625,-0.9609375,0.09375
1587,-0.00390625,-0.96484375,0.07421875
1588,-0.0078125,-0.9609375,0.08203125
1589,-0.0078125,-0.96484375,0.10546875
1590,0.00390625,-0.9609375,0.06640625
1591,-0.00390625,-0.9609375,0.06640625
1592,-0.00390625,-0.9765625,0.09765625
1593,0.015625,-0.96484375,0.08203125
1594,0.0,-0.9609375,0.08203125
1595,0.00390625,-0.96875,0.078125
1596,0.00390625,-0.96484375,0.07421875
1597,0.0078125,-0.9609375,0.0703125
1598,0.01171875,-0.9609375,0.07421875
1599,0.01171875,-0.9609375,0.0859375
1600,0.01953125,-0.96875,0.08203125
1601,0.01171875,-0.97265625,0.08203125
1602,0.00390625,-0.9609375,0.08984375
1603,0.0078125,-0.96484375,0.08984375
1604,0.0,-0.95703125,0.1015625
1605,0.01953125,-0.96875,0.08203125
1606,0.015625,-0.953125,0.08984375
1607,0.03125,-0.96484375,0.0703125
1608,0.0234375,-0.95703125,0.0859375
1609,0.01953125,-0.95703125,0.078125
1610,0.01953125,-0.95703125,0.08984375
1611,0.01953125,-0.95703125,0.078125
1612,0.01953125,-0.97265625,0.09765625
1613,0.0078125,-0.95703125,0.08984375
1614,0.03125,-0.94921875,0.0546875
1615,0.0078125,-0.95703125,0.11328125
1616,0.0,-0.94921875,0.10546875
1617,0.00390625,-0.95703125,0.09765625
1618,0.015625,-0.9609375,0.09765625
1619,0.01171875,-0.94921875,0.10546875
1620,0.0234375,-0.953125,0.09765625
1621,0.0234375,-0.9453125,0.08203125
1622,0.0234375,-0.96875,0.109375
1623,0.015625,-0.97265625,0.0859375
1624,0.0234375,-0.9609375,0.1015625
1625,0.0234375,-0.9609375,0.06640625
1626,0.01171875,-0.97265625,0.08984375
1627,0.015625,-0.97265625,0.09765625
1628,0.01953125,-0.9609375,0.09765625
1629,0.015625,-0.95703125,0.10546875
1630,0.0,-0.94921875,0.08984375
1631,0.015625,-0.97265625,0.1015625
1632,0.01171875,-0.953125,0.09375
1633,0.0234375,-0.96875,0.09375
1634,0.00390625,-0.95703125,0.08984375
1635,0.0234375,-0.953125,0.09765625
1636,0.015625,-0.96484375,0.1015625
1637,0.01171875,-0.97265625,0.08203125
1638,0.01171875,-0.953125,0.07421875
1639,0.01953125,-0.96875,0.07421875
1640,0.02734375,-0.96875,0.08203125
1641,0.01171875,-0.953125,0.1015625
1642,0.0234375,-0.96484375,0.09765625
1643,0.0078125,-0.9375,0.078125
1644,0.00390625,-0.953125,0.0859375
1645,0.0078125,-0.95703125,0.1015625
1646,0.00390625,-0.93359375,0.0859375
1647,0.0078125,-0.9765625,0.0859375
1648,-0.00390625,-0.9765625,0.0859375
1649,-0.00390625,-0.95703125,0.08984375
1650,0.00390625,-0.95703125,0.09375
1651,0.0,-0.97265625,0.08203125
1652,0.0,-0.9609375,0.10546875
1653,0.0,-0.9609375,0.09375
1654,0.00390625,-0.96484375,0.10546875
1655,0.0,-0.94921875,0.08984375
1656,0.0078125,-0.9609375,0.07421875
1657,0.0078125,-0.9765625,0.07421875
1658,0.0,-0.96484375,0.1015625
1659,0.015625,-0.96484375,0.0859375
1660,0.01171875,-0.95703125,0.1015625
1661,0.01953125,-0.96484375,0.09375
1662,0.015625,-0.95703125,0.08203125
1663,0.0234375,-0.95703125,0.08203125
1664,0.02734375,-0.95703125,0.0859375
1665,0.015625,-0.96484375,0.1015625
1666,0.02734375,-0.953125,0.09375
1667,0.0078125,-0.95703125,0.09765625
1668,0.02734375,-0.96484375,0.1015625
1669,0.015625,-0.9609375,0.09765625
1670,0.0078125,-0.953125,0.10546875
1671,0.015625,-0.96484375,0.09765625
1672,0.015625,-0.95703125,0.10546875
1673,0.0234375,-0.96875,0.08984375
1674,0.01171875,-0.96484375,0.09765625
1675,0.015625,-0.96484375,0.1015625
1676,0.01171875,-0.97265625,0.109375
1677,0.0390625,-0.98046875,0.09765625
1678,-0.00390625,-0.98046875,0.08203125
1679,0.015625,-0.95703125,0.0859375
1680,0.01171875,-0.953125,0.09765625
1681,0.01171875,-0.9609375,0.08984375
1682,0.01953125,-0.95703125,0.09375
1683,0.015625,-0.94921875,0.08984375
1684,0.01953125,-0.95703125,0.1015625
1685,0.015625,-0.94921875,0.09765625
1686,0.01953125,-0.96875,0.10546875
1687,0.03515625,-0.9609375,0.12109375
1688,0.0,-0.95703125,0.08984375
1689,0.02734375,-0.9453125,0.12890625
1690,0.01953125,-0.9609375,0.109375
1691,0.015625,-0.94921875,0.109375
1692,0.0234375,-0.97265625,0.09375
1693,0.01953125,-0.96484375,0.1015625
1694,0.01953125,-0.96484375,0.10546875
1695,0.015625,-0.95703125,0.1171875
1696,0.01953125,-0.95703125,0.078125
1697,0.015625,-0.96484375,0.10546875
1698,0.0078125,-0.96484375,0.08203125
1699,0.00390625,-0.95703125,0.109375
1700,0.0234375,-0.984375,0.0859375
1701,0.0234375,-0.953125,0.10546875
1702,0.0234375,-0.953125,0.09375
1703,0.0234375,-0.9609375,0.09765625
1704,0.0234375,-0.96484375,0.1015625
1705,0.01953125,-0.94921875,0.09765625
1706,0.015625,-0.96484375,0.09375
1707,0.015625,-0.94921875,0.1015625
1708,0.0078125,-0.953125,0.09375
1709,0.0078125,-0.953125,0.08984375
1710,0.01953125,-0.9765625,0.08984375
1711,0.01953125,-0.97265625,0.09765625
1712,0.01171875,-0.95703125,0.09765625
1713,0.0078125,-0.94921875,0.10546875
1714,0.015625,-0.9609375,0.109375
1715,0.015625,-0.953125,0.09375
1716,0.02734375,-0.95703125,0.09765625
1717,0.015625,-0.95703125,0.1171875
1718,0.01171875,-0.94921875,0.109375
1719,0.01953125,-0.96484375,0.109375
1720,0.015625,-0.95703125,0.109375
1721,0.0234375,-0.9453125,0.078125
1722,0.01953125,-0.9453125,0.09765625
1723,0.0078125,-0.95703125,0.109375
1724,0.015625,-0.9609375,0.09765625
1725,0.01953125,-0.9609375,0.12109375
1726,0.0234375,-0.9609375,0.10546875
1727,0.01171875,-0.95703125,0.1015625
1728,0.015625,-0.953125,0.1015625
1729,0.01953125,-0.96484375,0.09765625
1730,0.01953125,-0.9765625,0.10546875
1731,0.015625,-0.9609375,0.1171875
1732,0.015625,-0.95703125,0.1171875
1733,0.015625,-0.96484375,0.11328125
1734,0.0078125,-0.9609375,0.09375
1735,0.0,-0.94921875,0.109375
1736,0.0234375,-0.96484375,0.10546875
1737,0.01171875,-0.9609375,0.12109375
1738,0.01953125,-0.9609375,0.109375
1739,0.01171875,-0.95703125,0.09375
1740,0.0234375,-0.94921875,0.109375
1741,0.015625,-0.96484375,0.1015625
1742,0.00390625,-0.953125,0.08984375
1743,0.02734375,-0.9609375,0.10546875
1744,0.01171875,-0.95703125,0.1171875
1745,0.015625,-0.96484375,0.12109375
1746,0.01171875,-0.953125,0.1015625
1747,0.02734375,-0.95703125,0.10546875
1748,0.0,-0.94921875,0.0859375
1749,0.015625,-0.9453125,0.1171875
1750,0.00390625,-0.9609375,0.109375
1751,0.015625,-0.94921875,0.10546875
1752,0.00390625,-0.95703125,0.1015625
1753,0.01171875,-0.96875,0.09375
1754,0.01171875,-0.96484375,0.1015625
1755,0.01171875,-0.953125,0.09375
1756,0.01171875,-0.96484375,0.11328125
1757,0.01171875,-0.95703125,0.09765625
1758,0.0078125,-0.953125,0.09375
1759,0.01171875,-0.953125,0.109375
1760,0.01171875,-0.953125,0.1171875
1761,0.015625,-0.94921875,0.11328125
1762,0.0078125,-0.96484375,0.09765625
1763,0.01171875,-0.953125,0.09765625
1764,0.00390625,-0.9375,0.109375
1765,0.01171875,-0.97265625,0.1015625
1766,0.00390625,-0.953125,0.09375
1767,0.0078125,-0.9609375,0.11328125
1768,0.01171875,-0.9609375,0.1171875
1769,0.015625,-0.95703125,0.1015625
1770,0.00390625,-0.94921875,0.10546875
1771,0.00390625,-0.94921875,0.109375
1772,0.00390625,-0.94921875,0.08984375
1773,0.0,-0.953125,0.1171875
1774,0.0078125,-0.96875,0.09765625
1775,0.015625,-0.97265625,0.1484375
1776,0.0078125,-0.9453125,0.109375
1777,0.015625,-0.953125,0.109375
1778,0.015625,-0.94921875,0.1171875
1779,0.02734375,-0.953125,0.09765625
1780,0.01171875,-0.953125,0.1015625
1781,0.01171875,-0.953125,0.109375
1782,0.01171875,-0.9609375,0.10546875
1783,0.00390625,-0.9609375,0.09765625
1784,0.01953125,-0.9453125,0.10546875
1785,0.0234375,-0.96875,0.1328125
1786,0.0234375,-0.9765625,0.11328125
1787,0.01171875,-0.9609375,0.11328125
1788,0.00390625,-0.97265625,0.12890625
1789,0.02734375,-0.9609375,0.1171875
1790,0.01953125,-0.9609375,0.1171875
1791,0.02734375,-0.96875,0.10546875
1792,0.0078125,-0.9375,0.09765625
1793,0.02734375,-0.9765625,0.10546875
1794,0.015625,-0.9453125,0.09375
1795,0.015625,-0.953125,0.1171875
1796,0.01171875,-0.95703125,0.10546875
1797,0.01171875,-0.95703125,0.09765625
1798,0.01171875,-0.95703125,0.09375
1799,0.01171875,-0.9609375,0.11328125
1800,0.0234375,-0.96484375,0.10546875
1801,0.015625,-0.96484375,0.1015625
1802,0.01953125,-0.9609375,0.1171875
1803,0.01171875,-0.9609375,0.109375
1804,0.015625,-0.96484375,0.109375
1805,0.015625,-0.9609375,0.1015625
1806,0.0234375,-0.96875,0.1171875
1807,0.0078125,-0.96875,0.1171875
1808,0.015625,-0.953125,0.11328125
1809,0.015625,-0.96875,0.125
1810,0.01171875,-0.9609375,0.1015625
1811,0.01171875,-0.96484375,0.09765625
1812,0.00390625,-0.953125,0.09375
1813,0.00390625,-0.94921875,0.10546875
1814,0.0,-0.9609375,0.109375
1815,0.01171875,-0.9453125,0.09765625
1816,0.01171875,-0.96484375,0.1171875
1817,0.0078125,-0.94921875,0.1171875
1818,0.0,-0.9609375,0.13671875
1819,0.01171875,-0.96875,0.1015625
1820,0.0078125,-0.94921875,0.10546875
1821,0.01171875,-0.95703125,0.1015625
1822,0.00390625,-0.94140625,0.10546875
1823,0.0,-0.95703125,0.10546875
1824,0.0234375,-0.953125,0.109375
1825,0.00390625,-0.94140625,0.13671875
1826,0.0078125,-0.9453125,0.12109375
1827,0.0078125,-0.95703125,0.10546875
1828,0.01953125,-0.9609375,0.1171875
1829,0.02734375,-0.98046875,0.13671875
1830,0.015625,-0.9609375,0.11328125
1831,0.01171875,-0.953125,0.109375
1832,0.0234375,-0.9609375,0.12109375
1833,0.01171875,-0.953125,0.10546875
1834,0.015625,-0.95703125,0.12890625
1835,0.01171875,-0.9609375,0.10546875
1836,0.00390625,-0.9453125,0.09765625
1837,0.0,-0.94921875,0.09765625
1838,0.015625,-0.95703125,0.109375
1839,0.015625,-0.95703125,0.1015625
1840,0.0234375,-0.94140625,0.08984375
1841,0.0,-0.953125,0.11328125
1842,0.00390625,-0.953125,0.09375
1843,0.01953125,-0.94140625,0.109375
1844,0.01171875,-0.94921875,0.109375
1845,0.0078125,-0.953125,0.1015625
1846,0.01171875,-0.95703125,0.12109375
1847,0.01171875,-0.9609375,0.10546875
1848,0.015625,-0.953125,0.12109375
1849,0.0234375,-0.9609375,0.1171875
1850,0.0234375,-0.9609375,0.1171875
1851,0.0078125,-0.9609375,0.09375
1852,0.0234375,-0.94921875,0.11328125
1853,0.015625,-0.94921875,0.11328125
1854,0.02734375,-0.953125,0.12109375
1855,0.00390625,-0.95703125,0.125
1856,0.02734375,-0.9609375,0.10546875
1857,0.015625,-0.95703125,0.12109375
1858,0.01171875,-0.953125,0.109375
1859,0.0078125,-0.97265625,0.12109375
1860,0.01171875,-0.95703125,0.109375
1861,0.0234375,-0.96875,0.11328125
1862,0.015625,-0.9765625,0.12109375
1863,0.01171875,-0.96484375,0.109375
1864,0.01171875,-0.9609375,0.125
1865,0.0234375,-0.953125,0.10546875
1866,0.015625,-0.96875,0.1015625
1867,0.015625,-0.95703125,0.1171875
1868,0.015625,-0.96484375,0.109375
1869,0.0,-0.96484375,0.10546875
1870,0.00390625,-0.94921875,0.1328125
1871,0.01171875,-0.96484375,0.10546875
1872,0.01953125,-0.953125,0.08984375
1873,0.0,-0.96484375,0.09765625
1874,0.0234375,-0.96875,0.1171875
1875,0.01171875,-0.9609375,0.10546875
1876,0.015625,-0.953125,0.12890625
1877,0.015625,-0.9609375,0.109375
1878,0.01953125,-0.96484375,0.10546875
1879,0.0078125,-0.96875,0.11328125
1880,0.01171875,-0.953125,0.109375
1881,0.01171875,-0.9453125,0.1015625
1882,0.0078125,-0.953125,0.11328125
1883,0.01171875,-0.953125,0.109375
1884,0.015625,-0.94921875,0.10546875
1885,0.01953125,-0.96484375,0.11328125
1886,0.0078125,-0.953125,0.10546875
1887,0.015625,-0.96484375,0.125
1888,0.0078125,-0.9609375,0.11328125
1889,0.0,-0.9609375,0.11328125
1890,0.01171875,-0.953125,0.1015625
1891,0.00390625,-0.94921875,0.11328125
1892,0.01171875,-0.96484375,0.11328125
1893,0.015625,-0.9609375,0.10546875
1894,0.03125,-0.96875,0.109375
1895,0.015625,-0.96484375,0.1015625
1896,0.015625,-0.9609375,0.10546875
1897,0.01171875,-0.953125,0.1015625
1898,0.00390625,-0.953125,0.11328125
1899,0.01953125,-0.95703125,0.125
1900,0.01953125,-0.94921875,0.109375
1901,0.01171875,-0.96484375,0.11328125
1902,0.0234375,-0.96484375,0.125
1903,0.00390625,-0.953125,0.11328125
1904,0.0078125,-0.96484375,0.11328125
1905,0.0078125,-0.96875,0.08984375
1906,0.01171875,-0.94921875,0.1171875
1907,0.01953125,-0.94921875,0.11328125
1908,0.01171875,-0.953125,0.109375
1909,0.01953125,-0.953125,0.11328125
1910,0.01953125,-0.953125,0.1171875
1911,0.01171875,-0.94921875,0.1171875
1912,0.0234375,-0.97265625,0.1015625
1913,0.02734375,-0.953125,0.125
1914,0.0078125,-0.94140625,0.10546875
1915,0.00390625,-0.94921875,0.10546875
1916,0.01953125,-0.9765625,0.08984375
1917,0.0234375,-0.9609375,0.1015625
1918,0.0234375,-0.95703125,0.10546875
1919,0.01953125,-0.94921875,0.09765625
1920,0.03125,-0.96875,0.09765625
1921,0.01953125,-0.9609375,0.1015625
1922,0.03515625,-0.95703125,0.109375
1923,0.01171875,-0.96484375,0.1015625
1924,0.015625,-0.9609375,0.09765625
1925,0.01953125,-0.96875,0.1015625
1926,0.0078125,-0.96875,0.109375
1927,0.015625,-0.96484375,0.1015625
1928,0.0234375,-0.95703125,0.09765625
1929,0.01953125,-0.9609375,0.10546875
1930,0.0078125,-0.94921875,0.1015625
1931,0.0078125,-0.96484375,0.09375
1932,0.01171875,-0.96875,0.109375
1933,0.00390625,-0.953125,0.1015625
1934,0.0234375,-0.95703125,0.109375
1935,0.01171875,-0.96875,0.1015625
1936,0.0234375,-0.95703125,0.09375
1937,0.01953125,-0.9609375,0.109375
1938,0.01953125,-0.94921875,0.1015625
1939,0.0078125,-0.95703125,0.10546875
1940,0.01171875,-0.94921875,0.09375
1941,0.015625,-0.94921875,0.109375
1942,0.015625,-0.95703125,0.10546875
1943,0.0078125,-0.95703125,0.11328125
1944,0.015625,-0.94140625,0.109375
1945,0.015625,-0.95703125,0.10546875
1946,0.01171875,-0.95703125,0.1015625
1947,0.01171875,-0.96875,0.1171875
1948,0.0078125,-0.95703125,0.08984375
1949,0.015625,-0.94921875,0.1015625
1950,0.01171875,-0.95703125,0.109375
1951,0.0234375,-0.9609375,0.10546875
1952,0.015625,-0.9609375,0.1015625
1953,0.0234375,-0.96875,0.1015625
1954,0.01171875,-0.9609375,0.09375
1955,0.00390625,-0.953125,0.109375
1956,0.01171875,-0.97265625,0.1171875
1957,0.0234375,-0.9609375,0.109375
1958,0.00390625,-0.9609375,0.1015625
1959,0.02734375,-0.94921875,0.09765625
1960,0.00390625,-0.953125,0.09765625
1961,0.00390625,-0.9609375,0.1015625
1962,0.01171875,-0.9453125,0.0859375
1963,0.01953125,-0.95703125,0.09375
1964,0.01171875,-0.96484375,0.1015625
1965,0.01171875,-0.94921875,0.1171875
1966,0.01171875,-0.9453125,0.11328125
1967,0.0078125,-0.95703125,0.11328125
1968,0.01171875,-0.9609375,0.11328125
1969,0.03125,-0.9453125,0.10546875
1970,0.0078125,-0.9609375,0.10546875
1971,0.015625,-0.9609375,0.1015625
1972,0.00390625,-0.94140625,0.109375
1973,0.01171875,-0.94140625,0.08984375
1974,0.01953125,-0.9609375,0.0859375
1975,0.015625,-0.953125,0.09765625
1976,0.015625,-0.953125,0.10546875
1977,0.01953125,-0.953125,0.109375
1978,0.01171875,-0.94921875,0.09375
1979,0.015625,-0.953125,0.109375
1980,-0.00390625,-0.9296875,0.078125
1981,0.0078125,-0.953125,0.09375
1982,0.01171875,-0.94921875,0.09765625
1983,0.01953125,-0.953125,0.10546875
1984,0.01953125,-0.95703125,0.09375
1985,0.01171875,-0.953125,0.109375
1986,0.01953125,-0.9609375,0.1015625
1987,0.02734375,-0.953125,0.09765625
1988,0.0,-0.953125,0.0859375
1989,0.02734375,-0.95703125,0.1015625
1990,0.03125,-0.9765625,0.09765625
1991,0.0078125,-0.9453125,0.125
1992,0.015625,-0.95703125,0.0859375
1993,0.015625,-0.9609375,0.09375
1994,0.0234375,-0.9609375,0.1015625
1995,0.01953125,-0.94140625,0.08984375
1996,0.01171875,-0.94140625,0.0859375
1997,0.01171875,-0.95703125,0.08203125
1998,0.015625,-0.96484375,0.08203125
1999,0.0234375,-0.953125,0.08984375
2000,0.0234375,-0.96875,0.09765625
2001,0.0234375,-0.96484375,0.08203125
2002,0.01953125,-0.95703125,0.1015625
2003,0.015625,-0.94921875,0.09375
2004,0.01171875,-0.94921875,0.1015625
2005,0.015625,-0.953125,0.09765625
2006,0.01171875,-0.94921875,0.11328125
2007,0.01953125,-0.96875,0.09375
2008,0.01171875,-0.9609375,0.09765625
2009,0.0078125,-0.96484375,0.08984375
2010,0.01953125,-0.96875,0.09765625
2011,0.00390625,-0.96875,0.0859375
2012,0.0234375,-0.95703125,0.08984375
2013,0.015625,-0.984375,0.078125
2014,0.0078125,-0.9609375,0.0703125
2015,0.015625,-0.95703125,0.09375
2016,0.00390625,-0.9453125,0.08984375
2017,0.01953125,-0.96875,0.078125
2018,0.01953125,-0.96484375,0.07421875
2019,0.0078125,-0.95703125,0.07421875
2020,0.015625,-0.95703125,0.07421875
2021,0.01171875,-0.96875,0.09375
2022,0.015625,-0.95703125,0.08203125
2023,0.01953125,-0.95703125,0.0703125
2024,0.0078125,-0.953125,0.09375
2025,0.0078125,-0.95703125,0.08984375
2026,0.00390625,-0.94921875,0.09765625
2027,0.01171875,-0.953125,0.10546875
2028,0.01953125,-0.96484375,0.08203125
2029,0.02734375,-0.95703125,0.08984375
2030,0.00390625,-0.9609375,0.08984375
2031,0.01953125,-0.953125,0.08203125
2032,0.0234375,-0.94140625,0.078125
2033,0.04296875,-0.96484375,0.06640625
2034,0.02734375,-0.9765625,0.08203125
2035,0.015625,-0.953125,0.07421875
2036,0.0234375,-0.94921875,0.08203125
2037,0.01953125,-0.9609375,0.09765625
2038,0.02734375,-0.9609375,0.078125
2039,0.03515625,-0.9609375,0.07421875
2040,0.015625,-0.96484375,0.078125
2041,0.015625,-0.94140625,0.0703125
2042,0.0234375,-0.94921875,0.0703125
2043,0.01953125,-0.9609375,0.0703125
2044,0.0078125,-0.9453125,0.08984375
2045,0.01171875,-0.91796875,0.08203125
2046,0.03125,-0.9453125,0.0703125
2047,0.0234375,-0.9453125,0.078125
2048,0.01953125,-0.94921875,0.0625
2049,0.02734375,-0.953125,0.07421875
2050,0.03125,-0.94921875,0.06640625
2051,0.03125,-0.9609375,0.08203125
2052,0.03515625,-0.9609375,0.0625
2053,0.00390625,-0.953125,0.06640625
2054,0.015625,-0.9609375,0.0703125
2055,0.01171875,-0.95703125,0.05859375
2056,0.0,-0.9375,0.02734375
2057,0.0,-0.94921875,0.05859375
2058,0.01171875,-0.953125,0.078125
2059,0.01171875,-0.9375,0.05859375
2060,0.0078125,-0.953125,0.078125
2061,0.0078125,-0.93359375,0.0703125
2062,0.0234375,-0.953125,0.0625
2063,0.01171875,-0.9453125,0.07421875
2064,0.01953125,-0.96484375,0.06640625
2065,0.0234375,-0.953125,0.0625
2066,0.01953125,-0.953125,0.046875
2067,0.00390625,-0.953125,0.04296875
2068,0.02734375,-0.95703125,0.05859375
2069,0.01953125,-0.95703125,0.0703125
2070,0.0078125,-0.94140625,0.05859375
2071,0.01171875,-0.94921875,0.0546875
2072,0.015625,-0.96484375,0.0546875
2073,0.0078125,-0.94921875,0.0546875
2074,0.015625,-0.9453125,0.046875
2075,0.01171875,-0.94921875,0.05859375
2076,0.03515625,-0.95703125,0.0703125
2077,0.01171875,-0.9609375,0.04296875
2078,0.01953125,-0.97265625,0.05078125
2079,0.01171875,-0.9609375,0.03125
2080,0.0,-0.96875,0.05078125
2081,0.0234375,-0.9765625,0.046875
2082,0.01171875,-0.96875,0.0390625
2083,0.0,-0.95703125,0.0625
2084,0.02734375,-0.9609375,0.0625
2085,0.0,-0.94921875,0.06640625
2086,0.01953125,-0.94921875,0.046875
2087,0.015625,-0.9609375,0.04296875
2088,0.03125,-0.953125,0.05859375
2089,0.02734375,-0.96484375,0.0390625
2090,0.0234375,-0.94140625,0.04296875
2091,0.0234375,-0.9609375,0.0390625
2092,0.02734375,-0.953125,0.03125
2093,0.01953125,-0.94921875,0.03125
2094,0.02734375,-0.97265625,0.0234375
2095,0.0234375,-0.9609375,0.03515625
2096,0.01953125,-0.95703125,0.00390625
2097,0.01171875,-0.9765625,-0.01171875
2098,0.0234375,-0.96484375,-0.0078125
2099,0.01171875,-0.98046875,0.015625
2100,0.0234375,-0.96484375,-0.01171875
2101,0.01953125,-0.96875,0.0
2102,0.0234375,-0.9609375,-0.0078125
2103,0.01953125,-0.9609375,-0.0234375
2104,0.03125,-0.95703125,0.0
2105,0.0234375,-0.97265625,-0.01953125
2106,0.02734375,-0.95703125,-0.0234375
2107,0.03515625,-0.96875,-0.02734375
2108,0.02734375,-0.97265625,-0.01953125
2109,0.03125,-0.96484375,-0.00390625
2110,0.03515625,-0.984375,-0.015625
2111,0.04296875,-0.984375,-0.02734375
2112,0.02734375,-0.9765625,-0.0234375
2113,0.0390625,-0.984375,-0.03125
2114,0.046875,-0.99609375,-0.02734375
2115,0.0390625,-0.98046875,-0.0546875
2116,0.0234375,-0.98046875,-0.046875
2117,0.03515625,-0.97265625,-0.05078125
2118,0.02734375,-0.96484375,-0.0703125
2119,0.03515625,-0.95703125,-0.07421875
2120,0.0,-0.921875,-0.09375
2121,0.02734375,-0.9453125,-0.09765625
2122,0.0234375,-0.9453125,-0.09375
2123,0.02734375,-0.9453125,-0.0859375
2124,0.03125,-0.9453125,-0.078125
2125,0.02734375,-0.95703125,-0.10546875
2126,0.0234375,-0.9609375,-0.08984375
2127,0.015625,-0.953125,-0.08203125
2128,0.046875,-0.97265625,-0.0703125
2129,0.04296875,-0.97265625,-0.1015625
2130,0.04296875,-0.96484375,-0.1171875
2131,0.078125,-0.953125,-0.12109375
2132,0.05859375,-0.9765625,-0.12109375
2133,0.05078125,-0.9765625,-0.1171875
2134,0.0703125,-0.9765625,-0.12109375
2135,0.0703125,-0.9609375,-0.1171875
2136,0.0703125,-0.96484375,-0.12890625
2137,0.06640625,-0.9609375,-0.13671875
2138,0.06640625,-0.96484375,-0.12890625
2139,0.0703125,-0.97265625,-0.140625
2140,0.05078125,-0.95703125,-0.125
2141,0.05078125,-0.94921875,-0.12890625
2142,0.04296875,-0.9765625,-0.14453125
2143,0.0546875,-0.94921875,-0.15234375
2144,0.0546875,-0.953125,-0.15625
2145,0.03515625,-0.9453125,-0.16015625
2146,0.04296875,-0.953125,-0.16015625
2147,0.0390625,-0.94921875,-0.1796875
2148,0.04296875,-0.953125,-0.18359375
2149,0.0390625,-0.95703125,-0.171875
2150,0.03125,-0.9609375,-0.2109375
2151,0.0234375,-0.95703125,-0.1953125
2152,0.03125,-0.95703125,-0.2109375
2153,0.0390625,-0.984375,-0.234375
2154,0.046875,-0.9765625,-0.1953125
2155,0.046875,-0.9765625,-0.22265625
2156,0.05078125,-0.9765625,-0.234375
2157,0.05078125,-0.984375,-0.2265625
2158,0.046875,-0.97265625,-0.21875
2159,0.05078125,-0.9609375,-0.2265625
2160,0.0390625,-0.97265625,-0.22265625
2161,0.04296875,-0.94140625,-0.2578125
2162,0.05078125,-0.96484375,-0.25390625
2163,0.05078125,-0.9609375,-0.25
2164,0.0078125,-0.953125,-0.24609375
2165,0.0390625,-0.95703125,-0.26171875
2166,0.046875,-0.97265625,-0.26171875
2167,0.0546875,-0.97265625,-0.265625
2168,0.04296875,-0.97265625,-0.29296875
2169,0.02734375,-0.96875,-0.30078125
2170,0.03515625,-0.96875,-0.28125
2171,0.0390625,-0.953125,-0.28515625
2172,0.03515625,-0.9609375,-0.3125
2173,0.03125,-0.95703125,-0.3203125
2174,0.04296875,-0.96875,-0.3125
2175,0.0546875,-0.95703125,-0.3203125
2176,0.05078125,-0.94921875,-0.3203125
2177,0.05078125,-0.94921875,-0.33203125
2178,0.0625,-0.9453125,-0.3359375
2179,0.07421875,-0.9453125,-0.33984375
2180,0.08203125,-0.9375,-0.35546875
2181,0.09375,-0.92578125,-0.36328125
2182,0.078125,-0.9296875,-0.35546875
2183,0.08203125,-0.9140625,-0.38671875
2184,0.078125,-0.921875,-0.3828125
2185,0.109375,-0.9296875,-0.3671875
2186,0.0703125,-0.9140625,-0.36328125
2187,0.0703125,-0.90234375,-0.37109375
2188,0.0703125,-0.921875,-0.38671875
2189,0.0703125,-0.921875,-0.3984375
2190,0.0625,-0.921875,-0.40625
2191,0.0546875,-0.921875,-0.421875
2192,0.06640625,-0.91796875,-0.41015625
2193,0.06640625,-0.92578125,-0.4140625
2194,0.0625,-0.91015625,-0.4375
2195,0.0625,-0.8828125,-0.4453125
2196,0.05078125,-0.89453125,-0.48828125
2197,0.0625,-0.890625,-0.4765625
2198,0.0703125,-0.89453125,-0.48828125
2199,0.07421875,-0.87890625,-0.4921875
2200,0.08203125,-0.8828125,-0.46484375
2201,0.078125,-0.8828125,-0.484375
2202,0.08203125,-0.88671875,-0.484375
2203,0.08203125,-0.89453125,-0.47265625
2204,0.06640625,-0.875,-0.46484375
2205,0.046875,-0.8671875,-0.48046875
2206,0.04296875,-0.8984375,-0.45703125
2207,0.03125,-0.89453125,-0.484375
2208,0.04296875,-0.89453125,-0.47265625
2209,0.03515625,-0.88671875,-0.4765625
2210,0.03515625,-0.890625,-0.48046875
2211,0.03125,-0.8984375,-0.46484375
2212,0.03515625,-0.890625,-0.453125
2213,0.01953125,-0.8828125,-0.46875
2214,0.02734375,-0.8828125,-0.45703125
2215,0.02734375,-0.8828125,-0.4609375
2216,0.03125,-0.8828125,-0.47265625
2217,0.0390625,-0.87109375,-0.4921875
2218,0.04296875,-0.875,-0.47265625
2219,0.0546875,-0.8671875,-0.5
2220,0.078125,-0.89453125,-0.484375
2221,0.06640625,-0.890625,-0.5
2222,0.046875,-0.8828125,-0.5
2223,0.05859375,-0.88671875,-0.49609375
2224,0.0546875,-0.89453125,-0.5234375
2225,0.0546875,-0.8828125,-0.5078125
2226,0.04296875,-0.875,-0.52734375
2227,0.04296875,-0.88671875,-0.50390625
2228,0.046875,-0.87890625,-0.52734375
2229,0.046875,-0.86328125,-0.53515625
2230,0.03515625,-0.86328125,-0.53515625
2231,0.03515625,-0.8515625,-0.5390625
2232,0.0234375,-0.859375,-0.5546875
2233,0.0546875,-0.8671875,-0.546875
2234,0.04296875,-0.87109375,-0.54296875
2235,0.04296875,-0.87109375,-0.5546875
2236,0.015625,-0.8515625,-0.5703125
2237,0.03125,-0.8515625,-0.55859375
2238,0.046875,-0.86328125,-0.5703125
2239,0.06640625,-0.86328125,-0.5703125
2240,0.046875,-0.859375,-0.55859375
2241,0.05859375,-0.875,-0.57421875
2242,0.0625,-0.88671875,-0.56640625
2243,0.05078125,-0.8671875,-0.5703125
2244,0.0703125,-0.87890625,-0.56640625
2245,0.0625,-0.875,-0.55859375
2246,0.06640625,-0.87890625,-0.53515625
2247,0.0703125,-0.8828125,-0.5625
2248,0.07421875,-0.890625,-0.55078125
2249,0.07421875,-0.90625,-0.5234375
2250,0.0546875,-0.9140625,-0.51953125
2251,0.07421875,-0.88671875,-0.5390625
2252,0.08984375,-0.90234375,-0.53515625
2253,0.0859375,-0.91015625,-0.54296875
2254,0.08984375,-0.9140625,-0.546875
2255,0.0859375,-0.9375,-0.5546875
2256,0.08203125,-0.91796875,-0.578125
2257,0.06640625,-0.890625,-0.59375
2258,0.05859375,-0.87890625,-0.60546875
2259,0.0546875,-0.88671875,-0.60546875
2260,0.04296875,-0.8828125,-0.6015625
2261,0.015625,-0.85546875,-0.640625
2262,0.04296875,-0.875,-0.6328125
2263,0.02734375,-0.86328125,-0.6171875
2264,0.0234375,-0.85546875,-0.62109375
2265,0.03515625,-0.859375,-0.60546875
2266,0.0546875,-0.87109375,-0.609375
2267,0.0625,-0.85546875,-0.609375
2268,0.046875,-0.8359375,-0.59765625
2269,0.0703125,-0.828125,-0.6015625
2270,0.08984375,-0.80859375,-0.6015625
2271,0.08203125,-0.7890625,-0.62109375
2272,0.09375,-0.7734375,-0.6640625
2273,0.06640625,-0.765625,-0.6484375
2274,0.07421875,-0.7578125,-0.6640625
2275,0.1015625,-0.765625,-0.65625
2276,0.08203125,-0.76171875,-0.67578125
2277,0.08984375,-0.77734375,-0.6796875
2278,0.08203125,-0.765625,-0.6640625
2279,0.10546875,-0.78515625,-0.640625
2280,0.1015625,-0.78125,-0.6328125
2281,0.1015625,-0.78515625,-0.6484375
2282,0.07421875,-0.7734375,-0.6328125
2283,0.09375,-0.7734375,-0.64453125
2284,0.10546875,-0.7734375,-0.63671875
2285,0.1015625,-0.78125,-0.63671875
2286,0.08984375,-0.78125,-0.640625
2287,0.10546875,-0.7890625,-0.63671875
2288,0.09765625,-0.78515625,-0.6484375
2289,0.09765625,-0.78125,-0.63671875
2290,0.09375,-0.77734375,-0.62109375
2291,0.109375,-0.796875,-0.61328125
2292,0.0859375,-0.77734375,-0.64453125
2293,0.0859375,-0.796875,-0.63671875
2294,0.07421875,-0.7890625,-0.62890625
2295,0.0703125,-0.78125,-0.625
2296,0.05859375,-0.77734375,-0.63671875
2297,0.0546875,-0.7734375,-0.63671875
2298,0.03515625,-0.78125,-0.625
2299,0.04296875,-0.77734375,-0.62109375
2300,0.04296875,-0.77734375,-0.62109375
2301,0.0390625,-0.78125,-0.60546875
2302,0.046875,-0.78125,-0.61328125
2303,0.05078125,-0.77734375,-0.6015625
2304,0.04296875,-0.78125,-0.59375
2305,0.05078125,-0.78125,-0.55078125
2306,0.05078125,-0.7890625,-0.6015625
2307,0.05078125,-0.78515625,-0.56640625
2308,0.07421875,-0.796875,-0.578125
2309,0.05859375,-0.78515625,-0.55859375
2310,0.05859375,-0.7890625,-0.5703125
2311,0.0546875,-0.79296875,-0.578125
2312,0.046875,-0.78125,-0.57421875
2313,0.04296875,-0.78515625,-0.5546875
2314,0.0390625,-0.765625,-0.5625
2315,0.04296875,-0.76953125,-0.5546875
2316,0.06640625,-0.78515625,-0.5859375
2317,0.03515625,-0.78515625,-0.55859375
2318,0.015625,-0.77734375,-0.5703125
2319,0.01171875,-0.78125,-0.57421875
2320,0.015625,-0.7734375,-0.5703125
2321,0.00390625,-0.76953125,-0.5625
2322,0.01171875,-0.78515625,-0.56640625
2323,0.015625,-0.77734375,-0.55859375
2324,0.015625,-0.78515625,-0.546875
2325,0.01171875,-0.7890625,-0.55859375
2326,0.01171875,-0.78515625,-0.55078125
2327,0.03125,-0.796875,-0.5546875
2328,0.01171875,-0.78125,-0.55859375
2329,0.03125,-0.77734375,-0.5703125
2330,0.0546875,-0.7890625,-0.56640625
2331,0.05859375,-0.78125,-0.5703125
2332,0.06640625,-0.77734375,-0.57421875
2333,0.09375,-0.76953125,-0.59375
2334,0.1015625,-0.76953125,-0.59375
2335,0.1015625,-0.765625,-0.6171875
2336,0.0859375,-0.75390625,-0.61328125
2337,0.109375,-0.765625,-0.6015625
2338,0.1171875,-0.7734375,-0.62109375
2339,0.125,-0.78515625,-0.6015625
2340,0.11328125,-0.78125,-0.60546875
2341,0.109375,-0.79296875,-0.6015625
2342,0.109375,-0.80078125,-0.60546875
2343,0.09765625,-0.8046875,-0.59375
2344,0.08984375,-0.80078125,-0.58984375
2345,0.078125,-0.8125,-0.60546875
2346,0.05078125,-0.8046875,-0.609375
2347,0.046875,-0.81640625,-0.59375
2348,0.0390625,-0.79296875,-0.61328125
2349,0.04296875,-0.8125,-0.5703125
2350,0.02734375,-0.81640625,-0.58203125
2351,0.01171875,-0.8203125,-0.59375
2352,0.01953125,-0.8203125,-0.59765625
2353,0.015625,-0.8203125,-0.578125
2354,0.0078125,-0.82421875,-0.5859375
2355,0.0234375,-0.80078125,-0.57421875
2356,0.03515625,-0.82421875,-0.58203125
2357,0.0234375,-0.81640625,-0.578125
2358,0.02734375,-0.796875,-0.57421875
2359,0.01953125,-0.796875,-0.5546875
2360,0.05078125,-0.796875,-0.5703125
2361,0.046875,-0.7734375,-0.57421875
2362,0.0546875,-0.796875,-0.5859375
2363,0.0625,-0.7890625,-0.56640625
2364,0.0546875,-0.78515625,-0.55078125
2365,0.0546875,-0.78125,-0.54296875
2366,0.0546875,-0.796875,-0.5390625
2367,0.06640625,-0.77734375,-0.5625
2368,0.06640625,-0.78125,-0.546875
2369,0.0625,-0.79296875,-0.54296875
2370,0.05078125,-0.77734375,-0.5625
2371,0.05078125,-0.78515625,-0.546875
2372,0.0546875,-0.7890625,-0.5390625
2373,0.0546875,-0.7890625,-0.55078125
2374,0.046875,-0.7890625,-0.546875
2375,0.04296875,-0.7890625,-0.546875
2376,0.05078125,-0.78125,-0.55078125
2377,0.0390625,-0.78125,-0.54296875
2378,0.0390625,-0.7890625,-0.546875
2379,0.04296875,-0.78125,-0.5390625
2380,0.03515625,-0.78515625,-0.5390625
2381,0.046875,-0.78125,-0.53515625
2382,0.03515625,-0.77734375,-0.5546875
2383,0.03125,-0.76953125,-0.54296875
2384,0.04296875,-0.7734375,-0.546875
2385,0.0234375,-0.7578125,-0.52734375
2386,0.03125,-0.76171875,-0.54296875
2387,0.04296875,-0.76171875,-0.53515625
2388,0.046875,-0.765625,-0.5390625
2389,0.0546875,-0.7734375,-0.51953125
2390,0.04296875,-0.76171875,-0.52734375
2391,0.046875,-0.77734375,-0.51953125
2392,0.0546875,-0.77734375,-0.48046875
2393,0.046875,-0.77734375,-0.51953125
2394,0.05078125,-0.7734375,-0.51171875
2395,0.0390625,-0.7734375,-0.5078125
2396,0.046875,-0.7890625,-0.5
2397,0.0390625,-0.79296875,-0.5078125
2398,0.02734375,-0.78125,-0.515625
2399,0.05078125,-0.80078125,-0.50390625
