,accelerometerAccelerationX(G),accelerometerAccelerationY(G),accelerometerAccelerationZ(G),Label
0,-0.97265625,-0.03515625,0.02734375,0
1,-0.97265625,-0.05078125,0.03125,0
2,-0.98046875,-0.03125,0.03125,0
3,-0.98828125,-0.046875,0.0390625,0
4,-0.98046875,-0.0390625,0.03515625,0
5,-0.98046875,-0.046875,0.0234375,0
6,-0.97265625,-0.0390625,0.0390625,0
7,-0.9765625,-0.05078125,0.0234375,0
8,-0.98046875,-0.0390625,0.03125,0
9,-0.98046875,-0.046875,0.02734375,0
10,-0.97265625,-0.04296875,0.0390625,0
11,-0.9765625,-0.0390625,0.04296875,0
12,-0.9765625,-0.05078125,0.03515625,0
13,-0.98046875,-0.0703125,0.046875,0
14,-0.97265625,-0.08203125,0.03515625,0
15,-0.984375,-0.05859375,0.05078125,0
16,-0.98828125,-0.0546875,0.05078125,0
17,-0.984375,-0.0625,0.05078125,0
18,-0.9765625,-0.05859375,0.0546875,0
19,-0.97265625,-0.05859375,0.046875,0
20,-0.98046875,-0.046875,0.04296875,0
21,-0.97265625,-0.05078125,0.04296875,0
22,-0.9765625,-0.0546875,0.05078125,0
23,-0.9765625,-0.05078125,0.0390625,0
24,-0.9765625,-0.03515625,0.046875,0
25,-0.97265625,-0.0234375,0.03515625,0
26,-0.97265625,-0.03125,0.0390625,0
27,-0.97265625,-0.01953125,0.04296875,0
28,-0.9765625,-0.0234375,0.05078125,0
29,-0.96875,-0.02734375,0.03125,0
30,-0.96875,-0.0234375,0.03515625,0
31,-0.96875,-0.015625,0.05078125,0
32,-0.953125,-0.0078125,0.05078125,0
33,-0.96875,-0.0078125,0.046875,0
34,-0.96875,0.00390625,0.04296875,0
35,-0.96484375,-0.01171875,0.05078125,0
36,-0.96484375,-0.0078125,0.05078125,0
37,-0.95703125,0.0078125,0.0546875,0
38,-0.9609375,0.0078125,0.05078125,0
39,-0.953125,0.0234375,0.06640625,0
40,-0.95703125,0.03125,0.0546875,0
41,-0.953125,0.01171875,0.046875,0
42,-0.953125,0.0078125,0.046875,0
43,-0.96484375,0.01953125,0.046875,0
44,-0.9609375,0.0234375,0.04296875,0
45,-0.9609375,0.01171875,0.05078125,0
46,-0.95703125,0.00390625,0.03515625,0
47,-0.96484375,0.01171875,0.04296875,0
48,-0.96875,0.0,0.046875,0
49,-0.9609375,0.00390625,0.05859375,0
50,-0.953125,0.0,0.05078125,0
51,-0.9609375,-0.015625,0.0546875,0
52,-0.96875,0.00390625,0.0546875,0
53,-0.96484375,-0.0234375,0.046875,0
54,-0.96875,-0.0078125,0.05859375,0
55,-0.96875,-0.01171875,0.05078125,0
56,-0.96875,-0.02734375,0.0390625,0
57,-0.96875,-0.00390625,0.04296875,0
58,-0.98046875,-0.00390625,0.05078125,0
59,-0.984375,-0.0078125,0.05078125,0
60,-0.98046875,-0.0078125,0.04296875,0
61,-0.98828125,0.0078125,0.046875,0
62,-0.9921875,-0.00390625,0.0390625,0
63,-0.98828125,-0.015625,0.046875,0
64,-0.98046875,0.0,0.04296875,0
65,-0.98828125,-0.0234375,0.04296875,0
66,-0.98046875,-0.015625,0.03515625,0
67,-0.984375,-0.0234375,0.0390625,0
68,-0.99609375,-0.01171875,0.03515625,0
69,-0.98046875,-0.0234375,0.04296875,0
70,-0.984375,-0.03125,0.0546875,0
71,-0.98046875,-0.03515625,0.046875,0
72,-0.984375,-0.03125,0.05078125,0
73,-0.97265625,-0.02734375,0.046875,0
74,-0.9609375,-0.03515625,0.0546875,0
75,-0.97265625,-0.0390625,0.05859375,0
76,-0.9609375,-0.03125,0.0546875,0
77,-0.95703125,-0.015625,0.0625,0
78,-0.9609375,-0.03515625,0.0546875,0
79,-0.94921875,-0.046875,0.06640625,0
80,-0.96484375,-0.04296875,0.06640625,0
81,-0.94921875,-0.02734375,0.05078125,0
82,-0.96875,-0.04296875,0.07421875,0
83,-0.96484375,-0.03125,0.06640625,0
84,-0.96875,-0.04296875,0.0703125,0
85,-0.96875,-0.03125,0.08203125,0
86,-0.97265625,-0.015625,0.08203125,0
87,-0.96875,-0.02734375,0.078125,0
88,-0.97265625,-0.03125,0.08203125,0
89,-0.984375,-0.01953125,0.08203125,0
90,-0.9765625,-0.03515625,0.0703125,0
91,-0.984375,-0.04296875,0.08203125,0
92,-0.984375,-0.0390625,0.08203125,0
93,-0.9921875,-0.0390625,0.07421875,0
94,-0.984375,-0.0390625,0.0703125,0
95,-0.98828125,-0.0546875,0.0703125,0
96,-0.98046875,-0.0546875,0.06640625,0
97,-0.9921875,-0.0546875,0.0546875,0
98,-0.99609375,-0.0546875,0.0703125,0
99,-0.99609375,-0.05078125,0.07421875,0
100,-0.99609375,-0.05078125,0.07421875,0
101,-1.01171875,-0.06640625,0.09375,0
102,-1.00390625,-0.0625,0.0859375,0
103,-1.01953125,-0.07421875,0.09765625,0
104,-1.01953125,-0.078125,0.09765625,0
105,-1.0234375,-0.08984375,0.11328125,0
106,-1.03125,-0.0859375,0.12109375,0
107,-1.0234375,-0.09765625,0.1171875,0
108,-1.03125,-0.08984375,0.1171875,0
109,-1.0390625,-0.11328125,0.11328125,0
110,-1.0546875,-0.1015625,0.125,0
111,-1.0390625,-0.1171875,0.1171875,0
112,-1.04296875,-0.08984375,0.12890625,0
113,-1.03515625,-0.12109375,0.125,0
114,-1.03125,-0.1171875,0.11328125,0
115,-1.03125,-0.1171875,0.11328125,0
116,-1.0390625,-0.12109375,0.1015625,0
117,-1.03125,-0.12109375,0.0859375,0
118,-1.0078125,-0.1171875,0.06640625,0
119,-1.015625,-0.1171875,0.08203125,0
120,-0.99609375,-0.12109375,0.0625,0
121,-0.99609375,-0.1484375,0.046875,0
122,-0.98046875,-0.140625,0.03125,0
123,-0.984375,-0.13671875,0.0390625,0
124,-0.9765625,-0.15625,0.015625,0
125,-0.96875,-0.14453125,0.0,0
126,-0.96484375,-0.16015625,-0.00390625,0
127,-0.95703125,-0.16796875,-0.01953125,0
128,-0.94921875,-0.171875,-0.0390625,0
129,-0.94140625,-0.1796875,-0.05078125,0
130,-0.91015625,-0.19921875,-0.0546875,0
131,-0.8984375,-0.20703125,-0.06640625,0
132,-0.90234375,-0.17578125,-0.07421875,0
133,-0.89453125,-0.16796875,-0.109375,0
134,-0.89453125,-0.15625,-0.12109375,0
135,-0.90625,-0.14453125,-0.13671875,0
136,-0.90625,-0.13671875,-0.125,0
137,-0.90625,-0.14453125,-0.1171875,0
138,-0.90234375,-0.14453125,-0.12109375,0
139,-0.9140625,-0.140625,-0.11328125,0
140,-0.92578125,-0.12109375,-0.10546875,0
141,-0.953125,-0.13671875,-0.1015625,0
142,-0.9765625,-0.09765625,-0.09765625,0
143,-0.98828125,-0.07421875,-0.11328125,0
144,-0.99609375,-0.0859375,-0.109375,0
145,-1.01171875,-0.09765625,-0.109375,0
146,-1.01171875,-0.12109375,-0.07421875,0
147,-1.01171875,-0.12109375,-0.06640625,0
148,-1.01953125,-0.078125,-0.0546875,0
149,-1.0,-0.05078125,-0.05078125,0
150,-1.01953125,-0.0546875,-0.046875,0
151,-1.02734375,-0.03125,-0.01953125,0
152,-1.046875,-0.03515625,-0.015625,0
153,-1.046875,-0.0390625,0.0078125,0
154,-1.046875,-0.078125,0.0078125,0
155,-1.05078125,-0.09765625,0.015625,0
156,-1.05859375,-0.13671875,0.01171875,0
157,-1.09375,-0.1484375,0.0078125,0
158,-1.10546875,-0.16015625,-0.0078125,0
159,-1.125,-0.1875,-0.02734375,0
160,-1.10546875,-0.19921875,-0.05859375,0
161,-1.1328125,-0.19140625,-0.06640625,0
162,-1.12890625,-0.20703125,-0.09765625,0
163,-1.1328125,-0.21484375,-0.1171875,0
164,-1.140625,-0.21875,-0.14453125,0
165,-1.12890625,-0.2265625,-0.1796875,0
166,-1.12890625,-0.21875,-0.203125,0
167,-1.1171875,-0.2109375,-0.24609375,0
168,-1.1328125,-0.20703125,-0.234375,0
169,-1.125,-0.2109375,-0.2421875,0
170,-1.10546875,-0.18359375,-0.2421875,0
171,-1.10546875,-0.18359375,-0.23046875,0
172,-1.05078125,-0.1796875,-0.19921875,0
173,-1.04296875,-0.19921875,-0.19921875,0
174,-0.99609375,-0.2109375,-0.1796875,0
175,-0.9765625,-0.2109375,-0.1484375,0
176,-0.94921875,-0.21875,-0.1328125,0
177,-0.92578125,-0.203125,-0.12109375,0
178,-0.921875,-0.21484375,-0.109375,0
179,-0.890625,-0.171875,-0.109375,0
180,-0.875,-0.16796875,-0.08984375,0
181,-0.86328125,-0.1484375,-0.078125,0
182,-0.875,-0.14453125,-0.06640625,0
183,-0.87109375,-0.125,-0.0546875,0
184,-0.87109375,-0.10546875,-0.05078125,0
185,-0.87890625,-0.09375,-0.03515625,0
186,-0.875,-0.0859375,-0.0390625,0
187,-0.8828125,-0.0703125,-0.01171875,0
188,-0.890625,-0.05078125,0.0078125,0
189,-0.8828125,-0.04296875,0.01171875,0
190,-0.8828125,-0.046875,0.03125,0
191,-0.875,-0.03125,0.02734375,0
192,-0.859375,-0.046875,0.03515625,0
193,-0.85546875,-0.03515625,0.0390625,0
194,-0.85546875,-0.015625,0.0625,0
195,-0.859375,-0.03125,0.05859375,0
196,-0.84375,-0.02734375,0.0390625,0
197,-0.86328125,-0.015625,0.0390625,0
198,-0.86328125,-0.0078125,0.04296875,0
199,-0.8828125,-0.00390625,0.05859375,0
200,-0.90625,0.01171875,0.0625,0
201,-0.92578125,0.02734375,0.0625,0
202,-0.953125,0.015625,0.07421875,0
203,-0.97265625,0.02734375,0.06640625,0
204,-0.984375,0.0390625,0.0703125,0
205,-1.0078125,0.015625,0.046875,0
206,-1.02734375,0.03125,0.05859375,0
207,-1.0390625,-0.0078125,0.0546875,0
208,-1.05078125,0.00390625,0.05859375,0
209,-1.05859375,0.0234375,-0.01171875,0
210,-1.11328125,0.0234375,0.05859375,0
211,-1.09375,0.02734375,0.015625,0
212,-1.10546875,0.05078125,-0.0078125,0
213,-1.09765625,0.05078125,-0.03515625,0
214,-1.109375,0.046875,-0.046875,0
215,-1.08984375,0.05078125,-0.06640625,0
216,-1.078125,0.06640625,-0.0625,0
217,-1.0625,0.06640625,-0.06640625,0
218,-1.04296875,0.078125,-0.07421875,0
219,-1.03515625,0.078125,-0.09765625,0
220,-1.046875,0.09375,-0.0390625,0
221,-1.03515625,0.06640625,-0.046875,0
222,-1.04296875,0.046875,-0.05078125,0
223,-1.078125,0.0546875,-0.046875,0
224,-1.09765625,0.04296875,-0.046875,0
225,-1.125,0.0390625,-0.0625,0
226,-1.171875,0.01953125,-0.0859375,0
227,-1.21875,-0.01953125,-0.15234375,0
228,-1.2578125,-0.09765625,-0.19921875,0
229,-1.28515625,-0.203125,-0.234375,0
230,-1.31640625,-0.28125,-0.27734375,0
231,-1.3359375,-0.3671875,-0.296875,0
232,-1.34765625,-0.37109375,-0.296875,0
233,-1.390625,-0.37890625,-0.27734375,0
234,-1.4140625,-0.33984375,-0.2734375,0
235,-1.41015625,-0.28515625,-0.26953125,0
236,-1.39453125,-0.2265625,-0.26171875,0
237,-1.35546875,-0.21875,-0.2421875,0
238,-1.33203125,-0.21484375,-0.19921875,0
239,-1.2734375,-0.2265625,-0.1796875,0
240,-1.22265625,-0.27734375,-0.12109375,0
241,-1.16796875,-0.3359375,-0.0703125,0
242,-1.0859375,-0.39453125,-0.11328125,0
243,-1.06640625,-0.4453125,0.01953125,0
244,-0.98046875,-0.46484375,0.0859375,0
245,-0.9609375,-0.47265625,0.16015625,0
246,-0.90625,-0.4921875,0.1640625,0
247,-0.87109375,-0.515625,0.18359375,0
248,-0.8515625,-0.52734375,0.203125,0
249,-0.875,-0.56640625,0.1875,0
250,-0.88671875,-0.58984375,0.1796875,0
251,-0.921875,-0.609375,0.140625,0
252,-0.9609375,-0.62109375,0.109375,0
253,-0.9765625,-0.62890625,0.109375,0
254,-0.99609375,-0.58984375,0.08984375,0
255,-1.0234375,-0.54296875,0.08984375,0
256,-1.05078125,-0.49609375,0.0703125,0
257,-1.046875,-0.40625,0.046875,0
258,-1.0546875,-0.38671875,0.0234375,0
259,-1.06640625,-0.359375,0.0078125,0
260,-1.07421875,-0.37890625,-0.01171875,0
261,-1.06640625,-0.37109375,-0.0390625,0
262,-1.0625,-0.38671875,-0.078125,0
263,-1.04296875,-0.35546875,-0.05859375,0
264,-1.03125,-0.375,-0.05078125,0
265,-1.015625,-0.3671875,-0.0625,0
266,-1.01171875,-0.34375,-0.0546875,0
267,-1.0234375,-0.32421875,-0.03515625,0
268,-1.015625,-0.3125,-0.04296875,0
269,-0.99609375,-0.3046875,-0.046875,0
270,-0.97265625,-0.27734375,-0.0546875,0
271,-0.96484375,-0.27734375,-0.0625,0
272,-0.93359375,-0.28125,-0.08984375,0
273,-0.88671875,-0.28515625,-0.109375,0
274,-0.87109375,-0.27734375,-0.13671875,0
275,-0.84375,-0.2890625,-0.14453125,0
276,-0.859375,-0.30859375,-0.16796875,0
277,-0.828125,-0.30859375,-0.16015625,0
278,-0.82421875,-0.32421875,-0.16796875,0
279,-0.81640625,-0.34375,-0.18359375,0
280,-0.78125,-0.36328125,-0.17578125,0
281,-0.78125,-0.36328125,-0.16796875,0
282,-0.78125,-0.35546875,-0.1640625,0
283,-0.80078125,-0.375,-0.140625,0
284,-0.78515625,-0.3671875,-0.13671875,0
285,-0.8046875,-0.359375,-0.109375,0
286,-0.8359375,-0.3359375,-0.078125,0
287,-0.859375,-0.32421875,-0.0625,0
288,-0.875,-0.32421875,-0.01953125,0
289,-0.90234375,-0.296875,0.01953125,0
290,-0.91015625,-0.2734375,0.02734375,0
291,-0.91796875,-0.25,0.0546875,0
292,-0.88671875,-0.2578125,0.06640625,0
293,-0.8828125,-0.26171875,0.09765625,0
294,-0.87890625,-0.25390625,0.12890625,0
295,-0.8671875,-0.27734375,0.14453125,0
296,-0.82421875,-0.26953125,0.16015625,0
297,-0.80078125,-0.26171875,0.19140625,0
298,-0.796875,-0.2890625,0.203125,0
299,-0.78515625,-0.25390625,0.20703125,0
300,-0.8125,-0.2578125,0.2265625,0
301,-0.8203125,-0.24609375,0.2109375,0
302,-0.84375,-0.234375,0.19921875,0
303,-0.8671875,-0.22265625,0.19140625,0
304,-0.88671875,-0.20703125,0.15625,0
305,-0.9140625,-0.2109375,0.15234375,0
306,-0.921875,-0.21484375,0.1328125,0
307,-0.94140625,-0.21875,0.109375,0
308,-0.94140625,-0.2265625,0.1015625,0
309,-0.94140625,-0.2265625,0.078125,0
310,-0.94140625,-0.22265625,0.0390625,0
311,-0.9453125,-0.20703125,0.046875,0
312,-0.9453125,-0.20703125,0.02734375,0
313,-0.94140625,-0.19140625,0.015625,0
314,-0.95703125,-0.17578125,0.015625,0
315,-0.93359375,-0.1796875,0.01953125,0
316,-0.92578125,-0.171875,0.015625,0
317,-0.921875,-0.140625,0.01953125,0
318,-0.9140625,-0.1171875,0.04296875,0
319,-0.89453125,-0.12109375,0.03515625,0
320,-0.8984375,-0.09765625,0.04296875,0
321,-0.8828125,-0.1015625,0.05078125,0
322,-0.859375,-0.109375,0.04296875,0
323,-0.84375,-0.1015625,0.0546875,0
324,-0.84375,-0.0859375,0.05078125,0
325,-0.8515625,-0.05859375,0.03125,0
326,-0.859375,-0.0546875,0.03515625,0
327,-0.859375,-0.046875,0.0390625,0
328,-0.84765625,-0.046875,0.0078125,0
329,-0.84375,-0.05078125,0.01953125,0
330,-0.83203125,-0.05859375,0.00390625,0
331,-0.83984375,-0.08984375,0.0390625,0
332,-0.83203125,-0.10546875,0.0390625,0
333,-0.83984375,-0.10546875,0.04296875,0
334,-0.85546875,-0.1484375,0.05859375,0
335,-0.875,-0.125,0.046875,0
336,-0.90234375,-0.13671875,0.0546875,0
337,-0.9453125,-0.1171875,0.05078125,0
338,-0.96875,-0.12109375,0.05859375,0
339,-0.98046875,-0.12890625,0.0625,0
340,-1.00390625,-0.12890625,0.0546875,0
341,-1.0078125,-0.171875,0.0390625,0
342,-1.0234375,-0.1875,0.046875,0
343,-1.0,-0.19921875,0.01171875,0
344,-1.01953125,-0.23046875,0.01953125,0
345,-1.02734375,-0.23046875,0.046875,0
346,-1.0390625,-0.2421875,0.0703125,0
347,-1.05078125,-0.22265625,0.1171875,0
348,-1.08203125,-0.21875,0.140625,0
349,-1.11328125,-0.1953125,0.171875,0
350,-1.125,-0.1796875,0.17578125,0
351,-1.140625,-0.140625,0.17578125,0
352,-1.12890625,-0.1328125,0.1796875,0
353,-1.15234375,-0.109375,0.18359375,0
354,-1.13671875,-0.08984375,0.171875,0
355,-1.13671875,-0.078125,0.125,0
356,-1.12109375,-0.07421875,0.10546875,0
357,-1.09375,-0.05859375,0.01953125,0
358,-1.07421875,-0.02734375,0.00390625,0
359,-1.04296875,-0.01171875,-0.03515625,0
360,-1.03125,0.01171875,-0.0625,0
361,-1.015625,0.05078125,-0.140625,0
362,-1.01171875,0.11328125,-0.171875,0
363,-1.0234375,0.16015625,-0.125,0
364,-1.02734375,0.16796875,-0.21484375,0
365,-1.09375,0.20703125,-0.1875,0
366,-1.12109375,0.1953125,-0.140625,0
367,-1.14453125,0.171875,-0.078125,0
368,-1.1484375,0.1015625,-0.03515625,0
369,-1.13671875,0.0078125,0.0546875,0
370,-1.12109375,-0.1015625,0.09765625,0
371,-1.10546875,-0.22265625,0.140625,0
372,-1.109375,-0.30078125,0.16796875,0
373,-1.11328125,-0.33203125,0.2109375,0
374,-1.17578125,-0.296875,0.265625,0
375,-1.21875,-0.22265625,0.28125,0
376,-1.24609375,-0.16015625,0.27734375,0
377,-1.26171875,-0.125,0.26953125,0
378,-1.26171875,-0.08984375,0.25390625,0
379,-1.24609375,-0.05078125,0.21875,0
380,-1.2265625,-0.046875,0.203125,0
381,-1.19140625,-0.01171875,0.171875,0
382,-1.16796875,-0.046875,0.17578125,0
383,-1.13671875,-0.0625,0.15234375,0
384,-1.1171875,-0.08203125,0.1796875,0
385,-1.09375,-0.1015625,0.171875,0
386,-1.07421875,-0.1171875,0.20703125,0
387,-1.05078125,-0.1640625,0.20703125,0
388,-1.03125,-0.171875,0.25390625,0
389,-1.01171875,-0.203125,0.2734375,0
390,-0.99609375,-0.21484375,0.30859375,0
391,-0.9765625,-0.23828125,0.31640625,0
392,-0.94140625,-0.25390625,0.3125,0
393,-0.9140625,-0.25390625,0.33203125,0
394,-0.875,-0.27734375,0.35546875,0
395,-0.8203125,-0.328125,0.34765625,0
396,-0.74609375,-0.359375,0.3515625,0
397,-0.70703125,-0.41796875,0.37109375,0
398,-0.63671875,-0.46484375,0.3515625,0
399,-0.578125,-0.5,0.359375,0
400,-0.5390625,-0.53125,0.30859375,0
401,-0.51171875,-0.515625,0.296875,0
402,-0.49609375,-0.484375,0.2734375,0
403,-0.51171875,-0.4375,0.234375,0
404,-0.5390625,-0.41796875,0.23828125,0
405,-0.625,-0.359375,0.28515625,0
406,-0.72265625,-0.3046875,0.3046875,0
407,-0.83203125,-0.2421875,0.30859375,0
408,-0.93359375,-0.21484375,0.29296875,0
409,-0.99609375,-0.19140625,0.26171875,0
410,-1.03515625,-0.2109375,0.24609375,0
411,-1.0234375,-0.265625,0.21875,0
412,-1.00390625,-0.36328125,0.2109375,0
413,-0.96875,-0.5,0.24609375,0
414,-0.9375,-0.6171875,0.25,0
415,-0.89453125,-0.72265625,0.27734375,0
416,-0.85546875,-0.765625,0.29296875,0
417,-0.83203125,-0.8203125,0.265625,0
418,-0.8125,-0.8515625,0.29296875,0
419,-0.78125,-0.8828125,0.3046875,0
420,-0.75,-0.921875,0.33984375,0
421,-0.73046875,-0.91015625,0.39453125,0
422,-0.71875,-0.91796875,0.3984375,0
423,-0.6953125,-0.9296875,0.390625,0
424,-0.68359375,-0.91015625,0.36328125,0
425,-0.69921875,-0.921875,0.34765625,0
426,-0.71875,-0.953125,0.3203125,0
427,-0.7421875,-0.94140625,0.265625,0
428,-0.76953125,-0.9453125,0.1953125,0
429,-0.8046875,-0.92578125,0.09765625,0
430,-0.828125,-0.8671875,-0.01953125,0
431,-0.85546875,-0.82421875,-0.1328125,0
432,-0.87890625,-0.77734375,-0.23046875,0
433,-0.890625,-0.71484375,-0.31640625,0
434,-0.90234375,-0.68359375,-0.3828125,0
435,-0.90625,-0.6796875,-0.40234375,0
436,-0.921875,-0.7109375,-0.40234375,0
437,-0.94921875,-0.7421875,-0.421875,0
438,-1.0,-0.74609375,-0.4140625,0
439,-1.046875,-0.75390625,-0.3984375,0
440,-1.09375,-0.78125,-0.34375,0
441,-1.1328125,-0.8046875,-0.32421875,0
442,-1.1796875,-0.75390625,-0.2890625,0
443,-1.21875,-0.71875,-0.28125,0
444,-1.25390625,-0.671875,-0.23828125,0
445,-1.30859375,-0.64453125,-0.25,0
446,-1.328125,-0.5859375,-0.25390625,0
447,-1.3671875,-0.55078125,-0.2734375,0
448,-1.390625,-0.51171875,-0.296875,0
449,-1.40625,-0.49609375,-0.296875,0
450,-1.4296875,-0.5078125,-0.3125,0
451,-1.44921875,-0.51953125,-0.27734375,0
452,-1.4453125,-0.51171875,-0.30859375,0
453,-1.42578125,-0.51171875,-0.359375,0
454,-1.4140625,-0.515625,-0.3671875,0
455,-1.39453125,-0.5,-0.3203125,0
456,-1.37109375,-0.4921875,-0.3046875,0
457,-1.3203125,-0.48828125,-0.28125,0
458,-1.25390625,-0.4765625,-0.2578125,0
459,-1.21484375,-0.5,-0.234375,0
460,-1.171875,-0.5,-0.1875,0
461,-1.17578125,-0.5,-0.15625,0
462,-1.19140625,-0.46875,-0.07421875,0
463,-1.17578125,-0.39453125,-0.0625,0
464,-1.1640625,-0.3671875,-0.07421875,0
465,-1.16015625,-0.296875,-0.0234375,0
466,-1.1875,-0.234375,0.09375,0
467,-1.1953125,-0.21484375,0.1015625,0
468,-1.15625,-0.21484375,0.046875,0
469,-1.13671875,-0.2421875,0.0,0
470,-1.09375,-0.2578125,0.02734375,0
471,-1.0546875,-0.24609375,-0.046875,0
472,-1.00390625,-0.22265625,-0.16796875,0
473,-0.92578125,-0.1796875,-0.2265625,0
474,-0.90234375,-0.19921875,-0.23828125,0
475,-0.67578125,-0.15234375,-0.3984375,0
476,-0.546875,-0.1953125,-0.4375,0
477,-0.38671875,-0.21875,-0.40625,0
478,-0.23046875,-0.30859375,-0.359375,0
479,-0.12890625,-0.29296875,-0.4140625,0
480,-0.02734375,-0.36328125,-0.37109375,0
481,0.04296875,-0.41015625,-0.33203125,0
482,0.12109375,-0.3359375,-0.26953125,0
483,0.14453125,-0.31640625,-0.21875,0
484,0.15625,-0.22265625,-0.234375,0
485,0.15625,-0.15625,-0.265625,0
486,0.125,-0.12109375,-0.296875,0
487,0.06640625,-0.1015625,-0.3046875,0
488,0.03125,-0.1171875,-0.31640625,0
489,0.01953125,-0.17578125,-0.30859375,0
490,0.01953125,-0.19921875,-0.30078125,0
491,0.046875,-0.234375,-0.26953125,0
492,0.04296875,-0.6875,0.04296875,0
493,0.12109375,-0.953125,0.625,0
494,0.171875,-1.3203125,0.92578125,0
495,0.4296875,-1.921875,0.56640625,0
496,0.55078125,-1.734375,-0.0546875,0
497,0.54296875,-0.3203125,-0.21484375,0
498,-0.12109375,0.44921875,0.0078125,0
499,-0.4609375,0.359375,0.48046875,0
500,-0.5546875,-0.01953125,0.703125,0
501,-0.52734375,-0.80078125,0.5078125,0
502,-0.76953125,-1.74609375,0.39453125,0
503,-1.31640625,-2.125,0.515625,0
504,-1.8125,-2.328125,0.54296875,0
505,-2.0625,-2.0859375,0.328125,0
506,-2.14453125,-1.26953125,-0.02734375,0
507,-2.09375,-0.828125,-0.3359375,0
508,-2.00390625,-1.03515625,-0.28515625,0
509,-2.046875,-1.19921875,0.0859375,0
510,-2.20703125,-1.14453125,0.36328125,0
511,-2.328125,-0.9609375,0.4453125,0
512,-2.2578125,-0.90234375,0.4296875,0
513,-2.19140625,-1.06640625,0.53515625,0
514,-2.08984375,-1.234375,0.6796875,0
515,-1.96484375,-1.2265625,0.8125,0
516,-1.92578125,-1.14453125,0.84375,0
517,-1.8515625,-1.0078125,0.8203125,0
518,-1.734375,-0.90234375,0.71875,0
519,-1.6484375,-0.8671875,0.64453125,0
520,-1.59375,-0.84765625,0.5546875,0
521,-1.58984375,-0.8203125,0.49609375,0
522,-1.63671875,-0.76171875,0.41796875,0
523,-1.671875,-0.7421875,0.29296875,0
524,-1.68359375,-0.70703125,0.1953125,0
525,-1.703125,-0.6953125,0.109375,0
526,-1.71875,-0.5859375,0.00390625,0
527,-1.73046875,-0.515625,-0.12109375,0
528,-1.6953125,-0.47265625,-0.20703125,0
529,-1.640625,-0.45703125,-0.3046875,0
530,-1.578125,-0.44921875,-0.328125,0
531,-1.5625,-0.48046875,-0.34765625,0
532,-1.5,-0.3984375,-0.375,0
533,-1.51171875,-0.37109375,-0.39453125,0
534,-1.5390625,-0.35546875,-0.37890625,0
535,-1.54296875,-0.3046875,-0.40234375,0
536,-1.54296875,-0.30078125,-0.390625,0
537,-1.4921875,-0.2734375,-0.328125,0
538,-1.421875,-0.2890625,-0.29296875,0
539,-1.28125,-0.30078125,-0.1328125,0
540,-1.1875,-0.30859375,-0.015625,0
541,-1.02734375,-0.33984375,0.07421875,0
542,-0.9296875,-0.4140625,0.15234375,0
543,-0.85546875,-0.29296875,0.21484375,0
544,-0.703125,-0.22265625,0.28125,0
545,-0.625,-0.2109375,0.31640625,0
546,-0.59375,-0.1640625,0.22265625,0
547,-0.47265625,-0.0390625,0.29296875,0
548,-0.45703125,0.02734375,0.33984375,0
549,-0.484375,0.00390625,0.28515625,0
550,-0.3984375,0.05078125,0.30859375,0
551,-0.37109375,0.078125,0.3046875,0
552,-0.3203125,0.05859375,0.34375,0
553,-0.30078125,0.09375,0.37109375,0
554,-0.2421875,-0.00390625,0.375,0
555,-0.20703125,-0.03125,0.29296875,0
556,-0.14453125,-0.05859375,0.19140625,0
557,-0.09765625,-0.08984375,0.08984375,0
558,-0.0703125,-0.0703125,-0.0625,0
559,-0.0390625,-0.03515625,-0.1875,0
560,-0.0546875,0.04296875,-0.2734375,0
561,-0.0390625,0.11328125,-0.3203125,0
562,-0.0625,0.125,-0.4296875,0
563,-0.12890625,0.1875,-0.421875,0
564,-0.125,0.171875,-0.3984375,0
565,-0.21875,0.234375,-0.484375,0
566,-0.25390625,0.2421875,-0.5078125,0
567,-0.2890625,0.23046875,-0.49609375,0
568,-0.29296875,0.2109375,-0.46875,0
569,-0.234375,0.15234375,-0.5,0
570,-0.16015625,0.05859375,-0.47265625,0
571,-0.0390625,-0.015625,-0.45703125,0
572,0.08984375,-0.109375,-0.41015625,0
573,0.20703125,-0.14453125,-0.3671875,0
574,0.3046875,-0.24609375,-0.27734375,0
575,0.296875,-0.22265625,-0.2421875,0
576,0.27734375,-0.2734375,-0.09375,0
577,0.203125,-0.33203125,0.02734375,0
578,0.08984375,-0.47265625,0.14453125,0
579,-0.0078125,-0.80078125,0.3203125,0
580,-0.1484375,-1.15234375,0.57421875,0
581,-0.2890625,-1.41796875,0.65234375,0
582,-0.48828125,-2.0,0.81640625,0
583,-0.6640625,-2.8984375,1.28515625,0
584,-0.9765625,-3.8203125,1.9453125,0
585,-1.76171875,-3.58203125,2.578125,0
586,-2.6171875,-2.3984375,2.61328125,0
587,-3.3359375,-0.890625,2.04296875,0
588,-3.75,0.17578125,1.13671875,0
589,-3.68359375,0.140625,0.21875,0
590,-3.35546875,-0.26171875,-0.46484375,0
591,-2.890625,-0.921875,-0.99609375,0
592,-2.359375,-1.52734375,-1.3515625,0
593,-2.03125,-1.78515625,-1.7109375,0
594,-1.8984375,-1.578125,-1.99609375,0
595,-1.7890625,-1.33984375,-2.21875,0
596,-1.60546875,-1.140625,-1.9453125,0
597,-1.4375,-1.234375,-1.14453125,0
598,-1.2421875,-1.328125,-0.65625,0
599,-1.09765625,-1.390625,-0.24609375,0
600,-1.04296875,-1.41015625,0.171875,0
601,-1.0,-1.34375,0.515625,0
602,-1.01171875,-1.26171875,0.84375,0
603,-1.0078125,-1.1953125,1.05078125,0
604,-1.02734375,-1.01953125,1.19140625,0
605,-1.05078125,-0.8671875,1.29296875,0
606,-1.09375,-0.80859375,1.44140625,0
607,-1.109375,-0.71875,1.43359375,0
608,-1.125,-0.640625,1.3984375,0
609,-1.16015625,-0.61328125,1.2734375,0
610,-1.203125,-0.58984375,1.1171875,0
611,-1.24609375,-0.59765625,0.96484375,0
612,-1.2890625,-0.53125,0.77734375,0
613,-1.30859375,-0.4921875,0.56640625,0
614,-1.27734375,-0.44921875,0.375,0
615,-1.2265625,-0.44140625,0.2109375,0
616,-1.1171875,-0.43359375,0.06640625,0
617,-1.03515625,-0.4140625,-0.0390625,0
618,-0.93359375,-0.36328125,-0.10546875,0
619,-0.875,-0.3515625,-0.16796875,0
620,-0.81640625,-0.30859375,-0.21484375,0
621,-0.80078125,-0.2578125,-0.265625,0
622,-0.8125,-0.25,-0.33203125,0
623,-0.83203125,-0.22265625,-0.40234375,0
624,-0.859375,-0.20703125,-0.42578125,0
625,-0.890625,-0.203125,-0.43359375,0
626,-0.87109375,-0.203125,-0.40625,0
627,-0.83203125,-0.22265625,-0.3515625,0
628,-0.7890625,-0.21484375,-0.29296875,0
629,-0.734375,-0.22265625,-0.2265625,0
630,-0.68359375,-0.22265625,-0.12890625,0
631,-0.640625,-0.21484375,-0.04296875,0
632,-0.58203125,-0.203125,0.04296875,0
633,-0.5390625,-0.203125,0.09375,0
634,-0.52734375,-0.2109375,0.17578125,0
635,-0.50390625,-0.20703125,0.19921875,0
636,-0.48828125,-0.19921875,0.22265625,0
637,-0.4765625,-0.15625,0.28515625,0
638,-0.4921875,-0.08984375,0.37109375,0
639,-0.53515625,-0.08203125,0.42578125,0
640,-0.546875,-0.07421875,0.36328125,0
641,-0.6171875,-0.0390625,0.35546875,0
642,-0.671875,-0.0234375,0.3203125,0
643,-0.7109375,-0.00390625,0.2890625,0
644,-0.7265625,0.015625,0.25,0
645,-0.75390625,-0.0078125,0.16015625,0
646,-0.75,-0.03125,0.140625,0
647,-0.7421875,-0.0234375,0.14453125,0
648,-0.7109375,-0.046875,0.15625,0
649,-0.66015625,-0.078125,0.0625,0
650,-0.6328125,-0.09765625,-0.0546875,0
651,-0.59375,-0.10546875,-0.0703125,0
652,-0.55078125,-0.140625,-0.0859375,0
653,-0.5234375,-0.13671875,-0.08984375,0
654,-0.5078125,-0.125,-0.0859375,0
655,-0.5390625,-0.109375,-0.10546875,0
656,-0.6171875,-0.0703125,-0.12109375,0
657,-0.69140625,-0.015625,-0.15625,0
658,-0.75390625,0.03515625,-0.16015625,0
659,-0.828125,0.0234375,-0.15625,0
660,-0.84765625,0.05859375,-0.109375,0
661,-0.85546875,0.0625,-0.08203125,0
662,-0.8515625,0.02734375,-0.0859375,0
663,-0.8359375,-0.02734375,-0.06640625,0
664,-0.828125,-0.03125,-0.05078125,0
665,-0.8046875,-0.0859375,0.02734375,0
666,-0.8046875,-0.1328125,0.01171875,0
667,-0.77734375,-0.1640625,0.04296875,0
668,-0.79296875,-0.203125,0.05078125,0
669,-0.796875,-0.25,0.0546875,0
670,-0.83984375,-0.31640625,-0.015625,0
671,-0.9375,-0.3515625,-0.0703125,0
672,-1.01171875,-0.34375,-0.10546875,0
673,-1.10546875,-0.359375,-0.14453125,0
674,-1.1640625,-0.37109375,-0.17578125,0
675,-1.17578125,-0.48046875,-0.2578125,0
676,-1.12890625,-0.6484375,-0.34375,0
677,-1.015625,-0.9140625,-0.52734375,0
678,-0.9140625,-1.27734375,-0.6875,0
679,-0.85546875,-1.60546875,-0.70703125,0
680,-1.00390625,-1.59375,-0.49609375,0
681,-1.2578125,-1.21484375,-0.1796875,0
682,-1.515625,-0.75,0.15234375,0
683,-1.6640625,-0.4921875,0.375,0
684,-1.73828125,-0.359375,0.4921875,0
685,-1.76171875,-0.2421875,0.61328125,0
686,-1.75,-0.1875,0.71484375,0
687,-1.6875,-0.19921875,0.77734375,0
688,-1.5703125,-0.29296875,0.8203125,0
689,-1.4375,-0.47265625,0.83203125,0
690,-1.3203125,-0.58984375,0.82421875,0
691,-1.22265625,-0.62109375,0.7734375,0
692,-1.19921875,-0.578125,0.64453125,0
693,-1.24609375,-0.48046875,0.484375,0
694,-1.296875,-0.40234375,0.28515625,0
695,-1.3203125,-0.39453125,0.06640625,0
696,-1.33203125,-0.42578125,-0.125,0
697,-1.33203125,-0.4765625,-0.3125,0
698,-1.33203125,-0.5234375,-0.453125,0
699,-1.34765625,-0.546875,-0.5625,0
700,-1.33984375,-0.46484375,-0.66015625,0
701,-1.3203125,-0.41796875,-0.75,0
702,-1.2890625,-0.35546875,-0.796875,0
703,-1.234375,-0.328125,-0.81640625,0
704,-1.1484375,-0.3203125,-0.80859375,0
705,-1.0859375,-0.328125,-0.765625,0
706,-1.01953125,-0.32421875,-0.671875,0
707,-0.96484375,-0.36328125,-0.546875,0
708,-0.90234375,-0.3828125,-0.40234375,0
709,-0.859375,-0.39453125,-0.265625,0
710,-0.78515625,-0.38671875,-0.12890625,0
711,-0.73046875,-0.35546875,-0.04296875,0
712,-0.69140625,-0.36328125,0.046875,0
713,-0.65625,-0.33984375,0.1328125,0
714,-0.59765625,-0.328125,0.19140625,0
715,-0.58203125,-0.328125,0.2265625,0
716,-0.546875,-0.328125,0.2421875,0
717,-0.52734375,-0.32421875,0.26953125,0
718,-0.51953125,-0.3046875,0.27734375,0
719,-0.51953125,-0.28515625,0.265625,0
720,-0.54296875,-0.2890625,0.25390625,0
721,-0.5546875,-0.2890625,0.21875,0
722,-0.5859375,-0.2734375,0.18359375,0
723,-0.609375,-0.2578125,0.16015625,0
724,-0.61328125,-0.27734375,0.12109375,0
725,-0.6015625,-0.28125,0.0859375,0
726,-0.64453125,-0.2734375,0.09375,0
727,-0.6640625,-0.28125,0.08203125,0
728,-0.6953125,-0.30078125,0.0703125,0
729,-0.734375,-0.2734375,0.06640625,0
730,-0.78515625,-0.26953125,0.05859375,0
731,-0.8359375,-0.25,0.05859375,0
732,-0.875,-0.21484375,0.07421875,0
733,-0.875,-0.234375,0.08984375,0
734,-0.875,-0.2265625,0.08984375,0
735,-0.875,-0.2265625,0.1015625,0
736,-0.890625,-0.21484375,0.109375,0
737,-0.8984375,-0.20703125,0.109375,0
738,-0.90234375,-0.171875,0.10546875,0
739,-0.91796875,-0.1875,0.10546875,0
740,-0.921875,-0.15625,0.10546875,0
741,-0.9296875,-0.1484375,0.0859375,0
742,-0.91015625,-0.1328125,0.09375,0
743,-0.9140625,-0.12890625,0.0703125,0
744,-0.89453125,-0.08203125,0.0546875,0
745,-0.88671875,-0.09375,0.05078125,0
746,-0.8671875,-0.10546875,0.04296875,0
747,-0.84765625,-0.1171875,0.0390625,0
748,-0.8359375,-0.1484375,0.02734375,0
749,-0.8203125,-0.1484375,0.0078125,0
750,-0.84375,-0.1640625,0.01171875,0
751,-0.8671875,-0.14453125,-0.015625,0
752,-0.87890625,-0.1171875,-0.03125,0
753,-0.90234375,-0.08984375,-0.05078125,0
754,-0.91796875,-0.07421875,-0.0625,0
755,-0.97265625,-0.015625,-0.06640625,0
756,-0.99609375,-0.03125,-0.0625,0
757,-1.0234375,-0.03125,-0.05078125,0
758,-1.046875,-0.02734375,-0.0390625,0
759,-1.046875,-0.05078125,0.01953125,0
760,-1.015625,-0.0859375,0.0625,0
761,-0.99609375,-0.1171875,0.140625,0
762,-0.98046875,-0.14453125,0.1796875,0
763,-0.9296875,-0.17578125,0.18359375,0
764,-0.9140625,-0.16015625,0.1640625,0
765,-0.90625,-0.1796875,0.12109375,0
766,-0.91015625,-0.1796875,0.09765625,0
767,-0.9296875,-0.1640625,0.08984375,0
768,-0.96484375,-0.16015625,0.08984375,0
769,-0.9921875,-0.15234375,0.1015625,0
770,-1.015625,-0.1484375,0.10546875,0
771,-1.03515625,-0.1328125,0.109375,0
772,-1.06640625,-0.12890625,0.10546875,0
773,-1.109375,-0.12109375,0.12109375,0
774,-1.125,-0.11328125,0.1015625,0
775,-1.171875,-0.11328125,0.1015625,0
776,-1.21875,-0.11328125,0.16796875,0
777,-1.26171875,-0.1640625,0.21875,0
778,-1.33203125,-0.23046875,0.30859375,0
779,-1.35546875,-0.32421875,0.33203125,0
780,-1.3828125,-0.46875,0.30859375,0
781,-1.39453125,-0.640625,0.29296875,0
782,-1.4375,-0.73046875,0.30078125,0
783,-1.49609375,-0.7265625,0.30078125,0
784,-1.60546875,-0.640625,0.30078125,0
785,-1.6796875,-0.5703125,0.2421875,0
786,-1.71484375,-0.5546875,0.15625,0
787,-1.71484375,-0.53125,-0.01953125,0
788,-1.66796875,-0.50390625,-0.21484375,0
789,-1.57421875,-0.48828125,-0.34375,0
790,-1.50390625,-0.4453125,-0.41796875,0
791,-1.4140625,-0.43359375,-0.4375,0
792,-1.31640625,-0.39453125,-0.4765625,0
793,-1.21875,-0.36328125,-0.52734375,0
794,-1.1328125,-0.3046875,-0.54296875,0
795,-1.02734375,-0.3046875,-0.55859375,0
796,-0.953125,-0.3359375,-0.54296875,0
797,-0.8515625,-0.36328125,-0.484375,0
798,-0.74609375,-0.39453125,-0.375,0
799,-0.65625,-0.3984375,-0.24609375,0
800,-0.5703125,-0.4140625,-0.1171875,0
801,-0.5546875,-0.4296875,0.0078125,0
802,-0.55078125,-0.44921875,0.12890625,0
803,-0.58984375,-0.44921875,0.2109375,0
804,-0.61328125,-0.43359375,0.2890625,0
805,-0.671875,-0.4453125,0.3671875,0
806,-0.71875,-0.42578125,0.3984375,0
807,-0.77734375,-0.4375,0.41796875,0
808,-0.84375,-0.421875,0.42578125,0
809,-0.9140625,-0.4140625,0.42578125,0
810,-0.95703125,-0.3984375,0.41015625,0
811,-0.99609375,-0.39453125,0.38671875,0
812,-1.0390625,-0.375,0.34375,0
813,-1.07421875,-0.37109375,0.26953125,0
814,-1.09765625,-0.375,0.203125,0
815,-1.11328125,-0.39453125,0.14453125,0
816,-1.12890625,-0.390625,0.08203125,0
817,-1.125,-0.390625,0.015625,0
818,-1.09765625,-0.3828125,-0.0234375,0
819,-1.0703125,-0.40625,-0.04296875,0
820,-1.04296875,-0.37109375,-0.05859375,0
821,-1.01171875,-0.375,-0.08984375,0
822,-0.98046875,-0.3828125,-0.0859375,0
823,-0.9453125,-0.37890625,-0.0625,0
824,-0.921875,-0.35546875,-0.0390625,0
825,-0.90234375,-0.34375,0.0,0
826,-0.8828125,-0.34765625,0.01171875,0
827,-0.85546875,-0.32421875,0.03515625,0
828,-0.83203125,-0.30859375,0.046875,0
829,-0.8046875,-0.296875,0.05078125,0
830,-0.765625,-0.27734375,0.0625,0
831,-0.7890625,-0.29296875,0.125,0
832,-0.76953125,-0.3203125,0.140625,0
833,-0.74609375,-0.3203125,0.1484375,0
834,-0.71875,-0.328125,0.15234375,0
835,-0.703125,-0.3203125,0.11328125,0
836,-0.7109375,-0.30859375,0.1015625,0
837,-0.71875,-0.32421875,0.0625,0
838,-0.71875,-0.30078125,0.05078125,0
839,-0.734375,-0.296875,0.0078125,0
840,-0.7890625,-0.27734375,-0.01171875,0
841,-0.8125,-0.2734375,-0.03125,0
842,-0.84765625,-0.28125,-0.01953125,0
843,-0.8671875,-0.2734375,-0.0390625,0
844,-0.87890625,-0.28515625,-0.0546875,0
845,-0.90625,-0.26953125,-0.05859375,0
846,-0.921875,-0.28515625,-0.0625,0
847,-0.91796875,-0.28125,-0.0625,0
848,-0.93359375,-0.27734375,-0.06640625,0
849,-0.93359375,-0.265625,-0.0703125,0
850,-0.95703125,-0.2578125,-0.078125,0
851,-0.95703125,-0.2265625,-0.0625,0
852,-0.96484375,-0.21875,-0.0625,0
853,-0.9765625,-0.22265625,-0.0625,0
854,-0.984375,-0.19140625,-0.05859375,0
855,-1.0,-0.19140625,-0.0625,0
856,-1.0078125,-0.1953125,-0.046875,0
857,-1.0,-0.1953125,-0.05859375,0
858,-1.00390625,-0.1875,-0.0625,0
859,-0.984375,-0.18359375,-0.05859375,0
860,-0.9609375,-0.17578125,-0.05859375,0
861,-0.9765625,-0.19921875,-0.046875,0
862,-0.96875,-0.1953125,-0.05078125,0
863,-0.9765625,-0.19140625,-0.02734375,0
864,-0.984375,-0.18359375,-0.01171875,0
865,-1.0,-0.16796875,-0.015625,0
866,-1.0,-0.171875,-0.01171875,0
867,-1.015625,-0.16796875,0.01171875,0
868,-1.0,-0.15234375,0.015625,0
869,-1.0,-0.15234375,0.01953125,0
870,-0.9921875,-0.1484375,0.02734375,0
871,-1.00390625,-0.12890625,0.046875,0
872,-0.984375,-0.12890625,0.046875,0
873,-0.984375,-0.13671875,0.05859375,0
874,-0.9765625,-0.12890625,0.06640625,0
875,-0.9609375,-0.125,0.078125,0
876,-0.96484375,-0.12109375,0.078125,0
877,-0.96484375,-0.12890625,0.08984375,0
878,-0.9609375,-0.11328125,0.09765625,0
879,-0.94921875,-0.11328125,0.1015625,0
880,-0.95703125,-0.125,0.11328125,0
881,-0.95703125,-0.10546875,0.12890625,0
882,-0.953125,-0.0859375,0.14453125,0
883,-0.93359375,-0.05859375,0.12890625,0
884,-0.95703125,-0.0625,0.10546875,0
885,-0.96875,-0.04296875,0.06640625,0
886,-0.96875,-0.0390625,0.03515625,0
887,-0.96484375,-0.0546875,-0.01171875,0
888,-0.9609375,-0.08984375,-0.0390625,0
889,-0.9375,-0.109375,-0.05078125,0
890,-0.9140625,-0.1015625,-0.0625,0
891,-0.9140625,-0.10546875,-0.0546875,0
892,-0.93359375,-0.08203125,-0.046875,0
893,-0.93359375,-0.05859375,-0.05078125,0
894,-0.96875,-0.05078125,-0.0390625,0
895,-0.97265625,-0.03125,0.05859375,0
896,-1.0,-0.03515625,0.0,0
897,-1.0,-0.0703125,0.0078125,0
898,-1.01171875,-0.046875,0.02734375,0
899,-1.0234375,-0.06640625,0.0234375,0
900,-1.03515625,-0.07421875,0.04296875,0
901,-1.046875,-0.09375,0.0546875,0
902,-1.0390625,-0.09765625,0.07421875,0
903,-1.04296875,-0.07421875,0.078125,0
904,-1.03515625,-0.0625,0.09375,0
905,-1.015625,-0.0546875,0.10546875,0
906,-1.00390625,-0.05078125,0.12109375,0
907,-0.98828125,-0.046875,0.10546875,0
908,-0.9609375,-0.00390625,0.15625,0
909,-0.9375,0.0078125,0.16796875,0
910,-0.921875,0.0234375,0.171875,0
911,-0.90234375,0.03125,0.1640625,0
912,-0.91015625,0.0390625,0.17578125,0
913,-0.90625,0.0546875,0.171875,0
914,-0.9296875,0.0390625,0.14453125,0
915,-0.96875,0.03125,0.1171875,0
916,-1.05078125,0.0234375,0.06640625,0
917,-1.12890625,0.00390625,0.015625,0
918,-1.21484375,-0.06640625,0.00390625,0
919,-1.28515625,-0.2109375,-0.01953125,0
920,-1.37109375,-0.421875,-0.05859375,0
921,-1.44140625,-0.60546875,-0.07421875,0
922,-1.5234375,-0.7109375,-0.14453125,0
923,-1.6328125,-0.69921875,-0.2578125,0
924,-1.71484375,-0.64453125,-0.375,0
925,-1.7421875,-0.61328125,-0.49609375,0
926,-1.7421875,-0.65234375,-0.54296875,0
927,-1.66796875,-0.65234375,-0.47265625,0
928,-1.52734375,-0.59765625,-0.359375,0
929,-1.42578125,-0.48046875,-0.296875,0
930,-1.30859375,-0.34375,-0.23828125,0
931,-1.2109375,-0.26171875,-0.15625,0
932,-1.1484375,-0.26953125,-0.0546875,0
933,-1.046875,-0.3046875,0.0625,0
934,-0.9375,-0.3359375,0.203125,0
935,-0.83203125,-0.375,0.3203125,0
936,-0.72265625,-0.38671875,0.41796875,0
937,-0.6484375,-0.3984375,0.453125,0
938,-0.62109375,-0.39453125,0.44921875,0
939,-0.62109375,-0.4140625,0.421875,0
940,-0.6640625,-0.41015625,0.34765625,0
941,-0.703125,-0.453125,0.25390625,0
942,-0.76171875,-0.4375,0.15234375,0
943,-0.82421875,-0.4375,0.0546875,0
944,-0.8984375,-0.41015625,-0.03125,0
945,-0.9609375,-0.375,-0.06640625,0
946,-1.015625,-0.3359375,-0.140625,0
947,-1.0703125,-0.29296875,-0.1953125,0
948,-1.08984375,-0.2578125,-0.24609375,0
949,-1.10546875,-0.23046875,-0.25390625,0
950,-1.11328125,-0.23046875,-0.28515625,0
951,-1.10546875,-0.23828125,-0.29296875,0
952,-1.09375,-0.234375,-0.30078125,0
953,-1.08203125,-0.25390625,-0.26953125,0
954,-1.07421875,-0.2421875,-0.23828125,0
955,-1.03515625,-0.25390625,-0.1953125,0
956,-1.01171875,-0.26953125,-0.1640625,0
957,-0.97265625,-0.26953125,-0.140625,0
958,-0.953125,-0.28125,-0.08203125,0
959,-0.91796875,-0.27734375,-0.0625,0
960,-0.90625,-0.2734375,-0.046875,0
961,-0.89453125,-0.28515625,-0.02734375,0
962,-0.875,-0.29296875,-0.01953125,0
963,-0.87109375,-0.28515625,-0.0078125,0
964,-0.85546875,-0.30078125,0.00390625,0
965,-0.83984375,-0.29296875,0.02734375,0
966,-0.8203125,-0.28515625,0.03515625,0
967,-0.79296875,-0.296875,0.04296875,0
968,-0.78515625,-0.3125,0.046875,0
969,-0.77734375,-0.30859375,0.0546875,0
970,-0.78515625,-0.30859375,0.05859375,0
971,-0.78515625,-0.30078125,0.0546875,0
972,-0.796875,-0.2890625,0.05859375,0
973,-0.8125,-0.265625,0.0546875,0
974,-0.83203125,-0.25,0.046875,0
975,-0.8671875,-0.24609375,0.046875,0
976,-0.890625,-0.21484375,0.03125,0
977,-0.91796875,-0.21484375,0.0390625,0
978,-0.92578125,-0.19921875,0.0078125,0
979,-0.9375,-0.19140625,0.0,0
980,-0.94140625,-0.15625,0.01953125,0
981,-0.93359375,-0.16015625,0.01953125,0
982,-0.94140625,-0.1796875,0.0234375,0
983,-0.92578125,-0.1640625,0.03515625,0
984,-0.92578125,-0.171875,0.0546875,0
985,-0.91015625,-0.16796875,0.0703125,0
986,-0.8984375,-0.1640625,0.08203125,0
987,-0.87890625,-0.17578125,0.09375,0
988,-0.875,-0.1796875,0.125,0
989,-0.875,-0.19921875,0.125,0
990,-0.859375,-0.1953125,0.125,0
991,-0.87109375,-0.20703125,0.11328125,0
992,-0.86328125,-0.20703125,0.109375,0
993,-0.87890625,-0.21875,0.10546875,0
994,-0.890625,-0.21875,0.09375,0
995,-0.89453125,-0.22265625,0.09765625,0
996,-0.9140625,-0.2265625,0.05859375,0
997,-0.91796875,-0.21484375,0.05859375,0
998,-0.921875,-0.20703125,0.0546875,0
999,-0.94140625,-0.19921875,0.0546875,0
1000,-0.9296875,-0.19921875,0.0390625,0
1001,-0.9140625,-0.1953125,0.02734375,0
1002,-0.8984375,-0.203125,0.03125,0
1003,-0.91015625,-0.1875,0.0390625,0
1004,-0.90625,-0.171875,0.0234375,0
1005,-0.91796875,-0.140625,0.01953125,0
1006,-0.92578125,-0.140625,0.00390625,0
1007,-0.92578125,-0.12890625,0.015625,0
1008,-0.9375,-0.109375,0.0078125,0
1009,-0.95703125,-0.109375,0.0234375,0
1010,-0.96484375,-0.08984375,0.0390625,0
1011,-0.96484375,-0.09765625,0.03515625,0
1012,-0.98828125,-0.09765625,0.03515625,0
1013,-0.99609375,-0.08203125,0.03125,0
1014,-1.0,-0.0859375,0.05078125,0
1015,-0.984375,-0.0859375,0.04296875,0
1016,-0.96875,-0.1015625,0.05078125,0
1017,-0.953125,-0.078125,0.08984375,0
1018,-0.9296875,-0.125,0.1328125,0
1019,-0.93359375,-0.15625,0.14453125,0
1020,-0.93359375,-0.171875,0.1640625,0
1021,-0.94140625,-0.203125,0.17578125,0
1022,-0.9453125,-0.2265625,0.1640625,0
1023,-0.96875,-0.21484375,0.16796875,0
1024,-0.9765625,-0.1953125,0.1171875,0
1025,-1.0078125,-0.171875,0.08203125,0
1026,-1.0390625,-0.16015625,0.05078125,0
1027,-1.0625,-0.1328125,0.02734375,0
1028,-1.06640625,-0.109375,-0.00390625,0
1029,-1.08203125,-0.09765625,-0.0390625,0
1030,-1.08203125,-0.09375,-0.0546875,0
1031,-1.1015625,-0.12109375,-0.05078125,0
1032,-1.08984375,-0.10546875,-0.05859375,0
1033,-1.08203125,-0.10546875,-0.04296875,0
1034,-1.07421875,-0.125,-0.0390625,0
1035,-1.09375,-0.1171875,-0.01171875,0
1036,-1.10546875,-0.08984375,0.00390625,0
1037,-1.1171875,-0.08984375,0.0078125,0
1038,-1.109375,-0.08203125,0.01171875,0
1039,-1.1171875,-0.0625,0.02734375,0
1040,-1.0859375,-0.04296875,0.03125,0
1041,-1.0703125,-0.0390625,0.0390625,0
1042,-1.05078125,-0.0390625,0.0390625,0
1043,-1.0390625,-0.0234375,0.0234375,0
1044,-1.02734375,0.0,0.00390625,0
1045,-0.98828125,0.01171875,-0.01171875,0
1046,-0.97265625,0.04296875,-0.0390625,0
1047,-0.95703125,0.0625,-0.05859375,0
1048,-0.94921875,0.09375,-0.0625,0
1049,-0.94921875,0.13671875,-0.0625,0
1050,-0.953125,0.1640625,-0.0625,0
1051,-0.9609375,0.17578125,-0.08984375,0
1052,-0.984375,0.1875,-0.08984375,0
1053,-1.00390625,0.15625,-0.12109375,0
1054,-1.03515625,0.13671875,-0.14453125,0
1055,-1.09375,0.10546875,-0.1328125,0
1056,-1.14453125,0.04296875,-0.10546875,0
1057,-1.16015625,-0.0234375,-0.06640625,0
1058,-1.19921875,-0.125,-0.0078125,0
1059,-1.2265625,-0.21875,0.0234375,0
1060,-1.25390625,-0.31640625,0.03125,0
1061,-1.29296875,-0.3828125,0.015625,0
1062,-1.34765625,-0.3671875,0.00390625,0
1063,-1.41796875,-0.33203125,0.01953125,0
1064,-1.47265625,-0.30078125,0.0,0
1065,-1.5,-0.28125,0.0078125,0
1066,-1.50390625,-0.27734375,0.0234375,0
1067,-1.48828125,-0.3125,0.05078125,0
1068,-1.4609375,-0.36328125,0.1015625,0
1069,-1.3984375,-0.41015625,0.125,0
1070,-1.34765625,-0.46484375,0.1328125,0
1071,-1.2734375,-0.47265625,0.14453125,0
1072,-1.1953125,-0.46875,0.0859375,0
1073,-1.1328125,-0.4375,0.07421875,0
1074,-1.078125,-0.40625,0.05078125,0
1075,-1.0078125,-0.359375,0.03515625,0
1076,-0.96875,-0.375,0.0234375,0
1077,-0.875,-0.34765625,0.0078125,0
1078,-0.81640625,-0.3671875,0.0,0
1079,-0.76171875,-0.375,0.00390625,0
1080,-0.7265625,-0.3828125,-0.00390625,0
1081,-0.7109375,-0.3671875,-0.00390625,0
1082,-0.69140625,-0.34765625,-0.02734375,0
1083,-0.68359375,-0.32421875,-0.0625,0
1084,-0.70703125,-0.3203125,-0.06640625,0
1085,-0.75390625,-0.328125,-0.0859375,0
1086,-0.81640625,-0.31640625,-0.06640625,0
1087,-0.89453125,-0.3203125,-0.05859375,0
1088,-0.953125,-0.3203125,-0.046875,0
1089,-1.0,-0.32421875,-0.03515625,0
1090,-1.0390625,-0.34375,-0.01171875,0
1091,-1.06640625,-0.3515625,-0.0078125,0
1092,-1.0859375,-0.38671875,0.0,0
1093,-1.10546875,-0.38671875,0.0078125,0
1094,-1.109375,-0.3984375,0.01171875,0
1095,-1.1015625,-0.38671875,0.0,0
1096,-1.09765625,-0.35546875,-0.015625,0
1097,-1.0703125,-0.34765625,-0.02734375,0
1098,-1.05859375,-0.3125,-0.01171875,0
1099,-1.03515625,-0.3046875,-0.015625,0
1100,-1.01953125,-0.2890625,-0.02734375,0
1101,-1.00390625,-0.2734375,-0.015625,0
1102,-0.99609375,-0.25390625,0.00390625,0
1103,-0.9765625,-0.25,0.0,0
1104,-0.96875,-0.24609375,0.0078125,0
1105,-0.94921875,-0.25390625,0.0234375,0
1106,-0.91796875,-0.26171875,0.03515625,0
1107,-0.90234375,-0.27734375,0.03125,0
1108,-0.8984375,-0.25390625,0.03515625,0
1109,-0.88671875,-0.2421875,0.02734375,0
1110,-0.8984375,-0.2578125,0.03125,0
1111,-0.88671875,-0.25390625,0.01171875,0
1112,-0.89453125,-0.27734375,0.03515625,0
1113,-0.87109375,-0.26171875,0.01171875,0
1114,-0.86328125,-0.2578125,0.00390625,0
1115,-0.8828125,-0.2734375,-0.01953125,0
1116,-0.86328125,-0.26953125,-0.04296875,0
1117,-0.85546875,-0.2578125,-0.05078125,0
1118,-0.87890625,-0.26171875,-0.05859375,0
1119,-0.86328125,-0.23828125,-0.0625,0
1120,-0.83984375,-0.2421875,-0.0625,0
1121,-0.8359375,-0.23046875,-0.078125,0
1122,-0.8359375,-0.2265625,-0.0625,0
1123,-0.81640625,-0.2109375,-0.08984375,0
1124,-0.8046875,-0.19921875,-0.078125,0
1125,-0.80859375,-0.18359375,-0.08984375,0
1126,-0.8125,-0.171875,-0.1015625,0
1127,-0.81640625,-0.16796875,-0.09375,0
1128,-0.828125,-0.16015625,-0.1015625,0
1129,-0.83984375,-0.16796875,-0.109375,0
1130,-0.84375,-0.16796875,-0.1328125,0
1131,-0.85546875,-0.1796875,-0.1171875,0
1132,-0.875,-0.16796875,-0.109375,0
1133,-0.8828125,-0.171875,-0.125,0
1134,-0.90234375,-0.18359375,-0.08984375,0
1135,-0.92578125,-0.1875,-0.0859375,0
1136,-0.94921875,-0.19140625,-0.06640625,0
1137,-0.95703125,-0.203125,-0.0625,0
1138,-0.97265625,-0.20703125,-0.0546875,0
1139,-0.96875,-0.19140625,-0.0625,0
1140,-0.98046875,-0.18359375,-0.05859375,0
1141,-0.9765625,-0.19140625,-0.0625,0
1142,-0.98046875,-0.17578125,-0.0625,0
1143,-0.9765625,-0.1640625,-0.05859375,0
1144,-0.96875,-0.140625,-0.07421875,0
1145,-0.953125,-0.13671875,-0.0703125,0
1146,-0.9609375,-0.12890625,-0.08203125,0
1147,-0.9453125,-0.125,-0.078125,0
1148,-0.9453125,-0.12109375,-0.06640625,0
1149,-0.93359375,-0.125,-0.0703125,0
1150,-0.921875,-0.109375,-0.0625,0
1151,-0.9375,-0.10546875,-0.078125,0
1152,-0.94140625,-0.125,-0.06640625,0
1153,-0.9296875,-0.12890625,-0.0546875,0
1154,-0.9375,-0.1171875,-0.05078125,0
1155,-0.9296875,-0.109375,-0.03515625,0
1156,-0.9296875,-0.10546875,-0.01171875,0
1157,-0.953125,-0.08984375,-0.00390625,0
1158,-0.9453125,-0.0859375,0.00390625,0
1159,-0.953125,-0.06640625,0.02734375,0
1160,-0.9609375,-0.046875,0.05078125,0
1161,-0.93359375,-0.046875,0.03125,0
1162,-0.93359375,-0.0546875,0.05859375,0
1163,-0.9453125,-0.05859375,0.046875,0
1164,-0.94140625,-0.078125,0.0078125,0
1165,-0.9375,-0.06640625,0.0390625,0
1166,-0.94140625,-0.0546875,0.00390625,0
1167,-0.9609375,-0.046875,-0.01171875,0
1168,-0.96875,-0.05078125,-0.0390625,0
1169,-0.98046875,-0.03515625,-0.05859375,0
1170,-1.00390625,-0.0390625,-0.09765625,0
1171,-1.02734375,-0.0546875,-0.1328125,0
1172,-1.03515625,-0.0625,-0.18359375,0
1173,-1.0390625,-0.0703125,-0.23046875,0
1174,-1.05859375,-0.10546875,-0.265625,0
1175,-1.0625,-0.09375,-0.28515625,0
1176,-1.07421875,-0.08203125,-0.296875,0
1177,-1.07421875,-0.05859375,-0.3125,0
1178,-1.08984375,-0.03125,-0.296875,0
1179,-1.109375,-0.02734375,-0.29296875,0
1180,-1.1015625,0.01953125,-0.2890625,0
1181,-1.1015625,0.0234375,-0.25390625,0
1182,-1.09765625,0.0390625,-0.25,0
1183,-1.09375,0.046875,-0.2109375,0
1184,-1.0859375,0.046875,-0.1796875,0
1185,-1.07421875,0.05859375,-0.1796875,0
1186,-1.0546875,0.05078125,-0.125,0
1187,-1.03125,0.05078125,-0.05078125,0
1188,-1.0,0.0390625,-0.0390625,0
1189,-1.0,0.05078125,0.03515625,0
1190,-0.97265625,0.0546875,0.03515625,0
1191,-0.98828125,0.0390625,0.05859375,0
1192,-1.015625,0.0390625,0.0859375,0
1193,-1.09375,0.02734375,0.11328125,0
1194,-1.140625,-0.0234375,0.12109375,0
1195,-1.16796875,-0.1015625,0.1171875,0
1196,-1.171875,-0.1875,0.10546875,0
1197,-1.1953125,-0.2578125,0.06640625,0
1198,-1.203125,-0.3125,0.02734375,0
1199,-1.25390625,-0.28125,-0.015625,0
1200,-1.3203125,-0.24609375,-0.0625,0
1201,-1.38671875,-0.2265625,-0.125,0
1202,-1.45703125,-0.2421875,-0.203125,0
1203,-1.4765625,-0.3046875,-0.27734375,0
1204,-1.46484375,-0.45703125,-0.36328125,0
1205,-1.40234375,-0.515625,-0.4453125,0
1206,-1.3671875,-0.5546875,-0.50390625,0
1207,-1.28515625,-0.49609375,-0.5234375,0
1208,-1.2734375,-0.44140625,-0.48046875,0
1209,-1.265625,-0.35546875,-0.38671875,0
1210,-1.23828125,-0.31640625,-0.29296875,0
1211,-1.2109375,-0.31640625,-0.171875,0
1212,-1.17578125,-0.3046875,-0.0625,0
1213,-1.1328125,-0.31640625,0.03125,0
1214,-1.0703125,-0.3046875,0.1015625,0
1215,-1.01953125,-0.30078125,0.1796875,0
1216,-0.97265625,-0.2890625,0.23828125,0
1217,-0.91796875,-0.28515625,0.296875,0
1218,-0.85546875,-0.30078125,0.33203125,0
1219,-0.796875,-0.31640625,0.39453125,0
1220,-0.74609375,-0.3203125,0.42578125,0
1221,-0.71484375,-0.3046875,0.4375,0
1222,-0.703125,-0.2890625,0.43359375,0
1223,-0.6875,-0.26953125,0.42578125,0
1224,-0.671875,-0.265625,0.3984375,0
1225,-0.68359375,-0.26953125,0.33203125,0
1226,-0.71484375,-0.26171875,0.28125,0
1227,-0.765625,-0.25,0.21875,0
1228,-0.83203125,-0.2421875,0.1484375,0
1229,-0.88671875,-0.203125,0.09765625,0
1230,-0.953125,-0.16796875,0.03125,0
1231,-1.015625,-0.1640625,-0.0390625,0
1232,-1.0625,-0.16015625,-0.078125,0
1233,-1.08984375,-0.1640625,-0.12109375,0
1234,-1.109375,-0.18359375,-0.1484375,0
1235,-1.1171875,-0.1953125,-0.17578125,0
1236,-1.12109375,-0.171875,-0.16796875,0
1237,-1.125,-0.1953125,-0.2109375,0
1238,-1.11328125,-0.203125,-0.20703125,0
1239,-1.11328125,-0.21484375,-0.1875,0
1240,-1.09375,-0.23828125,-0.17578125,0
1241,-1.0625,-0.23046875,-0.13671875,0
1242,-1.03515625,-0.23828125,-0.09375,0
1243,-0.9921875,-0.19140625,-0.06640625,0
1244,-0.97265625,-0.26171875,-0.0546875,0
1245,-0.94921875,-0.26953125,-0.046875,0
1246,-0.93359375,-0.265625,-0.015625,0
1247,-0.90625,-0.2578125,0.0078125,0
1248,-0.89453125,-0.2578125,0.03125,0
1249,-0.88671875,-0.24609375,0.06640625,0
1250,-0.8984375,-0.23046875,0.1015625,0
1251,-0.8828125,-0.2109375,0.1171875,0
1252,-0.87890625,-0.20703125,0.11328125,0
1253,-0.87890625,-0.171875,0.1171875,0
1254,-0.9140625,-0.16796875,0.11328125,0
1255,-0.8984375,-0.171875,0.1015625,0
1256,-0.89453125,-0.1796875,0.07421875,0
1257,-0.90234375,-0.1484375,0.07421875,0
1258,-0.91015625,-0.140625,0.046875,0
1259,-0.90234375,-0.1328125,0.046875,0
1260,-0.90625,-0.140625,0.0234375,0
1261,-0.890625,-0.12890625,0.015625,0
1262,-0.890625,-0.1328125,0.0234375,0
1263,-0.890625,-0.15625,0.03125,0
1264,-0.86328125,-0.1796875,0.0703125,0
1265,-0.91796875,-0.13671875,0.05078125,0
1266,-0.91796875,-0.12890625,0.05859375,0
1267,-0.9140625,-0.15234375,0.05859375,0
1268,-0.91015625,-0.1640625,0.0703125,0
1269,-0.90625,-0.1484375,0.08203125,0
1270,-0.92578125,-0.17578125,0.09375,0
1271,-0.93359375,-0.16796875,0.109375,0
1272,-0.92578125,-0.16796875,0.125,0
1273,-0.93359375,-0.1796875,0.125,0
1274,-0.93359375,-0.18359375,0.12109375,0
1275,-0.9375,-0.17578125,0.1015625,0
1276,-0.94140625,-0.1640625,0.125,0
1277,-0.96484375,-0.15625,0.1328125,0
1278,-0.96484375,-0.13671875,0.12890625,0
1279,-0.9765625,-0.14453125,0.11328125,0
1280,-0.9921875,-0.12890625,0.09765625,0
1281,-0.984375,-0.1328125,0.09375,0
1282,-0.984375,-0.10546875,0.09765625,0
1283,-0.97265625,-0.10546875,0.07421875,0
1284,-0.96875,-0.1015625,0.05859375,0
1285,-0.96484375,-0.09375,0.04296875,0
1286,-0.9765625,-0.046875,0.0703125,0
1287,-0.9609375,-0.078125,0.02734375,0
1288,-0.9453125,-0.07421875,0.015625,0
1289,-0.94140625,-0.0625,-0.0078125,0
1290,-0.9375,-0.0546875,-0.015625,0
1291,-0.953125,-0.03515625,-0.0234375,0
1292,-0.953125,-0.05859375,-0.03515625,0
1293,-0.9453125,-0.0703125,-0.05078125,0
1294,-0.94921875,-0.0703125,-0.05078125,0
1295,-0.94140625,-0.06640625,-0.0625,0
1296,-0.9453125,-0.078125,-0.05859375,0
1297,-0.98046875,-0.03515625,-0.04296875,0
1298,-0.96875,-0.078125,-0.02734375,0
1299,-0.9765625,-0.1015625,-0.0546875,0
1300,-0.98828125,-0.0859375,-0.05078125,0
1301,-0.98828125,-0.09765625,-0.04296875,0
1302,-0.9921875,-0.1015625,-0.03515625,0
1303,-0.9765625,-0.12109375,-0.01171875,0
1304,-0.9609375,-0.125,-0.00390625,0
1305,-0.9609375,-0.09375,0.03125,0
1306,-0.9609375,-0.07421875,0.05078125,0
1307,-0.96875,-0.0546875,0.078125,0
1308,-0.9296875,-0.11328125,0.08984375,0
1309,-0.9765625,-0.07421875,0.08203125,0
1310,-0.97265625,-0.07421875,0.0703125,0
1311,-0.96875,-0.078125,0.08203125,0
1312,-0.9609375,-0.0625,0.0703125,0
1313,-0.9609375,-0.08984375,0.06640625,0
1314,-0.94921875,-0.09765625,0.08203125,0
1315,-0.94921875,-0.12109375,0.07421875,0
1316,-0.953125,-0.12109375,0.0859375,0
1317,-0.96484375,-0.12890625,0.07421875,0
1318,-0.96484375,-0.12890625,0.0703125,0
1319,-0.984375,-0.09765625,0.04296875,0
1320,-0.98828125,-0.12109375,0.0625,0
1321,-1.00390625,-0.09375,0.06640625,0
1322,-1.01953125,-0.1015625,0.078125,0
1323,-1.01171875,-0.1015625,0.0703125,0
1324,-1.01171875,-0.09375,0.078125,0
1325,-0.99609375,-0.0859375,0.05859375,0
1326,-0.97265625,-0.07421875,0.05078125,0
1327,-0.97265625,-0.046875,0.046875,0
1328,-0.97265625,-0.0390625,0.03515625,0
1329,-0.96875,0.0,0.00390625,0
1330,-0.98046875,0.0234375,-0.0234375,0
1331,-0.984375,0.03125,-0.02734375,0
1332,-0.97265625,0.02734375,-0.0546875,0
1333,-0.98828125,0.0234375,-0.05859375,0
1334,-0.9921875,0.03125,-0.06640625,0
1335,-1.01171875,0.01171875,-0.07421875,0
1336,-1.03125,0.02734375,-0.08203125,0
1337,-1.05078125,0.03125,-0.08984375,0
1338,-1.07421875,0.02734375,-0.0859375,0
1339,-1.1015625,0.0234375,-0.0625,0
1340,-1.109375,0.0234375,-0.0625,0
1341,-1.1171875,0.01171875,-0.078125,0
1342,-1.15625,-0.02734375,-0.0546875,0
1343,-1.1484375,-0.03125,-0.0546875,0
1344,-1.16796875,-0.05859375,-0.04296875,0
1345,-1.18359375,-0.06640625,-0.05078125,0
1346,-1.16796875,-0.08203125,-0.0546875,0
1347,-1.171875,-0.109375,-0.05078125,0
1348,-1.19140625,-0.11328125,-0.0546875,0
1349,-1.20703125,-0.1484375,-0.0546875,0
1350,-1.21484375,-0.1875,-0.015625,0
1351,-1.21875,-0.24609375,0.03125,0
1352,-1.23046875,-0.2265625,0.01953125,0
1353,-1.25,-0.25390625,0.046875,0
1354,-1.26171875,-0.27734375,0.078125,0
1355,-1.2734375,-0.25,0.125,0
1356,-1.27734375,-0.2421875,0.16015625,0
1357,-1.265625,-0.2265625,0.1875,0
1358,-1.23828125,-0.2265625,0.19921875,0
1359,-1.21875,-0.1875,0.2109375,0
1360,-1.1640625,-0.1953125,0.20703125,0
1361,-1.12890625,-0.1796875,0.1875,0
1362,-1.08984375,-0.17578125,0.14453125,0
1363,-1.0390625,-0.19140625,0.16796875,0
1364,-0.99609375,-0.19140625,0.140625,0
1365,-0.9765625,-0.17578125,0.1171875,0
1366,-0.96484375,-0.171875,0.08984375,0
1367,-0.94921875,-0.18359375,0.07421875,0
1368,-0.921875,-0.1875,0.03515625,0
1369,-0.890625,-0.1953125,0.00390625,0
1370,-0.875,-0.21875,0.0,0
1371,-0.875,-0.2421875,-0.01953125,0
1372,-0.8515625,-0.25,-0.0390625,0
1373,-0.84375,-0.31640625,-0.0625,0
1374,-0.8359375,-0.26171875,-0.0703125,0
1375,-0.8046875,-0.27734375,-0.10546875,0
1376,-0.7890625,-0.29296875,-0.11328125,0
1377,-0.77734375,-0.3046875,-0.140625,0
1378,-0.765625,-0.296875,-0.13671875,0
1379,-0.78515625,-0.27734375,-0.125,0
1380,-0.8046875,-0.26953125,-0.140625,0
1381,-0.84375,-0.2421875,-0.1328125,0
1382,-0.859375,-0.22265625,-0.12109375,0
1383,-0.8984375,-0.25390625,-0.109375,0
1384,-0.9296875,-0.28125,-0.140625,0
1385,-0.9453125,-0.21875,-0.08984375,0
1386,-0.95703125,-0.23046875,-0.0625,0
1387,-0.96875,-0.22265625,-0.0625,0
1388,-0.984375,-0.21484375,-0.0625,0
1389,-0.99609375,-0.20703125,-0.0625,0
1390,-1.0078125,-0.1953125,-0.0625,0
1391,-1.01953125,-0.1796875,-0.0546875,0
1392,-1.03515625,-0.19140625,-0.03515625,0
1393,-1.0390625,-0.20703125,-0.03515625,0
1394,-1.05078125,-0.20703125,-0.0390625,0
1395,-1.0703125,-0.21484375,-0.03515625,0
1396,-1.0859375,-0.21875,-0.046875,0
1397,-1.1015625,-0.2109375,-0.0546875,0
1398,-1.10546875,-0.203125,-0.07421875,0
1399,-1.11328125,-0.21875,-0.08203125,0
1400,-1.08203125,-0.21875,-0.1015625,0
1401,-1.0859375,-0.21875,-0.1015625,0
1402,-1.0859375,-0.1953125,-0.08203125,0
1403,-1.078125,-0.19140625,-0.078125,0
1404,-1.05078125,-0.171875,-0.06640625,0
1405,-1.04296875,-0.1796875,-0.0625,0
1406,-1.0390625,-0.1953125,-0.0546875,0
1407,-1.00390625,-0.17578125,-0.0625,0
1408,-0.98046875,-0.1953125,-0.05078125,0
1409,-0.9609375,-0.1875,-0.0390625,0
1410,-0.96875,-0.19921875,-0.00390625,0
1411,-0.95703125,-0.19140625,-0.0078125,0
1412,-0.9453125,-0.171875,-0.0078125,0
1413,-0.9296875,-0.171875,-0.00390625,0
1414,-0.92578125,-0.1796875,0.01171875,0
1415,-0.921875,-0.171875,-0.0078125,0
1416,-0.89453125,-0.15234375,-0.01171875,0
1417,-0.87890625,-0.16015625,-0.04296875,0
1418,-0.86328125,-0.1640625,-0.0625,0
1419,-0.87109375,-0.17578125,-0.05859375,0
1420,-0.86328125,-0.16015625,-0.08984375,0
1421,-0.8515625,-0.15234375,-0.10546875,0
1422,-0.84375,-0.1328125,-0.125,0
1423,-0.85546875,-0.140625,-0.1171875,0
1424,-0.85546875,-0.1328125,-0.14453125,0
1425,-0.87109375,-0.14453125,-0.1484375,0
1426,-0.87109375,-0.125,-0.15625,0
1427,-0.875,-0.140625,-0.15625,0
1428,-0.91796875,-0.140625,-0.1484375,0
1429,-0.8984375,-0.1328125,-0.1640625,0
1430,-0.921875,-0.1328125,-0.1328125,0
1431,-0.93359375,-0.12890625,-0.12109375,0
1432,-0.9453125,-0.12109375,-0.12890625,0
1433,-0.94921875,-0.12109375,-0.10546875,0
1434,-0.9609375,-0.09375,-0.109375,0
1435,-0.953125,-0.1015625,-0.1015625,0
1436,-0.95703125,-0.09375,-0.109375,0
1437,-0.96875,-0.1015625,-0.08203125,0
1438,-0.97265625,-0.0859375,-0.08984375,0
1439,-0.96875,-0.1015625,-0.0859375,0
1440,-0.96875,-0.109375,-0.0859375,0
1441,-0.96484375,-0.09765625,-0.06640625,0
1442,-0.97265625,-0.078125,-0.0625,0
1443,-0.9609375,-0.08203125,-0.0703125,0
1444,-0.98046875,-0.07421875,-0.0625,0
1445,-0.98046875,-0.078125,-0.0625,0
1446,-0.9765625,-0.08984375,-0.0625,0
1447,-0.97265625,-0.078125,-0.05859375,0
1448,-0.96484375,-0.07421875,-0.0625,0
1449,-0.96875,-0.07421875,-0.0703125,0
1450,-0.94921875,-0.0859375,-0.078125,0
1451,-0.95703125,-0.07421875,-0.0703125,0
1452,-0.96484375,-0.0625,-0.0625,0
1453,-0.96484375,-0.0703125,-0.0703125,0
1454,-0.96875,-0.05859375,-0.08203125,0
1455,-0.96484375,-0.06640625,-0.078125,0
1456,-0.96484375,-0.05859375,-0.0703125,0
1457,-0.96875,-0.04296875,-0.0859375,0
1458,-0.9609375,-0.06640625,-0.09765625,0
1459,-0.953125,-0.05078125,-0.078125,0
1460,-0.94921875,-0.03515625,-0.06640625,0
1461,-0.9375,-0.02734375,-0.07421875,0
1462,-0.94921875,-0.0078125,-0.0546875,0
1463,-0.94140625,-0.0234375,-0.03515625,0
1464,-0.92578125,-0.01171875,-0.0390625,0
1465,-0.93359375,0.01953125,-0.02734375,0
1466,-0.93359375,0.0234375,-0.015625,0
1467,-0.93359375,0.0078125,-0.01953125,0
1468,-0.9296875,0.01953125,-0.01171875,0
1469,-0.93359375,-0.00390625,-0.0078125,0
1470,-0.921875,0.02734375,-0.015625,0
1471,-0.9296875,0.0234375,-0.03125,0
1472,-0.94140625,-0.00390625,-0.0390625,0
1473,-0.92578125,-0.0078125,-0.04296875,0
1474,-0.94921875,-0.015625,-0.0390625,0
1475,-0.95703125,-0.015625,-0.046875,0
1476,-0.953125,-0.046875,-0.046875,0
1477,-0.9609375,-0.04296875,-0.0546875,0
1478,-0.9609375,-0.04296875,-0.0625,0
1479,-0.9765625,-0.05078125,-0.0625,0
1480,-0.98828125,-0.0390625,-0.0546875,0
1481,-0.9921875,-0.03515625,-0.05078125,0
1482,-1.01953125,-0.04296875,-0.03125,0
1483,-1.00390625,-0.04296875,-0.0234375,0
1484,-1.01171875,-0.0390625,-0.0078125,0
1485,-1.03125,-0.02734375,0.01953125,0
1486,-1.0390625,-0.02734375,0.03125,0
1487,-1.04296875,-0.00390625,0.05078125,0
1488,-1.05859375,0.01953125,0.05859375,0
1489,-1.0625,0.02734375,0.06640625,0
1490,-1.046875,0.03515625,0.0625,0
1491,-1.046875,0.0390625,0.05859375,0
1492,-1.05078125,0.04296875,0.05078125,0
1493,-1.0390625,0.0390625,0.0390625,0
1494,-1.0390625,0.03125,0.046875,0
1495,-1.03515625,0.00390625,0.02734375,0
1496,-1.0234375,0.0,0.0078125,0
1497,-1.0390625,-0.01171875,0.0078125,0
1498,-1.02734375,-0.015625,-0.015625,0
1499,-1.03125,0.0078125,-0.04296875,0
1500,-1.03125,0.0,-0.0546875,0
1501,-1.0625,-0.0078125,-0.0546875,0
1502,-1.06640625,0.01171875,-0.09375,0
1503,-1.08203125,-0.03125,-0.109375,0
1504,-1.09375,-0.0390625,-0.1484375,0
1505,-1.1015625,-0.0625,-0.15625,0
1506,-1.12109375,-0.09765625,-0.1640625,0
1507,-1.13671875,-0.109375,-0.17578125,0
1508,-1.1484375,-0.1171875,-0.1796875,0
1509,-1.16796875,-0.09765625,-0.19921875,0
1510,-1.19140625,-0.08203125,-0.2265625,0
1511,-1.2109375,-0.078125,-0.22265625,0
1512,-1.21484375,-0.09765625,-0.21484375,0
1513,-1.21484375,-0.109375,-0.20703125,0
1514,-1.1953125,-0.12109375,-0.21484375,0
1515,-1.1953125,-0.125,-0.1953125,0
1516,-1.18359375,-0.12890625,-0.17578125,0
1517,-1.171875,-0.09375,-0.1640625,0
1518,-1.15625,-0.109375,-0.15625,0
1519,-1.14453125,-0.109375,-0.13671875,0
1520,-1.125,-0.09765625,-0.125,0
1521,-1.09765625,-0.1015625,-0.1171875,0
1522,-1.0859375,-0.109375,-0.1015625,0
1523,-1.0703125,-0.10546875,-0.06640625,0
1524,-1.05078125,-0.09765625,-0.0625,0
1525,-1.03125,-0.078125,-0.05859375,0
1526,-1.015625,-0.078125,-0.0625,0
1527,-0.984375,-0.0625,-0.07421875,0
1528,-0.96875,-0.07421875,-0.08203125,0
1529,-0.9453125,-0.0859375,-0.0625,0
1530,-0.92578125,-0.1015625,-0.06640625,0
1531,-0.90625,-0.12109375,-0.06640625,0
1532,-0.89453125,-0.1328125,-0.06640625,0
1533,-0.890625,-0.15625,-0.05859375,0
1534,-0.89453125,-0.1875,-0.03125,0
1535,-0.88671875,-0.1875,-0.0078125,0
1536,-0.890625,-0.1953125,0.0,0
1537,-0.88671875,-0.21875,-0.00390625,0
1538,-0.90234375,-0.23828125,0.01953125,0
1539,-0.90625,-0.25390625,0.0078125,0
1540,-0.90234375,-0.27734375,0.03515625,0
1541,-0.90625,-0.28515625,0.05859375,0
1542,-0.90625,-0.28515625,0.0703125,0
1543,-0.89453125,-0.2890625,0.08203125,0
1544,-0.9375,-0.28125,0.11328125,0
1545,-0.9765625,-0.31640625,0.12109375,0
1546,-1.0,-0.29296875,0.14453125,0
1547,-1.0234375,-0.2890625,0.1640625,0
1548,-1.03125,-0.2890625,0.18359375,0
1549,-1.03515625,-0.28125,0.17578125,0
1550,-1.02734375,-0.24609375,0.17578125,0
1551,-1.0234375,-0.234375,0.171875,0
1552,-1.04296875,-0.2421875,0.140625,0
1553,-1.03125,-0.234375,0.140625,0
1554,-1.01171875,-0.23046875,0.13671875,0
1555,-0.99609375,-0.23828125,0.1328125,0
1556,-0.9765625,-0.23046875,0.109375,0
1557,-0.9609375,-0.22265625,0.09375,0
1558,-0.953125,-0.21484375,0.0859375,0
1559,-0.95703125,-0.2109375,0.06640625,0
1560,-0.9453125,-0.203125,0.05078125,0
1561,-0.9609375,-0.1796875,0.03515625,0
1562,-0.9609375,-0.1796875,0.01953125,0
1563,-0.9609375,-0.15234375,0.00390625,0
1564,-0.95703125,-0.1328125,0.00390625,0
1565,-0.96484375,-0.14453125,-0.01171875,0
1566,-0.9765625,-0.1015625,-0.02734375,0
1567,-0.98046875,-0.09375,-0.03515625,0
1568,-0.9921875,-0.0859375,-0.03125,0
1569,-1.0,-0.09765625,-0.05859375,0
1570,-1.0078125,-0.1328125,-0.0625,0
1571,-1.00390625,-0.140625,-0.05859375,0
1572,-1.015625,-0.1640625,-0.0546875,0
1573,-0.99609375,-0.1640625,-0.01171875,0
1574,-1.00390625,-0.1640625,-0.0078125,0
1575,-1.01171875,-0.16796875,-0.00390625,0
1576,-1.02734375,-0.15625,0.03515625,0
1577,-1.00390625,-0.16015625,0.04296875,0
1578,-1.0,-0.1484375,0.05078125,0
1579,-0.9921875,-0.13671875,0.0703125,0
1580,-0.9921875,-0.125,0.08984375,0
1581,-0.97265625,-0.12109375,0.1015625,0
1582,-0.96484375,-0.1171875,0.109375,0
1583,-0.9609375,-0.09765625,0.12109375,0
1584,-0.953125,-0.08984375,0.11328125,0
1585,-0.94921875,-0.09375,0.13671875,0
1586,-0.93359375,-0.1015625,0.12890625,0
1587,-0.92578125,-0.10546875,0.1171875,0
1588,-0.90625,-0.09375,0.125,0
1589,-0.91015625,-0.09765625,0.12890625,0
1590,-0.8984375,-0.09765625,0.12109375,0
1591,-0.90234375,-0.1015625,0.11328125,0
1592,-0.8984375,-0.10546875,0.1171875,0
1593,-0.90625,-0.11328125,0.09765625,0
1594,-0.9140625,-0.109375,0.09765625,0
1595,-0.9140625,-0.125,0.1015625,0
1596,-0.91796875,-0.125,0.09375,0
1597,-0.93359375,-0.12109375,0.09375,0
1598,-0.9375,-0.109375,0.09375,0
1599,-0.94140625,-0.10546875,0.09765625,0
1600,-0.9375,-0.10546875,0.0859375,0
1601,-0.9609375,-0.1015625,0.08984375,0
1602,-0.97265625,-0.10546875,0.09765625,0
1603,-0.97265625,-0.09375,0.09375,0
1604,-0.98828125,-0.08203125,0.08984375,0
1605,-1.0,-0.078125,0.078125,0
1606,-1.01953125,-0.09765625,0.09765625,0
1607,-1.015625,-0.08203125,0.0859375,0
1608,-1.01953125,-0.07421875,0.078125,0
1609,-1.01953125,-0.0625,0.08203125,0
1610,-0.9921875,-0.07421875,0.078125,0
1611,-0.99609375,-0.078125,0.1015625,0
1612,-0.9765625,-0.06640625,0.09765625,0
1613,-0.9609375,-0.06640625,0.109375,0
1614,-0.9296875,-0.06640625,0.09375,0
1615,-0.91015625,-0.0546875,0.109375,0
1616,-0.87890625,-0.05859375,0.1015625,0
1617,-0.8515625,-0.0546875,0.1171875,0
1618,-0.84765625,-0.0390625,0.10546875,0
1619,-0.83203125,-0.03125,0.09765625,0
1620,-0.84765625,-0.00390625,0.09765625,0
1621,-0.8359375,-0.0078125,0.078125,0
1622,-0.86328125,-0.01171875,0.09375,0
1623,-0.8671875,-0.0234375,0.0703125,0
1624,-0.890625,-0.0234375,0.07421875,0
1625,-0.8984375,-0.04296875,0.0703125,0
1626,-0.90625,-0.05078125,0.07421875,0
1627,-0.90625,-0.046875,0.08203125,0
1628,-0.9453125,-0.0546875,0.08203125,0
1629,-0.94921875,-0.04296875,0.08984375,0
1630,-0.953125,-0.05859375,0.08203125,0
1631,-0.96484375,-0.05859375,0.0859375,0
1632,-0.97265625,-0.0390625,0.0859375,0
1633,-0.97265625,-0.03515625,0.1015625,0
1634,-0.9921875,-0.0390625,0.14453125,0
1635,-1.015625,-0.04296875,0.1328125,0
1636,-1.0234375,-0.046875,0.16796875,0
1637,-1.03515625,-0.0546875,0.1796875,0
1638,-1.04296875,-0.0703125,0.18359375,0
1639,-1.05078125,-0.08203125,0.16796875,0
1640,-1.046875,-0.078125,0.15234375,0
1641,-1.03515625,-0.1015625,0.1328125,0
1642,-1.02734375,-0.06640625,0.125,0
1643,-1.03515625,-0.04296875,0.1171875,0
1644,-1.0390625,-0.0546875,0.10546875,0
1645,-1.0390625,-0.04296875,0.11328125,0
1646,-1.03125,-0.0234375,0.1015625,0
1647,-1.01171875,-0.05859375,0.09375,0
1648,-1.015625,-0.0546875,0.1015625,0
1649,-1.0078125,-0.0625,0.08203125,0
1650,-1.0078125,-0.06640625,0.0859375,0
1651,-1.01171875,-0.07421875,0.1015625,0
1652,-1.015625,-0.0546875,0.0859375,0
1653,-1.01953125,-0.05859375,0.0859375,0
1654,-1.0234375,-0.04296875,0.0703125,0
1655,-1.03125,-0.0546875,0.078125,0
1656,-1.05859375,-0.04296875,0.0859375,0
1657,-1.05078125,-0.046875,0.0703125,0
1658,-1.0546875,-0.046875,0.0703125,0
1659,-1.0703125,-0.0234375,0.0703125,0
1660,-1.07421875,-0.03515625,0.06640625,0
1661,-1.1015625,-0.03125,0.05859375,0
1662,-1.14453125,-0.015625,0.05078125,0
1663,-1.16015625,-0.0546875,0.05078125,0
1664,-1.203125,-0.109375,0.046875,0
1665,-1.22265625,-0.16796875,0.07421875,0
1666,-1.234375,-0.2265625,0.08984375,0
1667,-1.23828125,-0.23046875,0.09375,0
1668,-1.23046875,-0.23046875,0.109375,0
1669,-1.2265625,-0.203125,0.1171875,0
1670,-1.203125,-0.1640625,0.09765625,0
1671,-1.1796875,-0.12890625,0.10546875,0
1672,-1.13671875,-0.0859375,0.08984375,0
1673,-1.1015625,-0.0859375,0.0703125,0
1674,-1.0703125,-0.07421875,0.05078125,0
1675,-1.0390625,-0.078125,0.0390625,0
1676,-1.015625,-0.109375,0.03125,0
1677,-0.98828125,-0.12109375,0.0078125,0
1678,-0.99609375,-0.125,-0.01171875,0
1679,-1.015625,-0.11328125,-0.015625,0
1680,-1.04296875,-0.1328125,-0.015625,0
1681,-1.078125,-0.1015625,0.00390625,0
1682,-1.10546875,-0.11328125,0.02734375,0
1683,-1.1328125,-0.13671875,0.0625,0
1684,-1.14453125,-0.1953125,0.078125,0
1685,-1.140625,-0.23828125,0.08203125,0
1686,-1.1328125,-0.26171875,0.07421875,0
1687,-1.1171875,-0.2578125,0.0703125,0
1688,-1.11328125,-0.2421875,0.078125,0
1689,-1.12109375,-0.234375,0.07421875,0
1690,-1.109375,-0.21484375,0.09375,0
1691,-1.10546875,-0.21875,0.10546875,0
1692,-1.078125,-0.21875,0.09375,0
1693,-1.07421875,-0.21875,0.1015625,0
1694,-1.05078125,-0.23046875,0.09375,0
1695,-1.02734375,-0.22265625,0.08203125,0
1696,-1.00390625,-0.234375,0.08203125,0
1697,-0.9921875,-0.24609375,0.08203125,0
1698,-0.96484375,-0.24609375,0.0703125,0
1699,-0.90625,-0.23828125,0.05078125,0
1700,-0.859375,-0.25390625,0.0390625,0
1701,-0.8125,-0.28515625,0.01953125,0
1702,-0.8046875,-0.30078125,0.03515625,0
1703,-0.78515625,-0.28515625,0.01171875,0
1704,-0.78125,-0.27734375,0.0,0
1705,-0.7890625,-0.2578125,0.0,0
1706,-0.77734375,-0.23828125,-0.01953125,0
1707,-0.7890625,-0.21875,-0.03125,0
1708,-0.79296875,-0.203125,-0.046875,0
1709,-0.8046875,-0.21484375,-0.0546875,0
1710,-0.8515625,-0.21484375,-0.0625,0
1711,-0.86328125,-0.203125,-0.0703125,0
1712,-0.91015625,-0.2265625,-0.09765625,0
1713,-0.93359375,-0.21484375,-0.10546875,0
1714,-0.9765625,-0.20703125,-0.11328125,0
1715,-1.0078125,-0.20703125,-0.1171875,0
1716,-1.0234375,-0.2109375,-0.1328125,0
1717,-1.04296875,-0.203125,-0.12890625,0
1718,-1.0546875,-0.2109375,-0.14453125,0
1719,-1.046875,-0.20703125,-0.140625,0
1720,-1.03125,-0.2109375,-0.1484375,0
1721,-1.046875,-0.2109375,-0.14453125,0
1722,-1.01953125,-0.21875,-0.15234375,0
1723,-1.02734375,-0.2265625,-0.1484375,0
1724,-1.01171875,-0.203125,-0.1328125,0
1725,-1.03125,-0.2109375,-0.125,0
1726,-1.02734375,-0.2109375,-0.11328125,0
1727,-1.0234375,-0.19140625,-0.10546875,0
1728,-1.01953125,-0.1875,-0.0625,0
1729,-1.0078125,-0.18359375,-0.046875,0
1730,-1.01953125,-0.17578125,-0.01171875,0
1731,-1.00390625,-0.15625,0.0078125,0
1732,-0.99609375,-0.1640625,0.01171875,0
1733,-0.984375,-0.171875,0.01171875,0
1734,-0.97265625,-0.15234375,0.02734375,0
1735,-0.97265625,-0.13671875,0.01953125,0
1736,-0.96875,-0.140625,0.0,0
1737,-0.9765625,-0.1171875,0.00390625,0
1738,-0.95703125,-0.12890625,-0.015625,0
1739,-0.953125,-0.1328125,-0.03125,0
1740,-0.95703125,-0.14453125,-0.03515625,0
1741,-0.9375,-0.14453125,-0.0546875,0
1742,-0.92578125,-0.12890625,-0.05859375,0
1743,-0.9140625,-0.13671875,-0.06640625,0
1744,-0.91796875,-0.12890625,-0.08203125,0
1745,-0.90234375,-0.13671875,-0.09765625,0
1746,-0.8984375,-0.12890625,-0.10546875,0
1747,-0.92578125,-0.125,-0.09765625,0
1748,-0.90625,-0.12109375,-0.08984375,0
1749,-0.89453125,-0.11328125,-0.0859375,0
1750,-0.890625,-0.12109375,-0.08984375,0
1751,-0.89453125,-0.12109375,-0.08203125,0
1752,-0.90625,-0.13671875,-0.05859375,0
1753,-0.8984375,-0.12890625,-0.06640625,0
1754,-0.921875,-0.11328125,-0.0625,0
1755,-0.93359375,-0.1171875,-0.05078125,0
1756,-0.94921875,-0.10546875,-0.05078125,0
1757,-0.94921875,-0.109375,-0.046875,0
1758,-0.9453125,-0.109375,-0.046875,0
1759,-0.96484375,-0.08203125,-0.0390625,0
1760,-0.96484375,-0.0859375,-0.04296875,0
1761,-0.97265625,-0.08984375,-0.05078125,0
1762,-0.9765625,-0.08203125,-0.0546875,0
1763,-0.984375,-0.0703125,-0.05859375,0
1764,-0.96875,-0.0625,-0.0546875,0
1765,-0.9765625,-0.07421875,-0.07421875,0
1766,-0.95703125,-0.078125,-0.08203125,0
1767,-0.9609375,-0.05859375,-0.09765625,0
1768,-0.95703125,-0.0546875,-0.10546875,0
1769,-0.94921875,-0.0546875,-0.109375,0
1770,-0.953125,-0.05859375,-0.10546875,0
1771,-0.9375,-0.05859375,-0.11328125,0
1772,-0.94140625,-0.03515625,-0.1171875,0
1773,-0.9375,-0.03125,-0.11328125,0
1774,-0.94140625,-0.01953125,-0.1015625,0
1775,-0.94140625,-0.0234375,-0.10546875,0
1776,-0.9375,-0.0078125,-0.09375,0
1777,-0.9453125,-0.0078125,-0.08203125,0
1778,-0.9453125,0.01953125,-0.078125,0
1779,-0.93359375,0.01171875,-0.0859375,0
1780,-0.93359375,0.01171875,-0.06640625,0
1781,-0.94140625,0.0078125,-0.0546875,0
1782,-0.93359375,0.03125,-0.05078125,0
1783,-0.92578125,0.0234375,-0.0546875,0
1784,-0.92578125,0.02734375,-0.0546875,0
1785,-0.9296875,0.03125,-0.0546875,0
1786,-0.9296875,0.03125,-0.0546875,0
1787,-0.921875,0.0390625,-0.05078125,0
1788,-0.9375,0.04296875,-0.05078125,0
1789,-0.9453125,0.0390625,-0.05859375,0
1790,-0.94921875,0.05078125,-0.0625,0
1791,-0.9453125,0.05859375,-0.07421875,0
1792,-0.95703125,0.0546875,-0.08984375,0
1793,-0.953125,0.0546875,-0.11328125,0
1794,-0.953125,0.06640625,-0.12109375,0
1795,-0.953125,0.05859375,-0.13671875,0
1796,-0.9453125,0.0625,-0.14453125,0
1797,-0.9453125,0.046875,-0.15234375,0
1798,-0.953125,0.05859375,-0.16796875,0
1799,-0.96484375,0.046875,-0.171875,0
1800,-0.96484375,0.046875,-0.18359375,0
1801,-0.96484375,0.046875,-0.1953125,0
1802,-0.953125,0.0546875,-0.2109375,0
1803,-0.9765625,0.05859375,-0.18359375,0
1804,-0.97265625,0.07421875,-0.19140625,0
1805,-0.96875,0.08203125,-0.19140625,0
1806,-0.96875,0.1015625,-0.18359375,0
1807,-0.95703125,0.10546875,-0.18359375,0
1808,-0.95703125,0.10546875,-0.171875,0
1809,-0.94921875,0.11328125,-0.15234375,0
1810,-0.9453125,0.09765625,-0.15625,0
1811,-0.95703125,0.0859375,-0.14453125,0
1812,-0.97265625,0.0625,-0.13671875,0
1813,-0.984375,0.05078125,-0.1328125,0
1814,-1.02734375,0.0234375,-0.12109375,0
1815,-1.08984375,0.0078125,-0.109375,0
1816,-1.12890625,-0.01953125,-0.09765625,0
1817,-1.16796875,-0.078125,-0.09765625,0
1818,-1.1875,-0.11328125,-0.0859375,0
1819,-1.20703125,-0.14453125,-0.07421875,0
1820,-1.23046875,-0.15234375,-0.0703125,0
1821,-1.2421875,-0.140625,-0.05859375,0
1822,-1.23046875,-0.109375,-0.05859375,0
1823,-1.2265625,-0.078125,-0.0625,0
1824,-1.2109375,-0.078125,-0.0859375,0
1825,-1.1640625,-0.09765625,-0.1015625,0
1826,-1.11328125,-0.109375,-0.12109375,0
1827,-1.08984375,-0.125,-0.11328125,0
1828,-1.05078125,-0.14453125,-0.12890625,0
1829,-1.015625,-0.1640625,-0.12109375,0
1830,-0.984375,-0.15625,-0.11328125,0
1831,-0.97265625,-0.1328125,-0.08984375,0
1832,-0.96875,-0.1171875,-0.0625,0
1833,-0.97265625,-0.10546875,-0.05859375,0
1834,-0.98046875,-0.09765625,-0.0546875,0
1835,-1.015625,-0.109375,-0.046875,0
1836,-1.03125,-0.13671875,-0.046875,0
1837,-1.0703125,-0.15234375,-0.0625,0
1838,-1.09375,-0.16796875,-0.0703125,0
1839,-1.11328125,-0.1875,-0.10546875,0
1840,-1.15234375,-0.18359375,-0.11328125,0
1841,-1.1640625,-0.203125,-0.1171875,0
1842,-1.1875,-0.21875,-0.11328125,0
1843,-1.203125,-0.2109375,-0.09375,0
1844,-1.20703125,-0.21875,-0.109375,0
1845,-1.20703125,-0.22265625,-0.10546875,0
1846,-1.16796875,-0.2109375,-0.10546875,0
1847,-1.15625,-0.22265625,-0.09375,0
1848,-1.11328125,-0.21875,-0.078125,0
1849,-1.0859375,-0.20703125,-0.06640625,0
1850,-1.06640625,-0.19921875,-0.05859375,0
1851,-1.0390625,-0.2109375,-0.0390625,0
1852,-1.015625,-0.19140625,-0.02734375,0
1853,-0.9765625,-0.1953125,-0.0078125,0
1854,-0.96484375,-0.20703125,0.01953125,0
1855,-0.9140625,-0.1953125,0.05078125,0
1856,-0.89453125,-0.19140625,0.0703125,0
1857,-0.87109375,-0.18359375,0.08984375,0
1858,-0.84375,-0.1640625,0.09765625,0
1859,-0.82421875,-0.15625,0.10546875,0
1860,-0.8125,-0.15234375,0.125,0
1861,-0.7890625,-0.140625,0.140625,0
1862,-0.80078125,-0.140625,0.13671875,0
1863,-0.79296875,-0.140625,0.1328125,0
1864,-0.81640625,-0.12890625,0.1328125,0
1865,-0.85546875,-0.12109375,0.109375,0
1866,-0.8828125,-0.11328125,0.109375,0
1867,-0.90625,-0.09765625,0.06640625,0
1868,-0.93359375,-0.12109375,0.0546875,0
1869,-0.96484375,-0.0859375,0.03515625,0
1870,-0.97265625,-0.08203125,0.01171875,0
1871,-1.0,-0.08984375,-0.01171875,0
1872,-1.00390625,-0.11328125,-0.0234375,0
1873,-1.0078125,-0.1171875,-0.01953125,0
1874,-1.015625,-0.13671875,-0.03125,0
1875,-1.03125,-0.15234375,-0.0390625,0
1876,-1.03515625,-0.15625,-0.02734375,0
1877,-1.05078125,-0.16796875,-0.015625,0
1878,-1.04296875,-0.15625,-0.0234375,0
1879,-1.05859375,-0.15234375,-0.00390625,0
1880,-1.0546875,-0.15625,0.00390625,0
1881,-1.04296875,-0.140625,0.0078125,0
1882,-1.03515625,-0.14453125,0.04296875,0
1883,-1.015625,-0.1484375,0.05859375,0
1884,-1.0,-0.14453125,0.08203125,0
1885,-0.97265625,-0.12109375,0.109375,0
1886,-0.97265625,-0.14453125,0.12890625,0
1887,-0.96484375,-0.10546875,0.12890625,0
1888,-0.96484375,-0.11328125,0.14453125,0
1889,-0.95703125,-0.09765625,0.1484375,0
1890,-0.92578125,-0.09765625,0.15234375,0
1891,-0.9375,-0.10546875,0.1484375,0
1892,-0.92578125,-0.08984375,0.14453125,0
1893,-0.921875,-0.078125,0.140625,0
1894,-0.921875,-0.07421875,0.12890625,0
1895,-0.9140625,-0.0625,0.12109375,0
1896,-0.921875,-0.078125,0.1171875,0
1897,-0.9140625,-0.0859375,0.10546875,0
1898,-0.92578125,-0.06640625,0.10546875,0
1899,-0.9296875,-0.046875,0.09375,0
1900,-0.93359375,-0.0546875,0.0859375,0
1901,-0.93359375,-0.04296875,0.07421875,0
1902,-0.94921875,-0.05078125,0.07421875,0
1903,-0.953125,-0.04296875,0.078125,0
1904,-0.9453125,-0.0703125,0.0859375,0
1905,-0.953125,-0.0390625,0.078125,0
1906,-0.9609375,-0.0390625,0.078125,0
1907,-0.95703125,-0.05078125,0.07421875,0
1908,-0.953125,-0.05078125,0.06640625,0
1909,-0.9609375,-0.0703125,0.08203125,0
1910,-0.96875,-0.046875,0.0546875,0
1911,-0.96484375,-0.0546875,0.0546875,0
1912,-0.9609375,-0.05859375,0.05078125,0
1913,-0.96484375,-0.0546875,0.03515625,0
1914,-0.96875,-0.0625,0.01953125,0
1915,-0.96875,-0.04296875,0.0234375,0
1916,-0.96484375,-0.078125,0.01171875,0
1917,-0.96875,-0.06640625,0.01953125,0
1918,-0.96484375,-0.078125,0.02734375,0
1919,-0.96875,-0.05859375,0.0234375,0
1920,-0.96875,-0.0546875,0.0078125,0
1921,-0.9609375,-0.04296875,0.0078125,0
1922,-0.96484375,-0.0390625,0.0078125,0
1923,-0.96875,-0.0546875,0.0078125,0
1924,-0.96484375,-0.046875,0.03515625,0
1925,-0.97265625,-0.03515625,0.015625,0
1926,-0.96875,-0.04296875,0.02734375,0
1927,-0.96875,-0.0390625,0.0078125,0
1928,-0.97265625,-0.02734375,0.0234375,0
1929,-0.96875,-0.01171875,-0.00390625,0
1930,-0.96875,-0.00390625,-0.00390625,0
1931,-0.96875,-0.00390625,-0.0078125,0
1932,-0.96484375,0.00390625,0.0,0
1933,-0.96875,0.02734375,-0.00390625,0
1934,-0.9609375,0.015625,-0.00390625,0
1935,-0.94921875,0.015625,-0.0078125,0
1936,-0.94140625,0.02734375,-0.0078125,0
1937,-0.953125,0.02734375,-0.00390625,0
1938,-0.94140625,0.0234375,-0.00390625,0
1939,-0.93359375,0.0078125,0.01171875,0
1940,-0.94140625,0.015625,0.0078125,0
1941,-0.94921875,0.02734375,0.02734375,0
1942,-0.94921875,0.03125,0.0234375,0
1943,-0.9453125,0.03515625,0.03125,0
1944,-0.94921875,0.0234375,0.04296875,0
1945,-0.9453125,0.03125,0.0390625,0
1946,-0.9453125,0.02734375,0.05078125,0
1947,-0.94140625,0.01953125,0.05859375,0
1948,-0.9453125,0.03125,0.05078125,0
1949,-0.95703125,0.01953125,0.0625,0
1950,-0.95703125,0.0234375,0.0625,0
1951,-0.953125,0.015625,0.06640625,0
1952,-0.95703125,0.0078125,0.05859375,0
1953,-0.953125,-0.00390625,0.06640625,0
1954,-0.96875,0.0078125,0.07421875,0
1955,-0.96875,0.0,0.08203125,0
1956,-0.95703125,-0.0078125,0.0625,0
1957,-0.9609375,-0.05859375,0.0703125,0
1958,-0.95703125,-0.00390625,0.0546875,0
1959,-0.95703125,-0.00390625,0.06640625,0
1960,-0.96875,-0.0078125,0.0703125,0
1961,-0.9609375,-0.00390625,0.046875,0
1962,-0.9765625,-0.0078125,0.05078125,0
1963,-0.96875,-0.00390625,0.05859375,0
1964,-0.97265625,-0.01171875,0.05078125,0
1965,-0.98046875,-0.00390625,0.04296875,0
1966,-0.9921875,-0.0078125,0.0390625,0
1967,-0.99609375,-0.0078125,0.03515625,0
1968,-0.96484375,-0.0390625,0.00390625,0
1969,-1.0078125,0.01171875,-0.00390625,0
1970,-1.0,0.00390625,-0.0078125,0
1971,-1.00390625,0.015625,-0.01171875,0
1972,-1.0,-0.00390625,-0.00390625,0
1973,-0.99609375,-0.0078125,-0.01171875,0
1974,-1.0,0.0078125,0.01171875,0
1975,-0.984375,0.00390625,-0.0078125,0
1976,-0.9921875,0.01953125,-0.01953125,0
1977,-0.9921875,0.01953125,-0.01953125,0
1978,-0.96875,0.01171875,-0.0390625,0
1979,-0.9921875,0.03125,-0.02734375,0
1980,-0.98828125,0.03515625,-0.046875,0
1981,-0.99609375,0.01953125,-0.03515625,0
1982,-1.00390625,0.03515625,-0.03125,0
1983,-1.00390625,0.0390625,-0.0390625,0
1984,-1.0,0.046875,-0.0390625,0
1985,-0.99609375,0.046875,-0.0390625,0
1986,-0.98828125,0.07421875,-0.04296875,0
1987,-0.98828125,0.06640625,-0.03125,0
1988,-0.9921875,0.07421875,-0.01953125,0
1989,-0.9921875,0.12109375,-0.01171875,0
1990,-0.99609375,0.1015625,0.00390625,0
1991,-1.01171875,0.08984375,0.00390625,0
1992,-1.0234375,0.09375,0.015625,0
1993,-1.03125,0.05859375,0.01953125,0
1994,-1.0390625,0.046875,0.00390625,0
1995,-1.05859375,0.0234375,0.04296875,0
1996,-1.0625,0.015625,0.04296875,0
1997,-1.09765625,-0.00390625,0.0390625,0
1998,-1.11328125,-0.01171875,0.0546875,0
1999,-1.1328125,-0.04296875,0.0703125,0
2000,-1.14453125,-0.0390625,0.1171875,0
2001,-1.16015625,-0.04296875,0.09375,0
2002,-1.140625,-0.04296875,0.1015625,0
2003,-1.1328125,-0.01953125,0.1015625,0
2004,-1.1328125,0.01171875,0.11328125,0
2005,-1.125,0.01953125,0.09765625,0
2006,-1.11328125,0.03125,0.10546875,0
2007,-1.1328125,0.0234375,0.109375,0
2008,-1.12109375,0.0078125,0.07421875,0
2009,-1.140625,0.0078125,0.0546875,0
2010,-1.125,-0.015625,0.0078125,0
2011,-1.15234375,-0.0234375,0.0234375,0
2012,-1.1484375,-0.0546875,-0.0234375,0
2013,-1.16796875,-0.0546875,-0.03125,0
2014,-1.19140625,-0.08203125,0.0,0
2015,-1.2109375,-0.09765625,0.0234375,0
2016,-1.21875,-0.140625,0.04296875,0
2017,-1.2109375,-0.15625,0.046875,0
2018,-1.22265625,-0.16015625,0.0703125,0
2019,-1.2265625,-0.1484375,0.05859375,0
2020,-1.21484375,-0.14453125,0.0234375,0
2021,-1.1875,-0.140625,0.015625,0
2022,-1.17578125,-0.1328125,-0.00390625,0
2023,-1.1484375,-0.125,0.01953125,0
2024,-1.1015625,-0.1171875,0.015625,0
2025,-1.0546875,-0.12890625,0.02734375,0
2026,-1.02734375,-0.12109375,0.04296875,0
2027,-0.96875,-0.109375,0.015625,0
2028,-0.95703125,-0.1171875,0.02734375,0
2029,-0.94140625,-0.140625,0.03125,0
2030,-0.90234375,-0.13671875,0.015625,0
2031,-0.875,-0.14453125,0.0234375,0
2032,-0.81640625,-0.15234375,0.00390625,0
2033,-0.82421875,-0.1484375,0.015625,0
2034,-0.8125,-0.14453125,0.0234375,0
2035,-0.80078125,-0.1796875,0.01953125,0
2036,-0.80078125,-0.17578125,0.015625,0
2037,-0.8046875,-0.17578125,0.0234375,0
2038,-0.78515625,-0.16796875,0.01953125,0
2039,-0.75390625,-0.1875,0.01953125,0
2040,-0.77734375,-0.1953125,0.03125,0
2041,-0.7890625,-0.19140625,0.03125,0
2042,-0.80859375,-0.1875,0.01953125,0
2043,-0.84765625,-0.2265625,0.05859375,0
2044,-0.8359375,-0.15234375,0.02734375,0
2045,-0.87890625,-0.1484375,0.01953125,0
2046,-0.90234375,-0.15625,0.0390625,0
2047,-0.94140625,-0.171875,0.06640625,0
2048,-0.94921875,-0.1640625,0.0625,0
2049,-0.9609375,-0.17578125,0.0625,0
2050,-0.9765625,-0.1953125,0.0625,0
2051,-1.01171875,-0.2109375,0.04296875,0
2052,-1.00390625,-0.20703125,0.05078125,0
2053,-1.02734375,-0.19140625,0.0390625,0
2054,-1.0078125,-0.2578125,-0.01171875,0
2055,-1.0390625,-0.1953125,-0.00390625,0
2056,-1.0390625,-0.18359375,-0.01953125,0
2057,-1.03515625,-0.2109375,-0.01953125,0
2058,-1.01171875,-0.21875,-0.03125,0
2059,-0.99609375,-0.234375,-0.0390625,0
2060,-0.97265625,-0.2578125,-0.0625,0
2061,-0.96875,-0.25,-0.05078125,0
2062,-0.96484375,-0.24609375,-0.0546875,0
2063,-0.95703125,-0.2265625,-0.0546875,0
2064,-0.95703125,-0.234375,-0.05859375,0
2065,-0.94140625,-0.20703125,-0.07421875,0
2066,-0.953125,-0.203125,-0.015625,0
2067,-0.953125,-0.17578125,-0.01953125,0
2068,-0.953125,-0.171875,0.0,0
2069,-0.95703125,-0.14453125,0.01953125,0
2070,-0.96875,-0.1484375,0.03515625,0
2071,-0.96875,-0.125,0.03125,0
2072,-0.98828125,-0.12109375,0.03515625,0
2073,-1.0078125,-0.11328125,0.05078125,0
2074,-1.015625,-0.11328125,0.05078125,0
2075,-1.02734375,-0.1171875,0.0546875,0
2076,-1.0546875,-0.125,0.06640625,0
2077,-1.06640625,-0.1171875,0.05078125,0
2078,-1.0703125,-0.109375,0.0390625,0
2079,-1.08984375,-0.1015625,0.0390625,0
2080,-1.09765625,-0.11328125,0.03125,0
2081,-1.078125,-0.109375,-0.00390625,0
2082,-1.0703125,-0.10546875,-0.01171875,0
2083,-1.04296875,-0.08984375,-0.02734375,0
2084,-1.03125,-0.10546875,-0.04296875,0
2085,-1.0,-0.08984375,-0.07421875,0
2086,-0.9921875,-0.09765625,-0.07421875,0
2087,-0.96875,-0.07421875,-0.1015625,0
2088,-0.953125,-0.05859375,-0.09375,0
2089,-0.93359375,-0.0625,-0.1171875,0
2090,-0.9375,-0.05859375,-0.109375,0
2091,-0.93359375,-0.046875,-0.125,0
2092,-0.9296875,-0.0390625,-0.1015625,0
2093,-0.91796875,-0.04296875,-0.10546875,0
2094,-0.90625,-0.03515625,-0.08203125,0
2095,-0.90234375,-0.04296875,-0.08203125,0
2096,-0.91015625,-0.04296875,-0.0546875,0
2097,-0.90625,-0.0390625,-0.0625,0
2098,-0.90234375,-0.05078125,-0.05859375,0
2099,-0.90625,-0.0390625,-0.0625,0
2100,-0.890625,-0.04296875,-0.05859375,0
2101,-0.890625,-0.03515625,-0.0546875,0
2102,-0.8984375,-0.03125,-0.05859375,0
2103,-0.89453125,-0.015625,-0.0703125,0
2104,-0.8984375,-0.0234375,-0.0625,0
2105,-0.91015625,-0.0078125,-0.06640625,0
2106,-0.91796875,0.0078125,-0.0703125,0
2107,-0.9296875,0.01953125,-0.07421875,0
2108,-0.9296875,0.01953125,-0.07421875,0
2109,-0.9296875,0.02734375,-0.0859375,0
2110,-0.92578125,0.015625,-0.1015625,0
2111,-0.9375,0.0,-0.09375,0
2112,-0.9453125,0.01171875,-0.0703125,0
2113,-0.9296875,0.00390625,-0.10546875,0
2114,-0.92578125,-0.00390625,-0.1015625,0
2115,-0.94140625,0.0,-0.0703125,0
2116,-0.94140625,0.0,-0.08203125,0
2117,-0.93359375,-0.0078125,-0.08203125,0
2118,-0.91796875,-0.00390625,-0.07421875,0
2119,-0.921875,0.015625,-0.0703125,0
2120,-0.921875,-0.0078125,-0.0703125,0
2121,-0.91796875,0.0,-0.06640625,0
2122,-0.921875,-0.0078125,-0.0625,0
2123,-0.91796875,-0.01171875,-0.0546875,0
2124,-0.92578125,0.01953125,-0.0546875,0
2125,-0.921875,0.01171875,-0.05859375,0
2126,-0.93359375,0.03125,-0.05859375,0
2127,-0.953125,0.03515625,-0.0546875,0
2128,-0.95703125,0.04296875,-0.0390625,0
2129,-0.953125,0.03515625,-0.03125,0
2130,-0.97265625,0.046875,-0.03515625,0
2131,-0.98828125,0.05078125,-0.0625,0
2132,-0.98046875,0.0703125,-0.078125,0
2133,-0.9921875,0.07421875,-0.078125,0
2134,-1.0078125,0.06640625,-0.1015625,0
2135,-0.99609375,0.0390625,-0.1171875,0
2136,-0.99609375,0.0078125,-0.1328125,0
2137,-0.984375,-0.01171875,-0.14453125,0
2138,-0.98046875,-0.03515625,-0.15234375,0
2139,-0.98046875,-0.0390625,-0.1484375,0
2140,-0.9765625,-0.0234375,-0.13671875,0
2141,-1.01171875,0.0,-0.1328125,0
2142,-1.0234375,0.0,-0.10546875,0
2143,-1.0390625,0.01953125,-0.08203125,0
2144,-1.05078125,0.0390625,-0.05859375,0
2145,-1.05078125,0.0390625,-0.0625,0
2146,-1.04296875,0.03515625,-0.046875,0
2147,-1.03125,0.0234375,-0.046875,0
2148,-1.01171875,0.01953125,-0.0390625,0
2149,-0.9921875,0.015625,-0.03515625,0
2150,-0.98828125,0.0234375,-0.04296875,0
2151,-0.99609375,0.015625,-0.03515625,0
2152,-0.9765625,0.01171875,-0.03125,0
2153,-0.96875,0.01953125,-0.02734375,0
2154,-0.96484375,0.0234375,-0.01171875,0
2155,-0.95703125,0.03125,-0.00390625,0
2156,-0.953125,0.0234375,-0.0078125,0
2157,-0.95703125,0.0390625,0.01171875,0
2158,-0.95703125,0.05078125,0.015625,0
2159,-0.953125,0.05078125,0.02734375,0
2160,-0.9453125,0.05859375,0.03515625,0
2161,-0.96875,0.05859375,0.0546875,0
2162,-0.96875,0.04296875,0.0625,0
2163,-0.99609375,0.03515625,0.0625,0
2164,-1.03515625,0.0390625,0.0703125,0
2165,-1.0546875,0.02734375,0.05078125,0
2166,-1.08984375,-0.01953125,0.03515625,0
2167,-1.109375,-0.046875,0.01953125,0
2168,-1.1171875,-0.08203125,-0.015625,0
2169,-1.140625,-0.09375,-0.0390625,0
2170,-1.15234375,-0.0859375,-0.0546875,0
2171,-1.171875,-0.0703125,-0.0625,0
2172,-1.18359375,-0.03125,-0.08984375,0
2173,-1.1953125,-0.0078125,-0.09765625,0
2174,-1.19921875,-0.00390625,-0.12890625,0
2175,-1.203125,0.0,-0.1484375,0
2176,-1.2109375,-0.03515625,-0.17578125,0
2177,-1.1953125,-0.05078125,-0.2109375,0
2178,-1.1796875,-0.08203125,-0.24609375,0
2179,-1.171875,-0.109375,-0.27734375,0
2180,-1.15625,-0.14453125,-0.29296875,0
2181,-1.171875,-0.13671875,-0.296875,0
2182,-1.17578125,-0.1171875,-0.2734375,0
2183,-1.1796875,-0.08203125,-0.265625,0
2184,-1.203125,-0.05859375,-0.21484375,0
2185,-1.19140625,-0.0546875,-0.17578125,0
2186,-1.16015625,-0.08203125,-0.16015625,0
2187,-1.12109375,-0.12109375,-0.11328125,0
2188,-1.09375,-0.15625,-0.07421875,0
2189,-1.06640625,-0.1796875,-0.0390625,0
2190,-1.04296875,-0.1875,0.0078125,0
2191,-1.00390625,-0.1796875,0.02734375,0
2192,-0.98828125,-0.1328125,0.0546875,0
2193,-0.96875,-0.12890625,0.05859375,0
2194,-0.95703125,-0.125,0.05859375,0
2195,-0.94140625,-0.125,0.0859375,0
2196,-0.9296875,-0.1171875,0.07421875,0
2197,-0.9140625,-0.1328125,0.06640625,0
2198,-0.90234375,-0.1640625,0.0625,0
2199,-0.87109375,-0.171875,0.046875,0
2200,-0.8671875,-0.18359375,0.05859375,0
2201,-0.85546875,-0.1953125,0.078125,0
2202,-0.85546875,-0.1875,0.078125,0
2203,-0.86328125,-0.15625,0.0859375,0
2204,-0.86328125,-0.140625,0.08984375,0
2205,-0.8671875,-0.13671875,0.10546875,0
2206,-0.890625,-0.11328125,0.12109375,0
2207,-0.88671875,-0.1015625,0.1171875,0
2208,-0.87109375,-0.1171875,0.109375,0
2209,-0.88671875,-0.1328125,0.11328125,0
2210,-0.87890625,-0.140625,0.12109375,0
2211,-0.890625,-0.14453125,0.12109375,0
2212,-0.89453125,-0.171875,0.1015625,0
2213,-0.92578125,-0.16796875,0.09375,0
2214,-0.9453125,-0.140625,0.07421875,0
2215,-0.9609375,-0.125,0.0859375,0
2216,-0.9765625,-0.11328125,0.0625,0
2217,-1.00390625,-0.1171875,0.03125,0
2218,-1.01953125,-0.11328125,0.01953125,0
2219,-1.03515625,-0.1171875,-0.00390625,0
2220,-1.0234375,-0.1328125,-0.00390625,0
2221,-1.01171875,-0.11328125,-0.015625,0
2222,-1.02734375,-0.1328125,0.0,0
2223,-1.03125,-0.125,-0.00390625,0
2224,-1.03125,-0.125,0.0078125,0
2225,-1.03515625,-0.109375,0.0234375,0
2226,-1.03125,-0.12109375,0.02734375,0
2227,-1.05859375,-0.11328125,0.046875,0
2228,-1.05078125,-0.125,0.046875,0
2229,-1.0546875,-0.09375,0.0625,0
2230,-1.046875,-0.08984375,0.06640625,0
2231,-1.03515625,-0.08203125,0.05859375,0
2232,-1.02734375,-0.07421875,0.06640625,0
2233,-1.01171875,-0.05859375,0.078125,0
2234,-0.99609375,-0.06640625,0.078125,0
2235,-0.98046875,-0.09375,0.08984375,0
2236,-0.96875,-0.078125,0.0859375,0
2237,-0.94921875,-0.0625,0.0703125,0
2238,-0.93359375,-0.078125,0.08203125,0
2239,-0.9140625,-0.07421875,0.078125,0
2240,-0.8984375,-0.0703125,0.05078125,0
2241,-0.89453125,-0.07421875,0.05859375,0
2242,-0.87109375,-0.06640625,0.03515625,0
2243,-0.87890625,-0.07421875,0.0390625,0
2244,-0.88671875,-0.078125,0.01953125,0
2245,-0.875,-0.06640625,0.01953125,0
2246,-0.86328125,-0.05078125,0.01171875,0
2247,-0.8671875,-0.0703125,0.03515625,0
2248,-0.875,-0.05078125,0.03515625,0
2249,-0.87109375,-0.04296875,0.02734375,0
2250,-0.8984375,-0.0234375,0.03125,0
2251,-0.91015625,-0.05078125,0.0234375,0
2252,-0.9140625,-0.05078125,0.03515625,0
2253,-0.9296875,-0.0625,0.05078125,0
2254,-0.94921875,-0.0703125,0.0546875,0
2255,-0.95703125,-0.06640625,0.0546875,0
2256,-0.9609375,-0.0859375,0.07421875,0
2257,-0.97265625,-0.06640625,0.0703125,0
2258,-0.97265625,-0.078125,0.07421875,0
2259,-0.96484375,-0.07421875,0.08203125,0
2260,-0.96875,-0.07421875,0.08203125,0
2261,-0.96484375,-0.06640625,0.078125,0
2262,-0.9609375,-0.07421875,0.08203125,0
2263,-0.96484375,-0.0625,0.08984375,0
2264,-0.96875,-0.0546875,0.08203125,0
2265,-0.96875,-0.0234375,0.07421875,0
2266,-0.95703125,-0.03125,0.07421875,0
2267,-0.953125,-0.0234375,0.06640625,0
2268,-0.953125,-0.015625,0.07421875,0
2269,-0.9453125,-0.00390625,0.05859375,0
2270,-0.953125,0.00390625,0.078125,0
2271,-0.9453125,0.015625,0.06640625,0
2272,-0.94140625,0.03125,0.06640625,0
2273,-0.93359375,0.03515625,0.06640625,0
2274,-0.921875,0.03125,0.0546875,0
2275,-0.921875,0.03515625,0.08203125,0
2276,-0.921875,0.046875,0.05859375,0
2277,-0.92578125,0.05078125,0.05078125,0
2278,-0.92578125,0.046875,0.04296875,0
2279,-0.921875,0.046875,0.03515625,0
2280,-0.91015625,0.0546875,0.03515625,0
2281,-0.91015625,0.04296875,0.0234375,0
2282,-0.90625,0.02734375,0.03515625,0
2283,-0.9140625,0.03515625,0.0390625,0
2284,-0.90234375,0.03125,0.03125,0
2285,-0.9140625,0.01953125,0.01953125,0
2286,-0.921875,0.0234375,0.01953125,0
2287,-0.9140625,0.01171875,0.01171875,0
2288,-0.90625,0.0234375,0.01171875,0
2289,-0.9765625,0.08984375,0.05078125,0
2290,-0.91015625,0.01953125,0.0,0
2291,-0.92578125,0.04296875,0.01171875,0
2292,-0.9296875,0.0390625,0.01171875,0
2293,-0.9453125,0.0390625,0.0078125,0
2294,-0.9375,0.03515625,0.02734375,0
2295,-0.953125,0.04296875,0.01953125,0
2296,-0.9609375,0.0390625,0.0625,0
2297,-0.9765625,0.03125,0.078125,0
2298,-1.00390625,0.02734375,0.109375,0
2299,-1.0078125,-0.015625,0.1328125,0
2300,-1.04296875,-0.0390625,0.1328125,0
2301,-1.0546875,-0.03515625,0.1484375,0
2302,-1.08203125,-0.0546875,0.1328125,0
2303,-1.09375,-0.03125,0.14453125,0
2304,-1.109375,-0.01171875,0.1328125,0
2305,-1.08984375,0.01953125,0.1328125,0
2306,-1.109375,0.03125,0.14453125,0
2307,-1.09765625,0.03515625,0.12890625,0
2308,-1.08984375,0.03515625,0.13671875,0
2309,-1.07421875,0.05078125,0.140625,0
2310,-1.05078125,0.05078125,0.125,0
2311,-1.0234375,0.05078125,0.1171875,0
2312,-1.0078125,0.0703125,0.0859375,0
2313,-0.98828125,0.08984375,0.05859375,0
2314,-0.984375,0.08984375,0.046875,0
2315,-0.9765625,0.11328125,0.01953125,0
2316,-0.97265625,0.10546875,-0.00390625,0
2317,-0.94921875,0.1328125,-0.0234375,0
2318,-0.953125,0.1328125,-0.05078125,0
2319,-0.9609375,0.13671875,-0.0625,0
2320,-0.9609375,0.13671875,-0.0703125,0
2321,-0.97265625,0.1328125,-0.0703125,0
2322,-1.01171875,0.109375,-0.05859375,0
2323,-1.0390625,0.078125,-0.05078125,0
2324,-1.0859375,0.05859375,-0.0625,0
2325,-1.125,0.015625,-0.05859375,0
2326,-1.16796875,-0.0703125,-0.03125,0
2327,-1.203125,-0.12890625,0.0078125,0
2328,-1.21484375,-0.109375,0.0234375,0
2329,-1.2109375,-0.06640625,0.046875,0
2330,-1.20703125,-0.01953125,0.0703125,0
2331,-1.17578125,-0.00390625,0.08984375,0
2332,-1.15625,-0.00390625,0.1171875,0
2333,-1.1171875,-0.0390625,0.12890625,0
2334,-1.09765625,-0.046875,0.13671875,0
2335,-1.0859375,-0.09765625,0.1328125,0
2336,-1.07421875,-0.140625,0.15625,0
2337,-1.0859375,-0.1640625,0.171875,0
2338,-1.10546875,-0.1875,0.17578125,0
2339,-1.13671875,-0.13671875,0.1953125,0
2340,-1.20703125,-0.1171875,0.2109375,0
2341,-1.24609375,-0.1171875,0.22265625,0
2342,-1.265625,-0.140625,0.21875,0
2343,-1.26953125,-0.171875,0.19140625,0
2344,-1.25,-0.16015625,0.15625,0
2345,-1.25,-0.14453125,0.12109375,0
2346,-1.234375,-0.1328125,0.109375,0
2347,-1.203125,-0.08984375,0.078125,0
2348,-1.16796875,-0.09375,0.05078125,0
2349,-1.125,-0.10546875,0.04296875,0
2350,-1.0859375,-0.1015625,0.03125,0
2351,-1.05078125,-0.12890625,0.04296875,0
2352,-1.0078125,-0.14453125,0.01953125,0
2353,-0.9765625,-0.15625,0.02734375,0
2354,-0.94921875,-0.15234375,0.0234375,0
2355,-0.90625,-0.1875,0.01953125,0
2356,-0.83984375,-0.203125,-0.01171875,0
2357,-0.81640625,-0.2109375,-0.0234375,0
2358,-0.80859375,-0.21484375,-0.0390625,0
2359,-0.7890625,-0.203125,-0.03515625,0
2360,-0.765625,-0.1875,-0.03515625,0
2361,-0.74609375,-0.19921875,-0.01953125,0
2362,-0.75,-0.1953125,-0.00390625,0
2363,-0.74609375,-0.1796875,0.00390625,0
2364,-0.765625,-0.16796875,0.0078125,0
2365,-0.77734375,-0.16015625,-0.00390625,0
2366,-0.8046875,-0.1484375,0.0078125,0
2367,-0.828125,-0.125,0.0078125,0
2368,-0.875,-0.11328125,0.0,0
2369,-0.90234375,-0.08203125,0.01171875,0
2370,-0.9375,-0.08203125,0.01953125,0
2371,-0.9453125,-0.08984375,0.0,0
2372,-0.96875,-0.07421875,0.0078125,0
2373,-0.98046875,-0.1015625,0.0078125,0
2374,-0.9921875,-0.09765625,-0.0078125,0
2375,-0.98828125,-0.08203125,-0.03125,0
2376,-1.00390625,-0.0703125,-0.0546875,0
2377,-1.015625,-0.0625,-0.06640625,0
2378,-1.03125,-0.0703125,-0.0859375,0
2379,-1.04296875,-0.07421875,-0.08984375,0
2380,-1.04296875,-0.0703125,-0.078125,0
2381,-1.0625,-0.0859375,-0.0703125,0
2382,-1.0859375,-0.10546875,-0.0390625,0
2383,-1.08203125,-0.10546875,-0.0546875,0
2384,-1.09375,-0.1171875,-0.0390625,0
2385,-1.0703125,-0.12890625,-0.0234375,0
2386,-1.0625,-0.13671875,-0.00390625,0
2387,-1.0234375,-0.140625,-0.01171875,0
2388,-0.99609375,-0.11328125,0.0078125,0
2389,-0.984375,-0.12109375,0.03515625,0
2390,-0.96875,-0.1015625,0.04296875,0
2391,-0.96484375,-0.1015625,0.0546875,0
2392,-0.953125,-0.08984375,0.07421875,0
2393,-0.94140625,-0.078125,0.0625,0
2394,-0.921875,-0.078125,0.06640625,0
2395,-0.91015625,-0.0703125,0.0546875,0
2396,-0.90625,-0.0703125,0.04296875,0
2397,-0.89453125,-0.0546875,0.0234375,0
2398,-0.88671875,-0.0546875,0.03125,0
2399,-0.87109375,-0.05078125,0.015625,0
