,accelerometerAccelerationX(G),accelerometerAccelerationY(G),accelerometerAccelerationZ(G)
0,-0.03515625,-0.95703125,-0.1875
1,-0.0234375,-0.96484375,-0.171875
2,-0.01953125,-0.9609375,-0.19140625
3,-0.01953125,-0.9609375,-0.171875
4,-0.0390625,-0.92578125,-0.16796875
5,0.00390625,-0.95703125,-0.15625
6,-0.015625,-0.9609375,-0.15625
7,-0.0234375,-0.95703125,-0.17578125
8,-0.015625,-0.9609375,-0.171875
9,-0.015625,-0.94921875,-0.1640625
10,-0.01953125,-0.94140625,-0.171875
11,-0.01953125,-0.953125,-0.18359375
12,-0.0234375,-0.94921875,-0.1640625
13,-0.0234375,-0.94921875,-0.16796875
14,-0.01953125,-0.95703125,-0.1875
15,-0.0234375,-0.94921875,-0.16796875
16,-0.01953125,-0.94921875,-0.18359375
17,-0.03125,-0.95703125,-0.15625
18,-0.015625,-0.95703125,-0.171875
19,-0.01953125,-0.953125,-0.171875
20,-0.01953125,-0.94921875,-0.16796875
21,-0.0234375,-0.95703125,-0.17578125
22,-0.015625,-0.94921875,-0.171875
23,-0.02734375,-0.94921875,-0.18359375
24,-0.015625,-0.9453125,-0.1875
25,-0.03515625,-0.94140625,-0.171875
26,-0.02734375,-0.95703125,-0.16015625
27,-0.015625,-0.95703125,-0.17578125
28,-0.0234375,-0.94921875,-0.15625
29,-0.02734375,-0.9453125,-0.17578125
30,-0.0234375,-0.95703125,-0.1640625
31,-0.0234375,-0.95703125,-0.19140625
32,-0.015625,-0.9609375,-0.171875
33,-0.01953125,-0.96875,-0.1796875
34,-0.01171875,-0.95703125,-0.1796875
35,-0.015625,-0.9609375,-0.17578125
36,-0.0234375,-0.953125,-0.17578125
37,-0.03125,-0.953125,-0.17578125
38,-0.015625,-0.96484375,-0.16015625
39,-0.0234375,-0.953125,-0.171875
40,-0.01953125,-0.9375,-0.171875
41,-0.015625,-0.94921875,-0.17578125
42,-0.015625,-0.9453125,-0.1640625
43,-0.015625,-0.9609375,-0.1796875
44,-0.015625,-0.953125,-0.1796875
45,-0.01171875,-0.96875,-0.1875
46,-0.0234375,-0.95703125,-0.1640625
47,-0.01953125,-0.94140625,-0.1796875
48,-0.0234375,-0.9609375,-0.18359375
49,-0.015625,-0.95703125,-0.1796875
50,-0.0234375,-0.9609375,-0.1875
51,-0.015625,-0.953125,-0.171875
52,-0.02734375,-0.94921875,-0.16796875
53,-0.00390625,-0.96484375,-0.16796875
54,-0.015625,-0.95703125,-0.1796875
55,-0.01953125,-0.9609375,-0.17578125
56,-0.015625,-0.96484375,-0.18359375
57,-0.015625,-0.9609375,-0.1875
58,-0.015625,-0.953125,-0.1875
59,-0.015625,-0.95703125,-0.1875
60,-0.015625,-0.95703125,-0.171875
61,-0.0234375,-0.95703125,-0.17578125
62,-0.01953125,-0.953125,-0.1875
63,-0.01953125,-0.95703125,-0.18359375
64,-0.015625,-0.9609375,-0.18359375
65,-0.02734375,-0.9609375,-0.1875
66,-0.015625,-0.95703125,-0.17578125
67,-0.015625,-0.94921875,-0.19140625
68,-0.015625,-0.953125,-0.1875
69,-0.015625,-0.953125,-0.19140625
70,-0.015625,-0.9453125,-0.17578125
71,-0.0234375,-0.94921875,-0.1796875
72,-0.02734375,-0.953125,-0.18359375
73,-0.015625,-0.94921875,-0.1875
74,-0.015625,-0.95703125,-0.17578125
75,-0.01171875,-0.95703125,-0.18359375
76,-0.015625,-0.953125,-0.1875
77,-0.0234375,-0.95703125,-0.19140625
78,-0.01953125,-0.95703125,-0.171875
79,-0.01953125,-0.9453125,-0.18359375
80,-0.015625,-0.95703125,-0.18359375
81,-0.015625,-0.953125,-0.17578125
82,-0.0234375,-0.953125,-0.1640625
83,-0.015625,-0.953125,-0.171875
84,-0.015625,-0.9453125,-0.18359375
85,-0.02734375,-0.953125,-0.16796875
86,-0.015625,-0.953125,-0.16796875
87,-0.02734375,-0.953125,-0.17578125
88,-0.0234375,-0.95703125,-0.18359375
89,-0.02734375,-0.94921875,-0.1796875
90,-0.0390625,-0.94921875,-0.15234375
91,-0.0234375,-0.95703125,-0.18359375
92,-0.0234375,-0.953125,-0.18359375
93,-0.0234375,-0.9609375,-0.1640625
94,-0.015625,-0.9453125,-0.18359375
95,-0.015625,-0.9609375,-0.16796875
96,-0.02734375,-0.9609375,-0.17578125
97,-0.0234375,-0.9453125,-0.1875
98,-0.01171875,-0.9609375,-0.171875
99,-0.01953125,-0.94921875,-0.1796875
100,-0.0234375,-0.94921875,-0.15625
101,-0.01953125,-0.953125,-0.16796875
102,-0.015625,-0.96484375,-0.16015625
103,-0.01171875,-0.9609375,-0.16796875
104,-0.015625,-0.9609375,-0.16796875
105,-0.015625,-0.95703125,-0.17578125
106,-0.015625,-0.96484375,-0.171875
107,-0.02734375,-0.96484375,-0.17578125
108,-0.02734375,-0.953125,-0.18359375
109,-0.015625,-0.94140625,-0.17578125
110,-0.015625,-0.95703125,-0.171875
111,-0.015625,-0.95703125,-0.171875
112,-0.0234375,-0.95703125,-0.15234375
113,-0.015625,-0.96484375,-0.1640625
114,-0.02734375,-0.97265625,-0.16015625
115,-0.015625,-0.94921875,-0.18359375
116,-0.01171875,-0.94921875,-0.15234375
117,-0.01953125,-0.9453125,-0.1796875
118,-0.015625,-0.94921875,-0.16796875
119,-0.02734375,-0.96484375,-0.17578125
120,-0.01953125,-0.953125,-0.1796875
121,-0.01953125,-0.94921875,-0.171875
122,-0.02734375,-0.9609375,-0.18359375
123,-0.01171875,-0.96484375,-0.18359375
124,-0.015625,-0.95703125,-0.1796875
125,-0.01171875,-0.95703125,-0.16796875
126,-0.015625,-0.953125,-0.1796875
127,-0.01953125,-0.95703125,-0.1796875
128,-0.01953125,-0.9609375,-0.171875
129,-0.015625,-0.95703125,-0.1796875
130,-0.01953125,-0.96875,-0.17578125
131,-0.01171875,-0.9609375,-0.1796875
132,-0.015625,-0.9453125,-0.171875
133,-0.0234375,-0.953125,-0.1796875
134,-0.015625,-0.94921875,-0.17578125
135,-0.02734375,-0.95703125,-0.171875
136,-0.015625,-0.9609375,-0.16796875
137,-0.015625,-0.953125,-0.1796875
138,-0.01953125,-0.96484375,-0.1640625
139,-0.015625,-0.9609375,-0.171875
140,-0.01953125,-0.94921875,-0.16015625
141,-0.01953125,-0.96484375,-0.15234375
142,-0.015625,-0.9609375,-0.15234375
143,-0.01171875,-0.95703125,-0.16796875
144,-0.03125,-0.9453125,-0.171875
145,-0.015625,-0.94921875,-0.17578125
146,-0.015625,-0.953125,-0.1640625
147,-0.0234375,-0.94921875,-0.16796875
148,-0.0234375,-0.953125,-0.1640625
149,-0.03125,-0.94921875,-0.1640625
150,-0.0234375,-0.94140625,-0.1796875
151,-0.015625,-0.94921875,-0.171875
152,-0.01171875,-0.96484375,-0.16796875
153,-0.015625,-0.94140625,-0.15234375
154,-0.0234375,-0.953125,-0.15234375
155,-0.0234375,-0.953125,-0.16796875
156,-0.01171875,-0.94921875,-0.16015625
157,-0.015625,-0.95703125,-0.17578125
158,-0.01953125,-0.9609375,-0.1640625
159,-0.0234375,-0.96484375,-0.15234375
160,-0.03125,-0.9453125,-0.1640625
161,-0.015625,-0.96484375,-0.18359375
162,-0.015625,-0.95703125,-0.16796875
163,-0.0234375,-0.95703125,-0.18359375
164,-0.015625,-0.95703125,-0.1640625
165,-0.0234375,-0.94921875,-0.16015625
166,-0.01953125,-0.95703125,-0.171875
167,-0.015625,-0.953125,-0.16015625
168,-0.0234375,-0.94921875,-0.16015625
169,-0.02734375,-0.94921875,-0.17578125
170,-0.02734375,-0.94140625,-0.1640625
171,-0.01171875,-0.95703125,-0.17578125
172,-0.0234375,-0.953125,-0.1796875
173,-0.01953125,-0.9609375,-0.171875
174,-0.015625,-0.96875,-0.1640625
175,-0.015625,-0.95703125,-0.15234375
176,-0.015625,-0.95703125,-0.16796875
177,-0.0390625,-0.9609375,-0.1171875
178,-0.0234375,-0.96484375,-0.17578125
179,-0.015625,-0.9609375,-0.16796875
180,-0.0234375,-0.953125,-0.17578125
181,-0.015625,-0.9609375,-0.16796875
182,-0.01953125,-0.94921875,-0.1796875
183,-0.015625,-0.953125,-0.171875
184,-0.015625,-0.94921875,-0.171875
185,-0.01953125,-0.95703125,-0.171875
186,-0.01953125,-0.9609375,-0.17578125
187,-0.02734375,-0.95703125,-0.1796875
188,-0.01953125,-0.953125,-0.171875
189,-0.015625,-0.97265625,-0.1796875
190,-0.01953125,-0.96875,-0.16796875
191,-0.01953125,-0.953125,-0.1484375
192,-0.015625,-0.95703125,-0.1640625
193,-0.01953125,-0.9609375,-0.16796875
194,-0.0234375,-0.9453125,-0.16796875
195,-0.03125,-0.9609375,-0.16796875
196,-0.03125,-0.953125,-0.1796875
197,-0.015625,-0.95703125,-0.171875
198,-0.01953125,-0.95703125,-0.171875
199,-0.0234375,-0.94140625,-0.1796875
200,-0.01171875,-0.9609375,-0.16796875
201,-0.01171875,-0.94921875,-0.1640625
202,-0.01171875,-0.953125,-0.1640625
203,-0.015625,-0.96484375,-0.171875
204,-0.015625,-0.953125,-0.171875
205,-0.015625,-0.95703125,-0.18359375
206,-0.015625,-0.94921875,-0.17578125
207,-0.01953125,-0.94140625,-0.1875
208,-0.0234375,-0.9453125,-0.16796875
209,-0.015625,-0.96484375,-0.17578125
210,-0.015625,-0.953125,-0.16796875
211,-0.015625,-0.95703125,-0.17578125
212,-0.01953125,-0.95703125,-0.16015625
213,-0.015625,-0.9609375,-0.17578125
214,-0.015625,-0.95703125,-0.1640625
215,-0.01953125,-0.95703125,-0.16796875
216,-0.015625,-0.95703125,-0.18359375
217,-0.01953125,-0.953125,-0.171875
218,-0.015625,-0.9609375,-0.1796875
219,-0.015625,-0.95703125,-0.16015625
220,-0.015625,-0.94140625,-0.17578125
221,-0.01953125,-0.9609375,-0.1640625
222,-0.01953125,-0.9453125,-0.18359375
223,-0.015625,-0.9453125,-0.1796875
224,-0.015625,-0.96484375,-0.1640625
225,-0.01953125,-0.95703125,-0.1796875
226,-0.0234375,-0.94921875,-0.1796875
227,-0.015625,-0.95703125,-0.17578125
228,-0.015625,-0.9453125,-0.17578125
229,-0.01171875,-0.953125,-0.17578125
230,-0.0234375,-0.953125,-0.17578125
231,-0.015625,-0.94921875,-0.171875
232,-0.0234375,-0.953125,-0.1640625
233,-0.01953125,-0.95703125,-0.18359375
234,-0.015625,-0.95703125,-0.1640625
235,-0.01953125,-0.953125,-0.17578125
236,-0.015625,-0.953125,-0.1875
237,-0.0234375,-0.94140625,-0.18359375
238,-0.015625,-0.953125,-0.16796875
239,-0.015625,-0.953125,-0.1796875
240,-0.015625,-0.9453125,-0.16796875
241,-0.01953125,-0.96484375,-0.1640625
242,-0.0234375,-0.953125,-0.171875
243,-0.015625,-0.9609375,-0.171875
244,-0.0234375,-0.953125,-0.171875
245,-0.0234375,-0.9609375,-0.18359375
246,-0.01953125,-0.94140625,-0.1875
247,-0.015625,-0.95703125,-0.16015625
248,-0.01171875,-0.953125,-0.1640625
249,-0.01953125,-0.9609375,-0.1640625
250,-0.015625,-0.94921875,-0.17578125
251,-0.015625,-0.96484375,-0.171875
252,-0.015625,-0.95703125,-0.16796875
253,-0.01953125,-0.94921875,-0.171875
254,-0.01953125,-0.9453125,-0.1484375
255,-0.03125,-0.9453125,-0.17578125
256,-0.015625,-0.94921875,-0.171875
257,-0.01953125,-0.9609375,-0.17578125
258,-0.02734375,-0.95703125,-0.171875
259,-0.0234375,-0.95703125,-0.1640625
260,-0.0234375,-0.9609375,-0.171875
261,-0.01953125,-0.94921875,-0.17578125
262,-0.015625,-0.9453125,-0.18359375
263,-0.04296875,-0.9609375,-0.1796875
264,-0.01171875,-0.94921875,-0.1640625
265,-0.015625,-0.93359375,-0.1953125
266,-0.01953125,-0.95703125,-0.19140625
267,-0.0234375,-0.95703125,-0.16796875
268,-0.01953125,-0.96484375,-0.16796875
269,-0.0234375,-0.9453125,-0.171875
270,-0.01953125,-0.94921875,-0.1953125
271,-0.0234375,-0.953125,-0.17578125
272,-0.01953125,-0.96484375,-0.17578125
273,-0.0234375,-0.96484375,-0.1875
274,-0.015625,-0.953125,-0.1875
275,-0.01171875,-0.96484375,-0.18359375
276,-0.03125,-0.97265625,-0.1796875
277,-0.01953125,-0.98046875,-0.1796875
278,-0.015625,-0.96875,-0.18359375
279,-0.02734375,-0.95703125,-0.18359375
280,-0.01171875,-0.97265625,-0.1796875
281,-0.01953125,-0.96484375,-0.19921875
282,-0.02734375,-0.96875,-0.1796875
283,-0.01953125,-0.95703125,-0.19140625
284,-0.015625,-0.96484375,-0.16796875
285,-0.02734375,-0.953125,-0.19140625
286,-0.02734375,-0.96875,-0.1796875
287,-0.0390625,-0.9453125,-0.1796875
288,-0.015625,-0.9453125,-0.19140625
289,-0.01953125,-0.95703125,-0.17578125
290,-0.015625,-0.94140625,-0.1875
291,-0.0390625,-0.9453125,-0.1796875
292,-0.015625,-0.94921875,-0.18359375
293,-0.109375,-0.96875,-0.1328125
294,-0.01953125,-0.96484375,-0.1796875
295,-0.01953125,-0.96875,-0.1953125
296,-0.0234375,-0.94921875,-0.1796875
297,-0.02734375,-0.953125,-0.17578125
298,-0.01953125,-0.95703125,-0.1640625
299,-0.01953125,-0.953125,-0.1953125
300,-0.03125,-0.9609375,-0.18359375
301,-0.02734375,-0.953125,-0.1796875
302,-0.01953125,-0.9921875,-0.13671875
303,-0.015625,-0.96484375,-0.1875
304,-0.02734375,-0.95703125,-0.1953125
305,-0.01953125,-0.9609375,-0.20703125
306,-0.03125,-0.94140625,-0.18359375
307,-0.015625,-0.9375,-0.1875
308,-0.01953125,-0.953125,-0.1875
309,-0.02734375,-0.94921875,-0.1796875
310,-0.0234375,-0.94921875,-0.1796875
311,-0.015625,-0.953125,-0.1875
312,-0.01953125,-0.96484375,-0.1953125
313,-0.03125,-0.94921875,-0.1953125
314,-0.015625,-0.9609375,-0.19140625
315,-0.01953125,-0.94140625,-0.1953125
316,-0.01953125,-0.9453125,-0.21484375
317,-0.01953125,-0.953125,-0.1953125
318,-0.015625,-0.9609375,-0.19921875
319,-0.01171875,-0.96484375,-0.2109375
320,-0.0234375,-0.97265625,-0.19140625
321,-0.015625,-0.96875,-0.203125
322,-0.03515625,-0.9609375,-0.171875
323,-0.01953125,-0.96484375,-0.1875
324,-0.015625,-0.95703125,-0.203125
325,-0.01953125,-0.94921875,-0.19140625
326,-0.01953125,-0.9453125,-0.19140625
327,-0.01171875,-0.94140625,-0.19140625
328,-0.03125,-0.953125,-0.1953125
329,-0.015625,-0.96484375,-0.1953125
330,-0.015625,-0.96484375,-0.203125
331,-0.015625,-0.953125,-0.19921875
332,-0.01953125,-0.94921875,-0.19921875
333,-0.01953125,-0.95703125,-0.1875
334,-0.0078125,-0.9453125,-0.19140625
335,-0.03515625,-0.94921875,-0.19140625
336,-0.015625,-0.95703125,-0.1953125
337,-0.0234375,-0.9609375,-0.18359375
338,-0.01953125,-0.95703125,-0.1953125
339,-0.01953125,-0.96484375,-0.1796875
340,-0.015625,-0.96484375,-0.1875
341,-0.01953125,-0.953125,-0.19140625
342,-0.0234375,-0.953125,-0.1953125
343,-0.0234375,-0.9296875,-0.1953125
344,-0.01171875,-0.94921875,-0.1875
345,-0.0234375,-0.9453125,-0.20703125
346,-0.02734375,-0.94140625,-0.1953125
347,-0.015625,-0.94140625,-0.18359375
348,-0.01953125,-0.9453125,-0.19921875
349,-0.015625,-0.94921875,-0.18359375
350,-0.01171875,-0.93359375,-0.22265625
351,-0.02734375,-0.95703125,-0.1953125
352,-0.03515625,-0.9453125,-0.18359375
353,-0.0234375,-0.95703125,-0.203125
354,-0.015625,-0.96484375,-0.17578125
355,-0.015625,-0.97265625,-0.171875
356,-0.03125,-0.96875,-0.18359375
357,-0.03125,-0.95703125,-0.1875
358,-0.0234375,-0.95703125,-0.19140625
359,-0.015625,-0.9609375,-0.18359375
360,-0.02734375,-0.9375,-0.19921875
361,-0.015625,-0.953125,-0.203125
362,-0.0234375,-0.9453125,-0.1953125
363,-0.01953125,-0.9453125,-0.1953125
364,-0.02734375,-0.9375,-0.18359375
365,-0.015625,-0.95703125,-0.18359375
366,-0.01171875,-0.96875,-0.1796875
367,-0.015625,-0.953125,-0.1796875
368,-0.03125,-0.953125,-0.1953125
369,-0.0234375,-0.95703125,-0.16796875
370,-0.0234375,-0.95703125,-0.1796875
371,-0.0234375,-0.9609375,-0.1796875
372,-0.01953125,-0.9453125,-0.1640625
373,-0.015625,-0.96875,-0.1640625
374,-0.03515625,-0.953125,-0.18359375
375,-0.0234375,-0.96875,-0.171875
376,-0.0234375,-0.953125,-0.171875
377,-0.01953125,-0.953125,-0.171875
378,-0.015625,-0.95703125,-0.1875
379,-0.03515625,-0.9453125,-0.17578125
380,-0.01953125,-0.94140625,-0.18359375
381,-0.03125,-0.93359375,-0.1875
382,-0.02734375,-0.9609375,-0.16796875
383,-0.0234375,-0.9609375,-0.19140625
384,-0.02734375,-0.9609375,-0.1796875
385,-0.015625,-0.9375,-0.171875
386,-0.015625,-0.95703125,-0.19140625
387,-0.015625,-0.94921875,-0.1796875
388,-0.015625,-0.9453125,-0.1875
389,-0.015625,-0.9609375,-0.19921875
390,-0.02734375,-0.95703125,-0.1796875
391,-0.0234375,-0.96484375,-0.1875
392,-0.01953125,-0.95703125,-0.1875
393,0.01953125,-0.9765625,-0.1640625
394,-0.01953125,-0.953125,-0.1875
395,-0.01953125,-0.95703125,-0.18359375
396,-0.0078125,-0.9609375,-0.17578125
397,-0.01953125,-0.953125,-0.19140625
398,-0.0078125,-0.9453125,-0.1875
399,-0.0234375,-0.9296875,-0.19140625
400,-0.0234375,-0.9453125,-0.1875
401,-0.0234375,-0.94921875,-0.18359375
402,-0.0234375,-0.96484375,-0.19140625
403,-0.015625,-0.96484375,-0.18359375
404,-0.01953125,-0.95703125,-0.1953125
405,-0.0234375,-0.953125,-0.1875
406,-0.0234375,-0.9609375,-0.1953125
407,-0.01953125,-0.94921875,-0.1953125
408,-0.0234375,-0.94921875,-0.1875
409,-0.0234375,-0.95703125,-0.1953125
410,-0.015625,-0.953125,-0.1875
411,-0.015625,-0.9453125,-0.19140625
412,-0.0234375,-0.9609375,-0.2109375
413,-0.015625,-0.9609375,-0.19921875
414,-0.015625,-0.9609375,-0.19921875
415,-0.03125,-0.94921875,-0.203125
416,-0.015625,-0.9609375,-0.1875
417,-0.015625,-0.9453125,-0.19921875
418,-0.015625,-0.9453125,-0.18359375
419,-0.02734375,-0.95703125,-0.2109375
420,-0.0234375,-0.9453125,-0.1953125
421,-0.015625,-0.94921875,-0.2109375
422,-0.03125,-0.95703125,-0.19921875
423,-0.015625,-0.94921875,-0.20703125
424,-0.0390625,-0.9453125,-0.1953125
425,-0.01953125,-0.95703125,-0.19921875
426,-0.0234375,-0.953125,-0.19921875
427,-0.02734375,-0.94921875,-0.20703125
428,-0.03125,-0.94921875,-0.19140625
429,-0.02734375,-0.94140625,-0.19921875
430,-0.0234375,-0.953125,-0.1875
431,-0.0234375,-0.953125,-0.19921875
432,-0.01953125,-0.93359375,-0.1875
433,-0.03515625,-0.96484375,-0.1953125
434,-0.015625,-0.95703125,-0.1953125
435,-0.015625,-0.9453125,-0.19921875
436,-0.01953125,-0.953125,-0.1875
437,-0.0234375,-0.953125,-0.19921875
438,-0.015625,-0.9453125,-0.1953125
439,-0.03125,-0.953125,-0.18359375
440,-0.02734375,-0.953125,-0.18359375
441,-0.03515625,-0.9453125,-0.1796875
442,-0.02734375,-0.9453125,-0.1875
443,-0.015625,-0.94140625,-0.18359375
444,-0.015625,-0.9453125,-0.1875
445,-0.0234375,-0.953125,-0.18359375
446,-0.0234375,-0.953125,-0.18359375
447,-0.015625,-0.953125,-0.1875
448,-0.0234375,-0.9609375,-0.17578125
449,-0.01171875,-0.96484375,-0.1796875
450,-0.0234375,-0.95703125,-0.20703125
451,-0.015625,-0.953125,-0.171875
452,-0.015625,-0.97265625,-0.17578125
453,-0.01953125,-0.95703125,-0.17578125
454,-0.015625,-0.953125,-0.1796875
455,-0.01953125,-0.9609375,-0.16796875
456,-0.01953125,-0.9453125,-0.171875
457,-0.01953125,-0.94921875,-0.19140625
458,-0.0234375,-0.953125,-0.1796875
459,-0.0234375,-0.95703125,-0.17578125
460,-0.01953125,-0.94921875,-0.1796875
461,-0.0234375,-0.95703125,-0.17578125
462,-0.01953125,-0.96484375,-0.1796875
463,-0.015625,-0.96875,-0.1875
464,-0.015625,-0.9609375,-0.1796875
465,-0.015625,-0.96484375,-0.19921875
466,-0.0078125,-0.97265625,-0.1796875
467,-0.015625,-0.953125,-0.18359375
468,-0.03125,-0.94921875,-0.1875
469,-0.015625,-0.953125,-0.203125
470,-0.015625,-0.953125,-0.1875
471,-0.01953125,-0.9609375,-0.17578125
472,-0.01953125,-0.96484375,-0.18359375
473,-0.02734375,-0.9375,-0.171875
474,-0.015625,-0.953125,-0.17578125
475,-0.01171875,-0.96875,-0.18359375
476,-0.015625,-0.94921875,-0.19921875
477,-0.015625,-0.94921875,-0.1640625
478,-0.0234375,-0.9453125,-0.1875
479,-0.015625,-0.94921875,-0.18359375
480,-0.01953125,-0.96484375,-0.1953125
481,-0.015625,-0.94140625,-0.17578125
482,-0.01953125,-0.9453125,-0.1796875
483,-0.015625,-0.9609375,-0.18359375
484,-0.01953125,-0.94921875,-0.19140625
485,-0.02734375,-0.953125,-0.18359375
486,-0.015625,-0.94921875,-0.19140625
487,-0.01953125,-0.953125,-0.19140625
488,-0.03515625,-0.94921875,-0.1796875
489,-0.015625,-0.96875,-0.1640625
490,-0.0078125,-0.94140625,-0.1953125
491,-0.015625,-0.95703125,-0.19140625
492,-0.01953125,-0.96484375,-0.1796875
493,-0.0234375,-0.9609375,-0.1796875
494,-0.0234375,-0.94921875,-0.1875
495,-0.015625,-0.96484375,-0.1875
496,-0.0234375,-0.96484375,-0.18359375
497,-0.015625,-0.95703125,-0.18359375
498,-0.015625,-0.953125,-0.16796875
499,-0.015625,-0.9609375,-0.1796875
500,-0.02734375,-0.95703125,-0.18359375
501,-0.01953125,-0.9609375,-0.1953125
502,-0.01953125,-0.9609375,-0.1953125
503,-0.015625,-0.9609375,-0.1796875
504,-0.015625,-0.96875,-0.19921875
505,-0.03515625,-0.95703125,-0.19140625
506,-0.02734375,-0.96484375,-0.1953125
507,-0.02734375,-0.95703125,-0.1953125
508,-0.01953125,-0.94921875,-0.203125
509,-0.0234375,-0.95703125,-0.203125
510,-0.02734375,-0.92578125,-0.1796875
511,-0.01953125,-0.953125,-0.18359375
512,-0.02734375,-0.95703125,-0.1953125
513,-0.02734375,-0.96875,-0.2109375
514,-0.015625,-0.96875,-0.2109375
515,-0.01953125,-0.9609375,-0.19140625
516,-0.015625,-0.9609375,-0.1953125
517,-0.03125,-0.953125,-0.20703125
518,-0.0234375,-0.953125,-0.1875
519,-0.015625,-0.9453125,-0.19921875
520,-0.03515625,-0.95703125,-0.19140625
521,-0.01171875,-0.95703125,-0.19921875
522,-0.02734375,-0.94140625,-0.1875
523,-0.0234375,-0.953125,-0.19140625
524,-0.015625,-0.9453125,-0.1875
525,-0.0234375,-0.94921875,-0.19921875
526,-0.02734375,-0.94140625,-0.1875
527,-0.015625,-0.9453125,-0.19140625
528,-0.015625,-0.94921875,-0.1796875
529,-0.015625,-0.94140625,-0.19140625
530,-0.015625,-0.9453125,-0.203125
531,-0.01171875,-0.953125,-0.19140625
532,-0.01953125,-0.94140625,-0.17578125
533,-0.015625,-0.953125,-0.18359375
534,-0.01171875,-0.93359375,-0.19140625
535,-0.01953125,-0.94921875,-0.1875
536,-0.015625,-0.9453125,-0.18359375
537,-0.02734375,-0.9453125,-0.17578125
538,-0.02734375,-0.94921875,-0.19140625
539,-0.03125,-0.94921875,-0.171875
540,-0.02734375,-0.94140625,-0.1796875
541,-0.0234375,-0.95703125,-0.1875
542,-0.0234375,-0.96875,-0.1875
543,-0.0234375,-0.94921875,-0.17578125
544,-0.03125,-0.9609375,-0.17578125
545,-0.015625,-0.9609375,-0.17578125
546,-0.015625,-0.95703125,-0.18359375
547,-0.015625,-0.953125,-0.18359375
548,-0.015625,-0.95703125,-0.18359375
549,-0.01953125,-0.953125,-0.1875
550,-0.02734375,-0.97265625,-0.19921875
551,-0.015625,-0.95703125,-0.18359375
552,-0.015625,-0.95703125,-0.17578125
553,-0.01953125,-0.95703125,-0.19140625
554,-0.0390625,-0.94921875,-0.171875
555,-0.02734375,-0.953125,-0.17578125
556,-0.01953125,-0.98046875,-0.1328125
557,-0.015625,-0.96484375,-0.1796875
558,-0.01171875,-0.953125,-0.1796875
559,-0.0234375,-0.95703125,-0.18359375
560,-0.015625,-0.94921875,-0.19140625
561,-0.015625,-0.95703125,-0.171875
562,-0.0234375,-0.9453125,-0.16796875
563,-0.0234375,-0.953125,-0.1796875
564,-0.015625,-0.94921875,-0.18359375
565,-0.01953125,-0.9453125,-0.18359375
566,-0.03515625,-0.94921875,-0.19140625
567,-0.02734375,-0.97265625,-0.19140625
568,-0.01953125,-0.9609375,-0.18359375
569,-0.01953125,-0.9609375,-0.19140625
570,-0.02734375,-0.95703125,-0.18359375
571,-0.015625,-0.94921875,-0.19140625
572,-0.015625,-0.94921875,-0.1796875
573,-0.015625,-0.9375,-0.1875
574,-0.0234375,-0.94140625,-0.1953125
575,-0.01953125,-0.953125,-0.17578125
576,-0.02734375,-0.94140625,-0.18359375
577,-0.01953125,-0.96484375,-0.17578125
578,-0.0234375,-0.94921875,-0.1796875
579,-0.01953125,-0.95703125,-0.1953125
580,-0.01953125,-0.9609375,-0.1875
581,-0.03125,-0.95703125,-0.1796875
582,-0.01953125,-0.95703125,-0.19140625
583,-0.015625,-0.94140625,-0.16796875
584,-0.0234375,-0.9375,-0.16796875
585,-0.015625,-0.94921875,-0.17578125
586,-0.015625,-0.953125,-0.1875
587,-0.015625,-0.95703125,-0.1796875
588,-0.03125,-0.94140625,-0.18359375
589,-0.015625,-0.94921875,-0.1953125
590,-0.01953125,-0.9453125,-0.203125
591,-0.015625,-0.9453125,-0.19140625
592,-0.0234375,-0.9609375,-0.1875
593,-0.02734375,-0.9453125,-0.1953125
594,-0.03125,-0.9453125,-0.1875
595,-0.02734375,-0.94921875,-0.1875
596,-0.046875,-0.9453125,-0.17578125
597,-0.0234375,-0.96875,-0.1875
598,-0.01953125,-0.95703125,-0.1953125
599,-0.015625,-0.95703125,-0.20703125
600,-0.015625,-0.95703125,-0.1953125
601,-0.03515625,-0.94921875,-0.1875
602,-0.03515625,-0.95703125,-0.1796875
603,-0.0234375,-0.94140625,-0.203125
604,-0.015625,-0.94921875,-0.19140625
605,-0.0234375,-0.953125,-0.19140625
606,-0.015625,-0.95703125,-0.1875
607,-0.0234375,-0.953125,-0.18359375
608,-0.01953125,-0.95703125,-0.1875
609,-0.015625,-0.9609375,-0.1875
610,-0.015625,-0.95703125,-0.18359375
611,-0.03125,-0.953125,-0.20703125
612,-0.0234375,-0.94921875,-0.18359375
613,-0.0234375,-0.9609375,-0.19140625
614,-0.02734375,-0.953125,-0.17578125
615,-0.015625,-0.95703125,-0.1875
616,-0.015625,-0.9453125,-0.17578125
617,-0.01953125,-0.9453125,-0.203125
618,-0.015625,-0.9609375,-0.171875
619,-0.02734375,-0.95703125,-0.1953125
620,-0.01953125,-0.9609375,-0.19921875
621,-0.015625,-0.9453125,-0.1875
622,-0.02734375,-0.953125,-0.1875
623,-0.0234375,-0.95703125,-0.18359375
624,-0.01953125,-0.95703125,-0.18359375
625,-0.015625,-0.94921875,-0.1953125
626,-0.015625,-0.953125,-0.19921875
627,-0.01953125,-0.9453125,-0.18359375
628,-0.015625,-0.95703125,-0.1796875
629,-0.0390625,-0.953125,-0.1796875
630,-0.015625,-0.9453125,-0.1953125
631,-0.01171875,-0.9453125,-0.19140625
632,-0.03125,-0.953125,-0.19140625
633,-0.015625,-0.953125,-0.19140625
634,-0.015625,-0.953125,-0.1953125
635,-0.01953125,-0.9609375,-0.18359375
636,-0.03515625,-0.94921875,-0.19140625
637,-0.01953125,-0.953125,-0.1953125
638,-0.0234375,-0.96484375,-0.171875
639,-0.0390625,-0.953125,-0.19921875
640,-0.02734375,-0.94140625,-0.19140625
641,-0.0234375,-0.96484375,-0.1875
642,-0.01953125,-0.94921875,-0.1875
643,-0.015625,-0.96875,-0.19921875
644,-0.01953125,-0.953125,-0.19921875
645,-0.01953125,-0.953125,-0.19140625
646,-0.01953125,-0.9609375,-0.203125
647,-0.015625,-0.94921875,-0.19140625
648,-0.015625,-0.953125,-0.19140625
649,-0.0234375,-0.94921875,-0.1875
650,-0.015625,-0.94921875,-0.17578125
651,-0.01953125,-0.953125,-0.18359375
652,-0.015625,-0.95703125,-0.1875
653,-0.015625,-0.95703125,-0.1875
654,-0.02734375,-0.96484375,-0.1796875
655,-0.015625,-0.953125,-0.19140625
656,-0.0390625,-0.95703125,-0.19140625
657,-0.01953125,-0.96484375,-0.18359375
658,-0.0234375,-0.96484375,-0.19921875
659,-0.0234375,-0.9453125,-0.1953125
660,-0.015625,-0.9609375,-0.171875
661,-0.01171875,-0.9453125,-0.20703125
662,-0.015625,-0.95703125,-0.19140625
663,-0.02734375,-0.95703125,-0.1875
664,-0.02734375,-0.94921875,-0.1875
665,-0.03515625,-0.953125,-0.19140625
666,-0.0234375,-0.94921875,-0.1796875
667,-0.01953125,-0.9453125,-0.18359375
668,-0.015625,-0.953125,-0.17578125
669,-0.01953125,-0.94921875,-0.19140625
670,-0.02734375,-0.953125,-0.18359375
671,-0.03125,-0.95703125,-0.1796875
672,-0.015625,-0.9609375,-0.19140625
673,-0.03125,-0.95703125,-0.18359375
674,-0.03125,-0.9609375,-0.19140625
675,-0.0234375,-0.94921875,-0.19140625
676,-0.03125,-0.94140625,-0.1953125
677,-0.02734375,-0.953125,-0.1875
678,-0.0234375,-0.9453125,-0.18359375
679,-0.03125,-0.94140625,-0.1875
680,-0.015625,-0.953125,-0.19921875
681,-0.0390625,-0.94140625,-0.1796875
682,-0.02734375,-0.94140625,-0.20703125
683,-0.02734375,-0.95703125,-0.1796875
684,-0.03125,-0.95703125,-0.1953125
685,-0.04296875,-0.953125,-0.1875
686,-0.03515625,-0.96484375,-0.1796875
687,-0.03515625,-0.95703125,-0.1875
688,-0.02734375,-0.953125,-0.18359375
689,-0.015625,-0.9609375,-0.171875
690,-0.01953125,-0.9609375,-0.1875
691,-0.03515625,-0.953125,-0.1953125
692,-0.01953125,-0.953125,-0.17578125
693,-0.0234375,-0.95703125,-0.1953125
694,-0.015625,-0.94921875,-0.1875
695,-0.02734375,-0.94140625,-0.1796875
696,-0.03125,-0.94140625,-0.1875
697,-0.02734375,-0.94921875,-0.1875
698,-0.015625,-0.96484375,-0.17578125
699,-0.03125,-0.96484375,-0.19140625
700,-0.015625,-0.97265625,-0.1796875
701,-0.0234375,-0.95703125,-0.18359375
702,-0.02734375,-0.9609375,-0.18359375
703,-0.015625,-0.95703125,-0.19140625
704,-0.01953125,-0.95703125,-0.18359375
705,-0.0234375,-0.94921875,-0.1796875
706,-0.0390625,-0.94921875,-0.1875
707,-0.015625,-0.953125,-0.19140625
708,-0.015625,-0.96484375,-0.1875
709,-0.01953125,-0.96875,-0.19140625
710,-0.015625,-0.96484375,-0.1796875
711,-0.02734375,-0.9609375,-0.18359375
712,-0.03515625,-0.9453125,-0.1796875
713,-0.0234375,-0.953125,-0.19140625
714,-0.03515625,-0.94921875,-0.1875
715,-0.01953125,-0.96484375,-0.16796875
716,-0.01953125,-0.94921875,-0.18359375
717,-0.01953125,-0.94921875,-0.1796875
718,-0.02734375,-0.94921875,-0.16796875
719,-0.046875,-0.91015625,-0.16015625
720,-0.03125,-0.9375,-0.1875
721,-0.0234375,-0.953125,-0.171875
722,-0.0234375,-0.9453125,-0.1953125
723,-0.0390625,-0.953125,-0.19140625
724,-0.015625,-0.953125,-0.16796875
725,-0.02734375,-0.94921875,-0.1875
726,-0.01953125,-0.9609375,-0.18359375
727,-0.0234375,-0.9609375,-0.18359375
728,-0.01953125,-0.95703125,-0.17578125
729,-0.01953125,-0.95703125,-0.18359375
730,-0.02734375,-0.96875,-0.1796875
731,-0.01953125,-0.95703125,-0.17578125
732,-0.0234375,-0.9609375,-0.1640625
733,-0.02734375,-0.9453125,-0.17578125
734,-0.0390625,-0.953125,-0.1875
735,-0.03125,-0.9453125,-0.1875
736,-0.02734375,-0.9453125,-0.1796875
737,-0.0234375,-0.96484375,-0.16796875
738,-0.0234375,-0.953125,-0.16796875
739,-0.03125,-0.95703125,-0.1796875
740,-0.02734375,-0.96484375,-0.1875
741,-0.03125,-0.953125,-0.1875
742,-0.01953125,-0.94921875,-0.18359375
743,-0.02734375,-0.96484375,-0.171875
744,-0.0390625,-0.96484375,-0.16796875
745,-0.0390625,-0.96484375,-0.171875
746,-0.03125,-0.96484375,-0.16796875
747,-0.03125,-0.96484375,-0.17578125
748,-0.01953125,-0.96484375,-0.15234375
749,-0.015625,-0.97265625,-0.16796875
750,-0.01953125,-0.96875,-0.16796875
751,-0.03125,-0.97265625,-0.16796875
752,-0.02734375,-0.95703125,-0.16796875
753,-0.0390625,-0.95703125,-0.1640625
754,-0.0234375,-0.96875,-0.16015625
755,-0.015625,-0.9765625,-0.16796875
756,-0.015625,-0.96875,-0.16796875
757,-0.01953125,-0.9609375,-0.1640625
758,-0.015625,-0.98046875,-0.171875
759,-0.03125,-0.9609375,-0.1640625
760,-0.01953125,-0.9609375,-0.16015625
761,-0.01953125,-0.95703125,-0.16796875
762,-0.01953125,-0.9609375,-0.16796875
763,-0.0234375,-0.95703125,-0.16796875
764,-0.015625,-0.95703125,-0.16796875
765,-0.01953125,-0.94921875,-0.15234375
766,-0.015625,-0.94140625,-0.16015625
767,-0.0234375,-0.953125,-0.16796875
768,-0.0234375,-0.96484375,-0.16015625
769,-0.01171875,-0.97265625,-0.15625
770,-0.01171875,-0.96875,-0.13671875
771,-0.015625,-0.9765625,-0.1484375
772,-0.0234375,-0.9609375,-0.1484375
773,-0.01171875,-0.98046875,-0.16796875
774,-0.015625,-0.94921875,-0.1484375
775,-0.01171875,-0.953125,-0.15625
776,-0.0234375,-0.9375,-0.1484375
777,-0.01171875,-0.9375,-0.15234375
778,-0.0078125,-0.93359375,-0.15234375
779,-0.0078125,-0.921875,-0.140625
780,-0.0078125,-0.9375,-0.15625
781,-0.015625,-0.921875,-0.14453125
782,-0.015625,-0.9296875,-0.171875
783,-0.01171875,-0.93359375,-0.140625
784,-0.01171875,-0.93359375,-0.1640625
785,-0.015625,-0.9375,-0.16015625
786,-0.01953125,-0.92578125,-0.15625
787,-0.02734375,-0.93359375,-0.1484375
788,-0.0234375,-0.94140625,-0.15625
789,-0.03515625,-0.93359375,-0.15625
790,-0.03125,-0.921875,-0.15625
791,-0.0390625,-0.93359375,-0.1640625
792,-0.04296875,-0.921875,-0.15625
793,-0.0546875,-0.92578125,-0.16015625
794,-0.03515625,-0.94140625,-0.16015625
795,-0.046875,-0.9375,-0.1640625
796,-0.05078125,-0.9453125,-0.17578125
797,-0.0390625,-0.94921875,-0.15234375
798,-0.046875,-0.96484375,-0.1484375
799,-0.046875,-0.9609375,-0.12890625
800,-0.04296875,-0.9453125,-0.1640625
801,-0.0234375,-0.9609375,-0.15234375
802,-0.03125,-0.94921875,-0.1640625
803,-0.015625,-0.94140625,-0.15625
804,-0.0234375,-0.9453125,-0.16015625
805,-0.01953125,-0.94921875,-0.1328125
806,-0.01171875,-0.95703125,-0.16796875
807,-0.01953125,-0.94140625,-0.15625
808,-0.015625,-0.9609375,-0.171875
809,-0.015625,-0.953125,-0.171875
810,-0.0078125,-0.9609375,-0.16796875
811,-0.015625,-0.96484375,-0.16015625
812,-0.01171875,-0.9609375,-0.16015625
813,-0.01171875,-0.96484375,-0.16796875
814,-0.015625,-0.95703125,-0.16796875
815,-0.015625,-0.96484375,-0.16015625
816,-0.015625,-0.94921875,-0.15625
817,-0.015625,-0.95703125,-0.1640625
818,-0.00390625,-0.96875,-0.1640625
819,-0.015625,-0.96484375,-0.16015625
820,-0.01171875,-0.97265625,-0.171875
821,-0.0234375,-0.96484375,-0.1484375
822,-0.015625,-0.95703125,-0.1640625
823,-0.02734375,-0.95703125,-0.15234375
824,-0.03125,-0.94921875,-0.1640625
825,-0.03125,-0.9609375,-0.16015625
826,-0.03125,-0.95703125,-0.15234375
827,-0.03125,-0.953125,-0.16015625
828,-0.03515625,-0.9609375,-0.16015625
829,-0.0234375,-0.96484375,-0.15625
830,-0.01953125,-0.97265625,-0.16796875
831,-0.0234375,-0.9765625,-0.14453125
832,-0.03515625,-0.984375,-0.15234375
833,-0.015625,-0.96484375,-0.15625
834,-0.01953125,-0.96484375,-0.15625
835,-0.03515625,-0.96875,-0.15234375
836,-0.03125,-0.95703125,-0.16015625
837,-0.03125,-0.95703125,-0.1640625
838,-0.01953125,-0.94921875,-0.16796875
839,-0.03125,-0.94921875,-0.16015625
840,-0.015625,-0.9609375,-0.140625
841,-0.02734375,-0.9609375,-0.1640625
842,-0.02734375,-0.96484375,-0.15234375
843,-0.0390625,-0.953125,-0.15625
844,-0.02734375,-0.953125,-0.17578125
845,-0.01953125,-0.9609375,-0.1484375
846,-0.046875,-0.9609375,-0.16015625
847,-0.04296875,-0.95703125,-0.1484375
848,-0.03125,-0.9609375,-0.14453125
849,-0.03515625,-0.953125,-0.15625
850,-0.01953125,-0.96484375,-0.15234375
851,-0.02734375,-0.9609375,-0.15234375
852,-0.0390625,-0.9609375,-0.16015625
853,-0.03125,-0.96875,-0.15234375
854,-0.03515625,-0.95703125,-0.1484375
855,-0.0234375,-0.95703125,-0.1640625
856,-0.0390625,-0.953125,-0.1484375
857,-0.015625,-0.96484375,-0.15234375
858,-0.01953125,-0.9609375,-0.15234375
859,-0.02734375,-0.96484375,-0.15234375
860,-0.02734375,-0.9609375,-0.15625
861,-0.0390625,-0.94921875,-0.15234375
862,-0.0234375,-0.96875,-0.1640625
863,-0.0234375,-0.953125,-0.15625
864,-0.01953125,-0.94140625,-0.1484375
865,-0.015625,-0.96484375,-0.1640625
866,-0.015625,-0.96484375,-0.1484375
867,-0.015625,-0.9609375,-0.140625
868,-0.0234375,-0.94140625,-0.15625
869,-0.01953125,-0.9609375,-0.15234375
870,-0.0234375,-0.953125,-0.1640625
871,-0.0234375,-0.96484375,-0.16015625
872,-0.015625,-0.9609375,-0.14453125
873,-0.0234375,-0.94921875,-0.1484375
874,-0.03125,-0.94921875,-0.15234375
875,-0.0390625,-0.96484375,-0.14453125
876,-0.02734375,-0.953125,-0.15625
877,-0.04296875,-0.9453125,-0.15234375
878,-0.03515625,-0.94921875,-0.15625
879,-0.03125,-0.953125,-0.171875
880,-0.0390625,-0.94140625,-0.15234375
881,-0.0234375,-0.95703125,-0.171875
882,-0.03515625,-0.94140625,-0.1484375
883,-0.03125,-0.9453125,-0.1484375
884,-0.01953125,-0.9375,-0.16796875
885,-0.03125,-0.94921875,-0.15234375
886,-0.02734375,-0.953125,-0.16796875
887,-0.03515625,-0.9609375,-0.1640625
888,-0.0390625,-0.953125,-0.1640625
889,-0.03125,-0.94921875,-0.15625
890,-0.03125,-0.953125,-0.15625
891,-0.02734375,-0.95703125,-0.15234375
892,-0.0234375,-0.953125,-0.16015625
893,-0.03125,-0.9453125,-0.15625
894,-0.04296875,-0.953125,-0.15625
895,-0.015625,-0.953125,-0.16015625
896,-0.0234375,-0.953125,-0.1640625
897,-0.03125,-0.95703125,-0.16015625
898,-0.015625,-0.96484375,-0.15234375
899,-0.015625,-0.95703125,-0.15234375
900,-0.03515625,-0.9609375,-0.15625
901,-0.02734375,-0.95703125,-0.16015625
902,-0.0234375,-0.9609375,-0.16015625
903,-0.01953125,-0.94921875,-0.171875
904,-0.0390625,-0.96484375,-0.15625
905,-0.04296875,-0.95703125,-0.15625
906,-0.03125,-0.9609375,-0.16796875
907,-0.03125,-0.94921875,-0.15625
908,-0.04296875,-0.94921875,-0.16015625
909,-0.03515625,-0.95703125,-0.1484375
910,-0.0390625,-0.953125,-0.14453125
911,-0.0234375,-0.95703125,-0.15625
912,-0.02734375,-0.95703125,-0.16796875
913,-0.02734375,-0.96484375,-0.15625
914,-0.05078125,-0.953125,-0.15234375
915,-0.01953125,-0.953125,-0.1640625
916,-0.02734375,-0.95703125,-0.16015625
917,-0.04296875,-0.9609375,-0.140625
918,-0.03125,-0.96875,-0.1484375
919,-0.03125,-0.95703125,-0.16015625
920,-0.03515625,-0.953125,-0.16015625
921,-0.03125,-0.9609375,-0.1640625
922,-0.03125,-0.95703125,-0.16015625
923,-0.04296875,-0.96484375,-0.16015625
924,-0.03515625,-0.953125,-0.16796875
925,-0.0234375,-0.9609375,-0.16796875
926,-0.03125,-0.97265625,-0.15625
927,-0.03125,-0.94921875,-0.15625
928,-0.0234375,-0.9765625,-0.16796875
929,-0.015625,-0.96484375,-0.16796875
930,-0.015625,-0.9609375,-0.1640625
931,-0.01953125,-0.9609375,-0.1484375
932,-0.02734375,-0.97265625,-0.15625
933,-0.0234375,-0.96875,-0.15625
934,-0.01953125,-0.97265625,-0.1484375
935,-0.015625,-0.96875,-0.16796875
936,-0.0078125,-0.9765625,-0.15625
937,-0.02734375,-0.96484375,-0.1484375
938,-0.02734375,-0.96484375,-0.171875
939,-0.015625,-0.95703125,-0.16796875
940,-0.015625,-0.96875,-0.16796875
941,-0.0234375,-0.96484375,-0.140625
942,-0.02734375,-0.96484375,-0.17578125
943,-0.0234375,-0.96484375,-0.15234375
944,-0.02734375,-0.9609375,-0.1640625
945,-0.0234375,-0.96875,-0.15234375
946,-0.01953125,-0.96875,-0.16796875
947,-0.02734375,-0.9609375,-0.171875
948,-0.03125,-0.95703125,-0.15625
949,-0.01171875,-0.96484375,-0.1640625
950,-0.01953125,-0.95703125,-0.17578125
951,-0.015625,-0.96484375,-0.1640625
952,-0.01953125,-0.9609375,-0.171875
953,-0.0234375,-0.96484375,-0.16796875
954,-0.01953125,-0.9765625,-0.16796875
955,-0.0234375,-0.96875,-0.16015625
956,-0.015625,-0.9765625,-0.1640625
957,-0.01171875,-0.98046875,-0.16015625
958,-0.015625,-0.984375,-0.1640625
959,-0.01953125,-0.9765625,-0.15625
960,-0.015625,-0.9921875,-0.16796875
961,-0.015625,-0.984375,-0.16796875
962,-0.015625,-0.98046875,-0.171875
963,-0.01171875,-0.98046875,-0.1640625
964,-0.01171875,-0.98046875,-0.16796875
965,-0.00390625,-0.9765625,-0.171875
966,-0.0078125,-0.98046875,-0.1640625
967,-0.01171875,-0.96875,-0.1640625
968,-0.015625,-0.96875,-0.171875
969,-0.015625,-0.95703125,-0.1875
970,-0.01171875,-0.9609375,-0.1796875
971,-0.01171875,-0.953125,-0.18359375
972,-0.0078125,-0.94921875,-0.1640625
973,-0.015625,-0.94921875,-0.17578125
974,-0.0078125,-0.953125,-0.17578125
975,-0.01171875,-0.9609375,-0.1796875
976,-0.015625,-0.95703125,-0.17578125
977,-0.01171875,-0.9609375,-0.19140625
978,-0.0078125,-0.96875,-0.171875
979,-0.01171875,-0.9453125,-0.1953125
980,-0.015625,-0.94921875,-0.171875
981,-0.015625,-0.95703125,-0.1953125
982,0.0078125,-0.94921875,-0.18359375
983,-0.0078125,-0.93359375,-0.19921875
984,-0.0078125,-0.9296875,-0.1953125
985,-0.0078125,-0.92578125,-0.203125
986,-0.0078125,-0.92578125,-0.203125
987,-0.015625,-0.921875,-0.203125
988,0.01171875,-0.94921875,-0.28125
989,0.0,-0.9296875,-0.2109375
990,-0.0078125,-0.92578125,-0.20703125
991,-0.01171875,-0.9375,-0.203125
992,0.0,-0.9296875,-0.19921875
993,0.0,-0.91796875,-0.19921875
994,0.00390625,-0.91015625,-0.21484375
995,-0.0078125,-0.9140625,-0.20703125
996,0.0078125,-0.90625,-0.2109375
997,0.015625,-0.90234375,-0.203125
998,0.0078125,-0.8984375,-0.1953125
999,0.015625,-0.8984375,-0.2109375
1000,0.015625,-0.890625,-0.19921875
1001,0.01171875,-0.89453125,-0.19921875
1002,0.01171875,-0.8671875,-0.19140625
1003,0.01171875,-0.86328125,-0.1875
1004,0.015625,-0.859375,-0.19921875
1005,0.03125,-0.85546875,-0.1875
1006,0.03125,-0.83203125,-0.1796875
1007,0.02734375,-0.81640625,-0.16796875
1008,0.0234375,-0.8046875,-0.18359375
1009,0.02734375,-0.78125,-0.18359375
1010,0.03515625,-0.76953125,-0.171875
1011,0.03125,-0.75,-0.203125
1012,0.046875,-0.73828125,-0.19140625
1013,0.05859375,-0.71484375,-0.1953125
1014,0.08203125,-0.69921875,-0.1953125
1015,0.08203125,-0.66015625,-0.18359375
1016,0.078125,-0.64453125,-0.171875
1017,0.08984375,-0.6484375,-0.15625
1018,0.07421875,-0.62109375,-0.14453125
1019,0.05078125,-0.58984375,-0.140625
1020,0.04296875,-0.56640625,-0.10546875
1021,0.03515625,-0.56640625,-0.1015625
1022,0.00390625,-0.54296875,-0.1015625
1023,-0.00390625,-0.515625,-0.08984375
1024,-0.01171875,-0.5078125,-0.09375
1025,-0.046875,-0.49609375,-0.10546875
1026,-0.0703125,-0.47265625,-0.10546875
1027,-0.0703125,-0.453125,-0.09375
1028,-0.08203125,-0.4609375,-0.1015625
1029,-0.08203125,-0.46484375,-0.10546875
1030,-0.1015625,-0.47265625,-0.08203125
1031,-0.12109375,-0.45703125,-0.1015625
1032,-0.125,-0.47265625,-0.03515625
1033,-0.14453125,-0.49609375,-0.03125
1034,-0.12109375,-0.51171875,-0.0390625
1035,-0.1015625,-0.53515625,-0.01171875
1036,-0.078125,-0.61328125,0.01171875
1037,-0.0703125,-0.65234375,0.0234375
1038,-0.0703125,-0.703125,0.0390625
1039,-0.05859375,-0.75,0.078125
1040,-0.0390625,-0.8125,0.06640625
1041,-0.0234375,-0.8671875,0.09765625
1042,-0.02734375,-0.9609375,0.0859375
1043,-0.0078125,-1.02734375,0.1328125
1044,0.0078125,-1.09375,0.1484375
1045,0.02734375,-1.13671875,0.15625
1046,0.02734375,-1.18359375,0.15234375
1047,0.01953125,-1.21484375,0.1015625
1048,0.01953125,-1.24609375,0.0859375
1049,0.02734375,-1.2421875,0.03515625
1050,0.00390625,-1.2421875,-0.00390625
1051,-0.01171875,-1.2265625,-0.02734375
1052,-0.015625,-1.22265625,-0.03125
1053,-0.01171875,-1.21484375,-0.046875
1054,0.00390625,-1.2109375,-0.02734375
1055,0.02734375,-1.2265625,-0.0234375
1056,0.0390625,-1.24609375,0.0
1057,0.0546875,-1.30078125,0.03515625
1058,0.04296875,-1.3515625,0.0625
1059,0.04296875,-1.4296875,0.04296875
1060,0.0390625,-1.50390625,0.05078125
1061,0.015625,-1.5625,0.06640625
1062,-0.015625,-1.625,0.0625
1063,-0.03125,-1.68359375,0.078125
1064,-0.0625,-1.7265625,0.0625
1065,-0.08203125,-1.75390625,0.05859375
1066,-0.0859375,-1.7890625,0.01171875
1067,-0.1015625,-1.8515625,-0.04296875
1068,-0.12109375,-1.8671875,-0.13671875
1069,-0.09765625,-1.9453125,-0.19140625
1070,-0.07421875,-1.98828125,-0.25
1071,-0.05078125,-2.0546875,-0.30859375
1072,-0.015625,-2.14453125,-0.3828125
1073,0.03515625,-2.25390625,-0.4140625
1074,0.0625,-2.328125,-0.44140625
1075,0.08203125,-2.4375,-0.44140625
1076,0.0859375,-2.5546875,-0.3984375
1077,0.1171875,-2.6796875,-0.33203125
1078,0.12109375,-2.80078125,-0.2890625
1079,0.1171875,-2.875,-0.2578125
1080,0.1171875,-2.92578125,-0.23046875
1081,0.12890625,-2.95703125,-0.21875
1082,0.1328125,-2.91015625,-0.24609375
1083,0.1484375,-2.8203125,-0.32421875
1084,0.15234375,-2.7109375,-0.34765625
1085,0.14453125,-2.60546875,-0.39453125
1086,0.13671875,-2.4921875,-0.421875
1087,0.11328125,-2.359375,-0.421875
1088,0.078125,-2.22265625,-0.421875
1089,0.07421875,-2.125,-0.41015625
1090,0.04296875,-1.9921875,-0.453125
1091,0.01953125,-1.83203125,-0.46484375
1092,0.00390625,-1.69140625,-0.4921875
1093,-0.015625,-1.52734375,-0.4921875
1094,-0.015625,-1.41015625,-0.5078125
1095,-0.0234375,-1.25,-0.51953125
1096,-0.0078125,-1.08203125,-0.4609375
1097,-0.015625,-0.90625,-0.45703125
1098,-0.0078125,-0.73046875,-0.39453125
1099,0.01171875,-0.625,-0.35546875
1100,0.03515625,-0.49609375,-0.28515625
1101,0.0390625,-0.37890625,-0.19140625
1102,0.05078125,-0.2890625,-0.11328125
1103,0.046875,-0.203125,-0.03125
1104,0.0546875,-0.15234375,0.01953125
1105,0.06640625,-0.05859375,0.06640625
1106,0.07421875,0.03125,0.12109375
1107,0.07421875,0.11328125,0.078125
1108,0.06640625,0.21484375,0.01171875
1109,0.05078125,0.28515625,-0.05859375
1110,0.0390625,0.3984375,-0.1640625
1111,-0.01953125,0.4921875,-0.2890625
1112,-0.07421875,0.546875,-0.41796875
1113,-0.13671875,0.609375,-0.4765625
1114,-0.1640625,0.66796875,-0.4921875
1115,-0.171875,0.75,-0.421875
1116,-0.171875,0.66796875,-0.46875
1117,-0.125,0.6171875,-0.4140625
1118,-0.08203125,0.44921875,-0.3359375
1119,-0.03515625,0.26171875,-0.2578125
1120,-0.015625,0.06640625,-0.15625
1121,-0.02734375,-0.125,-0.05078125
1122,-0.05859375,-0.3046875,0.0234375
1123,-0.07421875,-0.4140625,0.0625
1124,-0.08984375,-0.51171875,0.12109375
1125,-0.078125,-0.58984375,0.15234375
1126,-0.08203125,-0.60546875,0.15234375
1127,-0.06640625,-0.5625,0.12109375
1128,-0.046875,-0.5,0.08984375
1129,-0.05859375,-0.4140625,0.046875
1130,-0.0546875,-0.28125,0.015625
1131,-0.05078125,-0.17578125,-0.0078125
1132,-0.03125,-0.08984375,-0.03515625
1133,-0.01953125,0.0078125,-0.06640625
1134,-0.00390625,0.08984375,-0.0703125
1135,-0.00390625,0.1640625,-0.08203125
1136,0.01953125,0.21484375,-0.08984375
1137,0.015625,0.23828125,-0.08203125
1138,0.03125,0.234375,-0.0546875
1139,0.0546875,0.23046875,-0.0625
1140,0.05078125,0.1953125,-0.01953125
1141,0.05859375,0.16796875,0.00390625
1142,0.04296875,0.14453125,0.00390625
1143,0.015625,0.11328125,0.0390625
1144,-0.00390625,0.08203125,0.046875
1145,-0.00390625,0.078125,0.046875
1146,-0.015625,0.05078125,0.01953125
1147,-0.015625,0.05859375,0.01953125
1148,-0.01953125,0.03125,0.01953125
1149,-0.01953125,0.015625,0.015625
1150,-0.0234375,0.00390625,0.01953125
1151,-0.0234375,0.00390625,0.02734375
1152,-0.0546875,0.015625,0.01953125
1153,-0.0546875,0.015625,0.01953125
1154,-0.046875,0.01953125,-0.0078125
1155,-0.05078125,0.01953125,-0.01953125
1156,-0.04296875,0.01953125,-0.0234375
1157,-0.078125,0.05859375,-0.03515625
1158,-0.04296875,0.08203125,-0.1015625
1159,0.0234375,0.125,-0.2890625
1160,0.0234375,0.08984375,-0.48828125
1161,-0.015625,-0.00390625,-0.5390625
1162,-0.06640625,-0.2265625,-0.5234375
1163,-0.03125,-0.5078125,-0.46875
1164,0.0,-0.79296875,-0.40625
1165,-0.015625,-1.02734375,-0.4140625
1166,-0.0625,-1.20703125,-0.44921875
1167,-0.17578125,-1.390625,-0.5625
1168,-0.26953125,-1.625,-0.6640625
1169,-0.29296875,-1.90625,-0.6953125
1170,-0.21875,-2.26171875,-0.64453125
1171,-0.1015625,-2.52734375,-0.5625
1172,-0.015625,-2.8671875,-0.38671875
1173,0.01171875,-3.109375,-0.14453125
1174,-0.01171875,-3.24609375,0.1015625
1175,-0.1796875,-3.22265625,0.2578125
1176,-0.22265625,-2.9921875,0.35546875
1177,-0.08984375,-2.7109375,0.25
1178,0.10546875,-2.359375,0.02734375
1179,0.2265625,-2.0,-0.19921875
1180,0.25390625,-1.74609375,-0.35546875
1181,0.16015625,-1.46484375,-0.5
1182,0.0,-1.25,-0.55078125
1183,-0.13671875,-1.14453125,-0.5546875
1184,-0.171875,-1.18359375,-0.55078125
1185,-0.1015625,-1.33203125,-0.5546875
1186,-0.0703125,-1.54296875,-0.5625
1187,-0.05078125,-1.81640625,-0.53515625
1188,-0.078125,-2.0859375,-0.46484375
1189,-0.078125,-2.35546875,-0.390625
1190,-0.08203125,-2.5390625,-0.28125
1191,-0.03515625,-2.76171875,-0.109375
1192,-0.015625,-2.8828125,0.08203125
1193,0.00390625,-2.859375,0.23828125
1194,0.015625,-2.68359375,0.3125
1195,0.04296875,-2.4921875,0.33203125
1196,0.09375,-2.2109375,0.28515625
1197,0.16015625,-1.90234375,0.19140625
1198,0.15625,-1.546875,0.08203125
1199,0.15234375,-1.23828125,-0.0390625
1200,0.140625,-1.00390625,-0.12109375
1201,0.1171875,-0.71875,-0.2265625
1202,0.08203125,-0.484375,-0.3203125
1203,0.05859375,-0.3125,-0.40234375
1204,0.0390625,-0.2265625,-0.43359375
1205,0.01953125,-0.1640625,-0.4453125
1206,0.00390625,-0.1484375,-0.421875
1207,-0.00390625,-0.19140625,-0.3828125
1208,-0.02734375,-0.25,-0.328125
1209,-0.0546875,-0.328125,-0.3203125
1210,-0.0546875,-0.40625,-0.28125
1211,-0.09375,-0.4921875,-0.26171875
1212,-0.09375,-0.5546875,-0.23046875
1213,-0.109375,-0.62109375,-0.203125
1214,-0.11328125,-0.66015625,-0.203125
1215,-0.09375,-0.7265625,-0.18359375
1216,-0.08203125,-0.78125,-0.15625
1217,-0.078125,-0.8046875,-0.1328125
1218,-0.09765625,-0.8046875,-0.109375
1219,-0.08984375,-0.7890625,-0.11328125
1220,-0.07421875,-0.76171875,-0.109375
1221,-0.05859375,-0.7578125,-0.10546875
1222,-0.0234375,-0.72265625,-0.12109375
1223,-0.015625,-0.70703125,-0.1171875
1224,-0.015625,-0.6953125,-0.13671875
1225,-0.015625,-0.6875,-0.1171875
1226,-0.015625,-0.671875,-0.1328125
1227,-0.015625,-0.65625,-0.1484375
1228,-0.01953125,-0.65625,-0.14453125
1229,-0.03125,-0.65234375,-0.1484375
1230,-0.04296875,-0.65234375,-0.15234375
1231,-0.0390625,-0.6875,-0.1640625
1232,-0.05078125,-0.73046875,-0.15625
1233,-0.0625,-0.75,-0.1640625
1234,-0.05078125,-0.8046875,-0.16796875
1235,-0.05859375,-0.87109375,-0.16015625
1236,-0.0390625,-0.94140625,-0.15625
1237,-0.02734375,-1.0,-0.171875
1238,-0.03125,-1.0390625,-0.15234375
1239,-0.03125,-1.08203125,-0.140625
1240,-0.0234375,-1.11328125,-0.15625
1241,-0.015625,-1.1484375,-0.140625
1242,-0.015625,-1.16796875,-0.1484375
1243,-0.03125,-1.14453125,-0.15234375
1244,-0.03515625,-1.12890625,-0.15625
1245,-0.02734375,-1.1328125,-0.16796875
1246,-0.046875,-1.10546875,-0.171875
1247,-0.015625,-1.14453125,-0.171875
1248,-0.01171875,-1.08984375,-0.171875
1249,0.0078125,-1.08984375,-0.17578125
1250,0.01171875,-1.0703125,-0.16796875
1251,0.0390625,-1.05859375,-0.1875
1252,0.04296875,-1.0625,-0.18359375
1253,0.046875,-1.0703125,-0.1875
1254,0.03515625,-1.05859375,-0.19140625
1255,0.05078125,-1.08203125,-0.19921875
1256,0.03125,-1.0859375,-0.1796875
1257,0.02734375,-1.0859375,-0.19140625
1258,0.0234375,-1.0859375,-0.18359375
1259,-0.00390625,-1.09765625,-0.1953125
1260,-0.01171875,-1.08984375,-0.16796875
1261,-0.01171875,-1.0625,-0.17578125
1262,-0.01171875,-1.0625,-0.15234375
1263,-0.015625,-1.02734375,-0.17578125
1264,-0.015625,-0.99609375,-0.1796875
1265,-0.0078125,-0.97265625,-0.1875
1266,-0.01171875,-0.94921875,-0.19140625
1267,-0.00390625,-0.92578125,-0.18359375
1268,0.00390625,-0.890625,-0.1875
1269,0.00390625,-0.87109375,-0.171875
1270,0.02734375,-0.859375,-0.17578125
1271,0.01953125,-0.82421875,-0.1875
1272,0.0234375,-0.82421875,-0.1796875
1273,0.01171875,-0.796875,-0.1796875
1274,0.0234375,-0.8125,-0.1875
1275,0.015625,-0.7890625,-0.1796875
1276,0.015625,-0.796875,-0.18359375
1277,0.01953125,-0.80859375,-0.1796875
1278,0.00390625,-0.8203125,-0.16796875
1279,0.01953125,-0.82421875,-0.16796875
1280,0.015625,-0.8515625,-0.15234375
1281,0.02734375,-0.859375,-0.16015625
1282,0.015625,-0.8828125,-0.140625
1283,0.01953125,-0.8984375,-0.15234375
1284,0.0078125,-0.921875,-0.1640625
1285,-0.00390625,-0.9296875,-0.15625
1286,0.0,-0.9296875,-0.16015625
1287,0.00390625,-0.94140625,-0.15234375
1288,-0.00390625,-0.9453125,-0.1640625
1289,0.0,-0.9375,-0.1484375
1290,-0.01171875,-0.9375,-0.15234375
1291,-0.0078125,-0.92578125,-0.15234375
1292,-0.01171875,-0.9140625,-0.16015625
1293,-0.015625,-0.921875,-0.16015625
1294,-0.015625,-0.8984375,-0.1640625
1295,-0.02734375,-0.91015625,-0.16796875
1296,-0.015625,-0.9140625,-0.17578125
1297,-0.02734375,-0.94140625,-0.18359375
1298,-0.0234375,-0.953125,-0.17578125
1299,-0.01953125,-0.984375,-0.1796875
1300,-0.03125,-0.98828125,-0.1796875
1301,-0.03125,-0.99609375,-0.16796875
1302,-0.03515625,-0.9921875,-0.140625
1303,-0.0234375,-1.0234375,-0.16015625
1304,-0.015625,-1.01171875,-0.171875
1305,-0.02734375,-1.00390625,-0.1796875
1306,-0.015625,-1.0078125,-0.18359375
1307,-0.015625,-1.0,-0.18359375
1308,-0.03125,-0.98046875,-0.21875
1309,-0.0078125,-0.9765625,-0.203125
1310,-0.015625,-0.96484375,-0.21484375
1311,-0.015625,-0.93359375,-0.20703125
1312,-0.0234375,-0.921875,-0.2421875
1313,-0.01171875,-0.9140625,-0.234375
1314,-0.0234375,-0.91015625,-0.23828125
1315,-0.00390625,-0.91015625,-0.2109375
1316,-0.015625,-0.89453125,-0.234375
1317,-0.015625,-0.89453125,-0.24609375
1318,-0.01171875,-0.890625,-0.23828125
1319,-0.00390625,-0.90625,-0.22265625
1320,-0.015625,-0.91015625,-0.21875
1321,-0.0078125,-0.9375,-0.23046875
1322,0.00390625,-0.94921875,-0.2265625
1323,-0.00390625,-0.94921875,-0.21875
1324,-0.01171875,-0.953125,-0.2265625
1325,0.01953125,-0.95703125,-0.21875
1326,-0.015625,-0.93359375,-0.22265625
1327,-0.0078125,-0.94140625,-0.21875
1328,-0.01171875,-0.9375,-0.21875
1329,-0.00390625,-0.9375,-0.21875
1330,-0.02734375,-0.93359375,-0.2109375
1331,-0.03125,-0.9453125,-0.2109375
1332,-0.02734375,-0.9375,-0.20703125
1333,-0.05859375,-0.9453125,-0.16796875
1334,-0.05078125,-0.95703125,-0.1875
1335,-0.07421875,-0.9453125,-0.19140625
1336,-0.0703125,-0.95703125,-0.21484375
1337,-0.0859375,-0.94140625,-0.20703125
1338,-0.08984375,-0.94921875,-0.21875
1339,-0.09375,-0.95703125,-0.19921875
1340,-0.09375,-0.9609375,-0.23046875
1341,-0.08984375,-0.97265625,-0.203125
1342,-0.078125,-0.98828125,-0.19921875
1343,-0.06640625,-1.0078125,-0.1953125
1344,-0.0625,-1.01171875,-0.203125
1345,-0.05859375,-1.015625,-0.20703125
1346,-0.04296875,-1.0234375,-0.203125
1347,-0.05078125,-1.015625,-0.2265625
1348,-0.04296875,-1.00390625,-0.203125
1349,-0.01953125,-1.00390625,-0.21875
1350,-0.02734375,-1.0,-0.2109375
1351,-0.0390625,-0.98046875,-0.2109375
1352,-0.04296875,-0.98046875,-0.2265625
1353,-0.0234375,-0.97265625,-0.23828125
1354,-0.0390625,-0.953125,-0.234375
1355,-0.0390625,-0.953125,-0.2421875
1356,-0.02734375,-0.96484375,-0.2578125
1357,-0.03125,-0.97265625,-0.2421875
1358,-0.046875,-0.97265625,-0.23046875
1359,-0.046875,-0.9765625,-0.2265625
1360,-0.03515625,-0.98046875,-0.21484375
1361,-0.046875,-0.9765625,-0.21484375
1362,-0.05078125,-0.98046875,-0.23046875
1363,-0.046875,-0.984375,-0.2109375
1364,-0.04296875,-0.98046875,-0.21875
1365,-0.03125,-0.95703125,-0.21484375
1366,-0.0390625,-0.953125,-0.203125
1367,-0.02734375,-0.96484375,-0.19140625
1368,-0.015625,-0.9609375,-0.19921875
1369,-0.01953125,-0.9609375,-0.21484375
1370,-0.01953125,-0.96484375,-0.2109375
1371,0.00390625,-0.953125,-0.21875
1372,-0.00390625,-0.9375,-0.22265625
1373,0.00390625,-0.94140625,-0.21875
1374,0.00390625,-0.94140625,-0.21484375
1375,0.0,-0.9375,-0.22265625
1376,-0.00390625,-0.9296875,-0.203125
1377,-0.00390625,-0.94140625,-0.21875
1378,0.0,-0.9609375,-0.21875
1379,-0.015625,-0.94140625,-0.2109375
1380,-0.0078125,-0.94140625,-0.20703125
1381,-0.0078125,-0.9453125,-0.21484375
1382,-0.01171875,-0.94921875,-0.19921875
1383,-0.015625,-0.9296875,-0.21875
1384,-0.01953125,-0.94140625,-0.21875
1385,-0.03125,-0.92578125,-0.21875
1386,-0.0390625,-0.921875,-0.203125
1387,-0.0390625,-0.91796875,-0.22265625
1388,-0.046875,-0.92578125,-0.22265625
1389,-0.0390625,-0.91796875,-0.21484375
1390,-0.046875,-0.92578125,-0.21875
1391,-0.03515625,-0.9375,-0.21875
1392,-0.03515625,-0.93359375,-0.21875
1393,-0.046875,-0.9453125,-0.21875
1394,-0.03515625,-0.92578125,-0.21875
1395,-0.04296875,-0.94140625,-0.21875
1396,-0.0390625,-0.953125,-0.203125
1397,-0.01953125,-0.97265625,-0.2109375
1398,-0.015625,-0.97265625,-0.20703125
1399,-0.015625,-0.95703125,-0.2109375
1400,-0.02734375,-0.95703125,-0.2109375
1401,-0.03515625,-0.9609375,-0.21875
1402,-0.01953125,-0.9453125,-0.22265625
1403,-0.0234375,-0.94921875,-0.22265625
1404,-0.04296875,-0.9375,-0.2265625
1405,-0.03125,-0.94140625,-0.23828125
1406,-0.0390625,-0.9375,-0.21875
1407,-0.05078125,-0.9453125,-0.21875
1408,-0.04296875,-0.94140625,-0.20703125
1409,-0.046875,-0.94140625,-0.22265625
1410,-0.0390625,-0.94140625,-0.203125
1411,-0.03515625,-0.95703125,-0.21875
1412,-0.01953125,-0.95703125,-0.21484375
1413,-0.01953125,-0.9453125,-0.21875
1414,-0.015625,-0.953125,-0.2109375
1415,-0.015625,-0.953125,-0.22265625
1416,-0.015625,-0.9609375,-0.20703125
1417,-0.015625,-0.94140625,-0.22265625
1418,-0.015625,-0.94921875,-0.2109375
1419,-0.015625,-0.92578125,-0.21484375
1420,-0.015625,-0.94140625,-0.2109375
1421,-0.0234375,-0.9453125,-0.2265625
1422,-0.01953125,-0.95703125,-0.2109375
1423,-0.01171875,-0.9609375,-0.21875
1424,-0.015625,-0.96484375,-0.21484375
1425,-0.02734375,-0.95703125,-0.203125
1426,-0.01953125,-0.9609375,-0.22265625
1427,-0.01953125,-0.95703125,-0.20703125
1428,-0.03125,-0.953125,-0.20703125
1429,-0.015625,-0.953125,-0.21875
1430,-0.01953125,-0.95703125,-0.20703125
1431,-0.015625,-0.953125,-0.21875
1432,-0.015625,-0.953125,-0.20703125
1433,-0.0234375,-0.9453125,-0.234375
1434,-0.015625,-0.94921875,-0.20703125
1435,-0.0234375,-0.93359375,-0.21875
1436,-0.02734375,-0.953125,-0.21875
1437,-0.01953125,-0.94921875,-0.21875
1438,-0.015625,-0.9453125,-0.20703125
1439,-0.01953125,-0.94921875,-0.21484375
1440,-0.015625,-0.9453125,-0.21484375
1441,-0.015625,-0.953125,-0.20703125
1442,-0.015625,-0.9296875,-0.21484375
1443,-0.015625,-0.95703125,-0.21875
1444,-0.03125,-0.94140625,-0.19921875
1445,-0.03125,-0.953125,-0.2109375
1446,-0.01953125,-0.94140625,-0.22265625
1447,-0.0234375,-0.96484375,-0.22265625
1448,-0.0390625,-0.93359375,-0.2265625
1449,-0.02734375,-0.93359375,-0.23046875
1450,-0.0234375,-0.953125,-0.2265625
1451,-0.01953125,-0.93359375,-0.23046875
1452,-0.02734375,-0.9375,-0.22265625
1453,-0.02734375,-0.921875,-0.22265625
1454,-0.02734375,-0.9375,-0.22265625
1455,-0.02734375,-0.9609375,-0.21875
1456,-0.0390625,-0.9453125,-0.2265625
1457,-0.015625,-0.94140625,-0.22265625
1458,-0.015625,-0.95703125,-0.21484375
1459,-0.02734375,-0.953125,-0.20703125
1460,-0.015625,-0.94921875,-0.22265625
1461,-0.01953125,-0.95703125,-0.21875
1462,-0.03125,-0.95703125,-0.21875
1463,-0.0234375,-0.92578125,-0.26171875
1464,-0.01953125,-0.94140625,-0.22265625
1465,-0.015625,-0.94921875,-0.21875
1466,-0.03125,-0.953125,-0.21484375
1467,-0.02734375,-0.95703125,-0.22265625
1468,-0.0234375,-0.9453125,-0.2109375
1469,-0.02734375,-0.9453125,-0.21875
1470,-0.0234375,-0.95703125,-0.2265625
1471,-0.0390625,-0.94921875,-0.21484375
1472,-0.03125,-0.94140625,-0.2265625
1473,-0.03515625,-0.9375,-0.22265625
1474,-0.02734375,-0.9453125,-0.21484375
1475,-0.03125,-0.9375,-0.2265625
1476,-0.0234375,-0.92578125,-0.1953125
1477,-0.0234375,-0.96875,-0.25390625
1478,-0.02734375,-0.9453125,-0.21875
1479,-0.0234375,-0.95703125,-0.2109375
1480,-0.01953125,-0.96875,-0.21875
1481,-0.0234375,-0.95703125,-0.23046875
1482,-0.01953125,-0.95703125,-0.21484375
1483,-0.0234375,-0.95703125,-0.2109375
1484,-0.03515625,-0.9453125,-0.20703125
1485,-0.015625,-0.97265625,-0.21875
1486,-0.02734375,-0.94140625,-0.22265625
1487,-0.02734375,-0.9375,-0.21484375
1488,-0.0390625,-0.94140625,-0.22265625
1489,-0.02734375,-0.94140625,-0.22265625
1490,-0.03515625,-0.9375,-0.21484375
1491,-0.01171875,-0.9296875,-0.20703125
1492,-0.01953125,-0.9453125,-0.19921875
1493,-0.015625,-0.95703125,-0.21484375
1494,-0.01953125,-0.953125,-0.2109375
1495,-0.01953125,-0.94140625,-0.21484375
1496,-0.01171875,-0.95703125,-0.20703125
1497,-0.015625,-0.97265625,-0.21484375
1498,-0.01171875,-0.95703125,-0.19921875
1499,-0.0078125,-0.96484375,-0.1953125
1500,-0.01171875,-0.94140625,-0.20703125
1501,-0.015625,-0.96484375,-0.21875
1502,-0.01171875,-0.953125,-0.21875
1503,-0.015625,-0.94921875,-0.21875
1504,-0.015625,-0.94140625,-0.21484375
1505,-0.0078125,-0.94921875,-0.22265625
1506,-0.015625,-0.9375,-0.21484375
1507,-0.015625,-0.953125,-0.21484375
1508,-0.01953125,-0.9609375,-0.203125
1509,-0.0234375,-0.96484375,-0.1953125
1510,-0.015625,-0.95703125,-0.19921875
1511,-0.0234375,-0.96484375,-0.20703125
1512,-0.02734375,-0.984375,-0.19921875
1513,-0.015625,-0.98828125,-0.17578125
1514,-0.02734375,-0.9921875,-0.16796875
1515,-0.01953125,-1.0,-0.18359375
1516,-0.015625,-1.0078125,-0.1875
1517,-0.015625,-1.0078125,-0.1875
1518,-0.015625,-1.00390625,-0.171875
1519,-0.01953125,-0.9921875,-0.1796875
1520,-0.03125,-0.97265625,-0.171875
1521,-0.0234375,-0.98046875,-0.1796875
1522,-0.02734375,-0.9609375,-0.16015625
1523,-0.015625,-0.953125,-0.171875
1524,-0.0234375,-0.953125,-0.18359375
1525,-0.04296875,-0.94921875,-0.18359375
1526,-0.0390625,-0.92578125,-0.16796875
1527,-0.0390625,-0.93359375,-0.16796875
1528,-0.0390625,-0.93359375,-0.1640625
1529,-0.02734375,-0.94140625,-0.1640625
1530,-0.03125,-0.9375,-0.16796875
1531,-0.0234375,-0.93359375,-0.16796875
1532,-0.01953125,-0.953125,-0.16015625
1533,-0.015625,-0.953125,-0.16796875
1534,-0.015625,-0.96875,-0.16015625
1535,-0.0078125,-0.96484375,-0.16015625
1536,-0.0078125,-0.97265625,-0.15625
1537,-0.01171875,-0.97265625,-0.16015625
1538,-0.0078125,-0.97265625,-0.15234375
1539,-0.01171875,-0.97265625,-0.15625
1540,-0.015625,-0.9609375,-0.16015625
1541,-0.01171875,-0.9609375,-0.171875
1542,-0.01171875,-0.95703125,-0.1640625
1543,-0.015625,-0.9609375,-0.1640625
1544,-0.015625,-0.9609375,-0.14453125
1545,-0.01953125,-0.9453125,-0.1640625
1546,-0.015625,-0.953125,-0.14453125
1547,-0.015625,-0.95703125,-0.15234375
1548,-0.01953125,-0.95703125,-0.14453125
1549,-0.01953125,-0.94140625,-0.16015625
1550,-0.01953125,-0.94921875,-0.14453125
1551,-0.015625,-0.9453125,-0.1328125
1552,-0.015625,-0.9453125,-0.1328125
1553,-0.015625,-0.94921875,-0.13671875
1554,-0.01171875,-0.95703125,-0.12890625
1555,-0.0078125,-0.9609375,-0.11328125
1556,-0.01171875,-0.96484375,-0.1328125
1557,-0.01171875,-0.95703125,-0.140625
1558,-0.01171875,-0.953125,-0.1484375
1559,-0.0078125,-0.9609375,-0.1484375
1560,-0.01171875,-0.9609375,-0.1484375
1561,-0.015625,-0.9609375,-0.14453125
1562,-0.0234375,-0.9609375,-0.15234375
1563,-0.01953125,-0.9609375,-0.16796875
1564,-0.015625,-0.96484375,-0.1484375
1565,-0.01171875,-0.96875,-0.13671875
1566,0.0,-0.9609375,-0.1640625
1567,-0.0078125,-0.97265625,-0.17578125
1568,-0.01171875,-0.98046875,-0.17578125
1569,-0.0078125,-1.0,-0.171875
1570,-0.01171875,-0.98046875,-0.16796875
1571,-0.015625,-0.984375,-0.16015625
1572,-0.01953125,-0.984375,-0.140625
1573,-0.01171875,-0.96875,-0.13671875
1574,-0.01171875,-0.96484375,-0.14453125
1575,-0.015625,-0.95703125,-0.1328125
1576,-0.01171875,-0.94921875,-0.14453125
1577,-0.01171875,-0.953125,-0.13671875
1578,-0.00390625,-0.9765625,-0.14453125
1579,0.0,-0.984375,-0.16015625
1580,0.0,-0.99609375,-0.15234375
1581,0.0,-1.0078125,-0.14453125
1582,-0.015625,-1.00390625,-0.1328125
1583,-0.02734375,-1.01171875,-0.140625
1584,-0.03125,-1.00390625,-0.1328125
1585,-0.03515625,-1.00390625,-0.15625
1586,-0.0234375,-1.0,-0.171875
1587,-0.01953125,-1.0,-0.1796875
1588,-0.0234375,-0.98828125,-0.203125
1589,-0.0078125,-0.97265625,-0.22265625
1590,-0.01171875,-0.97265625,-0.22265625
1591,0.0234375,-0.95703125,-0.2421875
1592,0.015625,-0.9453125,-0.25
1593,0.02734375,-0.94140625,-0.234375
1594,0.0546875,-0.93359375,-0.23046875
1595,0.0625,-0.9375,-0.1953125
1596,0.06640625,-0.91015625,-0.15234375
1597,0.06640625,-0.890625,-0.1328125
1598,0.0625,-0.859375,-0.125
1599,0.05078125,-0.82421875,-0.09765625
1600,0.05078125,-0.7734375,-0.09765625
1601,0.03125,-0.73046875,-0.09765625
1602,0.015625,-0.67578125,-0.09375
1603,0.015625,-0.65625,-0.078125
1604,0.00390625,-0.6015625,-0.08984375
1605,0.01171875,-0.54296875,-0.10546875
1606,0.0,-0.4921875,-0.11328125
1607,-0.01171875,-0.4375,-0.12890625
1608,-0.01953125,-0.40234375,-0.13671875
1609,-0.05859375,-0.34375,-0.12890625
1610,-0.10546875,-0.296875,-0.1171875
1611,-0.18359375,-0.23828125,-0.11328125
1612,-0.2109375,-0.21484375,-0.08984375
1613,-0.2421875,-0.1875,-0.06640625
1614,-0.2734375,-0.14453125,-0.03515625
1615,-0.28515625,-0.12890625,-0.0390625
1616,-0.296875,-0.13671875,-0.02734375
1617,-0.296875,-0.140625,-0.0234375
1618,-0.28125,-0.15234375,-0.015625
1619,-0.23046875,-0.203125,-0.01953125
1620,-0.16796875,-0.234375,-0.0234375
1621,-0.109375,-0.29296875,-0.03125
1622,-0.0546875,-0.34765625,-0.01953125
1623,-0.015625,-0.41796875,-0.01171875
1624,0.0078125,-0.49609375,0.0234375
1625,0.0078125,-0.57421875,0.05859375
1626,0.01953125,-0.671875,0.10546875
1627,0.02734375,-0.73828125,0.13671875
1628,0.03125,-0.83203125,0.1796875
1629,0.05078125,-0.9296875,0.20703125
1630,0.0625,-1.03125,0.20703125
1631,0.05859375,-1.12109375,0.17578125
1632,0.0703125,-1.19921875,0.14453125
1633,0.1015625,-1.25390625,0.05859375
1634,0.109375,-1.30078125,-0.046875
1635,0.1171875,-1.33203125,-0.12109375
1636,0.08984375,-1.359375,-0.15625
1637,0.046875,-1.3515625,-0.1796875
1638,0.0078125,-1.3359375,-0.15625
1639,-0.02734375,-1.3046875,-0.0859375
1640,-0.0625,-1.2890625,-0.03515625
1641,-0.1015625,-1.28515625,-0.0078125
1642,-0.11328125,-1.30859375,0.00390625
1643,-0.1484375,-1.35546875,0.015625
1644,-0.12890625,-1.45703125,-0.0078125
1645,-0.109375,-1.54296875,-0.0078125
1646,-0.08984375,-1.62890625,0.00390625
1647,-0.078125,-1.71875,-0.01171875
1648,-0.0625,-1.8359375,-0.02734375
1649,-0.0625,-1.92578125,-0.0703125
1650,-0.05859375,-2.0078125,-0.1015625
1651,-0.0703125,-2.078125,-0.1640625
1652,-0.08984375,-2.15234375,-0.1953125
1653,-0.078125,-2.22265625,-0.23828125
1654,-0.0625,-2.29296875,-0.24609375
1655,-0.04296875,-2.3671875,-0.2265625
1656,-0.01171875,-2.4609375,-0.20703125
1657,0.0078125,-2.56640625,-0.16796875
1658,0.03125,-2.69921875,-0.12109375
1659,0.05859375,-2.81640625,-0.11328125
1660,0.0703125,-2.9140625,-0.078125
1661,0.0859375,-2.953125,-0.0546875
1662,0.08203125,-2.96484375,-0.05078125
1663,0.0703125,-2.89453125,-0.08203125
1664,0.08984375,-2.8203125,-0.1328125
1665,0.08203125,-2.74609375,-0.1640625
1666,0.0625,-2.63671875,-0.234375
1667,0.04296875,-2.55078125,-0.265625
1668,0.01171875,-2.48828125,-0.296875
1669,-0.01171875,-2.4375,-0.30859375
1670,-0.0234375,-2.39453125,-0.30859375
1671,-0.03125,-2.33984375,-0.31640625
1672,-0.02734375,-2.28125,-0.296875
1673,-0.02734375,-2.21484375,-0.31640625
1674,-0.03125,-2.1015625,-0.31640625
1675,-0.015625,-1.99609375,-0.375
1676,-0.01171875,-1.85546875,-0.4375
1677,0.0078125,-1.69140625,-0.50390625
1678,0.0390625,-1.515625,-0.56640625
1679,0.07421875,-1.3203125,-0.68359375
1680,0.0625,-1.18359375,-0.6015625
1681,0.0703125,-1.0,-0.546875
1682,0.05078125,-0.8125,-0.484375
1683,0.03125,-0.6640625,-0.3984375
1684,0.00390625,-0.515625,-0.296875
1685,-0.00390625,-0.42578125,-0.23046875
1686,-0.0078125,-0.3359375,-0.16015625
1687,0.0,-0.26953125,-0.07421875
1688,0.0234375,-0.19921875,-0.0234375
1689,0.03515625,-0.13671875,-0.00390625
1690,0.0546875,-0.01953125,-0.03515625
1691,0.07421875,0.1015625,-0.1328125
1692,0.08203125,0.234375,-0.265625
1693,0.08203125,0.3359375,-0.3984375
1694,0.0625,0.453125,-0.4921875
1695,0.05078125,0.5859375,-0.5546875
1696,-0.00390625,0.69140625,-0.640625
1697,-0.02734375,0.7421875,-0.66015625
1698,-0.09765625,0.78515625,-0.609375
1699,-0.12890625,0.7578125,-0.546875
1700,-0.16796875,0.67578125,-0.421875
1701,-0.171875,0.52734375,-0.3125
1702,-0.16796875,0.3359375,-0.20703125
1703,-0.17578125,0.15234375,-0.12109375
1704,-0.16796875,0.015625,-0.078125
1705,-0.17578125,-0.1640625,-0.0234375
1706,-0.14453125,-0.30859375,0.015625
1707,-0.12109375,-0.44921875,0.0859375
1708,-0.09765625,-0.53125,0.1328125
1709,-0.08203125,-0.5625,0.16796875
1710,-0.07421875,-0.55078125,0.1640625
1711,-0.0234375,-0.51953125,0.1328125
1712,-0.015625,-0.44140625,0.08984375
1713,0.0,-0.375,0.03125
1714,-0.00390625,-0.2734375,0.0078125
1715,0.0,-0.1640625,-0.03125
1716,-0.00390625,-0.0546875,-0.03125
1717,0.00390625,0.02734375,-0.046875
1718,0.00390625,0.09765625,-0.03515625
1719,0.0078125,0.15625,-0.02734375
1720,0.0078125,0.203125,-0.0234375
1721,0.01953125,0.22265625,-0.0078125
1722,0.0625,0.2421875,0.03125
1723,0.046875,0.1953125,0.0703125
1724,0.07421875,0.15625,0.1015625
1725,0.08984375,0.125,0.09765625
1726,0.09375,0.0859375,0.10546875
1727,0.09375,0.05859375,0.09765625
1728,0.08203125,0.05078125,0.0859375
1729,0.0703125,0.03125,0.0703125
1730,0.04296875,0.01171875,0.07421875
1731,0.03125,0.0,0.06640625
1732,0.01953125,-0.01171875,0.0625
1733,0.01171875,-0.0078125,0.04296875
1734,0.0,-0.03515625,0.03515625
1735,-0.00390625,-0.04296875,0.02734375
1736,-0.00390625,-0.04296875,-0.0234375
1737,-0.01953125,-0.0546875,-0.0390625
1738,-0.03515625,-0.04296875,-0.05078125
1739,-0.05078125,-0.03515625,-0.06640625
1740,-0.0625,-0.03515625,-0.078125
1741,-0.0703125,-0.0234375,-0.0859375
1742,-0.0859375,-0.0078125,-0.1015625
1743,-0.07421875,-0.00390625,-0.0859375
1744,-0.078125,0.01953125,-0.10546875
1745,-0.08203125,0.0546875,-0.15625
1746,-0.12109375,0.12890625,-0.26953125
1747,-0.12890625,0.17578125,-0.36328125
1748,-0.01953125,0.1484375,-0.515625
1749,0.08203125,0.01171875,-0.671875
1750,0.0703125,-0.19921875,-0.75390625
1751,0.0078125,-0.48046875,-0.67578125
1752,-0.01953125,-0.703125,-0.5625
1753,-0.046875,-0.9609375,-0.4140625
1754,-0.0078125,-1.14453125,-0.26953125
1755,0.0703125,-1.32421875,-0.24609375
1756,0.140625,-1.5546875,-0.27734375
1757,0.16796875,-1.73046875,-0.296875
1758,0.19921875,-1.9921875,-0.35546875
1759,0.23046875,-2.2734375,-0.3203125
1760,0.27734375,-2.56640625,-0.2890625
1761,0.296875,-2.7421875,-0.265625
1762,0.2265625,-2.91796875,-0.21484375
1763,0.0078125,-3.01953125,-0.0859375
1764,-0.203125,-3.078125,-0.05078125
1765,-0.31640625,-3.015625,-0.03125
1766,-0.23046875,-2.953125,-0.03515625
1767,-0.0859375,-2.8125,-0.140625
1768,-0.05859375,-2.55859375,-0.2890625
1769,-0.05078125,-2.296875,-0.46484375
1770,0.0078125,-2.109375,-0.62890625
1771,0.08203125,-2.05078125,-0.76953125
1772,0.16015625,-2.15625,-0.91796875
1773,0.1953125,-2.33203125,-0.9375
1774,0.19921875,-2.53125,-0.75390625
1775,0.203125,-2.734375,-0.36328125
1776,0.17578125,-2.81640625,-0.03515625
1777,0.1328125,-2.83203125,0.37109375
1778,0.078125,-2.7578125,0.62109375
1779,0.03515625,-2.59765625,0.6484375
1780,0.03515625,-2.3828125,0.49609375
1781,0.0625,-2.203125,0.3671875
1782,0.11328125,-1.9453125,0.13671875
1783,0.13671875,-1.68359375,-0.0546875
1784,0.1640625,-1.4375,-0.1875
1785,0.1484375,-1.25,-0.234375
1786,0.12890625,-1.02734375,-0.28515625
1787,0.0546875,-0.8203125,-0.30078125
1788,-0.0078125,-0.66796875,-0.296875
1789,-0.0625,-0.51171875,-0.3203125
1790,-0.11328125,-0.43359375,-0.34765625
1791,-0.18359375,-0.34375,-0.3828125
1792,-0.234375,-0.3203125,-0.42578125
1793,-0.22265625,-0.32421875,-0.43359375
1794,-0.20703125,-0.390625,-0.3984375
1795,-0.203125,-0.43359375,-0.37109375
1796,-0.18359375,-0.484375,-0.33203125
1797,-0.18359375,-0.56640625,-0.30859375
1798,-0.14453125,-0.6484375,-0.2578125
1799,-0.109375,-0.73828125,-0.22265625
1800,-0.0625,-0.78125,-0.171875
1801,-0.015625,-0.828125,-0.08984375
1802,0.01171875,-0.83203125,-0.03515625
1803,0.0390625,-0.79296875,0.0
1804,0.078125,-0.71484375,-0.00390625
1805,0.09375,-0.671875,-0.0234375
1806,0.10546875,-0.59375,-0.0234375
1807,0.08984375,-0.51953125,-0.0625
1808,0.07421875,-0.46484375,-0.09375
1809,0.0859375,-0.4453125,-0.1171875
1810,0.0546875,-0.41015625,-0.1484375
1811,0.03515625,-0.3984375,-0.17578125
1812,0.00390625,-0.3828125,-0.1953125
1813,-0.0390625,-0.3984375,-0.1953125
1814,-0.05859375,-0.41015625,-0.1875
1815,-0.08203125,-0.44140625,-0.1796875
1816,-0.109375,-0.4921875,-0.19140625
1817,-0.1171875,-0.53515625,-0.19140625
1818,-0.125,-0.6015625,-0.171875
1819,-0.1328125,-0.64453125,-0.171875
1820,-0.203125,-0.7109375,-0.1171875
1821,-0.12890625,-0.76171875,-0.125
1822,-0.14453125,-0.8125,-0.12890625
1823,-0.125,-0.8671875,-0.109375
1824,-0.109375,-0.91015625,-0.1171875
1825,-0.11328125,-0.953125,-0.12109375
1826,-0.109375,-1.0078125,-0.11328125
1827,-0.11328125,-1.06640625,-0.12890625
1828,-0.1015625,-1.125,-0.125
1829,-0.0859375,-1.16796875,-0.1328125
1830,-0.1015625,-1.21875,-0.15234375
1831,-0.10546875,-1.25390625,-0.15234375
1832,-0.109375,-1.30859375,-0.12890625
1833,-0.09765625,-1.37109375,-0.12109375
1834,-0.08984375,-1.41015625,-0.1171875
1835,-0.0703125,-1.44921875,-0.10546875
1836,-0.05078125,-1.43359375,-0.0859375
1837,-0.015625,-1.39453125,-0.09375
1838,-0.01171875,-1.33203125,-0.09375
1839,0.03515625,-1.2109375,-0.10546875
1840,0.03515625,-1.046875,-0.16015625
1841,0.05078125,-0.8984375,-0.1953125
1842,0.0546875,-0.734375,-0.25390625
1843,0.0625,-0.66015625,-0.28515625
1844,0.04296875,-0.5703125,-0.3046875
1845,0.04296875,-0.51171875,-0.3359375
1846,0.015625,-0.48828125,-0.34375
1847,-0.0078125,-0.5,-0.3515625
1848,-0.0078125,-0.51953125,-0.33984375
1849,-0.0078125,-0.59765625,-0.32421875
1850,-0.00390625,-0.6796875,-0.30078125
1851,-0.0234375,-0.7578125,-0.26953125
1852,-0.0234375,-0.87890625,-0.2578125
1853,-0.01171875,-0.95703125,-0.22265625
1854,-0.03515625,-1.03515625,-0.1953125
1855,-0.04296875,-1.09765625,-0.1796875
1856,-0.046875,-1.13671875,-0.1640625
1857,-0.05078125,-1.15625,-0.1484375
1858,-0.02734375,-1.17578125,-0.14453125
1859,-0.0234375,-1.1953125,-0.1484375
1860,0.0,-1.17578125,-0.1484375
1861,0.00390625,-1.17578125,-0.16015625
1862,0.02734375,-1.16796875,-0.171875
1863,0.0234375,-1.1328125,-0.1640625
1864,0.04296875,-1.09765625,-0.171875
1865,0.046875,-1.05078125,-0.18359375
1866,0.07421875,-1.03515625,-0.1875
1867,0.078125,-0.9921875,-0.18359375
1868,0.078125,-0.953125,-0.19140625
1869,0.078125,-0.93359375,-0.1953125
1870,0.07421875,-0.93359375,-0.19140625
1871,0.06640625,-0.9375,-0.203125
1872,0.0625,-0.9375,-0.19921875
1873,0.046875,-0.953125,-0.171875
1874,0.03125,-0.9609375,-0.1796875
1875,0.04296875,-0.9765625,-0.14453125
1876,0.015625,-0.984375,-0.14453125
1877,0.015625,-0.99609375,-0.1484375
1878,-0.015625,-0.98828125,-0.1484375
1879,-0.03125,-1.00390625,-0.14453125
1880,-0.03125,-1.01953125,-0.13671875
1881,-0.05859375,-1.03515625,-0.13671875
1882,-0.06640625,-1.0234375,-0.1328125
1883,-0.078125,-1.02734375,-0.13671875
1884,-0.08203125,-1.03125,-0.13671875
1885,-0.0859375,-1.02734375,-0.15234375
1886,-0.0859375,-1.01953125,-0.16796875
1887,-0.08203125,-1.00390625,-0.171875
1888,-0.07421875,-0.99609375,-0.17578125
1889,-0.09765625,-0.953125,-0.19921875
1890,-0.07421875,-0.9296875,-0.19921875
1891,-0.05859375,-0.921875,-0.1796875
1892,-0.0546875,-0.90625,-0.19921875
1893,-0.046875,-0.88671875,-0.18359375
1894,-0.046875,-0.90625,-0.16015625
1895,-0.03125,-0.8984375,-0.171875
1896,-0.03125,-0.9296875,-0.16015625
1897,-0.03515625,-0.9296875,-0.14453125
1898,-0.03125,-0.953125,-0.14453125
1899,-0.0234375,-0.9609375,-0.13671875
1900,-0.03515625,-0.9609375,-0.12109375
1901,-0.03125,-0.96484375,-0.12890625
1902,-0.04296875,-0.953125,-0.12109375
1903,-0.046875,-0.953125,-0.14453125
1904,-0.046875,-0.9453125,-0.140625
1905,-0.04296875,-0.921875,-0.12890625
1906,-0.04296875,-0.9453125,-0.1484375
1907,-0.046875,-0.9296875,-0.15234375
1908,-0.05078125,-0.9140625,-0.1328125
1909,-0.0390625,-0.90234375,-0.1484375
1910,-0.05078125,-0.90234375,-0.13671875
1911,-0.05078125,-0.91015625,-0.13671875
1912,-0.02734375,-0.90625,-0.16015625
1913,-0.0390625,-0.91015625,-0.16015625
1914,-0.01953125,-0.921875,-0.171875
1915,-0.015625,-0.92578125,-0.15234375
1916,-0.00390625,-0.9453125,-0.16796875
1917,0.0,-0.94921875,-0.16796875
1918,-0.00390625,-0.95703125,-0.1484375
1919,0.00390625,-0.96875,-0.16796875
1920,0.00390625,-0.96875,-0.1640625
1921,0.0078125,-0.9765625,-0.171875
1922,0.0078125,-0.9765625,-0.16015625
1923,0.0,-0.9765625,-0.17578125
1924,-0.0078125,-0.9765625,-0.171875
1925,-0.01171875,-0.984375,-0.16796875
1926,-0.01171875,-0.9921875,-0.1640625
1927,-0.015625,-0.98828125,-0.17578125
1928,-0.015625,-0.9921875,-0.16796875
1929,-0.02734375,-0.9921875,-0.16015625
1930,-0.03515625,-0.984375,-0.17578125
1931,-0.04296875,-0.97265625,-0.171875
1932,-0.05859375,-0.97265625,-0.16796875
1933,-0.046875,-0.9609375,-0.17578125
1934,-0.0546875,-0.95703125,-0.16796875
1935,-0.05859375,-0.953125,-0.1640625
1936,-0.05078125,-0.94921875,-0.171875
1937,-0.06640625,-0.95703125,-0.1484375
1938,-0.05078125,-0.9765625,-0.09375
1939,-0.0625,-0.94921875,-0.16796875
1940,-0.0625,-0.9453125,-0.15234375
1941,-0.0625,-0.9453125,-0.14453125
1942,-0.046875,-0.9375,-0.14453125
1943,-0.046875,-0.93359375,-0.15234375
1944,-0.0390625,-0.9375,-0.140625
1945,-0.03515625,-0.9375,-0.15234375
1946,-0.03125,-0.94921875,-0.15234375
1947,-0.01953125,-0.94140625,-0.15625
1948,-0.015625,-0.9609375,-0.14453125
1949,-0.015625,-0.94140625,-0.140625
1950,-0.015625,-0.953125,-0.140625
1951,-0.015625,-0.9453125,-0.12890625
1952,-0.00390625,-0.95703125,-0.140625
1953,-0.01171875,-0.953125,-0.1328125
1954,-0.01953125,-0.9609375,-0.1484375
1955,-0.01171875,-0.9609375,-0.13671875
1956,-0.01953125,-0.9453125,-0.12890625
1957,-0.01953125,-0.94921875,-0.14453125
1958,-0.015625,-0.9375,-0.13671875
1959,-0.015625,-0.9296875,-0.1484375
1960,-0.015625,-0.921875,-0.15234375
1961,-0.015625,-0.92578125,-0.15234375
1962,-0.01953125,-0.9140625,-0.1640625
1963,-0.01953125,-0.91015625,-0.16796875
1964,-0.01171875,-0.921875,-0.16796875
1965,-0.01171875,-0.92578125,-0.1640625
1966,-0.015625,-0.9296875,-0.1875
1967,-0.015625,-0.921875,-0.1640625
1968,-0.015625,-0.9453125,-0.171875
1969,-0.0234375,-0.9375,-0.16015625
1970,-0.015625,-0.9453125,-0.15625
1971,-0.01953125,-0.9453125,-0.1640625
1972,-0.015625,-0.953125,-0.16015625
1973,-0.01953125,-0.95703125,-0.171875
1974,-0.015625,-0.9609375,-0.17578125
1975,-0.015625,-0.9609375,-0.171875
1976,-0.015625,-0.96484375,-0.17578125
1977,-0.0078125,-0.95703125,-0.1953125
1978,-0.015625,-0.9609375,-0.1796875
1979,-0.015625,-0.96875,-0.19140625
1980,-0.01953125,-0.9609375,-0.1796875
1981,-0.015625,-0.97265625,-0.1953125
1982,-0.015625,-0.96875,-0.16796875
1983,-0.015625,-0.96484375,-0.1796875
1984,-0.015625,-0.953125,-0.1875
1985,-0.0234375,-0.9609375,-0.1875
1986,-0.015625,-0.94921875,-0.1953125
1987,-0.015625,-0.9609375,-0.1796875
1988,-0.01171875,-0.96484375,-0.18359375
1989,-0.02734375,-0.95703125,-0.18359375
1990,-0.01953125,-0.96875,-0.18359375
1991,-0.015625,-0.9765625,-0.18359375
1992,-0.015625,-0.984375,-0.18359375
1993,0.0,-0.96484375,-0.16796875
1994,-0.01953125,-0.98828125,-0.18359375
1995,-0.0234375,-0.9765625,-0.17578125
1996,-0.015625,-0.984375,-0.1796875
1997,-0.02734375,-0.97265625,-0.1796875
1998,-0.0234375,-0.953125,-0.1953125
1999,-0.0234375,-0.953125,-0.1953125
2000,-0.015625,-0.94921875,-0.1875
2001,-0.015625,-0.95703125,-0.19140625
2002,-0.015625,-0.953125,-0.1875
2003,-0.0234375,-0.953125,-0.19140625
2004,-0.01171875,-0.9453125,-0.18359375
2005,-0.01953125,-0.953125,-0.19921875
2006,-0.01953125,-0.94140625,-0.203125
2007,-0.0234375,-0.953125,-0.1796875
2008,-0.03125,-0.953125,-0.1875
2009,-0.0390625,-0.9765625,-0.17578125
2010,-0.04296875,-0.953125,-0.1875
2011,-0.02734375,-0.96484375,-0.16796875
2012,-0.0390625,-0.95703125,-0.17578125
2013,-0.0390625,-0.9609375,-0.19140625
2014,-0.02734375,-0.9453125,-0.16015625
2015,-0.0234375,-0.94921875,-0.19140625
2016,-0.02734375,-0.953125,-0.1640625
2017,-0.015625,-0.9609375,-0.1796875
2018,-0.0390625,-0.94921875,-0.1796875
2019,-0.046875,-0.94140625,-0.19140625
2020,-0.04296875,-0.9453125,-0.19140625
2021,-0.04296875,-0.953125,-0.2109375
2022,-0.05078125,-0.9453125,-0.19921875
2023,-0.0390625,-0.9296875,-0.1953125
2024,-0.0390625,-0.9453125,-0.15625
2025,-0.04296875,-0.9375,-0.1953125
2026,-0.0234375,-0.95703125,-0.20703125
2027,-0.03125,-0.9453125,-0.1953125
2028,-0.03515625,-0.9453125,-0.203125
2029,-0.01953125,-0.9453125,-0.203125
2030,-0.0390625,-0.953125,-0.1953125
2031,-0.03515625,-0.9609375,-0.19140625
2032,-0.02734375,-0.96484375,-0.19921875
2033,-0.02734375,-0.9609375,-0.19140625
2034,-0.0390625,-0.9609375,-0.1953125
2035,-0.02734375,-0.95703125,-0.18359375
2036,-0.03125,-0.95703125,-0.1953125
2037,-0.02734375,-0.95703125,-0.18359375
2038,-0.015625,-0.95703125,-0.1953125
2039,-0.01953125,-0.9453125,-0.19921875
2040,-0.015625,-0.96484375,-0.203125
2041,-0.01953125,-0.94921875,-0.203125
2042,-0.01953125,-0.9609375,-0.19921875
2043,-0.01171875,-0.96484375,-0.19140625
2044,-0.0234375,-0.96484375,-0.19921875
2045,-0.015625,-0.96484375,-0.19140625
2046,-0.02734375,-0.953125,-0.1875
2047,-0.01953125,-0.9609375,-0.19921875
2048,-0.015625,-0.95703125,-0.19140625
2049,-0.01953125,-0.9609375,-0.19140625
2050,-0.015625,-0.96875,-0.19921875
2051,-0.03125,-0.953125,-0.1875
2052,-0.0234375,-0.9609375,-0.1875
2053,-0.01953125,-0.9765625,-0.203125
2054,-0.015625,-0.9609375,-0.2109375
2055,-0.015625,-0.96875,-0.203125
2056,-0.01953125,-0.96875,-0.20703125
2057,-0.015625,-0.953125,-0.19921875
2058,-0.01171875,-0.94140625,-0.203125
2059,-0.015625,-0.95703125,-0.1953125
2060,-0.0234375,-0.95703125,-0.203125
2061,-0.01171875,-0.953125,-0.19140625
2062,-0.01171875,-0.96875,-0.19140625
2063,-0.015625,-0.9609375,-0.20703125
2064,-0.015625,-0.9453125,-0.18359375
2065,-0.015625,-0.96484375,-0.19140625
2066,-0.01953125,-0.94921875,-0.20703125
2067,-0.02734375,-0.94921875,-0.1796875
2068,-0.015625,-0.953125,-0.18359375
2069,-0.02734375,-0.953125,-0.19140625
2070,-0.01953125,-0.96484375,-0.17578125
2071,-0.015625,-0.95703125,-0.17578125
2072,-0.01953125,-0.953125,-0.16015625
2073,-0.015625,-0.94921875,-0.1796875
2074,-0.03125,-0.953125,-0.1875
2075,-0.03125,-0.96484375,-0.1875
2076,-0.015625,-0.94921875,-0.1796875
2077,-0.01953125,-0.9609375,-0.1875
2078,-0.0234375,-0.9453125,-0.18359375
2079,-0.0234375,-0.9453125,-0.18359375
2080,-0.015625,-0.94921875,-0.18359375
2081,-0.01953125,-0.953125,-0.18359375
2082,-0.015625,-0.94921875,-0.1796875
2083,-0.02734375,-0.9453125,-0.1875
2084,-0.0234375,-0.9296875,-0.18359375
2085,-0.03515625,-0.9375,-0.1953125
2086,-0.0234375,-0.953125,-0.171875
2087,-0.01953125,-0.95703125,-0.17578125
2088,-0.01953125,-0.9609375,-0.17578125
2089,-0.02734375,-0.94921875,-0.16796875
2090,-0.01953125,-0.953125,-0.15625
2091,-0.0234375,-0.94921875,-0.1875
2092,-0.01171875,-0.953125,-0.18359375
2093,-0.015625,-0.94921875,-0.1875
2094,-0.015625,-0.96484375,-0.17578125
2095,-0.03125,-0.9609375,-0.171875
2096,-0.02734375,-0.96484375,-0.171875
2097,-0.015625,-0.96484375,-0.1796875
2098,-0.03125,-0.953125,-0.1640625
2099,-0.03515625,-0.94921875,-0.1640625
2100,-0.015625,-0.94140625,-0.171875
2101,-0.03125,-0.92578125,-0.1640625
2102,-0.02734375,-0.92578125,-0.171875
2103,-0.01953125,-0.921875,-0.171875
2104,-0.01953125,-0.92578125,-0.16796875
2105,-0.015625,-0.9375,-0.17578125
2106,-0.015625,-0.9375,-0.18359375
2107,-0.02734375,-0.94921875,-0.1796875
2108,-0.015625,-0.953125,-0.171875
2109,-0.015625,-0.96875,-0.1796875
2110,-0.01953125,-0.96875,-0.15625
2111,-0.015625,-0.9609375,-0.16015625
2112,-0.01953125,-0.96875,-0.17578125
2113,-0.01171875,-0.95703125,-0.171875
2114,-0.015625,-0.95703125,-0.16796875
2115,-0.01171875,-0.96875,-0.18359375
2116,-0.015625,-0.953125,-0.1875
2117,-0.01953125,-0.953125,-0.16796875
2118,-0.0234375,-0.9453125,-0.16796875
2119,-0.03125,-0.94921875,-0.1875
2120,-0.0234375,-0.9609375,-0.19140625
2121,-0.015625,-0.9609375,-0.17578125
2122,-0.02734375,-0.94921875,-0.18359375
2123,-0.02734375,-0.9609375,-0.18359375
2124,-0.02734375,-0.95703125,-0.17578125
2125,-0.03125,-0.95703125,-0.18359375
2126,-0.01953125,-0.94921875,-0.16796875
2127,-0.01953125,-0.9609375,-0.1796875
2128,-0.015625,-0.9609375,-0.16796875
2129,-0.0234375,-0.9609375,-0.17578125
2130,-0.0234375,-0.94921875,-0.16015625
2131,-0.02734375,-0.96484375,-0.16796875
2132,-0.01953125,-0.94921875,-0.18359375
2133,-0.0234375,-0.96484375,-0.16796875
2134,-0.02734375,-0.9609375,-0.1796875
2135,-0.0234375,-0.95703125,-0.16796875
2136,-0.0234375,-0.95703125,-0.1796875
2137,-0.0234375,-0.94140625,-0.1875
2138,-0.015625,-0.9453125,-0.1953125
2139,-0.03125,-0.94140625,-0.16796875
2140,-0.015625,-0.94921875,-0.171875
2141,-0.015625,-0.9609375,-0.1796875
2142,-0.015625,-0.953125,-0.1796875
2143,-0.01953125,-0.9609375,-0.1796875
2144,-0.0234375,-0.94921875,-0.18359375
2145,-0.015625,-0.95703125,-0.1875
2146,-0.03125,-0.953125,-0.1796875
2147,-0.0234375,-0.9609375,-0.1796875
2148,-0.015625,-0.96484375,-0.19140625
2149,-0.015625,-0.96875,-0.19921875
2150,-0.0234375,-0.96875,-0.1875
2151,-0.02734375,-0.9453125,-0.18359375
2152,-0.01953125,-0.953125,-0.1875
2153,-0.02734375,-0.94140625,-0.19140625
2154,-0.03515625,-0.921875,-0.16796875
2155,-0.015625,-0.9453125,-0.203125
2156,-0.015625,-0.93359375,-0.171875
2157,-0.015625,-0.95703125,-0.18359375
2158,-0.0234375,-0.9609375,-0.17578125
2159,-0.01953125,-0.9609375,-0.17578125
2160,-0.015625,-0.96875,-0.17578125
2161,-0.02734375,-0.96875,-0.18359375
2162,-0.0390625,-0.96484375,-0.17578125
2163,-0.04296875,-0.953125,-0.171875
2164,-0.03515625,-0.953125,-0.17578125
2165,-0.0234375,-0.94921875,-0.15625
2166,-0.03515625,-0.94921875,-0.17578125
2167,-0.03515625,-0.9453125,-0.17578125
2168,-0.04296875,-0.953125,-0.17578125
2169,-0.0234375,-0.95703125,-0.1796875
2170,-0.03125,-0.9453125,-0.1796875
2171,-0.03125,-0.94921875,-0.1796875
2172,-0.04296875,-0.94921875,-0.1796875
2173,-0.02734375,-0.97265625,-0.16015625
2174,-0.015625,-0.97265625,-0.1796875
2175,-0.015625,-0.96484375,-0.17578125
2176,-0.015625,-0.9453125,-0.171875
2177,-0.0234375,-0.95703125,-0.16796875
2178,-0.015625,-0.94921875,-0.18359375
2179,-0.03125,-0.95703125,-0.17578125
2180,-0.0390625,-0.95703125,-0.16015625
2181,-0.0390625,-0.94921875,-0.171875
2182,-0.015625,-0.94921875,-0.171875
2183,-0.0234375,-0.9609375,-0.16015625
2184,-0.02734375,-0.953125,-0.16015625
2185,-0.0234375,-0.9453125,-0.171875
2186,-0.03125,-0.9453125,-0.1640625
2187,-0.03125,-0.953125,-0.1796875
2188,-0.02734375,-0.953125,-0.16796875
2189,-0.0234375,-0.94140625,-0.16796875
2190,-0.01953125,-0.953125,-0.18359375
2191,-0.015625,-0.95703125,-0.16796875
2192,-0.015625,-0.9609375,-0.18359375
2193,-0.01953125,-0.96875,-0.171875
2194,-0.01171875,-0.97265625,-0.16015625
2195,-0.015625,-0.9609375,-0.171875
2196,-0.015625,-0.9609375,-0.16015625
2197,-0.0234375,-0.95703125,-0.1875
2198,-0.015625,-0.9609375,-0.1796875
2199,-0.015625,-0.9375,-0.18359375
2200,-0.01171875,-0.9453125,-0.171875
2201,-0.01171875,-0.93359375,-0.16796875
2202,-0.015625,-0.9453125,-0.17578125
2203,-0.01171875,-0.9296875,-0.1640625
2204,-0.0234375,-0.94140625,-0.17578125
2205,-0.01171875,-0.9453125,-0.1640625
2206,-0.01171875,-0.94921875,-0.16796875
2207,-0.015625,-0.9453125,-0.171875
2208,-0.01171875,-0.94140625,-0.16015625
2209,-0.01953125,-0.94921875,-0.16796875
2210,-0.01953125,-0.94921875,-0.16796875
2211,-0.015625,-0.95703125,-0.17578125
2212,-0.01953125,-0.97265625,-0.171875
2213,-0.0234375,-0.953125,-0.15625
2214,-0.02734375,-0.96875,-0.1640625
2215,-0.01953125,-0.95703125,-0.1796875
2216,-0.015625,-0.9609375,-0.1796875
2217,-0.015625,-0.94921875,-0.171875
2218,-0.04296875,-0.94140625,-0.16796875
2219,-0.01953125,-0.94921875,-0.1953125
2220,-0.01953125,-0.96484375,-0.1796875
2221,-0.01953125,-0.9609375,-0.19140625
2222,-0.0078125,-0.96484375,-0.19921875
2223,-0.01953125,-0.98046875,-0.1875
2224,-0.03125,-0.96484375,-0.1875
2225,-0.015625,-0.9609375,-0.1796875
2226,-0.01953125,-0.9609375,-0.18359375
2227,-0.0234375,-0.953125,-0.16796875
2228,-0.02734375,-0.96484375,-0.17578125
2229,-0.03125,-0.9609375,-0.19140625
2230,-0.02734375,-0.953125,-0.18359375
2231,-0.01953125,-0.9453125,-0.1796875
2232,-0.03125,-0.95703125,-0.17578125
2233,-0.02734375,-0.9453125,-0.17578125
2234,-0.046875,-0.9375,-0.17578125
2235,-0.0390625,-0.94921875,-0.1796875
2236,-0.04296875,-0.9609375,-0.1796875
2237,-0.03515625,-0.953125,-0.1953125
2238,-0.015625,-0.96484375,-0.1875
2239,-0.015625,-0.96484375,-0.19140625
2240,-0.00390625,-0.984375,-0.17578125
2241,-0.03515625,-0.953125,-0.203125
2242,-0.02734375,-0.95703125,-0.1875
2243,-0.01953125,-0.9453125,-0.1953125
2244,-0.02734375,-0.94140625,-0.19140625
2245,-0.0234375,-0.9375,-0.1875
2246,-0.015625,-0.9375,-0.19921875
2247,-0.01953125,-0.94140625,-0.1875
2248,-0.015625,-0.9375,-0.171875
2249,-0.015625,-0.9453125,-0.18359375
2250,-0.03125,-0.9453125,-0.1796875
2251,-0.0234375,-0.94140625,-0.17578125
2252,-0.015625,-0.94921875,-0.1875
2253,-0.015625,-0.94921875,-0.18359375
2254,-0.01953125,-0.9609375,-0.1640625
2255,-0.015625,-0.953125,-0.1796875
2256,-0.01953125,-0.9609375,-0.1796875
2257,-0.0234375,-0.953125,-0.16015625
2258,-0.015625,-0.9453125,-0.17578125
2259,-0.015625,-0.9375,-0.15234375
2260,-0.01953125,-0.94921875,-0.1875
2261,-0.015625,-0.94921875,-0.1875
2262,-0.015625,-0.9453125,-0.1796875
2263,-0.015625,-0.95703125,-0.1796875
2264,-0.01953125,-0.96484375,-0.16796875
2265,-0.015625,-0.96484375,-0.171875
2266,-0.015625,-0.96484375,-0.171875
2267,-0.01171875,-0.97265625,-0.1640625
2268,-0.015625,-0.9765625,-0.1796875
2269,-0.015625,-0.9609375,-0.171875
2270,-0.01953125,-0.96484375,-0.171875
2271,-0.0078125,-0.96484375,-0.16796875
2272,-0.01953125,-0.9765625,-0.17578125
2273,-0.015625,-0.97265625,-0.171875
2274,-0.015625,-0.96875,-0.1875
2275,-0.015625,-0.9765625,-0.17578125
2276,-0.015625,-0.96875,-0.16015625
2277,-0.01953125,-0.96875,-0.18359375
2278,-0.02734375,-0.96875,-0.171875
2279,-0.015625,-0.98046875,-0.16796875
2280,-0.0234375,-0.9765625,-0.17578125
2281,-0.015625,-0.9765625,-0.1796875
2282,-0.01171875,-0.9765625,-0.19140625
2283,-0.01953125,-0.97265625,-0.18359375
2284,-0.01171875,-0.96484375,-0.19140625
2285,-0.01171875,-0.96875,-0.19140625
2286,-0.015625,-0.9765625,-0.1875
2287,-0.015625,-0.97265625,-0.1796875
2288,-0.015625,-0.9609375,-0.1796875
2289,-0.015625,-0.96484375,-0.18359375
2290,-0.015625,-0.953125,-0.1953125
2291,-0.015625,-0.953125,-0.16796875
2292,-0.01171875,-0.94921875,-0.19921875
2293,-0.01171875,-0.9609375,-0.18359375
2294,-0.015625,-0.9453125,-0.19140625
2295,-0.01171875,-0.95703125,-0.1875
2296,-0.0078125,-0.953125,-0.1796875
2297,-0.015625,-0.95703125,-0.1796875
2298,-0.015625,-0.94140625,-0.19140625
2299,-0.015625,-0.94140625,-0.17578125
2300,-0.0078125,-0.94921875,-0.171875
2301,-0.015625,-0.95703125,-0.171875
2302,-0.01171875,-0.95703125,-0.16796875
2303,-0.01171875,-0.94921875,-0.17578125
2304,-0.01171875,-0.9609375,-0.1640625
2305,-0.015625,-0.9453125,-0.171875
2306,-0.0234375,-0.9453125,-0.1796875
2307,-0.0234375,-0.9609375,-0.16015625
2308,-0.01171875,-0.94921875,-0.1875
2309,-0.015625,-0.953125,-0.1640625
2310,-0.01171875,-0.94140625,-0.18359375
2311,-0.015625,-0.953125,-0.16015625
2312,-0.01953125,-0.95703125,-0.17578125
2313,-0.02734375,-0.93359375,-0.171875
2314,-0.015625,-0.953125,-0.1640625
2315,-0.0234375,-0.9453125,-0.18359375
2316,-0.015625,-0.953125,-0.16796875
2317,-0.01953125,-0.953125,-0.16796875
2318,-0.01953125,-0.953125,-0.16796875
2319,-0.01953125,-0.94921875,-0.171875
2320,-0.01953125,-0.953125,-0.17578125
2321,-0.015625,-0.94921875,-0.16015625
2322,-0.01953125,-0.94921875,-0.16796875
2323,-0.015625,-0.94921875,-0.16796875
2324,-0.01953125,-0.9453125,-0.16015625
2325,-0.015625,-0.95703125,-0.1640625
2326,-0.015625,-0.9453125,-0.171875
2327,-0.015625,-0.96875,-0.15625
2328,-0.01953125,-0.9609375,-0.16015625
2329,-0.01171875,-0.95703125,-0.17578125
2330,-0.02734375,-0.953125,-0.17578125
2331,-0.015625,-0.94921875,-0.15625
2332,-0.0234375,-0.95703125,-0.1640625
2333,-0.015625,-0.94921875,-0.1875
2334,-0.01953125,-0.953125,-0.17578125
2335,-0.0234375,-0.9609375,-0.171875
2336,-0.0234375,-0.96875,-0.171875
2337,-0.03515625,-0.9609375,-0.15234375
2338,-0.05859375,-0.953125,-0.140625
2339,-0.0234375,-0.9453125,-0.17578125
2340,-0.02734375,-0.95703125,-0.16796875
2341,-0.015625,-0.9609375,-0.15625
2342,-0.02734375,-0.95703125,-0.16015625
2343,-0.0234375,-0.96875,-0.15234375
2344,-0.01953125,-0.95703125,-0.15234375
2345,-0.01953125,-0.953125,-0.15625
2346,-0.015625,-0.9609375,-0.16015625
2347,-0.015625,-0.95703125,-0.16015625
2348,-0.015625,-0.953125,-0.171875
2349,-0.02734375,-0.94921875,-0.15234375
2350,-0.01953125,-0.94140625,-0.15625
2351,-0.015625,-0.93359375,-0.171875
2352,-0.0234375,-0.9375,-0.171875
2353,-0.01171875,-0.953125,-0.171875
2354,-0.015625,-0.953125,-0.16015625
2355,-0.0234375,-0.96484375,-0.16015625
2356,-0.01171875,-0.97265625,-0.13671875
2357,-0.015625,-0.96484375,-0.16015625
2358,-0.015625,-0.96484375,-0.16796875
2359,-0.015625,-0.95703125,-0.14453125
2360,-0.01953125,-0.94921875,-0.15234375
2361,-0.01953125,-0.95703125,-0.15625
2362,-0.015625,-0.94921875,-0.1484375
2363,-0.01953125,-0.9609375,-0.1484375
2364,-0.03125,-0.94921875,-0.1640625
2365,-0.015625,-0.95703125,-0.17578125
2366,-0.01953125,-0.9609375,-0.15625
2367,-0.02734375,-0.9609375,-0.15625
2368,-0.03125,-0.95703125,-0.16015625
2369,-0.03125,-0.96875,-0.1640625
2370,-0.01953125,-0.94921875,-0.1640625
2371,-0.015625,-0.96875,-0.16015625
2372,-0.015625,-0.94921875,-0.1640625
2373,-0.02734375,-0.95703125,-0.15234375
2374,-0.015625,-0.9609375,-0.171875
2375,-0.0078125,-0.96875,-0.1640625
2376,-0.01171875,-0.9765625,-0.16015625
2377,-0.0234375,-0.9609375,-0.15234375
2378,-0.01171875,-0.96484375,-0.1484375
2379,-0.015625,-0.98046875,-0.171875
2380,-0.01171875,-0.95703125,-0.1640625
2381,-0.015625,-0.953125,-0.16796875
2382,-0.0234375,-0.9609375,-0.171875
2383,-0.015625,-0.953125,-0.16796875
2384,-0.015625,-0.95703125,-0.16796875
2385,-0.015625,-0.96875,-0.15625
2386,-0.01953125,-0.96875,-0.1640625
2387,-0.015625,-0.9609375,-0.16796875
2388,-0.02734375,-0.95703125,-0.15234375
2389,-0.0078125,-0.953125,-0.16796875
2390,-0.015625,-0.95703125,-0.15625
2391,-0.01953125,-0.95703125,-0.16796875
2392,-0.0234375,-0.94921875,-0.16796875
2393,-0.015625,-0.9453125,-0.16015625
2394,-0.01953125,-0.95703125,-0.1640625
2395,-0.015625,-0.95703125,-0.16015625
2396,-0.015625,-0.96484375,-0.171875
2397,-0.02734375,-0.94921875,-0.16015625
2398,-0.02734375,-0.953125,-0.17578125
2399,-0.01171875,-0.94921875,-0.171875
