,accelerometerAccelerationX(G),accelerometerAccelerationY(G),accelerometerAccelerationZ(G)
0,0.05078125,-0.98046875,-0.14453125
1,0.05078125,-0.98828125,-0.15234375
2,0.046875,-0.98828125,-0.140625
3,0.03515625,-0.984375,-0.14453125
4,0.046875,-0.9921875,-0.15234375
5,0.04296875,-0.98828125,-0.1328125
6,0.0390625,-0.9921875,-0.140625
7,0.04296875,-0.984375,-0.1484375
8,0.046875,-0.98828125,-0.1484375
9,0.04296875,-0.98828125,-0.1484375
10,0.0390625,-0.99609375,-0.125
11,0.03515625,-0.98828125,-0.1484375
12,0.046875,-0.9921875,-0.125
13,0.046875,-0.98828125,-0.1484375
14,0.05078125,-0.984375,-0.14453125
15,0.02734375,-0.98046875,-0.13671875
16,0.04296875,-0.98828125,-0.14453125
17,0.04296875,-0.9921875,-0.14453125
18,0.04296875,-0.98828125,-0.1484375
19,0.046875,-0.9921875,-0.15234375
20,0.03515625,-0.984375,-0.12890625
21,0.0390625,-0.984375,-0.1484375
22,0.0546875,-0.99609375,-0.140625
23,0.0390625,-0.9921875,-0.140625
24,0.05078125,-0.9921875,-0.1484375
25,0.05078125,-0.98828125,-0.12109375
26,0.0390625,-0.98046875,-0.125
27,0.0546875,-0.9765625,-0.14453125
28,0.046875,-0.98046875,-0.14453125
29,0.03125,-0.98046875,-0.13671875
30,0.046875,-0.9765625,-0.15234375
31,0.04296875,-0.984375,-0.13671875
32,0.05078125,-0.984375,-0.140625
33,0.04296875,-0.984375,-0.1328125
34,0.0546875,-0.9921875,-0.140625
35,0.05078125,-0.98828125,-0.1484375
36,0.04296875,-0.98828125,-0.13671875
37,0.046875,-0.9921875,-0.1640625
38,0.046875,-0.984375,-0.14453125
39,0.0546875,-0.98828125,-0.1484375
40,0.03515625,-0.984375,-0.15234375
41,0.03515625,-0.98828125,-0.14453125
42,0.0390625,-0.99609375,-0.15234375
43,0.0390625,-0.98828125,-0.13671875
44,0.05078125,-0.9921875,-0.15625
45,0.04296875,-0.98828125,-0.14453125
46,0.0390625,-0.98046875,-0.15234375
47,0.046875,-0.99609375,-0.1328125
48,0.046875,-0.98046875,-0.140625
49,0.05078125,-0.984375,-0.15625
50,0.046875,-0.98046875,-0.15625
51,0.046875,-0.984375,-0.1484375
52,0.04296875,-0.97265625,-0.140625
53,0.04296875,-0.984375,-0.1484375
54,0.046875,-0.984375,-0.1484375
55,0.0546875,-0.984375,-0.15234375
56,0.046875,-0.984375,-0.14453125
57,0.04296875,-0.99609375,-0.15625
58,0.046875,-0.9765625,-0.13671875
59,0.05078125,-0.99609375,-0.14453125
60,0.046875,-0.984375,-0.14453125
61,0.05078125,-0.9921875,-0.140625
62,0.05078125,-0.99609375,-0.1484375
63,0.0546875,-0.98828125,-0.14453125
64,0.05859375,-0.9921875,-0.1484375
65,0.05078125,-1.00390625,-0.14453125
66,0.0546875,-0.984375,-0.1484375
67,0.05078125,-0.98046875,-0.15234375
68,0.046875,-0.984375,-0.1484375
69,0.05859375,-0.98828125,-0.14453125
70,0.0546875,-0.984375,-0.15234375
71,0.046875,-0.98828125,-0.140625
72,0.0546875,-1.0,-0.14453125
73,0.05078125,-0.984375,-0.1484375
74,0.0546875,-0.9921875,-0.15625
75,0.046875,-0.98828125,-0.15625
76,0.05078125,-0.99609375,-0.1484375
77,0.0390625,-0.984375,-0.1484375
78,0.05078125,-0.984375,-0.15234375
79,0.046875,-0.9921875,-0.1484375
80,0.046875,-0.984375,-0.14453125
81,0.05078125,-0.99609375,-0.15625
82,0.05078125,-0.98828125,-0.16796875
83,0.046875,-1.0,-0.1640625
84,0.05078125,-1.0,-0.15234375
85,0.0390625,-0.9921875,-0.16015625
86,0.0546875,-0.99609375,-0.1640625
87,0.0390625,-0.9921875,-0.14453125
88,0.0390625,-1.0,-0.15234375
89,0.0390625,-0.99609375,-0.15625
90,0.03515625,-0.98828125,-0.14453125
91,0.02734375,-0.98046875,-0.12890625
92,0.05078125,-0.98046875,-0.15234375
93,0.05078125,-1.00390625,-0.13671875
94,0.05078125,-0.99609375,-0.140625
95,0.046875,-0.984375,-0.15234375
96,0.046875,-0.9921875,-0.140625
97,0.046875,-0.984375,-0.140625
98,0.0546875,-0.9921875,-0.1484375
99,0.05859375,-0.9921875,-0.125
100,0.05078125,-0.99609375,-0.15234375
101,0.0546875,-0.9921875,-0.12890625
102,0.0546875,-0.984375,-0.15234375
103,0.05078125,-0.98828125,-0.140625
104,0.04296875,-0.98046875,-0.1484375
105,0.04296875,-0.98046875,-0.14453125
106,0.046875,-0.98828125,-0.16015625
107,0.03515625,-0.9921875,-0.1484375
108,0.05859375,-0.98828125,-0.1484375
109,0.05859375,-0.99609375,-0.15234375
110,0.046875,-0.98828125,-0.140625
111,0.046875,-0.98046875,-0.13671875
112,0.04296875,-0.9921875,-0.15234375
113,0.0390625,-0.984375,-0.171875
114,0.0390625,-0.98828125,-0.1640625
115,0.04296875,-0.98828125,-0.15625
116,0.0390625,-0.98828125,-0.12890625
117,0.04296875,-0.98046875,-0.14453125
118,0.05859375,-0.9921875,-0.15234375
119,0.04296875,-0.98828125,-0.16015625
120,0.03515625,-0.9765625,-0.14453125
121,0.0390625,-0.984375,-0.140625
122,0.046875,-0.98828125,-0.15234375
123,0.0546875,-0.984375,-0.15234375
124,0.04296875,-0.984375,-0.15234375
125,0.03515625,-0.97265625,-0.13671875
126,0.05078125,-0.984375,-0.1484375
127,0.05078125,-0.97265625,-0.1328125
128,0.04296875,-0.98046875,-0.16015625
129,0.03515625,-0.984375,-0.15625
130,0.05078125,-0.99609375,-0.12890625
131,0.05078125,-0.98828125,-0.1484375
132,0.046875,-0.9921875,-0.140625
133,0.05078125,-0.98046875,-0.1328125
134,0.0546875,-0.98828125,-0.140625
135,0.05078125,-0.9765625,-0.15625
136,0.05078125,-0.984375,-0.1328125
137,0.05078125,-0.9921875,-0.140625
138,0.05078125,-0.99609375,-0.1484375
139,0.046875,-0.984375,-0.1484375
140,0.04296875,-0.98828125,-0.14453125
141,0.04296875,-0.984375,-0.14453125
142,0.04296875,-0.9921875,-0.1484375
143,0.03515625,-0.98828125,-0.1484375
144,0.046875,-0.98046875,-0.1484375
145,0.046875,-0.98828125,-0.14453125
146,0.0390625,-0.98046875,-0.13671875
147,0.05078125,-0.99609375,-0.15234375
148,0.05078125,-0.97265625,-0.140625
149,0.05078125,-0.97265625,-0.140625
150,0.046875,-0.9921875,-0.13671875
151,0.0390625,-0.9921875,-0.140625
152,0.04296875,-0.98828125,-0.13671875
153,0.05078125,-0.98046875,-0.125
154,0.04296875,-0.9921875,-0.16015625
155,0.04296875,-0.98828125,-0.140625
156,0.046875,-1.00390625,-0.15625
157,0.046875,-0.98828125,-0.1328125
158,0.0390625,-0.9921875,-0.14453125
159,0.03515625,-1.00390625,-0.140625
160,0.0390625,-0.9921875,-0.15234375
161,0.04296875,-0.98046875,-0.14453125
162,0.046875,-0.984375,-0.13671875
163,0.03515625,-0.98828125,-0.140625
164,0.0390625,-0.99609375,-0.1328125
165,0.04296875,-0.9765625,-0.15234375
166,0.05078125,-0.98828125,-0.15625
167,0.04296875,-0.99609375,-0.171875
168,0.0546875,-0.9921875,-0.13671875
169,0.0390625,-0.984375,-0.140625
170,0.046875,-0.98828125,-0.15234375
171,0.04296875,-0.9921875,-0.1484375
172,0.03515625,-0.9921875,-0.15625
173,0.0546875,-0.98828125,-0.15234375
174,0.03515625,-0.98828125,-0.13671875
175,0.046875,-0.9921875,-0.140625
176,0.0546875,-1.0,-0.16015625
177,0.04296875,-0.98046875,-0.14453125
178,0.04296875,-0.984375,-0.14453125
179,0.04296875,-0.99609375,-0.1484375
180,0.04296875,-0.98828125,-0.140625
181,0.03515625,-0.984375,-0.140625
182,0.0390625,-0.98828125,-0.15625
183,0.04296875,-0.9921875,-0.16015625
184,0.05078125,-0.98046875,-0.15234375
185,0.0390625,-1.0,-0.15625
186,0.046875,-0.98828125,-0.1484375
187,0.046875,-0.98828125,-0.15234375
188,0.0546875,-0.9921875,-0.15234375
189,0.05078125,-0.94921875,-0.09375
190,0.046875,-0.984375,-0.1484375
191,0.03515625,-0.98828125,-0.15625
192,0.046875,-1.0,-0.1640625
193,0.0390625,-0.984375,-0.1484375
194,0.05078125,-0.984375,-0.15625
195,0.0390625,-0.9921875,-0.1484375
196,0.05078125,-0.9921875,-0.14453125
197,0.05078125,-0.99609375,-0.16015625
198,0.04296875,-0.984375,-0.1484375
199,0.04296875,-0.9921875,-0.1484375
200,0.07421875,-1.01953125,-0.13671875
201,0.03515625,-0.98828125,-0.14453125
202,0.04296875,-0.98828125,-0.140625
203,0.05078125,-1.0,-0.15234375
204,0.02734375,-0.98828125,-0.1328125
205,0.046875,-1.0,-0.140625
206,0.02734375,-0.98828125,-0.15625
207,0.04296875,-1.0,-0.15234375
208,0.0390625,-0.99609375,-0.16015625
209,0.046875,-0.9921875,-0.15234375
210,0.078125,-1.0,-0.15625
211,0.03125,-1.00390625,-0.15625
212,0.03125,-0.98828125,-0.14453125
213,0.04296875,-0.9921875,-0.16015625
214,0.02734375,-0.98828125,-0.16015625
215,0.04296875,-0.98828125,-0.15625
216,0.05078125,-0.984375,-0.15625
217,0.05078125,-1.00390625,-0.13671875
218,0.04296875,-0.98828125,-0.1640625
219,0.0390625,-0.9921875,-0.13671875
220,0.03515625,-0.98828125,-0.1484375
221,0.0078125,-1.0078125,-0.1328125
222,0.04296875,-0.98828125,-0.125
223,0.0390625,-0.98046875,-0.13671875
224,0.04296875,-0.984375,-0.1484375
225,0.03515625,-0.984375,-0.1328125
226,0.04296875,-0.984375,-0.1328125
227,0.04296875,-1.0,-0.13671875
228,0.03515625,-0.98046875,-0.1328125
229,0.0546875,-1.0,-0.14453125
230,0.04296875,-0.98046875,-0.13671875
231,0.03515625,-0.98828125,-0.1328125
232,0.046875,-0.98828125,-0.16015625
233,0.02734375,-0.98046875,-0.16015625
234,0.0390625,-0.9921875,-0.1484375
235,0.046875,-1.0,-0.1484375
236,0.04296875,-1.00390625,-0.1640625
237,0.046875,-0.98828125,-0.140625
238,0.0390625,-0.98828125,-0.12890625
239,0.04296875,-0.98828125,-0.14453125
240,0.03515625,-0.99609375,-0.13671875
241,0.03515625,-0.9921875,-0.15625
242,0.04296875,-0.98828125,-0.15234375
243,0.0390625,-0.98828125,-0.14453125
244,0.046875,-0.98828125,-0.15625
245,0.03515625,-0.96875,-0.15234375
246,0.0390625,-0.98828125,-0.1328125
247,0.0390625,-0.98046875,-0.140625
248,0.046875,-0.98828125,-0.14453125
249,0.046875,-1.0,-0.125
250,0.05078125,-0.984375,-0.16015625
251,0.0390625,-0.99609375,-0.1484375
252,0.0390625,-0.99609375,-0.12890625
253,0.0390625,-0.984375,-0.13671875
254,0.03125,-1.0,-0.1328125
255,0.05078125,-1.00390625,-0.14453125
256,0.046875,-0.9921875,-0.140625
257,0.046875,-0.984375,-0.1484375
258,0.04296875,-0.98828125,-0.12890625
259,0.0390625,-0.9921875,-0.140625
260,0.04296875,-1.0,-0.12890625
261,0.046875,-0.98046875,-0.1328125
262,0.03515625,-0.98828125,-0.140625
263,0.03125,-0.9921875,-0.12890625
264,0.03515625,-0.98828125,-0.1328125
265,0.0390625,-0.98046875,-0.1484375
266,0.046875,-0.9921875,-0.140625
267,0.04296875,-0.9921875,-0.140625
268,0.046875,-0.99609375,-0.1328125
269,0.0390625,-0.984375,-0.14453125
270,0.046875,-0.9921875,-0.12890625
271,0.04296875,-0.99609375,-0.14453125
272,0.046875,-0.99609375,-0.140625
273,0.03515625,-0.984375,-0.140625
274,0.046875,-0.9921875,-0.140625
275,0.046875,-0.98046875,-0.140625
276,0.0390625,-0.984375,-0.1328125
277,0.03515625,-0.9921875,-0.15625
278,0.046875,-0.9765625,-0.12890625
279,0.05078125,-0.98828125,-0.1328125
280,0.0390625,-1.01171875,-0.1328125
281,0.0390625,-0.9921875,-0.12890625
282,0.0390625,-0.98828125,-0.13671875
283,0.046875,-0.984375,-0.14453125
284,0.04296875,-0.98828125,-0.1328125
285,0.05078125,-0.984375,-0.13671875
286,0.04296875,-0.98828125,-0.12890625
287,0.04296875,-0.98828125,-0.140625
288,0.0390625,-0.98828125,-0.125
289,0.0390625,-0.98046875,-0.12890625
290,0.03515625,-0.984375,-0.13671875
291,0.0390625,-0.984375,-0.13671875
292,0.03515625,-0.98046875,-0.13671875
293,0.03515625,-0.984375,-0.125
294,0.046875,-0.99609375,-0.12109375
295,0.02734375,-0.984375,-0.13671875
296,0.04296875,-1.00390625,-0.140625
297,0.04296875,-0.9765625,-0.1328125
298,0.03515625,-0.984375,-0.13671875
299,0.0390625,-0.99609375,-0.1484375
300,0.046875,-0.9921875,-0.1484375
301,0.05078125,-0.99609375,-0.1328125
302,0.03515625,-0.98828125,-0.15234375
303,0.046875,-0.9921875,-0.15625
304,0.0390625,-0.98046875,-0.13671875
305,0.04296875,-0.984375,-0.14453125
306,0.03125,-0.984375,-0.1484375
307,0.04296875,-0.98046875,-0.140625
308,0.0390625,-0.99609375,-0.1484375
309,0.04296875,-0.9921875,-0.1640625
310,0.05078125,-0.9765625,-0.1640625
311,0.0546875,-0.98828125,-0.14453125
312,0.03125,-0.98046875,-0.1328125
313,0.04296875,-0.9921875,-0.1484375
314,0.03515625,-0.984375,-0.1328125
315,0.046875,-0.984375,-0.1484375
316,0.05078125,-0.98828125,-0.13671875
317,0.0390625,-0.9921875,-0.140625
318,0.046875,-0.9921875,-0.13671875
319,0.0390625,-0.9765625,-0.140625
320,0.03125,-0.984375,-0.15625
321,0.0390625,-0.9921875,-0.13671875
322,0.0390625,-0.98828125,-0.140625
323,0.03515625,-0.984375,-0.13671875
324,0.0390625,-0.98828125,-0.1328125
325,0.03125,-0.98828125,-0.140625
326,0.0390625,-0.98828125,-0.125
327,0.04296875,-0.984375,-0.1328125
328,0.03515625,-0.984375,-0.1328125
329,0.04296875,-0.98828125,-0.1328125
330,0.04296875,-0.98828125,-0.140625
331,0.0390625,-0.9765625,-0.12109375
332,0.0546875,-0.97265625,-0.125
333,0.04296875,-0.99609375,-0.1328125
334,0.03125,-0.984375,-0.11328125
335,0.0390625,-0.98828125,-0.12109375
336,0.04296875,-0.98046875,-0.125
337,0.046875,-0.9921875,-0.1328125
338,0.046875,-0.98828125,-0.140625
339,0.04296875,-0.984375,-0.14453125
340,0.05078125,-0.98046875,-0.13671875
341,0.0390625,-0.98828125,-0.14453125
342,0.04296875,-0.98828125,-0.15625
343,0.05078125,-0.99609375,-0.12109375
344,0.03125,-0.984375,-0.125
345,0.04296875,-0.98828125,-0.12890625
346,0.05078125,-0.99609375,-0.1328125
347,0.03515625,-0.9921875,-0.140625
348,0.0390625,-0.98828125,-0.15234375
349,0.0390625,-0.99609375,-0.12890625
350,0.03515625,-0.98828125,-0.12890625
351,0.05078125,-0.9921875,-0.12890625
352,0.046875,-0.9921875,-0.1171875
353,0.03125,-0.984375,-0.12890625
354,0.05078125,-0.98828125,-0.12890625
355,0.04296875,-0.9765625,-0.12109375
356,0.03515625,-0.984375,-0.12109375
357,0.0390625,-0.99609375,-0.1328125
358,0.04296875,-0.98828125,-0.14453125
359,0.04296875,-0.98828125,-0.12890625
360,0.04296875,-0.98828125,-0.12109375
361,0.05078125,-0.9921875,-0.1328125
362,0.0390625,-0.9921875,-0.1328125
363,0.05078125,-0.9921875,-0.12109375
364,0.0390625,-0.984375,-0.1328125
365,0.04296875,-0.98828125,-0.12890625
366,0.05078125,-0.98828125,-0.1328125
367,0.046875,-0.9921875,-0.1171875
368,0.0625,-0.99609375,-0.140625
369,0.04296875,-0.99609375,-0.1328125
370,0.03515625,-0.98046875,-0.125
371,0.04296875,-0.9921875,-0.12890625
372,0.03515625,-0.9921875,-0.1328125
373,0.04296875,-0.98046875,-0.125
374,0.0390625,-0.98828125,-0.140625
375,0.04296875,-0.9921875,-0.14453125
376,0.03515625,-0.984375,-0.12890625
377,0.046875,-0.9921875,-0.14453125
378,0.04296875,-0.98828125,-0.12109375
379,0.03515625,-0.98046875,-0.125
380,0.04296875,-0.984375,-0.12890625
381,0.04296875,-0.99609375,-0.12109375
382,0.0390625,-0.98828125,-0.11328125
383,0.04296875,-0.99609375,-0.1171875
384,0.0546875,-0.9921875,-0.11328125
385,0.0390625,-0.984375,-0.1171875
386,0.03515625,-0.98828125,-0.1171875
387,0.04296875,-0.98828125,-0.12109375
388,0.04296875,-0.98828125,-0.1328125
389,0.05078125,-0.98046875,-0.12109375
390,0.0390625,-0.98046875,-0.1328125
391,0.0390625,-0.98828125,-0.13671875
392,0.0390625,-0.98828125,-0.13671875
393,0.03515625,-0.98046875,-0.12109375
394,0.0390625,-0.99609375,-0.11328125
395,0.04296875,-0.984375,-0.12109375
396,0.046875,-0.98828125,-0.125
397,0.03125,-0.984375,-0.125
398,0.0390625,-0.9921875,-0.12890625
399,0.04296875,-1.0,-0.11328125
400,0.0390625,-0.9921875,-0.1171875
401,0.03125,-0.99609375,-0.11328125
402,0.05078125,-1.0,-0.11328125
403,0.046875,-0.9921875,-0.12109375
404,0.0390625,-0.98046875,-0.12109375
405,0.046875,-0.98828125,-0.12109375
406,0.04296875,-0.99609375,-0.1171875
407,0.0390625,-0.98828125,-0.12890625
408,0.0390625,-0.98828125,-0.12890625
409,0.046875,-0.99609375,-0.12109375
410,0.046875,-1.0,-0.1171875
411,0.03515625,-0.984375,-0.125
412,0.03515625,-0.984375,-0.12109375
413,0.03515625,-1.0,-0.11328125
414,0.04296875,-0.99609375,-0.1171875
415,0.0390625,-0.9921875,-0.109375
416,0.0390625,-0.984375,-0.12109375
417,0.03515625,-0.98828125,-0.125
418,0.04296875,-0.984375,-0.12109375
419,0.04296875,-0.98046875,-0.12890625
420,0.03125,-0.98828125,-0.10546875
421,0.05078125,-0.984375,-0.12890625
422,0.05078125,-1.0,-0.13671875
423,0.04296875,-0.98828125,-0.12109375
424,0.03515625,-0.98046875,-0.10546875
425,0.0390625,-0.98828125,-0.12890625
426,0.0390625,-1.0,-0.12109375
427,0.03515625,-0.9921875,-0.125
428,0.04296875,-0.98828125,-0.12109375
429,0.04296875,-1.0,-0.12109375
430,0.0390625,-0.99609375,-0.12109375
431,0.0390625,-0.9765625,-0.11328125
432,0.05078125,-1.0,-0.125
433,0.05078125,-0.99609375,-0.1171875
434,0.03515625,-1.0,-0.12890625
435,0.0546875,-0.98828125,-0.12109375
436,0.046875,-0.9921875,-0.12109375
437,0.05078125,-0.9921875,-0.13671875
438,0.046875,-0.98828125,-0.12890625
439,0.0390625,-0.9921875,-0.12109375
440,0.03515625,-0.984375,-0.109375
441,0.0546875,-0.9921875,-0.1171875
442,0.04296875,-0.99609375,-0.11328125
443,0.03125,-0.984375,-0.12890625
444,0.03515625,-0.98828125,-0.12109375
445,0.02734375,-0.98828125,-0.12890625
446,0.03515625,-0.99609375,-0.125
447,0.03515625,-0.984375,-0.12109375
448,0.02734375,-0.98828125,-0.12890625
449,0.03125,-0.99609375,-0.13671875
450,0.03515625,-0.9921875,-0.12109375
451,0.03515625,-0.9921875,-0.12890625
452,0.0234375,-0.9921875,-0.1171875
453,0.01953125,-0.98828125,-0.1171875
454,0.02734375,-0.9765625,-0.12890625
455,0.0234375,-0.99609375,-0.1171875
456,0.03125,-0.9921875,-0.13671875
457,0.02734375,-0.99609375,-0.125
458,0.03125,-0.98828125,-0.12109375
459,0.0234375,-0.984375,-0.12109375
460,0.03515625,-0.9921875,-0.12109375
461,0.0078125,-0.98828125,-0.16796875
462,0.01953125,-0.99609375,-0.12890625
463,0.015625,-1.00390625,-0.12890625
464,0.02734375,-1.0078125,-0.11328125
465,0.02734375,-1.0078125,-0.12890625
466,0.0234375,-1.0234375,-0.12109375
467,0.0390625,-1.02734375,-0.109375
468,0.046875,-1.01953125,-0.12890625
469,0.04296875,-1.0,-0.1171875
470,0.0546875,-1.0078125,-0.1171875
471,0.046875,-0.99609375,-0.11328125
472,0.0546875,-0.9921875,-0.1171875
473,0.0546875,-1.0,-0.1171875
474,0.04296875,-1.0078125,-0.125
475,0.0390625,-0.99609375,-0.12890625
476,0.03125,-1.0078125,-0.1171875
477,0.02734375,-1.03125,-0.1328125
478,0.0078125,-1.01171875,-0.13671875
479,0.01171875,-1.0234375,-0.15234375
480,0.00390625,-1.01953125,-0.140625
481,0.01171875,-1.0078125,-0.15234375
482,0.00390625,-0.98828125,-0.16015625
483,-0.01171875,-0.9609375,-0.17578125
484,0.0078125,-0.984375,-0.15625
485,0.00390625,-0.9765625,-0.140625
486,0.01171875,-0.97265625,-0.140625
487,0.01171875,-0.96875,-0.13671875
488,0.01171875,-0.96484375,-0.125
489,0.02734375,-0.94921875,-0.140625
490,0.01953125,-0.95703125,-0.12890625
491,0.0390625,-0.95703125,-0.125
492,0.04296875,-0.953125,-0.1328125
493,0.01171875,-0.94140625,-0.15234375
494,0.0546875,-0.97265625,-0.12890625
495,0.078125,-0.984375,-0.12109375
496,0.07421875,-0.9765625,-0.13671875
497,0.078125,-0.98828125,-0.11328125
498,0.08203125,-0.99609375,-0.13671875
499,0.1015625,-1.00390625,-0.1640625
500,0.109375,-0.99609375,-0.15234375
501,0.0859375,-1.0078125,-0.1796875
502,0.08984375,-1.01953125,-0.17578125
503,0.09375,-1.04296875,-0.19140625
504,0.09375,-1.015625,-0.2109375
505,0.10546875,-1.03515625,-0.171875
506,0.12109375,-1.0546875,-0.171875
507,0.11328125,-1.0546875,-0.16796875
508,0.1015625,-1.03515625,-0.15625
509,0.09375,-1.03125,-0.1640625
510,0.0859375,-1.03125,-0.18359375
511,0.05859375,-1.01171875,-0.1640625
512,0.0546875,-1.0078125,-0.16015625
513,0.01953125,-0.98046875,-0.1640625
514,0.0,-0.9765625,-0.16015625
515,-0.04296875,-0.9921875,-0.12109375
516,-0.015625,-0.9765625,-0.1484375
517,-0.03125,-0.96484375,-0.16015625
518,-0.03515625,-0.95703125,-0.1640625
519,-0.03125,-0.96484375,-0.18359375
520,-0.03125,-0.98046875,-0.1953125
521,-0.015625,-0.98828125,-0.19140625
522,0.0078125,-0.99609375,-0.2109375
523,0.02734375,-1.0078125,-0.21875
524,0.04296875,-1.01171875,-0.21875
525,0.08203125,-1.0390625,-0.23046875
526,0.1015625,-1.01953125,-0.2265625
527,0.1015625,-1.03125,-0.265625
528,0.11328125,-1.03515625,-0.28125
529,0.08203125,-1.00390625,-0.30078125
530,0.1015625,-1.02734375,-0.3125
531,0.1015625,-1.015625,-0.3203125
532,0.0859375,-0.984375,-0.30859375
533,0.08984375,-0.9765625,-0.33984375
534,0.1328125,-0.97265625,-0.33203125
535,0.15234375,-0.94921875,-0.30078125
536,0.0859375,-0.90234375,-0.31640625
537,0.1640625,-0.90234375,-0.3203125
538,0.11328125,-0.875,-0.296875
539,0.11328125,-0.84765625,-0.28125
540,0.12109375,-0.8359375,-0.2578125
541,0.1328125,-0.84375,-0.23046875
542,0.09765625,-0.8671875,-0.171875
543,0.078125,-0.859375,-0.15234375
544,0.07421875,-0.90625,-0.1171875
545,0.0859375,-0.9296875,-0.1328125
546,0.04296875,-0.9375,-0.125
547,0.03125,-0.96875,-0.06640625
548,0.046875,-1.00390625,-0.03125
549,0.03515625,-1.05859375,-0.0078125
550,0.046875,-1.140625,-0.00390625
551,0.015625,-1.18359375,-0.015625
552,-0.00390625,-1.234375,-0.078125
553,-0.02734375,-1.2734375,-0.15234375
554,0.0078125,-1.30078125,-0.16796875
555,0.0078125,-1.3125,-0.16796875
556,-0.04296875,-1.32421875,-0.203125
557,-0.23828125,-1.31640625,-0.203125
558,-0.28515625,-1.30078125,-0.1640625
559,-0.26171875,-1.28515625,-0.13671875
560,-0.1796875,-1.23046875,-0.1171875
561,-0.09375,-1.203125,-0.1171875
562,0.10546875,-1.17578125,-0.125
563,-0.0703125,-1.078125,-0.16796875
564,-0.078125,-1.03515625,-0.18359375
565,-0.07421875,-0.96484375,-0.18359375
566,-0.05078125,-0.92578125,-0.2421875
567,-0.12890625,-0.87890625,-0.26953125
568,-0.09765625,-0.90234375,-0.296875
569,-0.1328125,-0.90234375,-0.28125
570,-0.1953125,-0.921875,-0.28125
571,-0.1875,-0.96484375,-0.29296875
572,-0.234375,-1.00390625,-0.27734375
573,-0.25,-1.0546875,-0.25390625
574,-0.29296875,-1.11328125,-0.21875
575,-0.33984375,-1.109375,-0.21484375
576,-0.3984375,-1.0859375,-0.21875
577,-0.46484375,-1.05859375,-0.2265625
578,-0.50390625,-1.0390625,-0.21875
579,-0.51953125,-1.0,-0.2265625
580,-0.546875,-0.98046875,-0.2109375
581,-0.52734375,-0.9609375,-0.19140625
582,-0.5390625,-0.9140625,-0.203125
583,-0.5390625,-0.8671875,-0.1796875
584,-0.546875,-0.85546875,-0.1640625
585,-0.5390625,-0.83203125,-0.16796875
586,-0.56640625,-0.80859375,-0.12109375
587,-0.58984375,-0.78515625,-0.1171875
588,-0.578125,-0.76953125,-0.10546875
589,-0.59375,-0.73828125,-0.10546875
590,-0.5859375,-0.765625,-0.05859375
591,-0.578125,-0.78125,-0.03125
592,-0.546875,-0.77734375,-0.03125
593,-0.53515625,-0.76953125,-0.02734375
594,-0.50390625,-0.765625,0.01171875
595,-0.484375,-0.76953125,0.0
596,-0.4765625,-0.78125,0.0
597,-0.46484375,-0.80859375,0.0078125
598,-0.46875,-0.83203125,0.0
599,-0.51171875,-0.84375,0.01171875
600,-0.5546875,-0.8515625,-0.02734375
601,-0.59765625,-0.84765625,-0.015625
602,-0.65234375,-0.82421875,-0.02734375
603,-0.6640625,-0.81640625,-0.00390625
604,-0.6796875,-0.76953125,0.0078125
605,-0.66796875,-0.71875,0.02734375
606,-0.65234375,-0.6640625,0.03515625
607,-0.62890625,-0.5703125,0.03515625
608,-0.62109375,-0.48828125,0.046875
609,-0.5703125,-0.4453125,0.05078125
610,-0.56640625,-0.41015625,0.04296875
611,-0.546875,-0.39453125,0.046875
612,-0.54296875,-0.40625,0.06640625
613,-0.5703125,-0.42578125,0.0625
614,-0.58984375,-0.4453125,0.04296875
615,-0.63671875,-0.453125,0.0546875
616,-0.65625,-0.46484375,0.03515625
617,-0.703125,-0.5,0.02734375
618,-0.7734375,-0.515625,0.0234375
619,-0.859375,-0.54296875,0.015625
620,-0.90625,-0.55859375,-0.0078125
621,-0.953125,-0.546875,0.0
622,-0.98828125,-0.53515625,0.03125
623,-1.02734375,-0.515625,0.04296875
624,-1.0234375,-0.4765625,0.0390625
625,-1.0390625,-0.44140625,0.03515625
626,-1.05859375,-0.40625,0.05078125
627,-1.0234375,-0.359375,0.0546875
628,-1.03515625,-0.31640625,0.05078125
629,-1.0390625,-0.2734375,0.078125
630,-1.00390625,-0.27734375,0.09765625
631,-0.98828125,-0.26953125,0.07421875
632,-0.91015625,-0.26953125,0.04296875
633,-0.8828125,-0.3046875,0.01171875
634,-0.87109375,-0.34375,-0.02734375
635,-0.828125,-0.38671875,-0.0703125
636,-0.8125,-0.39453125,-0.09765625
637,-0.7890625,-0.3984375,-0.11328125
638,-0.74609375,-0.38671875,-0.1328125
639,-0.75390625,-0.3671875,-0.1328125
640,-0.79296875,-0.375,-0.11328125
641,-0.83203125,-0.328125,-0.08984375
642,-0.8671875,-0.30859375,-0.03515625
643,-0.8671875,-0.28515625,-0.01953125
644,-0.88671875,-0.23828125,0.01171875
645,-0.9609375,-0.21875,0.01171875
646,-1.01953125,-0.20703125,0.05859375
647,-1.0546875,-0.20703125,0.109375
648,-1.0625,-0.20703125,0.12890625
649,-1.0703125,-0.20703125,0.1015625
650,-1.0703125,-0.23046875,0.08203125
651,-1.0625,-0.2578125,0.06640625
652,-1.0390625,-0.2734375,0.0546875
653,-1.015625,-0.28125,0.0625
654,-1.01171875,-0.28515625,0.08984375
655,-0.99609375,-0.28515625,0.0703125
656,-0.97265625,-0.27734375,0.06640625
657,-0.98046875,-0.26171875,0.06640625
658,-1.00390625,-0.24609375,0.1171875
659,-1.0234375,-0.22265625,0.15234375
660,-1.015625,-0.21875,0.16796875
661,-1.03125,-0.2109375,0.14453125
662,-1.01171875,-0.19140625,0.12109375
663,-1.0078125,-0.16796875,0.08984375
664,-1.0,-0.1640625,0.07421875
665,-0.984375,-0.18359375,0.0859375
666,-0.984375,-0.16796875,0.09375
667,-1.0078125,-0.15625,0.10546875
668,-1.00390625,-0.15625,0.09375
669,-1.01171875,-0.15625,0.06640625
670,-1.0078125,-0.15625,0.0546875
671,-1.03515625,-0.1328125,0.1171875
672,-1.0703125,-0.1015625,0.15234375
673,-1.09375,-0.078125,0.2109375
674,-1.109375,-0.0546875,0.23828125
675,-1.125,-0.0390625,0.24609375
676,-1.125,-0.046875,0.24609375
677,-1.08203125,-0.04296875,0.23828125
678,-1.0703125,-0.046875,0.2265625
679,-1.01171875,-0.0546875,0.19921875
680,-0.96875,-0.0625,0.171875
681,-0.9453125,-0.0703125,0.17578125
682,-0.90625,-0.06640625,0.1640625
683,-0.85546875,-0.078125,0.13671875
684,-0.85546875,-0.08984375,0.12109375
685,-0.8671875,-0.078125,0.15234375
686,-0.8984375,-0.07421875,0.2109375
687,-1.00390625,-0.09765625,0.28125
688,-1.00390625,-0.10546875,0.30078125
689,-1.0390625,-0.09375,0.32421875
690,-1.01953125,-0.10546875,0.2890625
691,-1.00390625,-0.12109375,0.2890625
692,-1.0234375,-0.1328125,0.30078125
693,-1.03515625,-0.10546875,0.3046875
694,-1.03515625,-0.09375,0.3125
695,-1.046875,-0.078125,0.31640625
696,-1.0078125,-0.0546875,0.3359375
697,-0.95703125,-0.03125,0.32421875
698,-0.9140625,-0.0390625,0.328125
699,-0.90234375,-0.03515625,0.36328125
700,-0.90234375,-0.03515625,0.3671875
701,-0.91015625,-0.05078125,0.37109375
702,-0.91015625,-0.0546875,0.37109375
703,-0.90234375,-0.0703125,0.34765625
704,-0.8828125,-0.09375,0.33203125
705,-0.8671875,-0.1015625,0.34375
706,-0.85546875,-0.109375,0.34375
707,-0.8203125,-0.11328125,0.36328125
708,-0.8125,-0.09765625,0.38671875
709,-0.79296875,-0.08984375,0.3984375
710,-0.74609375,-0.0703125,0.42578125
711,-0.72265625,-0.0546875,0.44140625
712,-0.6640625,-0.046875,0.44921875
713,-0.62109375,-0.04296875,0.46875
714,-0.6015625,-0.046875,0.484375
715,-0.5859375,-0.05078125,0.47265625
716,-0.5703125,-0.0546875,0.44140625
717,-0.55859375,-0.078125,0.43359375
718,-0.5546875,-0.09375,0.4375
719,-0.54296875,-0.09375,0.5078125
720,-0.546875,-0.0859375,0.54296875
721,-0.5625,-0.1015625,0.5546875
722,-0.5703125,-0.125,0.546875
723,-0.58984375,-0.125,0.53125
724,-0.609375,-0.13671875,0.5078125
725,-0.66015625,-0.109375,0.50390625
726,-0.69921875,-0.08203125,0.5078125
727,-0.7421875,-0.05859375,0.51953125
728,-0.76953125,-0.0234375,0.51953125
729,-0.7890625,-0.0078125,0.51171875
730,-0.80078125,0.01953125,0.53515625
731,-0.8046875,0.03125,0.49609375
732,-0.8046875,0.0390625,0.50390625
733,-0.81640625,0.0703125,0.4921875
734,-0.796875,0.06640625,0.5078125
735,-0.796875,0.07421875,0.49609375
736,-0.7734375,0.09765625,0.5
737,-0.80859375,0.140625,0.47265625
738,-0.73046875,0.125,0.48828125
739,-0.7109375,0.12890625,0.47265625
740,-0.72265625,0.1484375,0.48046875
741,-0.69921875,0.12890625,0.53125
742,-0.68359375,0.1171875,0.5703125
743,-0.6953125,0.11328125,0.60546875
744,-0.6796875,0.07421875,0.5859375
745,-0.6640625,0.0234375,0.57421875
746,-0.671875,0.015625,0.54296875
747,-0.66796875,-0.0234375,0.53125
748,-0.6796875,-0.03515625,0.51171875
749,-0.69140625,-0.02734375,0.5078125
750,-0.67578125,-0.01171875,0.49609375
751,-0.6796875,-0.01171875,0.5
752,-0.703125,0.00390625,0.49609375
753,-0.703125,0.0234375,0.48828125
754,-0.70703125,0.015625,0.4765625
755,-0.7265625,0.015625,0.4921875
756,-0.74609375,0.04296875,0.4921875
757,-0.7421875,0.0546875,0.46875
758,-0.76953125,0.05859375,0.46484375
759,-0.80078125,0.0703125,0.47265625
760,-0.83203125,0.06640625,0.4609375
761,-0.74609375,0.0625,0.515625
762,-0.76171875,0.046875,0.52734375
763,-0.74609375,0.04296875,0.55078125
764,-0.74609375,0.03515625,0.55859375
765,-0.75390625,0.01953125,0.5703125
766,-0.75390625,0.01171875,0.55078125
767,-0.74609375,-0.0078125,0.53125
768,-0.703125,0.00390625,0.5390625
769,-0.6953125,-0.015625,0.50390625
770,-0.69921875,-0.02734375,0.515625
771,-0.73046875,-0.015625,0.49609375
772,-0.7109375,-0.04296875,0.5
773,-0.75390625,-0.0234375,0.49609375
774,-0.76953125,-0.04296875,0.48828125
775,-0.7734375,-0.0546875,0.52734375
776,-0.80078125,-0.03125,0.48046875
777,-0.76953125,-0.015625,0.48046875
778,-0.734375,0.01953125,0.4765625
779,-0.75,0.03515625,0.46875
780,-0.7578125,0.046875,0.44921875
781,-0.765625,0.05078125,0.45703125
782,-0.7734375,0.05859375,0.46875
783,-0.78515625,0.0625,0.45703125
784,-0.7578125,0.07421875,0.4765625
785,-0.79296875,0.0859375,0.44140625
786,-0.828125,0.0546875,0.4765625
787,-0.8125,0.078125,0.4140625
788,-0.8203125,0.0390625,0.41796875
789,-0.83984375,0.03515625,0.41796875
790,-0.86328125,0.02734375,0.41015625
791,-0.87109375,0.01171875,0.4140625
792,-0.8984375,0.01171875,0.41015625
793,-0.88671875,-0.01953125,0.390625
794,-0.875,-0.015625,0.36328125
795,-0.88671875,-0.03125,0.35546875
796,-0.859375,-0.09375,0.3828125
797,-0.8828125,-0.0703125,0.32421875
798,-0.875,-0.0625,0.3203125
799,-0.8828125,-0.05078125,0.31640625
800,-0.89453125,-0.0703125,0.28515625
801,-0.94921875,-0.07421875,0.2890625
802,-0.92578125,-0.0859375,0.2890625
803,-0.921875,-0.1171875,0.2734375
804,-0.94921875,-0.1328125,0.24609375
805,-0.95703125,-0.12890625,0.26953125
806,-0.984375,-0.11328125,0.2265625
807,-1.0078125,-0.14453125,0.23828125
808,-1.04296875,-0.10546875,0.1875
809,-1.05859375,-0.12890625,0.19921875
810,-1.0625,-0.140625,0.1953125
811,-1.07421875,-0.13671875,0.19921875
812,-1.078125,-0.13671875,0.1875
813,-1.046875,-0.11328125,0.2109375
814,-1.078125,-0.1015625,0.20703125
815,-1.07421875,-0.12109375,0.1875
816,-1.11328125,-0.1484375,0.15625
817,-1.046875,-0.1171875,0.22265625
818,-1.0078125,-0.1328125,0.23046875
819,-1.015625,-0.12890625,0.234375
820,-1.01171875,-0.1640625,0.2265625
821,-0.9609375,-0.16796875,0.27734375
822,-0.9140625,-0.1875,0.2890625
823,-0.90625,-0.1953125,0.28125
824,-0.9296875,-0.20703125,0.27734375
825,-0.87109375,-0.21484375,0.2734375
826,-0.8203125,-0.21875,0.2890625
827,-0.8203125,-0.21875,0.2734375
828,-0.828125,-0.21484375,0.27734375
829,-0.78515625,-0.21875,0.2734375
830,-0.78125,-0.20703125,0.28515625
831,-0.796875,-0.19921875,0.265625
832,-0.81640625,-0.18359375,0.265625
833,-0.8125,-0.17578125,0.265625
834,-0.82421875,-0.15625,0.26953125
835,-0.84765625,-0.15625,0.27734375
836,-0.84375,-0.15234375,0.28125
837,-0.8671875,-0.16015625,0.265625
838,-0.88671875,-0.171875,0.265625
839,-0.875,-0.1796875,0.26953125
840,-0.8828125,-0.1640625,0.2734375
841,-0.890625,-0.17578125,0.2734375
842,-0.91796875,-0.21484375,0.26953125
843,-0.8984375,-0.203125,0.2890625
844,-0.90625,-0.19921875,0.28515625
845,-0.93359375,-0.18359375,0.2734375
846,-0.93359375,-0.18359375,0.26171875
847,-0.94140625,-0.1640625,0.2421875
848,-0.9453125,-0.12890625,0.234375
849,-0.9609375,-0.10546875,0.21875
850,-0.9609375,-0.08203125,0.19140625
851,-0.96875,-0.0703125,0.1796875
852,-0.984375,-0.0703125,0.171875
853,-0.98828125,-0.08203125,0.18359375
854,-0.98828125,-0.09375,0.15625
855,-1.0,-0.10546875,0.1796875
856,-1.00390625,-0.11328125,0.1640625
857,-0.99609375,-0.12890625,0.18359375
858,-0.99609375,-0.14453125,0.171875
859,-0.98828125,-0.13671875,0.17578125
860,-1.0,-0.14453125,0.16796875
861,-0.9921875,-0.140625,0.1640625
862,-0.98828125,-0.12109375,0.15234375
863,-0.99609375,-0.10546875,0.1640625
864,-1.0,-0.09765625,0.1328125
865,-0.9921875,-0.0859375,0.13671875
866,-0.984375,-0.078125,0.13671875
867,-0.98046875,-0.0703125,0.14453125
868,-1.0,-0.06640625,0.12890625
869,-0.99609375,-0.0625,0.12109375
870,-1.015625,-0.05859375,0.1171875
871,-0.99609375,-0.0546875,0.109375
872,-1.00390625,-0.0546875,0.109375
873,-1.01171875,-0.03515625,0.09375
874,-1.0,-0.02734375,0.08984375
875,-0.99609375,-0.02734375,0.07421875
876,-0.984375,-0.01953125,0.08203125
877,-0.9765625,-0.03125,0.08984375
878,-0.98828125,-0.0390625,0.09765625
879,-0.98828125,-0.03515625,0.1015625
880,-0.97265625,-0.03125,0.10546875
881,-0.984375,-0.04296875,0.1015625
882,-0.9921875,-0.0390625,0.125
883,-1.0,-0.03515625,0.109375
884,-1.0,-0.046875,0.10546875
885,-1.03125,-0.04296875,0.09765625
886,-1.03125,-0.0625,0.10546875
887,-1.04296875,-0.05859375,0.109375
888,-1.04296875,-0.04296875,0.1015625
889,-1.0390625,-0.04296875,0.08203125
890,-1.02734375,-0.03125,0.08203125
891,-1.0234375,-0.0234375,0.08203125
892,-1.02734375,-0.015625,0.08984375
893,-1.03125,0.015625,0.10546875
894,-1.01953125,-0.00390625,0.08203125
895,-1.00390625,-0.015625,0.109375
896,-1.00390625,-0.015625,0.11328125
897,-1.0,-0.0234375,0.125
898,-0.99609375,-0.01953125,0.09375
899,-1.0078125,-0.04296875,0.109375
900,-0.9921875,-0.05078125,0.09375
901,-1.015625,-0.05859375,0.1015625
902,-1.0078125,-0.0546875,0.10546875
903,-1.0078125,-0.078125,0.10546875
904,-1.01171875,-0.0703125,0.09375
905,-1.00390625,-0.07421875,0.12109375
906,-1.01171875,-0.0703125,0.11328125
907,-1.00390625,-0.08203125,0.10546875
908,-1.00390625,-0.0859375,0.11328125
909,-0.984375,-0.09765625,0.1171875
910,-0.984375,-0.1015625,0.125
911,-0.96875,-0.09765625,0.13671875
912,-0.96484375,-0.07421875,0.140625
913,-0.95703125,-0.05859375,0.12890625
914,-0.95703125,-0.04296875,0.11328125
915,-0.94140625,-0.02734375,0.12109375
916,-0.9375,-0.01171875,0.140625
917,-0.94140625,0.0,0.14453125
918,-0.9453125,-0.01171875,0.125
919,-0.94921875,-0.01953125,0.15234375
920,-0.94921875,-0.02734375,0.16015625
921,-0.94921875,-0.046875,0.1640625
922,-0.953125,-0.07421875,0.17578125
923,-0.9453125,-0.09375,0.19140625
924,-0.953125,-0.109375,0.21484375
925,-0.9453125,-0.1171875,0.21875
926,-0.9609375,-0.1171875,0.23046875
927,-0.921875,-0.13671875,0.25
928,-0.9140625,-0.140625,0.2265625
929,-0.9140625,-0.12890625,0.2265625
930,-0.90625,-0.1328125,0.21875
931,-0.91015625,-0.1015625,0.22265625
932,-0.92578125,-0.09375,0.2109375
933,-0.921875,-0.09765625,0.203125
934,-0.92578125,-0.09765625,0.19140625
935,-0.93359375,-0.1015625,0.2109375
936,-0.94921875,-0.109375,0.203125
937,-0.9609375,-0.10546875,0.203125
938,-0.9765625,-0.11328125,0.203125
939,-0.96875,-0.10546875,0.203125
940,-0.96484375,-0.09765625,0.19140625
941,-0.98046875,-0.09765625,0.19140625
942,-0.96484375,-0.09375,0.1875
943,-0.9765625,-0.1171875,0.19921875
944,-0.96875,-0.09765625,0.1953125
945,-0.95703125,-0.10546875,0.203125
946,-0.96875,-0.08984375,0.19921875
947,-0.9765625,-0.08984375,0.1796875
948,-0.96484375,-0.1015625,0.18359375
949,-0.94921875,-0.10546875,0.18359375
950,-0.95703125,-0.09765625,0.16796875
951,-0.96875,-0.09375,0.18359375
952,-0.95703125,-0.1015625,0.19921875
953,-0.953125,-0.08984375,0.18359375
954,-0.953125,-0.10546875,0.1875
955,-0.9453125,-0.1171875,0.19140625
956,-0.9375,-0.109375,0.1875
957,-0.94921875,-0.08984375,0.19921875
958,-0.9609375,-0.0859375,0.1796875
959,-0.94140625,-0.06640625,0.1796875
960,-0.9453125,-0.0625,0.1796875
961,-0.94921875,-0.0546875,0.15234375
962,-0.95703125,-0.03125,0.15234375
963,-0.96484375,-0.015625,0.14453125
964,-0.9765625,-0.01953125,0.16015625
965,-0.9765625,-0.0234375,0.15234375
966,-0.9765625,-0.03515625,0.1328125
967,-0.9765625,-0.03515625,0.14453125
968,-0.9765625,-0.04296875,0.16015625
969,-0.97265625,-0.0546875,0.16015625
970,-0.97265625,-0.0625,0.15625
971,-0.9609375,-0.0703125,0.16015625
972,-0.97265625,-0.078125,0.171875
973,-0.95703125,-0.08984375,0.1640625
974,-0.96875,-0.08203125,0.16796875
975,-0.9609375,-0.08984375,0.15625
976,-0.9765625,-0.09375,0.140625
977,-0.97265625,-0.09765625,0.14453125
978,-0.96875,-0.0859375,0.13671875
979,-0.9765625,-0.08203125,0.1328125
980,-0.96875,-0.0859375,0.140625
981,-0.95703125,-0.08203125,0.13671875
982,-0.97265625,-0.08984375,0.13671875
983,-0.98046875,-0.07421875,0.14453125
984,-1.0078125,-0.0703125,0.12890625
985,-1.01953125,-0.05859375,0.1484375
986,-0.953125,-0.078125,0.15625
987,-0.94921875,-0.0703125,0.15625
988,-0.953125,-0.07421875,0.1484375
989,-0.9609375,-0.05078125,0.15625
990,-0.98828125,-0.04296875,0.15234375
991,-1.00390625,-0.03125,0.15625
992,-1.01171875,-0.03515625,0.14453125
993,-0.9375,-0.04296875,0.15234375
994,-0.96875,-0.04296875,0.12890625
995,-0.96875,-0.04296875,0.15625
996,-0.98828125,-0.04296875,0.15234375
997,-0.98046875,-0.046875,0.1484375
998,-0.984375,-0.05078125,0.16015625
999,-0.9765625,-0.0625,0.1328125
1000,-0.984375,-0.0546875,0.13671875
1001,-0.9921875,-0.0625,0.13671875
1002,-0.98046875,-0.0625,0.13671875
1003,-0.97265625,-0.06640625,0.15234375
1004,-0.96484375,-0.05859375,0.15234375
1005,-0.98046875,-0.0546875,0.13671875
1006,-0.9765625,-0.07421875,0.1484375
1007,-0.953125,-0.06640625,0.1484375
1008,-0.94921875,-0.05078125,0.171875
1009,-0.96484375,-0.05859375,0.16015625
1010,-0.96484375,-0.0703125,0.1640625
1011,-0.953125,-0.0546875,0.1796875
1012,-0.96484375,-0.05859375,0.1953125
1013,-0.96875,-0.0546875,0.18359375
1014,-0.96484375,-0.0546875,0.18359375
1015,-0.96875,-0.05859375,0.19140625
1016,-0.95703125,-0.05859375,0.1875
1017,-0.9609375,-0.04296875,0.19140625
1018,-0.95703125,-0.05078125,0.1875
1019,-0.95703125,-0.05078125,0.203125
1020,-0.96875,-0.0390625,0.17578125
1021,-0.97265625,-0.0703125,0.16796875
1022,-0.96875,-0.06640625,0.1796875
1023,-0.96484375,-0.06640625,0.18359375
1024,-0.9609375,-0.0625,0.171875
1025,-0.9609375,-0.07421875,0.16796875
1026,-0.9609375,-0.0703125,0.18359375
1027,-0.953125,-0.078125,0.19921875
1028,-0.953125,-0.0703125,0.16796875
1029,-0.94921875,-0.0859375,0.18359375
1030,-0.9375,-0.09375,0.17578125
1031,-0.95703125,-0.09765625,0.1875
1032,-0.984375,-0.09375,0.20703125
1033,-0.9609375,-0.0859375,0.2109375
1034,-0.921875,-0.109375,0.21484375
1035,-0.92578125,-0.1171875,0.2109375
1036,-0.9375,-0.12109375,0.203125
1037,-0.94140625,-0.12109375,0.19140625
1038,-0.94140625,-0.09375,0.203125
1039,-0.9375,-0.1015625,0.16796875
1040,-0.93359375,-0.109375,0.1953125
1041,-0.93359375,-0.10546875,0.1875
1042,-0.94140625,-0.1015625,0.1875
1043,-0.93359375,-0.12109375,0.19921875
1044,-0.92578125,-0.10546875,0.19921875
1045,-0.95703125,-0.09375,0.203125
1046,-0.94140625,-0.0859375,0.20703125
1047,-0.94921875,-0.08203125,0.20703125
1048,-0.9453125,-0.0703125,0.2109375
1049,-1.08984375,-0.0546875,0.18359375
1050,-1.00390625,-0.06640625,0.203125
1051,-0.88671875,-0.08203125,0.20703125
1052,-0.87109375,-0.06640625,0.19140625
1053,-0.94140625,-0.07421875,0.19921875
1054,-0.96875,-0.05859375,0.19140625
1055,-0.97265625,-0.0625,0.17578125
1056,-0.96875,-0.0703125,0.19140625
1057,-0.96875,-0.0703125,0.18359375
1058,-0.95703125,-0.078125,0.17578125
1059,-0.96484375,-0.08203125,0.17578125
1060,-0.97265625,-0.0625,0.171875
1061,-0.96875,-0.0859375,0.16796875
1062,-0.984375,-0.07421875,0.17578125
1063,-1.04296875,-0.07421875,0.16796875
1064,-0.93359375,-0.0859375,0.1875
1065,-0.875,-0.0859375,0.1953125
1066,-0.92578125,-0.0625,0.18359375
1067,-0.94921875,-0.05859375,0.19140625
1068,-0.94921875,-0.05859375,0.19140625
1069,-0.94921875,-0.05859375,0.18359375
1070,-0.94921875,-0.0625,0.1953125
1071,-0.9375,-0.0703125,0.1875
1072,-0.95703125,-0.06640625,0.20703125
1073,-0.96484375,-0.0625,0.19921875
1074,-0.9609375,-0.0546875,0.18359375
1075,-1.05078125,-0.03125,0.16796875
1076,-1.01171875,-0.05859375,0.17578125
1077,-0.92578125,-0.046875,0.203125
1078,-0.875,-0.05078125,0.19921875
1079,-0.9296875,-0.03125,0.2109375
1080,-0.9453125,-0.04296875,0.1875
1081,-0.9609375,-0.04296875,0.19140625
1082,-0.953125,-0.03515625,0.2109375
1083,-0.9375,-0.05078125,0.2109375
1084,-0.953125,-0.0390625,0.20703125
1085,-0.9453125,-0.0546875,0.2109375
1086,-0.97265625,-0.04296875,0.23046875
1087,-0.9453125,-0.046875,0.2109375
1088,-0.9453125,-0.0546875,0.21484375
1089,-0.94921875,-0.05078125,0.203125
1090,-0.9453125,-0.0234375,0.18359375
1091,-0.9453125,-0.06640625,0.203125
1092,-0.9609375,-0.0390625,0.2109375
1093,-0.9453125,-0.05078125,0.19921875
1094,-0.95703125,-0.0546875,0.19921875
1095,-0.9609375,-0.0546875,0.22265625
1096,-0.9453125,-0.0625,0.21484375
1097,-0.9453125,-0.0625,0.21484375
1098,-0.9453125,-0.06640625,0.21484375
1099,-0.94921875,-0.0625,0.22265625
1100,-0.94921875,-0.06640625,0.203125
1101,-0.98046875,-0.046875,0.2109375
1102,-0.95703125,-0.07421875,0.21875
1103,-0.96484375,-0.0625,0.203125
1104,-0.9453125,-0.05859375,0.19921875
1105,-0.94140625,-0.0625,0.2109375
1106,-0.92578125,-0.06640625,0.19140625
1107,-0.94921875,-0.0546875,0.2109375
1108,-0.95703125,-0.0546875,0.19921875
1109,-0.9453125,-0.05859375,0.21484375
1110,-0.9453125,-0.05859375,0.19921875
1111,-0.94921875,-0.05859375,0.20703125
1112,-0.90625,-0.02734375,0.1640625
1113,-0.953125,-0.05078125,0.20703125
1114,-0.94921875,-0.0546875,0.2109375
1115,-0.94921875,-0.06640625,0.21875
1116,-0.94921875,-0.05859375,0.21484375
1117,-0.95703125,-0.046875,0.19140625
1118,-0.953125,-0.0625,0.21875
1119,-0.953125,-0.05859375,0.21484375
1120,-0.9375,-0.0546875,0.20703125
1121,-0.95703125,-0.0546875,0.234375
1122,-0.9296875,-0.02734375,0.16015625
1123,-0.953125,-0.05859375,0.21875
1124,-0.94140625,-0.0625,0.21484375
1125,-0.9375,-0.046875,0.2109375
1126,-0.94921875,-0.046875,0.19140625
1127,-0.95703125,-0.0546875,0.2109375
1128,-0.9453125,-0.05859375,0.20703125
1129,-0.94921875,-0.05859375,0.2109375
1130,-0.9453125,-0.05859375,0.203125
1131,-0.953125,-0.05859375,0.2109375
1132,-0.95703125,-0.06640625,0.19921875
1133,-0.953125,-0.046875,0.20703125
1134,-0.9609375,-0.05078125,0.21484375
1135,-0.9453125,-0.05078125,0.203125
1136,-0.94921875,-0.05859375,0.19921875
1137,-0.9453125,-0.05859375,0.1953125
1138,-0.94140625,-0.05859375,0.19921875
1139,-0.94921875,-0.0546875,0.2109375
1140,-0.93359375,-0.05859375,0.20703125
1141,-0.94921875,-0.06640625,0.19921875
1142,-0.953125,-0.07421875,0.203125
1143,-0.94921875,-0.0625,0.19921875
1144,-0.9375,-0.07421875,0.20703125
1145,-0.94921875,-0.06640625,0.203125
1146,-0.94921875,-0.06640625,0.20703125
1147,-0.953125,-0.06640625,0.20703125
1148,-0.9375,-0.0703125,0.21484375
1149,-0.94921875,-0.05078125,0.2109375
1150,-0.95703125,-0.05859375,0.21484375
1151,-0.9609375,-0.05078125,0.21875
1152,-0.953125,-0.05078125,0.20703125
1153,-0.9453125,-0.05078125,0.2109375
1154,-0.9609375,-0.05078125,0.19140625
1155,-0.953125,-0.0546875,0.2109375
1156,-0.9453125,-0.046875,0.20703125
1157,-0.9609375,-0.05078125,0.19921875
1158,-0.95703125,-0.0390625,0.20703125
1159,-0.96875,-0.046875,0.1953125
1160,-0.95703125,-0.03515625,0.21875
1161,-0.9375,-0.05859375,0.21484375
1162,-0.9375,-0.0546875,0.2109375
1163,-0.94140625,-0.046875,0.2109375
1164,-0.9296875,-0.05078125,0.203125
1165,-0.94921875,-0.0546875,0.1875
1166,-0.95703125,-0.0546875,0.20703125
1167,-0.95703125,-0.06640625,0.203125
1168,-0.95703125,-0.05859375,0.203125
1169,-0.94921875,-0.05078125,0.203125
1170,-0.953125,-0.05859375,0.203125
1171,-0.95703125,-0.046875,0.21875
1172,-0.9453125,-0.05078125,0.21875
1173,-0.94140625,-0.04296875,0.2265625
1174,-0.94140625,-0.046875,0.23046875
1175,-0.94921875,-0.05078125,0.21875
1176,-0.953125,-0.05078125,0.23046875
1177,-0.93359375,-0.0546875,0.22265625
1178,-0.94140625,-0.08203125,0.2109375
1179,-0.9453125,-0.078125,0.19921875
1180,-0.94921875,-0.08203125,0.20703125
1181,-0.953125,-0.0859375,0.19921875
1182,-0.96875,-0.0859375,0.19140625
1183,-0.9375,-0.07421875,0.171875
1184,-0.95703125,-0.06640625,0.1875
1185,-0.953125,-0.06640625,0.19140625
1186,-0.953125,-0.0546875,0.1875
1187,-0.953125,-0.0546875,0.19921875
1188,-0.953125,-0.0390625,0.203125
1189,-0.9453125,-0.046875,0.203125
1190,-0.9453125,-0.02734375,0.20703125
1191,-0.94921875,-0.03125,0.21484375
1192,-0.94921875,-0.01953125,0.20703125
1193,-0.94921875,-0.01171875,0.203125
1194,-0.94921875,-0.01953125,0.21484375
1195,-0.96484375,-0.01953125,0.22265625
1196,-0.953125,-0.03515625,0.20703125
1197,-0.953125,-0.02734375,0.2265625
1198,-0.95703125,-0.0234375,0.22265625
1199,-0.95703125,-0.01953125,0.20703125
1200,-0.97265625,-0.02734375,0.2109375
1201,-0.94140625,-0.04296875,0.2265625
1202,-0.94140625,-0.0390625,0.21875
1203,-0.94921875,-0.02734375,0.21875
1204,-0.94140625,-0.03515625,0.21875
1205,-0.94140625,-0.03515625,0.21875
1206,-0.94921875,-0.0390625,0.20703125
1207,-0.9453125,-0.02734375,0.21484375
1208,-0.953125,-0.02734375,0.21484375
1209,-0.9453125,-0.02734375,0.21875
1210,-0.95703125,-0.03125,0.21484375
1211,-0.953125,-0.0234375,0.20703125
1212,-0.953125,-0.0234375,0.20703125
1213,-0.95703125,-0.0234375,0.21484375
1214,-0.94140625,-0.03125,0.21875
1215,-0.9453125,-0.03125,0.2109375
1216,-0.94140625,-0.0390625,0.21484375
1217,-0.9453125,-0.05078125,0.20703125
1218,-0.9453125,-0.0390625,0.19921875
1219,-0.953125,-0.03515625,0.21484375
1220,-0.95703125,-0.03125,0.19921875
1221,-0.95703125,-0.03125,0.2109375
1222,-0.95703125,-0.0390625,0.20703125
1223,-0.9609375,-0.03515625,0.22265625
1224,-0.95703125,-0.03125,0.203125
1225,-0.9453125,-0.02734375,0.20703125
1226,-0.94921875,-0.03125,0.203125
1227,-0.94921875,-0.03515625,0.21484375
1228,-0.953125,-0.02734375,0.19140625
1229,-0.9453125,-0.046875,0.21484375
1230,-0.953125,-0.04296875,0.22265625
1231,-0.94921875,-0.046875,0.21875
1232,-0.953125,-0.0546875,0.2109375
1233,-0.94921875,-0.046875,0.203125
1234,-0.953125,-0.02734375,0.2265625
1235,-0.953125,-0.0390625,0.2109375
1236,-0.96484375,-0.04296875,0.20703125
1237,-0.953125,-0.03515625,0.21484375
1238,-0.94921875,-0.0390625,0.1953125
1239,-0.953125,-0.046875,0.1953125
1240,-0.9609375,-0.03125,0.20703125
1241,-0.953125,-0.03515625,0.2109375
1242,-0.9453125,-0.0390625,0.1953125
1243,-0.9375,-0.03125,0.2109375
1244,-0.9609375,-0.02734375,0.20703125
1245,-0.97265625,-0.0234375,0.2109375
1246,-0.94921875,-0.03515625,0.23046875
1247,-0.9375,-0.02734375,0.21484375
1248,-0.9453125,-0.02734375,0.203125
1249,-0.94921875,-0.0234375,0.21875
1250,-0.94140625,-0.03125,0.2265625
1251,-0.9453125,-0.01953125,0.22265625
1252,-0.94921875,-0.02734375,0.21875
1253,-0.96484375,-0.03125,0.21484375
1254,-0.953125,-0.01171875,0.203125
1255,-0.9609375,-0.02734375,0.203125
1256,-0.94921875,-0.03125,0.22265625
1257,-0.9609375,-0.03125,0.20703125
1258,-0.95703125,-0.02734375,0.23046875
1259,-0.953125,-0.02734375,0.2109375
1260,-0.95703125,-0.0390625,0.19921875
1261,-0.94140625,-0.01953125,0.21484375
1262,-0.9453125,-0.0234375,0.1953125
1263,-0.9453125,-0.03125,0.22265625
1264,-0.94921875,-0.0390625,0.2109375
1265,-0.94921875,-0.0234375,0.21875
1266,-0.94140625,-0.03515625,0.19140625
1267,-0.9453125,-0.03125,0.22265625
1268,-0.9296875,-0.0390625,0.2109375
1269,-0.94921875,-0.03125,0.203125
1270,-0.95703125,-0.03125,0.21875
1271,-0.95703125,-0.02734375,0.2265625
1272,-0.94140625,-0.02734375,0.2109375
1273,-0.9375,-0.03515625,0.1953125
1274,-0.953125,-0.03125,0.2109375
1275,-0.94921875,-0.01171875,0.1953125
1276,-0.953125,-0.02734375,0.20703125
1277,-0.94140625,-0.03515625,0.2109375
1278,-0.94921875,-0.01953125,0.21875
1279,-0.94921875,-0.0234375,0.203125
1280,-0.9453125,-0.03125,0.21875
1281,-0.953125,-0.03515625,0.203125
1282,-0.9453125,-0.02734375,0.21875
1283,-0.96484375,-0.03515625,0.22265625
1284,-0.96484375,-0.02734375,0.2265625
1285,-0.94140625,-0.02734375,0.203125
1286,-0.91796875,-0.03125,0.23046875
1287,-0.94921875,-0.01953125,0.21875
1288,-0.953125,-0.01953125,0.2265625
1289,-0.9609375,-0.0234375,0.2265625
1290,-0.95703125,-0.02734375,0.21484375
1291,-0.953125,-0.0234375,0.2109375
1292,-0.94921875,-0.02734375,0.21875
1293,-0.94140625,-0.05078125,0.2109375
1294,-0.9453125,-0.0234375,0.23828125
1295,-0.953125,-0.0390625,0.23828125
1296,-0.95703125,-0.02734375,0.23046875
1297,-0.9453125,-0.01953125,0.2265625
1298,-0.953125,-0.0234375,0.21875
1299,-0.94921875,-0.02734375,0.2265625
1300,-0.94140625,-0.015625,0.21875
1301,-0.94921875,-0.0234375,0.22265625
1302,-0.953125,-0.01953125,0.2265625
1303,-0.94921875,-0.02734375,0.2265625
1304,-0.9453125,-0.02734375,0.22265625
1305,-0.9453125,-0.01953125,0.234375
1306,-0.96484375,-0.02734375,0.2109375
1307,-0.9453125,-0.03125,0.21875
1308,-0.953125,-0.03125,0.20703125
1309,-0.953125,-0.015625,0.234375
1310,-0.95703125,-0.03515625,0.21875
1311,-0.9609375,-0.03125,0.21875
1312,-0.95703125,-0.0234375,0.234375
1313,-0.97265625,-0.01171875,0.22265625
1314,-0.9453125,-0.03125,0.21484375
1315,-0.94921875,-0.03125,0.21484375
1316,-0.9453125,-0.03515625,0.21875
1317,-0.94921875,-0.0234375,0.21875
1318,-0.9609375,-0.02734375,0.22265625
1319,-0.95703125,-0.02734375,0.23046875
1320,-0.953125,-0.0234375,0.21875
1321,-0.953125,-0.03515625,0.21484375
1322,-0.953125,-0.0234375,0.21484375
1323,-0.94921875,-0.02734375,0.1953125
1324,-0.94921875,-0.03125,0.22265625
1325,-0.95703125,-0.01953125,0.203125
1326,-0.953125,-0.0234375,0.21484375
1327,-0.953125,-0.0234375,0.20703125
1328,-0.953125,-0.02734375,0.203125
1329,-0.953125,-0.02734375,0.20703125
1330,-0.96875,-0.01171875,0.20703125
1331,-0.94140625,-0.01953125,0.203125
1332,-0.91796875,-0.015625,0.22265625
1333,-0.9453125,-0.02734375,0.2109375
1334,-0.953125,-0.0234375,0.21484375
1335,-0.9453125,-0.03515625,0.22265625
1336,-0.94921875,-0.0234375,0.2265625
1337,-0.9375,-0.03515625,0.21875
1338,-0.94140625,-0.0390625,0.203125
1339,-0.94921875,-0.03125,0.2265625
1340,-0.95703125,-0.02734375,0.2109375
1341,-0.94921875,-0.03125,0.21875
1342,-0.9453125,-0.03125,0.20703125
1343,-0.95703125,-0.03515625,0.21484375
1344,-0.9453125,-0.02734375,0.1953125
1345,-0.9375,-0.0234375,0.19921875
1346,-0.94921875,-0.0234375,0.2109375
1347,-0.94140625,-0.03125,0.21484375
1348,-0.9453125,-0.0234375,0.2265625
1349,-0.953125,-0.0234375,0.20703125
1350,-0.94140625,-0.015625,0.21484375
1351,-0.95703125,-0.00390625,0.21875
1352,-0.94921875,-0.01171875,0.2109375
1353,-0.94921875,-0.00390625,0.1875
1354,-0.94921875,-0.01953125,0.21484375
1355,-0.95703125,-0.015625,0.23046875
1356,-0.94921875,-0.015625,0.20703125
1357,-0.95703125,-0.0234375,0.19921875
1358,-0.94921875,-0.03515625,0.21484375
1359,-0.95703125,-0.0234375,0.20703125
1360,-0.94921875,-0.03515625,0.203125
1361,-0.95703125,-0.0390625,0.21484375
1362,-0.95703125,-0.03515625,0.19921875
1363,-0.9375,-0.04296875,0.22265625
1364,-0.953125,-0.0390625,0.203125
1365,-0.953125,-0.03125,0.19921875
1366,-0.94921875,-0.0390625,0.19921875
1367,-0.953125,-0.0390625,0.2109375
1368,-0.953125,-0.03515625,0.19921875
1369,-0.94921875,-0.02734375,0.20703125
1370,-0.95703125,-0.0390625,0.1953125
1371,-0.9609375,-0.03125,0.21484375
1372,-0.953125,-0.03515625,0.19921875
1373,-0.9453125,-0.03515625,0.21875
1374,-0.9453125,-0.0390625,0.19921875
1375,-0.94921875,-0.03515625,0.20703125
1376,-0.94921875,-0.04296875,0.20703125
1377,-0.953125,-0.02734375,0.21484375
1378,-0.953125,-0.0234375,0.2109375
1379,-0.94921875,-0.01953125,0.1875
1380,-0.95703125,-0.02734375,0.2109375
1381,-0.953125,-0.02734375,0.20703125
1382,-0.9375,-0.03515625,0.203125
1383,-0.97265625,-0.03125,0.2109375
1384,-1.015625,-0.02734375,0.18359375
1385,-0.91796875,-0.03125,0.1953125
1386,-0.9140625,-0.03515625,0.21484375
1387,-0.94921875,-0.03125,0.2109375
1388,-0.94921875,-0.03125,0.203125
1389,-0.95703125,-0.03125,0.20703125
1390,-0.953125,-0.046875,0.21484375
1391,-0.94921875,-0.02734375,0.19921875
1392,-0.9609375,-0.03515625,0.2109375
1393,-0.9609375,-0.0390625,0.19140625
1394,-0.953125,-0.04296875,0.21484375
1395,-0.95703125,-0.01953125,0.1875
1396,-0.95703125,-0.04296875,0.2109375
1397,-0.95703125,-0.0390625,0.20703125
1398,-0.9609375,-0.05859375,0.20703125
1399,-0.953125,-0.03125,0.2109375
1400,-0.953125,-0.03515625,0.2109375
1401,-0.95703125,-0.0234375,0.21875
1402,-0.94921875,-0.03515625,0.203125
1403,-0.953125,-0.03125,0.2109375
1404,-0.95703125,-0.0234375,0.2109375
1405,-0.953125,-0.03125,0.20703125
1406,-0.984375,-0.0625,0.2265625
1407,-0.953125,-0.02734375,0.19921875
1408,-0.95703125,-0.02734375,0.1796875
1409,-0.9609375,-0.01953125,0.203125
1410,-0.96484375,-0.01953125,0.1953125
1411,-0.95703125,-0.03515625,0.203125
1412,-0.97265625,-0.0234375,0.203125
1413,-0.96484375,-0.03515625,0.1953125
1414,-0.953125,-0.03125,0.203125
1415,-0.95703125,-0.03125,0.1953125
1416,-0.96875,-0.02734375,0.19921875
1417,-0.93359375,-0.05078125,0.17578125
1418,-0.95703125,-0.02734375,0.19921875
1419,-0.9609375,-0.02734375,0.19140625
1420,-0.96484375,-0.01953125,0.19921875
1421,-0.96484375,-0.02734375,0.1953125
1422,-0.953125,-0.0234375,0.19921875
1423,-0.9609375,-0.03125,0.19921875
1424,-0.97265625,-0.02734375,0.19140625
1425,-0.984375,-0.03515625,0.1953125
1426,-0.98046875,-0.0390625,0.1796875
1427,-0.9609375,-0.09765625,0.25
1428,-0.96875,-0.046875,0.1953125
1429,-0.9609375,-0.0234375,0.1875
1430,-0.96875,-0.0234375,0.1875
1431,-0.98046875,0.01953125,0.16796875
1432,-1.0,0.03125,0.15234375
1433,-0.96484375,0.0546875,0.16015625
1434,-0.96484375,0.0703125,0.23046875
1435,-0.99609375,0.08203125,0.2265625
1436,-1.0234375,0.08203125,0.24609375
1437,-1.03515625,0.03125,0.27734375
1438,-1.07421875,-0.0234375,0.33984375
1439,-1.046875,-0.109375,0.33984375
1440,-1.03515625,-0.16015625,0.33984375
1441,-1.03125,-0.19921875,0.3046875
1442,-1.01171875,-0.22265625,0.25
1443,-1.00390625,-0.21875,0.18359375
1444,-0.98828125,-0.19921875,0.10546875
1445,-0.9765625,-0.1796875,0.06640625
1446,-0.94921875,-0.1640625,0.03515625
1447,-0.94921875,-0.13671875,0.0390625
1448,-0.9375,-0.12890625,0.02734375
1449,-0.94921875,-0.06640625,-0.0546875
1450,-0.98828125,-0.0859375,0.03125
1451,-1.015625,-0.0703125,0.0390625
1452,-1.05078125,-0.06640625,0.07421875
1453,-1.0703125,-0.0390625,0.109375
1454,-1.0703125,-0.0390625,0.125
1455,-1.1015625,-0.0234375,0.15625
1456,-1.109375,-0.01953125,0.17578125
1457,-1.08203125,-0.0390625,0.16015625
1458,-1.07421875,-0.04296875,0.16015625
1459,-1.0546875,-0.04296875,0.1640625
1460,-1.01953125,-0.0703125,0.16015625
1461,-1.00390625,-0.07421875,0.109375
1462,-1.0,-0.0703125,0.07421875
1463,-0.9765625,-0.08203125,0.046875
1464,-0.97265625,-0.0703125,0.0234375
1465,-0.97265625,-0.07421875,0.01953125
1466,-0.99609375,-0.078125,0.0078125
1467,-1.0,-0.0859375,0.03515625
1468,-1.015625,-0.09375,0.0546875
1469,-1.04296875,-0.09765625,0.10546875
1470,-1.0625,-0.10546875,0.12890625
1471,-1.0625,-0.1171875,0.1484375
1472,-1.0625,-0.1015625,0.16796875
1473,-1.06640625,-0.0625,0.19140625
1474,-1.05859375,-0.046875,0.234375
1475,-1.046875,-0.03515625,0.23828125
1476,-1.0390625,-0.01953125,0.25390625
1477,-1.015625,-0.015625,0.2578125
1478,-1.00390625,0.03125,0.28125
1479,-0.98828125,0.02734375,0.26953125
1480,-0.92578125,0.04296875,0.28515625
1481,-0.87109375,0.046875,0.32421875
1482,-0.80859375,0.0546875,0.3515625
1483,-0.75,0.03515625,0.35546875
1484,-0.703125,0.03515625,0.3515625
1485,-0.6796875,0.04296875,0.33984375
1486,-0.65625,0.0390625,0.37109375
1487,-0.65625,0.0546875,0.39453125
1488,-0.64453125,0.05859375,0.3984375
1489,-0.609375,0.08203125,0.41796875
1490,-0.609375,0.10546875,0.421875
1491,-0.60546875,0.1484375,0.4453125
1492,-0.609375,0.1328125,0.46875
1493,-0.64453125,0.15625,0.46484375
1494,-0.625,0.16015625,0.453125
1495,-0.62890625,0.1953125,0.48046875
1496,-0.63671875,0.1875,0.5078125
1497,-0.64453125,0.203125,0.50390625
1498,-0.640625,0.22265625,0.45703125
1499,-0.6484375,0.25390625,0.38671875
1500,-0.640625,0.26171875,0.34375
1501,-0.6171875,0.2890625,0.296875
1502,-0.640625,0.30078125,0.296875
1503,-0.66796875,0.33203125,0.29296875
1504,-0.71875,0.3203125,0.27734375
1505,-0.7421875,0.3515625,0.22265625
1506,-0.8359375,0.31640625,0.19140625
1507,-0.90625,0.28515625,0.18359375
1508,-1.03125,0.24609375,0.1796875
1509,-1.1171875,0.21484375,0.1875
1510,-1.18359375,0.15234375,0.20703125
1511,-1.24609375,0.1328125,0.2109375
1512,-1.3046875,0.0703125,0.203125
1513,-1.34375,-0.015625,0.19921875
1514,-1.3828125,-0.0390625,0.16796875
1515,-1.4140625,-0.0546875,0.171875
1516,-1.3671875,-0.046875,0.1796875
1517,-1.28515625,-0.05859375,0.1953125
1518,-1.15625,-0.07421875,0.16015625
1519,-0.97265625,-0.09375,0.12890625
1520,-0.9296875,-0.11328125,0.0625
1521,-0.93359375,-0.09375,0.05859375
1522,-0.87890625,-0.09375,0.06640625
1523,-0.8125,-0.08203125,0.0390625
1524,-0.86328125,-0.0703125,0.03515625
1525,-0.98828125,-0.07421875,0.08203125
1526,-1.09375,-0.08984375,0.1640625
1527,-1.15625,-0.125,0.1875
1528,-1.17578125,-0.16015625,0.12109375
1529,-1.19140625,-0.1875,-0.0078125
1530,-1.24609375,-0.1640625,-0.06640625
1531,-1.125,-0.20703125,-0.0390625
1532,-1.08984375,-0.22265625,0.0
1533,-1.05859375,-0.23046875,0.02734375
1534,-1.046875,-0.22265625,0.04296875
1535,-1.01171875,-0.2265625,0.04296875
1536,-0.9921875,-0.2421875,0.04296875
1537,-0.94921875,-0.25,0.04296875
1538,-0.93359375,-0.2421875,0.078125
1539,-0.89453125,-0.2421875,0.1171875
1540,-0.87890625,-0.2421875,0.1796875
1541,-0.86328125,-0.26171875,0.1640625
1542,-0.84765625,-0.3125,0.0859375
1543,-0.81640625,-0.3203125,0.03125
1544,-0.80078125,-0.33984375,-0.04296875
1545,-0.8125,-0.35546875,-0.015625
1546,-0.82421875,-0.3515625,-0.0078125
1547,-0.8515625,-0.34765625,0.01953125
1548,-0.87109375,-0.33203125,0.01953125
1549,-0.8984375,-0.33203125,0.0234375
1550,-0.8984375,-0.32421875,0.01953125
1551,-0.9296875,-0.296875,0.03125
1552,-0.88671875,-0.3125,0.05859375
1553,-0.93359375,-0.29296875,0.09375
1554,-0.98828125,-0.30078125,0.12890625
1555,-0.91015625,-0.40625,0.1953125
1556,-0.83203125,-0.42578125,0.1953125
1557,-0.81640625,-0.47265625,0.171875
1558,-0.80078125,-0.52734375,0.0859375
1559,-0.796875,-0.56640625,-0.01171875
1560,-0.77734375,-0.61328125,-0.0703125
1561,-0.74609375,-0.6484375,-0.109375
1562,-0.7265625,-0.6875,-0.12890625
1563,-0.73046875,-0.6875,-0.109375
1564,-0.7734375,-0.69921875,-0.06640625
1565,-0.83203125,-0.66796875,-0.0546875
1566,-0.8359375,-0.6484375,-0.03515625
1567,-0.84375,-0.58984375,0.0
1568,-0.80078125,-0.58203125,0.03515625
1569,-0.90234375,-0.53125,0.0625
1570,-1.02734375,-0.5078125,0.078125
1571,-1.0,-0.50390625,0.1015625
1572,-0.94921875,-0.5078125,0.09765625
1573,-0.9609375,-0.515625,0.05859375
1574,-0.94140625,-0.53125,0.046875
1575,-0.921875,-0.546875,0.01953125
1576,-0.8828125,-0.58984375,0.0
1577,-0.8203125,-0.60546875,-0.00390625
1578,-0.7734375,-0.625,0.01171875
1579,-0.79296875,-0.6171875,0.03125
1580,-0.7265625,-0.64453125,0.02734375
1581,-0.6875,-0.6328125,0.03125
1582,-0.67578125,-0.63671875,0.00390625
1583,-0.6484375,-0.6484375,-0.00390625
1584,-0.6328125,-0.63671875,-0.0078125
1585,-0.6328125,-0.6328125,0.0
1586,-0.6328125,-0.6171875,0.00390625
1587,-0.6484375,-0.60546875,-0.01953125
1588,-0.7109375,-0.62890625,-0.0234375
1589,-0.69140625,-0.6640625,0.01171875
1590,-0.70703125,-0.68359375,0.03515625
1591,-0.74609375,-0.69921875,0.03515625
1592,-0.75,-0.69921875,0.05078125
1593,-0.7421875,-0.71875,0.0546875
1594,-0.7265625,-0.72265625,0.046875
1595,-0.69921875,-0.7265625,0.0859375
1596,-0.65234375,-0.7265625,0.078125
1597,-0.609375,-0.71875,0.0703125
1598,-0.5625,-0.7109375,0.04296875
1599,-0.52734375,-0.71484375,0.03125
1600,-0.5078125,-0.71484375,0.03125
1601,-0.48828125,-0.703125,0.03515625
1602,-0.5078125,-0.70703125,0.03515625
1603,-0.515625,-0.71484375,0.0078125
1604,-0.52734375,-0.72265625,0.01953125
1605,-0.55078125,-0.7265625,0.03125
1606,-0.5625,-0.74609375,0.0234375
1607,-0.56640625,-0.76171875,0.02734375
1608,-0.56640625,-0.7578125,0.0234375
1609,-0.578125,-0.765625,-0.0078125
1610,-0.59375,-0.765625,-0.0078125
1611,-0.609375,-0.78125,-0.02734375
1612,-0.62890625,-0.80859375,-0.04296875
1613,-0.60546875,-0.81640625,-0.015625
1614,-0.5625,-0.8125,0.01171875
1615,-0.5078125,-0.8125,-0.01171875
1616,-0.4140625,-0.82421875,-0.0078125
1617,-0.30859375,-0.83203125,0.015625
1618,-0.2421875,-0.85546875,0.00390625
1619,-0.203125,-0.84375,-0.00390625
1620,-0.1640625,-0.85546875,-0.0078125
1621,-0.19140625,-0.828125,-0.0234375
1622,-0.21875,-0.828125,-0.0234375
1623,-0.25390625,-0.83984375,-0.02734375
1624,-0.30859375,-0.83984375,-0.0234375
1625,-0.328125,-0.8828125,-0.00390625
1626,-0.3671875,-0.87109375,-0.00390625
1627,-0.40234375,-0.875,0.0
1628,-0.43359375,-0.875,0.03125
1629,-0.44140625,-0.86328125,0.01171875
1630,-0.44140625,-0.859375,0.0234375
1631,-0.421875,-0.86328125,0.0078125
1632,-0.4140625,-0.8671875,-0.01953125
1633,-0.3984375,-0.88671875,-0.04296875
1634,-0.359375,-0.89453125,-0.0546875
1635,-0.328125,-0.91015625,-0.05078125
1636,-0.2890625,-0.92578125,-0.05078125
1637,-0.24609375,-0.9375,-0.0234375
1638,-0.23046875,-0.953125,-0.03515625
1639,-0.18359375,-0.96484375,-0.03125
1640,-0.16796875,-0.98046875,-0.02734375
1641,-0.13671875,-0.98828125,-0.02734375
1642,-0.12109375,-0.98828125,-0.0390625
1643,-0.1171875,-0.98828125,-0.046875
1644,-0.140625,-0.9609375,-0.10546875
1645,-0.171875,-0.9296875,-0.125
1646,-0.19140625,-0.91796875,-0.1640625
1647,-0.20703125,-0.8984375,-0.19140625
1648,-0.23046875,-0.91796875,-0.21875
1649,-0.23828125,-0.9296875,-0.2109375
1650,-0.2578125,-0.953125,-0.20703125
1651,-0.3046875,-0.97265625,-0.1796875
1652,-0.3203125,-0.99609375,-0.1640625
1653,-0.34375,-1.03515625,-0.1484375
1654,-0.36328125,-1.05078125,-0.12890625
1655,-0.375,-1.06640625,-0.10546875
1656,-0.375,-1.09375,-0.078125
1657,-0.34765625,-1.0859375,-0.04296875
1658,-0.33984375,-1.08984375,-0.03515625
1659,-0.33203125,-1.07421875,-0.046875
1660,-0.3125,-1.0625,-0.05859375
1661,-0.296875,-1.0546875,-0.046875
1662,-0.26171875,-1.02734375,-0.0703125
1663,-0.2265625,-1.02734375,-0.07421875
1664,-0.1953125,-1.01953125,-0.07421875
1665,-0.15234375,-1.01953125,-0.0859375
1666,-0.1171875,-1.02734375,-0.11328125
1667,-0.09765625,-1.0390625,-0.125
1668,-0.078125,-1.0390625,-0.15234375
1669,-0.0625,-1.02734375,-0.16796875
1670,-0.03125,-1.0234375,-0.1953125
1671,-0.02734375,-1.0234375,-0.19921875
1672,0.00390625,-1.0,-0.17578125
1673,0.05078125,-1.01953125,-0.17578125
1674,0.0703125,-1.0390625,-0.1484375
1675,0.08203125,-1.0390625,-0.11328125
1676,0.1328125,-1.08984375,-0.08203125
1677,0.13671875,-1.1015625,-0.078125
1678,0.1640625,-1.140625,-0.05859375
1679,0.16015625,-1.1484375,-0.046875
1680,0.16796875,-1.18359375,-0.03125
1681,0.140625,-1.2109375,-0.01171875
1682,0.140625,-1.21875,-0.01953125
1683,0.10546875,-1.2109375,-0.05078125
1684,0.10546875,-1.1953125,-0.0703125
1685,0.078125,-1.14453125,-0.1328125
1686,0.078125,-1.0703125,-0.15625
1687,0.05078125,-1.0,-0.203125
1688,0.04296875,-0.921875,-0.21875
1689,0.05859375,-0.87109375,-0.2109375
1690,0.078125,-0.83203125,-0.19140625
1691,0.078125,-0.82421875,-0.18359375
1692,0.1171875,-0.8359375,-0.125
1693,0.14453125,-0.8359375,-0.12109375
1694,0.171875,-0.85546875,-0.0859375
1695,0.1875,-0.86328125,-0.078125
1696,0.1953125,-0.8828125,-0.0625
1697,0.19921875,-0.91796875,-0.08203125
1698,0.22265625,-0.9296875,-0.0703125
1699,0.24609375,-0.96484375,-0.0859375
1700,0.234375,-0.96484375,-0.06640625
1701,0.203125,-0.97265625,-0.1015625
1702,0.24609375,-0.98046875,-0.09765625
1703,0.25,-0.98046875,-0.1171875
1704,0.25390625,-0.9765625,-0.13671875
1705,0.2734375,-1.0,-0.12890625
1706,0.28515625,-0.9921875,-0.14453125
1707,0.27734375,-1.0,-0.15234375
1708,0.2890625,-1.01171875,-0.15625
1709,0.28125,-0.99609375,-0.15625
1710,0.2578125,-0.98046875,-0.1484375
1711,0.26953125,-0.98828125,-0.11328125
1712,0.25390625,-0.98046875,-0.12109375
1713,0.21875,-0.97265625,-0.109375
1714,0.2109375,-0.9609375,-0.109375
1715,0.1875,-0.9609375,-0.09765625
1716,0.12109375,-0.9765625,-0.0703125
1717,0.1796875,-0.953125,-0.109375
1718,0.17578125,-0.9453125,-0.125
1719,0.16796875,-0.9296875,-0.1328125
1720,0.1875,-0.91796875,-0.15234375
1721,0.18359375,-0.91796875,-0.1640625
1722,0.1953125,-0.921875,-0.14453125
1723,0.2265625,-0.921875,-0.14453125
1724,0.23046875,-0.9296875,-0.14453125
1725,0.2421875,-0.93359375,-0.12890625
1726,0.27734375,-0.95703125,-0.125
1727,0.296875,-0.90234375,-0.1640625
1728,0.31640625,-0.9609375,-0.14453125
1729,0.32421875,-0.98046875,-0.15625
1730,0.34375,-0.96484375,-0.16015625
1731,0.36328125,-0.95703125,-0.1640625
1732,0.375,-0.96875,-0.15234375
1733,0.38671875,-0.97265625,-0.1484375
1734,0.37890625,-0.98046875,-0.1328125
1735,0.37890625,-1.00390625,-0.1171875
1736,0.37109375,-1.00390625,-0.1015625
1737,0.36328125,-1.01953125,-0.1171875
1738,0.36328125,-1.00390625,-0.12109375
1739,0.3359375,-1.01953125,-0.09765625
1740,0.3125,-1.02734375,-0.11328125
1741,0.2890625,-1.0,-0.12890625
1742,0.28125,-1.0,-0.140625
1743,0.25,-0.96875,-0.15625
1744,0.2265625,-0.96484375,-0.1640625
1745,0.21484375,-0.95703125,-0.19921875
1746,0.20703125,-0.94921875,-0.19921875
1747,0.19140625,-0.92578125,-0.21875
1748,0.20703125,-0.91796875,-0.21875
1749,0.18359375,-0.96875,-0.26171875
1750,0.265625,-0.93359375,-0.20703125
1751,0.28125,-0.93359375,-0.203125
1752,0.31640625,-0.953125,-0.18359375
1753,0.3125,-0.94140625,-0.171875
1754,0.30859375,-0.98046875,-0.12109375
1755,0.3046875,-0.98046875,-0.09375
1756,0.328125,-0.984375,-0.0703125
1757,0.32421875,-0.96875,-0.07421875
1758,0.34375,-0.9609375,-0.09375
1759,0.3203125,-0.94140625,-0.08203125
1760,0.30859375,-0.921875,-0.09765625
1761,0.3125,-0.921875,-0.09765625
1762,0.29296875,-0.90625,-0.06640625
1763,0.2890625,-0.9140625,-0.0703125
1764,0.296875,-0.91796875,-0.0625
1765,0.296875,-0.91796875,-0.0546875
1766,0.28125,-0.91796875,-0.05859375
1767,0.2734375,-0.92578125,-0.04296875
1768,0.2578125,-0.9296875,-0.06640625
1769,0.2578125,-0.9375,-0.0625
1770,0.2734375,-0.94140625,-0.05859375
1771,0.26953125,-0.92578125,-0.0625
1772,0.265625,-0.91796875,-0.046875
1773,0.265625,-0.91796875,-0.08203125
1774,0.26171875,-0.921875,-0.06640625
1775,0.25390625,-0.921875,-0.08203125
1776,0.25390625,-0.9296875,-0.07421875
1777,0.24609375,-0.94140625,-0.078125
1778,0.2421875,-0.92578125,-0.0703125
1779,0.24609375,-0.94140625,-0.0625
1780,0.234375,-0.953125,-0.0625
1781,0.24609375,-0.95703125,-0.0625
1782,0.26171875,-0.95703125,-0.09765625
1783,0.25,-0.9609375,-0.12109375
1784,0.2578125,-0.95703125,-0.09765625
1785,0.24609375,-0.95703125,-0.1171875
1786,0.24609375,-0.953125,-0.12109375
1787,0.25390625,-0.96484375,-0.140625
1788,0.2421875,-0.96875,-0.140625
1789,0.2578125,-0.95703125,-0.15625
1790,0.265625,-0.95703125,-0.15234375
1791,0.27734375,-0.96484375,-0.16015625
1792,0.2734375,-0.9609375,-0.18359375
1793,0.28515625,-0.953125,-0.1953125
1794,0.29296875,-0.94921875,-0.21484375
1795,0.30078125,-0.9453125,-0.19140625
1796,0.28125,-0.953125,-0.2109375
1797,0.296875,-0.96484375,-0.1875
1798,0.30078125,-0.97265625,-0.1484375
1799,0.30078125,-0.98828125,-0.12890625
1800,0.3125,-0.99609375,-0.10546875
1801,0.30078125,-1.0078125,-0.07421875
1802,0.265625,-1.00390625,-0.078125
1803,0.25390625,-0.98046875,-0.0859375
1804,0.26171875,-0.96875,-0.09375
1805,0.25390625,-0.96484375,-0.109375
1806,0.2578125,-0.9375,-0.125
1807,0.2421875,-0.921875,-0.13671875
1808,0.2421875,-0.87890625,-0.1328125
1809,0.24609375,-0.859375,-0.15625
1810,0.24609375,-0.859375,-0.16796875
1811,0.25,-0.875,-0.15625
1812,0.2265625,-0.87109375,-0.171875
1813,0.2109375,-0.890625,-0.16015625
1814,0.19921875,-0.90625,-0.14453125
1815,0.1796875,-0.9296875,-0.13671875
1816,0.17578125,-0.953125,-0.12890625
1817,0.17578125,-0.95703125,-0.125
1818,0.16015625,-0.9609375,-0.125
1819,0.1640625,-0.97265625,-0.12109375
1820,0.18359375,-0.984375,-0.12109375
1821,0.1640625,-0.9921875,-0.140625
1822,0.18359375,-1.0,-0.12890625
1823,0.19140625,-1.0,-0.140625
1824,0.1953125,-0.99609375,-0.17578125
1825,0.203125,-0.99609375,-0.14453125
1826,0.203125,-0.99609375,-0.15625
1827,0.21484375,-1.0,-0.16796875
1828,0.2265625,-0.984375,-0.1796875
1829,0.20703125,-0.98046875,-0.1640625
1830,0.21484375,-0.9765625,-0.16015625
1831,0.203125,-0.9921875,-0.171875
1832,0.19921875,-0.984375,-0.16796875
1833,0.20703125,-0.9765625,-0.18359375
1834,0.18359375,-0.9921875,-0.16796875
1835,0.1796875,-1.00390625,-0.1640625
1836,0.1640625,-1.0,-0.18359375
1837,0.14453125,-0.99609375,-0.15234375
1838,0.140625,-1.0,-0.1796875
1839,0.14453125,-0.99609375,-0.15234375
1840,0.14453125,-1.00390625,-0.1796875
1841,0.140625,-1.00390625,-0.17578125
1842,0.140625,-0.98046875,-0.1796875
1843,0.1328125,-0.96875,-0.17578125
1844,0.12890625,-0.98046875,-0.1796875
1845,0.12109375,-0.96875,-0.19140625
1846,0.1171875,-0.96875,-0.171875
1847,0.10546875,-0.953125,-0.171875
1848,0.11328125,-0.96484375,-0.18359375
1849,0.12109375,-0.96875,-0.19140625
1850,0.08984375,-0.96484375,-0.171875
1851,0.09375,-0.98046875,-0.171875
1852,0.1015625,-0.96875,-0.19140625
1853,0.09375,-0.99609375,-0.1796875
1854,0.08984375,-0.99609375,-0.1953125
1855,0.078125,-1.0,-0.1796875
1856,0.0703125,-1.0078125,-0.18359375
1857,0.0546875,-1.0234375,-0.1875
1858,0.05859375,-1.03515625,-0.17578125
1859,0.0546875,-1.03515625,-0.18359375
1860,0.03125,-1.0546875,-0.1953125
1861,0.02734375,-1.0546875,-0.19140625
1862,0.01953125,-1.05859375,-0.1953125
1863,0.015625,-1.05859375,-0.19921875
1864,0.00390625,-1.0546875,-0.1875
1865,-0.00390625,-1.04296875,-0.203125
1866,-0.01171875,-1.04296875,-0.21484375
1867,-0.015625,-1.04296875,-0.203125
1868,-0.03515625,-1.03125,-0.203125
1869,-0.0390625,-1.015625,-0.19921875
1870,-0.0390625,-1.0,-0.1953125
1871,-0.04296875,-1.01171875,-0.1796875
1872,-0.05078125,-0.98046875,-0.17578125
1873,-0.0625,-0.984375,-0.18359375
1874,-0.0546875,-0.98828125,-0.1796875
1875,-0.0625,-0.96875,-0.18359375
1876,-0.05859375,-0.96875,-0.18359375
1877,-0.05078125,-0.96484375,-0.20703125
1878,-0.0546875,-0.96875,-0.18359375
1879,-0.05078125,-0.96875,-0.18359375
1880,-0.05078125,-0.97265625,-0.18359375
1881,-0.04296875,-0.9765625,-0.19140625
1882,-0.03515625,-0.97265625,-0.17578125
1883,-0.04296875,-0.96875,-0.1875
1884,-0.01953125,-0.98046875,-0.19921875
1885,-0.03515625,-0.98046875,-0.18359375
1886,-0.015625,-0.98046875,-0.1953125
1887,-0.0390625,-0.98046875,-0.18359375
1888,-0.0390625,-0.9921875,-0.18359375
1889,-0.04296875,-1.00390625,-0.16796875
1890,-0.05078125,-1.01171875,-0.18359375
1891,-0.0625,-1.01953125,-0.18359375
1892,-0.01953125,-1.00390625,-0.203125
1893,-0.0234375,-1.00390625,-0.203125
1894,-0.046875,-1.00390625,-0.21484375
1895,-0.0390625,-1.0234375,-0.2265625
1896,-0.05859375,-1.00390625,-0.1953125
1897,-0.0625,-0.99609375,-0.20703125
1898,-0.0625,-0.98828125,-0.20703125
1899,-0.0625,-0.98828125,-0.21875
1900,-0.0625,-0.9765625,-0.20703125
1901,-0.0546875,-0.9765625,-0.20703125
1902,-0.06640625,-0.9765625,-0.2109375
1903,-0.06640625,-0.97265625,-0.203125
1904,-0.06640625,-0.9765625,-0.203125
1905,-0.07421875,-0.98046875,-0.1875
1906,-0.06640625,-0.98046875,-0.21875
1907,-0.06640625,-0.9921875,-0.2109375
1908,-0.07421875,-0.9765625,-0.20703125
1909,-0.0625,-0.984375,-0.21484375
1910,-0.05078125,-0.9921875,-0.22265625
1911,-0.05078125,-0.97265625,-0.23828125
1912,-0.05078125,-0.984375,-0.20703125
1913,-0.03125,-0.9765625,-0.234375
1914,-0.02734375,-0.9765625,-0.21875
1915,-0.01953125,-0.984375,-0.2265625
1916,-0.03125,-0.98046875,-0.21484375
1917,-0.03125,-0.984375,-0.19921875
1918,-0.0234375,-0.984375,-0.22265625
1919,-0.0234375,-0.98046875,-0.21875
1920,-0.02734375,-0.99609375,-0.2109375
1921,-0.0390625,-1.0,-0.2109375
1922,-0.03125,-1.0,-0.20703125
1923,-0.03515625,-1.01953125,-0.21484375
1924,-0.0390625,-1.01171875,-0.2109375
1925,-0.03125,-1.0234375,-0.19921875
1926,-0.02734375,-1.015625,-0.21484375
1927,-0.01953125,-1.02734375,-0.21875
1928,-0.0234375,-1.01953125,-0.2265625
1929,-0.01953125,-1.01953125,-0.22265625
1930,-0.015625,-1.01171875,-0.22265625
1931,-0.015625,-1.01953125,-0.21875
1932,-0.0078125,-1.0,-0.21875
1933,-0.015625,-0.9921875,-0.22265625
1934,-0.01171875,-0.99609375,-0.2265625
1935,-0.015625,-0.984375,-0.234375
1936,-0.01171875,-0.98828125,-0.23828125
1937,-0.015625,-0.98046875,-0.2421875
1938,-0.0078125,-0.97265625,-0.2421875
1939,-0.00390625,-0.97265625,-0.234375
1940,-0.015625,-0.96875,-0.26171875
1941,-0.015625,-0.96875,-0.25
1942,-0.015625,-0.98046875,-0.25
1943,-0.01171875,-0.984375,-0.2421875
1944,-0.0078125,-0.9765625,-0.24609375
1945,-0.00390625,-0.96875,-0.25
1946,-0.0078125,-0.984375,-0.25390625
1947,-0.0078125,-0.984375,-0.2421875
1948,-0.00390625,-0.99609375,-0.2578125
1949,0.01171875,-0.99609375,-0.24609375
1950,0.00390625,-0.984375,-0.2578125
1951,0.00390625,-0.99609375,-0.24609375
1952,0.0078125,-0.98046875,-0.2421875
1953,-0.0078125,-0.98046875,-0.24609375
1954,0.01171875,-0.984375,-0.25390625
1955,0.00390625,-0.98046875,-0.2578125
1956,0.0078125,-0.98046875,-0.26171875
1957,0.01171875,-0.98046875,-0.25390625
1958,0.0234375,-0.984375,-0.265625
1959,0.01953125,-0.98828125,-0.2734375
1960,0.015625,-0.98046875,-0.2578125
1961,0.01171875,-0.98046875,-0.26953125
1962,0.02734375,-0.98046875,-0.2578125
1963,0.0078125,-0.9765625,-0.25
1964,0.01953125,-0.9765625,-0.2578125
1965,0.01953125,-0.96875,-0.265625
1966,0.01171875,-0.97265625,-0.265625
1967,0.02734375,-0.984375,-0.2578125
1968,0.0234375,-0.98046875,-0.27734375
1969,0.02734375,-0.99609375,-0.2734375
1970,0.03125,-0.9921875,-0.2734375
1971,0.01171875,-0.99609375,-0.2734375
1972,0.0234375,-0.9921875,-0.28515625
1973,0.02734375,-1.01171875,-0.27734375
1974,0.01953125,-1.00390625,-0.2578125
1975,0.03515625,-1.01171875,-0.26171875
1976,0.02734375,-1.00390625,-0.24609375
1977,0.0390625,-1.0078125,-0.23828125
1978,0.0234375,-0.99609375,-0.2421875
1979,0.04296875,-1.0,-0.23828125
1980,0.04296875,-1.00390625,-0.21875
1981,0.03125,-0.984375,-0.2265625
1982,0.03515625,-0.98828125,-0.22265625
1983,0.03125,-0.9921875,-0.23046875
1984,0.01953125,-0.98046875,-0.2265625
1985,0.03515625,-0.984375,-0.2109375
1986,0.0390625,-0.984375,-0.21484375
1987,0.04296875,-0.984375,-0.21875
1988,0.0390625,-0.98046875,-0.2265625
1989,0.03515625,-1.0,-0.21484375
1990,0.0390625,-0.99609375,-0.21875
1991,0.03125,-0.98046875,-0.23046875
1992,0.03515625,-0.97265625,-0.21875
1993,0.03125,-0.98828125,-0.20703125
1994,0.03515625,-0.984375,-0.21875
1995,0.0390625,-1.0,-0.22265625
1996,0.0390625,-0.98828125,-0.21484375
1997,0.05078125,-0.99609375,-0.22265625
1998,0.0390625,-0.98046875,-0.2265625
1999,0.0390625,-0.98828125,-0.2265625
2000,0.046875,-0.99609375,-0.234375
2001,0.05078125,-0.98828125,-0.23828125
2002,0.04296875,-0.98828125,-0.234375
2003,0.0546875,-0.9921875,-0.2421875
2004,0.05078125,-0.9921875,-0.234375
2005,0.05078125,-0.9921875,-0.24609375
2006,0.0546875,-0.99609375,-0.2265625
2007,0.046875,-0.984375,-0.22265625
2008,0.0546875,-0.98828125,-0.23828125
2009,0.04296875,-0.98046875,-0.2421875
2010,0.04296875,-0.98046875,-0.23828125
2011,0.046875,-0.98828125,-0.234375
2012,0.04296875,-0.96875,-0.2421875
2013,0.04296875,-0.98046875,-0.23046875
2014,0.0390625,-0.96875,-0.234375
2015,0.0390625,-0.9765625,-0.2421875
2016,0.03125,-0.98828125,-0.2265625
2017,0.0390625,-0.9921875,-0.23828125
2018,0.03515625,-1.0,-0.23828125
2019,0.03125,-0.98046875,-0.25
2020,0.0234375,-0.98828125,-0.23828125
2021,0.05078125,-0.984375,-0.2578125
2022,0.03515625,-0.9921875,-0.2578125
2023,0.03125,-0.98828125,-0.23828125
2024,0.02734375,-0.9765625,-0.25390625
2025,0.0234375,-0.98046875,-0.23828125
2026,0.0234375,-0.98828125,-0.2578125
2027,0.02734375,-0.98828125,-0.25390625
2028,0.0234375,-0.98046875,-0.2421875
2029,0.015625,-0.97265625,-0.2265625
2030,0.01953125,-0.98046875,-0.24609375
2031,0.05078125,-1.015625,-0.21484375
2032,0.01953125,-0.9765625,-0.25
2033,0.01953125,-0.9765625,-0.24609375
2034,0.015625,-0.98046875,-0.25
2035,0.0234375,-0.984375,-0.25
2036,0.01171875,-0.98046875,-0.24609375
2037,0.0078125,-0.97265625,-0.25
2038,0.01171875,-0.9765625,-0.25390625
2039,0.01171875,-0.9765625,-0.25
2040,0.0078125,-0.97265625,-0.25
2041,0.00390625,-0.98046875,-0.23828125
2042,-0.015625,-0.98046875,-0.21875
2043,0.015625,-0.98046875,-0.25390625
2044,0.02734375,-0.98046875,-0.2421875
2045,0.01171875,-0.984375,-0.23046875
2046,0.01171875,-0.984375,-0.24609375
2047,0.0,-0.984375,-0.24609375
2048,0.01171875,-0.9921875,-0.23828125
2049,0.01953125,-0.99609375,-0.24609375
2050,0.0078125,-1.0,-0.24609375
2051,0.01171875,-0.9921875,-0.23828125
2052,0.01171875,-0.9921875,-0.25390625
2053,0.0546875,-1.04296875,-0.16796875
2054,0.015625,-0.984375,-0.24609375
2055,0.00390625,-0.98046875,-0.24609375
2056,0.0234375,-0.9765625,-0.23828125
2057,0.0078125,-0.984375,-0.26171875
2058,0.015625,-0.984375,-0.23828125
2059,0.0078125,-0.984375,-0.25390625
2060,0.00390625,-0.98046875,-0.234375
2061,0.015625,-0.984375,-0.23046875
2062,0.015625,-0.98828125,-0.2578125
2063,0.01171875,-0.9921875,-0.24609375
2064,0.01171875,-0.99609375,-0.2421875
2065,0.01171875,-0.984375,-0.25390625
2066,0.01953125,-0.99609375,-0.234375
2067,0.00390625,-0.98046875,-0.25390625
2068,0.01171875,-0.9921875,-0.23828125
2069,0.01171875,-0.98046875,-0.25390625
2070,0.0078125,-0.98046875,-0.2265625
2071,0.01171875,-0.98046875,-0.23828125
2072,0.0234375,-0.98828125,-0.23828125
2073,0.01171875,-0.98046875,-0.234375
2074,0.0078125,-0.97265625,-0.25
2075,0.01171875,-0.97265625,-0.2265625
2076,0.0078125,-0.984375,-0.25
2077,0.00390625,-0.9765625,-0.2421875
2078,-0.00390625,-0.9765625,-0.2421875
2079,0.01953125,-0.97265625,-0.234375
2080,0.015625,-1.0,-0.2421875
2081,0.01953125,-0.99609375,-0.234375
2082,0.0,-0.99609375,-0.23828125
2083,0.01171875,-0.9921875,-0.24609375
2084,0.0078125,-0.9765625,-0.24609375
2085,0.0,-0.984375,-0.24609375
2086,0.0078125,-0.9765625,-0.234375
2087,0.0078125,-0.98828125,-0.25
2088,0.0078125,-0.984375,-0.2265625
2089,0.01171875,-0.984375,-0.25
2090,0.00390625,-0.99609375,-0.234375
2091,0.0078125,-0.9921875,-0.265625
2092,0.00390625,-0.98828125,-0.2421875
2093,0.0,-0.984375,-0.24609375
2094,0.00390625,-0.984375,-0.2421875
2095,0.0078125,-0.984375,-0.25
2096,0.0078125,-0.96875,-0.2578125
2097,0.0,-0.98828125,-0.234375
2098,0.01171875,-0.99609375,-0.23828125
2099,0.01171875,-0.9921875,-0.23828125
2100,0.0,-0.9921875,-0.2421875
2101,-0.00390625,-0.98046875,-0.2421875
2102,-0.00390625,-0.98046875,-0.24609375
2103,0.00390625,-0.9921875,-0.24609375
2104,0.0078125,-0.98828125,-0.23828125
2105,-0.00390625,-0.984375,-0.23046875
2106,0.0,-0.9921875,-0.24609375
2107,-0.00390625,-0.96875,-0.25390625
2108,0.015625,-0.98046875,-0.24609375
2109,0.015625,-0.98828125,-0.23046875
2110,0.0078125,-0.97265625,-0.23828125
2111,0.00390625,-0.984375,-0.24609375
2112,0.01953125,-0.984375,-0.24609375
2113,0.0078125,-0.98828125,-0.23828125
2114,0.0078125,-0.9921875,-0.234375
2115,0.01171875,-1.0,-0.2265625
2116,0.01171875,-1.0,-0.2265625
2117,0.00390625,-0.9921875,-0.2421875
2118,0.01171875,-0.984375,-0.23828125
2119,0.01171875,-0.984375,-0.25
2120,0.015625,-0.97265625,-0.2421875
2121,0.00390625,-0.98046875,-0.23828125
2122,0.01171875,-0.9921875,-0.25
2123,0.0078125,-0.9921875,-0.25
2124,0.01171875,-0.9765625,-0.25390625
2125,0.0234375,-0.99609375,-0.25
2126,0.00390625,-0.98828125,-0.25
2127,0.015625,-0.98046875,-0.2734375
2128,0.0078125,-0.98828125,-0.2578125
2129,0.03125,-0.99609375,-0.2421875
2130,0.01171875,-0.98828125,-0.2265625
2131,0.015625,-0.98828125,-0.2421875
2132,0.015625,-0.9765625,-0.23828125
2133,0.015625,-0.9765625,-0.23046875
2134,0.0234375,-0.9765625,-0.2265625
2135,0.02734375,-0.984375,-0.23046875
2136,0.0234375,-0.97265625,-0.21875
2137,0.015625,-0.98828125,-0.234375
2138,0.01953125,-0.9921875,-0.23828125
2139,0.01953125,-0.98828125,-0.23828125
2140,0.01171875,-0.9765625,-0.2265625
2141,0.02734375,-1.00390625,-0.2265625
2142,0.02734375,-1.0,-0.22265625
2143,0.015625,-0.9921875,-0.23046875
2144,0.01171875,-0.98828125,-0.21484375
2145,0.015625,-0.99609375,-0.2265625
2146,0.015625,-0.98046875,-0.23046875
2147,0.015625,-0.984375,-0.234375
2148,0.015625,-0.98046875,-0.2265625
2149,0.0234375,-0.98046875,-0.22265625
2150,0.0234375,-0.96875,-0.21484375
2151,0.01953125,-0.9765625,-0.2265625
2152,0.0234375,-0.9765625,-0.21875
2153,0.03515625,-0.98046875,-0.21875
2154,0.015625,-0.9765625,-0.2109375
2155,0.015625,-0.9765625,-0.2265625
2156,0.01171875,-0.9921875,-0.2265625
2157,0.01953125,-0.98828125,-0.21484375
2158,0.0078125,-0.99609375,-0.23046875
2159,0.02734375,-0.984375,-0.2265625
2160,0.0234375,-0.98046875,-0.23046875
2161,0.0234375,-0.98046875,-0.2265625
2162,0.015625,-0.98046875,-0.21875
2163,0.01953125,-0.98828125,-0.21484375
2164,0.01171875,-0.984375,-0.21875
2165,0.0234375,-0.984375,-0.2109375
2166,0.0234375,-0.98046875,-0.21875
2167,0.02734375,-0.98046875,-0.21484375
2168,0.01171875,-0.9765625,-0.21484375
2169,0.015625,-0.98828125,-0.21875
2170,0.0078125,-0.97265625,-0.2265625
2171,0.0234375,-0.9765625,-0.20703125
2172,0.01171875,-0.98828125,-0.21875
2173,0.0078125,-0.97265625,-0.2265625
2174,0.01171875,-0.98046875,-0.2265625
2175,0.015625,-0.984375,-0.22265625
2176,0.0078125,-0.9765625,-0.234375
2177,0.00390625,-0.9765625,-0.21875
2178,0.0234375,-0.9921875,-0.21875
2179,0.01171875,-0.98828125,-0.21875
2180,0.00390625,-0.98046875,-0.21875
2181,0.01171875,-0.9921875,-0.20703125
2182,0.01171875,-0.98828125,-0.21875
2183,0.0078125,-0.99609375,-0.20703125
2184,0.0078125,-0.98828125,-0.23046875
2185,0.00390625,-0.98828125,-0.21484375
2186,0.01171875,-0.98046875,-0.22265625
2187,0.0078125,-0.98828125,-0.21875
2188,0.0,-0.984375,-0.19921875
2189,0.015625,-0.9921875,-0.22265625
2190,0.01171875,-0.984375,-0.21875
2191,0.0078125,-0.9921875,-0.21875
2192,0.0078125,-0.98828125,-0.21875
2193,0.00390625,-0.98046875,-0.21875
2194,0.01171875,-0.98828125,-0.21875
2195,0.00390625,-0.98046875,-0.2109375
2196,0.01171875,-0.98828125,-0.21875
2197,0.0078125,-0.9765625,-0.22265625
2198,0.0078125,-0.984375,-0.22265625
2199,0.0,-0.984375,-0.20703125
2200,0.01171875,-0.97265625,-0.21484375
2201,0.00390625,-0.98046875,-0.23046875
2202,0.01171875,-0.9921875,-0.2109375
2203,0.0,-0.98046875,-0.21484375
2204,0.015625,-0.98828125,-0.21484375
2205,0.01171875,-0.9921875,-0.21484375
2206,0.01171875,-0.9921875,-0.22265625
2207,0.0234375,-0.98046875,-0.21484375
2208,0.0234375,-0.98828125,-0.20703125
2209,0.015625,-0.9921875,-0.21484375
2210,0.01953125,-1.00390625,-0.20703125
2211,0.0078125,-0.99609375,-0.2109375
2212,0.00390625,-0.98046875,-0.22265625
2213,0.0078125,-0.984375,-0.21875
2214,0.01953125,-0.9921875,-0.20703125
2215,0.0078125,-0.98046875,-0.2109375
2216,0.0078125,-0.98046875,-0.2109375
2217,0.01171875,-0.9921875,-0.21484375
2218,0.00390625,-0.9765625,-0.22265625
2219,0.0234375,-0.98828125,-0.20703125
2220,0.01953125,-0.98828125,-0.21875
2221,0.01953125,-0.9921875,-0.21484375
2222,0.01171875,-0.984375,-0.203125
2223,0.00390625,-0.984375,-0.19140625
2224,0.0234375,-0.98828125,-0.21875
2225,0.01953125,-0.9765625,-0.2109375
2226,0.015625,-0.98828125,-0.2109375
2227,0.0234375,-0.98828125,-0.20703125
2228,0.0234375,-0.98828125,-0.2109375
2229,0.01953125,-0.9921875,-0.20703125
2230,0.01171875,-0.9921875,-0.21484375
2231,0.015625,-0.984375,-0.2109375
2232,0.0234375,-0.984375,-0.22265625
2233,0.015625,-0.98828125,-0.2265625
2234,0.0234375,-0.98828125,-0.19921875
2235,0.00390625,-0.9765625,-0.2109375
2236,0.0234375,-0.984375,-0.203125
2237,0.02734375,-0.9921875,-0.203125
2238,0.015625,-0.98828125,-0.21484375
2239,0.01171875,-0.98046875,-0.21484375
2240,0.01171875,-0.98046875,-0.21484375
2241,0.015625,-0.984375,-0.20703125
2242,0.01953125,-0.984375,-0.20703125
2243,0.01171875,-0.9765625,-0.19921875
2244,-0.00390625,-0.9765625,-0.2109375
2245,0.02734375,-0.99609375,-0.19921875
2246,0.01171875,-0.9765625,-0.20703125
2247,0.00390625,-0.9921875,-0.19921875
2248,0.00390625,-0.98046875,-0.21875
2249,0.0078125,-0.98046875,-0.2109375
2250,0.0078125,-0.98046875,-0.2109375
2251,0.0078125,-0.984375,-0.21875
2252,0.0078125,-0.98046875,-0.21484375
2253,0.015625,-0.98046875,-0.21484375
2254,0.0234375,-0.98828125,-0.21484375
2255,0.01953125,-0.9921875,-0.21484375
2256,0.01953125,-0.99609375,-0.19921875
2257,0.00390625,-0.98046875,-0.20703125
2258,0.0078125,-0.98828125,-0.19140625
2259,0.00390625,-0.984375,-0.19140625
2260,0.01171875,-1.0,-0.2109375
2261,0.00390625,-0.99609375,-0.19921875
2262,0.00390625,-0.98046875,-0.20703125
2263,0.015625,-0.984375,-0.21875
2264,0.01171875,-0.98828125,-0.19921875
2265,0.0078125,-0.97265625,-0.21484375
2266,0.015625,-0.98046875,-0.21875
2267,0.01953125,-0.98046875,-0.21484375
2268,0.00390625,-0.98046875,-0.19921875
2269,0.00390625,-0.9921875,-0.2109375
2270,0.0078125,-0.9765625,-0.19921875
2271,0.0078125,-0.98046875,-0.20703125
2272,0.0234375,-0.98828125,-0.21875
2273,0.01171875,-0.984375,-0.20703125
2274,0.01953125,-0.98046875,-0.203125
2275,0.0234375,-0.984375,-0.20703125
2276,0.015625,-0.9765625,-0.22265625
2277,0.0078125,-0.984375,-0.21875
2278,0.01171875,-1.0,-0.203125
2279,0.00390625,-0.98046875,-0.20703125
2280,0.00390625,-1.0,-0.18359375
2281,0.0078125,-0.9921875,-0.2109375
2282,0.01171875,-0.99609375,-0.21875
2283,0.0078125,-1.00390625,-0.2109375
2284,0.01171875,-0.984375,-0.234375
2285,0.01171875,-0.99609375,-0.21875
2286,0.01953125,-0.99609375,-0.21484375
2287,0.01953125,-0.984375,-0.2265625
2288,0.0,-0.98046875,-0.2265625
2289,0.01953125,-0.984375,-0.21484375
2290,0.0234375,-0.98828125,-0.2265625
2291,0.0234375,-0.98828125,-0.20703125
2292,0.0,-0.98828125,-0.203125
2293,0.01171875,-0.9921875,-0.23046875
2294,0.01953125,-0.984375,-0.21484375
2295,0.0078125,-0.98046875,-0.20703125
2296,0.015625,-0.9921875,-0.2109375
2297,0.0234375,-0.9921875,-0.22265625
2298,0.00390625,-0.99609375,-0.1953125
2299,0.01171875,-0.98046875,-0.21484375
2300,0.01171875,-0.98828125,-0.21875
2301,0.01953125,-0.9921875,-0.20703125
2302,0.01171875,-0.98828125,-0.21484375
2303,0.01953125,-0.9765625,-0.21484375
2304,0.0546875,-0.98828125,-0.23046875
2305,0.01171875,-0.9921875,-0.2109375
2306,0.02734375,-0.9921875,-0.21484375
2307,0.01171875,-0.9921875,-0.21875
2308,0.015625,-0.9765625,-0.21875
2309,0.02734375,-0.98046875,-0.2109375
2310,0.015625,-0.97265625,-0.22265625
2311,-0.00390625,-0.9765625,-0.22265625
2312,0.015625,-0.984375,-0.2109375
2313,0.01171875,-0.984375,-0.22265625
2314,0.0078125,-0.9921875,-0.2109375
2315,-0.0234375,-1.0,-0.21875
2316,0.0078125,-0.99609375,-0.21484375
2317,0.0078125,-1.00390625,-0.2109375
2318,0.0078125,-0.984375,-0.23046875
2319,0.015625,-0.984375,-0.21484375
2320,0.01171875,-0.98828125,-0.22265625
2321,0.01171875,-0.9765625,-0.21484375
2322,0.00390625,-0.9921875,-0.23046875
2323,0.0078125,-0.98046875,-0.22265625
2324,0.01171875,-0.984375,-0.21875
2325,0.0078125,-0.9921875,-0.2109375
2326,-0.0078125,-0.94140625,-0.22265625
2327,-0.00390625,-0.984375,-0.21875
2328,0.01953125,-0.9921875,-0.21484375
2329,0.0078125,-0.98828125,-0.2109375
2330,0.01953125,-1.0,-0.2265625
2331,0.01171875,-0.98046875,-0.20703125
2332,0.015625,-0.99609375,-0.2109375
2333,0.0078125,-0.98828125,-0.21484375
2334,0.01953125,-0.984375,-0.21875
2335,0.01171875,-0.99609375,-0.1953125
2336,0.01953125,-0.9921875,-0.21875
2337,-0.01171875,-1.015625,-0.1484375
2338,0.01953125,-0.99609375,-0.21484375
2339,0.01171875,-0.984375,-0.1953125
2340,0.01953125,-0.98828125,-0.2265625
2341,0.00390625,-0.99609375,-0.21484375
2342,0.0078125,-0.984375,-0.21875
2343,0.0078125,-0.984375,-0.21484375
2344,0.00390625,-0.984375,-0.203125
2345,-0.00390625,-0.984375,-0.2109375
2346,0.0078125,-0.98828125,-0.21484375
2347,0.00390625,-1.03515625,-0.17578125
2348,0.015625,-0.9921875,-0.23046875
2349,0.0078125,-0.98828125,-0.2265625
2350,0.0,-0.98828125,-0.22265625
2351,0.015625,-0.984375,-0.2265625
2352,0.0078125,-0.98046875,-0.22265625
2353,-0.01171875,-0.9765625,-0.22265625
2354,0.01953125,-0.98046875,-0.21875
2355,0.01171875,-0.984375,-0.2265625
2356,0.0234375,-0.9765625,-0.22265625
2357,0.01171875,-0.984375,-0.22265625
2358,0.0078125,-0.98046875,-0.21875
2359,0.015625,-0.98828125,-0.21875
2360,0.0078125,-0.98046875,-0.22265625
2361,0.01171875,-0.984375,-0.2265625
2362,0.015625,-0.9921875,-0.234375
2363,0.00390625,-0.9921875,-0.21875
2364,0.01171875,-0.98046875,-0.2265625
2365,0.015625,-0.98828125,-0.234375
2366,0.01171875,-0.984375,-0.23046875
2367,0.0078125,-0.98046875,-0.2265625
2368,0.03125,-0.98046875,-0.22265625
2369,0.0,-0.9765625,-0.22265625
2370,0.01171875,-0.984375,-0.21875
2371,0.01953125,-0.98828125,-0.23046875
2372,0.01171875,-0.98828125,-0.21875
2373,0.01171875,-0.984375,-0.2265625
2374,0.015625,-0.984375,-0.2265625
2375,0.0078125,-0.984375,-0.22265625
2376,0.01171875,-0.984375,-0.2265625
2377,0.01953125,-0.96484375,-0.22265625
2378,0.015625,-0.9765625,-0.23046875
2379,0.015625,-0.97265625,-0.234375
2380,0.01953125,-0.984375,-0.21875
2381,0.015625,-0.984375,-0.234375
2382,0.015625,-0.98828125,-0.234375
2383,0.0234375,-0.98046875,-0.21875
2384,0.0078125,-0.9921875,-0.22265625
2385,0.00390625,-0.98828125,-0.21875
2386,0.01171875,-0.98046875,-0.2265625
2387,-0.00390625,-0.984375,-0.2265625
2388,0.01171875,-0.98828125,-0.2265625
2389,0.015625,-0.98828125,-0.2265625
2390,0.015625,-1.00390625,-0.22265625
2391,0.00390625,-0.9921875,-0.23046875
2392,0.0078125,-0.984375,-0.22265625
2393,0.01953125,-0.9921875,-0.2265625
2394,0.01953125,-0.98828125,-0.234375
2395,0.00390625,-0.98046875,-0.22265625
2396,0.01953125,-0.98046875,-0.21875
2397,0.0234375,-0.984375,-0.22265625
2398,0.01953125,-0.98046875,-0.234375
2399,0.015625,-0.97265625,-0.234375
