,accelerometerAccelerationX(G),accelerometerAccelerationY(G),accelerometerAccelerationZ(G)
0,0.01171875,-0.9609375,-0.421875
1,0.00390625,-0.95703125,-0.41796875
2,0.01171875,-0.94921875,-0.39453125
3,0.01171875,-0.9609375,-0.390625
4,0.0078125,-0.95703125,-0.40234375
5,0.0078125,-0.94921875,-0.390625
6,-0.00390625,-0.953125,-0.3984375
7,0.015625,-0.953125,-0.390625
8,0.01171875,-0.95703125,-0.38671875
9,0.01171875,-0.953125,-0.40234375
10,0.01171875,-0.96484375,-0.40234375
11,0.00390625,-0.9609375,-0.39453125
12,0.0234375,-0.95703125,-0.38671875
13,0.0078125,-0.96875,-0.40234375
14,0.015625,-0.96875,-0.40234375
15,0.015625,-0.96875,-0.40234375
16,0.00390625,-0.96484375,-0.39453125
17,0.0078125,-0.9609375,-0.39453125
18,0.01953125,-0.96484375,-0.40234375
19,0.01953125,-0.9609375,-0.41015625
20,0.01171875,-0.9609375,-0.4140625
21,0.015625,-0.96484375,-0.41015625
22,0.01953125,-0.9609375,-0.40234375
23,0.01953125,-0.953125,-0.390625
24,0.015625,-0.94921875,-0.39453125
25,0.01171875,-0.94921875,-0.41015625
26,0.015625,-0.95703125,-0.3984375
27,0.01171875,-0.953125,-0.40234375
28,0.0234375,-0.95703125,-0.3984375
29,0.01953125,-0.9453125,-0.41796875
30,0.03125,-0.96875,-0.40625
31,0.0234375,-0.9609375,-0.40625
32,0.0234375,-0.96875,-0.40625
33,0.015625,-0.9609375,-0.390625
34,0.01171875,-0.953125,-0.3984375
35,0.01171875,-0.953125,-0.4140625
36,0.01953125,-0.96484375,-0.40234375
37,0.01953125,-0.96484375,-0.40234375
38,0.01171875,-0.94921875,-0.41015625
39,0.00390625,-0.9609375,-0.41796875
40,0.015625,-0.9453125,-0.4140625
41,0.01171875,-0.953125,-0.39453125
42,0.015625,-0.9609375,-0.39453125
43,0.01953125,-0.9609375,-0.390625
44,0.01953125,-0.95703125,-0.40625
45,0.0,-0.95703125,-0.39453125
46,0.0078125,-0.94921875,-0.3984375
47,0.01171875,-0.95703125,-0.40234375
48,0.01953125,-0.96484375,-0.4140625
49,0.0078125,-0.96484375,-0.41015625
50,0.0078125,-0.96484375,-0.3984375
51,0.00390625,-0.96875,-0.39453125
52,0.01953125,-0.9609375,-0.39453125
53,0.0078125,-0.94921875,-0.4140625
54,0.015625,-0.953125,-0.3984375
55,0.0,-0.9375,-0.4140625
56,0.0078125,-0.94140625,-0.3828125
57,-0.00390625,-0.9375,-0.40234375
58,-0.00390625,-0.9375,-0.390625
59,0.00390625,-0.94140625,-0.3984375
60,0.00390625,-0.94140625,-0.3984375
61,0.0,-0.9609375,-0.390625
62,0.0,-0.96484375,-0.38671875
63,0.00390625,-0.96484375,-0.3828125
64,0.00390625,-0.9765625,-0.3828125
65,0.015625,-0.984375,-0.37890625
66,0.0078125,-0.984375,-0.40234375
67,0.0078125,-0.98046875,-0.40234375
68,0.01171875,-0.984375,-0.4140625
69,0.01171875,-0.97265625,-0.40625
70,0.01953125,-0.98046875,-0.41015625
71,0.01953125,-0.96875,-0.41796875
72,0.0390625,-0.96484375,-0.421875
73,0.03125,-0.9609375,-0.4140625
74,0.046875,-0.94921875,-0.41015625
75,0.04296875,-0.9375,-0.40234375
76,0.046875,-0.9375,-0.390625
77,0.03125,-0.94921875,-0.40625
78,0.03515625,-0.92578125,-0.39453125
79,0.03125,-0.91796875,-0.390625
80,0.03125,-0.93359375,-0.40234375
81,0.046875,-0.94921875,-0.390625
82,0.015625,-0.92578125,-0.375
83,0.015625,-0.9296875,-0.37109375
84,0.03125,-0.94921875,-0.38671875
85,0.01953125,-0.9375,-0.375
86,0.01953125,-0.94140625,-0.37890625
87,0.015625,-0.95703125,-0.37109375
88,0.0234375,-0.953125,-0.3671875
89,0.015625,-0.953125,-0.390625
90,0.01953125,-0.95703125,-0.3828125
91,0.0234375,-0.94921875,-0.375
92,0.01953125,-0.94921875,-0.3828125
93,0.01953125,-0.9609375,-0.3984375
94,0.01953125,-0.96484375,-0.3984375
95,0.015625,-0.96484375,-0.37890625
96,0.0078125,-0.96484375,-0.4140625
97,0.0234375,-0.96875,-0.40625
98,0.015625,-0.97265625,-0.40234375
99,0.01953125,-0.9765625,-0.40625
100,0.0234375,-0.96875,-0.390625
101,0.02734375,-0.96875,-0.40234375
102,0.0078125,-0.96875,-0.40234375
103,0.0234375,-0.96875,-0.41015625
104,-0.0078125,-0.95703125,-0.41796875
105,0.01171875,-0.95703125,-0.421875
106,0.01171875,-0.953125,-0.43359375
107,0.02734375,-0.95703125,-0.41796875
108,0.0078125,-0.94921875,-0.421875
109,0.01171875,-0.9453125,-0.41796875
110,0.00390625,-0.94921875,-0.4140625
111,0.0078125,-0.94921875,-0.421875
112,-0.00390625,-0.90234375,-0.4765625
113,0.00390625,-0.9609375,-0.421875
114,0.0,-0.9609375,-0.421875
115,0.00390625,-0.96875,-0.421875
116,0.01171875,-0.96875,-0.3984375
117,0.00390625,-0.95703125,-0.41015625
118,-0.01171875,-0.953125,-0.4296875
119,0.0,-0.9453125,-0.4375
120,0.00390625,-0.92578125,-0.42578125
121,0.01953125,-0.92578125,-0.44140625
122,0.015625,-0.91796875,-0.43359375
123,-0.015625,-0.93359375,-0.3984375
124,0.0,-0.91015625,-0.42578125
125,0.00390625,-0.921875,-0.43359375
126,0.03125,-0.92578125,-0.421875
127,0.04296875,-0.9375,-0.43359375
128,0.03515625,-0.9296875,-0.44921875
129,0.046875,-0.9453125,-0.4453125
130,0.0390625,-0.94921875,-0.421875
131,0.0390625,-0.94921875,-0.42578125
132,0.046875,-0.9609375,-0.41796875
133,0.0390625,-0.96484375,-0.42578125
134,0.01171875,-0.9765625,-0.5
135,0.01953125,-0.97265625,-0.4375
136,0.0234375,-0.97265625,-0.4375
137,0.01171875,-0.98046875,-0.4375
138,0.0234375,-0.9765625,-0.4375
139,0.01953125,-0.9765625,-0.44921875
140,0.03125,-0.97265625,-0.453125
141,0.0234375,-0.96484375,-0.45703125
142,0.02734375,-0.96875,-0.453125
143,0.01953125,-0.9609375,-0.4609375
144,0.02734375,-0.94140625,-0.44140625
145,0.03125,-0.94921875,-0.44140625
146,0.03125,-0.92578125,-0.4453125
147,0.03515625,-0.9140625,-0.44140625
148,0.03515625,-0.91015625,-0.43359375
149,0.02734375,-0.8984375,-0.4296875
150,0.04296875,-0.91015625,-0.40625
151,0.05078125,-0.90234375,-0.421875
152,0.0390625,-0.9140625,-0.41796875
153,0.05859375,-0.91796875,-0.41015625
154,0.04296875,-0.91796875,-0.41796875
155,0.03515625,-0.91796875,-0.39453125
156,0.046875,-0.9296875,-0.39453125
157,0.0390625,-0.9296875,-0.421875
158,0.03515625,-0.94140625,-0.40625
159,0.02734375,-0.94921875,-0.41015625
160,0.0234375,-0.95703125,-0.4140625
161,0.0234375,-0.96484375,-0.421875
162,0.03515625,-0.98828125,-0.421875
163,0.015625,-0.984375,-0.44140625
164,0.01953125,-0.96875,-0.4453125
165,0.0390625,-0.9765625,-0.4609375
166,0.04296875,-0.96875,-0.45703125
167,0.0234375,-0.96875,-0.45703125
168,0.0390625,-0.96484375,-0.4375
169,0.046875,-0.95703125,-0.44921875
170,0.046875,-0.9453125,-0.44921875
171,0.05078125,-0.9453125,-0.421875
172,0.0546875,-0.94921875,-0.43359375
173,0.04296875,-0.94140625,-0.421875
174,0.0625,-0.953125,-0.421875
175,0.0625,-0.9375,-0.41796875
176,0.05859375,-0.94140625,-0.42578125
177,0.0703125,-0.91796875,-0.4453125
178,0.078125,-0.91796875,-0.4453125
179,0.0546875,-0.91015625,-0.44921875
180,0.05859375,-0.91796875,-0.484375
181,0.05078125,-0.91796875,-0.49609375
182,0.04296875,-0.93359375,-0.51171875
183,0.03515625,-0.94921875,-0.51953125
184,0.03125,-0.94921875,-0.53515625
185,0.01953125,-0.94921875,-0.54296875
186,0.01953125,-0.9453125,-0.56640625
187,0.02734375,-0.94140625,-0.5703125
188,0.015625,-0.9296875,-0.57421875
189,0.015625,-0.92578125,-0.5703125
190,0.02734375,-0.9140625,-0.5625
191,0.02734375,-0.90625,-0.59375
192,0.0390625,-0.8984375,-0.59375
193,0.05078125,-0.89453125,-0.5703125
194,0.0703125,-0.890625,-0.578125
195,0.0703125,-0.890625,-0.57421875
196,0.08203125,-0.88671875,-0.58203125
197,0.08984375,-0.890625,-0.57421875
198,0.0859375,-0.87890625,-0.5625
199,0.09375,-0.88671875,-0.56640625
200,0.09375,-0.8828125,-0.578125
201,0.08984375,-0.875,-0.57421875
202,0.0859375,-0.8671875,-0.5625
203,0.07421875,-0.859375,-0.57421875
204,0.0859375,-0.859375,-0.58203125
205,0.078125,-0.84765625,-0.578125
206,0.0703125,-0.84375,-0.58984375
207,0.05859375,-0.83203125,-0.5703125
208,0.07421875,-0.8359375,-0.578125
209,0.06640625,-0.84375,-0.578125
210,0.06640625,-0.84375,-0.57421875
211,0.06640625,-0.86328125,-0.59375
212,0.07421875,-0.859375,-0.59375
213,0.0703125,-0.8828125,-0.609375
214,0.0859375,-0.890625,-0.59375
215,0.078125,-0.890625,-0.5859375
216,0.0859375,-0.90625,-0.60546875
217,0.0859375,-0.90234375,-0.60546875
218,0.08984375,-0.8984375,-0.60546875
219,0.1015625,-0.9140625,-0.609375
220,0.0859375,-0.8984375,-0.6015625
221,0.09375,-0.89453125,-0.609375
222,0.10546875,-0.89453125,-0.60546875
223,0.09375,-0.90234375,-0.60546875
224,0.09765625,-0.89453125,-0.6015625
225,0.09375,-0.89453125,-0.6015625
226,0.0859375,-0.87890625,-0.59375
227,0.1171875,-0.8828125,-0.60546875
228,0.08203125,-0.88671875,-0.59765625
229,0.078125,-0.88671875,-0.5859375
230,0.046875,-0.890625,-0.59375
231,0.06640625,-0.90234375,-0.59375
232,0.078125,-0.8984375,-0.58984375
233,0.05859375,-0.89453125,-0.57421875
234,0.0625,-0.91796875,-0.578125
235,0.078125,-0.921875,-0.57421875
236,0.06640625,-0.91015625,-0.57421875
237,0.0625,-0.9140625,-0.5546875
238,0.06640625,-0.90234375,-0.5546875
239,0.06640625,-0.8984375,-0.546875
240,0.0625,-0.90625,-0.55078125
241,0.05078125,-0.89453125,-0.55078125
242,0.078125,-0.89453125,-0.55078125
243,0.078125,-0.89453125,-0.546875
244,0.08203125,-0.89453125,-0.56640625
245,0.078125,-0.890625,-0.55078125
246,0.0625,-0.8828125,-0.5625
247,0.09765625,-0.921875,-0.55078125
248,0.1015625,-0.90234375,-0.5703125
249,0.09765625,-0.90625,-0.5703125
250,0.1015625,-0.90625,-0.578125
251,0.12109375,-0.9140625,-0.57421875
252,0.11328125,-0.890625,-0.5703125
253,0.12109375,-0.890625,-0.58203125
254,0.09375,-0.8984375,-0.56640625
255,0.08203125,-0.90234375,-0.5703125
256,0.06640625,-0.90234375,-0.55078125
257,0.0703125,-0.90234375,-0.56640625
258,0.07421875,-0.90234375,-0.578125
259,0.07421875,-0.90234375,-0.5390625
260,0.07421875,-0.88671875,-0.57421875
261,0.06640625,-0.91015625,-0.55859375
262,0.06640625,-0.8984375,-0.56640625
263,0.08984375,-0.921875,-0.5625
264,0.08984375,-0.8984375,-0.5703125
265,0.08203125,-0.89453125,-0.55859375
266,0.0859375,-0.8984375,-0.57421875
267,0.08984375,-0.90234375,-0.57421875
268,0.08984375,-0.8984375,-0.578125
269,0.0859375,-0.90234375,-0.5859375
270,0.09765625,-0.90625,-0.578125
271,0.10546875,-0.890625,-0.5859375
272,0.109375,-0.8984375,-0.58984375
273,0.1171875,-0.88671875,-0.58984375
274,0.11328125,-0.87890625,-0.5859375
275,0.1171875,-0.87890625,-0.58203125
276,0.1171875,-0.8828125,-0.578125
277,0.1328125,-0.875,-0.578125
278,0.12890625,-0.86328125,-0.58203125
279,0.125,-0.8671875,-0.5859375
280,0.10546875,-0.85546875,-0.58203125
281,0.12890625,-0.85546875,-0.57421875
282,0.125,-0.8515625,-0.5625
283,0.125,-0.84765625,-0.56640625
284,0.1171875,-0.84375,-0.5859375
285,0.12109375,-0.84375,-0.5859375
286,0.140625,-0.84765625,-0.57421875
287,0.14453125,-0.85546875,-0.58203125
288,0.13671875,-0.8671875,-0.5859375
289,0.140625,-0.86328125,-0.57421875
290,0.15625,-0.859375,-0.58984375
291,0.14453125,-0.85546875,-0.5859375
292,0.14453125,-0.84375,-0.58984375
293,0.171875,-0.859375,-0.59375
294,0.16796875,-0.8515625,-0.58203125
295,0.171875,-0.8515625,-0.6015625
296,0.16796875,-0.84765625,-0.61328125
297,0.16015625,-0.8671875,-0.59375
298,0.1640625,-0.86328125,-0.60546875
299,0.16015625,-0.8671875,-0.5859375
300,0.1640625,-0.8828125,-0.60546875
301,0.15625,-0.88671875,-0.59765625
302,0.14453125,-0.875,-0.5859375
303,0.1484375,-0.8828125,-0.578125
304,0.15234375,-0.88671875,-0.58984375
305,0.1328125,-0.88671875,-0.58203125
306,0.14453125,-0.88671875,-0.57421875
307,0.14453125,-0.90625,-0.57421875
308,0.140625,-0.8984375,-0.58984375
309,0.140625,-0.91015625,-0.58203125
310,0.15625,-0.8984375,-0.59375
311,0.12890625,-0.88671875,-0.60546875
312,0.13671875,-0.87890625,-0.58984375
313,0.13671875,-0.8828125,-0.59375
314,0.140625,-0.87890625,-0.59375
315,0.140625,-0.875,-0.59765625
316,0.1328125,-0.87890625,-0.58203125
317,0.12109375,-0.8828125,-0.58203125
318,0.1171875,-0.875,-0.57421875
319,0.1171875,-0.890625,-0.578125
320,0.125,-0.87890625,-0.56640625
321,0.12109375,-0.8828125,-0.57421875
322,0.11328125,-0.8828125,-0.5859375
323,0.1171875,-0.8828125,-0.56640625
324,0.125,-0.8828125,-0.578125
325,0.1171875,-0.87109375,-0.5703125
326,0.12109375,-0.8671875,-0.57421875
327,0.11328125,-0.875,-0.546875
328,0.1015625,-0.875,-0.546875
329,0.09765625,-0.8828125,-0.5625
330,0.08203125,-0.875,-0.5625
331,0.08984375,-0.87890625,-0.56640625
332,0.078125,-0.88671875,-0.5703125
333,0.07421875,-0.88671875,-0.5546875
334,0.06640625,-0.88671875,-0.5703125
335,0.0703125,-0.90234375,-0.57421875
336,0.078125,-0.89453125,-0.56640625
337,0.078125,-0.90234375,-0.578125
338,0.0625,-0.91015625,-0.55859375
339,0.0703125,-0.91015625,-0.5859375
340,0.05859375,-0.89453125,-0.58203125
341,0.0625,-0.8984375,-0.59375
342,0.05859375,-0.8984375,-0.58203125
343,0.05859375,-0.90234375,-0.57421875
344,0.05859375,-0.89453125,-0.5703125
345,0.0625,-0.8984375,-0.58984375
346,0.0546875,-0.90625,-0.5625
347,0.06640625,-0.90625,-0.57421875
348,0.0546875,-0.91015625,-0.5625
349,0.046875,-0.9140625,-0.56640625
350,0.0546875,-0.9140625,-0.55859375
351,0.0546875,-0.89453125,-0.58203125
352,0.0546875,-0.890625,-0.5234375
353,0.05078125,-0.8828125,-0.546875
354,0.04296875,-0.8984375,-0.5625
355,0.046875,-0.8828125,-0.5625
356,0.04296875,-0.890625,-0.55078125
357,0.05078125,-0.89453125,-0.55859375
358,0.03515625,-0.89453125,-0.546875
359,0.0390625,-0.89453125,-0.56640625
360,0.03515625,-0.88671875,-0.5546875
361,0.0390625,-0.875,-0.546875
362,0.0390625,-0.88671875,-0.5625
363,0.10546875,-0.859375,-0.50390625
364,0.0390625,-0.8984375,-0.5625
365,0.03125,-0.8828125,-0.5546875
366,0.03515625,-0.88671875,-0.56640625
367,0.03515625,-0.890625,-0.55859375
368,0.05859375,-0.90234375,-0.5546875
369,0.04296875,-0.89453125,-0.5546875
370,0.03515625,-0.88671875,-0.56640625
371,0.05078125,-0.8984375,-0.58984375
372,0.01171875,-0.875,-0.60546875
373,0.0390625,-0.88671875,-0.5546875
374,0.03515625,-0.9140625,-0.58203125
375,0.04296875,-0.890625,-0.5546875
376,0.046875,-0.88671875,-0.56640625
377,0.04296875,-0.89453125,-0.5625
378,0.03515625,-0.88671875,-0.57421875
379,0.046875,-0.90234375,-0.5703125
380,0.046875,-0.88671875,-0.58203125
381,0.0390625,-0.87890625,-0.578125
382,0.04296875,-0.890625,-0.57421875
383,0.0390625,-0.88671875,-0.57421875
384,0.0390625,-0.890625,-0.5703125
385,0.0078125,-0.90234375,-0.5703125
386,0.0390625,-0.89453125,-0.5703125
387,0.03125,-0.890625,-0.5859375
388,0.0390625,-0.88671875,-0.57421875
389,0.0390625,-0.89453125,-0.58984375
390,0.04296875,-0.8984375,-0.5859375
391,0.0234375,-0.89453125,-0.5625
392,0.02734375,-0.88671875,-0.58203125
393,0.03515625,-0.890625,-0.578125
394,0.03125,-0.88671875,-0.56640625
395,0.0234375,-0.8828125,-0.58984375
396,0.0234375,-0.89453125,-0.5625
397,0.01953125,-0.88671875,-0.5703125
398,0.0234375,-0.89453125,-0.578125
399,0.03125,-0.890625,-0.5703125
400,0.02734375,-0.88671875,-0.55859375
401,0.02734375,-0.8984375,-0.5859375
402,0.0234375,-0.88671875,-0.57421875
403,0.04296875,-0.91015625,-0.56640625
404,0.0234375,-0.890625,-0.5625
405,0.02734375,-0.8828125,-0.56640625
406,0.02734375,-0.89453125,-0.5546875
407,0.04296875,-0.88671875,-0.56640625
408,0.0234375,-0.87890625,-0.5703125
409,0.03125,-0.88671875,-0.56640625
410,0.03125,-0.87890625,-0.5703125
411,0.02734375,-0.875,-0.58203125
412,0.03515625,-0.87890625,-0.55859375
413,0.02734375,-0.8828125,-0.5703125
414,0.03125,-0.890625,-0.55859375
415,0.0390625,-0.89453125,-0.56640625
416,0.046875,-0.88671875,-0.55859375
417,0.03515625,-0.8828125,-0.57421875
418,0.0390625,-0.89453125,-0.578125
419,0.046875,-0.88671875,-0.578125
420,0.04296875,-0.88671875,-0.56640625
421,0.046875,-0.890625,-0.55859375
422,0.04296875,-0.89453125,-0.57421875
423,0.046875,-0.90625,-0.57421875
424,0.0390625,-0.890625,-0.5703125
425,0.05078125,-0.890625,-0.578125
426,0.05859375,-0.88671875,-0.56640625
427,0.05078125,-0.8984375,-0.578125
428,0.05859375,-0.890625,-0.5625
429,0.05859375,-0.88671875,-0.578125
430,0.04296875,-0.89453125,-0.57421875
431,0.0546875,-0.890625,-0.57421875
432,0.05078125,-0.8828125,-0.56640625
433,0.0546875,-0.88671875,-0.5546875
434,0.03125,-0.8984375,-0.5859375
435,0.05078125,-0.890625,-0.58203125
436,0.0546875,-0.89453125,-0.58984375
437,0.0625,-0.8984375,-0.56640625
438,0.046875,-0.87890625,-0.56640625
439,0.046875,-0.890625,-0.57421875
440,0.0546875,-0.890625,-0.55078125
441,0.05859375,-0.890625,-0.5625
442,0.05078125,-0.88671875,-0.56640625
443,0.05859375,-0.8984375,-0.5703125
444,0.05859375,-0.890625,-0.578125
445,0.05078125,-0.90625,-0.57421875
446,0.0625,-0.91015625,-0.5703125
447,0.0625,-0.90234375,-0.58984375
448,0.0546875,-0.8984375,-0.5859375
449,0.0546875,-0.890625,-0.5703125
450,0.05078125,-0.8828125,-0.56640625
451,0.046875,-0.88671875,-0.5859375
452,0.0546875,-0.8828125,-0.59765625
453,0.03515625,-0.88671875,-0.58203125
454,0.04296875,-0.88671875,-0.55859375
455,0.046875,-0.890625,-0.5703125
456,0.05859375,-0.90625,-0.57421875
457,0.046875,-0.90234375,-0.55078125
458,0.05859375,-0.890625,-0.56640625
459,0.0546875,-0.89453125,-0.55859375
460,0.05078125,-0.890625,-0.55859375
461,0.046875,-0.88671875,-0.5546875
462,0.05078125,-0.87890625,-0.56640625
463,0.046875,-0.88671875,-0.578125
464,0.05859375,-0.89453125,-0.5625
465,0.0546875,-0.890625,-0.57421875
466,0.046875,-0.8828125,-0.56640625
467,0.0390625,-0.8828125,-0.5703125
468,0.05859375,-0.8828125,-0.55859375
469,0.04296875,-0.8828125,-0.5625
470,0.046875,-0.890625,-0.57421875
471,0.05078125,-0.890625,-0.58984375
472,0.05078125,-0.88671875,-0.57421875
473,0.046875,-0.88671875,-0.578125
474,0.04296875,-0.87890625,-0.578125
475,0.04296875,-0.875,-0.5703125
476,0.046875,-0.8828125,-0.578125
477,0.05078125,-0.8984375,-0.58203125
478,0.05078125,-0.890625,-0.5703125
479,0.0390625,-0.890625,-0.5703125
480,0.0390625,-0.89453125,-0.578125
481,0.04296875,-0.89453125,-0.5703125
482,0.04296875,-0.8984375,-0.5859375
483,0.05078125,-0.91015625,-0.5859375
484,0.046875,-0.90625,-0.5859375
485,0.04296875,-0.90234375,-0.57421875
486,0.04296875,-0.8828125,-0.5703125
487,0.05078125,-0.890625,-0.58984375
488,0.046875,-0.87109375,-0.57421875
489,0.04296875,-0.88671875,-0.56640625
490,0.04296875,-0.89453125,-0.58203125
491,0.046875,-0.89453125,-0.57421875
492,0.03125,-0.8828125,-0.5625
493,0.0546875,-0.8828125,-0.5625
494,0.046875,-0.90234375,-0.55859375
495,0.05078125,-0.890625,-0.58203125
496,0.0390625,-0.89453125,-0.5703125
497,0.04296875,-0.89453125,-0.56640625
498,0.04296875,-0.8828125,-0.5546875
499,0.05859375,-0.8828125,-0.55859375
500,0.04296875,-0.89453125,-0.578125
501,0.05078125,-0.8984375,-0.56640625
502,0.0390625,-0.88671875,-0.578125
503,0.05078125,-0.890625,-0.578125
504,0.04296875,-0.90234375,-0.5625
505,0.05078125,-0.890625,-0.5546875
506,0.046875,-0.88671875,-0.5703125
507,0.0546875,-0.89453125,-0.55859375
508,0.0390625,-0.890625,-0.55859375
509,0.046875,-0.89453125,-0.55078125
510,0.0390625,-0.88671875,-0.55859375
511,0.046875,-0.89453125,-0.5625
512,0.04296875,-0.89453125,-0.57421875
513,0.046875,-0.90625,-0.5625
514,0.046875,-0.890625,-0.56640625
515,0.0546875,-0.890625,-0.55859375
516,0.046875,-0.8984375,-0.5546875
517,0.04296875,-0.89453125,-0.55078125
518,0.0546875,-0.91015625,-0.55859375
519,0.05078125,-0.890625,-0.5546875
520,0.046875,-0.88671875,-0.5625
521,0.046875,-0.890625,-0.5546875
522,0.046875,-0.8984375,-0.56640625
523,0.0546875,-0.90234375,-0.56640625
524,0.05859375,-0.90234375,-0.55859375
525,0.05078125,-0.8984375,-0.5546875
526,0.05078125,-0.890625,-0.5546875
527,0.05078125,-0.89453125,-0.55859375
528,0.05859375,-0.9140625,-0.5625
529,0.05859375,-0.8984375,-0.5859375
530,0.0625,-0.90234375,-0.55859375
531,0.0546875,-0.91015625,-0.546875
532,0.05078125,-0.8984375,-0.55078125
533,0.0546875,-0.8984375,-0.53515625
534,0.04296875,-0.8984375,-0.55078125
535,0.05859375,-0.88671875,-0.5703125
536,0.04296875,-0.89453125,-0.5625
537,0.05078125,-0.890625,-0.5625
538,0.05078125,-0.8984375,-0.56640625
539,0.0546875,-0.890625,-0.5703125
540,0.046875,-0.8828125,-0.55859375
541,0.0546875,-0.89453125,-0.57421875
542,0.0546875,-0.89453125,-0.5546875
543,0.05078125,-0.89453125,-0.55859375
544,0.05859375,-0.890625,-0.5703125
545,0.05859375,-0.89453125,-0.55859375
546,0.05859375,-0.90234375,-0.5546875
547,0.05078125,-0.8984375,-0.55859375
548,0.05078125,-0.8984375,-0.55859375
549,0.0546875,-0.91015625,-0.5546875
550,0.05078125,-0.90625,-0.56640625
551,0.05078125,-0.90625,-0.55078125
552,0.05078125,-0.90234375,-0.546875
553,0.0546875,-0.8984375,-0.5546875
554,0.05078125,-0.8984375,-0.55859375
555,0.0546875,-0.90234375,-0.5546875
556,0.05859375,-0.90625,-0.5625
557,0.05859375,-0.90625,-0.5546875
558,0.06640625,-0.90234375,-0.55859375
559,0.05859375,-0.90234375,-0.55859375
560,0.04296875,-0.8984375,-0.5625
561,0.0546875,-0.89453125,-0.5546875
562,0.05078125,-0.8984375,-0.56640625
563,0.05859375,-0.90234375,-0.546875
564,0.05859375,-0.90234375,-0.56640625
565,0.05078125,-0.90234375,-0.5546875
566,0.05859375,-0.90625,-0.55859375
567,0.05859375,-0.8984375,-0.5625
568,0.0546875,-0.90625,-0.57421875
569,0.05859375,-0.8984375,-0.56640625
570,0.0390625,-0.89453125,-0.5703125
571,0.0546875,-0.89453125,-0.57421875
572,0.046875,-0.90234375,-0.5625
573,0.0390625,-0.90234375,-0.5546875
574,0.046875,-0.90234375,-0.5703125
575,0.03515625,-0.91015625,-0.5546875
576,0.04296875,-0.90234375,-0.55078125
577,0.0546875,-0.9140625,-0.546875
578,0.04296875,-0.90234375,-0.53125
579,0.05078125,-0.91015625,-0.55859375
580,0.05078125,-0.9140625,-0.56640625
581,0.0546875,-0.90234375,-0.5625
582,0.046875,-0.8984375,-0.55859375
583,0.06640625,-0.89453125,-0.5703125
584,0.05078125,-0.890625,-0.58203125
585,0.04296875,-0.8984375,-0.56640625
586,0.03515625,-0.88671875,-0.57421875
587,0.04296875,-0.8984375,-0.5625
588,0.0390625,-0.89453125,-0.55859375
589,0.0390625,-0.8984375,-0.5546875
590,0.046875,-0.890625,-0.54296875
591,0.05078125,-0.90625,-0.53515625
592,0.015625,-0.91015625,-0.5625
593,0.046875,-0.89453125,-0.5546875
594,0.03515625,-0.91015625,-0.55859375
595,0.05078125,-0.90625,-0.55078125
596,0.04296875,-0.90234375,-0.55859375
597,0.046875,-0.8984375,-0.54296875
598,0.0546875,-0.90234375,-0.546875
599,0.0546875,-0.90234375,-0.54296875
600,0.0546875,-0.90625,-0.54296875
601,0.0546875,-0.89453125,-0.53125
602,0.04296875,-0.890625,-0.5390625
603,0.046875,-0.9140625,-0.5078125
604,0.0546875,-0.88671875,-0.53515625
605,0.0546875,-0.890625,-0.54296875
606,0.046875,-0.8984375,-0.546875
607,0.0390625,-0.8984375,-0.55078125
608,0.05078125,-0.8984375,-0.5703125
609,0.046875,-0.89453125,-0.56640625
610,0.046875,-0.89453125,-0.54296875
611,0.0546875,-0.89453125,-0.5546875
612,0.046875,-0.89453125,-0.55078125
613,0.046875,-0.89453125,-0.5390625
614,0.046875,-0.88671875,-0.5625
615,0.05078125,-0.8984375,-0.54296875
616,0.046875,-0.90234375,-0.5546875
617,0.046875,-0.91015625,-0.56640625
618,0.04296875,-0.90625,-0.55078125
619,0.0546875,-0.90625,-0.55078125
620,0.04296875,-0.90234375,-0.546875
621,0.04296875,-0.90625,-0.55078125
622,0.046875,-0.90234375,-0.55078125
623,0.05078125,-0.8984375,-0.54296875
624,0.05859375,-0.89453125,-0.55078125
625,0.05859375,-0.890625,-0.546875
626,0.046875,-0.89453125,-0.5546875
627,0.05078125,-0.8984375,-0.55078125
628,0.04296875,-0.89453125,-0.5546875
629,0.04296875,-0.890625,-0.53515625
630,0.0390625,-0.8984375,-0.54296875
631,0.04296875,-0.91015625,-0.55078125
632,0.05859375,-0.90234375,-0.5546875
633,0.0546875,-0.91015625,-0.546875
634,0.05859375,-0.90234375,-0.5625
635,0.0546875,-0.91015625,-0.546875
636,0.05078125,-0.8984375,-0.55078125
637,0.0390625,-0.90234375,-0.546875
638,0.0546875,-0.90625,-0.54296875
639,0.046875,-0.90234375,-0.5546875
640,0.0390625,-0.89453125,-0.5390625
641,0.04296875,-0.8984375,-0.53125
642,0.0390625,-0.9140625,-0.52734375
643,0.05078125,-0.90234375,-0.55859375
644,0.05078125,-0.8984375,-0.546875
645,0.046875,-0.90625,-0.53515625
646,0.046875,-0.8984375,-0.546875
647,0.0625,-0.9140625,-0.5546875
648,0.05078125,-0.91015625,-0.55078125
649,0.04296875,-0.9140625,-0.54296875
650,0.0546875,-0.90625,-0.5546875
651,0.03125,-0.91015625,-0.55078125
652,0.05859375,-0.921875,-0.53125
653,0.03515625,-0.91015625,-0.55859375
654,0.04296875,-0.90625,-0.54296875
655,0.03515625,-0.90234375,-0.53515625
656,0.0390625,-0.90234375,-0.54296875
657,0.03515625,-0.90625,-0.5546875
658,0.05078125,-0.90234375,-0.54296875
659,0.04296875,-0.8984375,-0.54296875
660,0.0546875,-0.91015625,-0.54296875
661,0.04296875,-0.91015625,-0.51953125
662,0.04296875,-0.90234375,-0.51953125
663,0.046875,-0.8984375,-0.54296875
664,0.046875,-0.8984375,-0.55078125
665,0.05078125,-0.8984375,-0.54296875
666,0.0390625,-0.8984375,-0.54296875
667,0.0390625,-0.8984375,-0.54296875
668,0.046875,-0.8984375,-0.5390625
669,0.046875,-0.90625,-0.53125
670,0.0390625,-0.90234375,-0.54296875
671,0.046875,-0.89453125,-0.546875
672,0.046875,-0.91015625,-0.5234375
673,0.04296875,-0.89453125,-0.53125
674,0.03125,-0.90625,-0.52734375
675,0.0390625,-0.90625,-0.546875
676,0.0390625,-0.90234375,-0.53125
677,0.046875,-0.89453125,-0.53515625
678,0.0390625,-0.90625,-0.53125
679,0.05078125,-0.90625,-0.546875
680,0.046875,-0.8984375,-0.5390625
681,0.0546875,-0.90625,-0.53125
682,0.0390625,-0.8984375,-0.53515625
683,0.0546875,-0.90234375,-0.53125
684,0.03125,-0.8984375,-0.546875
685,0.046875,-0.8984375,-0.53125
686,0.04296875,-0.89453125,-0.54296875
687,0.046875,-0.91015625,-0.5390625
688,0.0546875,-0.89453125,-0.54296875
689,0.046875,-0.90625,-0.53125
690,0.04296875,-0.91015625,-0.53125
691,0.05859375,-0.90625,-0.55859375
692,0.03515625,-0.90625,-0.5390625
693,0.04296875,-0.8984375,-0.54296875
694,0.04296875,-0.90625,-0.53125
695,0.0546875,-0.91015625,-0.54296875
696,0.05859375,-0.90625,-0.54296875
697,0.046875,-0.90625,-0.54296875
698,0.05078125,-0.91015625,-0.53515625
699,0.0390625,-0.90234375,-0.54296875
700,0.046875,-0.90625,-0.5390625
701,0.0546875,-0.91015625,-0.54296875
702,0.0390625,-0.91015625,-0.53125
703,0.03515625,-0.90234375,-0.5390625
704,0.05078125,-0.90234375,-0.5390625
705,0.05078125,-0.91015625,-0.52734375
706,0.02734375,-0.88671875,-0.5234375
707,0.03515625,-0.90234375,-0.52734375
708,0.046875,-0.91015625,-0.53125
709,0.0390625,-0.90625,-0.52734375
710,0.0390625,-0.90625,-0.5390625
711,0.04296875,-0.89453125,-0.5234375
712,0.046875,-0.90234375,-0.54296875
713,0.04296875,-0.90234375,-0.5390625
714,0.0703125,-0.85546875,-0.41796875
715,0.0625,-0.90234375,-0.53125
716,0.0546875,-0.90234375,-0.52734375
717,0.04296875,-0.8984375,-0.53515625
718,0.05078125,-0.9140625,-0.52734375
719,0.046875,-0.8671875,-0.54296875
720,0.05078125,-0.90234375,-0.53515625
721,0.0546875,-0.91015625,-0.52734375
722,0.046875,-0.90234375,-0.53515625
723,0.0390625,-0.91015625,-0.55078125
724,0.0390625,-0.90234375,-0.53125
725,0.04296875,-0.91015625,-0.54296875
726,0.0546875,-0.9140625,-0.53515625
727,0.00390625,-0.9296875,-0.5703125
728,0.0546875,-0.93359375,-0.53515625
729,0.0546875,-0.9296875,-0.53515625
730,0.0546875,-0.91796875,-0.5390625
731,0.05859375,-0.9140625,-0.55859375
732,0.04296875,-0.8828125,-0.5625
733,0.05078125,-0.90625,-0.55078125
734,0.05078125,-0.8984375,-0.53515625
735,0.03125,-0.8984375,-0.5546875
736,0.02734375,-0.89453125,-0.5390625
737,0.0390625,-0.90234375,-0.546875
738,0.0390625,-0.91015625,-0.546875
739,0.02734375,-0.90625,-0.5234375
740,0.0390625,-0.921875,-0.53125
741,0.078125,-0.90234375,-0.4921875
742,0.03125,-0.9140625,-0.5234375
743,0.05078125,-0.92578125,-0.52734375
744,0.0390625,-0.91015625,-0.5390625
745,0.0390625,-0.91796875,-0.515625
746,0.046875,-0.9140625,-0.53125
747,0.046875,-0.91015625,-0.5390625
748,0.04296875,-0.90625,-0.5390625
749,0.046875,-0.8984375,-0.5390625
750,0.0390625,-0.90625,-0.53125
751,0.03125,-0.90234375,-0.54296875
752,0.03515625,-0.91015625,-0.55078125
753,0.03125,-0.8984375,-0.53515625
754,0.0390625,-0.90234375,-0.53515625
755,0.04296875,-0.91015625,-0.546875
756,0.05859375,-0.91015625,-0.55078125
757,0.03515625,-0.8984375,-0.5234375
758,0.0546875,-0.8984375,-0.52734375
759,0.046875,-0.89453125,-0.52734375
760,0.046875,-0.90234375,-0.55078125
761,0.046875,-0.88671875,-0.5625
762,0.05078125,-0.91015625,-0.55078125
763,0.046875,-0.921875,-0.53515625
764,0.04296875,-0.91015625,-0.54296875
765,0.046875,-0.91796875,-0.546875
766,0.03515625,-0.9140625,-0.55859375
767,0.0390625,-0.91015625,-0.5546875
768,0.0390625,-0.91796875,-0.56640625
769,0.03515625,-0.9140625,-0.55859375
770,0.03515625,-0.90625,-0.5546875
771,0.03125,-0.90625,-0.5546875
772,0.04296875,-0.90234375,-0.53515625
773,0.0390625,-0.90625,-0.53515625
774,0.0390625,-0.890625,-0.53515625
775,0.0390625,-0.88671875,-0.54296875
776,0.046875,-0.8828125,-0.5390625
777,0.046875,-0.88671875,-0.53125
778,0.046875,-0.89453125,-0.5234375
779,0.0625,-0.8984375,-0.51171875
780,0.0625,-0.921875,-0.53125
781,0.0625,-0.91015625,-0.5390625
782,0.05078125,-0.9140625,-0.52734375
783,0.0625,-0.91015625,-0.53515625
784,0.046875,-0.921875,-0.5234375
785,0.046875,-0.90625,-0.5390625
786,0.046875,-0.91015625,-0.52734375
787,0.0546875,-0.8984375,-0.52734375
788,0.05078125,-0.8984375,-0.53125
789,0.046875,-0.8984375,-0.53515625
790,0.04296875,-0.90234375,-0.53515625
791,0.04296875,-0.9140625,-0.52734375
792,0.03515625,-0.91015625,-0.51171875
793,0.04296875,-0.9140625,-0.52734375
794,0.04296875,-0.91796875,-0.515625
795,0.05078125,-0.90625,-0.52734375
796,0.03125,-0.91015625,-0.515625
797,0.03515625,-0.921875,-0.51171875
798,0.03515625,-0.91796875,-0.5390625
799,0.0390625,-0.91796875,-0.5078125
800,0.0390625,-0.91015625,-0.51953125
801,0.0625,-0.9375,-0.5078125
802,0.04296875,-0.91796875,-0.52734375
803,0.05078125,-0.9140625,-0.51953125
804,0.04296875,-0.90234375,-0.5078125
805,0.03515625,-0.91796875,-0.51171875
806,0.03515625,-0.89453125,-0.51953125
807,0.04296875,-0.90234375,-0.5234375
808,0.04296875,-0.9140625,-0.51953125
809,0.04296875,-0.90625,-0.515625
810,0.03515625,-0.91015625,-0.51953125
811,0.04296875,-0.9140625,-0.515625
812,0.04296875,-0.90625,-0.5078125
813,0.02734375,-0.92578125,-0.51953125
814,0.03515625,-0.91796875,-0.50390625
815,0.0234375,-0.9140625,-0.5078125
816,0.0234375,-0.921875,-0.51953125
817,0.03125,-0.92578125,-0.50390625
818,0.0234375,-0.91796875,-0.50390625
819,0.01953125,-0.92578125,-0.515625
820,0.0390625,-0.92578125,-0.50390625
821,0.02734375,-0.921875,-0.51171875
822,0.02734375,-0.91015625,-0.5
823,0.03515625,-0.91796875,-0.5
824,0.03125,-0.9140625,-0.50390625
825,0.05078125,-0.91015625,-0.5078125
826,0.0390625,-0.90625,-0.4921875
827,0.046875,-0.89453125,-0.515625
828,0.05078125,-0.90234375,-0.49609375
829,0.046875,-0.8984375,-0.51171875
830,0.046875,-0.90625,-0.5
831,0.0546875,-0.90234375,-0.49609375
832,0.05078125,-0.91796875,-0.484375
833,0.05078125,-0.91796875,-0.52734375
834,0.04296875,-0.91015625,-0.52734375
835,0.046875,-0.9296875,-0.5234375
836,0.05078125,-0.9296875,-0.51953125
837,0.0390625,-0.91796875,-0.515625
838,0.05078125,-0.93359375,-0.52734375
839,0.0625,-0.9296875,-0.52734375
840,0.06640625,-0.9296875,-0.52734375
841,0.0625,-0.9140625,-0.53125
842,0.0625,-0.94140625,-0.48828125
843,0.0625,-0.91015625,-0.52734375
844,0.046875,-0.90625,-0.53125
845,0.046875,-0.91015625,-0.5390625
846,0.04296875,-0.90625,-0.52734375
847,0.03515625,-0.90234375,-0.53515625
848,0.0390625,-0.90234375,-0.53125
849,0.0390625,-0.90234375,-0.5234375
850,0.0390625,-0.89453125,-0.53125
851,0.0390625,-0.88671875,-0.53125
852,0.046875,-0.890625,-0.53125
853,0.06640625,-0.875,-0.55078125
854,0.04296875,-0.89453125,-0.52734375
855,0.046875,-0.88671875,-0.5234375
856,0.0546875,-0.90625,-0.53515625
857,0.0390625,-0.89453125,-0.51953125
858,0.04296875,-0.91015625,-0.53515625
859,0.04296875,-0.90625,-0.54296875
860,0.0390625,-0.89453125,-0.5078125
861,0.03125,-0.90234375,-0.5234375
862,0.046875,-0.90234375,-0.5078125
863,0.04296875,-0.89453125,-0.52734375
864,0.01171875,-0.8828125,-0.50390625
865,0.03515625,-0.88671875,-0.515625
866,0.02734375,-0.87890625,-0.515625
867,0.03515625,-0.8828125,-0.53125
868,0.03515625,-0.87890625,-0.52734375
869,0.03515625,-0.890625,-0.50390625
870,0.01171875,-0.8828125,-0.5078125
871,0.03125,-0.8828125,-0.51953125
872,0.0234375,-0.87890625,-0.52734375
873,0.03125,-0.8828125,-0.52734375
874,0.0390625,-0.875,-0.52734375
875,0.03125,-0.87890625,-0.5234375
876,0.02734375,-0.88671875,-0.54296875
877,0.03125,-0.890625,-0.546875
878,0.0390625,-0.8984375,-0.56640625
879,0.03515625,-0.90234375,-0.55859375
880,0.0390625,-0.90625,-0.56640625
881,0.02734375,-0.91015625,-0.57421875
882,0.03515625,-0.91796875,-0.57421875
883,0.0234375,-0.91796875,-0.578125
884,0.03125,-0.9140625,-0.57421875
885,0.0234375,-0.93359375,-0.5859375
886,0.03515625,-0.93359375,-0.5546875
887,0.03125,-0.92578125,-0.5546875
888,0.04296875,-0.921875,-0.55859375
889,0.03515625,-0.90625,-0.546875
890,0.0234375,-0.88671875,-0.54296875
891,0.03515625,-0.8828125,-0.546875
892,0.01953125,-0.86328125,-0.55859375
893,0.0234375,-0.8515625,-0.54296875
894,0.03125,-0.83984375,-0.546875
895,0.02734375,-0.84375,-0.5703125
896,0.03125,-0.83984375,-0.5625
897,0.015625,-0.84765625,-0.5625
898,0.03125,-0.859375,-0.5625
899,0.0390625,-0.8671875,-0.55859375
900,0.04296875,-0.87109375,-0.5703125
901,0.0546875,-0.875,-0.54296875
902,0.0546875,-0.8828125,-0.55078125
903,0.05859375,-0.85546875,-0.55078125
904,0.05078125,-0.84765625,-0.5625
905,0.0625,-0.8515625,-0.546875
906,0.05078125,-0.8359375,-0.56640625
907,0.06640625,-0.8359375,-0.57421875
908,0.0625,-0.83984375,-0.57421875
909,0.046875,-0.828125,-0.5703125
910,0.05859375,-0.84375,-0.56640625
911,0.0546875,-0.83203125,-0.55859375
912,0.0546875,-0.81640625,-0.56640625
913,0.0625,-0.84375,-0.5625
914,0.07421875,-0.84375,-0.58203125
915,0.0625,-0.83984375,-0.578125
916,0.05859375,-0.84765625,-0.59375
917,0.0625,-0.84765625,-0.5859375
918,0.07421875,-0.859375,-0.58984375
919,0.06640625,-0.8515625,-0.578125
920,0.0703125,-0.83984375,-0.5546875
921,0.0625,-0.83984375,-0.58984375
922,0.0390625,-0.85546875,-0.58984375
923,0.03515625,-0.8203125,-0.60546875
924,0.04296875,-0.83984375,-0.61328125
925,0.03515625,-0.8203125,-0.61328125
926,0.0390625,-0.80078125,-0.625
927,0.02734375,-0.79296875,-0.63671875
928,0.0234375,-0.76953125,-0.63671875
929,0.01953125,-0.77734375,-0.65625
930,0.01953125,-0.77734375,-0.68359375
931,0.0234375,-0.77734375,-0.69140625
932,0.01953125,-0.7578125,-0.69921875
933,0.01953125,-0.765625,-0.69140625
934,0.0234375,-0.7734375,-0.70703125
935,0.01953125,-0.78125,-0.7265625
936,0.015625,-0.78125,-0.734375
937,0.0234375,-0.7890625,-0.734375
938,0.03515625,-0.7890625,-0.7421875
939,0.015625,-0.7890625,-0.7578125
940,0.0234375,-0.8046875,-0.7421875
941,0.0234375,-0.81640625,-0.74609375
942,0.01171875,-0.8125,-0.7734375
943,0.03125,-0.82421875,-0.78125
944,0.0390625,-0.83203125,-0.80078125
945,0.01953125,-0.828125,-0.7890625
946,0.00390625,-0.796875,-0.79296875
947,0.0234375,-0.828125,-0.79296875
948,0.01953125,-0.80859375,-0.80859375
949,0.046875,-0.83203125,-0.82421875
950,0.02734375,-0.8203125,-0.8359375
951,0.04296875,-0.80859375,-0.8515625
952,0.01953125,-0.8046875,-0.83984375
953,0.0546875,-0.8125,-0.85546875
954,0.05078125,-0.8046875,-0.8671875
955,0.0546875,-0.80859375,-0.875
956,0.04296875,-0.8125,-0.8828125
957,0.0390625,-0.78125,-0.90234375
958,0.0078125,-0.76953125,-0.9140625
959,0.0234375,-0.7578125,-0.93359375
960,0.03515625,-0.73046875,-0.9609375
961,0.0234375,-0.73046875,-0.96484375
962,0.02734375,-0.73828125,-0.9765625
963,0.015625,-0.7265625,-0.9921875
964,0.0234375,-0.734375,-1.03515625
965,0.0234375,-0.75390625,-1.046875
966,0.00390625,-0.72265625,-1.05078125
967,-0.00390625,-0.734375,-1.078125
968,-0.0078125,-0.734375,-1.06640625
969,-0.0078125,-0.73046875,-1.0859375
970,0.0078125,-0.73828125,-1.0859375
971,0.01953125,-0.74609375,-1.09375
972,0.0078125,-0.75,-1.1015625
973,0.01171875,-0.76171875,-1.10546875
974,0.015625,-0.7578125,-1.109375
975,0.015625,-0.75390625,-1.11328125
976,0.01171875,-0.7265625,-1.08203125
977,0.015625,-0.73046875,-1.0703125
978,0.03125,-0.7265625,-1.0859375
979,0.0390625,-0.72265625,-1.0703125
980,0.0546875,-0.69921875,-1.0625
981,0.046875,-0.703125,-1.05859375
982,0.0625,-0.68359375,-1.046875
983,0.05859375,-0.65625,-1.046875
984,0.04296875,-0.62890625,-1.0546875
985,0.04296875,-0.59765625,-1.04296875
986,0.03515625,-0.5859375,-1.03125
987,0.0234375,-0.5859375,-1.0390625
988,0.01953125,-0.5703125,-1.03125
989,0.01953125,-0.57421875,-1.05078125
990,0.03515625,-0.58203125,-1.0546875
991,0.04296875,-0.58203125,-1.05859375
992,0.0546875,-0.58984375,-1.06640625
993,0.0625,-0.59375,-1.05859375
994,0.06640625,-0.58984375,-1.06640625
995,0.06640625,-0.59375,-1.078125
996,0.0859375,-0.58203125,-1.06640625
997,0.08984375,-0.5859375,-1.06640625
998,0.09765625,-0.5859375,-1.05078125
999,0.08203125,-0.578125,-1.0546875
1000,0.08984375,-0.5859375,-1.03125
1001,0.06640625,-0.58984375,-1.03515625
1002,0.05078125,-0.5859375,-1.01953125
1003,0.0390625,-0.578125,-1.0078125
1004,0.03125,-0.5703125,-1.0078125
1005,0.0078125,-0.5546875,-0.9921875
1006,0.00390625,-0.5546875,-0.9765625
1007,-0.01171875,-0.55859375,-0.98046875
1008,-0.03125,-0.54296875,-0.984375
1009,-0.0390625,-0.54296875,-0.9921875
1010,-0.0390625,-0.52734375,-0.98046875
1011,-0.04296875,-0.51171875,-0.99609375
1012,-0.04296875,-0.51171875,-0.9921875
1013,-0.05078125,-0.49609375,-1.00390625
1014,-0.0390625,-0.48046875,-1.00390625
1015,-0.02734375,-0.47265625,-1.0078125
1016,-0.01171875,-0.4765625,-1.01953125
1017,-0.015625,-0.46875,-1.02734375
1018,0.015625,-0.47265625,-1.03515625
1019,0.0234375,-0.47265625,-1.01953125
1020,0.03515625,-0.47265625,-1.0234375
1021,0.03515625,-0.4921875,-1.015625
1022,0.05078125,-0.5,-1.0078125
1023,0.046875,-0.50390625,-1.015625
1024,0.04296875,-0.49609375,-1.01953125
1025,0.046875,-0.51171875,-1.01953125
1026,0.03515625,-0.515625,-1.03125
1027,0.01953125,-0.5,-1.03125
1028,0.01171875,-0.47265625,-1.0234375
1029,-0.01171875,-0.46875,-1.02734375
1030,0.0,-0.4609375,-1.0234375
1031,-0.00390625,-0.4609375,-1.02734375
1032,-0.015625,-0.4609375,-1.03125
1033,-0.00390625,-0.4609375,-1.02734375
1034,-0.0078125,-0.47265625,-1.01953125
1035,-0.01171875,-0.46875,-1.03125
1036,-0.0234375,-0.48046875,-1.03125
1037,-0.0234375,-0.4765625,-1.046875
1038,-0.015625,-0.46875,-1.0234375
1039,-0.03125,-0.46875,-1.01953125
1040,-0.01171875,-0.4765625,-1.03125
1041,-0.0390625,-0.47265625,-1.01171875
1042,-0.03125,-0.45703125,-1.01171875
1043,-0.02734375,-0.46484375,-0.99609375
1044,-0.015625,-0.46875,-0.98046875
1045,-0.0078125,-0.46484375,-0.98828125
1046,-0.01171875,-0.46484375,-0.9921875
1047,0.0,-0.45703125,-0.97265625
1048,0.015625,-0.46484375,-0.984375
1049,0.0078125,-0.453125,-0.98828125
1050,0.0234375,-0.453125,-0.98828125
1051,0.02734375,-0.45703125,-0.9921875
1052,0.015625,-0.4609375,-0.99609375
1053,0.03515625,-0.4609375,-0.9765625
1054,0.00390625,-0.4453125,-0.98046875
1055,-0.00390625,-0.4375,-0.98046875
1056,0.0078125,-0.44921875,-0.97265625
1057,0.00390625,-0.4453125,-0.98046875
1058,-0.02734375,-0.4296875,-0.97265625
1059,-0.01953125,-0.4375,-0.9609375
1060,-0.03125,-0.4296875,-0.984375
1061,-0.03125,-0.4296875,-0.9609375
1062,-0.03515625,-0.421875,-0.95703125
1063,-0.03125,-0.42578125,-0.9453125
1064,-0.03125,-0.4296875,-0.953125
1065,-0.01953125,-0.44921875,-0.93359375
1066,-0.03515625,-0.44140625,-0.93359375
1067,-0.02734375,-0.45703125,-0.94140625
1068,-0.03125,-0.453125,-0.92578125
1069,-0.0234375,-0.4453125,-0.94921875
1070,-0.03125,-0.45703125,-0.9453125
1071,-0.01953125,-0.4609375,-0.94921875
1072,-0.04296875,-0.43359375,-0.9375
1073,-0.02734375,-0.44921875,-0.953125
1074,-0.0078125,-0.4375,-0.92578125
1075,0.0,-0.41796875,-0.93359375
1076,0.0078125,-0.43359375,-0.9296875
1077,0.0078125,-0.41796875,-0.92578125
1078,0.0078125,-0.4140625,-0.92578125
1079,0.00390625,-0.40625,-0.94921875
1080,0.015625,-0.40234375,-0.9375
1081,0.0,-0.38671875,-0.984375
1082,0.0,-0.40234375,-0.94140625
1083,0.0,-0.4296875,-0.921875
1084,0.0,-0.42578125,-0.94140625
1085,-0.01171875,-0.44140625,-0.93359375
1086,-0.01953125,-0.44140625,-0.94140625
1087,-0.0234375,-0.4375,-0.93359375
1088,-0.03515625,-0.42578125,-0.953125
1089,-0.03515625,-0.421875,-0.9609375
1090,-0.02734375,-0.4140625,-0.94140625
1091,-0.02734375,-0.40234375,-0.9453125
1092,-0.01953125,-0.37890625,-1.0
1093,0.00390625,-0.39453125,-0.95703125
1094,0.0,-0.3828125,-0.95703125
1095,0.0,-0.37890625,-0.96484375
1096,0.01171875,-0.36328125,-0.95703125
1097,0.0078125,-0.3671875,-0.94140625
1098,0.02734375,-0.38671875,-0.94921875
1099,0.02734375,-0.375,-0.94921875
1100,0.01953125,-0.39453125,-0.93359375
1101,0.015625,-0.40234375,-0.91015625
1102,0.015625,-0.40234375,-0.9140625
1103,0.01953125,-0.42578125,-0.91015625
1104,0.015625,-0.390625,-0.90625
1105,0.01953125,-0.3828125,-0.921875
1106,0.00390625,-0.375,-0.91015625
1107,0.00390625,-0.390625,-0.921875
1108,0.0,-0.37890625,-0.90234375
1109,-0.00390625,-0.38671875,-0.921875
1110,0.00390625,-0.375,-0.921875
1111,0.0,-0.38671875,-0.91796875
1112,0.0,-0.3828125,-0.91796875
1113,0.01171875,-0.38671875,-0.9375
1114,0.00390625,-0.37890625,-0.921875
1115,0.0,-0.3828125,-0.93359375
1116,0.0078125,-0.3671875,-0.9453125
1117,0.03125,-0.359375,-0.93359375
1118,0.02734375,-0.34375,-0.94921875
1119,0.04296875,-0.34375,-0.9453125
1120,0.0546875,-0.328125,-0.94921875
1121,0.06640625,-0.3203125,-0.93359375
1122,0.09765625,-0.3203125,-0.94140625
1123,0.08984375,-0.3203125,-0.94921875
1124,0.09765625,-0.33203125,-0.9375
1125,0.1015625,-0.34765625,-0.9453125
1126,0.09765625,-0.35546875,-0.953125
1127,0.1015625,-0.375,-0.92578125
1128,0.078125,-0.375,-0.9375
1129,0.0703125,-0.3828125,-0.9296875
1130,0.0625,-0.39453125,-0.9375
1131,0.046875,-0.3671875,-0.9453125
1132,0.03515625,-0.3515625,-0.91796875
1133,0.04296875,-0.3359375,-0.93359375
1134,0.01171875,-0.32421875,-0.94921875
1135,0.0234375,-0.33203125,-0.9296875
1136,0.01953125,-0.3203125,-0.953125
1137,0.03125,-0.30859375,-0.953125
1138,0.0390625,-0.32421875,-0.9609375
1139,0.046875,-0.3125,-0.94921875
1140,0.06640625,-0.3203125,-0.95703125
1141,0.07421875,-0.32421875,-0.94921875
1142,0.09765625,-0.3359375,-0.9453125
1143,0.11328125,-0.32421875,-0.9453125
1144,0.10546875,-0.3359375,-0.953125
1145,0.109375,-0.33984375,-0.93359375
1146,0.11328125,-0.34375,-0.9296875
1147,0.1015625,-0.34375,-0.9140625
1148,0.08984375,-0.3359375,-0.91796875
1149,0.06640625,-0.32421875,-0.91796875
1150,0.05078125,-0.328125,-0.921875
1151,0.046875,-0.32421875,-0.90625
1152,0.0390625,-0.328125,-0.91015625
1153,0.0234375,-0.3203125,-0.9140625
1154,0.01171875,-0.3203125,-0.9296875
1155,0.01953125,-0.3203125,-0.921875
1156,0.0234375,-0.3125,-0.921875
1157,0.03125,-0.30078125,-0.91796875
1158,0.04296875,-0.30859375,-0.92578125
1159,0.0625,-0.296875,-0.921875
1160,0.08203125,-0.2890625,-0.9140625
1161,0.1015625,-0.28515625,-0.90625
1162,0.12109375,-0.3125,-0.91796875
1163,0.125,-0.328125,-0.91796875
1164,0.12890625,-0.33984375,-0.90625
1165,0.125,-0.34375,-0.91015625
1166,0.140625,-0.34765625,-0.91796875
1167,0.13671875,-0.35546875,-0.92578125
1168,0.140625,-0.33984375,-0.91015625
1169,0.1328125,-0.3359375,-0.890625
1170,0.1328125,-0.3359375,-0.88671875
1171,0.140625,-0.328125,-0.89453125
1172,0.14453125,-0.3125,-0.8828125
1173,0.14453125,-0.3046875,-0.87890625
1174,0.140625,-0.3203125,-0.87109375
1175,0.12890625,-0.3203125,-0.859375
1176,0.1484375,-0.31640625,-0.8671875
1177,0.140625,-0.328125,-0.8515625
1178,0.125,-0.3203125,-0.88671875
1179,0.12109375,-0.3125,-0.89453125
1180,0.13671875,-0.2890625,-0.90234375
1181,0.1171875,-0.30078125,-0.88671875
1182,0.10546875,-0.3046875,-0.87890625
1183,0.0859375,-0.29296875,-0.90625
1184,0.10546875,-0.3125,-0.8828125
1185,0.09765625,-0.31640625,-0.875
1186,0.10546875,-0.29296875,-0.87890625
1187,0.1015625,-0.296875,-0.8515625
1188,0.1328125,-0.3046875,-0.83984375
1189,0.1328125,-0.3046875,-0.84765625
1190,0.16796875,-0.30078125,-0.828125
1191,0.16796875,-0.3203125,-0.828125
1192,0.19921875,-0.30078125,-0.83203125
1193,0.1953125,-0.2890625,-0.84765625
1194,0.2109375,-0.29296875,-0.84765625
1195,0.234375,-0.3046875,-0.859375
1196,0.23828125,-0.30859375,-0.84765625
1197,0.23046875,-0.3125,-0.8671875
1198,0.1796875,-0.3203125,-0.89453125
1199,0.20703125,-0.2890625,-0.91015625
1200,0.1875,-0.28515625,-0.91796875
1201,0.16015625,-0.2890625,-0.92578125
1202,0.12890625,-0.265625,-0.9140625
1203,0.12109375,-0.27734375,-0.921875
1204,0.11328125,-0.26171875,-0.9140625
1205,0.07421875,-0.24609375,-0.9296875
1206,0.06640625,-0.25,-0.9296875
1207,0.0234375,-0.296875,-0.9609375
1208,0.06640625,-0.234375,-0.9375
1209,0.05078125,-0.2421875,-0.92578125
1210,0.0546875,-0.24609375,-0.92578125
1211,0.0546875,-0.23046875,-0.8984375
1212,0.0625,-0.2421875,-0.87890625
1213,0.09765625,-0.2578125,-0.8515625
1214,0.0859375,-0.24609375,-0.82421875
1215,0.11328125,-0.26171875,-0.80859375
1216,0.1171875,-0.26171875,-0.80859375
1217,0.13671875,-0.2578125,-0.76953125
1218,0.1640625,-0.29296875,-0.77734375
1219,0.1484375,-0.2890625,-0.76953125
1220,0.1640625,-0.32421875,-0.77734375
1221,0.16015625,-0.32421875,-0.7734375
1222,0.140625,-0.32421875,-0.78125
1223,0.125,-0.36328125,-0.79296875
1224,0.140625,-0.31640625,-0.82421875
1225,0.12890625,-0.34765625,-0.81640625
1226,0.0859375,-0.3671875,-0.8359375
1227,0.1171875,-0.359375,-0.85546875
1228,0.08203125,-0.3828125,-0.8515625
1229,0.06640625,-0.359375,-0.85546875
1230,0.03125,-0.359375,-0.87109375
1231,0.0234375,-0.36328125,-0.87109375
1232,0.015625,-0.35546875,-0.8671875
1233,0.0078125,-0.31640625,-0.85546875
1234,-0.01953125,-0.3046875,-0.85546875
1235,0.00390625,-0.2734375,-0.85546875
1236,-0.01171875,-0.25,-0.8125
1237,0.0078125,-0.26171875,-0.796875
1238,0.00390625,-0.25390625,-0.7578125
1239,0.01953125,-0.26953125,-0.7578125
1240,0.0625,-0.28125,-0.734375
1241,0.1171875,-0.30859375,-0.734375
1242,0.17578125,-0.33203125,-0.73046875
1243,0.20703125,-0.3671875,-0.71875
1244,0.24609375,-0.36328125,-0.734375
1245,0.265625,-0.37890625,-0.734375
1246,0.30078125,-0.3984375,-0.72265625
1247,0.34765625,-0.38671875,-0.7265625
1248,0.3203125,-0.45703125,-0.7265625
1249,0.37890625,-0.375,-0.73828125
1250,0.390625,-0.39453125,-0.75
1251,0.375,-0.390625,-0.76171875
1252,0.36328125,-0.34765625,-0.78125
1253,0.34765625,-0.26171875,-0.765625
1254,0.3359375,-0.24609375,-0.7734375
1255,0.27734375,-0.2265625,-0.76171875
1256,0.25,-0.2421875,-0.75
1257,0.24609375,-0.2734375,-0.7421875
1258,0.22265625,-0.2890625,-0.7265625
1259,0.296875,-0.30078125,-0.7109375
1260,0.25,-0.3359375,-0.640625
1261,0.21484375,-0.2890625,-0.63671875
1262,0.19140625,-0.25,-0.63671875
1263,0.25,-0.2265625,-0.58203125
1264,0.3203125,-0.18359375,-0.5546875
1265,0.30078125,-0.16015625,-0.55859375
1266,0.28515625,-0.15234375,-0.56640625
1267,0.3359375,-0.109375,-0.5859375
1268,0.3203125,-0.125,-0.62890625
1269,0.3125,-0.17578125,-0.640625
1270,0.2734375,-0.21484375,-0.71875
1271,0.30078125,-0.3046875,-0.7421875
1272,0.34375,-0.359375,-0.7421875
1273,0.23046875,-0.3828125,-0.73046875
1274,0.2265625,-0.39453125,-0.71484375
1275,0.296875,-0.43359375,-0.69140625
1276,0.296875,-0.46875,-0.69921875
1277,0.23046875,-0.4375,-0.62109375
1278,0.13671875,-0.3828125,-0.5859375
1279,0.24609375,-0.34375,-0.56640625
1280,0.23046875,-0.28515625,-0.59765625
1281,0.1640625,-0.23046875,-0.609375
1282,0.109375,-0.2109375,-0.609375
1283,0.25,-0.25,-0.66015625
1284,0.55078125,-0.14453125,-0.765625
1285,0.41015625,-0.07421875,-0.89453125
1286,0.390625,0.05078125,-0.94140625
1287,0.37890625,0.0625,-0.953125
1288,0.47265625,-0.03515625,-0.94140625
1289,0.578125,-0.109375,-0.91015625
1290,0.80078125,-0.19921875,-0.91015625
1291,1.0234375,-0.28515625,-0.84765625
1292,1.36328125,-0.3515625,-0.796875
1293,1.453125,-0.46875,-0.78125
1294,1.6875,-0.515625,-0.796875
1295,1.9140625,-0.3828125,-0.80859375
1296,2.21484375,-0.24609375,-0.84765625
1297,2.19921875,0.1171875,-0.95703125
1298,1.91015625,0.390625,-0.91015625
1299,1.9609375,0.56640625,-0.89453125
1300,2.125,0.6171875,-0.89453125
1301,2.22265625,0.69921875,-0.8984375
1302,2.3671875,0.90625,-0.91796875
1303,3.2421875,1.1171875,-0.6328125
1304,3.81640625,1.42578125,-0.65625
1305,5.23046875,2.00390625,-0.8671875
1306,6.5625,2.5390625,-1.12109375
1307,6.890625,2.61328125,-1.11328125
1308,6.69140625,2.3046875,-1.05078125
1309,5.95703125,1.7578125,-1.109375
1310,4.9296875,1.20703125,-1.23828125
1311,3.87109375,0.6328125,-1.16015625
1312,2.8515625,0.28125,-0.9140625
1313,1.94140625,-0.0546875,-0.53515625
1314,1.109375,-0.2734375,-0.23046875
1315,0.546875,-0.59765625,-0.078125
1316,0.23828125,-0.73828125,-0.16796875
1317,-0.03125,-0.6796875,-0.2421875
1318,-0.28125,-0.6796875,-0.22265625
1319,-0.2421875,-0.56640625,-0.0546875
1320,-0.359375,-0.15625,0.0234375
1321,0.05078125,0.25,0.25
1322,0.5,0.625,0.453125
1323,0.796875,0.84375,0.51953125
1324,1.15234375,0.84375,0.4296875
1325,1.1953125,0.92578125,0.32421875
1326,1.3984375,0.78125,0.1875
1327,1.55078125,0.71875,0.08984375
1328,1.5546875,0.5390625,-0.0546875
1329,1.58984375,0.38671875,-0.078125
1330,1.59375,0.27734375,-0.19921875
1331,1.546875,0.15625,-0.2578125
1332,1.4296875,0.12890625,-0.3125
1333,1.31640625,0.06640625,-0.390625
1334,1.1640625,0.203125,-0.375
1335,0.97265625,0.29296875,-0.30859375
1336,0.8046875,0.50390625,-0.21484375
1337,0.51953125,0.64453125,-0.078125
1338,0.390625,0.83984375,0.04296875
1339,0.21875,0.91015625,0.1015625
1340,0.2578125,0.91796875,0.16015625
1341,0.17578125,0.85546875,0.1640625
1342,0.07421875,0.7734375,0.1640625
1343,0.12109375,0.7109375,0.16796875
1344,0.15234375,0.66796875,0.21875
1345,0.12109375,0.61328125,0.26171875
1346,0.14453125,0.515625,0.30859375
1347,0.1875,0.44140625,0.33984375
1348,0.29296875,0.41015625,0.375
1349,0.4296875,0.359375,0.3828125
1350,0.53125,0.3203125,0.3828125
1351,0.6484375,0.3046875,0.36328125
1352,0.7421875,0.30859375,0.33984375
1353,0.83984375,0.30078125,0.33203125
1354,0.91796875,0.28125,0.3125
1355,0.93359375,0.265625,0.28125
1356,0.87890625,0.26953125,0.2421875
1357,0.8671875,0.28125,0.19140625
1358,0.859375,0.2890625,0.1484375
1359,0.859375,0.30078125,0.06640625
1360,0.88671875,0.3125,0.03125
1361,0.8984375,0.30859375,0.0
1362,0.88671875,0.296875,0.0234375
1363,0.90234375,0.2734375,0.05859375
1364,0.87109375,0.24609375,0.1171875
1365,0.890625,0.19921875,0.13671875
1366,0.953125,0.15234375,0.19140625
1367,0.9921875,0.15234375,0.28515625
1368,1.06640625,0.1640625,0.3828125
1369,0.98828125,0.22265625,0.43359375
1370,0.96484375,0.25390625,0.47265625
1371,0.91796875,0.27734375,0.49609375
1372,0.92578125,0.2421875,0.484375
1373,0.94140625,0.2265625,0.44140625
1374,0.953125,0.1796875,0.41015625
1375,0.96875,0.1640625,0.3671875
1376,1.0390625,0.1640625,0.3125
1377,1.125,0.12890625,0.2890625
1378,1.1484375,0.12890625,0.27734375
1379,1.140625,0.1171875,0.28125
1380,1.15234375,0.09765625,0.3046875
1381,1.15625,0.09765625,0.35546875
1382,1.1328125,0.08203125,0.37109375
1383,1.0859375,0.03515625,0.390625
1384,1.06640625,0.0078125,0.390625
1385,1.03515625,-0.01953125,0.32421875
1386,1.00390625,-0.02734375,0.29296875
1387,1.0234375,-0.046875,0.25390625
1388,1.04296875,-0.05859375,0.2265625
1389,1.05078125,-0.0625,0.1875
1390,1.01953125,-0.046875,0.1796875
1391,1.0078125,-0.015625,0.16015625
1392,0.9921875,-0.00390625,0.171875
1393,0.97265625,0.0390625,0.15234375
1394,0.9453125,0.0625,0.16015625
1395,0.9375,0.078125,0.1640625
1396,0.91796875,0.05859375,0.171875
1397,0.9140625,0.0546875,0.16796875
1398,0.90625,0.05078125,0.1484375
1399,0.87890625,0.046875,0.16796875
1400,0.875,0.04296875,0.1484375
1401,0.828125,0.02734375,0.1328125
1402,0.83203125,0.01953125,0.14453125
1403,0.80859375,0.01953125,0.11328125
1404,0.828125,0.01953125,0.1171875
1405,0.84375,-0.015625,0.1328125
1406,0.83203125,-0.01953125,0.140625
1407,0.86328125,-0.03515625,0.17578125
1408,0.8828125,-0.0390625,0.21484375
1409,0.8828125,-0.01171875,0.21875
1410,0.8828125,0.0,0.22265625
1411,0.94140625,-0.00390625,0.19140625
1412,0.91796875,-0.03125,0.19140625
1413,0.9296875,-0.05078125,0.19140625
1414,0.9375,-0.04296875,0.15625
1415,0.9453125,-0.0234375,0.13671875
1416,0.95703125,-0.0234375,0.1171875
1417,0.96484375,-0.01953125,0.10546875
1418,0.9609375,-0.0390625,0.08203125
1419,0.984375,-0.07421875,0.09375
1420,1.0,-0.0859375,0.11328125
1421,1.0,-0.08984375,0.09765625
1422,1.0078125,-0.078125,0.0703125
1423,1.0390625,-0.0625,0.02734375
1424,1.015625,-0.02734375,-0.0234375
1425,1.046875,-0.0234375,-0.06640625
1426,1.0390625,-0.00390625,-0.11328125
1427,1.015625,-0.01953125,-0.109375
1428,1.00390625,-0.03125,-0.12890625
1429,0.98046875,-0.03515625,-0.171875
1430,0.96875,-0.015625,-0.1875
1431,0.984375,-0.0078125,-0.19921875
1432,0.98828125,0.0078125,-0.19921875
1433,0.9921875,0.015625,-0.171875
1434,0.9609375,0.02734375,-0.14453125
1435,0.96484375,0.0546875,-0.09375
1436,1.0,0.09375,-0.078125
1437,0.99609375,0.16015625,-0.0859375
1438,1.00390625,0.1796875,-0.0703125
1439,0.96875,0.21875,-0.078125
1440,0.93359375,0.2421875,-0.09375
1441,0.94921875,0.234375,-0.15234375
1442,0.94140625,0.22265625,-0.19921875
1443,0.94921875,0.1640625,-0.22265625
1444,0.95703125,0.109375,-0.21484375
1445,0.97265625,0.04296875,-0.203125
1446,0.9921875,0.03125,-0.203125
1447,0.98828125,0.03125,-0.1796875
1448,0.99609375,0.01171875,-0.1328125
1449,0.97265625,0.02734375,-0.11328125
1450,0.94921875,0.0234375,-0.1796875
1451,0.80078125,0.09375,-0.2109375
1452,0.74609375,0.13671875,-0.2578125
1453,0.78125,0.29296875,-0.27734375
1454,0.7265625,0.28515625,-0.37109375
1455,0.83203125,0.39453125,-0.4765625
1456,0.875,0.44921875,-0.54296875
1457,1.0,0.48828125,-0.72265625
1458,1.21484375,0.46875,-0.859375
1459,1.12890625,0.4453125,-1.0
1460,1.19140625,0.375,-1.1015625
1461,1.3046875,0.37109375,-1.06640625
1462,1.25,0.40625,-0.9765625
1463,1.2421875,0.44921875,-0.91796875
1464,1.27734375,0.51171875,-0.8125
1465,1.33203125,0.56640625,-0.703125
1466,1.3828125,0.546875,-0.6953125
1467,1.37890625,0.53515625,-0.65234375
1468,1.4140625,0.50390625,-0.640625
1469,1.3671875,0.4453125,-0.59765625
1470,1.31640625,0.3671875,-0.5703125
1471,1.2109375,0.30078125,-0.53125
1472,1.0859375,0.24609375,-0.546875
1473,0.96875,0.1875,-0.5546875
1474,0.8984375,0.14453125,-0.53515625
1475,0.7890625,0.1484375,-0.5546875
1476,0.69921875,0.109375,-0.546875
1477,0.6328125,0.09375,-0.53125
1478,0.546875,0.109375,-0.55859375
1479,0.48046875,0.10546875,-0.54296875
1480,0.4296875,0.12109375,-0.5234375
1481,0.421875,0.1953125,-0.53515625
1482,0.41015625,0.234375,-0.51953125
1483,0.46484375,0.29296875,-0.5078125
1484,0.51171875,0.359375,-0.5390625
1485,0.5390625,0.43359375,-0.53515625
1486,0.640625,0.5078125,-0.5859375
1487,0.75390625,0.55078125,-0.5859375
1488,0.85546875,0.4765625,-0.59765625
1489,0.875,0.41015625,-0.58984375
1490,0.90625,0.37890625,-0.61328125
1491,0.9140625,0.3359375,-0.6171875
1492,0.9140625,0.328125,-0.640625
1493,0.93359375,0.3515625,-0.6640625
1494,0.93359375,0.359375,-0.703125
1495,0.9375,0.35546875,-0.703125
1496,0.9765625,0.3359375,-0.703125
1497,1.0078125,0.33203125,-0.71875
1498,1.05078125,0.328125,-0.71484375
1499,1.0390625,0.32421875,-0.70703125
1500,1.04296875,0.3359375,-0.734375
1501,1.0078125,0.34765625,-0.7265625
1502,0.98828125,0.3515625,-0.72265625
1503,1.0,0.39453125,-0.75
1504,0.98828125,0.3828125,-0.71875
1505,1.01171875,0.3828125,-0.70703125
1506,0.98828125,0.38671875,-0.69140625
1507,0.91015625,0.3828125,-0.66015625
1508,0.9375,0.3828125,-0.62109375
1509,0.9453125,0.375,-0.59765625
1510,0.921875,0.359375,-0.6015625
1511,0.90625,0.38671875,-0.5859375
1512,0.90234375,0.38671875,-0.6015625
1513,0.91796875,0.359375,-0.6171875
1514,0.91796875,0.33203125,-0.62109375
1515,0.90625,0.29296875,-0.609375
1516,0.875,0.28125,-0.625
1517,0.890625,0.26953125,-0.62890625
1518,0.88671875,0.265625,-0.640625
1519,0.88671875,0.27734375,-0.6484375
1520,0.8984375,0.28515625,-0.66796875
1521,0.8984375,0.296875,-0.67578125
1522,0.90625,0.30859375,-0.65625
1523,0.8984375,0.3046875,-0.65625
1524,0.9140625,0.296875,-0.6328125
1525,0.91015625,0.30078125,-0.62109375
1526,0.90234375,0.29296875,-0.58984375
1527,0.88671875,0.2890625,-0.609375
1528,0.91015625,0.28125,-0.58984375
1529,0.90234375,0.28125,-0.5859375
1530,0.890625,0.28515625,-0.58984375
1531,0.87890625,0.28125,-0.56640625
1532,0.87109375,0.28515625,-0.6328125
1533,0.921875,0.2890625,-0.5859375
1534,0.91015625,0.26171875,-0.546875
1535,0.875,0.2734375,-0.5390625
1536,0.8984375,0.2734375,-0.56640625
1537,0.90234375,0.25,-0.5078125
1538,0.90234375,0.2578125,-0.546875
1539,0.91796875,0.26953125,-0.55078125
1540,0.91796875,0.265625,-0.55078125
1541,0.92578125,0.26171875,-0.54296875
1542,0.921875,0.26953125,-0.5234375
1543,0.94140625,0.25390625,-0.5234375
1544,0.9453125,0.2421875,-0.546875
1545,0.9453125,0.25,-0.53125
1546,0.94140625,0.25,-0.5546875
1547,0.9375,0.2578125,-0.53515625
1548,0.953125,0.23828125,-0.49609375
1549,0.9375,0.25390625,-0.54296875
1550,0.96484375,0.26953125,-0.546875
1551,0.95703125,0.25390625,-0.53515625
1552,0.94921875,0.25390625,-0.54296875
1553,0.9375,0.26171875,-0.53125
1554,0.95703125,0.265625,-0.52734375
1555,0.9375,0.25,-0.53125
1556,0.93359375,0.2578125,-0.5234375
1557,0.9296875,0.2578125,-0.51953125
1558,0.93359375,0.25,-0.5078125
1559,0.87890625,0.265625,-0.515625
1560,0.91796875,0.2578125,-0.51171875
1561,0.92578125,0.24609375,-0.515625
1562,0.9140625,0.24609375,-0.5234375
1563,0.9296875,0.24609375,-0.5078125
1564,0.90234375,0.25390625,-0.51953125
1565,0.91015625,0.23828125,-0.51953125
1566,0.921875,0.2109375,-0.53125
1567,0.9609375,0.2421875,-0.54296875
1568,0.93359375,0.25,-0.49609375
1569,0.9296875,0.24609375,-0.515625
1570,0.91796875,0.24609375,-0.5078125
1571,0.91796875,0.24609375,-0.52734375
1572,0.921875,0.234375,-0.53125
1573,0.9140625,0.2421875,-0.53125
1574,0.90234375,0.25,-0.5390625
1575,0.91015625,0.25,-0.52734375
1576,0.90625,0.25,-0.51953125
1577,0.91015625,0.26171875,-0.5390625
1578,0.9140625,0.2578125,-0.55078125
1579,0.91015625,0.2421875,-0.546875
1580,0.8671875,0.22265625,-0.54296875
1581,0.93359375,0.26171875,-0.57421875
1582,0.90234375,0.25,-0.546875
1583,0.91015625,0.23828125,-0.55078125
1584,0.90625,0.26171875,-0.5625
1585,0.92578125,0.2578125,-0.55078125
1586,0.89453125,0.25,-0.54296875
1587,0.90234375,0.2421875,-0.53125
1588,0.90234375,0.2421875,-0.5234375
1589,0.890625,0.2578125,-0.5546875
1590,0.9140625,0.24609375,-0.546875
1591,0.88671875,0.234375,-0.55078125
1592,0.9375,0.2734375,-0.62890625
1593,0.9375,0.28125,-0.5625
1594,0.93359375,0.28125,-0.578125
1595,0.91796875,0.2734375,-0.59765625
1596,0.921875,0.28125,-0.58984375
1597,0.93359375,0.26953125,-0.5859375
1598,0.9609375,0.27734375,-0.59375
1599,0.89453125,0.28515625,-0.58984375
1600,0.91015625,0.28515625,-0.60546875
1601,0.90234375,0.28125,-0.6015625
1602,0.890625,0.23828125,-0.65625
1603,0.9375,0.3203125,-0.59765625
1604,0.92578125,0.296875,-0.55078125
1605,0.90234375,0.2890625,-0.55859375
1606,0.89453125,0.28125,-0.5859375
1607,0.90234375,0.26953125,-0.56640625
1608,0.8515625,0.265625,-0.56640625
1609,0.8984375,0.27734375,-0.61328125
1610,0.93359375,0.28515625,-0.578125
1611,0.91015625,0.30078125,-0.55078125
1612,0.91015625,0.2734375,-0.5625
1613,0.91015625,0.2734375,-0.59375
1614,0.921875,0.26171875,-0.58984375
1615,0.91015625,0.26953125,-0.6015625
1616,0.91796875,0.2734375,-0.6015625
1617,0.8984375,0.2734375,-0.59375
1618,0.92578125,0.2734375,-0.58984375
1619,0.90234375,0.28515625,-0.609375
1620,0.9140625,0.2890625,-0.6015625
1621,0.90625,0.27734375,-0.58203125
1622,0.90625,0.27734375,-0.5859375
1623,0.89453125,0.27734375,-0.60546875
1624,0.83203125,0.25390625,-0.59375
1625,0.90234375,0.2578125,-0.6640625
1626,0.94140625,0.28515625,-0.59765625
1627,0.91796875,0.28125,-0.5703125
1628,0.90234375,0.27734375,-0.60546875
1629,0.90625,0.26953125,-0.58984375
1630,0.890625,0.26171875,-0.578125
1631,0.890625,0.26171875,-0.57421875
1632,0.90234375,0.2578125,-0.58203125
1633,0.89453125,0.26171875,-0.5703125
1634,0.90234375,0.26171875,-0.5859375
1635,0.89453125,0.26171875,-0.59765625
1636,0.91015625,0.2578125,-0.6015625
1637,0.91015625,0.2578125,-0.59375
1638,0.90625,0.25390625,-0.59765625
1639,0.921875,0.26953125,-0.6171875
1640,0.93359375,0.26953125,-0.6171875
1641,0.9140625,0.27734375,-0.62109375
1642,0.9296875,0.265625,-0.609375
1643,0.921875,0.265625,-0.63671875
1644,0.921875,0.2734375,-0.6171875
1645,0.92578125,0.2734375,-0.609375
1646,0.921875,0.26171875,-0.59765625
1647,0.859375,0.2265625,-0.58203125
1648,0.83203125,0.16015625,-0.625
1649,0.9375,0.29296875,-0.6015625
1650,0.9375,0.28515625,-0.57421875
1651,0.92578125,0.2890625,-0.56640625
1652,0.91015625,0.29296875,-0.57421875
1653,0.921875,0.2734375,-0.5546875
1654,0.92578125,0.2734375,-0.578125
1655,0.89453125,0.26171875,-0.55859375
1656,0.90234375,0.26171875,-0.5703125
1657,0.90625,0.26171875,-0.5625
1658,0.8984375,0.26171875,-0.57421875
1659,0.90625,0.2578125,-0.5625
1660,0.89453125,0.26171875,-0.5625
1661,0.90625,0.2734375,-0.5625
1662,0.90234375,0.27734375,-0.5546875
1663,0.91796875,0.26953125,-0.5703125
1664,0.90625,0.265625,-0.578125
1665,0.90625,0.265625,-0.5703125
1666,0.91796875,0.26171875,-0.5625
1667,0.91015625,0.265625,-0.57421875
1668,0.91015625,0.2734375,-0.5625
1669,0.90234375,0.27734375,-0.56640625
1670,0.89453125,0.26171875,-0.5546875
1671,0.90234375,0.26171875,-0.546875
1672,0.75390625,0.10546875,-0.47265625
1673,0.91015625,0.29296875,-0.62109375
1674,0.9453125,0.32421875,-0.55078125
1675,0.9375,0.30078125,-0.515625
1676,0.921875,0.28515625,-0.5546875
1677,0.9140625,0.2734375,-0.5625
1678,0.91796875,0.265625,-0.56640625
1679,0.92578125,0.27734375,-0.57421875
1680,0.921875,0.27734375,-0.56640625
1681,0.90625,0.2734375,-0.5859375
1682,0.91796875,0.26953125,-0.56640625
1683,0.90625,0.27734375,-0.578125
1684,0.91796875,0.26953125,-0.5625
1685,0.921875,0.2734375,-0.5703125
1686,0.90625,0.2734375,-0.58203125
1687,0.91796875,0.28125,-0.5625
1688,0.9140625,0.27734375,-0.5546875
1689,0.90625,0.26953125,-0.578125
1690,0.91015625,0.265625,-0.5625
1691,0.91015625,0.265625,-0.57421875
1692,0.90234375,0.2734375,-0.56640625
1693,0.91015625,0.26171875,-0.56640625
1694,0.91015625,0.265625,-0.5625
1695,0.9140625,0.26171875,-0.57421875
1696,0.90625,0.26171875,-0.57421875
1697,0.91796875,0.265625,-0.546875
1698,0.91015625,0.26953125,-0.5625
1699,0.91796875,0.2734375,-0.5546875
1700,0.90625,0.2734375,-0.56640625
1701,0.91015625,0.2734375,-0.5625
1702,0.91796875,0.26953125,-0.546875
1703,0.9140625,0.26953125,-0.5625
1704,0.91015625,0.27734375,-0.5546875
1705,0.90234375,0.265625,-0.55859375
1706,0.90234375,0.28125,-0.55859375
1707,0.91796875,0.27734375,-0.5546875
1708,0.9296875,0.25,-0.49609375
1709,0.92578125,0.2421875,-0.48046875
1710,0.92578125,0.27734375,-0.5390625
1711,0.91015625,0.27734375,-0.54296875
1712,0.90625,0.27734375,-0.5390625
1713,0.91015625,0.2734375,-0.55859375
1714,0.91015625,0.26171875,-0.55078125
1715,0.91015625,0.26953125,-0.546875
1716,0.90625,0.2734375,-0.5390625
1717,0.91015625,0.2734375,-0.55859375
1718,0.9140625,0.26953125,-0.55078125
1719,0.9140625,0.26953125,-0.5546875
1720,0.91015625,0.26953125,-0.5390625
1721,0.9140625,0.2734375,-0.5625
1722,0.921875,0.265625,-0.5625
1723,0.9140625,0.28125,-0.5625
1724,0.921875,0.26953125,-0.55859375
1725,0.91796875,0.28125,-0.55859375
1726,0.91015625,0.2734375,-0.5546875
1727,0.9140625,0.27734375,-0.55859375
1728,0.91796875,0.28125,-0.5546875
1729,0.91796875,0.28125,-0.5703125
1730,0.90625,0.26953125,-0.5625
1731,0.9140625,0.2734375,-0.56640625
1732,0.91015625,0.28125,-0.546875
1733,0.9140625,0.27734375,-0.55859375
1734,0.91796875,0.2734375,-0.54296875
1735,0.9140625,0.27734375,-0.55859375
1736,0.91015625,0.28125,-0.546875
1737,0.91015625,0.28125,-0.546875
1738,0.90234375,0.27734375,-0.53515625
1739,0.91796875,0.27734375,-0.55078125
1740,0.90234375,0.2734375,-0.53125
1741,0.9140625,0.27734375,-0.546875
1742,0.91796875,0.26953125,-0.55078125
1743,0.9140625,0.27734375,-0.55078125
1744,0.90625,0.28125,-0.55078125
1745,0.90234375,0.2734375,-0.53515625
1746,0.9140625,0.27734375,-0.5546875
1747,0.91796875,0.26953125,-0.55078125
1748,0.9140625,0.27734375,-0.57421875
1749,0.9140625,0.27734375,-0.5546875
1750,0.91796875,0.2734375,-0.55078125
1751,0.90625,0.28125,-0.5703125
1752,0.9140625,0.2734375,-0.5625
1753,0.91015625,0.26953125,-0.5625
1754,0.91796875,0.2734375,-0.55859375
1755,0.9140625,0.328125,-0.546875
1756,0.91015625,0.27734375,-0.55859375
1757,0.92578125,0.27734375,-0.56640625
1758,0.91796875,0.2734375,-0.546875
1759,0.92578125,0.2734375,-0.5625
1760,0.91796875,0.28125,-0.5703125
1761,0.921875,0.2734375,-0.5625
1762,0.91015625,0.2734375,-0.56640625
1763,0.9296875,0.28125,-0.56640625
1764,0.9140625,0.28515625,-0.56640625
1765,0.9140625,0.27734375,-0.5625
1766,0.94921875,0.2734375,-0.515625
1767,0.9140625,0.28125,-0.546875
1768,0.91015625,0.28125,-0.5703125
1769,0.9140625,0.27734375,-0.55078125
1770,0.91015625,0.29296875,-0.55859375
1771,0.91015625,0.2734375,-0.54296875
1772,0.90625,0.28515625,-0.5625
1773,0.9140625,0.27734375,-0.5546875
1774,0.9140625,0.26953125,-0.5390625
1775,0.921875,0.26953125,-0.55078125
1776,0.91015625,0.27734375,-0.546875
1777,0.93359375,0.26171875,-0.515625
1778,0.91015625,0.2734375,-0.5546875
1779,0.91796875,0.28515625,-0.55859375
1780,0.91796875,0.28125,-0.56640625
1781,0.92578125,0.28515625,-0.578125
1782,0.921875,0.28515625,-0.55859375
1783,0.91796875,0.28125,-0.546875
1784,0.91015625,0.27734375,-0.5546875
1785,0.83984375,0.20703125,-0.5625
1786,0.95703125,0.234375,-0.66015625
1787,0.89453125,0.30859375,-0.55859375
1788,0.96875,0.3046875,-0.52734375
1789,0.9296875,0.3125,-0.546875
1790,0.9296875,0.31640625,-0.546875
1791,0.92578125,0.2890625,-0.5390625
1792,0.921875,0.27734375,-0.546875
1793,0.921875,0.26953125,-0.56640625
1794,0.9140625,0.28125,-0.55078125
1795,0.91796875,0.2578125,-0.5546875
1796,0.9140625,0.265625,-0.5625
1797,0.90234375,0.265625,-0.55078125
1798,0.90234375,0.2734375,-0.53125
1799,0.9140625,0.27734375,-0.5546875
1800,0.91796875,0.27734375,-0.5390625
1801,0.90234375,0.29296875,-0.53515625
1802,0.90625,0.28515625,-0.5703125
1803,0.90625,0.28515625,-0.57421875
1804,0.9296875,0.28125,-0.578125
1805,0.921875,0.27734375,-0.5703125
1806,0.91796875,0.28515625,-0.55859375
1807,0.91796875,0.2890625,-0.55078125
1808,0.91015625,0.27734375,-0.5625
1809,0.91796875,0.26953125,-0.55859375
1810,0.92578125,0.28515625,-0.546875
1811,0.91015625,0.28125,-0.54296875
1812,0.9140625,0.2578125,-0.5390625
1813,0.8984375,0.28125,-0.53125
1814,0.91796875,0.26953125,-0.53515625
1815,0.9140625,0.28125,-0.54296875
1816,0.91015625,0.27734375,-0.54296875
1817,0.91015625,0.28125,-0.52734375
1818,0.91015625,0.28125,-0.53515625
1819,0.91796875,0.27734375,-0.53515625
1820,0.75390625,0.15234375,-0.48046875
1821,0.94921875,0.26171875,-0.6171875
1822,0.90234375,0.328125,-0.55859375
1823,0.9453125,0.32421875,-0.53125
1824,0.9296875,0.33203125,-0.5390625
1825,0.921875,0.296875,-0.5546875
1826,0.92578125,0.28125,-0.53515625
1827,0.890625,0.2890625,-0.5546875
1828,0.9140625,0.28125,-0.5625
1829,0.90234375,0.2734375,-0.54296875
1830,0.90625,0.2890625,-0.5546875
1831,0.9140625,0.28125,-0.5546875
1832,0.91015625,0.26953125,-0.54296875
1833,0.9140625,0.2734375,-0.55078125
1834,0.91015625,0.27734375,-0.5703125
1835,0.9296875,0.27734375,-0.56640625
1836,0.9140625,0.2890625,-0.5625
1837,0.92578125,0.27734375,-0.56640625
1838,0.9296875,0.2734375,-0.55859375
1839,0.9296875,0.28125,-0.5703125
1840,0.93359375,0.28125,-0.5625
1841,0.9140625,0.28125,-0.55859375
1842,0.921875,0.27734375,-0.56640625
1843,0.91796875,0.27734375,-0.55078125
1844,0.91796875,0.2734375,-0.56640625
1845,0.92578125,0.28515625,-0.55078125
1846,0.921875,0.27734375,-0.55859375
1847,0.92578125,0.2890625,-0.5625
1848,0.8984375,0.28515625,-0.5546875
1849,0.90625,0.27734375,-0.55078125
1850,0.9140625,0.2734375,-0.5625
1851,0.8984375,0.28515625,-0.54296875
1852,0.90625,0.28125,-0.5546875
1853,0.8984375,0.3046875,-0.55859375
1854,0.890625,0.26953125,-0.55078125
1855,0.91796875,0.25,-0.54296875
1856,0.92578125,0.27734375,-0.5546875
1857,0.91796875,0.2734375,-0.546875
1858,0.91796875,0.2734375,-0.55859375
1859,0.9140625,0.26953125,-0.5546875
1860,0.9140625,0.2734375,-0.55078125
1861,0.91796875,0.26953125,-0.53515625
1862,0.91015625,0.28125,-0.5390625
1863,0.9140625,0.28515625,-0.54296875
1864,0.90625,0.28125,-0.55859375
1865,0.9140625,0.28125,-0.5625
1866,0.91015625,0.28515625,-0.55859375
1867,0.91796875,0.28515625,-0.5546875
1868,0.91796875,0.27734375,-0.55859375
1869,0.91015625,0.27734375,-0.5625
1870,0.921875,0.28125,-0.5625
1871,0.83203125,0.140625,-0.52734375
1872,0.92578125,0.2890625,-0.609375
1873,0.92578125,0.3203125,-0.54296875
1874,0.9375,0.30859375,-0.54296875
1875,0.921875,0.296875,-0.55859375
1876,0.92578125,0.28515625,-0.5546875
1877,0.9140625,0.2734375,-0.56640625
1878,0.90625,0.29296875,-0.56640625
1879,0.9140625,0.28125,-0.5546875
1880,0.91796875,0.28515625,-0.55859375
1881,0.90234375,0.28125,-0.56640625
1882,0.9140625,0.28125,-0.546875
1883,0.9296875,0.2734375,-0.54296875
1884,0.91015625,0.27734375,-0.55859375
1885,0.9140625,0.28515625,-0.55078125
1886,0.90625,0.28515625,-0.546875
1887,0.91015625,0.28125,-0.5625
1888,0.92578125,0.27734375,-0.55859375
1889,0.91015625,0.29296875,-0.56640625
1890,0.9140625,0.28515625,-0.55078125
1891,0.91015625,0.28125,-0.5546875
1892,0.9140625,0.28515625,-0.56640625
1893,0.91796875,0.28125,-0.55078125
1894,0.921875,0.28515625,-0.55859375
1895,0.921875,0.2734375,-0.54296875
1896,0.921875,0.28515625,-0.55078125
1897,0.9140625,0.28125,-0.55859375
1898,0.8984375,0.28515625,-0.55859375
1899,0.76171875,0.10546875,-0.4609375
1900,0.921875,0.2578125,-0.59375
1901,0.91796875,0.28515625,-0.56640625
1902,0.9453125,0.31640625,-0.55078125
1903,0.92578125,0.33203125,-0.546875
1904,0.92578125,0.3125,-0.5546875
1905,0.9140625,0.29296875,-0.53515625
1906,0.9296875,0.28125,-0.546875
1907,0.921875,0.2890625,-0.53125
1908,0.9140625,0.26953125,-0.546875
1909,0.921875,0.27734375,-0.546875
1910,0.90625,0.27734375,-0.53515625
1911,0.91796875,0.265625,-0.53515625
1912,0.90625,0.27734375,-0.53515625
1913,0.91796875,0.26953125,-0.55078125
1914,0.9140625,0.26953125,-0.55859375
1915,0.92578125,0.28515625,-0.5546875
1916,0.92578125,0.28515625,-0.5390625
1917,0.92578125,0.2734375,-0.54296875
1918,0.921875,0.27734375,-0.5546875
1919,0.9140625,0.28125,-0.55078125
1920,0.91015625,0.26953125,-0.55859375
1921,0.9140625,0.27734375,-0.55859375
1922,0.9140625,0.28515625,-0.54296875
1923,0.91015625,0.29296875,-0.546875
1924,0.91015625,0.2734375,-0.546875
1925,0.921875,0.27734375,-0.55078125
1926,0.91796875,0.26953125,-0.546875
1927,0.92578125,0.28515625,-0.53125
1928,0.90625,0.27734375,-0.5390625
1929,0.91015625,0.2734375,-0.53125
1930,0.9296875,0.265625,-0.5390625
1931,0.921875,0.28125,-0.5390625
1932,0.92578125,0.27734375,-0.5625
1933,0.91796875,0.2421875,-0.578125
1934,0.90234375,0.24609375,-0.5546875
1935,0.94140625,0.265625,-0.55859375
1936,0.8828125,0.28515625,-0.55078125
1937,0.9375,0.30078125,-0.56640625
1938,0.9296875,0.30078125,-0.5390625
1939,0.93359375,0.29296875,-0.5390625
1940,0.92578125,0.29296875,-0.5390625
1941,0.91796875,0.29296875,-0.546875
1942,0.921875,0.296875,-0.54296875
1943,0.91796875,0.27734375,-0.55078125
1944,0.90625,0.2890625,-0.5625
1945,0.91015625,0.27734375,-0.5703125
1946,0.91796875,0.27734375,-0.56640625
1947,0.90234375,0.2734375,-0.55859375
1948,0.91796875,0.2734375,-0.54296875
1949,0.91015625,0.27734375,-0.56640625
1950,0.91015625,0.29296875,-0.5625
1951,0.91796875,0.28125,-0.53515625
1952,0.87890625,0.2421875,-0.5390625
1953,0.90625,0.234375,-0.59765625
1954,0.8984375,0.26171875,-0.5859375
1955,0.93359375,0.28125,-0.5546875
1956,0.93359375,0.30078125,-0.546875
1957,0.93359375,0.296875,-0.53125
1958,0.9296875,0.2890625,-0.51953125
1959,0.9140625,0.29296875,-0.54296875
1960,0.921875,0.28125,-0.53515625
1961,0.90234375,0.29296875,-0.53515625
1962,0.91796875,0.28515625,-0.55078125
1963,0.921875,0.28125,-0.5546875
1964,0.91015625,0.296875,-0.546875
1965,0.91796875,0.28125,-0.5625
1966,0.89453125,0.28515625,-0.55859375
1967,0.93359375,0.28515625,-0.56640625
1968,0.91796875,0.28515625,-0.5546875
1969,0.91796875,0.28515625,-0.5546875
1970,0.92578125,0.28515625,-0.5546875
1971,0.9140625,0.28125,-0.5390625
1972,0.9140625,0.26953125,-0.5390625
1973,0.921875,0.26953125,-0.55859375
1974,0.86328125,0.22265625,-0.5234375
1975,0.92578125,0.234375,-0.59375
1976,0.8984375,0.28125,-0.57421875
1977,0.921875,0.28515625,-0.5546875
1978,0.93359375,0.31640625,-0.546875
1979,0.9375,0.32421875,-0.54296875
1980,0.9453125,0.30859375,-0.5234375
1981,0.9140625,0.30859375,-0.5390625
1982,0.921875,0.29296875,-0.55078125
1983,0.91796875,0.28515625,-0.54296875
1984,0.9140625,0.31640625,-0.54296875
1985,0.921875,0.3125,-0.54296875
1986,0.890625,0.26953125,-0.52734375
1987,0.9140625,0.27734375,-0.53125
1988,0.92578125,0.27734375,-0.53515625
1989,0.8984375,0.28125,-0.54296875
1990,0.91015625,0.28515625,-0.5390625
1991,0.9140625,0.28125,-0.55078125
1992,0.92578125,0.28125,-0.54296875
1993,0.9140625,0.28515625,-0.53515625
1994,0.93359375,0.28125,-0.546875
1995,0.9296875,0.24609375,-0.5078125
1996,0.9140625,0.28125,-0.546875
1997,0.921875,0.29296875,-0.54296875
1998,0.9140625,0.28125,-0.546875
1999,0.921875,0.2734375,-0.546875
2000,0.91015625,0.28515625,-0.55859375
2001,0.92578125,0.28125,-0.53125
2002,0.921875,0.2890625,-0.5390625
2003,0.92578125,0.28125,-0.5546875
2004,0.921875,0.27734375,-0.5390625
2005,0.921875,0.3046875,-0.609375
2006,0.91796875,0.28125,-0.546875
2007,0.9140625,0.2734375,-0.5546875
2008,0.90625,0.28515625,-0.55078125
2009,0.91796875,0.28125,-0.54296875
2010,0.91796875,0.27734375,-0.54296875
2011,0.91796875,0.28125,-0.53515625
2012,0.91015625,0.28125,-0.5546875
2013,0.91015625,0.28125,-0.54296875
2014,0.90625,0.28125,-0.5546875
2015,0.921875,0.2890625,-0.546875
2016,0.90234375,0.265625,-0.55859375
2017,0.921875,0.28125,-0.54296875
2018,0.921875,0.28125,-0.5390625
2019,0.91015625,0.28515625,-0.54296875
2020,0.921875,0.28125,-0.5390625
2021,0.9140625,0.28125,-0.55859375
2022,0.91796875,0.26953125,-0.5546875
2023,0.9140625,0.28125,-0.55078125
2024,0.9140625,0.28515625,-0.5390625
2025,0.9140625,0.28125,-0.55078125
2026,0.921875,0.28125,-0.546875
2027,0.91796875,0.27734375,-0.54296875
2028,0.921875,0.28515625,-0.54296875
2029,0.91015625,0.28515625,-0.54296875
2030,0.91796875,0.28125,-0.5546875
2031,0.91796875,0.27734375,-0.546875
2032,0.921875,0.28515625,-0.53515625
2033,0.9296875,0.28125,-0.546875
2034,0.921875,0.30859375,-0.5546875
2035,0.91796875,0.28125,-0.55859375
2036,0.91796875,0.2890625,-0.5390625
2037,0.9296875,0.2734375,-0.55859375
2038,0.91796875,0.28125,-0.54296875
2039,0.90625,0.28515625,-0.55859375
2040,0.91796875,0.28125,-0.52734375
2041,0.91796875,0.27734375,-0.54296875
2042,0.91796875,0.28125,-0.53125
2043,0.91796875,0.2734375,-0.54296875
2044,0.921875,0.28125,-0.54296875
2045,0.91796875,0.28515625,-0.5390625
2046,0.91796875,0.2734375,-0.54296875
2047,0.9140625,0.28125,-0.55078125
2048,0.9140625,0.2890625,-0.54296875
2049,0.91796875,0.27734375,-0.55078125
2050,0.921875,0.27734375,-0.55078125
2051,0.91796875,0.28515625,-0.546875
2052,0.92578125,0.2890625,-0.546875
2053,0.91796875,0.28125,-0.546875
2054,0.90625,0.28515625,-0.53125
2055,0.91796875,0.28125,-0.53125
2056,0.921875,0.28125,-0.53515625
2057,0.91796875,0.28515625,-0.5546875
2058,0.921875,0.28515625,-0.54296875
2059,0.92578125,0.28125,-0.546875
2060,0.91796875,0.27734375,-0.5390625
2061,0.9140625,0.28515625,-0.54296875
2062,0.921875,0.27734375,-0.546875
2063,0.90625,0.28125,-0.55078125
2064,0.91796875,0.27734375,-0.55078125
2065,0.921875,0.28125,-0.55859375
2066,0.921875,0.29296875,-0.546875
2067,0.921875,0.28125,-0.5546875
2068,0.91796875,0.27734375,-0.55859375
2069,0.921875,0.28125,-0.5546875
2070,0.90625,0.28125,-0.53125
2071,0.921875,0.28125,-0.5625
2072,0.91796875,0.28125,-0.546875
2073,0.9140625,0.28125,-0.53515625
2074,0.921875,0.28125,-0.55078125
2075,0.921875,0.2890625,-0.5546875
2076,0.92578125,0.28125,-0.54296875
2077,0.921875,0.28515625,-0.546875
2078,0.91015625,0.28515625,-0.5546875
2079,0.91015625,0.296875,-0.53125
2080,0.91015625,0.2890625,-0.55859375
2081,0.9140625,0.27734375,-0.53125
2082,0.8984375,0.28125,-0.54296875
2083,0.9140625,0.27734375,-0.53125
2084,0.92578125,0.28125,-0.5234375
2085,0.921875,0.28515625,-0.546875
2086,0.921875,0.28125,-0.5078125
2087,0.91796875,0.28515625,-0.54296875
2088,0.9140625,0.28125,-0.546875
2089,0.90625,0.28515625,-0.546875
2090,0.921875,0.28515625,-0.54296875
2091,0.921875,0.28125,-0.546875
2092,0.92578125,0.27734375,-0.546875
2093,0.8984375,0.2890625,-0.54296875
2094,0.91015625,0.296875,-0.5390625
2095,0.9140625,0.28125,-0.5546875
2096,0.91796875,0.28125,-0.5546875
2097,0.91796875,0.27734375,-0.5390625
2098,0.9140625,0.28125,-0.546875
2099,0.921875,0.27734375,-0.5390625
2100,0.921875,0.28125,-0.546875
2101,0.92578125,0.27734375,-0.55859375
2102,0.9140625,0.28125,-0.55078125
2103,0.91796875,0.27734375,-0.55078125
2104,0.9296875,0.28125,-0.546875
2105,0.9140625,0.26171875,-0.5546875
2106,0.91796875,0.27734375,-0.5390625
2107,0.91015625,0.28125,-0.5546875
2108,0.9140625,0.28125,-0.546875
2109,0.9140625,0.2890625,-0.53515625
2110,0.90625,0.2890625,-0.53125
2111,0.9140625,0.28125,-0.53515625
2112,0.9140625,0.29296875,-0.546875
2113,0.9140625,0.2890625,-0.54296875
2114,0.921875,0.27734375,-0.55859375
2115,0.921875,0.28125,-0.55078125
2116,0.92578125,0.28515625,-0.5546875
2117,0.9140625,0.27734375,-0.55859375
2118,0.92578125,0.28515625,-0.56640625
2119,0.91015625,0.28515625,-0.5546875
2120,0.91796875,0.28125,-0.55859375
2121,0.91015625,0.28125,-0.55078125
2122,0.9140625,0.2890625,-0.55078125
2123,0.92578125,0.29296875,-0.5546875
2124,0.91796875,0.29296875,-0.55078125
2125,0.921875,0.296875,-0.56640625
2126,0.921875,0.28125,-0.56640625
2127,0.9140625,0.28515625,-0.5625
2128,0.91796875,0.28515625,-0.56640625
2129,0.9140625,0.28515625,-0.55859375
2130,0.91796875,0.2890625,-0.5703125
2131,0.91015625,0.28125,-0.56640625
2132,0.90625,0.28125,-0.56640625
2133,0.921875,0.28125,-0.5703125
2134,0.92578125,0.28515625,-0.5546875
2135,0.9140625,0.2890625,-0.5546875
2136,0.91015625,0.28515625,-0.55078125
2137,0.921875,0.28125,-0.55078125
2138,0.9140625,0.28515625,-0.55078125
2139,0.9140625,0.28125,-0.54296875
2140,0.91796875,0.2734375,-0.52734375
2141,0.8984375,0.2890625,-0.53515625
2142,0.90625,0.27734375,-0.54296875
2143,0.90625,0.28125,-0.54296875
2144,0.90625,0.28125,-0.52734375
2145,0.90625,0.28125,-0.55078125
2146,0.91796875,0.28125,-0.54296875
2147,0.90234375,0.28515625,-0.5546875
2148,0.9140625,0.29296875,-0.5390625
2149,0.91015625,0.27734375,-0.53515625
2150,0.9140625,0.28515625,-0.55859375
2151,0.90625,0.28515625,-0.55078125
2152,0.9140625,0.28125,-0.55859375
2153,0.91796875,0.28515625,-0.5546875
2154,0.91796875,0.28515625,-0.5703125
2155,0.92578125,0.27734375,-0.546875
2156,0.91796875,0.28125,-0.55078125
2157,0.91796875,0.27734375,-0.55078125
2158,0.9140625,0.26953125,-0.54296875
2159,0.9140625,0.27734375,-0.54296875
2160,0.88671875,0.28125,-0.54296875
2161,0.91796875,0.2734375,-0.5625
2162,0.91015625,0.2890625,-0.5625
2163,0.91796875,0.27734375,-0.5546875
2164,0.9296875,0.28125,-0.5390625
2165,0.9140625,0.26953125,-0.55078125
2166,0.91796875,0.28125,-0.5703125
2167,0.91015625,0.28515625,-0.55078125
2168,0.8984375,0.2734375,-0.55078125
2169,0.921875,0.28125,-0.546875
2170,0.9140625,0.2734375,-0.55078125
2171,0.91015625,0.28125,-0.55078125
2172,0.91015625,0.28125,-0.5546875
2173,0.92578125,0.28125,-0.5390625
2174,0.91796875,0.28125,-0.5390625
2175,0.92578125,0.28125,-0.5390625
2176,0.92578125,0.27734375,-0.5546875
2177,0.9140625,0.27734375,-0.5390625
2178,0.90625,0.28125,-0.5625
2179,0.91015625,0.28125,-0.53515625
2180,0.9140625,0.27734375,-0.55078125
2181,0.90625,0.28125,-0.5546875
2182,0.92578125,0.27734375,-0.546875
2183,0.91796875,0.2890625,-0.54296875
2184,0.9140625,0.28515625,-0.52734375
2185,0.91015625,0.2734375,-0.5546875
2186,0.91015625,0.28125,-0.5390625
2187,0.9140625,0.27734375,-0.55078125
2188,0.92578125,0.28125,-0.55859375
2189,0.921875,0.28515625,-0.5390625
2190,0.91796875,0.27734375,-0.546875
2191,0.9296875,0.28125,-0.5390625
2192,0.91015625,0.28125,-0.55859375
2193,0.91796875,0.28125,-0.546875
2194,0.9140625,0.28515625,-0.5390625
2195,0.9296875,0.27734375,-0.5546875
2196,0.921875,0.27734375,-0.54296875
2197,0.91796875,0.28515625,-0.55078125
2198,0.921875,0.28515625,-0.546875
2199,0.91796875,0.28515625,-0.52734375
2200,0.90625,0.28515625,-0.56640625
2201,0.91796875,0.2890625,-0.55078125
2202,0.9140625,0.28125,-0.5390625
2203,0.921875,0.2890625,-0.546875
2204,0.921875,0.28125,-0.55078125
2205,0.91796875,0.28125,-0.5546875
2206,0.9140625,0.28125,-0.55078125
2207,0.921875,0.28125,-0.546875
2208,0.92578125,0.28515625,-0.5390625
2209,0.9296875,0.28515625,-0.5703125
2210,0.921875,0.29296875,-0.5625
2211,0.9140625,0.2890625,-0.5390625
2212,0.92578125,0.2890625,-0.5859375
2213,0.921875,0.2890625,-0.54296875
2214,0.92578125,0.28125,-0.55078125
2215,0.921875,0.28125,-0.5625
2216,0.9140625,0.2890625,-0.5546875
2217,0.9140625,0.28515625,-0.53125
2218,0.9140625,0.2890625,-0.54296875
2219,0.89453125,0.28515625,-0.53125
2220,0.90234375,0.28125,-0.55078125
2221,0.890625,0.27734375,-0.55859375
2222,0.91015625,0.2734375,-0.55859375
2223,0.88671875,0.29296875,-0.59765625
2224,0.92578125,0.2109375,-0.54296875
2225,0.91796875,0.26953125,-0.57421875
2226,0.91796875,0.28515625,-0.56640625
2227,0.9296875,0.30078125,-0.53125
2228,0.9375,0.30078125,-0.5390625
2229,0.92578125,0.29296875,-0.546875
2230,0.93359375,0.28515625,-0.54296875
2231,0.921875,0.27734375,-0.5234375
2232,0.9296875,0.27734375,-0.51953125
2233,0.9140625,0.27734375,-0.53125
2234,0.921875,0.2578125,-0.51953125
2235,0.91015625,0.28125,-0.52734375
2236,0.9140625,0.28125,-0.5234375
2237,0.91015625,0.2890625,-0.546875
2238,0.92578125,0.28515625,-0.53515625
2239,0.92578125,0.2734375,-0.54296875
2240,0.91796875,0.27734375,-0.52734375
2241,0.90625,0.28515625,-0.5390625
2242,0.9140625,0.28515625,-0.53515625
2243,0.91015625,0.28125,-0.546875
2244,0.91796875,0.28125,-0.52734375
2245,0.95703125,0.2890625,-0.53515625
2246,0.921875,0.28125,-0.55078125
2247,0.921875,0.29296875,-0.5546875
2248,0.9296875,0.27734375,-0.54296875
2249,0.9140625,0.29296875,-0.53515625
2250,0.92578125,0.2734375,-0.55078125
2251,0.921875,0.28515625,-0.53515625
2252,0.91796875,0.28125,-0.53515625
2253,0.921875,0.2890625,-0.53515625
2254,0.92578125,0.28125,-0.53515625
2255,0.92578125,0.27734375,-0.546875
2256,0.921875,0.28515625,-0.53515625
2257,0.921875,0.27734375,-0.54296875
2258,0.9140625,0.28125,-0.55078125
2259,0.91796875,0.28515625,-0.55078125
2260,0.921875,0.28515625,-0.55078125
2261,0.91796875,0.28125,-0.55078125
2262,0.921875,0.28515625,-0.53515625
2263,0.9140625,0.28125,-0.54296875
2264,0.9296875,0.2734375,-0.546875
2265,0.91796875,0.28125,-0.54296875
2266,0.921875,0.2890625,-0.546875
2267,0.91015625,0.2890625,-0.5546875
2268,0.92578125,0.2890625,-0.53125
2269,0.921875,0.27734375,-0.5390625
2270,0.91796875,0.28125,-0.55078125
2271,0.90234375,0.27734375,-0.5546875
2272,0.91796875,0.28515625,-0.546875
2273,0.9140625,0.27734375,-0.54296875
2274,0.8828125,0.25,-0.5546875
2275,0.91796875,0.25,-0.5546875
2276,0.9296875,0.265625,-0.5546875
2277,0.8828125,0.27734375,-0.53515625
2278,0.92578125,0.28515625,-0.5390625
2279,0.9296875,0.28515625,-0.515625
2280,0.9296875,0.2890625,-0.53515625
2281,0.921875,0.28125,-0.546875
2282,0.9296875,0.28515625,-0.5234375
2283,0.9140625,0.28125,-0.5390625
2284,0.93359375,0.28515625,-0.546875
2285,0.921875,0.28515625,-0.55078125
2286,0.92578125,0.28125,-0.54296875
2287,0.921875,0.27734375,-0.53515625
2288,0.9296875,0.2734375,-0.56640625
2289,0.91796875,0.28515625,-0.55859375
2290,0.93359375,0.28125,-0.54296875
2291,0.9296875,0.28515625,-0.55859375
2292,0.91796875,0.28125,-0.55078125
2293,0.91015625,0.27734375,-0.55078125
2294,0.91796875,0.28125,-0.54296875
2295,0.91796875,0.2890625,-0.546875
2296,0.91015625,0.2734375,-0.5390625
2297,0.90625,0.23828125,-0.5234375
2298,0.88671875,0.2421875,-0.54296875
2299,0.9140625,0.26953125,-0.54296875
2300,0.921875,0.2890625,-0.54296875
2301,0.90234375,0.28125,-0.52734375
2302,0.95703125,0.31640625,-0.5234375
2303,0.94140625,0.3203125,-0.515625
2304,0.92578125,0.29296875,-0.51953125
2305,0.9140625,0.29296875,-0.53125
2306,0.9296875,0.28125,-0.53515625
2307,0.91015625,0.27734375,-0.53515625
2308,0.91796875,0.28125,-0.52734375
2309,0.921875,0.26953125,-0.54296875
2310,0.93359375,0.26171875,-0.55078125
2311,0.91796875,0.27734375,-0.53515625
2312,0.921875,0.29296875,-0.53125
2313,0.91796875,0.28125,-0.53515625
2314,0.92578125,0.28125,-0.546875
2315,0.9296875,0.3046875,-0.546875
2316,0.921875,0.28125,-0.53125
2317,0.9296875,0.27734375,-0.5546875
2318,0.921875,0.27734375,-0.54296875
2319,0.921875,0.28125,-0.54296875
2320,0.9140625,0.28125,-0.55078125
2321,0.91796875,0.2734375,-0.5546875
2322,0.91796875,0.27734375,-0.54296875
2323,0.9140625,0.28515625,-0.5390625
2324,0.921875,0.28515625,-0.5546875
2325,0.92578125,0.28515625,-0.54296875
2326,0.921875,0.28125,-0.54296875
2327,0.92578125,0.27734375,-0.5390625
2328,0.9296875,0.26953125,-0.5546875
2329,0.93359375,0.28125,-0.5546875
2330,0.91796875,0.28515625,-0.5546875
2331,0.9140625,0.2734375,-0.546875
2332,0.91015625,0.2734375,-0.55078125
2333,0.91796875,0.28125,-0.55078125
2334,0.921875,0.2734375,-0.53515625
2335,0.9140625,0.27734375,-0.546875
2336,0.92578125,0.27734375,-0.5390625
2337,0.91015625,0.28125,-0.54296875
2338,0.9140625,0.26171875,-0.53515625
2339,0.90625,0.28125,-0.54296875
2340,0.91015625,0.28125,-0.546875
2341,0.91015625,0.2734375,-0.5390625
2342,0.9140625,0.28125,-0.55078125
2343,0.92578125,0.27734375,-0.53125
2344,0.9140625,0.28515625,-0.5234375
2345,0.92578125,0.2734375,-0.546875
2346,0.91796875,0.27734375,-0.56640625
2347,0.91796875,0.28125,-0.55859375
2348,0.90625,0.296875,-0.55078125
2349,0.9140625,0.28515625,-0.54296875
2350,0.921875,0.28125,-0.55078125
2351,0.92578125,0.27734375,-0.546875
2352,0.90625,0.28125,-0.55078125
2353,0.91796875,0.28125,-0.54296875
2354,0.921875,0.28125,-0.54296875
2355,0.921875,0.28125,-0.5546875
2356,0.9140625,0.28125,-0.55078125
2357,0.91796875,0.28125,-0.546875
2358,0.91796875,0.28125,-0.55078125
2359,0.9140625,0.28515625,-0.55859375
2360,0.91796875,0.29296875,-0.55859375
2361,0.921875,0.28515625,-0.5390625
2362,0.921875,0.2890625,-0.53515625
2363,0.9140625,0.28125,-0.546875
2364,0.90625,0.28125,-0.54296875
2365,0.91796875,0.27734375,-0.52734375
2366,0.9296875,0.27734375,-0.52734375
2367,0.90625,0.27734375,-0.53515625
2368,0.91796875,0.2734375,-0.53515625
2369,0.91796875,0.28125,-0.53515625
2370,0.921875,0.28515625,-0.5234375
2371,0.91015625,0.28515625,-0.54296875
2372,0.9140625,0.27734375,-0.55078125
2373,0.921875,0.27734375,-0.54296875
2374,0.91796875,0.28515625,-0.546875
2375,0.9140625,0.28515625,-0.546875
2376,0.91796875,0.28125,-0.54296875
2377,0.921875,0.27734375,-0.54296875
2378,0.90625,0.28515625,-0.53515625
2379,0.91796875,0.28125,-0.55078125
2380,0.9140625,0.28515625,-0.546875
2381,0.9140625,0.29296875,-0.5390625
2382,0.921875,0.27734375,-0.55859375
2383,0.91796875,0.2890625,-0.55078125
2384,0.92578125,0.28125,-0.55078125
2385,0.9140625,0.28125,-0.55859375
2386,0.91796875,0.2734375,-0.5546875
2387,0.92578125,0.2890625,-0.54296875
2388,0.921875,0.28515625,-0.546875
2389,0.921875,0.28125,-0.53125
2390,0.91796875,0.28515625,-0.53125
2391,0.9140625,0.28125,-0.54296875
2392,0.92578125,0.27734375,-0.546875
2393,0.9140625,0.28125,-0.546875
2394,0.921875,0.29296875,-0.5546875
2395,0.9296875,0.2734375,-0.54296875
2396,0.921875,0.28515625,-0.54296875
2397,0.91796875,0.27734375,-0.5546875
2398,0.90234375,0.29296875,-0.5546875
2399,0.91796875,0.27734375,-0.53515625
2400,0.91796875,0.28125,-0.54296875
2401,0.921875,0.296875,-0.546875
2402,0.91796875,0.28515625,-0.5390625
2403,0.90625,0.28125,-0.54296875
2404,0.91796875,0.2890625,-0.546875
2405,0.92578125,0.28125,-0.54296875
2406,0.9140625,0.28125,-0.53515625
2407,0.921875,0.28125,-0.546875
2408,0.91796875,0.28125,-0.546875
2409,0.93359375,0.27734375,-0.5390625
2410,0.9140625,0.28125,-0.54296875
2411,0.91796875,0.28125,-0.5390625
2412,0.90625,0.27734375,-0.54296875
2413,0.9140625,0.28125,-0.53125
2414,0.91796875,0.29296875,-0.5546875
2415,0.92578125,0.28125,-0.5390625
2416,0.91796875,0.27734375,-0.5546875
2417,0.91796875,0.29296875,-0.546875
2418,0.91796875,0.29296875,-0.55078125
2419,0.91796875,0.2734375,-0.5390625
2420,0.91796875,0.28125,-0.546875
2421,0.91796875,0.28125,-0.53125
2422,0.921875,0.28125,-0.55078125
2423,0.91796875,0.29296875,-0.546875
2424,0.92578125,0.28125,-0.55078125
2425,0.91015625,0.2734375,-0.53515625
2426,0.91796875,0.28125,-0.5546875
2427,0.91796875,0.28125,-0.5546875
2428,0.91796875,0.28125,-0.546875
2429,0.91796875,0.28515625,-0.54296875
2430,0.9140625,0.2890625,-0.55859375
2431,0.9140625,0.28515625,-0.55078125
2432,0.921875,0.28125,-0.5703125
2433,0.91796875,0.28515625,-0.53125
2434,0.91015625,0.2734375,-0.546875
2435,0.91796875,0.27734375,-0.55078125
2436,0.91015625,0.28515625,-0.5390625
2437,0.92578125,0.28125,-0.55078125
2438,0.90234375,0.27734375,-0.53125
2439,0.91796875,0.2734375,-0.5390625
2440,0.9296875,0.28125,-0.54296875
2441,0.9140625,0.28125,-0.57421875
2442,0.91796875,0.27734375,-0.5546875
2443,0.91015625,0.26953125,-0.55859375
2444,0.91015625,0.27734375,-0.55078125
2445,0.91015625,0.2734375,-0.54296875
2446,0.91015625,0.27734375,-0.53515625
2447,0.921875,0.27734375,-0.53125
2448,0.9140625,0.28515625,-0.53515625
2449,0.92578125,0.28515625,-0.55078125
2450,0.9140625,0.28515625,-0.55859375
2451,0.9296875,0.28515625,-0.56640625
2452,0.9453125,0.3046875,-0.58984375
2453,0.92578125,0.2734375,-0.55859375
2454,0.92578125,0.28125,-0.55078125
2455,0.9140625,0.2890625,-0.55859375
2456,0.9140625,0.28515625,-0.55078125
2457,0.91796875,0.28515625,-0.55078125
2458,0.92578125,0.27734375,-0.546875
2459,0.91015625,0.28125,-0.54296875
2460,0.92578125,0.28515625,-0.55859375
2461,0.9140625,0.28125,-0.546875
2462,0.91796875,0.28515625,-0.5546875
2463,0.92578125,0.2421875,-0.51953125
2464,0.921875,0.28515625,-0.53515625
2465,0.92578125,0.28515625,-0.55078125
2466,0.91796875,0.28515625,-0.51171875
2467,0.91796875,0.28515625,-0.5390625
2468,0.9140625,0.28515625,-0.52734375
2469,0.91796875,0.27734375,-0.546875
2470,0.9296875,0.28515625,-0.5390625
2471,0.91796875,0.296875,-0.55078125
2472,0.91796875,0.28125,-0.56640625
2473,0.9140625,0.28125,-0.546875
2474,0.91796875,0.27734375,-0.5390625
2475,0.91015625,0.28125,-0.5390625
2476,0.91015625,0.28125,-0.52734375
2477,0.9140625,0.28125,-0.54296875
2478,0.91015625,0.28515625,-0.5546875
2479,0.9140625,0.28125,-0.53125
2480,0.921875,0.28515625,-0.53515625
2481,0.9296875,0.26953125,-0.5390625
2482,0.921875,0.2734375,-0.546875
2483,0.91796875,0.27734375,-0.54296875
2484,0.9140625,0.28125,-0.5390625
2485,0.91015625,0.28125,-0.54296875
2486,0.921875,0.28515625,-0.55078125
2487,0.9140625,0.28125,-0.546875
2488,0.92578125,0.28125,-0.5625
2489,0.921875,0.28125,-0.5390625
2490,0.9296875,0.28125,-0.55078125
2491,0.9296875,0.27734375,-0.546875
2492,0.91015625,0.2890625,-0.546875
2493,0.91015625,0.28125,-0.546875
2494,0.921875,0.27734375,-0.55078125
2495,0.9296875,0.28125,-0.546875
2496,0.921875,0.265625,-0.546875
2497,0.9140625,0.265625,-0.5546875
2498,0.9296875,0.27734375,-0.546875
2499,0.9140625,0.2734375,-0.55078125
2500,0.93359375,0.28125,-0.55859375
2501,0.9296875,0.28515625,-0.54296875
2502,0.91796875,0.2734375,-0.5390625
2503,0.92578125,0.28125,-0.53515625
2504,0.91796875,0.27734375,-0.5234375
2505,0.91796875,0.26953125,-0.53515625
2506,0.9140625,0.2734375,-0.53125
2507,0.9140625,0.2734375,-0.54296875
2508,0.91796875,0.28125,-0.52734375
2509,0.9140625,0.27734375,-0.54296875
2510,0.92578125,0.27734375,-0.52734375
2511,0.91796875,0.28515625,-0.5234375
2512,0.9140625,0.28125,-0.52734375
2513,0.91796875,0.26953125,-0.5234375
2514,0.921875,0.28125,-0.5234375
2515,0.91796875,0.2890625,-0.5390625
2516,0.9140625,0.28125,-0.53515625
2517,0.921875,0.28515625,-0.53515625
2518,0.90625,0.2890625,-0.53125
2519,0.9140625,0.2890625,-0.53125
2520,0.921875,0.29296875,-0.53125
2521,0.9140625,0.29296875,-0.5546875
2522,0.91796875,0.2890625,-0.546875
2523,0.91796875,0.29296875,-0.5546875
2524,0.9140625,0.29296875,-0.55078125
2525,0.91796875,0.28515625,-0.55859375
2526,0.9140625,0.2890625,-0.55078125
2527,0.92578125,0.28125,-0.55859375
2528,0.91015625,0.29296875,-0.5546875
2529,0.9140625,0.265625,-0.5546875
2530,0.90625,0.28515625,-0.546875
2531,0.9140625,0.2890625,-0.546875
2532,0.921875,0.28515625,-0.53515625
2533,0.90625,0.2890625,-0.54296875
2534,0.9140625,0.2890625,-0.5390625
2535,0.9140625,0.28125,-0.5390625
2536,0.92578125,0.28125,-0.53515625
2537,0.921875,0.29296875,-0.5390625
2538,0.91796875,0.28515625,-0.5390625
2539,0.921875,0.28515625,-0.52734375
2540,0.91015625,0.28515625,-0.546875
2541,0.921875,0.28515625,-0.55859375
2542,0.93359375,0.27734375,-0.55859375
2543,0.91796875,0.2890625,-0.54296875
2544,0.9296875,0.29296875,-0.546875
2545,0.921875,0.28125,-0.55078125
2546,0.92578125,0.27734375,-0.51953125
2547,0.8984375,0.26171875,-0.53515625
2548,0.921875,0.29296875,-0.54296875
2549,0.921875,0.30078125,-0.54296875
2550,0.91796875,0.2890625,-0.5390625
2551,0.9140625,0.2890625,-0.5390625
2552,0.91796875,0.28515625,-0.53515625
2553,0.92578125,0.29296875,-0.53125
2554,0.91796875,0.2890625,-0.52734375
2555,0.9296875,0.2890625,-0.53515625
2556,0.93359375,0.29296875,-0.53515625
2557,0.92578125,0.2890625,-0.53125
2558,0.91796875,0.296875,-0.5390625
2559,0.9140625,0.28515625,-0.51953125
2560,0.90625,0.296875,-0.546875
2561,0.91015625,0.2890625,-0.53125
2562,0.91796875,0.28125,-0.53515625
2563,0.90625,0.28515625,-0.53125
2564,0.92578125,0.28125,-0.54296875
2565,0.92578125,0.28515625,-0.5234375
2566,0.9140625,0.29296875,-0.5234375
2567,0.91796875,0.28515625,-0.53125
2568,0.92578125,0.2734375,-0.5390625
2569,0.91796875,0.28515625,-0.52734375
2570,0.921875,0.28125,-0.55078125
2571,0.92578125,0.28515625,-0.53515625
2572,0.92578125,0.2890625,-0.5390625
2573,0.9140625,0.2890625,-0.5546875
2574,0.921875,0.28515625,-0.5546875
2575,0.92578125,0.28515625,-0.52734375
2576,0.90234375,0.28125,-0.54296875
2577,0.91015625,0.28515625,-0.52734375
2578,0.921875,0.27734375,-0.53515625
2579,0.91015625,0.2734375,-0.55078125
2580,0.9140625,0.28515625,-0.53515625
2581,0.91796875,0.28515625,-0.5390625
2582,0.921875,0.28125,-0.55078125
2583,0.93359375,0.28515625,-0.5390625
2584,0.9140625,0.28515625,-0.5390625
2585,0.91796875,0.28515625,-0.5390625
2586,0.91796875,0.2890625,-0.5390625
2587,0.921875,0.2890625,-0.55078125
2588,0.91015625,0.27734375,-0.55078125
2589,0.91796875,0.28125,-0.54296875
2590,0.91796875,0.296875,-0.5546875
2591,0.9140625,0.2890625,-0.55078125
2592,0.91015625,0.28515625,-0.5390625
2593,0.90625,0.2890625,-0.546875
2594,0.91796875,0.28515625,-0.53515625
2595,0.91796875,0.29296875,-0.55078125
2596,0.91015625,0.2890625,-0.55859375
2597,0.92578125,0.28515625,-0.55078125
2598,0.921875,0.28515625,-0.5390625
2599,0.9140625,0.28515625,-0.52734375
2600,0.921875,0.27734375,-0.53515625
2601,0.9140625,0.28125,-0.546875
2602,0.90625,0.2734375,-0.5390625
2603,0.90625,0.296875,-0.54296875
2604,0.921875,0.28125,-0.546875
2605,0.92578125,0.28515625,-0.5546875
2606,0.9140625,0.2890625,-0.53515625
2607,0.9140625,0.2890625,-0.54296875
2608,0.921875,0.28515625,-0.55078125
2609,0.91796875,0.29296875,-0.5546875
2610,0.9140625,0.2890625,-0.5546875
2611,0.91796875,0.296875,-0.53515625
2612,0.91015625,0.29296875,-0.53515625
2613,0.90625,0.29296875,-0.53515625
2614,0.9140625,0.28515625,-0.5390625
2615,0.9140625,0.28515625,-0.546875
2616,0.91796875,0.28515625,-0.5546875
2617,0.92578125,0.27734375,-0.5625
2618,0.90625,0.29296875,-0.546875
2619,0.91796875,0.28515625,-0.55078125
2620,0.92578125,0.2734375,-0.5390625
2621,0.90625,0.2734375,-0.546875
2622,0.90234375,0.28515625,-0.5390625
2623,0.91015625,0.2890625,-0.53515625
2624,0.9140625,0.29296875,-0.55078125
2625,0.91796875,0.29296875,-0.54296875
2626,0.92578125,0.30078125,-0.546875
2627,0.91796875,0.28515625,-0.5625
2628,0.91796875,0.2890625,-0.55859375
2629,0.92578125,0.28515625,-0.55859375
2630,0.921875,0.28515625,-0.56640625
2631,0.92578125,0.28125,-0.55859375
2632,0.91796875,0.28515625,-0.5390625
2633,0.91796875,0.28515625,-0.5546875
2634,0.921875,0.28515625,-0.55078125
2635,0.921875,0.2890625,-0.56640625
2636,0.92578125,0.28125,-0.54296875
2637,0.921875,0.28515625,-0.55078125
2638,0.91796875,0.29296875,-0.546875
2639,0.91015625,0.2890625,-0.5546875
2640,0.9140625,0.28515625,-0.546875
2641,0.90234375,0.30078125,-0.53515625
2642,0.90625,0.28125,-0.54296875
2643,0.90625,0.28515625,-0.546875
2644,0.9140625,0.29296875,-0.53515625
2645,0.9140625,0.28125,-0.5390625
2646,0.91015625,0.28125,-0.54296875
2647,0.9140625,0.28515625,-0.55078125
2648,0.91796875,0.29296875,-0.53125
2649,0.91015625,0.28515625,-0.53125
2650,0.9140625,0.28515625,-0.53515625
2651,0.91796875,0.28125,-0.546875
2652,0.91015625,0.2890625,-0.5390625
2653,0.9140625,0.28125,-0.546875
2654,0.91015625,0.29296875,-0.5390625
2655,0.91015625,0.28125,-0.55078125
2656,0.9140625,0.2890625,-0.5625
2657,0.91796875,0.28125,-0.53515625
2658,0.9140625,0.296875,-0.5390625
2659,0.97265625,0.29296875,-0.5703125
2660,0.90625,0.30078125,-0.55859375
2661,0.921875,0.2890625,-0.5390625
2662,0.9296875,0.28515625,-0.55078125
2663,0.91015625,0.2890625,-0.546875
2664,0.9296875,0.28515625,-0.54296875
2665,0.91796875,0.29296875,-0.55859375
2666,0.91015625,0.296875,-0.546875
2667,0.9140625,0.2890625,-0.5390625
2668,0.92578125,0.2890625,-0.5546875
2669,0.91796875,0.28125,-0.55078125
2670,0.8984375,0.3125,-0.5859375
2671,0.91015625,0.2890625,-0.55859375
2672,0.921875,0.2890625,-0.546875
2673,0.921875,0.28515625,-0.546875
2674,0.91015625,0.28515625,-0.5703125
2675,0.91796875,0.28515625,-0.55859375
2676,0.91796875,0.28515625,-0.54296875
2677,0.90625,0.28515625,-0.54296875
2678,0.91015625,0.28515625,-0.53125
2679,0.90234375,0.28515625,-0.53515625
2680,0.90234375,0.2890625,-0.5390625
2681,0.86328125,0.31640625,-0.59375
2682,0.9140625,0.28515625,-0.54296875
2683,0.921875,0.3046875,-0.546875
2684,0.91796875,0.28515625,-0.546875
2685,0.91796875,0.29296875,-0.55078125
2686,0.91015625,0.28125,-0.54296875
2687,0.9140625,0.28125,-0.55078125
2688,0.91796875,0.28125,-0.546875
2689,0.92578125,0.28515625,-0.546875
2690,0.92578125,0.2890625,-0.5546875
2691,0.92578125,0.2890625,-0.546875
2692,0.921875,0.2890625,-0.5625
2693,0.92578125,0.2890625,-0.55859375
2694,0.9140625,0.27734375,-0.55078125
2695,0.91796875,0.28515625,-0.546875
2696,0.9140625,0.28125,-0.55078125
2697,0.9140625,0.28515625,-0.54296875
2698,0.90625,0.28125,-0.546875
2699,0.921875,0.28515625,-0.54296875
2700,0.9140625,0.2890625,-0.515625
2701,0.9140625,0.28515625,-0.5390625
2702,0.91796875,0.2890625,-0.54296875
2703,0.91015625,0.2890625,-0.5390625
2704,0.91796875,0.2890625,-0.5546875
2705,0.921875,0.296875,-0.53515625
2706,0.9140625,0.28125,-0.54296875
2707,0.91796875,0.2890625,-0.546875
2708,0.921875,0.28515625,-0.54296875
2709,0.9140625,0.28515625,-0.54296875
2710,0.921875,0.29296875,-0.546875
2711,0.921875,0.29296875,-0.5546875
2712,0.91796875,0.28515625,-0.54296875
2713,0.92578125,0.28515625,-0.5546875
2714,0.90625,0.2890625,-0.53515625
2715,0.9140625,0.2890625,-0.55078125
2716,0.91015625,0.28125,-0.546875
2717,0.91015625,0.2890625,-0.55078125
2718,0.91015625,0.29296875,-0.5625
2719,0.91015625,0.2890625,-0.55859375
2720,0.921875,0.28125,-0.5625
2721,0.9140625,0.2890625,-0.55859375
2722,0.91796875,0.28125,-0.55078125
2723,0.9140625,0.2890625,-0.56640625
2724,0.921875,0.296875,-0.5546875
2725,0.91015625,0.28515625,-0.55859375
2726,0.91015625,0.28125,-0.54296875
2727,0.9140625,0.29296875,-0.55859375
2728,0.91015625,0.28515625,-0.55859375
2729,0.91796875,0.28515625,-0.5546875
2730,0.91796875,0.28515625,-0.55859375
2731,0.91796875,0.28125,-0.55859375
2732,0.9140625,0.28515625,-0.5546875
2733,0.921875,0.28125,-0.54296875
2734,0.921875,0.29296875,-0.5703125
2735,0.9140625,0.28515625,-0.55078125
2736,0.9140625,0.27734375,-0.55859375
2737,0.9140625,0.2890625,-0.546875
2738,0.921875,0.28515625,-0.546875
2739,0.91796875,0.28125,-0.5625
2740,0.9140625,0.2890625,-0.55078125
2741,0.92578125,0.2890625,-0.5546875
2742,0.91015625,0.28125,-0.546875
2743,0.91015625,0.2890625,-0.5625
2744,0.91015625,0.28515625,-0.546875
2745,0.9140625,0.28515625,-0.54296875
2746,0.91796875,0.2890625,-0.5625
2747,0.91015625,0.29296875,-0.5390625
2748,0.9140625,0.28125,-0.55078125
2749,0.91796875,0.2890625,-0.55078125
2750,0.9140625,0.2890625,-0.53515625
2751,0.91015625,0.29296875,-0.53125
2752,0.91796875,0.2890625,-0.53125
2753,0.90625,0.27734375,-0.52734375
2754,0.921875,0.28515625,-0.546875
2755,0.9140625,0.28125,-0.546875
2756,0.9140625,0.2890625,-0.53125
2757,0.91796875,0.28125,-0.5234375
2758,0.90625,0.265625,-0.54296875
2759,0.9140625,0.28125,-0.53515625
2760,0.91015625,0.28125,-0.53125
2761,0.90234375,0.28515625,-0.5390625
2762,0.91796875,0.28125,-0.546875
2763,0.90625,0.29296875,-0.55859375
2764,0.921875,0.28515625,-0.53125
2765,0.91015625,0.28515625,-0.54296875
2766,0.921875,0.28125,-0.53515625
2767,0.91015625,0.2890625,-0.54296875
2768,0.90625,0.28125,-0.54296875
2769,0.91015625,0.2890625,-0.54296875
2770,0.9140625,0.2890625,-0.5390625
2771,0.91796875,0.29296875,-0.52734375
2772,0.91015625,0.28125,-0.546875
2773,0.921875,0.28125,-0.5546875
2774,0.91015625,0.296875,-0.5625
2775,0.9140625,0.2890625,-0.546875
2776,0.91796875,0.29296875,-0.53125
2777,0.9140625,0.28125,-0.55078125
2778,0.91796875,0.29296875,-0.55078125
2779,0.91796875,0.296875,-0.54296875
2780,0.921875,0.28125,-0.5546875
2781,0.9140625,0.2890625,-0.546875
2782,0.921875,0.28515625,-0.5546875
2783,0.91796875,0.28125,-0.55859375
2784,0.9140625,0.28515625,-0.546875
2785,0.91796875,0.28125,-0.56640625
2786,0.921875,0.30078125,-0.546875
2787,0.91015625,0.28515625,-0.5625
2788,0.9140625,0.2890625,-0.5546875
2789,0.921875,0.28125,-0.546875
2790,0.91796875,0.28515625,-0.5546875
2791,0.921875,0.27734375,-0.5390625
2792,0.91015625,0.28515625,-0.53125
2793,0.91015625,0.28125,-0.55078125
2794,0.9140625,0.2890625,-0.546875
2795,0.91796875,0.2890625,-0.53515625
2796,0.92578125,0.28125,-0.54296875
2797,0.9296875,0.28125,-0.55078125
2798,0.93359375,0.29296875,-0.55078125
2799,0.9140625,0.28515625,-0.546875
2800,0.92578125,0.2734375,-0.55078125
2801,0.921875,0.2890625,-0.5546875
2802,0.9140625,0.28515625,-0.5546875
2803,0.9296875,0.28125,-0.546875
2804,0.91015625,0.28515625,-0.5390625
2805,0.91015625,0.28125,-0.54296875
2806,0.90234375,0.29296875,-0.53515625
2807,0.921875,0.26953125,-0.5546875
2808,0.91796875,0.28515625,-0.546875
2809,0.9140625,0.26953125,-0.53515625
2810,0.91015625,0.28125,-0.5390625
2811,0.9140625,0.28515625,-0.546875
2812,0.91796875,0.28125,-0.546875
2813,0.9140625,0.27734375,-0.53515625
2814,0.921875,0.28515625,-0.5390625
2815,0.91015625,0.28125,-0.54296875
2816,0.9140625,0.29296875,-0.5625
2817,0.92578125,0.2890625,-0.53515625
2818,0.9140625,0.29296875,-0.5390625
2819,0.92578125,0.2890625,-0.55859375
2820,0.91796875,0.2890625,-0.55859375
2821,0.921875,0.2890625,-0.55078125
2822,0.921875,0.28515625,-0.55078125
2823,0.921875,0.27734375,-0.546875
2824,0.91015625,0.28125,-0.546875
2825,0.91015625,0.28515625,-0.546875
2826,0.91015625,0.2890625,-0.53515625
2827,0.921875,0.28515625,-0.54296875
2828,0.9296875,0.28515625,-0.546875
2829,0.91796875,0.28515625,-0.546875
2830,0.91796875,0.28125,-0.5390625
2831,0.91796875,0.28125,-0.53125
2832,0.92578125,0.28515625,-0.52734375
2833,0.91796875,0.28125,-0.55078125
2834,0.921875,0.28125,-0.54296875
2835,0.92578125,0.28515625,-0.54296875
2836,0.90625,0.29296875,-0.52734375
2837,0.91015625,0.2890625,-0.54296875
2838,0.90234375,0.2890625,-0.53515625
2839,0.91015625,0.28515625,-0.53515625
2840,0.89453125,0.28515625,-0.53515625
2841,0.921875,0.28125,-0.5390625
2842,0.91015625,0.28515625,-0.5390625
2843,0.9140625,0.28515625,-0.5546875
2844,0.9140625,0.28515625,-0.5546875
2845,0.91015625,0.29296875,-0.52734375
2846,0.90625,0.2890625,-0.54296875
2847,0.9140625,0.28125,-0.5390625
2848,0.9140625,0.28515625,-0.53515625
2849,0.9140625,0.28515625,-0.546875
2850,0.9140625,0.28125,-0.53515625
2851,0.91796875,0.2734375,-0.546875
2852,0.91796875,0.28515625,-0.54296875
2853,0.91015625,0.28125,-0.54296875
2854,0.92578125,0.29296875,-0.53515625
2855,0.9140625,0.28515625,-0.53515625
2856,0.9140625,0.28125,-0.5390625
2857,0.91015625,0.28125,-0.54296875
2858,0.9140625,0.296875,-0.5546875
2859,0.91796875,0.28515625,-0.54296875
2860,0.9140625,0.2890625,-0.58203125
2861,0.921875,0.29296875,-0.5546875
2862,0.921875,0.28125,-0.55859375
2863,0.91796875,0.2890625,-0.5546875
2864,0.921875,0.28125,-0.5546875
2865,0.91796875,0.28515625,-0.5546875
2866,0.91796875,0.296875,-0.55859375
2867,0.90625,0.29296875,-0.56640625
2868,0.92578125,0.28515625,-0.546875
2869,0.9140625,0.2890625,-0.5546875
2870,0.90234375,0.296875,-0.546875
2871,0.90625,0.28125,-0.5390625
2872,0.91015625,0.30078125,-0.5390625
2873,0.921875,0.28515625,-0.546875
2874,0.90625,0.2890625,-0.546875
2875,0.9140625,0.28515625,-0.54296875
2876,0.91796875,0.27734375,-0.55078125
2877,0.91796875,0.28515625,-0.58203125
2878,0.92578125,0.28515625,-0.55078125
2879,0.92578125,0.2890625,-0.54296875
2880,0.9140625,0.2890625,-0.5546875
2881,0.921875,0.2890625,-0.54296875
2882,0.921875,0.29296875,-0.54296875
2883,0.921875,0.2890625,-0.53515625
2884,0.91796875,0.28515625,-0.546875
2885,0.91015625,0.28515625,-0.5625
2886,0.921875,0.29296875,-0.5546875
2887,0.9140625,0.29296875,-0.5546875
2888,0.9453125,0.29296875,-0.50390625
2889,0.9140625,0.2890625,-0.55078125
2890,0.93359375,0.2890625,-0.5546875
2891,0.91015625,0.28515625,-0.53125
2892,0.9140625,0.296875,-0.54296875
2893,0.91796875,0.2890625,-0.51953125
2894,0.91796875,0.28125,-0.546875
2895,0.90625,0.2890625,-0.55859375
2896,0.91015625,0.296875,-0.5390625
2897,0.91015625,0.2890625,-0.546875
2898,0.90625,0.29296875,-0.54296875
2899,0.921875,0.265625,-0.53515625
2900,0.9140625,0.28125,-0.55859375
2901,0.91796875,0.28515625,-0.54296875
2902,0.90625,0.2890625,-0.54296875
2903,0.921875,0.27734375,-0.546875
2904,0.91015625,0.28125,-0.53125
2905,0.91796875,0.28515625,-0.5390625
2906,0.91796875,0.2890625,-0.55078125
2907,0.90625,0.296875,-0.5546875
2908,0.9140625,0.28125,-0.5390625
2909,0.91796875,0.28515625,-0.5546875
2910,0.9140625,0.2890625,-0.5546875
2911,0.9140625,0.29296875,-0.546875
2912,0.90625,0.296875,-0.546875
2913,0.9140625,0.296875,-0.5546875
2914,0.91796875,0.28515625,-0.55078125
2915,0.921875,0.28515625,-0.54296875
2916,0.91015625,0.28515625,-0.55078125
2917,0.91015625,0.28125,-0.57421875
2918,0.9140625,0.296875,-0.55078125
2919,0.9140625,0.28515625,-0.55078125
2920,0.9140625,0.28515625,-0.55078125
2921,0.9140625,0.2890625,-0.54296875
2922,0.92578125,0.2890625,-0.5625
2923,0.9140625,0.28515625,-0.55859375
2924,0.91015625,0.2890625,-0.54296875
2925,0.91796875,0.2890625,-0.5390625
2926,0.9140625,0.28515625,-0.5234375
2927,0.9140625,0.30078125,-0.55078125
2928,0.921875,0.29296875,-0.52734375
2929,0.90625,0.29296875,-0.546875
2930,0.91796875,0.2890625,-0.53125
2931,0.921875,0.2890625,-0.53515625
2932,0.9140625,0.28125,-0.53515625
2933,0.921875,0.29296875,-0.546875
2934,0.92578125,0.28515625,-0.546875
2935,0.921875,0.29296875,-0.5625
2936,0.90625,0.29296875,-0.5390625
2937,0.91015625,0.28125,-0.54296875
2938,0.91796875,0.28515625,-0.54296875
2939,0.92578125,0.28515625,-0.546875
2940,0.92578125,0.2890625,-0.54296875
2941,0.921875,0.2890625,-0.546875
2942,0.91796875,0.28515625,-0.54296875
2943,0.91796875,0.28515625,-0.54296875
2944,0.92578125,0.28515625,-0.5390625
2945,0.9296875,0.28515625,-0.53125
2946,0.921875,0.28515625,-0.55078125
2947,0.9140625,0.28515625,-0.55078125
2948,0.91796875,0.28515625,-0.546875
2949,0.90234375,0.2890625,-0.53125
2950,0.9140625,0.296875,-0.5390625
2951,0.91796875,0.296875,-0.54296875
2952,0.921875,0.28125,-0.546875
2953,0.91796875,0.27734375,-0.5390625
2954,0.91796875,0.2890625,-0.55078125
2955,0.921875,0.2890625,-0.54296875
2956,0.91015625,0.28515625,-0.56640625
2957,0.91015625,0.2890625,-0.5390625
2958,0.91015625,0.28515625,-0.546875
2959,0.91015625,0.28125,-0.55078125
2960,0.87109375,0.26953125,-0.5546875
2961,0.92578125,0.28515625,-0.54296875
2962,0.92578125,0.3046875,-0.5546875
2963,0.90234375,0.29296875,-0.5546875
2964,0.91015625,0.296875,-0.5546875
2965,0.9140625,0.28515625,-0.54296875
2966,0.90625,0.29296875,-0.5390625
2967,0.921875,0.28515625,-0.55859375
2968,0.9140625,0.28125,-0.546875
2969,0.90625,0.265625,-0.5390625
2970,0.92578125,0.2890625,-0.5625
2971,0.90625,0.30859375,-0.55859375
2972,0.92578125,0.31640625,-0.53125
2973,0.91796875,0.296875,-0.55078125
2974,0.91796875,0.296875,-0.55078125
2975,0.92578125,0.2890625,-0.546875
2976,0.921875,0.28515625,-0.55078125
2977,0.92578125,0.29296875,-0.546875
2978,0.921875,0.29296875,-0.56640625
2979,0.91015625,0.296875,-0.5390625
2980,0.921875,0.28515625,-0.5390625
2981,0.9140625,0.28125,-0.5390625
2982,0.9140625,0.28515625,-0.55078125
2983,0.921875,0.2890625,-0.53515625
2984,0.91796875,0.29296875,-0.54296875
2985,0.921875,0.29296875,-0.546875
2986,0.91796875,0.28125,-0.52734375
2987,0.91015625,0.27734375,-0.546875
2988,0.91796875,0.27734375,-0.54296875
2989,0.89453125,0.27734375,-0.52734375
2990,0.92578125,0.20703125,-0.57421875
2991,0.89453125,0.328125,-0.56640625
2992,0.93359375,0.3046875,-0.5234375
2993,0.92578125,0.3125,-0.53515625
2994,0.921875,0.296875,-0.53515625
2995,0.9140625,0.30078125,-0.54296875
2996,0.87109375,0.24609375,-0.53125
2997,0.93359375,0.27734375,-0.578125
2998,0.91796875,0.3125,-0.55078125
2999,0.92578125,0.29296875,-0.53515625
