,accelerometerAccelerationX(G),accelerometerAccelerationY(G),accelerometerAccelerationZ(G)
0,0.07421875,-0.984375,-0.43359375
1,0.07421875,-0.97265625,-0.42578125
2,0.0703125,-0.984375,-0.43359375
3,0.0703125,-0.984375,-0.42578125
4,0.078125,-0.99609375,-0.41796875
5,0.08203125,-1.0078125,-0.4296875
6,0.0703125,-0.9921875,-0.4375
7,0.08984375,-1.00390625,-0.4453125
8,0.0859375,-0.9921875,-0.44140625
9,0.08203125,-0.984375,-0.4296875
10,0.07421875,-1.0,-0.4296875
11,0.078125,-0.98828125,-0.44140625
12,0.078125,-0.984375,-0.43359375
13,0.08203125,-0.9765625,-0.4375
14,0.078125,-0.9921875,-0.43359375
15,0.07421875,-0.97265625,-0.421875
16,0.078125,-0.98046875,-0.42578125
17,0.078125,-0.984375,-0.41015625
18,0.07421875,-0.98046875,-0.43359375
19,0.08203125,-0.98828125,-0.42578125
20,0.078125,-0.98828125,-0.4375
21,0.078125,-0.9921875,-0.421875
22,0.0703125,-0.984375,-0.44921875
23,0.08203125,-0.98828125,-0.43359375
24,0.078125,-0.9765625,-0.42578125
25,0.0859375,-0.984375,-0.4453125
26,0.08203125,-0.984375,-0.453125
27,0.07421875,-0.99609375,-0.44140625
28,0.078125,-0.98828125,-0.44140625
29,0.06640625,-0.984375,-0.4375
30,0.0625,-0.99609375,-0.4375
31,0.0703125,-0.9921875,-0.4453125
32,0.06640625,-0.99609375,-0.4609375
33,0.07421875,-0.9765625,-0.42578125
34,0.0625,-0.9765625,-0.45703125
35,0.0703125,-0.98828125,-0.43359375
36,0.0546875,-0.9765625,-0.44921875
37,0.07421875,-0.98828125,-0.4296875
38,0.07421875,-0.984375,-0.44140625
39,0.08203125,-0.9921875,-0.45703125
40,0.0703125,-0.98828125,-0.44140625
41,0.078125,-0.98046875,-0.4375
42,0.08203125,-1.00390625,-0.4375
43,0.09765625,-0.9921875,-0.4296875
44,0.07421875,-0.9921875,-0.44140625
45,0.078125,-0.984375,-0.4296875
46,0.0703125,-0.98828125,-0.43359375
47,0.11328125,-0.9609375,-0.4609375
48,0.08203125,-0.9921875,-0.43359375
49,0.08203125,-0.9921875,-0.43359375
50,0.07421875,-0.98046875,-0.43359375
51,0.078125,-0.984375,-0.421875
52,0.0703125,-0.99609375,-0.45703125
53,0.07421875,-0.984375,-0.421875
54,0.07421875,-1.0,-0.4296875
55,0.0859375,-0.984375,-0.421875
56,0.078125,-0.99609375,-0.4453125
57,0.06640625,-0.9921875,-0.44140625
58,0.08203125,-0.9765625,-0.44140625
59,0.07421875,-0.984375,-0.44140625
60,0.0703125,-0.98828125,-0.44140625
61,0.08203125,-0.98828125,-0.4453125
62,0.0859375,-0.9921875,-0.4453125
63,0.08984375,-0.98828125,-0.43359375
64,0.0859375,-0.99609375,-0.42578125
65,0.08203125,-0.984375,-0.43359375
66,0.08203125,-0.9921875,-0.421875
67,0.078125,-0.98828125,-0.4453125
68,0.0859375,-0.9921875,-0.4375
69,0.07421875,-0.98828125,-0.4296875
70,0.078125,-0.9921875,-0.4453125
71,0.0859375,-0.98828125,-0.43359375
72,0.078125,-0.984375,-0.44140625
73,0.0859375,-0.97265625,-0.4375
74,0.07421875,-0.98046875,-0.44140625
75,0.07421875,-0.98828125,-0.45703125
76,0.08203125,-0.9921875,-0.4453125
77,0.078125,-0.98046875,-0.4375
78,0.078125,-1.0,-0.42578125
79,0.0859375,-0.9921875,-0.44140625
80,0.078125,-0.98828125,-0.4296875
81,0.08203125,-0.98828125,-0.453125
82,0.078125,-0.99609375,-0.43359375
83,0.0703125,-0.98828125,-0.4375
84,0.0859375,-0.9921875,-0.4375
85,0.07421875,-0.99609375,-0.4296875
86,0.07421875,-0.98828125,-0.4453125
87,0.0703125,-0.99609375,-0.4375
88,0.07421875,-0.9921875,-0.44140625
89,0.07421875,-0.98046875,-0.4453125
90,0.0703125,-0.9765625,-0.43359375
91,0.07421875,-0.98046875,-0.44140625
92,0.0703125,-0.98828125,-0.4453125
93,0.05859375,-0.96875,-0.43359375
94,0.0703125,-0.98828125,-0.45703125
95,0.04296875,-0.98046875,-0.421875
96,0.0859375,-0.984375,-0.4453125
97,0.0859375,-0.98828125,-0.44140625
98,0.078125,-0.98828125,-0.44140625
99,0.07421875,-0.97265625,-0.4453125
100,0.0703125,-0.98828125,-0.4375
101,0.06640625,-0.98046875,-0.4453125
102,0.08203125,-0.98046875,-0.4375
103,0.08203125,-0.984375,-0.4375
104,0.07421875,-0.98046875,-0.44140625
105,0.078125,-0.99609375,-0.43359375
106,0.078125,-0.98828125,-0.45703125
107,0.078125,-0.97265625,-0.43359375
108,0.07421875,-0.98046875,-0.44140625
109,0.078125,-0.984375,-0.42578125
110,0.078125,-0.984375,-0.4296875
111,0.0859375,-0.98828125,-0.44921875
112,0.08203125,-0.9921875,-0.43359375
113,0.078125,-0.98046875,-0.44140625
114,0.08203125,-0.99609375,-0.4375
115,0.09375,-0.9765625,-0.44921875
116,0.08203125,-0.984375,-0.4453125
117,0.0859375,-0.984375,-0.44921875
118,0.0859375,-0.98828125,-0.453125
119,0.07421875,-0.9921875,-0.421875
120,0.0859375,-0.9921875,-0.45703125
121,0.0859375,-0.984375,-0.4609375
122,0.09375,-0.98828125,-0.4375
123,0.0859375,-0.98828125,-0.44140625
124,0.08203125,-0.98828125,-0.453125
125,0.0859375,-0.984375,-0.453125
126,0.08203125,-0.98046875,-0.44921875
127,0.08984375,-0.9921875,-0.44921875
128,0.09375,-0.9921875,-0.44140625
129,0.08203125,-0.98046875,-0.4375
130,0.09375,-0.9921875,-0.4375
131,0.08203125,-0.984375,-0.453125
132,0.08203125,-0.984375,-0.44921875
133,0.08203125,-0.984375,-0.44921875
134,0.0859375,-0.9921875,-0.453125
135,0.08203125,-0.9921875,-0.4375
136,0.09375,-0.984375,-0.4375
137,0.08984375,-0.984375,-0.4453125
138,0.08984375,-0.98046875,-0.4375
139,0.09375,-0.984375,-0.4609375
140,0.09765625,-0.98828125,-0.4375
141,0.09765625,-0.98828125,-0.4609375
142,0.08984375,-0.98046875,-0.4453125
143,0.09375,-0.9921875,-0.44140625
144,0.09375,-0.98828125,-0.4375
145,0.08984375,-0.984375,-0.43359375
146,0.09375,-0.984375,-0.4296875
147,0.0859375,-0.9921875,-0.4375
148,0.0859375,-0.98828125,-0.4296875
149,0.10546875,-0.984375,-0.4296875
150,0.09375,-0.9921875,-0.42578125
151,0.09375,-0.984375,-0.44140625
152,0.08984375,-0.99609375,-0.44140625
153,0.09375,-0.98828125,-0.4453125
154,0.08984375,-0.98828125,-0.4453125
155,0.08984375,-0.98828125,-0.44921875
156,0.0859375,-0.9765625,-0.4453125
157,0.0859375,-0.98828125,-0.4296875
158,0.07421875,-0.98828125,-0.4375
159,0.0859375,-0.9765625,-0.4375
160,0.07421875,-0.984375,-0.44140625
161,0.0859375,-0.99609375,-0.44140625
162,0.08203125,-0.98828125,-0.44140625
163,0.0859375,-1.0,-0.4453125
164,0.08203125,-0.99609375,-0.4296875
165,0.09375,-0.98828125,-0.44140625
166,0.07421875,-0.984375,-0.44140625
167,0.0703125,-0.9765625,-0.4453125
168,0.06640625,-0.98046875,-0.44921875
169,0.0859375,-0.98828125,-0.44140625
170,0.07421875,-0.98046875,-0.43359375
171,0.078125,-0.98046875,-0.4375
172,0.0859375,-0.984375,-0.4296875
173,0.078125,-0.98046875,-0.44921875
174,0.07421875,-0.984375,-0.4453125
175,0.08984375,-0.99609375,-0.453125
176,0.078125,-0.99609375,-0.453125
177,0.078125,-0.9921875,-0.44140625
178,0.0859375,-0.9921875,-0.4296875
179,0.07421875,-1.01171875,-0.45703125
180,0.07421875,-0.984375,-0.4375
181,0.078125,-0.98828125,-0.44921875
182,0.0859375,-0.9921875,-0.45703125
183,0.08203125,-0.98828125,-0.44140625
184,0.078125,-0.9921875,-0.42578125
185,0.0703125,-0.98828125,-0.44921875
186,0.07421875,-0.9921875,-0.45703125
187,0.08203125,-0.98046875,-0.44921875
188,0.06640625,-0.984375,-0.43359375
189,0.07421875,-0.9765625,-0.44140625
190,0.0703125,-0.98828125,-0.43359375
191,0.0859375,-0.984375,-0.4453125
192,0.08203125,-0.99609375,-0.43359375
193,0.07421875,-0.99609375,-0.4375
194,0.0859375,-0.9765625,-0.4375
195,0.0625,-0.9921875,-0.44140625
196,0.06640625,-0.9921875,-0.44140625
197,0.08203125,-0.984375,-0.453125
198,0.078125,-0.98828125,-0.4453125
199,0.0703125,-0.9921875,-0.4453125
200,0.06640625,-0.984375,-0.4375
201,0.06640625,-0.98828125,-0.4453125
202,0.0546875,-0.98046875,-0.4375
203,0.05859375,-0.98828125,-0.4296875
204,0.0625,-0.97265625,-0.44921875
205,0.05859375,-0.98828125,-0.43359375
206,0.0625,-0.9921875,-0.4296875
207,0.06640625,-0.99609375,-0.43359375
208,0.06640625,-0.98828125,-0.43359375
209,0.07421875,-0.9765625,-0.44921875
210,0.07421875,-0.9921875,-0.44140625
211,0.0625,-1.0,-0.44140625
212,0.05859375,-0.984375,-0.45703125
213,0.06640625,-0.9921875,-0.4375
214,0.06640625,-0.984375,-0.44140625
215,0.078125,-0.99609375,-0.43359375
216,0.0625,-0.9765625,-0.4453125
217,0.07421875,-0.98828125,-0.44921875
218,0.05859375,-0.984375,-0.44140625
219,0.05078125,-0.984375,-0.44140625
220,0.078125,-0.99609375,-0.4375
221,0.06640625,-0.9921875,-0.4453125
222,0.0625,-0.9921875,-0.4375
223,0.07421875,-0.9921875,-0.4296875
224,0.04296875,-0.98828125,-0.42578125
225,0.0703125,-0.98046875,-0.44921875
226,0.06640625,-0.984375,-0.44140625
227,0.06640625,-0.98828125,-0.44140625
228,0.0625,-0.99609375,-0.4296875
229,0.05859375,-0.984375,-0.4375
230,0.06640625,-0.9921875,-0.4296875
231,0.05859375,-0.9921875,-0.4375
232,0.05859375,-0.98828125,-0.4453125
233,0.0625,-0.9921875,-0.44140625
234,0.0625,-0.984375,-0.43359375
235,0.06640625,-0.9921875,-0.44140625
236,0.06640625,-0.98046875,-0.44140625
237,0.05859375,-0.9921875,-0.43359375
238,0.0546875,-0.98828125,-0.421875
239,0.0625,-0.984375,-0.43359375
240,0.06640625,-0.984375,-0.44140625
241,0.0625,-0.98046875,-0.4296875
242,0.046875,-0.9921875,-0.4296875
243,0.0625,-0.98828125,-0.42578125
244,0.0546875,-0.9921875,-0.44140625
245,0.046875,-0.98828125,-0.4375
246,0.046875,-0.9921875,-0.43359375
247,0.0546875,-0.9921875,-0.44140625
248,0.05859375,-0.98828125,-0.44140625
249,0.05859375,-0.9765625,-0.4375
250,0.046875,-0.984375,-0.43359375
251,0.05859375,-0.98828125,-0.43359375
252,0.0703125,-0.98828125,-0.43359375
253,0.0546875,-0.984375,-0.43359375
254,0.06640625,-0.98828125,-0.4140625
255,0.0625,-0.98828125,-0.44140625
256,0.0625,-0.9921875,-0.4375
257,0.0625,-0.97265625,-0.4453125
258,0.0625,-0.98828125,-0.4453125
259,0.06640625,-0.98828125,-0.44140625
260,0.0703125,-0.9921875,-0.4375
261,0.0546875,-0.99609375,-0.43359375
262,0.0625,-0.98828125,-0.44140625
263,0.0703125,-0.98828125,-0.43359375
264,0.05859375,-0.98828125,-0.45703125
265,0.046875,-0.984375,-0.4453125
266,0.0625,-0.98046875,-0.4453125
267,0.0625,-0.98046875,-0.43359375
268,0.07421875,-0.9921875,-0.42578125
269,0.0625,-0.98828125,-0.43359375
270,0.05859375,-0.984375,-0.43359375
271,0.05859375,-0.98828125,-0.4296875
272,0.0546875,-0.98828125,-0.41796875
273,0.0703125,-0.98828125,-0.44140625
274,0.05078125,-0.98046875,-0.43359375
275,0.0625,-0.98046875,-0.43359375
276,0.078125,-1.01171875,-0.453125
277,0.0546875,-0.98828125,-0.44921875
278,0.05078125,-0.98046875,-0.4375
279,0.05859375,-0.9921875,-0.44140625
280,0.0625,-0.9921875,-0.4453125
281,0.0625,-0.984375,-0.42578125
282,0.0546875,-0.98828125,-0.42578125
283,0.06640625,-0.984375,-0.421875
284,0.0625,-0.98828125,-0.44140625
285,0.0703125,-0.9921875,-0.4296875
286,0.06640625,-1.0,-0.4453125
287,0.0625,-0.98828125,-0.4296875
288,0.05078125,-0.98828125,-0.44921875
289,0.05859375,-0.98046875,-0.421875
290,0.05859375,-0.98046875,-0.4375
291,0.05859375,-0.98828125,-0.43359375
292,0.0546875,-0.9765625,-0.43359375
293,0.0546875,-0.9765625,-0.421875
294,0.05859375,-0.98828125,-0.41796875
295,0.0625,-0.98828125,-0.42578125
296,0.05859375,-0.9921875,-0.41796875
297,0.05078125,-0.98828125,-0.44140625
298,0.05859375,-0.98828125,-0.4375
299,0.0625,-0.984375,-0.4375
300,0.0625,-0.98828125,-0.44921875
301,0.06640625,-0.9921875,-0.4296875
302,0.0625,-0.98828125,-0.43359375
303,0.0546875,-0.97265625,-0.44140625
304,0.05859375,-0.984375,-0.4375
305,0.0546875,-0.9765625,-0.421875
306,0.05859375,-0.9921875,-0.43359375
307,0.05078125,-0.99609375,-0.43359375
308,0.05078125,-0.98828125,-0.43359375
309,0.0546875,-0.984375,-0.44921875
310,0.0546875,-0.98828125,-0.44921875
311,0.0625,-0.98828125,-0.4375
312,0.0546875,-0.9921875,-0.4375
313,0.05859375,-0.9921875,-0.44140625
314,0.05859375,-0.99609375,-0.4140625
315,0.07421875,-0.98828125,-0.43359375
316,0.0703125,-0.9921875,-0.41796875
317,0.046875,-0.98828125,-0.44921875
318,0.05859375,-0.9921875,-0.4453125
319,0.0625,-0.99609375,-0.4453125
320,0.05859375,-0.9921875,-0.43359375
321,0.0703125,-0.98828125,-0.44140625
322,0.0546875,-0.9921875,-0.4453125
323,0.0703125,-0.9921875,-0.4296875
324,0.046875,-0.98828125,-0.421875
325,0.06640625,-0.99609375,-0.43359375
326,0.0546875,-0.98828125,-0.421875
327,0.0625,-0.9921875,-0.44140625
328,0.0703125,-0.984375,-0.44140625
329,0.0703125,-0.984375,-0.4296875
330,0.06640625,-0.98828125,-0.43359375
331,0.0546875,-0.98828125,-0.43359375
332,0.0546875,-0.98046875,-0.4375
333,0.0625,-0.98828125,-0.43359375
334,0.05859375,-0.9921875,-0.4375
335,0.0546875,-0.984375,-0.44921875
336,0.0546875,-0.98828125,-0.44921875
337,0.0546875,-0.98046875,-0.421875
338,0.05078125,-0.98828125,-0.421875
339,0.05859375,-0.9765625,-0.43359375
340,0.0625,-0.98828125,-0.43359375
341,0.0546875,-0.98828125,-0.42578125
342,0.0625,-0.9921875,-0.4296875
343,0.046875,-0.984375,-0.43359375
344,0.05078125,-0.99609375,-0.42578125
345,0.0625,-0.98046875,-0.4375
346,0.05078125,-0.984375,-0.43359375
347,0.05078125,-0.984375,-0.4453125
348,0.06640625,-0.9921875,-0.43359375
349,0.05078125,-0.9921875,-0.4375
350,0.06640625,-0.9921875,-0.4296875
351,0.0625,-0.99609375,-0.43359375
352,0.0625,-1.0,-0.4375
353,0.0546875,-0.99609375,-0.4453125
354,0.0625,-0.9921875,-0.4296875
355,0.0546875,-0.984375,-0.43359375
356,0.05078125,-0.98828125,-0.4375
357,0.05859375,-0.99609375,-0.44140625
358,0.0625,-0.98046875,-0.44140625
359,0.0546875,-0.98828125,-0.42578125
360,0.0625,-0.984375,-0.44140625
361,0.05859375,-0.98828125,-0.421875
362,0.0625,-0.98046875,-0.42578125
363,0.05859375,-0.98828125,-0.4453125
364,0.0625,-0.98828125,-0.421875
365,0.05859375,-0.98046875,-0.42578125
366,0.0546875,-0.98828125,-0.4296875
367,0.0625,-0.9921875,-0.43359375
368,0.0546875,-0.9921875,-0.4609375
369,0.0625,-0.99609375,-0.4453125
370,0.0625,-0.98828125,-0.44140625
371,0.0625,-0.9921875,-0.43359375
372,0.0546875,-0.9921875,-0.4375
373,0.0703125,-0.9921875,-0.44921875
374,0.05859375,-0.98046875,-0.4296875
375,0.0546875,-0.98046875,-0.41796875
376,0.05859375,-0.9765625,-0.42578125
377,0.05859375,-0.984375,-0.4453125
378,0.06640625,-0.984375,-0.43359375
379,0.07421875,-0.99609375,-0.43359375
380,0.0546875,-0.984375,-0.44140625
381,0.05078125,-0.9921875,-0.43359375
382,0.0625,-0.9921875,-0.4375
383,0.0703125,-0.9921875,-0.4375
384,0.06640625,-0.98046875,-0.4375
385,0.06640625,-0.98046875,-0.4453125
386,0.05859375,-0.9921875,-0.4296875
387,0.0703125,-0.98828125,-0.44140625
388,0.07421875,-0.9921875,-0.44921875
389,0.0625,-0.984375,-0.421875
390,0.05859375,-0.9765625,-0.43359375
391,0.0625,-0.98046875,-0.4296875
392,0.06640625,-0.98828125,-0.4296875
393,0.06640625,-0.99609375,-0.44140625
394,0.0703125,-0.9921875,-0.44140625
395,0.0625,-0.9921875,-0.4296875
396,0.0625,-0.984375,-0.4453125
397,0.0625,-0.9765625,-0.4296875
398,0.0625,-0.984375,-0.44140625
399,0.0703125,-0.99609375,-0.43359375
400,0.08203125,-0.98828125,-0.43359375
401,0.05859375,-0.98828125,-0.44140625
402,0.0703125,-0.98828125,-0.44140625
403,0.06640625,-0.98046875,-0.44140625
404,0.08203125,-0.9921875,-0.44921875
405,0.07421875,-0.9921875,-0.4375
406,0.06640625,-0.98828125,-0.44921875
407,0.07421875,-0.98828125,-0.45703125
408,0.0625,-0.984375,-0.43359375
409,0.0703125,-0.984375,-0.4609375
410,0.0703125,-0.984375,-0.43359375
411,0.078125,-0.9921875,-0.44921875
412,0.078125,-0.98828125,-0.4453125
413,0.07421875,-0.98828125,-0.45703125
414,0.078125,-0.9921875,-0.46484375
415,0.06640625,-0.98046875,-0.4375
416,0.06640625,-0.97265625,-0.44140625
417,0.0703125,-0.98046875,-0.453125
418,0.078125,-0.984375,-0.4453125
419,0.0703125,-0.984375,-0.44921875
420,0.07421875,-0.984375,-0.44921875
421,0.078125,-0.98046875,-0.453125
422,0.0703125,-0.98046875,-0.45703125
423,0.07421875,-0.97265625,-0.4609375
424,0.078125,-0.98828125,-0.45703125
425,0.0703125,-0.9765625,-0.47265625
426,0.078125,-0.98046875,-0.4609375
427,0.08203125,-0.98046875,-0.4609375
428,0.07421875,-0.98828125,-0.45703125
429,0.078125,-0.984375,-0.46484375
430,0.06640625,-0.9765625,-0.47265625
431,0.0703125,-0.97265625,-0.4765625
432,0.0703125,-0.9765625,-0.48828125
433,0.0625,-0.96875,-0.484375
434,0.0546875,-0.9765625,-0.48828125
435,0.0625,-0.9765625,-0.47265625
436,0.05859375,-0.984375,-0.484375
437,0.046875,-0.95703125,-0.484375
438,0.0546875,-0.96875,-0.48828125
439,0.0625,-0.96484375,-0.48828125
440,0.0546875,-0.9765625,-0.48046875
441,0.0625,-0.9765625,-0.4921875
442,0.0546875,-0.95703125,-0.49609375
443,0.0546875,-0.97265625,-0.49609375
444,0.046875,-0.96875,-0.4921875
445,0.05859375,-0.97265625,-0.49609375
446,0.04296875,-0.95703125,-0.4921875
447,0.046875,-0.9609375,-0.48046875
448,0.046875,-0.97265625,-0.46875
449,0.0546875,-0.96484375,-0.49609375
450,0.0625,-0.9609375,-0.50390625
451,0.046875,-0.96875,-0.5
452,0.05859375,-0.96875,-0.5
453,0.046875,-0.95703125,-0.5
454,0.05078125,-0.9609375,-0.51171875
455,0.04296875,-0.953125,-0.52734375
456,0.05078125,-0.953125,-0.51953125
457,0.046875,-0.95703125,-0.53125
458,0.04296875,-0.9453125,-0.5390625
459,0.046875,-0.95703125,-0.52734375
460,0.04296875,-0.9375,-0.53515625
461,0.0390625,-0.9453125,-0.5234375
462,0.03515625,-0.94921875,-0.52734375
463,0.0390625,-0.9453125,-0.53125
464,0.04296875,-0.91796875,-0.5234375
465,0.03515625,-0.94140625,-0.546875
466,0.03515625,-0.9296875,-0.546875
467,0.03515625,-0.9375,-0.51953125
468,0.02734375,-0.92578125,-0.53125
469,0.04296875,-0.9375,-0.53125
470,0.03125,-0.9296875,-0.52734375
471,0.03515625,-0.93359375,-0.546875
472,0.0390625,-0.921875,-0.55078125
473,0.04296875,-0.93359375,-0.5625
474,0.02734375,-0.9375,-0.53515625
475,0.03125,-0.93359375,-0.546875
476,0.0390625,-0.93359375,-0.53125
477,0.03125,-0.93359375,-0.55078125
478,0.0234375,-0.93359375,-0.546875
479,0.02734375,-0.9296875,-0.53125
480,0.02734375,-0.93359375,-0.5234375
481,0.0078125,-0.90625,-0.546875
482,0.02734375,-0.91796875,-0.546875
483,0.0234375,-0.9296875,-0.53125
484,0.02734375,-0.91796875,-0.5234375
485,0.03125,-0.93359375,-0.5390625
486,0.02734375,-0.94140625,-0.53515625
487,0.0390625,-0.9375,-0.53125
488,0.0234375,-0.9453125,-0.5234375
489,0.0234375,-0.94921875,-0.5
490,0.0390625,-0.95703125,-0.51171875
491,0.04296875,-0.95703125,-0.515625
492,0.0546875,-0.9609375,-0.5078125
493,0.06640625,-0.96875,-0.5078125
494,0.0859375,-1.01171875,-0.484375
495,0.0703125,-0.97265625,-0.5
496,0.06640625,-0.97265625,-0.49609375
497,0.0859375,-0.95703125,-0.48046875
498,0.0703125,-0.9609375,-0.4765625
499,0.1015625,-0.98046875,-0.48828125
500,0.09375,-0.98046875,-0.4765625
501,0.08984375,-0.98828125,-0.45703125
502,0.08984375,-0.98046875,-0.453125
503,0.1015625,-0.9765625,-0.44921875
504,0.08984375,-0.99609375,-0.4375
505,0.125,-0.9765625,-0.48046875
506,0.0859375,-1.01171875,-0.43359375
507,0.09765625,-1.01171875,-0.44140625
508,0.09765625,-1.01953125,-0.43359375
509,0.09765625,-1.03125,-0.4296875
510,0.09765625,-1.03515625,-0.42578125
511,0.10546875,-1.03125,-0.4375
512,0.1015625,-1.0390625,-0.44140625
513,0.09375,-1.0390625,-0.453125
514,0.09375,-1.0390625,-0.46484375
515,0.05859375,-1.02734375,-0.46484375
516,0.0859375,-1.02734375,-0.47265625
517,0.0625,-1.0234375,-0.4921875
518,0.0390625,-1.01953125,-0.484375
519,0.03515625,-1.01171875,-0.48828125
520,0.03515625,-1.0,-0.484375
521,0.0234375,-1.00390625,-0.5
522,0.015625,-0.99609375,-0.484375
523,0.0078125,-1.00390625,-0.4921875
524,0.0,-0.98828125,-0.484375
525,-0.00390625,-0.98828125,-0.45703125
526,0.0,-0.984375,-0.47265625
527,-0.01953125,-0.98046875,-0.453125
528,-0.03515625,-0.984375,-0.46484375
529,-0.0390625,-0.9609375,-0.47265625
530,-0.0390625,-0.953125,-0.4765625
531,-0.04296875,-0.96484375,-0.46875
532,-0.0390625,-0.96484375,-0.47265625
533,-0.03125,-0.96875,-0.46875
534,-0.0390625,-0.9609375,-0.48046875
535,-0.04296875,-0.95703125,-0.484375
536,-0.03515625,-0.95703125,-0.4921875
537,-0.0390625,-0.9609375,-0.4921875
538,-0.02734375,-0.96875,-0.48828125
539,-0.01953125,-0.96484375,-0.49609375
540,-0.00390625,-0.9609375,-0.4921875
541,-0.0078125,-0.9765625,-0.48828125
542,0.0,-0.9765625,-0.484375
543,-0.01171875,-0.9609375,-0.48828125
544,-0.0078125,-0.98828125,-0.4921875
545,0.0,-0.97265625,-0.4921875
546,-0.00390625,-0.97265625,-0.5078125
547,0.0,-0.96875,-0.50390625
548,0.0,-0.9609375,-0.51171875
549,-0.01953125,-0.97265625,-0.5078125
550,-0.01171875,-0.9609375,-0.5
551,-0.0234375,-0.9765625,-0.51171875
552,-0.02734375,-0.96875,-0.5234375
553,-0.01171875,-0.9765625,-0.5
554,-0.02734375,-0.97265625,-0.5078125
555,-0.0234375,-0.97265625,-0.515625
556,-0.015625,-0.96875,-0.515625
557,-0.03515625,-0.96875,-0.53125
558,-0.0390625,-0.9609375,-0.515625
559,-0.04296875,-0.953125,-0.5234375
560,-0.04296875,-0.95703125,-0.53515625
561,-0.0625,-0.95703125,-0.54296875
562,-0.07421875,-0.95703125,-0.53515625
563,-0.06640625,-0.9453125,-0.5390625
564,-0.07421875,-0.94140625,-0.53125
565,-0.08203125,-0.92578125,-0.55078125
566,-0.0859375,-0.9453125,-0.5390625
567,-0.09765625,-0.94140625,-0.53125
568,-0.09375,-0.94140625,-0.5546875
569,-0.09375,-0.9296875,-0.55859375
570,-0.125,-0.9375,-0.546875
571,-0.109375,-0.9296875,-0.54296875
572,-0.10546875,-0.9375,-0.578125
573,-0.12109375,-0.94140625,-0.55859375
574,-0.11328125,-0.9375,-0.55859375
575,-0.09375,-0.9453125,-0.5625
576,-0.10546875,-0.94140625,-0.55859375
577,-0.08984375,-0.953125,-0.5625
578,-0.0859375,-0.953125,-0.5703125
579,-0.078125,-0.953125,-0.5546875
580,-0.07421875,-0.94921875,-0.56640625
581,-0.05078125,-0.96484375,-0.54296875
582,-0.0390625,-0.97265625,-0.55078125
583,-0.0234375,-0.96875,-0.56640625
584,0.0,-0.96875,-0.5546875
585,0.0234375,-0.96875,-0.55859375
586,0.046875,-0.96875,-0.5546875
587,0.06640625,-0.98046875,-0.55078125
588,0.08984375,-0.9765625,-0.55078125
589,0.09375,-0.97265625,-0.546875
590,0.09375,-0.9609375,-0.546875
591,0.11328125,-0.97265625,-0.54296875
592,0.109375,-0.9609375,-0.55078125
593,0.11328125,-0.96484375,-0.5390625
594,0.11328125,-0.9765625,-0.5390625
595,0.10546875,-0.95703125,-0.546875
596,0.1015625,-0.96484375,-0.52734375
597,0.10546875,-0.953125,-0.5390625
598,0.1015625,-0.95703125,-0.53125
599,0.08984375,-0.95703125,-0.53125
600,0.0859375,-0.953125,-0.52734375
601,0.06640625,-0.9609375,-0.53125
602,0.06640625,-0.95703125,-0.5234375
603,0.06640625,-0.97265625,-0.515625
604,0.0703125,-0.9609375,-0.51171875
605,0.0703125,-0.96875,-0.5
606,0.0625,-0.97265625,-0.51953125
607,0.06640625,-0.96484375,-0.50390625
608,0.05859375,-0.97265625,-0.515625
609,0.06640625,-0.9921875,-0.515625
610,0.06640625,-0.9765625,-0.515625
611,0.05859375,-0.96484375,-0.515625
612,0.05078125,-0.96484375,-0.5078125
613,0.0546875,-0.96875,-0.52734375
614,0.04296875,-0.9609375,-0.515625
615,0.04296875,-0.95703125,-0.53125
616,0.03125,-0.97265625,-0.52734375
617,0.0234375,-0.94921875,-0.5234375
618,0.01953125,-0.94140625,-0.52734375
619,0.01171875,-0.91796875,-0.52734375
620,0.03125,-0.921875,-0.51953125
621,0.0234375,-0.90625,-0.515625
622,0.03515625,-0.90234375,-0.51953125
623,0.0390625,-0.90625,-0.51953125
624,0.05078125,-0.90234375,-0.52734375
625,0.0625,-0.9140625,-0.5078125
626,0.0703125,-0.91015625,-0.4921875
627,0.0859375,-0.921875,-0.4921875
628,0.07421875,-0.91796875,-0.4921875
629,0.08203125,-0.9140625,-0.4765625
630,0.0859375,-0.90625,-0.47265625
631,0.08203125,-0.9140625,-0.48828125
632,0.07421875,-0.9140625,-0.484375
633,0.078125,-0.91015625,-0.48828125
634,0.07421875,-0.9140625,-0.4921875
635,0.0859375,-0.91015625,-0.49609375
636,0.0859375,-0.91796875,-0.4765625
637,0.0859375,-0.9453125,-0.47265625
638,0.09375,-0.953125,-0.46875
639,0.11328125,-0.96484375,-0.46875
640,0.109375,-0.96484375,-0.453125
641,0.125,-0.98828125,-0.48046875
642,0.13671875,-1.0,-0.46875
643,0.13671875,-0.99609375,-0.46875
644,0.171875,-1.015625,-0.453125
645,0.19140625,-1.01953125,-0.4296875
646,0.21484375,-1.03515625,-0.44140625
647,0.23046875,-1.0390625,-0.41796875
648,0.24609375,-1.046875,-0.41796875
649,0.2578125,-1.04296875,-0.40234375
650,0.265625,-1.04296875,-0.41015625
651,0.28515625,-1.05859375,-0.40625
652,0.29296875,-1.05859375,-0.421875
653,0.30859375,-1.0546875,-0.421875
654,0.3203125,-1.04296875,-0.42578125
655,0.328125,-1.05078125,-0.421875
656,0.3359375,-1.04296875,-0.41796875
657,0.328125,-1.015625,-0.41015625
658,0.328125,-1.01171875,-0.4140625
659,0.3359375,-1.0,-0.4375
660,0.3203125,-0.984375,-0.421875
661,0.32421875,-0.984375,-0.47265625
662,0.3203125,-0.95703125,-0.44921875
663,0.3125,-0.9375,-0.484375
664,0.296875,-0.92578125,-0.4921875
665,0.296875,-0.91796875,-0.4921875
666,0.265625,-0.8984375,-0.50390625
667,0.265625,-0.8984375,-0.5078125
668,0.25390625,-0.90234375,-0.515625
669,0.2421875,-0.90234375,-0.49609375
670,0.23046875,-0.90625,-0.50390625
671,0.22265625,-0.91796875,-0.5
672,0.1953125,-0.9296875,-0.4921875
673,0.203125,-0.9609375,-0.46484375
674,0.1796875,-0.96484375,-0.46484375
675,0.1796875,-0.984375,-0.4375
676,0.171875,-0.99609375,-0.421875
677,0.16015625,-1.015625,-0.3984375
678,0.17578125,-1.02734375,-0.37109375
679,0.171875,-1.04296875,-0.3671875
680,0.1953125,-1.0546875,-0.35546875
681,0.1953125,-1.0625,-0.34765625
682,0.20703125,-1.0625,-0.34765625
683,0.21875,-1.0625,-0.34765625
684,0.22265625,-1.03125,-0.3515625
685,0.23046875,-1.03125,-0.33984375
686,0.2265625,-1.01171875,-0.3359375
687,0.22265625,-0.99609375,-0.34765625
688,0.22265625,-0.99609375,-0.33984375
689,0.1953125,-0.97265625,-0.3515625
690,0.1953125,-0.96484375,-0.36328125
691,0.19140625,-0.9609375,-0.359375
692,0.16796875,-0.953125,-0.33984375
693,0.15234375,-0.94921875,-0.34375
694,0.13671875,-0.94140625,-0.359375
695,0.1328125,-0.9296875,-0.3515625
696,0.0625,-0.94921875,-0.3046875
697,0.08984375,-0.9453125,-0.375
698,0.08203125,-0.9375,-0.3671875
699,0.08984375,-0.9375,-0.3671875
700,0.08203125,-0.9375,-0.34765625
701,0.07421875,-0.94921875,-0.37109375
702,0.07421875,-0.95703125,-0.3671875
703,0.07421875,-0.9609375,-0.375
704,0.06640625,-0.9765625,-0.37109375
705,0.07421875,-0.984375,-0.3828125
706,0.078125,-1.0,-0.37890625
707,0.06640625,-0.9921875,-0.36328125
708,0.07421875,-1.00390625,-0.37109375
709,0.07421875,-1.00390625,-0.37109375
710,0.0859375,-1.00390625,-0.375
711,0.09375,-1.01171875,-0.37109375
712,0.08984375,-1.015625,-0.3671875
713,0.09765625,-1.00390625,-0.3671875
714,0.10546875,-1.00390625,-0.36328125
715,0.10546875,-1.00390625,-0.35546875
716,0.1328125,-1.0078125,-0.37109375
717,0.1328125,-1.0,-0.35546875
718,0.140625,-0.9921875,-0.35546875
719,0.12890625,-0.99609375,-0.359375
720,0.09375,-1.00390625,-0.375
721,0.125,-0.99609375,-0.359375
722,0.12109375,-0.98828125,-0.328125
723,0.12890625,-1.0,-0.3515625
724,0.1328125,-0.9921875,-0.3515625
725,0.14453125,-1.00390625,-0.34375
726,0.14453125,-1.01171875,-0.34765625
727,0.16796875,-1.015625,-0.32421875
728,0.1484375,-1.01171875,-0.3125
729,0.1640625,-1.015625,-0.328125
730,0.15625,-1.0234375,-0.3203125
731,0.17578125,-0.984375,-0.34765625
732,0.1640625,-1.03125,-0.30078125
733,0.17578125,-1.02734375,-0.296875
734,0.1796875,-1.03125,-0.30859375
735,0.17578125,-1.015625,-0.3203125
736,0.17578125,-1.01953125,-0.2890625
737,0.1796875,-1.01171875,-0.30859375
738,0.171875,-1.0078125,-0.30078125
739,0.1640625,-1.0078125,-0.3203125
740,0.16796875,-1.00390625,-0.3125
741,0.1484375,-0.99609375,-0.296875
742,0.140625,-1.01171875,-0.30078125
743,0.1484375,-0.9921875,-0.3046875
744,0.15625,-0.97265625,-0.31640625
745,0.15625,-0.9609375,-0.3359375
746,0.16015625,-0.9453125,-0.34765625
747,0.17578125,-0.94140625,-0.38671875
748,0.18359375,-0.9375,-0.40234375
749,0.19921875,-0.953125,-0.4453125
750,0.203125,-0.96875,-0.4921875
751,0.1875,-0.9765625,-0.49609375
752,0.18359375,-1.01171875,-0.53515625
753,0.171875,-1.01953125,-0.56640625
754,0.16015625,-1.05078125,-0.61328125
755,0.1640625,-1.078125,-0.64453125
756,0.1875,-1.1015625,-0.6640625
757,0.20703125,-1.12890625,-0.6640625
758,0.22265625,-1.15234375,-0.6640625
759,0.22265625,-1.171875,-0.63671875
760,0.23046875,-1.1640625,-0.60546875
761,0.23046875,-1.15234375,-0.5859375
762,0.22265625,-1.1328125,-0.5625
763,0.2109375,-1.10546875,-0.56640625
764,0.19140625,-1.08984375,-0.54296875
765,0.17578125,-1.046875,-0.54296875
766,0.15625,-1.0234375,-0.55078125
767,0.140625,-1.0,-0.5625
768,0.1328125,-0.96484375,-0.53515625
769,0.1171875,-0.9296875,-0.546875
770,0.11328125,-0.8984375,-0.5390625
771,0.09765625,-0.85546875,-0.53515625
772,0.1171875,-0.84375,-0.5234375
773,0.10546875,-0.8125,-0.5078125
774,0.12109375,-0.78125,-0.50390625
775,0.140625,-0.77734375,-0.50390625
776,0.140625,-0.7578125,-0.5234375
777,0.15625,-0.75390625,-0.5
778,0.1875,-0.75390625,-0.53515625
779,0.17578125,-0.734375,-0.54296875
780,0.19140625,-0.73828125,-0.54296875
781,0.19140625,-0.75,-0.56640625
782,0.21484375,-0.76171875,-0.5625
783,0.21484375,-0.796875,-0.58203125
784,0.22265625,-0.828125,-0.57421875
785,0.234375,-0.87109375,-0.5703125
786,0.24609375,-0.90625,-0.5703125
787,0.25,-0.94140625,-0.5703125
788,0.23046875,-0.984375,-0.56640625
789,0.19921875,-1.00390625,-0.5625
790,0.15234375,-1.03515625,-0.58203125
791,0.10546875,-1.06640625,-0.578125
792,0.03125,-1.09375,-0.5859375
793,0.0,-1.09375,-0.609375
794,-0.02734375,-1.12109375,-0.6015625
795,-0.06640625,-1.125,-0.5859375
796,-0.12109375,-1.140625,-0.57421875
797,-0.15625,-1.140625,-0.58203125
798,-0.18359375,-1.16796875,-0.59765625
799,-0.18359375,-1.16796875,-0.57421875
800,-0.1953125,-1.16796875,-0.58984375
801,-0.1640625,-1.16796875,-0.5859375
802,-0.13671875,-1.1484375,-0.55859375
803,-0.08984375,-1.12109375,-0.5625
804,-0.06640625,-1.09765625,-0.57421875
805,-0.0390625,-1.05078125,-0.55859375
806,-0.01953125,-1.01171875,-0.57421875
807,-0.00390625,-0.99609375,-0.54296875
808,0.00390625,-0.96875,-0.5625
809,0.03125,-0.93359375,-0.55859375
810,0.0390625,-0.90625,-0.55078125
811,0.0546875,-0.890625,-0.55859375
812,0.0625,-0.875,-0.5390625
813,0.0546875,-0.87890625,-0.5390625
814,0.05859375,-0.8828125,-0.5078125
815,0.06640625,-0.90625,-0.50390625
816,0.0625,-0.90234375,-0.49609375
817,0.07421875,-0.9296875,-0.48046875
818,0.0859375,-0.94921875,-0.48828125
819,0.0703125,-0.96484375,-0.484375
820,0.08984375,-0.984375,-0.47265625
821,0.0859375,-0.99609375,-0.4453125
822,0.078125,-1.0,-0.47265625
823,0.09765625,-1.0234375,-0.484375
824,0.08203125,-1.02734375,-0.47265625
825,0.0859375,-1.02734375,-0.45703125
826,0.08984375,-1.0390625,-0.4453125
827,0.0859375,-1.03515625,-0.4453125
828,0.07421875,-1.03125,-0.44140625
829,0.0625,-1.0234375,-0.4453125
830,0.04296875,-1.015625,-0.45703125
831,0.0390625,-1.0,-0.45703125
832,0.01171875,-0.98046875,-0.4609375
833,0.0,-0.96875,-0.484375
834,-0.01953125,-0.953125,-0.45703125
835,-0.01171875,-0.94921875,-0.46875
836,-0.02734375,-0.95703125,-0.484375
837,-0.04296875,-0.93359375,-0.46875
838,-0.04296875,-0.94140625,-0.46484375
839,-0.04296875,-0.9375,-0.4453125
840,-0.046875,-0.95703125,-0.4609375
841,-0.03515625,-0.96875,-0.44921875
842,-0.02734375,-0.9765625,-0.44921875
843,-0.02734375,-0.9921875,-0.43359375
844,-0.00390625,-0.99609375,-0.4296875
845,-0.015625,-1.00390625,-0.43359375
846,-0.015625,-1.0078125,-0.41796875
847,-0.03125,-1.0078125,-0.43359375
848,-0.0390625,-1.01171875,-0.42578125
849,-0.04296875,-1.0078125,-0.421875
850,-0.05078125,-1.01953125,-0.4296875
851,-0.0625,-1.02734375,-0.421875
852,-0.078125,-1.02734375,-0.42578125
853,-0.0859375,-1.0234375,-0.42578125
854,-0.11328125,-1.015625,-0.41796875
855,-0.12890625,-1.01953125,-0.4140625
856,-0.13671875,-1.0,-0.4140625
857,-0.13671875,-0.9921875,-0.40234375
858,-0.15234375,-0.9765625,-0.40625
859,-0.1640625,-0.97265625,-0.41015625
860,-0.16796875,-0.94921875,-0.39453125
861,-0.15625,-0.9375,-0.40234375
862,-0.15625,-0.9296875,-0.390625
863,-0.15625,-0.91796875,-0.375
864,-0.15234375,-0.8984375,-0.375
865,-0.1640625,-0.89453125,-0.37109375
866,-0.16015625,-0.8984375,-0.37109375
867,-0.171875,-0.88671875,-0.36328125
868,-0.15625,-0.88671875,-0.38671875
869,-0.12890625,-0.890625,-0.37890625
870,-0.1640625,-0.8671875,-0.37109375
871,-0.18359375,-0.890625,-0.37890625
872,-0.19140625,-0.87890625,-0.37109375
873,-0.1953125,-0.87109375,-0.375
874,-0.2109375,-0.875,-0.3828125
875,-0.19921875,-0.89453125,-0.3671875
876,-0.21484375,-0.890625,-0.33984375
877,-0.203125,-0.890625,-0.3359375
878,-0.21484375,-0.90234375,-0.3203125
879,-0.20703125,-0.90234375,-0.34765625
880,-0.20703125,-0.9140625,-0.32421875
881,-0.20703125,-0.90625,-0.33203125
882,-0.20703125,-0.921875,-0.3203125
883,-0.2109375,-0.91796875,-0.32421875
884,-0.21875,-0.91796875,-0.328125
885,-0.22265625,-0.9140625,-0.3125
886,-0.2109375,-0.92578125,-0.3046875
887,-0.20703125,-0.9296875,-0.30078125
888,-0.21875,-0.92578125,-0.296875
889,-0.21875,-0.91796875,-0.296875
890,-0.19921875,-0.9140625,-0.3125
891,-0.21875,-0.90625,-0.31640625
892,-0.2109375,-0.8984375,-0.3203125
893,-0.1875,-0.90625,-0.33203125
894,-0.19140625,-0.90234375,-0.3515625
895,-0.19921875,-0.8984375,-0.34375
896,-0.1875,-0.89453125,-0.3359375
897,-0.203125,-0.89453125,-0.33203125
898,-0.18359375,-0.91015625,-0.33984375
899,-0.19921875,-0.90234375,-0.3515625
900,-0.1875,-0.921875,-0.36328125
901,-0.18359375,-0.93359375,-0.37109375
902,-0.1796875,-0.94140625,-0.35546875
903,-0.1796875,-0.94921875,-0.37109375
904,-0.18359375,-0.94921875,-0.34375
905,-0.1875,-0.94921875,-0.3515625
906,-0.1953125,-0.9453125,-0.3515625
907,-0.20703125,-0.93359375,-0.3515625
908,-0.203125,-0.921875,-0.3515625
909,-0.2109375,-0.91015625,-0.3359375
910,-0.2109375,-0.91015625,-0.32421875
911,-0.2109375,-0.91015625,-0.33203125
912,-0.23046875,-0.90234375,-0.33203125
913,-0.2265625,-0.890625,-0.3359375
914,-0.23046875,-0.90625,-0.34765625
915,-0.2109375,-0.90625,-0.34765625
916,-0.23046875,-0.890625,-0.35546875
917,-0.2265625,-0.90234375,-0.34375
918,-0.22265625,-0.90625,-0.3515625
919,-0.22265625,-0.90234375,-0.35546875
920,-0.22265625,-0.8984375,-0.34375
921,-0.2265625,-0.90234375,-0.359375
922,-0.23046875,-0.8984375,-0.36328125
923,-0.23828125,-0.90625,-0.375
924,-0.2421875,-0.91015625,-0.41015625
925,-0.2578125,-0.8984375,-0.37890625
926,-0.26171875,-0.90234375,-0.40625
927,-0.26953125,-0.90625,-0.4140625
928,-0.2578125,-0.9140625,-0.421875
929,-0.27734375,-0.921875,-0.40625
930,-0.2734375,-0.90234375,-0.41796875
931,-0.26953125,-0.91015625,-0.40234375
932,-0.28515625,-0.8984375,-0.40234375
933,-0.27734375,-0.8984375,-0.41015625
934,-0.2890625,-0.890625,-0.3984375
935,-0.28515625,-0.890625,-0.4140625
936,-0.296875,-0.86328125,-0.42578125
937,-0.3125,-0.8515625,-0.44921875
938,-0.3125,-0.83984375,-0.4296875
939,-0.31640625,-0.84375,-0.44921875
940,-0.3203125,-0.83203125,-0.45703125
941,-0.31640625,-0.83203125,-0.46875
942,-0.3125,-0.8515625,-0.47265625
943,-0.296875,-0.87109375,-0.4609375
944,-0.30078125,-0.875,-0.46484375
945,-0.32421875,-0.87109375,-0.44140625
946,-0.32421875,-0.88671875,-0.4609375
947,-0.33984375,-0.890625,-0.47265625
948,-0.3203125,-0.8984375,-0.48828125
949,-0.3203125,-0.890625,-0.5
950,-0.34765625,-0.88671875,-0.4921875
951,-0.3359375,-0.890625,-0.51171875
952,-0.34765625,-0.88671875,-0.52734375
953,-0.33984375,-0.86328125,-0.54296875
954,-0.3359375,-0.8671875,-0.57421875
955,-0.328125,-0.86328125,-0.59765625
956,-0.31640625,-0.8515625,-0.609375
957,-0.296875,-0.875,-0.63671875
958,-0.26171875,-0.875,-0.640625
959,-0.2578125,-0.875,-0.61328125
960,-0.19140625,-0.92578125,-0.62890625
961,-0.1484375,-0.93359375,-0.56640625
962,-0.0859375,-0.98046875,-0.578125
963,-0.06640625,-0.9921875,-0.56640625
964,-0.0546875,-0.98828125,-0.54296875
965,-0.02734375,-1.0,-0.56640625
966,-0.02734375,-0.98046875,-0.5625
967,-0.03125,-0.9453125,-0.5625
968,-0.03515625,-0.9140625,-0.5859375
969,-0.05078125,-0.87890625,-0.59375
970,-0.1015625,-0.89453125,-0.64453125
971,-0.0859375,-0.80859375,-0.6015625
972,-0.109375,-0.75390625,-0.5859375
973,-0.140625,-0.74609375,-0.60546875
974,-0.14453125,-0.71875,-0.59765625
975,-0.16796875,-0.70703125,-0.59765625
976,-0.15625,-0.703125,-0.5859375
977,-0.17578125,-0.6953125,-0.5703125
978,-0.1640625,-0.69921875,-0.5703125
979,-0.15234375,-0.7109375,-0.5625
980,-0.15234375,-0.70703125,-0.578125
981,-0.13671875,-0.75,-0.5625
982,-0.16015625,-0.7265625,-0.5859375
983,-0.16015625,-0.71875,-0.59375
984,-0.17578125,-0.703125,-0.60546875
985,-0.1796875,-0.70703125,-0.60546875
986,-0.1875,-0.7109375,-0.61328125
987,-0.20703125,-0.7109375,-0.63671875
988,-0.20703125,-0.71875,-0.64453125
989,-0.22265625,-0.734375,-0.66015625
990,-0.2265625,-0.74609375,-0.66796875
991,-0.2109375,-0.7578125,-0.6796875
992,-0.1953125,-0.78515625,-0.6796875
993,-0.1875,-0.81640625,-0.703125
994,-0.1875,-0.83203125,-0.72265625
995,-0.17578125,-0.8515625,-0.7265625
996,-0.171875,-0.87890625,-0.71484375
997,-0.16796875,-0.890625,-0.72265625
998,-0.15625,-0.91015625,-0.70703125
999,-0.13671875,-0.90234375,-0.67578125
1000,-0.14453125,-0.8984375,-0.66015625
1001,-0.13671875,-0.8984375,-0.63671875
1002,-0.14453125,-0.87890625,-0.625
1003,-0.12890625,-0.859375,-0.61328125
1004,-0.1328125,-0.8359375,-0.59375
1005,-0.12890625,-0.8125,-0.609375
1006,-0.140625,-0.79296875,-0.62109375
1007,-0.1484375,-0.765625,-0.6328125
1008,-0.17578125,-0.75,-0.64453125
1009,-0.18359375,-0.734375,-0.64453125
1010,-0.1953125,-0.72265625,-0.671875
1011,-0.2109375,-0.70703125,-0.6796875
1012,-0.2109375,-0.69921875,-0.703125
1013,-0.1953125,-0.6953125,-0.7109375
1014,-0.1953125,-0.68359375,-0.71875
1015,-0.1796875,-0.703125,-0.7109375
1016,-0.16796875,-0.6953125,-0.71875
1017,-0.15625,-0.68359375,-0.734375
1018,-0.16796875,-0.68359375,-0.73828125
1019,-0.1640625,-0.66796875,-0.73046875
1020,-0.16015625,-0.6875,-0.70703125
1021,-0.16796875,-0.68359375,-0.7109375
1022,-0.1796875,-0.7109375,-0.703125
1023,-0.1640625,-0.71875,-0.69140625
1024,-0.16015625,-0.73046875,-0.6953125
1025,-0.16015625,-0.73828125,-0.6953125
1026,-0.17578125,-0.7421875,-0.69921875
1027,-0.171875,-0.74609375,-0.734375
1028,-0.19140625,-0.734375,-0.73828125
1029,-0.20703125,-0.71875,-0.74609375
1030,-0.2109375,-0.7109375,-0.76171875
1031,-0.23046875,-0.69140625,-0.75390625
1032,-0.234375,-0.6953125,-0.7578125
1033,-0.25,-0.6875,-0.75390625
1034,-0.2578125,-0.6953125,-0.76953125
1035,-0.24609375,-0.71875,-0.76953125
1036,-0.2578125,-0.69921875,-0.78125
1037,-0.26953125,-0.69140625,-0.75
1038,-0.26171875,-0.71875,-0.75390625
1039,-0.28515625,-0.72265625,-0.76171875
1040,-0.3125,-0.7109375,-0.75
1041,-0.296875,-0.7265625,-0.75
1042,-0.33203125,-0.71484375,-0.75
1043,-0.35546875,-0.71875,-0.7578125
1044,-0.37109375,-0.71484375,-0.74609375
1045,-0.41015625,-0.7109375,-0.76171875
1046,-0.39453125,-0.70703125,-0.7734375
1047,-0.40625,-0.6953125,-0.76953125
1048,-0.421875,-0.7109375,-0.78125
1049,-0.41015625,-0.69140625,-0.796875
1050,-0.40625,-0.71484375,-0.8046875
1051,-0.3984375,-0.7109375,-0.8046875
1052,-0.37890625,-0.7109375,-0.8046875
1053,-0.359375,-0.72265625,-0.8046875
1054,-0.3203125,-0.72265625,-0.8125
1055,-0.29296875,-0.71875,-0.828125
1056,-0.27734375,-0.7109375,-0.8359375
1057,-0.29296875,-0.7109375,-0.83984375
1058,-0.2734375,-0.69921875,-0.828125
1059,-0.2578125,-0.703125,-0.86328125
1060,-0.2578125,-0.67578125,-0.87109375
1061,-0.26953125,-0.68359375,-0.87109375
1062,-0.28515625,-0.671875,-0.8828125
1063,-0.2890625,-0.671875,-0.87890625
1064,-0.3359375,-0.6640625,-0.88671875
1065,-0.3046875,-0.66796875,-0.90625
1066,-0.3359375,-0.671875,-0.890625
1067,-0.35546875,-0.65234375,-0.8828125
1068,-0.37109375,-0.65234375,-0.89453125
1069,-0.3671875,-0.671875,-0.890625
1070,-0.36328125,-0.66015625,-0.89453125
1071,-0.36328125,-0.66015625,-0.87890625
1072,-0.359375,-0.6640625,-0.87890625
1073,-0.3671875,-0.65625,-0.8671875
1074,-0.359375,-0.67578125,-0.8671875
1075,-0.375,-0.66796875,-0.87890625
1076,-0.37890625,-0.66015625,-0.8828125
1077,-0.40234375,-0.6640625,-0.88671875
1078,-0.3828125,-0.66796875,-0.86328125
1079,-0.40234375,-0.65625,-0.87109375
1080,-0.37890625,-0.671875,-0.875
1081,-0.36328125,-0.6796875,-0.859375
1082,-0.390625,-0.6796875,-0.86328125
1083,-0.36328125,-0.67578125,-0.8671875
1084,-0.359375,-0.67578125,-0.88671875
1085,-0.375,-0.65234375,-0.87890625
1086,-0.375,-0.66015625,-0.890625
1087,-0.37109375,-0.6484375,-0.890625
1088,-0.36328125,-0.62890625,-0.91015625
1089,-0.3671875,-0.625,-0.90234375
1090,-0.35546875,-0.62890625,-0.91796875
1091,-0.36328125,-0.6328125,-0.92578125
1092,-0.359375,-0.6328125,-0.9453125
1093,-0.359375,-0.62890625,-0.9609375
1094,-0.3203125,-0.640625,-0.96484375
1095,-0.28515625,-0.6484375,-0.97265625
1096,-0.28125,-0.67578125,-0.9609375
1097,-0.26171875,-0.68359375,-0.97265625
1098,-0.25,-0.69140625,-0.96484375
1099,-0.2421875,-0.69921875,-0.95703125
1100,-0.234375,-0.69140625,-0.95703125
1101,-0.2265625,-0.69140625,-0.94921875
1102,-0.234375,-0.6953125,-0.9375
1103,-0.22265625,-0.69140625,-0.93359375
1104,-0.22265625,-0.68359375,-0.91796875
1105,-0.2421875,-0.67578125,-0.9296875
1106,-0.23046875,-0.6953125,-0.90234375
1107,-0.22265625,-0.69921875,-0.8828125
1108,-0.2265625,-0.6875,-0.89453125
1109,-0.23046875,-0.68359375,-0.91796875
1110,-0.23046875,-0.6796875,-0.9296875
1111,-0.22265625,-0.65625,-0.9296875
1112,-0.23046875,-0.65625,-0.94921875
1113,-0.23046875,-0.6328125,-0.9453125
1114,-0.22265625,-0.62890625,-0.94140625
1115,-0.21875,-0.6328125,-0.9453125
1116,-0.2109375,-0.63671875,-0.93359375
1117,-0.2109375,-0.640625,-0.93359375
1118,-0.2109375,-0.65625,-0.94921875
1119,-0.20703125,-0.65625,-0.921875
1120,-0.19921875,-0.66015625,-0.92578125
1121,-0.22265625,-0.671875,-0.90625
1122,-0.20703125,-0.67578125,-0.890625
1123,-0.1953125,-0.69921875,-0.87109375
1124,-0.203125,-0.70703125,-0.8359375
1125,-0.19140625,-0.7109375,-0.828125
1126,-0.19140625,-0.70703125,-0.83984375
1127,-0.16796875,-0.71484375,-0.828125
1128,-0.17578125,-0.703125,-0.828125
1129,-0.18359375,-0.68359375,-0.8359375
1130,-0.16015625,-0.67578125,-0.84765625
1131,-0.1796875,-0.6640625,-0.84765625
1132,-0.1796875,-0.63671875,-0.859375
1133,-0.19921875,-0.625,-0.83984375
1134,-0.203125,-0.62890625,-0.84765625
1135,-0.20703125,-0.63671875,-0.85546875
1136,-0.21484375,-0.6328125,-0.84765625
1137,-0.21484375,-0.66796875,-0.83984375
1138,-0.23828125,-0.67578125,-0.83203125
1139,-0.234375,-0.69140625,-0.84765625
1140,-0.234375,-0.6953125,-0.84375
1141,-0.23046875,-0.70703125,-0.84375
1142,-0.23046875,-0.7265625,-0.84375
1143,-0.2265625,-0.71875,-0.84375
1144,-0.21484375,-0.72265625,-0.84375
1145,-0.21484375,-0.7109375,-0.84375
1146,-0.2109375,-0.70703125,-0.84375
1147,-0.203125,-0.703125,-0.8203125
1148,-0.19921875,-0.70703125,-0.8203125
1149,-0.19921875,-0.69140625,-0.83984375
1150,-0.1875,-0.703125,-0.83203125
1151,-0.17578125,-0.70703125,-0.82421875
1152,-0.19140625,-0.70703125,-0.8203125
1153,-0.16796875,-0.72265625,-0.81640625
1154,-0.17578125,-0.71875,-0.80859375
1155,-0.17578125,-0.734375,-0.79296875
1156,-0.18359375,-0.74609375,-0.8125
1157,-0.171875,-0.75,-0.80078125
1158,-0.17578125,-0.75390625,-0.78125
1159,-0.16796875,-0.765625,-0.7890625
1160,-0.16015625,-0.77734375,-0.765625
1161,-0.1640625,-0.7890625,-0.765625
1162,-0.1640625,-0.8046875,-0.74609375
1163,-0.16015625,-0.80859375,-0.74609375
1164,-0.14453125,-0.828125,-0.73828125
1165,-0.13671875,-0.828125,-0.7421875
1166,-0.12890625,-0.828125,-0.74609375
1167,-0.125,-0.84375,-0.7421875
1168,-0.1171875,-0.8359375,-0.734375
1169,-0.11328125,-0.85546875,-0.734375
1170,-0.11328125,-0.859375,-0.71875
1171,-0.08984375,-0.875,-0.7109375
1172,-0.08203125,-0.8828125,-0.70703125
1173,-0.07421875,-0.9140625,-0.70703125
1174,-0.0546875,-0.9453125,-0.70703125
1175,-0.06640625,-0.97265625,-0.69921875
1176,-0.06640625,-0.98828125,-0.71875
1177,-0.0625,-1.01953125,-0.7265625
1178,-0.0703125,-1.0390625,-0.7109375
1179,-0.06640625,-1.0390625,-0.72265625
1180,-0.078125,-1.0625,-0.734375
1181,-0.09375,-1.05859375,-0.7421875
1182,-0.109375,-1.0703125,-0.74609375
1183,-0.10546875,-1.08203125,-0.734375
1184,-0.140625,-1.07421875,-0.7421875
1185,-0.140625,-1.078125,-0.73046875
1186,-0.12890625,-1.08203125,-0.7265625
1187,-0.125,-1.09375,-0.7109375
1188,-0.109375,-1.10546875,-0.6953125
1189,-0.11328125,-1.10546875,-0.6953125
1190,-0.08984375,-1.12109375,-0.6796875
1191,-0.0859375,-1.10546875,-0.68359375
1192,-0.0859375,-1.109375,-0.65234375
1193,-0.0703125,-1.10546875,-0.625
1194,-0.05859375,-1.09375,-0.63671875
1195,-0.05859375,-1.08984375,-0.61328125
1196,-0.03515625,-1.078125,-0.6015625
1197,-0.015625,-1.07421875,-0.58203125
1198,-0.00390625,-1.0859375,-0.55859375
1199,-0.01171875,-1.06640625,-0.57421875
1200,0.0,-1.0625,-0.55078125
1201,-0.0078125,-1.05078125,-0.51171875
1202,0.0,-1.0390625,-0.5390625
1203,0.01171875,-1.03515625,-0.5078125
1204,0.01953125,-1.02734375,-0.51171875
1205,0.01953125,-1.01171875,-0.484375
1206,0.015625,-1.0,-0.4765625
1207,0.03125,-0.9765625,-0.4921875
1208,0.04296875,-0.96484375,-0.48046875
1209,0.01953125,-0.9765625,-0.421875
1210,0.03125,-0.94140625,-0.4296875
1211,0.03125,-0.92578125,-0.43359375
1212,0.04296875,-0.91796875,-0.421875
1213,0.06640625,-0.90234375,-0.40625
1214,0.046875,-0.89453125,-0.37890625
1215,0.0859375,-0.890625,-0.390625
1216,0.07421875,-0.89453125,-0.375
1217,0.0546875,-0.890625,-0.36328125
1218,0.06640625,-0.90234375,-0.37890625
1219,0.0546875,-0.91015625,-0.375
1220,0.08984375,-0.90625,-0.41015625
1221,0.08984375,-0.90625,-0.390625
1222,0.08984375,-0.90625,-0.3984375
1223,0.10546875,-0.890625,-0.390625
1224,0.11328125,-0.88671875,-0.38671875
1225,0.109375,-0.8828125,-0.3828125
1226,0.1171875,-0.8828125,-0.3828125
1227,0.11328125,-0.89453125,-0.35546875
1228,0.1171875,-0.90234375,-0.36328125
1229,0.1171875,-0.91015625,-0.36328125
1230,0.12109375,-0.921875,-0.34765625
1231,0.12890625,-0.91015625,-0.37109375
1232,0.1328125,-0.93359375,-0.3359375
1233,0.12109375,-0.9375,-0.3125
1234,0.109375,-0.95703125,-0.296875
1235,0.1015625,-0.94921875,-0.31640625
1236,0.1171875,-0.984375,-0.31640625
1237,0.12109375,-0.99609375,-0.3125
1238,0.109375,-1.0,-0.32421875
1239,0.109375,-1.00390625,-0.328125
1240,0.125,-1.01953125,-0.3359375
1241,0.109375,-1.03125,-0.3359375
1242,0.1171875,-1.046875,-0.328125
1243,0.109375,-1.03125,-0.328125
1244,0.1171875,-1.02734375,-0.31640625
1245,0.1171875,-1.03125,-0.31640625
1246,0.1171875,-1.02734375,-0.29296875
1247,0.11328125,-1.0390625,-0.26953125
1248,0.140625,-1.05078125,-0.28515625
1249,0.140625,-1.0625,-0.2578125
1250,0.1328125,-1.06640625,-0.26171875
1251,0.12890625,-1.08203125,-0.2578125
1252,0.12890625,-1.07421875,-0.2421875
1253,0.125,-1.08984375,-0.24609375
1254,0.12109375,-1.08203125,-0.25
1255,0.12890625,-1.08203125,-0.25
1256,0.10546875,-1.078125,-0.2421875
1257,0.12109375,-1.06640625,-0.2421875
1258,0.12109375,-1.05859375,-0.22265625
1259,0.125,-1.05859375,-0.22265625
1260,0.1328125,-1.0546875,-0.2265625
1261,0.1171875,-1.04296875,-0.20703125
1262,0.125,-1.03515625,-0.20703125
1263,0.12109375,-1.0234375,-0.1953125
1264,0.109375,-1.0234375,-0.1875
1265,0.12890625,-1.0078125,-0.18359375
1266,0.12890625,-1.0,-0.18359375
1267,0.12890625,-1.00390625,-0.18359375
1268,0.13671875,-0.984375,-0.1796875
1269,0.13671875,-0.98046875,-0.15625
1270,0.1328125,-0.984375,-0.13671875
1271,0.1171875,-0.98828125,-0.12890625
1272,0.1328125,-0.984375,-0.12890625
1273,0.12890625,-0.98046875,-0.125
1274,0.1328125,-0.9921875,-0.09375
1275,0.13671875,-0.98828125,-0.078125
1276,0.140625,-0.984375,-0.09375
1277,0.1328125,-0.98828125,-0.06640625
1278,0.140625,-0.98828125,-0.0546875
1279,0.1328125,-0.9921875,-0.06640625
1280,0.12890625,-0.99609375,-0.0703125
1281,0.1171875,-0.98828125,-0.08984375
1282,0.109375,-0.98828125,-0.12109375
1283,0.125,-0.95703125,-0.1171875
1284,0.140625,-0.97265625,-0.1015625
1285,0.1171875,-0.97265625,-0.09765625
1286,0.1328125,-0.9765625,-0.07421875
1287,0.12109375,-0.98046875,-0.09375
1288,0.125,-0.9765625,-0.0859375
1289,0.12109375,-0.984375,-0.08984375
1290,0.12109375,-0.98828125,-0.078125
1291,0.125,-1.0,-0.08984375
1292,0.11328125,-0.9921875,-0.07421875
1293,0.11328125,-1.015625,-0.08203125
1294,0.109375,-1.00390625,-0.078125
1295,0.12109375,-1.0078125,-0.078125
1296,0.09765625,-1.01171875,-0.0703125
1297,0.11328125,-1.01953125,-0.08984375
1298,0.11328125,-1.01953125,-0.078125
1299,0.1328125,-1.03125,-0.09765625
1300,0.12890625,-1.03125,-0.09765625
1301,0.12890625,-1.01171875,-0.09375
1302,0.16015625,-1.0390625,-0.08984375
1303,0.1484375,-1.02734375,-0.1015625
1304,0.15625,-1.03125,-0.109375
1305,0.15625,-1.015625,-0.1015625
1306,0.1484375,-1.01171875,-0.1015625
1307,0.15234375,-1.00390625,-0.09765625
1308,0.16796875,-1.00390625,-0.1171875
1309,0.16015625,-1.0,-0.12109375
1310,0.16015625,-0.9921875,-0.1171875
1311,0.16796875,-1.00390625,-0.1171875
1312,0.16796875,-1.0078125,-0.09765625
1313,0.1875,-1.00390625,-0.1015625
1314,0.18359375,-1.01171875,-0.109375
1315,0.17578125,-1.03125,-0.078125
1316,0.19140625,-1.02734375,-0.08203125
1317,0.1875,-1.03125,-0.0703125
1318,0.18359375,-1.0234375,-0.0859375
1319,0.1953125,-1.03125,-0.08203125
1320,0.19921875,-1.0234375,-0.078125
1321,0.2109375,-1.0234375,-0.0703125
1322,0.21484375,-1.01171875,-0.08203125
1323,0.1953125,-1.00390625,-0.05859375
1324,0.2109375,-1.0,-0.0625
1325,0.20703125,-1.0,-0.0703125
1326,0.2109375,-0.99609375,-0.06640625
1327,0.2109375,-1.0,-0.0625
1328,0.21484375,-1.0,-0.0625
1329,0.21484375,-1.0,-0.0625
1330,0.21875,-1.00390625,-0.046875
1331,0.20703125,-1.01171875,-0.046875
1332,0.21484375,-1.0078125,-0.0625
1333,0.21484375,-1.015625,-0.06640625
1334,0.21875,-1.015625,-0.0546875
1335,0.2265625,-1.015625,-0.046875
1336,0.234375,-1.01171875,-0.0390625
1337,0.234375,-1.00390625,-0.01953125
1338,0.23046875,-1.0,-0.03125
1339,0.234375,-1.0,-0.01953125
1340,0.22265625,-1.0,-0.03125
1341,0.21484375,-0.9921875,-0.01953125
1342,0.234375,-0.99609375,-0.0234375
1343,0.2421875,-1.0,-0.03125
1344,0.25,-1.00390625,-0.0234375
1345,0.26171875,-0.99609375,0.0
1346,0.265625,-1.00390625,-0.0078125
1347,0.2734375,-1.01171875,-0.01171875
1348,0.30078125,-1.0234375,-0.00390625
1349,0.30859375,-1.0234375,-0.01171875
1350,0.328125,-1.03125,-0.00390625
1351,0.31640625,-1.0078125,-0.00390625
1352,0.3359375,-1.01171875,0.0
1353,0.3359375,-1.0,0.00390625
1354,0.34375,-1.0,0.0078125
1355,0.33203125,-1.00390625,0.015625
1356,0.33984375,-1.0,0.015625
1357,0.33984375,-0.99609375,0.0234375
1358,0.34765625,-0.98828125,0.0234375
1359,0.33203125,-0.984375,0.015625
1360,0.33203125,-0.98046875,0.02734375
1361,0.3359375,-0.97265625,0.03125
1362,0.3203125,-0.96875,0.02734375
1363,0.3125,-0.97265625,0.03125
1364,0.3046875,-0.9765625,0.0546875
1365,0.2890625,-0.95703125,0.046875
1366,0.28515625,-0.9765625,0.046875
1367,0.296875,-0.984375,0.0546875
1368,0.30078125,-0.97265625,0.046875
1369,0.3046875,-0.96875,0.046875
1370,0.29296875,-0.96484375,0.046875
1371,0.3125,-0.96875,0.04296875
1372,0.328125,-0.96484375,0.04296875
1373,0.34375,-0.9609375,0.046875
1374,0.34765625,-0.96875,0.05078125
1375,0.3671875,-0.97265625,0.0625
1376,0.3671875,-0.9609375,0.05859375
1377,0.375,-0.96484375,0.04296875
1378,0.40234375,-0.9765625,0.05078125
1379,0.40234375,-0.9765625,0.03515625
1380,0.40625,-0.98046875,0.05859375
1381,0.40625,-0.984375,0.05859375
1382,0.42578125,-0.984375,0.0625
1383,0.41015625,-0.96875,0.04296875
1384,0.390625,-0.953125,0.04296875
1385,0.41796875,-0.9765625,0.03125
1386,0.40625,-0.94921875,0.0390625
1387,0.41796875,-0.94921875,0.0390625
1388,0.41015625,-0.9453125,0.046875
1389,0.42578125,-0.9375,0.046875
1390,0.4140625,-0.9296875,0.0234375
1391,0.42578125,-0.9296875,0.0234375
1392,0.43359375,-0.92578125,0.02734375
1393,0.44921875,-0.90625,0.0390625
1394,0.4375,-0.91796875,0.046875
1395,0.44921875,-0.9140625,0.0390625
1396,0.44921875,-0.92578125,0.0390625
1397,0.45703125,-0.921875,0.04296875
1398,0.45703125,-0.93359375,0.05078125
1399,0.4453125,-0.9375,0.05078125
1400,0.4453125,-0.94921875,0.05078125
1401,0.4453125,-0.94921875,0.046875
1402,0.42578125,-0.92578125,0.0234375
1403,0.43359375,-0.921875,0.0390625
1404,0.4296875,-0.91796875,0.046875
1405,0.43359375,-0.9140625,0.0234375
1406,0.421875,-0.8984375,0.03125
1407,0.453125,-0.9140625,0.046875
1408,0.44921875,-0.91015625,0.03515625
1409,0.4453125,-0.91796875,0.04296875
1410,0.4375,-0.9296875,0.03125
1411,0.421875,-0.92578125,0.02734375
1412,0.41015625,-0.93359375,0.0234375
1413,0.42578125,-0.9296875,0.03125
1414,0.40234375,-0.921875,0.03125
1415,0.4140625,-0.921875,0.0234375
1416,0.41796875,-0.93359375,0.0390625
1417,0.43359375,-0.9453125,0.0
1418,0.45703125,-0.9453125,0.00390625
1419,0.48046875,-0.94921875,0.00390625
1420,0.49609375,-0.96484375,0.0
1421,0.48046875,-0.97265625,0.00390625
1422,0.48828125,-0.96484375,0.0078125
1423,0.484375,-0.9765625,0.03515625
1424,0.484375,-0.984375,0.05078125
1425,0.453125,-0.96875,0.05078125
1426,0.44140625,-0.96484375,0.04296875
1427,0.41015625,-0.953125,0.06640625
1428,0.3828125,-0.90234375,0.0703125
1429,0.3515625,-0.87890625,0.0390625
1430,0.33203125,-0.84765625,0.0390625
1431,0.31640625,-0.8359375,0.01171875
1432,0.328125,-0.84375,-0.0078125
1433,0.3203125,-0.84375,-0.03515625
1434,0.3203125,-0.8671875,-0.07421875
1435,0.34375,-0.921875,-0.07421875
1436,0.34375,-0.94921875,-0.0859375
1437,0.33984375,-0.9765625,-0.078125
1438,0.34765625,-0.9921875,-0.078125
1439,0.33984375,-1.00390625,-0.0859375
1440,0.3515625,-1.0234375,-0.10546875
1441,0.3671875,-1.0078125,-0.078125
1442,0.3671875,-1.00390625,-0.1015625
1443,0.390625,-1.0234375,-0.08984375
1444,0.40625,-1.0078125,-0.07421875
1445,0.41796875,-1.0,-0.07421875
1446,0.42578125,-1.0078125,-0.0703125
1447,0.42578125,-1.0,-0.06640625
1448,0.44140625,-1.00390625,-0.046875
1449,0.4453125,-1.0,-0.0625
1450,0.4375,-1.00390625,-0.03515625
1451,0.43359375,-1.0,-0.03515625
1452,0.4375,-0.9921875,-0.03515625
1453,0.4296875,-0.9921875,-0.015625
1454,0.4296875,-0.97265625,-0.01171875
1455,0.41796875,-0.97265625,-0.01171875
1456,0.4296875,-0.96484375,-0.01953125
1457,0.41796875,-0.9609375,-0.01953125
1458,0.41015625,-0.95703125,-0.0234375
1459,0.453125,-0.890625,-0.05859375
1460,0.41015625,-0.95703125,0.00390625
1461,0.3828125,-0.953125,-0.02734375
1462,0.3828125,-0.9453125,-0.015625
1463,0.3828125,-0.94140625,-0.01171875
1464,0.3828125,-0.94921875,-0.03515625
1465,0.375,-0.9453125,-0.01953125
1466,0.36328125,-0.95703125,-0.01171875
1467,0.35546875,-0.94921875,0.0
1468,0.34765625,-0.9609375,-0.0078125
1469,0.36328125,-0.96484375,-0.00390625
1470,0.35546875,-0.9609375,-0.00390625
1471,0.34765625,-0.98046875,0.015625
1472,0.34765625,-0.99609375,0.01171875
1473,0.32421875,-0.98828125,0.046875
1474,0.3203125,-0.98046875,0.04296875
1475,0.3359375,-0.9921875,0.0625
1476,0.32421875,-0.98046875,0.046875
1477,0.30859375,-0.9765625,0.0546875
1478,0.3125,-0.9765625,0.05859375
1479,0.30078125,-0.96484375,0.0390625
1480,0.3125,-0.9375,0.0390625
1481,0.30078125,-0.9375,0.02734375
1482,0.2890625,-0.9296875,0.02734375
1483,0.2890625,-0.93359375,0.01171875
1484,0.28125,-0.92578125,0.0078125
1485,0.2578125,-0.93359375,0.01171875
1486,0.25390625,-0.94140625,0.00390625
1487,0.25,-0.94921875,0.0078125
1488,0.25390625,-0.95703125,0.0078125
1489,0.25,-0.9609375,0.0
1490,0.25,-0.98046875,0.01171875
1491,0.25390625,-0.9765625,0.00390625
1492,0.25390625,-0.97265625,-0.00390625
1493,0.26171875,-0.984375,-0.0234375
1494,0.28125,-0.96875,-0.015625
1495,0.2890625,-0.96875,-0.04296875
1496,0.3046875,-0.9765625,-0.03125
1497,0.30078125,-0.984375,-0.03515625
1498,0.30078125,-0.99609375,-0.01171875
1499,0.31640625,-1.0,-0.015625
1500,0.3046875,-0.9921875,-0.01953125
1501,0.3046875,-0.9921875,-0.03125
1502,0.30078125,-1.0,-0.01953125
1503,0.30078125,-0.9921875,-0.0234375
1504,0.30078125,-1.0,-0.015625
1505,0.30078125,-0.99609375,-0.03515625
1506,0.2890625,-1.0,-0.03125
1507,0.27734375,-1.00390625,-0.04296875
1508,0.27734375,-1.01171875,-0.046875
1509,0.28125,-1.0078125,-0.06640625
1510,0.28515625,-1.0234375,-0.078125
1511,0.2890625,-1.03125,-0.05859375
1512,0.28515625,-1.02734375,-0.0625
1513,0.27734375,-1.01953125,-0.0625
1514,0.2734375,-1.0234375,-0.0703125
1515,0.27734375,-1.015625,-0.0625
1516,0.2734375,-1.0,-0.0703125
1517,0.28125,-1.00390625,-0.0625
1518,0.2734375,-1.0,-0.0625
1519,0.2734375,-1.00390625,-0.078125
1520,0.26953125,-1.0078125,-0.06640625
1521,0.27734375,-1.00390625,-0.06640625
1522,0.2578125,-1.0078125,-0.0703125
1523,0.29296875,-1.015625,-0.05859375
1524,0.27734375,-1.01953125,-0.078125
1525,0.27734375,-1.0234375,-0.05078125
1526,0.26953125,-1.0234375,-0.0546875
1527,0.26953125,-1.01953125,-0.0390625
1528,0.26953125,-1.0390625,-0.05078125
1529,0.2578125,-1.03125,-0.05078125
1530,0.265625,-1.01953125,-0.046875
1531,0.25390625,-1.0078125,-0.05078125
1532,0.2578125,-1.0078125,-0.046875
1533,0.2578125,-1.00390625,-0.04296875
1534,0.23828125,-0.98046875,-0.05078125
1535,0.23828125,-0.9921875,-0.0546875
1536,0.234375,-0.9921875,-0.0625
1537,0.23828125,-1.01171875,-0.0546875
1538,0.23828125,-1.02734375,-0.046875
1539,0.234375,-1.015625,-0.015625
1540,0.23046875,-1.015625,-0.0078125
1541,0.23828125,-1.01953125,-0.04296875
1542,0.23828125,-1.01171875,-0.0390625
1543,0.23046875,-1.0,-0.0234375
1544,0.2265625,-0.97265625,-0.0390625
1545,0.23828125,-0.98828125,-0.05078125
1546,0.234375,-0.95703125,-0.07421875
1547,0.23828125,-0.9609375,-0.0859375
1548,0.23046875,-0.96484375,-0.109375
1549,0.2421875,-0.97265625,-0.1171875
1550,0.23046875,-0.9921875,-0.09765625
1551,0.21484375,-1.015625,-0.11328125
1552,0.20703125,-1.00390625,-0.1015625
1553,0.203125,-1.03125,-0.10546875
1554,0.20703125,-1.046875,-0.125
1555,0.2109375,-1.0546875,-0.12890625
1556,0.23046875,-1.0625,-0.14453125
1557,0.2421875,-1.07421875,-0.15625
1558,0.2578125,-1.07421875,-0.17578125
1559,0.28515625,-1.07421875,-0.19140625
1560,0.30078125,-1.08203125,-0.18359375
1561,0.3046875,-1.06640625,-0.19921875
1562,0.29296875,-1.05859375,-0.2265625
1563,0.3046875,-1.0625,-0.2421875
1564,0.30078125,-1.03515625,-0.25390625
1565,0.296875,-1.02734375,-0.25
1566,0.27734375,-1.0078125,-0.26171875
1567,0.265625,-1.0,-0.28125
1568,0.26171875,-0.98828125,-0.2734375
1569,0.2421875,-0.98828125,-0.28515625
1570,0.23828125,-0.96484375,-0.28125
1571,0.2265625,-0.953125,-0.26171875
1572,0.2109375,-0.9609375,-0.265625
1573,0.203125,-0.95703125,-0.2734375
1574,0.20703125,-0.96484375,-0.28125
1575,0.1875,-0.95703125,-0.2578125
1576,0.17578125,-0.97265625,-0.25390625
1577,0.17578125,-0.98828125,-0.25
1578,0.1796875,-1.0,-0.26171875
1579,0.19140625,-1.01953125,-0.25
1580,0.1875,-1.0390625,-0.23828125
1581,0.1875,-1.03125,-0.22265625
1582,0.19140625,-1.046875,-0.2109375
1583,0.1953125,-1.05078125,-0.203125
1584,0.20703125,-1.05859375,-0.2109375
1585,0.2109375,-1.05859375,-0.1875
1586,0.203125,-1.04296875,-0.18359375
1587,0.21875,-1.06640625,-0.16796875
1588,0.2265625,-1.06640625,-0.16015625
1589,0.2265625,-1.05078125,-0.14453125
1590,0.2421875,-1.046875,-0.140625
1591,0.2421875,-1.01953125,-0.140625
1592,0.25,-1.0234375,-0.1484375
1593,0.24609375,-1.015625,-0.14453125
1594,0.2265625,-1.00390625,-0.140625
1595,0.234375,-0.99609375,-0.14453125
1596,0.21875,-0.9921875,-0.15234375
1597,0.21484375,-0.99609375,-0.140625
1598,0.21484375,-0.99609375,-0.15234375
1599,0.19921875,-0.99609375,-0.13671875
1600,0.18359375,-1.0,-0.16015625
1601,0.171875,-1.0,-0.1640625
1602,0.16796875,-1.0,-0.17578125
1603,0.1640625,-1.0,-0.1640625
1604,0.1640625,-1.00390625,-0.1796875
1605,0.16015625,-0.99609375,-0.171875
1606,0.171875,-0.99609375,-0.16796875
1607,0.17578125,-1.0,-0.17578125
1608,0.15234375,-1.0,-0.16796875
1609,0.171875,-1.00390625,-0.1484375
1610,0.16015625,-1.0078125,-0.15625
1611,0.16015625,-1.01171875,-0.15234375
1612,0.1640625,-1.01171875,-0.14453125
1613,0.16796875,-1.015625,-0.1484375
1614,0.17578125,-1.03515625,-0.1484375
1615,0.171875,-1.0390625,-0.15625
1616,0.19140625,-1.05078125,-0.15234375
1617,0.17578125,-1.0546875,-0.15625
1618,0.1796875,-1.06640625,-0.15625
1619,0.18359375,-1.0625,-0.1328125
1620,0.17578125,-1.05859375,-0.16796875
1621,0.18359375,-1.0546875,-0.1640625
1622,0.1796875,-1.0625,-0.15625
1623,0.18359375,-1.046875,-0.15625
1624,0.18359375,-1.05859375,-0.1640625
1625,0.18359375,-1.0390625,-0.15234375
1626,0.1796875,-1.05078125,-0.171875
1627,0.171875,-1.03515625,-0.15234375
1628,0.18359375,-1.03125,-0.1484375
1629,0.171875,-1.0234375,-0.1484375
1630,0.17578125,-1.01171875,-0.15234375
1631,0.17578125,-1.015625,-0.16015625
1632,0.1796875,-1.01171875,-0.15234375
1633,0.16796875,-1.00390625,-0.15234375
1634,0.1640625,-1.0,-0.14453125
1635,0.16796875,-1.0078125,-0.13671875
1636,0.16796875,-1.00390625,-0.1484375
1637,0.17578125,-1.0,-0.15234375
1638,0.17578125,-1.01953125,-0.14453125
1639,0.17578125,-1.00390625,-0.15625
1640,0.17578125,-1.01171875,-0.14453125
1641,0.17578125,-1.00390625,-0.1640625
1642,0.18359375,-1.01953125,-0.1640625
1643,0.171875,-1.0078125,-0.1640625
1644,0.1796875,-1.02734375,-0.171875
1645,0.1796875,-1.01171875,-0.15625
1646,0.1796875,-1.01953125,-0.1640625
1647,0.1796875,-1.015625,-0.15234375
1648,0.1875,-1.0078125,-0.18359375
1649,0.17578125,-1.01171875,-0.17578125
1650,0.17578125,-1.01953125,-0.17578125
1651,0.17578125,-1.015625,-0.1875
1652,0.1796875,-1.01171875,-0.17578125
1653,0.18359375,-1.00390625,-0.18359375
1654,0.19921875,-1.01171875,-0.171875
1655,0.1875,-1.01171875,-0.1796875
1656,0.1875,-1.00390625,-0.19140625
1657,0.19921875,-1.01953125,-0.1796875
1658,0.19140625,-1.00390625,-0.1640625
1659,0.1953125,-1.01171875,-0.1796875
1660,0.1953125,-1.00390625,-0.16796875
1661,0.19921875,-1.01171875,-0.171875
1662,0.1953125,-1.0,-0.16796875
1663,0.19140625,-1.0,-0.17578125
1664,0.18359375,-1.0078125,-0.171875
1665,0.1953125,-1.0078125,-0.15625
1666,0.1953125,-1.01171875,-0.171875
1667,0.203125,-1.00390625,-0.16796875
1668,0.19140625,-1.01171875,-0.15234375
1669,0.2109375,-1.0078125,-0.15625
1670,0.19140625,-1.015625,-0.15625
1671,0.203125,-1.015625,-0.140625
1672,0.19140625,-1.01171875,-0.171875
1673,0.19140625,-1.015625,-0.1640625
1674,0.1953125,-1.015625,-0.14453125
1675,0.19921875,-1.0078125,-0.15625
1676,0.1953125,-1.02734375,-0.14453125
1677,0.1953125,-1.015625,-0.16015625
1678,0.1953125,-1.0234375,-0.15625
1679,0.1875,-1.015625,-0.16015625
1680,0.19140625,-1.015625,-0.15234375
1681,0.1953125,-1.03125,-0.16015625
1682,0.19921875,-1.02734375,-0.12109375
1683,0.19921875,-1.0234375,-0.13671875
1684,0.20703125,-1.015625,-0.13671875
1685,0.2109375,-1.01953125,-0.15234375
1686,0.1796875,-0.99609375,-0.125
1687,0.19140625,-1.01171875,-0.1328125
1688,0.1953125,-1.01953125,-0.12109375
1689,0.20703125,-1.01953125,-0.13671875
1690,0.203125,-1.0234375,-0.12109375
1691,0.203125,-1.03125,-0.14453125
1692,0.2109375,-1.03515625,-0.1328125
1693,0.20703125,-1.03125,-0.11328125
1694,0.21484375,-1.04296875,-0.1328125
1695,0.21875,-1.0390625,-0.12890625
1696,0.2109375,-1.046875,-0.140625
1697,0.1796875,-1.02734375,-0.1796875
1698,0.21484375,-1.03125,-0.140625
1699,0.203125,-1.01953125,-0.14453125
1700,0.21875,-1.0234375,-0.15234375
1701,0.21875,-1.01953125,-0.1484375
1702,0.22265625,-1.01171875,-0.140625
1703,0.2109375,-1.00390625,-0.14453125
1704,0.2109375,-1.0078125,-0.140625
1705,0.203125,-1.0078125,-0.15234375
1706,0.1953125,-1.0078125,-0.13671875
1707,0.203125,-0.99609375,-0.13671875
1708,0.2109375,-0.99609375,-0.1171875
1709,0.19140625,-0.99609375,-0.140625
1710,0.19140625,-1.00390625,-0.15234375
1711,0.1875,-0.9921875,-0.1484375
1712,0.1796875,-0.9921875,-0.15234375
1713,0.19140625,-0.9921875,-0.16796875
1714,0.1796875,-1.00390625,-0.14453125
1715,0.1875,-1.0,-0.15625
1716,0.1875,-1.0078125,-0.13671875
1717,0.19140625,-1.00390625,-0.140625
1718,0.19140625,-1.00390625,-0.1484375
1719,0.17578125,-1.0234375,-0.12109375
1720,0.18359375,-1.0078125,-0.15625
1721,0.17578125,-1.0078125,-0.12890625
1722,0.1875,-1.0078125,-0.14453125
1723,0.19921875,-1.01171875,-0.15625
1724,0.1796875,-1.00390625,-0.1328125
1725,0.19921875,-1.03125,-0.1484375
1726,0.19140625,-1.01171875,-0.15625
1727,0.203125,-1.01171875,-0.125
1728,0.203125,-1.015625,-0.15234375
1729,0.20703125,-1.01953125,-0.13671875
1730,0.19140625,-1.0078125,-0.10546875
1731,0.20703125,-1.00390625,-0.15625
1732,0.19921875,-1.01171875,-0.1328125
1733,0.19921875,-1.02734375,-0.125
1734,0.21484375,-1.01953125,-0.12109375
1735,0.1953125,-1.015625,-0.12109375
1736,0.1953125,-1.0078125,-0.12109375
1737,0.1953125,-1.0234375,-0.125
1738,0.19140625,-1.0234375,-0.13671875
1739,0.19921875,-1.0234375,-0.12890625
1740,0.1953125,-1.03515625,-0.12109375
1741,0.19140625,-1.01953125,-0.12890625
1742,0.19921875,-1.02734375,-0.12890625
1743,0.19921875,-1.03125,-0.11328125
1744,0.19921875,-1.015625,-0.10546875
1745,0.19140625,-1.015625,-0.12890625
1746,0.18359375,-1.0078125,-0.12890625
1747,0.19921875,-1.0234375,-0.1171875
1748,0.1796875,-1.02734375,-0.125
1749,0.19921875,-1.0078125,-0.13671875
1750,0.19140625,-1.01171875,-0.1328125
1751,0.19140625,-1.02734375,-0.13671875
1752,0.19140625,-1.0234375,-0.140625
1753,0.1953125,-1.0078125,-0.1328125
1754,0.19921875,-1.015625,-0.125
1755,0.203125,-1.02734375,-0.1171875
1756,0.19921875,-1.01953125,-0.12890625
1757,0.19140625,-1.01953125,-0.13671875
1758,0.1953125,-1.01171875,-0.125
1759,0.203125,-1.02734375,-0.125
1760,0.19140625,-1.01953125,-0.125
1761,0.203125,-1.02734375,-0.1328125
1762,0.20703125,-1.03125,-0.1484375
1763,0.19140625,-1.01171875,-0.14453125
1764,0.1953125,-1.0078125,-0.140625
1765,0.1953125,-1.0078125,-0.12890625
1766,0.1953125,-1.0,-0.1328125
1767,0.203125,-1.0078125,-0.1328125
1768,0.19921875,-1.0,-0.1328125
1769,0.203125,-1.0,-0.125
1770,0.19921875,-1.0078125,-0.125
1771,0.1953125,-1.01171875,-0.125
1772,0.1953125,-1.00390625,-0.12890625
1773,0.19921875,-1.00390625,-0.125
1774,0.1875,-1.0078125,-0.11328125
1775,0.19921875,-1.0078125,-0.11328125
1776,0.19921875,-1.015625,-0.12109375
1777,0.19921875,-1.0234375,-0.10546875
1778,0.20703125,-1.03125,-0.11328125
1779,0.2109375,-1.0234375,-0.12890625
1780,0.2109375,-1.01953125,-0.12109375
1781,0.21484375,-1.00390625,-0.11328125
1782,0.21875,-1.0,-0.109375
1783,0.203125,-0.984375,-0.125
1784,0.2265625,-0.99609375,-0.1171875
1785,0.21875,-0.9921875,-0.125
1786,0.20703125,-0.97265625,-0.12890625
1787,0.2109375,-0.9921875,-0.11328125
1788,0.2265625,-1.0,-0.125
1789,0.21875,-1.01171875,-0.11328125
1790,0.2265625,-1.03515625,-0.1171875
1791,0.23046875,-1.05078125,-0.11328125
1792,0.2265625,-1.0625,-0.1015625
1793,0.234375,-1.078125,-0.109375
1794,0.21875,-1.078125,-0.12109375
1795,0.2109375,-1.0703125,-0.11328125
1796,0.23046875,-1.0625,-0.1171875
1797,0.2265625,-1.06640625,-0.11328125
1798,0.23828125,-1.0546875,-0.1328125
1799,0.22265625,-1.0390625,-0.13671875
1800,0.22265625,-1.01953125,-0.13671875
1801,0.21875,-1.00390625,-0.125
1802,0.20703125,-0.9921875,-0.13671875
1803,0.203125,-0.98828125,-0.13671875
1804,0.203125,-0.98046875,-0.1328125
1805,0.21484375,-0.98828125,-0.1171875
1806,0.19921875,-0.98828125,-0.109375
1807,0.19921875,-1.0,-0.12890625
1808,0.20703125,-1.00390625,-0.12109375
1809,0.1796875,-1.0,-0.12890625
1810,0.17578125,-0.9921875,-0.125
1811,0.16796875,-0.98828125,-0.13671875
1812,0.17578125,-1.0,-0.14453125
1813,0.1796875,-1.0,-0.12890625
1814,0.17578125,-1.00390625,-0.125
1815,0.18359375,-1.00390625,-0.1171875
1816,0.1875,-1.01953125,-0.12109375
1817,0.19140625,-1.0078125,-0.125
1818,0.18359375,-1.0078125,-0.1328125
1819,0.171875,-1.0234375,-0.12109375
1820,0.1796875,-1.015625,-0.12109375
1821,0.171875,-1.01953125,-0.13671875
1822,0.19140625,-1.00390625,-0.12890625
1823,0.19140625,-1.01171875,-0.13671875
1824,0.1796875,-1.0,-0.12890625
1825,0.1953125,-0.99609375,-0.13671875
1826,0.19921875,-0.99609375,-0.12890625
1827,0.2109375,-1.00390625,-0.140625
1828,0.1953125,-1.0,-0.14453125
1829,0.2109375,-1.0,-0.15625
1830,0.19140625,-1.00390625,-0.14453125
1831,0.19921875,-1.0078125,-0.13671875
1832,0.19921875,-1.01953125,-0.140625
1833,0.2109375,-1.0234375,-0.1328125
1834,0.1953125,-1.02734375,-0.13671875
1835,0.19140625,-1.01171875,-0.125
1836,0.19140625,-1.02734375,-0.12109375
1837,0.20703125,-1.015625,-0.13671875
1838,0.20703125,-1.0234375,-0.13671875
1839,0.19921875,-1.01171875,-0.13671875
1840,0.203125,-1.01171875,-0.13671875
1841,0.1953125,-1.01953125,-0.1328125
1842,0.2109375,-1.01171875,-0.15234375
1843,0.20703125,-1.0234375,-0.1328125
1844,0.203125,-1.015625,-0.13671875
1845,0.19140625,-1.015625,-0.12890625
1846,0.19921875,-1.02734375,-0.12109375
1847,0.203125,-1.03125,-0.125
1848,0.20703125,-1.01953125,-0.14453125
1849,0.21484375,-1.01953125,-0.125
1850,0.20703125,-1.02734375,-0.11328125
1851,0.20703125,-1.0234375,-0.1171875
1852,0.2109375,-1.01953125,-0.12890625
1853,0.203125,-1.015625,-0.109375
1854,0.1953125,-1.01953125,-0.12109375
1855,0.20703125,-1.01953125,-0.125
1856,0.203125,-1.01171875,-0.125
1857,0.2109375,-1.01171875,-0.11328125
1858,0.21484375,-1.0078125,-0.12890625
1859,0.20703125,-1.015625,-0.13671875
1860,0.20703125,-1.0234375,-0.1171875
1861,0.21484375,-1.01953125,-0.125
1862,0.203125,-1.01171875,-0.109375
1863,0.20703125,-1.01171875,-0.14453125
1864,0.21875,-1.01953125,-0.125
1865,0.203125,-1.01171875,-0.1328125
1866,0.1953125,-1.01171875,-0.13671875
1867,0.1953125,-1.0078125,-0.1328125
1868,0.19140625,-0.99609375,-0.12890625
1869,0.203125,-1.015625,-0.12890625
1870,0.1875,-1.01171875,-0.12109375
1871,0.19140625,-1.01171875,-0.12109375
1872,0.1875,-1.0078125,-0.1484375
1873,0.1953125,-1.015625,-0.125
1874,0.1953125,-1.01953125,-0.12890625
1875,0.1796875,-1.00390625,-0.1171875
1876,0.18359375,-1.0078125,-0.1171875
1877,0.18359375,-1.00390625,-0.125
1878,0.17578125,-1.0078125,-0.12890625
1879,0.1796875,-1.00390625,-0.1328125
1880,0.1796875,-1.0078125,-0.140625
1881,0.18359375,-1.01171875,-0.125
1882,0.17578125,-1.0078125,-0.10546875
1883,0.17578125,-1.0078125,-0.1328125
1884,0.1875,-1.0078125,-0.13671875
1885,0.1875,-1.0078125,-0.12109375
1886,0.19140625,-1.00390625,-0.11328125
1887,0.1796875,-1.0078125,-0.1015625
1888,0.18359375,-1.01953125,-0.12109375
1889,0.19921875,-1.0234375,-0.11328125
1890,0.19140625,-1.01171875,-0.125
1891,0.19140625,-1.01171875,-0.1328125
1892,0.19140625,-1.00390625,-0.12890625
1893,0.1875,-1.01953125,-0.1171875
1894,0.1875,-1.01953125,-0.12109375
1895,0.1875,-1.0078125,-0.1171875
1896,0.1875,-1.0234375,-0.1171875
1897,0.1953125,-1.02734375,-0.12109375
1898,0.19140625,-1.01953125,-0.14453125
1899,0.19140625,-1.01171875,-0.12890625
1900,0.19140625,-1.03125,-0.1328125
1901,0.19140625,-1.0234375,-0.1328125
1902,0.19140625,-1.0234375,-0.12890625
1903,0.1875,-1.01953125,-0.14453125
1904,0.18359375,-1.0078125,-0.14453125
1905,0.19140625,-1.015625,-0.125
1906,0.19140625,-1.00390625,-0.12109375
1907,0.1875,-1.0078125,-0.12109375
1908,0.1875,-1.01171875,-0.125
1909,0.1875,-1.00390625,-0.13671875
1910,0.19921875,-1.015625,-0.13671875
1911,0.1796875,-1.00390625,-0.12109375
1912,0.1796875,-1.015625,-0.1171875
1913,0.203125,-1.01171875,-0.125
1914,0.19140625,-1.015625,-0.13671875
1915,0.1875,-1.01953125,-0.13671875
1916,0.1953125,-1.0234375,-0.12890625
1917,0.1953125,-1.03125,-0.1328125
1918,0.19140625,-1.015625,-0.1328125
1919,0.2109375,-1.01953125,-0.1328125
1920,0.1875,-1.0078125,-0.14453125
1921,0.18359375,-1.015625,-0.12109375
1922,0.1875,-1.0078125,-0.1328125
1923,0.1953125,-1.015625,-0.125
1924,0.1875,-1.01171875,-0.12890625
1925,0.203125,-1.0234375,-0.125
1926,0.19140625,-1.0078125,-0.11328125
1927,0.19140625,-1.01171875,-0.12890625
1928,0.19140625,-1.0078125,-0.125
1929,0.1953125,-1.01171875,-0.12109375
1930,0.1953125,-1.01171875,-0.1328125
1931,0.19921875,-1.0234375,-0.1171875
1932,0.1953125,-1.0078125,-0.12109375
1933,0.19140625,-1.00390625,-0.1171875
1934,0.1875,-1.0078125,-0.13671875
1935,0.1875,-1.0078125,-0.1171875
1936,0.20703125,-1.01171875,-0.109375
1937,0.19140625,-1.0078125,-0.11328125
1938,0.19921875,-1.01171875,-0.12890625
1939,0.1953125,-1.00390625,-0.12109375
1940,0.203125,-1.0078125,-0.125
1941,0.203125,-1.02734375,-0.140625
1942,0.19921875,-1.01171875,-0.125
1943,0.19921875,-1.0234375,-0.109375
1944,0.1953125,-1.015625,-0.125
1945,0.203125,-1.0078125,-0.125
1946,0.20703125,-1.0078125,-0.12109375
1947,0.234375,-1.015625,-0.125
1948,0.1875,-1.0078125,-0.12109375
1949,0.19140625,-1.01953125,-0.125
1950,0.19921875,-1.0078125,-0.11328125
1951,0.19140625,-1.00390625,-0.13671875
1952,0.18359375,-1.015625,-0.12890625
1953,0.19921875,-1.0234375,-0.13671875
1954,0.1953125,-1.0234375,-0.11328125
1955,0.19140625,-1.01171875,-0.11328125
1956,0.1953125,-1.015625,-0.12109375
1957,0.1875,-1.0234375,-0.10546875
1958,0.19140625,-1.015625,-0.12109375
1959,0.1875,-1.015625,-0.12109375
1960,0.1875,-1.00390625,-0.12109375
1961,0.19921875,-1.01171875,-0.11328125
1962,0.203125,-1.0078125,-0.125
1963,0.1875,-1.01953125,-0.12890625
1964,0.1875,-1.0078125,-0.1171875
1965,0.20703125,-1.0078125,-0.1171875
1966,0.19140625,-1.015625,-0.12109375
1967,0.203125,-1.0078125,-0.1328125
1968,0.203125,-1.00390625,-0.16796875
1969,0.203125,-1.015625,-0.12890625
1970,0.1953125,-1.01953125,-0.14453125
1971,0.1953125,-1.015625,-0.1328125
1972,0.19921875,-1.02734375,-0.12890625
1973,0.19921875,-1.015625,-0.12109375
1974,0.1953125,-1.015625,-0.1171875
1975,0.19921875,-1.0234375,-0.125
1976,0.1953125,-1.0234375,-0.13671875
1977,0.19140625,-1.0078125,-0.11328125
1978,0.19921875,-1.01953125,-0.12890625
1979,0.19921875,-1.00390625,-0.13671875
1980,0.1875,-1.0,-0.13671875
1981,0.19921875,-1.0078125,-0.1328125
1982,0.20703125,-1.0078125,-0.12890625
1983,0.19921875,-1.01953125,-0.1328125
1984,0.203125,-1.02734375,-0.14453125
1985,0.19921875,-1.01953125,-0.11328125
1986,0.19140625,-1.015625,-0.12109375
1987,0.19921875,-1.015625,-0.12109375
1988,0.19921875,-1.01953125,-0.1171875
1989,0.1875,-1.01953125,-0.13671875
1990,0.1875,-1.01171875,-0.13671875
1991,0.19140625,-1.01953125,-0.1484375
1992,0.19921875,-1.0,-0.14453125
1993,0.19140625,-1.0078125,-0.14453125
1994,0.19140625,-1.00390625,-0.15234375
1995,0.19921875,-1.00390625,-0.13671875
1996,0.19921875,-1.00390625,-0.1171875
1997,0.1953125,-1.015625,-0.14453125
1998,0.19140625,-1.015625,-0.12890625
1999,0.1875,-1.0078125,-0.12890625
2000,0.1953125,-1.015625,-0.12109375
2001,0.19140625,-1.0078125,-0.12890625
2002,0.1953125,-1.00390625,-0.109375
2003,0.19921875,-1.00390625,-0.125
2004,0.203125,-1.01171875,-0.12890625
2005,0.19921875,-1.0,-0.12109375
2006,0.203125,-1.00390625,-0.12109375
2007,0.20703125,-1.0,-0.11328125
2008,0.203125,-1.01171875,-0.13671875
2009,0.2109375,-1.0078125,-0.11328125
2010,0.203125,-1.0078125,-0.1171875
2011,0.21484375,-1.01953125,-0.12890625
2012,0.20703125,-1.0234375,-0.1171875
2013,0.19921875,-1.01953125,-0.12109375
2014,0.20703125,-1.01171875,-0.12890625
2015,0.2109375,-1.02734375,-0.125
2016,0.1953125,-1.01171875,-0.1484375
2017,0.1953125,-1.01953125,-0.13671875
2018,0.19921875,-1.015625,-0.1328125
2019,0.20703125,-1.015625,-0.12890625
2020,0.203125,-1.01953125,-0.140625
2021,0.20703125,-1.015625,-0.1328125
2022,0.203125,-1.0234375,-0.12890625
2023,0.1953125,-1.015625,-0.12890625
2024,0.2109375,-1.03125,-0.125
2025,0.21484375,-1.015625,-0.12890625
2026,0.1953125,-1.0234375,-0.12890625
2027,0.20703125,-1.015625,-0.125
2028,0.21484375,-1.02734375,-0.1328125
2029,0.203125,-1.015625,-0.1328125
2030,0.203125,-1.015625,-0.125
2031,0.203125,-1.015625,-0.1328125
2032,0.19921875,-1.015625,-0.13671875
2033,0.19921875,-1.01171875,-0.125
2034,0.2109375,-1.0078125,-0.1328125
2035,0.203125,-1.01171875,-0.12890625
2036,0.19921875,-1.0078125,-0.12109375
2037,0.20703125,-1.015625,-0.12109375
2038,0.19140625,-1.015625,-0.13671875
2039,0.203125,-1.0078125,-0.12890625
2040,0.1953125,-1.0234375,-0.13671875
2041,0.19921875,-1.0234375,-0.140625
2042,0.20703125,-1.01953125,-0.1171875
2043,0.19140625,-1.0078125,-0.1328125
2044,0.1953125,-1.0078125,-0.1171875
2045,0.203125,-1.01171875,-0.13671875
2046,0.19921875,-1.015625,-0.1171875
2047,0.19140625,-1.01171875,-0.11328125
2048,0.203125,-1.015625,-0.140625
2049,0.1953125,-1.01171875,-0.125
2050,0.1953125,-1.0078125,-0.125
2051,0.1953125,-1.015625,-0.1328125
2052,0.19921875,-1.0078125,-0.13671875
2053,0.1953125,-1.00390625,-0.125
2054,0.1875,-1.0078125,-0.1328125
2055,0.20703125,-1.02734375,-0.12890625
2056,0.1875,-1.01171875,-0.1484375
2057,0.19140625,-1.01171875,-0.11328125
2058,0.1875,-1.00390625,-0.1171875
2059,0.19921875,-1.015625,-0.140625
2060,0.1953125,-1.015625,-0.12109375
2061,0.19921875,-1.0078125,-0.1171875
2062,0.19921875,-1.015625,-0.140625
2063,0.1953125,-1.015625,-0.140625
2064,0.203125,-1.015625,-0.1328125
2065,0.20703125,-1.0078125,-0.1328125
2066,0.203125,-1.01171875,-0.1328125
2067,0.203125,-1.01171875,-0.13671875
2068,0.21484375,-1.015625,-0.13671875
2069,0.20703125,-1.01953125,-0.1484375
2070,0.2109375,-1.0234375,-0.1328125
2071,0.20703125,-1.0234375,-0.125
2072,0.20703125,-1.0234375,-0.13671875
2073,0.19921875,-1.00390625,-0.1328125
2074,0.20703125,-1.0078125,-0.1328125
2075,0.203125,-1.0078125,-0.125
2076,0.20703125,-1.0234375,-0.12890625
2077,0.20703125,-1.01953125,-0.13671875
2078,0.19921875,-1.015625,-0.1328125
2079,0.19921875,-1.01171875,-0.1171875
2080,0.203125,-1.015625,-0.1171875
2081,0.19921875,-1.01171875,-0.140625
2082,0.19140625,-1.015625,-0.12890625
2083,0.19921875,-1.01953125,-0.12109375
2084,0.20703125,-1.01953125,-0.13671875
2085,0.20703125,-1.0078125,-0.1328125
2086,0.20703125,-1.01953125,-0.12890625
2087,0.203125,-1.015625,-0.12890625
2088,0.1953125,-1.01171875,-0.1171875
2089,0.19140625,-1.0078125,-0.125
2090,0.19921875,-1.01953125,-0.13671875
2091,0.19921875,-1.01171875,-0.12890625
2092,0.21484375,-1.01171875,-0.12890625
2093,0.20703125,-1.01953125,-0.125
2094,0.21875,-1.01953125,-0.14453125
2095,0.19921875,-1.00390625,-0.12109375
2096,0.16796875,-1.015625,-0.109375
2097,0.203125,-1.02734375,-0.12890625
2098,0.21875,-1.0078125,-0.1171875
2099,0.203125,-1.01171875,-0.12109375
2100,0.1953125,-1.01171875,-0.125
2101,0.203125,-1.01171875,-0.140625
2102,0.19921875,-1.01171875,-0.1328125
2103,0.2109375,-1.00390625,-0.125
2104,0.20703125,-1.00390625,-0.1328125
2105,0.20703125,-1.0078125,-0.1171875
2106,0.203125,-1.015625,-0.1328125
2107,0.2109375,-1.01171875,-0.1171875
2108,0.2109375,-1.0078125,-0.1328125
2109,0.20703125,-1.0078125,-0.125
2110,0.2109375,-1.00390625,-0.140625
2111,0.203125,-1.015625,-0.12890625
2112,0.203125,-1.0078125,-0.1328125
2113,0.1953125,-1.0078125,-0.12890625
2114,0.2109375,-1.0078125,-0.1328125
2115,0.2109375,-1.015625,-0.125
2116,0.203125,-1.0078125,-0.140625
2117,0.203125,-1.015625,-0.13671875
2118,0.2109375,-1.015625,-0.140625
2119,0.2109375,-1.015625,-0.125
2120,0.19921875,-1.01171875,-0.140625
2121,0.20703125,-1.01953125,-0.13671875
2122,0.1953125,-1.0078125,-0.12890625
2123,0.1875,-1.01171875,-0.1171875
2124,0.203125,-1.01171875,-0.14453125
2125,0.1796875,-1.01171875,-0.13671875
2126,0.2109375,-1.02734375,-0.14453125
2127,0.203125,-1.015625,-0.140625
2128,0.19140625,-1.015625,-0.125
2129,0.20703125,-1.0234375,-0.140625
2130,0.19921875,-1.0078125,-0.12890625
2131,0.20703125,-1.015625,-0.125
2132,0.203125,-1.0078125,-0.13671875
2133,0.21484375,-1.015625,-0.125
2134,0.20703125,-1.01171875,-0.14453125
2135,0.20703125,-1.01171875,-0.1328125
2136,0.19921875,-1.01171875,-0.1171875
2137,0.20703125,-1.0234375,-0.12109375
2138,0.203125,-1.01953125,-0.12890625
2139,0.203125,-1.015625,-0.12109375
2140,0.19921875,-1.0234375,-0.1484375
2141,0.203125,-1.02734375,-0.12109375
2142,0.19140625,-1.0078125,-0.11328125
2143,0.203125,-1.015625,-0.12890625
2144,0.20703125,-1.015625,-0.14453125
2145,0.21484375,-1.015625,-0.1328125
2146,0.1953125,-1.0078125,-0.1484375
2147,0.19140625,-1.0,-0.1328125
2148,0.19921875,-1.0,-0.13671875
2149,0.1875,-0.99609375,-0.12109375
2150,0.1953125,-1.01171875,-0.125
2151,0.203125,-1.01953125,-0.12890625
2152,0.20703125,-1.015625,-0.12890625
2153,0.19921875,-1.015625,-0.125
2154,0.19921875,-1.01953125,-0.10546875
2155,0.19140625,-1.015625,-0.12109375
2156,0.19921875,-1.015625,-0.125
2157,0.19921875,-1.0078125,-0.12109375
2158,0.19140625,-1.00390625,-0.11328125
2159,0.20703125,-1.01171875,-0.12109375
2160,0.19140625,-1.00390625,-0.11328125
2161,0.20703125,-1.0078125,-0.11328125
2162,0.19921875,-1.0,-0.12109375
2163,0.20703125,-1.015625,-0.13671875
2164,0.203125,-1.01171875,-0.12109375
2165,0.20703125,-1.0078125,-0.12890625
2166,0.19921875,-1.01953125,-0.1171875
2167,0.203125,-1.015625,-0.1171875
2168,0.20703125,-1.01953125,-0.125
2169,0.19921875,-1.0078125,-0.12890625
2170,0.1953125,-1.0078125,-0.11328125
2171,0.203125,-1.015625,-0.12109375
2172,0.19921875,-1.01171875,-0.12109375
2173,0.19921875,-1.0078125,-0.11328125
2174,0.203125,-1.015625,-0.12109375
2175,0.203125,-1.0,-0.12890625
2176,0.19921875,-1.01171875,-0.1015625
2177,0.19921875,-1.00390625,-0.12890625
2178,0.19921875,-1.01953125,-0.1171875
2179,0.203125,-1.02734375,-0.109375
2180,0.21484375,-1.01953125,-0.1171875
2181,0.1953125,-1.015625,-0.1328125
2182,0.20703125,-1.01171875,-0.109375
2183,0.2109375,-1.01171875,-0.109375
2184,0.203125,-1.00390625,-0.12109375
2185,0.19921875,-1.015625,-0.09375
2186,0.21484375,-1.015625,-0.11328125
2187,0.20703125,-1.0078125,-0.10546875
2188,0.2109375,-1.03515625,-0.1328125
2189,0.20703125,-1.01953125,-0.10546875
2190,0.20703125,-1.015625,-0.109375
2191,0.19921875,-1.015625,-0.1171875
2192,0.2109375,-1.0234375,-0.109375
2193,0.19921875,-1.0078125,-0.10546875
2194,0.21484375,-1.0234375,-0.10546875
2195,0.203125,-1.01171875,-0.11328125
2196,0.20703125,-1.015625,-0.09765625
2197,0.2265625,-1.02734375,-0.09765625
2198,0.2109375,-1.00390625,-0.12109375
2199,0.1953125,-1.00390625,-0.10546875
2200,0.20703125,-1.015625,-0.109375
2201,0.19921875,-1.01171875,-0.09765625
2202,0.1953125,-1.0,-0.1171875
2203,0.19921875,-1.01171875,-0.109375
2204,0.19921875,-1.015625,-0.1015625
2205,0.19921875,-1.0078125,-0.11328125
2206,0.19921875,-1.01171875,-0.109375
2207,0.1953125,-1.0078125,-0.10546875
2208,0.19140625,-0.97265625,-0.13671875
2209,0.21484375,-1.0234375,-0.09765625
2210,0.19921875,-1.015625,-0.10546875
2211,0.2109375,-1.00390625,-0.10546875
2212,0.20703125,-1.0234375,-0.1171875
2213,0.2109375,-1.01953125,-0.09375
2214,0.2109375,-1.01953125,-0.08984375
2215,0.20703125,-1.03515625,-0.09765625
2216,0.2109375,-1.015625,-0.10546875
2217,0.21484375,-1.02734375,-0.08984375
2218,0.1953125,-1.00390625,-0.1015625
2219,0.203125,-1.0078125,-0.1015625
2220,0.1953125,-1.00390625,-0.09375
2221,0.19921875,-1.00390625,-0.09375
2222,0.20703125,-1.01953125,-0.09375
2223,0.19921875,-1.01171875,-0.11328125
2224,0.2109375,-1.01171875,-0.09375
2225,0.20703125,-1.0078125,-0.09375
2226,0.20703125,-1.015625,-0.09765625
2227,0.20703125,-1.01953125,-0.1015625
2228,0.2109375,-1.01171875,-0.07421875
2229,0.1953125,-1.01171875,-0.0546875
2230,0.1953125,-1.0078125,-0.078125
2231,0.19140625,-1.01171875,-0.08984375
2232,0.1953125,-0.99609375,-0.08984375
2233,0.1953125,-1.0078125,-0.078125
2234,0.203125,-1.01171875,-0.08203125
2235,0.19140625,-1.015625,-0.08984375
2236,0.203125,-1.01171875,-0.0859375
2237,0.19921875,-1.01171875,-0.07421875
2238,0.203125,-1.0078125,-0.07421875
2239,0.20703125,-1.01171875,-0.07421875
2240,0.2109375,-1.015625,-0.05859375
2241,0.19921875,-1.01171875,-0.08203125
2242,0.20703125,-1.01953125,-0.08984375
2243,0.19921875,-1.015625,-0.0703125
2244,0.1953125,-1.0078125,-0.08984375
2245,0.2109375,-1.015625,-0.07421875
2246,0.21875,-1.01171875,-0.07421875
2247,0.20703125,-1.01171875,-0.0625
2248,0.20703125,-1.0234375,-0.078125
2249,0.20703125,-1.01953125,-0.078125
2250,0.19921875,-1.00390625,-0.078125
2251,0.203125,-1.00390625,-0.08203125
2252,0.203125,-1.01171875,-0.07421875
2253,0.2109375,-1.0,-0.0703125
2254,0.2109375,-1.01171875,-0.0625
2255,0.2109375,-1.0078125,-0.0625
2256,0.20703125,-1.01171875,-0.0625
2257,0.203125,-1.015625,-0.06640625
2258,0.203125,-1.0078125,-0.05859375
2259,0.20703125,-1.0078125,-0.07421875
2260,0.2109375,-1.0078125,-0.0625
2261,0.21484375,-1.015625,-0.0390625
2262,0.2109375,-1.01171875,-0.05078125
2263,0.21484375,-1.0078125,-0.04296875
2264,0.20703125,-1.0078125,-0.05078125
2265,0.20703125,-1.0078125,-0.05078125
2266,0.2109375,-1.0,-0.05859375
2267,0.22265625,-1.0078125,-0.05859375
2268,0.21484375,-1.0078125,-0.05078125
2269,0.22265625,-1.0078125,-0.04296875
2270,0.22265625,-1.01953125,-0.04296875
2271,0.2265625,-1.00390625,-0.0390625
2272,0.21875,-1.01953125,-0.0546875
2273,0.2265625,-1.01953125,-0.0390625
2274,0.234375,-1.01953125,-0.03125
2275,0.22265625,-1.00390625,-0.02734375
2276,0.22265625,-1.01171875,-0.03515625
2277,0.234375,-1.01953125,-0.02734375
2278,0.22265625,-1.01171875,-0.03515625
2279,0.20703125,-1.0,-0.0234375
2280,0.22265625,-1.00390625,-0.03125
2281,0.22265625,-1.00390625,-0.03515625
2282,0.21484375,-1.0,-0.03515625
2283,0.21875,-1.0078125,-0.01171875
2284,0.22265625,-1.0,-0.03125
2285,0.2109375,-1.00390625,-0.03515625
2286,0.21484375,-1.01171875,-0.01171875
2287,0.21484375,-1.0,-0.01953125
2288,0.21875,-1.01953125,-0.03515625
2289,0.21875,-1.015625,-0.00390625
2290,0.2109375,-1.0234375,-0.03125
2291,0.21875,-1.01953125,-0.03515625
2292,0.22265625,-1.01171875,-0.05078125
2293,0.24609375,-1.00390625,-0.03515625
2294,0.23828125,-1.00390625,-0.01953125
2295,0.2421875,-0.98828125,-0.03515625
2296,0.23828125,-0.984375,-0.03515625
2297,0.234375,-1.0,-0.01953125
2298,0.23828125,-0.9921875,-0.0078125
2299,0.2265625,-0.9921875,-0.02734375
2300,0.23828125,-0.99609375,-0.0078125
2301,0.21484375,-0.984375,-0.0078125
2302,0.22265625,-0.9765625,0.00390625
2303,0.19921875,-0.9609375,0.0
2304,0.2109375,-0.984375,0.0078125
2305,0.2109375,-0.98046875,0.0
2306,0.21484375,-1.0,-0.015625
2307,0.19921875,-1.0,-0.015625
2308,0.21875,-1.00390625,0.0
2309,0.23046875,-1.015625,-0.01953125
2310,0.2109375,-1.01171875,-0.03125
2311,0.2265625,-1.03515625,-0.0078125
2312,0.23046875,-1.0390625,-0.02734375
2313,0.2421875,-1.03515625,-0.00390625
2314,0.2421875,-1.05078125,-0.00390625
2315,0.25,-1.05078125,0.0
2316,0.24609375,-1.02734375,-0.0078125
2317,0.25390625,-1.01953125,0.0078125
2318,0.25,-1.01171875,0.0078125
2319,0.25,-1.0,0.015625
2320,0.25390625,-1.0078125,0.015625
2321,0.24609375,-0.96875,0.0234375
2322,0.24609375,-0.9609375,0.04296875
2323,0.24609375,-0.9609375,0.046875
2324,0.24609375,-0.9609375,0.0546875
2325,0.23828125,-0.9453125,0.0625
2326,0.23046875,-0.94140625,0.06640625
2327,0.23828125,-0.94921875,0.0625
2328,0.24609375,-0.96484375,0.05859375
2329,0.2421875,-0.9609375,0.05859375
2330,0.2421875,-0.97265625,0.0703125
2331,0.25,-0.98046875,0.0546875
2332,0.25390625,-0.98828125,0.0546875
2333,0.25390625,-0.984375,0.0546875
2334,0.25390625,-0.99609375,0.05859375
2335,0.26171875,-1.01171875,0.0546875
2336,0.2734375,-1.00390625,0.0625
2337,0.29296875,-1.01953125,0.05078125
2338,0.2890625,-1.0078125,0.05859375
2339,0.28125,-0.99609375,0.0625
2340,0.30859375,-1.0,0.05078125
2341,0.29296875,-0.99609375,0.07421875
2342,0.296875,-0.9921875,0.078125
2343,0.27734375,-0.984375,0.0859375
2344,0.265625,-0.9765625,0.07421875
2345,0.26953125,-0.96484375,0.08203125
2346,0.25390625,-0.96484375,0.0703125
2347,0.25,-0.9765625,0.07421875
2348,0.25390625,-0.9765625,0.0703125
2349,0.23828125,-0.9765625,0.07421875
2350,0.25390625,-0.98046875,0.06640625
2351,0.25,-1.00390625,0.06640625
2352,0.2421875,-0.98828125,0.0703125
2353,0.24609375,-0.984375,0.078125
2354,0.2421875,-0.9921875,0.0859375
2355,0.25,-0.98828125,0.06640625
2356,0.26171875,-0.98828125,0.06640625
2357,0.25,-0.97265625,0.09375
2358,0.25390625,-0.9765625,0.08984375
2359,0.2578125,-0.984375,0.08984375
2360,0.25390625,-0.9765625,0.09375
2361,0.25390625,-0.96484375,0.09765625
2362,0.26953125,-0.96484375,0.109375
2363,0.2578125,-0.96875,0.10546875
2364,0.265625,-0.94921875,0.09765625
2365,0.27734375,-0.9609375,0.10546875
2366,0.28125,-0.9609375,0.109375
2367,0.2734375,-0.953125,0.11328125
2368,0.265625,-0.9609375,0.1171875
2369,0.26171875,-0.97265625,0.125
2370,0.265625,-0.9765625,0.125
2371,0.26171875,-0.984375,0.10546875
2372,0.26953125,-0.9921875,0.09765625
2373,0.26171875,-0.98828125,0.09765625
2374,0.25390625,-0.984375,0.109375
2375,0.2734375,-0.9921875,0.12890625
2376,0.2578125,-0.984375,0.125
2377,0.26953125,-0.97265625,0.1171875
2378,0.26953125,-0.97265625,0.1171875
2379,0.265625,-0.96875,0.1171875
2380,0.2578125,-0.9453125,0.13671875
2381,0.26171875,-0.94140625,0.12109375
2382,0.265625,-0.9453125,0.12109375
2383,0.2578125,-0.94921875,0.1328125
2384,0.25,-0.93359375,0.1328125
2385,0.26171875,-0.94921875,0.13671875
2386,0.25,-0.9453125,0.1328125
2387,0.26171875,-0.9375,0.14453125
2388,0.26171875,-0.94921875,0.13671875
2389,0.2578125,-0.9453125,0.14453125
2390,0.2578125,-0.953125,0.16015625
2391,0.2578125,-0.93359375,0.125
2392,0.25,-0.96484375,0.140625
2393,0.25,-0.953125,0.140625
2394,0.24609375,-0.96484375,0.15625
2395,0.25,-0.96484375,0.16015625
2396,0.25,-0.96875,0.13671875
2397,0.24609375,-0.95703125,0.1484375
2398,0.25,-0.953125,0.14453125
2399,0.2265625,-0.94921875,0.16015625
2400,0.25,-0.9453125,0.13671875
2401,0.25,-0.9375,0.15625
2402,0.24609375,-0.93359375,0.17578125
2403,0.2421875,-0.9296875,0.1484375
2404,0.234375,-0.9375,0.15234375
2405,0.23828125,-0.9296875,0.15625
2406,0.23828125,-0.94140625,0.16015625
2407,0.2421875,-0.9296875,0.16015625
2408,0.234375,-0.9375,0.16796875
2409,0.2421875,-0.9296875,0.16796875
2410,0.25,-0.9453125,0.16796875
2411,0.2578125,-0.92578125,0.15234375
2412,0.25390625,-0.9453125,0.15234375
2413,0.25390625,-0.953125,0.1484375
2414,0.2578125,-0.94921875,0.16015625
2415,0.25,-0.94140625,0.15234375
2416,0.24609375,-0.953125,0.15625
2417,0.24609375,-0.94921875,0.15625
2418,0.24609375,-0.9453125,0.1484375
2419,0.25,-0.9609375,0.15625
2420,0.24609375,-0.9609375,0.1484375
2421,0.23828125,-0.95703125,0.15234375
2422,0.25,-0.97265625,0.1640625
2423,0.2421875,-0.95703125,0.1640625
2424,0.23046875,-0.953125,0.16015625
2425,0.23046875,-0.93359375,0.14453125
2426,0.2265625,-0.921875,0.140625
2427,0.234375,-0.91796875,0.16015625
2428,0.22265625,-0.91015625,0.16015625
2429,0.21484375,-0.9140625,0.171875
2430,0.22265625,-0.92578125,0.15625
2431,0.21484375,-0.9140625,0.17578125
2432,0.20703125,-0.92578125,0.16015625
2433,0.20703125,-0.921875,0.14453125
2434,0.19140625,-0.9375,0.1484375
2435,0.19921875,-0.94140625,0.140625
2436,0.20703125,-0.96484375,0.14453125
2437,0.2109375,-0.97265625,0.1640625
2438,0.2109375,-0.98828125,0.14453125
2439,0.20703125,-0.98828125,0.14453125
2440,0.21484375,-0.99609375,0.12890625
2441,0.21484375,-0.98046875,0.12109375
2442,0.2109375,-0.9609375,0.125
2443,0.23046875,-0.9375,0.12890625
2444,0.23046875,-0.93359375,0.125
2445,0.234375,-0.921875,0.1328125
2446,0.2265625,-0.9453125,0.1484375
2447,0.22265625,-0.93359375,0.1484375
2448,0.2265625,-0.93359375,0.14453125
2449,0.21875,-0.91796875,0.1328125
2450,0.22265625,-0.9296875,0.12890625
2451,0.2265625,-0.9375,0.12890625
2452,0.23046875,-0.9375,0.140625
2453,0.2265625,-0.9375,0.14453125
2454,0.21484375,-0.953125,0.1328125
2455,0.234375,-0.97265625,0.14453125
2456,0.2109375,-0.98046875,0.13671875
2457,0.22265625,-0.99609375,0.125
2458,0.2109375,-1.0,0.1171875
2459,0.22265625,-0.9921875,0.11328125
2460,0.203125,-0.96875,0.10546875
2461,0.203125,-0.97265625,0.125
2462,0.22265625,-0.96875,0.10546875
2463,0.21875,-0.96875,0.11328125
2464,0.21484375,-0.96484375,0.1171875
2465,0.22265625,-0.96484375,0.11328125
2466,0.21484375,-0.96484375,0.109375
2467,0.20703125,-0.9609375,0.09765625
2468,0.2109375,-0.9609375,0.1015625
2469,0.23046875,-0.97265625,0.109375
2470,0.1875,-0.96875,0.10546875
2471,0.19921875,-0.98046875,0.09375
2472,0.18359375,-0.98828125,0.08984375
2473,0.1875,-0.99609375,0.1015625
2474,0.171875,-1.01953125,0.0859375
2475,0.19140625,-1.00390625,0.08984375
2476,0.1875,-1.00390625,0.08203125
2477,0.19140625,-1.0078125,0.08984375
2478,0.17578125,-1.01171875,0.0625
2479,0.17578125,-1.00390625,0.05078125
2480,0.14453125,-0.97265625,0.05859375
2481,0.17578125,-0.99609375,0.0703125
2482,0.171875,-0.98828125,0.08203125
2483,0.171875,-0.98828125,0.0625
2484,0.16015625,-0.98828125,0.046875
2485,0.1640625,-0.96875,0.0703125
2486,0.16015625,-0.98046875,0.06640625
2487,0.15625,-0.97265625,0.0703125
2488,0.15625,-0.9765625,0.0625
2489,0.15234375,-0.98046875,0.078125
2490,0.1484375,-0.96484375,0.0625
2491,0.12890625,-0.99609375,0.0703125
2492,0.13671875,-1.0078125,0.0234375
2493,0.1171875,-1.01171875,0.046875
2494,0.1015625,-1.0234375,0.03515625
2495,0.09765625,-1.03125,0.05078125
2496,0.09765625,-1.046875,0.03515625
2497,0.09765625,-1.0390625,0.0390625
2498,0.10546875,-1.04296875,0.02734375
2499,0.078125,-1.02734375,0.0078125
2500,0.08984375,-1.03125,0.01171875
2501,0.09375,-1.015625,0.0078125
2502,0.10546875,-1.015625,0.015625
2503,0.1171875,-1.01171875,0.00390625
2504,0.1328125,-0.99609375,0.015625
2505,0.1171875,-0.984375,0.015625
2506,0.1171875,-0.97265625,0.015625
2507,0.13671875,-0.9765625,0.015625
2508,0.1171875,-0.9765625,0.0
2509,0.12890625,-0.984375,-0.01171875
2510,0.109375,-0.984375,0.015625
2511,0.1171875,-1.0,0.01171875
2512,0.09375,-0.99609375,0.01171875
2513,0.1015625,-1.0078125,0.00390625
2514,0.09375,-1.0078125,-0.0078125
2515,0.0703125,-1.02734375,0.0
2516,0.078125,-1.0234375,-0.01171875
2517,0.0703125,-1.01171875,-0.02734375
2518,0.078125,-1.03125,-0.01953125
2519,0.06640625,-1.01953125,-0.03125
2520,0.0859375,-1.04296875,-0.046875
2521,0.05859375,-1.03515625,-0.0390625
2522,0.05859375,-1.04296875,-0.04296875
2523,0.0625,-1.03125,-0.05078125
2524,0.05078125,-1.02734375,-0.04296875
2525,0.0703125,-1.0390625,-0.03515625
2526,0.07421875,-1.02734375,-0.0546875
2527,0.0703125,-1.01953125,-0.04296875
2528,0.0703125,-1.02734375,-0.04296875
2529,0.0703125,-1.01171875,-0.0625
2530,0.078125,-1.02734375,-0.046875
2531,0.0546875,-1.0078125,-0.0625
2532,0.07421875,-1.00390625,-0.08203125
2533,0.0625,-1.015625,-0.0703125
2534,0.05078125,-1.0078125,-0.07421875
2535,0.05859375,-1.01953125,-0.09375
2536,0.04296875,-1.03515625,-0.0859375
2537,0.0078125,-1.01953125,-0.1015625
2538,0.046875,-1.03125,-0.10546875
2539,0.00390625,-1.02734375,-0.10546875
2540,0.015625,-1.015625,-0.12109375
2541,0.0078125,-1.01953125,-0.1328125
2542,0.0,-1.01953125,-0.1328125
2543,0.01171875,-1.015625,-0.14453125
2544,0.0,-1.01953125,-0.1328125
2545,-0.015625,-1.01171875,-0.15625
2546,-0.0234375,-1.0078125,-0.15625
2547,-0.01171875,-1.0234375,-0.16796875
2548,-0.02734375,-1.01171875,-0.1796875
2549,-0.02734375,-1.00390625,-0.16796875
2550,-0.0234375,-1.0078125,-0.18359375
2551,-0.02734375,-1.00390625,-0.17578125
2552,-0.0546875,-1.0078125,-0.17578125
2553,-0.07421875,-1.0078125,-0.18359375
2554,-0.046875,-1.0078125,-0.1796875
2555,-0.01953125,-1.01171875,-0.203125
2556,-0.05078125,-1.015625,-0.19921875
2557,-0.0390625,-1.015625,-0.203125
2558,-0.03125,-1.02734375,-0.1953125
2559,-0.03515625,-1.01171875,-0.21875
2560,-0.01171875,-1.01953125,-0.23046875
2561,-0.0390625,-1.0078125,-0.21875
2562,-0.03125,-1.01953125,-0.2265625
2563,-0.015625,-1.01171875,-0.23828125
2564,-0.02734375,-1.0078125,-0.23828125
2565,-0.015625,-1.01171875,-0.24609375
2566,-0.01953125,-1.015625,-0.25390625
2567,-0.04296875,-1.02734375,-0.25390625
2568,-0.09375,-1.01171875,-0.2421875
2569,-0.03515625,-1.0,-0.2421875
2570,-0.03125,-0.9921875,-0.265625
2571,-0.11328125,-0.99609375,-0.24609375
2572,-0.06640625,-0.9921875,-0.25390625
2573,-0.0703125,-0.9921875,-0.2578125
2574,-0.04296875,-0.99609375,-0.26171875
2575,-0.0859375,-0.98828125,-0.265625
2576,-0.0703125,-0.9921875,-0.265625
2577,-0.05859375,-0.99609375,-0.26953125
2578,-0.07421875,-0.9921875,-0.28125
2579,-0.06640625,-0.9921875,-0.26953125
2580,-0.09765625,-0.99609375,-0.26953125
2581,-0.05859375,-1.0,-0.26953125
2582,-0.07421875,-1.0,-0.26953125
2583,-0.06640625,-0.99609375,-0.2890625
2584,-0.0625,-1.0,-0.30078125
2585,-0.078125,-0.99609375,-0.30859375
2586,-0.04296875,-1.0,-0.30078125
2587,-0.0859375,-1.0,-0.30859375
2588,-0.05078125,-0.9921875,-0.30078125
2589,-0.08203125,-0.98828125,-0.3125
2590,-0.08984375,-0.97265625,-0.33203125
2591,-0.08203125,-0.9765625,-0.34765625
2592,-0.09375,-0.9765625,-0.328125
2593,-0.109375,-0.97265625,-0.33203125
2594,-0.109375,-0.96875,-0.3359375
2595,-0.10546875,-0.9765625,-0.359375
2596,-0.1171875,-0.9765625,-0.3515625
2597,-0.10546875,-0.9765625,-0.3671875
2598,-0.11328125,-0.97265625,-0.38671875
2599,-0.12109375,-0.96484375,-0.390625
2600,-0.1171875,-0.97265625,-0.40234375
2601,-0.11328125,-0.984375,-0.40234375
2602,-0.1171875,-0.9765625,-0.41015625
2603,-0.1171875,-0.97265625,-0.42578125
2604,-0.12109375,-0.9765625,-0.421875
2605,-0.1171875,-0.984375,-0.41015625
2606,-0.12109375,-0.9765625,-0.4140625
2607,-0.13671875,-0.9609375,-0.4140625
2608,-0.13671875,-0.96484375,-0.43359375
2609,-0.140625,-0.97265625,-0.41796875
2610,-0.140625,-0.96484375,-0.4375
2611,-0.140625,-0.9609375,-0.4140625
2612,-0.140625,-0.953125,-0.4140625
2613,-0.140625,-0.953125,-0.41796875
2614,-0.13671875,-0.94921875,-0.4140625
2615,-0.140625,-0.953125,-0.42578125
2616,-0.140625,-0.9609375,-0.44140625
2617,-0.13671875,-0.96484375,-0.4375
2618,-0.12109375,-0.96484375,-0.4453125
2619,-0.1328125,-0.96875,-0.4453125
2620,-0.1328125,-0.97265625,-0.44921875
2621,-0.15625,-0.98046875,-0.453125
2622,-0.14453125,-0.98046875,-0.47265625
2623,-0.1484375,-0.9765625,-0.484375
2624,-0.14453125,-0.9921875,-0.48828125
2625,-0.171875,-0.99609375,-0.4921875
2626,-0.19140625,-1.0,-0.4921875
2627,-0.20703125,-1.0078125,-0.49609375
2628,-0.2265625,-1.00390625,-0.49609375
2629,-0.2421875,-1.0234375,-0.48828125
2630,-0.2578125,-1.03515625,-0.5078125
2631,-0.25390625,-1.03125,-0.5078125
2632,-0.24609375,-1.05078125,-0.53125
2633,-0.2265625,-1.0625,-0.55078125
2634,-0.22265625,-1.0703125,-0.57421875
2635,-0.2109375,-1.0546875,-0.57421875
2636,-0.19921875,-1.0625,-0.59765625
2637,-0.1640625,-1.03515625,-0.58984375
2638,-0.1484375,-1.01953125,-0.61328125
2639,-0.14453125,-1.0078125,-0.625
2640,-0.1484375,-1.0,-0.63671875
2641,-0.17578125,-0.9765625,-0.6484375
2642,-0.203125,-0.94921875,-0.6484375
2643,-0.21875,-0.94921875,-0.6640625
2644,-0.21484375,-0.94921875,-0.67578125
2645,-0.20703125,-0.9453125,-0.69921875
2646,-0.2109375,-0.9453125,-0.69921875
2647,-0.2265625,-0.9375,-0.703125
2648,-0.2265625,-0.953125,-0.71484375
2649,-0.2421875,-0.94140625,-0.71484375
2650,-0.23828125,-0.9296875,-0.73828125
2651,-0.26171875,-0.94140625,-0.7265625
2652,-0.26171875,-0.93359375,-0.7421875
2653,-0.27734375,-0.9140625,-0.71875
2654,-0.29296875,-0.9140625,-0.734375
2655,-0.3125,-0.90234375,-0.734375
2656,-0.3203125,-0.90234375,-0.7421875
2657,-0.33203125,-0.890625,-0.74609375
2658,-0.33984375,-0.890625,-0.75
2659,-0.3125,-0.88671875,-0.75390625
2660,-0.3203125,-0.8828125,-0.75390625
2661,-0.33203125,-0.87890625,-0.76171875
2662,-0.3125,-0.89453125,-0.75390625
2663,-0.3125,-0.8984375,-0.75
2664,-0.3203125,-0.90234375,-0.76953125
2665,-0.3359375,-0.90234375,-0.7578125
2666,-0.33203125,-0.90234375,-0.7734375
2667,-0.3125,-0.90234375,-0.78515625
2668,-0.30078125,-0.890625,-0.7734375
2669,-0.2890625,-0.890625,-0.78515625
2670,-0.29296875,-0.87109375,-0.7890625
2671,-0.2734375,-0.8671875,-0.79296875
2672,-0.2734375,-0.859375,-0.7890625
2673,-0.27734375,-0.85546875,-0.78125
2674,-0.26171875,-0.84765625,-0.80078125
2675,-0.27734375,-0.84375,-0.7890625
2676,-0.2734375,-0.84765625,-0.76171875
2677,-0.26953125,-0.84375,-0.77734375
2678,-0.26171875,-0.84765625,-0.76953125
2679,-0.26953125,-0.84375,-0.7578125
2680,-0.25390625,-0.828125,-0.7578125
2681,-0.25,-0.83984375,-0.76171875
2682,-0.25,-0.8359375,-0.76953125
2683,-0.24609375,-0.83203125,-0.75390625
2684,-0.22265625,-0.83203125,-0.765625
2685,-0.22265625,-0.8203125,-0.7734375
2686,-0.2265625,-0.81640625,-0.76171875
2687,-0.23828125,-0.8046875,-0.78125
2688,-0.24609375,-0.8046875,-0.76171875
2689,-0.25390625,-0.8046875,-0.765625
2690,-0.23828125,-0.82421875,-0.76953125
2691,-0.2421875,-0.82421875,-0.77734375
2692,-0.2421875,-0.8046875,-0.80078125
2693,-0.24609375,-0.80859375,-0.765625
2694,-0.25,-0.79296875,-0.76171875
2695,-0.2578125,-0.78515625,-0.765625
2696,-0.25,-0.78515625,-0.75390625
2697,-0.25,-0.77734375,-0.75
2698,-0.25,-0.78515625,-0.7578125
2699,-0.25390625,-0.77734375,-0.75390625
2700,-0.2421875,-0.78125,-0.7578125
2701,-0.2421875,-0.76171875,-0.73828125
2702,-0.25,-0.7734375,-0.75
2703,-0.25,-0.7578125,-0.73828125
2704,-0.24609375,-0.76171875,-0.74609375
2705,-0.24609375,-0.7578125,-0.7578125
2706,-0.25,-0.75390625,-0.74609375
2707,-0.2578125,-0.75,-0.75
2708,-0.25,-0.75,-0.7578125
2709,-0.23828125,-0.74609375,-0.7578125
2710,-0.26953125,-0.734375,-0.75390625
2711,-0.2578125,-0.734375,-0.765625
2712,-0.2421875,-0.7265625,-0.76171875
2713,-0.2578125,-0.734375,-0.7578125
2714,-0.26171875,-0.734375,-0.7734375
2715,-0.2578125,-0.7265625,-0.765625
2716,-0.265625,-0.734375,-0.76953125
2717,-0.25,-0.73828125,-0.765625
2718,-0.2578125,-0.74609375,-0.76171875
2719,-0.2578125,-0.74609375,-0.76171875
2720,-0.265625,-0.75390625,-0.75390625
2721,-0.25390625,-0.7578125,-0.75390625
2722,-0.2421875,-0.75390625,-0.76953125
2723,-0.24609375,-0.76171875,-0.7734375
2724,-0.25,-0.76953125,-0.78125
2725,-0.25390625,-0.7578125,-0.79296875
2726,-0.25,-0.78125,-0.7890625
2727,-0.2421875,-0.7734375,-0.79296875
2728,-0.25,-0.77734375,-0.7890625
2729,-0.25,-0.765625,-0.7890625
2730,-0.24609375,-0.75,-0.7734375
2731,-0.23828125,-0.75,-0.78125
2732,-0.2421875,-0.75390625,-0.7734375
2733,-0.25,-0.734375,-0.76171875
2734,-0.23828125,-0.73046875,-0.765625
2735,-0.23828125,-0.7109375,-0.7734375
2736,-0.234375,-0.73046875,-0.76171875
2737,-0.23046875,-0.73046875,-0.76171875
2738,-0.23046875,-0.70703125,-0.7421875
2739,-0.22265625,-0.73828125,-0.75
2740,-0.21875,-0.79296875,-0.6875
2741,-0.23828125,-0.74609375,-0.7421875
2742,-0.23828125,-0.72265625,-0.75390625
2743,-0.234375,-0.72265625,-0.75
2744,-0.234375,-0.71875,-0.76171875
2745,-0.21484375,-0.73046875,-0.765625
2746,-0.23828125,-0.71484375,-0.75390625
2747,-0.23828125,-0.70703125,-0.74609375
2748,-0.24609375,-0.72265625,-0.7421875
2749,-0.23828125,-0.71875,-0.74609375
2750,-0.23828125,-0.72265625,-0.73828125
2751,-0.2421875,-0.7421875,-0.7109375
2752,-0.23828125,-0.71875,-0.75390625
2753,-0.24609375,-0.69921875,-0.74609375
2754,-0.23046875,-0.72265625,-0.7421875
2755,-0.2421875,-0.71484375,-0.72265625
2756,-0.23828125,-0.70703125,-0.73828125
2757,-0.23046875,-0.71484375,-0.73046875
2758,-0.22265625,-0.7265625,-0.73828125
2759,-0.23046875,-0.73046875,-0.734375
2760,-0.21875,-0.73046875,-0.71875
2761,-0.2265625,-0.7265625,-0.73046875
2762,-0.18359375,-0.75,-0.70703125
2763,-0.23046875,-0.7265625,-0.72265625
2764,-0.21484375,-0.734375,-0.7265625
2765,-0.2265625,-0.7265625,-0.7265625
2766,-0.22265625,-0.73828125,-0.73828125
2767,-0.21484375,-0.7265625,-0.73046875
2768,-0.2265625,-0.73828125,-0.71484375
2769,-0.23046875,-0.72265625,-0.71484375
2770,-0.22265625,-0.72265625,-0.70703125
2771,-0.234375,-0.7265625,-0.703125
2772,-0.23828125,-0.71484375,-0.703125
2773,-0.23046875,-0.734375,-0.671875
2774,-0.2421875,-0.73046875,-0.71484375
2775,-0.24609375,-0.734375,-0.7109375
2776,-0.2421875,-0.73828125,-0.70703125
2777,-0.2421875,-0.75,-0.70703125
2778,-0.22265625,-0.75,-0.7109375
2779,-0.2265625,-0.75,-0.703125
2780,-0.234375,-0.765625,-0.6953125
2781,-0.22265625,-0.76171875,-0.71484375
2782,-0.22265625,-0.76171875,-0.70703125
2783,-0.21484375,-0.76953125,-0.69140625
2784,-0.21484375,-0.77734375,-0.67578125
2785,-0.23046875,-0.77734375,-0.67578125
2786,-0.23046875,-0.78125,-0.6640625
2787,-0.2421875,-0.77734375,-0.66015625
2788,-0.234375,-0.79296875,-0.65625
2789,-0.24609375,-0.7890625,-0.66015625
2790,-0.24609375,-0.7890625,-0.65234375
2791,-0.23828125,-0.796875,-0.6640625
2792,-0.234375,-0.78515625,-0.66796875
2793,-0.234375,-0.80078125,-0.6640625
2794,-0.22265625,-0.81640625,-0.640625
2795,-0.23046875,-0.8125,-0.66015625
2796,-0.234375,-0.8125,-0.6484375
2797,-0.2265625,-0.81640625,-0.6484375
2798,-0.2265625,-0.82421875,-0.65234375
2799,-0.2265625,-0.8203125,-0.67578125
2800,-0.23046875,-0.828125,-0.66796875
2801,-0.21875,-0.81640625,-0.65234375
2802,-0.2265625,-0.81640625,-0.6640625
2803,-0.23828125,-0.83203125,-0.66796875
2804,-0.24609375,-0.81640625,-0.67578125
2805,-0.23828125,-0.84375,-0.63671875
2806,-0.24609375,-0.83203125,-0.6328125
2807,-0.24609375,-0.8359375,-0.6484375
2808,-0.25,-0.81640625,-0.6328125
2809,-0.23828125,-0.81640625,-0.640625
2810,-0.24609375,-0.796875,-0.63671875
2811,-0.25,-0.78515625,-0.6328125
2812,-0.2265625,-0.79296875,-0.65234375
2813,-0.2265625,-0.78125,-0.61328125
2814,-0.21875,-0.76953125,-0.6171875
2815,-0.21484375,-0.76953125,-0.6171875
2816,-0.23046875,-0.75390625,-0.62109375
2817,-0.22265625,-0.76171875,-0.62890625
2818,-0.234375,-0.7578125,-0.6328125
2819,-0.23046875,-0.76171875,-0.60546875
2820,-0.21875,-0.77734375,-0.62109375
2821,-0.23046875,-0.76171875,-0.62109375
2822,-0.2421875,-0.78125,-0.61328125
2823,-0.23828125,-0.78515625,-0.625
2824,-0.23828125,-0.78515625,-0.61328125
2825,-0.25,-0.78515625,-0.6171875
2826,-0.25,-0.78515625,-0.62109375
2827,-0.26171875,-0.78515625,-0.61328125
2828,-0.26171875,-0.77734375,-0.609375
2829,-0.26953125,-0.77734375,-0.61328125
2830,-0.2734375,-0.7734375,-0.6171875
2831,-0.27734375,-0.7734375,-0.6328125
2832,-0.28125,-0.76953125,-0.6328125
2833,-0.29296875,-0.765625,-0.6328125
2834,-0.28515625,-0.76171875,-0.640625
2835,-0.3203125,-0.74609375,-0.63671875
2836,-0.328125,-0.76171875,-0.6171875
2837,-0.33984375,-0.7578125,-0.62109375
2838,-0.3671875,-0.75,-0.62109375
2839,-0.37890625,-0.7578125,-0.61328125
2840,-0.36328125,-0.76171875,-0.59765625
2841,-0.359375,-0.7578125,-0.5859375
2842,-0.359375,-0.7734375,-0.56640625
2843,-0.34765625,-0.7890625,-0.5625
2844,-0.3359375,-0.80078125,-0.55859375
2845,-0.3125,-0.796875,-0.54296875
2846,-0.31640625,-0.7890625,-0.5546875
2847,-0.28515625,-0.80078125,-0.55859375
2848,-0.25390625,-0.7890625,-0.5703125
2849,-0.24609375,-0.80859375,-0.55859375
2850,-0.2265625,-0.79296875,-0.58203125
2851,-0.23046875,-0.79296875,-0.58203125
2852,-0.2265625,-0.79296875,-0.5703125
2853,-0.20703125,-0.78125,-0.55859375
2854,-0.203125,-0.7890625,-0.57421875
2855,-0.1953125,-0.78125,-0.58203125
2856,-0.23046875,-0.765625,-0.5703125
2857,-0.22265625,-0.7734375,-0.5703125
2858,-0.22265625,-0.78125,-0.58203125
2859,-0.2265625,-0.7890625,-0.5703125
2860,-0.23828125,-0.79296875,-0.57421875
2861,-0.23046875,-0.80078125,-0.55859375
2862,-0.21875,-0.81640625,-0.5703125
2863,-0.21875,-0.82421875,-0.58203125
2864,-0.203125,-0.84375,-0.58203125
2865,-0.1796875,-0.86328125,-0.58984375
2866,-0.17578125,-0.875,-0.59765625
2867,-0.140625,-0.87890625,-0.609375
2868,-0.13671875,-0.88671875,-0.61328125
2869,-0.12109375,-0.890625,-0.6171875
2870,-0.1015625,-0.890625,-0.60546875
2871,-0.0625,-0.90234375,-0.5859375
2872,-0.05078125,-0.91015625,-0.59375
2873,-0.03125,-0.9140625,-0.56640625
2874,-0.0078125,-0.91796875,-0.5703125
2875,0.00390625,-0.92578125,-0.5625
2876,0.00390625,-0.92578125,-0.5703125
2877,0.01953125,-0.921875,-0.5703125
2878,0.01171875,-0.9296875,-0.578125
2879,0.0078125,-0.9375,-0.58203125
2880,0.00390625,-0.921875,-0.578125
2881,0.01171875,-0.921875,-0.6015625
2882,0.0234375,-0.91796875,-0.60546875
2883,0.0078125,-0.9140625,-0.62890625
2884,0.00390625,-0.91796875,-0.6015625
2885,0.01171875,-0.92578125,-0.59375
2886,0.0,-0.92578125,-0.609375
2887,-0.015625,-0.94140625,-0.62109375
2888,-0.00390625,-0.9453125,-0.60546875
2889,-0.03125,-0.94140625,-0.60546875
2890,-0.046875,-0.95703125,-0.6015625
2891,-0.0546875,-0.95703125,-0.61328125
2892,-0.0625,-0.9453125,-0.60546875
2893,-0.08203125,-0.9609375,-0.60546875
2894,-0.09375,-0.953125,-0.59375
2895,-0.09765625,-0.95703125,-0.59765625
2896,-0.1328125,-0.94921875,-0.59375
2897,-0.12890625,-0.9453125,-0.58984375
2898,-0.1484375,-0.94140625,-0.58203125
2899,-0.16015625,-0.92578125,-0.58984375
2900,-0.1875,-0.91796875,-0.578125
2901,-0.1953125,-0.921875,-0.5546875
2902,-0.20703125,-0.89453125,-0.56640625
2903,-0.20703125,-0.890625,-0.5703125
2904,-0.2109375,-0.890625,-0.55859375
2905,-0.22265625,-0.87890625,-0.5546875
2906,-0.234375,-0.87109375,-0.546875
2907,-0.23828125,-0.86328125,-0.5390625
2908,-0.2421875,-0.87890625,-0.53515625
2909,-0.23828125,-0.88671875,-0.53125
2910,-0.2421875,-0.90234375,-0.5234375
2911,-0.24609375,-0.890625,-0.53515625
2912,-0.23828125,-0.90234375,-0.51953125
2913,-0.21484375,-0.90625,-0.52734375
2914,-0.20703125,-0.8984375,-0.53515625
2915,-0.19140625,-0.90625,-0.53125
2916,-0.17578125,-0.91796875,-0.546875
2917,-0.1640625,-0.9140625,-0.5234375
2918,-0.1484375,-0.89453125,-0.5234375
2919,-0.1640625,-0.8984375,-0.515625
2920,-0.14453125,-0.89453125,-0.50390625
2921,-0.13671875,-0.87109375,-0.49609375
2922,-0.12890625,-0.86328125,-0.5
2923,-0.1328125,-0.8515625,-0.4921875
2924,-0.1171875,-0.83984375,-0.5078125
2925,-0.12890625,-0.83984375,-0.50390625
2926,-0.1328125,-0.8359375,-0.5
2927,-0.12109375,-0.8203125,-0.4921875
2928,-0.10546875,-0.84765625,-0.4921875
2929,-0.12109375,-0.859375,-0.4921875
2930,-0.125,-0.85546875,-0.4921875
2931,-0.12109375,-0.8828125,-0.48046875
2932,-0.1015625,-0.90625,-0.4921875
2933,-0.1171875,-0.92578125,-0.50390625
2934,-0.1015625,-0.9296875,-0.50390625
2935,-0.08984375,-0.96484375,-0.5
2936,-0.07421875,-0.9609375,-0.49609375
2937,-0.06640625,-0.98046875,-0.5
2938,-0.05078125,-0.99609375,-0.48046875
2939,-0.046875,-0.99609375,-0.4765625
2940,-0.07421875,-1.0,-0.45703125
2941,-0.08984375,-0.99609375,-0.42578125
2942,-0.1015625,-0.98828125,-0.4375
2943,-0.12890625,-0.97265625,-0.421875
2944,-0.140625,-0.953125,-0.3984375
2945,-0.14453125,-0.93359375,-0.4140625
2946,-0.16015625,-0.91015625,-0.4296875
2947,-0.1796875,-0.90234375,-0.4296875
2948,-0.1796875,-0.90625,-0.4609375
2949,-0.1640625,-0.87109375,-0.46484375
2950,-0.14453125,-0.890625,-0.46484375
2951,-0.13671875,-0.89453125,-0.4765625
2952,-0.125,-0.91796875,-0.46484375
2953,-0.109375,-0.94140625,-0.4765625
2954,-0.09375,-0.95703125,-0.48046875
2955,-0.0625,-0.96875,-0.48046875
2956,-0.046875,-0.98828125,-0.484375
2957,-0.02734375,-0.9921875,-0.4765625
2958,0.0,-1.0,-0.46875
2959,-0.00390625,-1.01171875,-0.48828125
2960,0.0078125,-1.01171875,-0.4921875
2961,0.0,-1.0,-0.48046875
2962,0.0,-1.0078125,-0.484375
2963,-0.00390625,-0.99609375,-0.46484375
2964,-0.015625,-0.99609375,-0.47265625
2965,-0.03125,-1.0,-0.45703125
2966,-0.046875,-0.99609375,-0.44921875
2967,-0.04296875,-1.00390625,-0.45703125
2968,-0.05859375,-1.0,-0.45703125
2969,-0.0546875,-1.02734375,-0.45703125
2970,-0.0546875,-1.01953125,-0.4609375
2971,-0.0546875,-1.03125,-0.4609375
2972,-0.0390625,-1.02734375,-0.44140625
2973,-0.04296875,-1.015625,-0.45703125
2974,-0.02734375,-1.0234375,-0.453125
2975,0.0,-1.015625,-0.4609375
2976,0.0,-0.99609375,-0.44921875
2977,0.01171875,-0.9765625,-0.46875
2978,0.03125,-0.96484375,-0.46484375
2979,0.0546875,-0.95703125,-0.44921875
2980,0.05859375,-0.94921875,-0.44921875
2981,0.0703125,-0.94921875,-0.4453125
2982,0.078125,-0.9296875,-0.421875
2983,0.0859375,-0.9296875,-0.42578125
2984,0.078125,-0.93359375,-0.4296875
2985,0.0703125,-0.9453125,-0.43359375
2986,0.06640625,-0.94140625,-0.42578125
2987,0.03515625,-0.94140625,-0.421875
2988,0.02734375,-0.953125,-0.43359375
2989,0.00390625,-0.94921875,-0.42578125
2990,-0.015625,-0.96875,-0.4375
2991,-0.03515625,-0.95703125,-0.44140625
2992,-0.046875,-0.96875,-0.4609375
2993,-0.078125,-0.9765625,-0.49609375
2994,-0.08984375,-0.98046875,-0.5078125
2995,-0.109375,-1.0,-0.5078125
2996,-0.13671875,-1.00390625,-0.5234375
2997,-0.1328125,-1.02734375,-0.51171875
2998,-0.14453125,-1.0703125,-0.5234375
2999,-0.1875,-1.09375,-0.5234375
3000,-0.23046875,-1.10546875,-0.51953125
3001,-0.234375,-1.1171875,-0.5234375
3002,-0.2265625,-1.12109375,-0.5390625
3003,-0.20703125,-1.10546875,-0.58203125
3004,-0.171875,-1.08203125,-0.609375
3005,-0.140625,-1.0546875,-0.63671875
3006,-0.140625,-1.02734375,-0.671875
3007,-0.1171875,-1.00390625,-0.68359375
3008,-0.1015625,-0.96875,-0.671875
3009,-0.078125,-0.96875,-0.6875
3010,-0.03515625,-0.9453125,-0.66796875
3011,-0.01171875,-0.953125,-0.65625
3012,0.0078125,-0.953125,-0.62109375
3013,0.02734375,-0.95703125,-0.5859375
3014,0.07421875,-0.984375,-0.5625
3015,0.09765625,-1.0,-0.53125
3016,0.13671875,-0.9921875,-0.5078125
3017,0.1875,-0.9921875,-0.49609375
3018,0.22265625,-1.0,-0.48828125
3019,0.2421875,-0.98046875,-0.48828125
3020,0.2734375,-0.98046875,-0.47265625
3021,0.2890625,-0.96484375,-0.46875
3022,0.3046875,-0.9453125,-0.453125
3023,0.21484375,-0.96484375,-0.46875
3024,0.28125,-0.94140625,-0.48046875
3025,0.25390625,-0.92578125,-0.484375
3026,0.23828125,-0.94140625,-0.48828125
3027,0.21875,-0.9375,-0.46875
3028,0.18359375,-0.93359375,-0.46875
3029,0.16796875,-0.94921875,-0.47265625
3030,0.15234375,-0.95703125,-0.453125
3031,0.1328125,-0.97265625,-0.4609375
3032,0.12109375,-0.9609375,-0.45703125
3033,0.11328125,-0.9609375,-0.4609375
3034,0.08984375,-0.9140625,-0.49609375
3035,0.11328125,-0.9453125,-0.4609375
3036,0.12109375,-0.9375,-0.4765625
3037,0.11328125,-0.9140625,-0.48046875
3038,0.1015625,-0.90234375,-0.48828125
3039,0.11328125,-0.90234375,-0.484375
3040,0.11328125,-0.90234375,-0.48828125
3041,0.1015625,-0.8984375,-0.50390625
3042,0.1015625,-0.91015625,-0.49609375
3043,0.109375,-0.90625,-0.50390625
3044,0.08984375,-0.91796875,-0.51953125
3045,0.11328125,-0.89453125,-0.53125
3046,0.0859375,-0.91796875,-0.50390625
3047,0.07421875,-0.9296875,-0.5234375
3048,0.06640625,-0.9453125,-0.53125
3049,0.06640625,-0.94140625,-0.5390625
3050,0.0546875,-0.94140625,-0.55078125
3051,0.0546875,-0.93359375,-0.53125
3052,0.05078125,-0.9375,-0.5625
3053,0.046875,-0.93359375,-0.55859375
3054,0.0390625,-0.94140625,-0.5546875
3055,0.01953125,-0.92578125,-0.55859375
3056,0.03515625,-0.92578125,-0.58984375
3057,0.03515625,-0.91796875,-0.53125
3058,0.01953125,-0.91015625,-0.53125
3059,0.03515625,-0.9140625,-0.546875
3060,0.02734375,-0.921875,-0.51953125
3061,0.03515625,-0.90625,-0.53125
3062,0.0390625,-0.91015625,-0.54296875
3063,0.05078125,-0.8984375,-0.52734375
3064,0.0546875,-0.89453125,-0.5234375
3065,0.0625,-0.89453125,-0.5078125
3066,0.08203125,-0.890625,-0.515625
3067,0.08984375,-0.88671875,-0.50390625
3068,0.11328125,-0.875,-0.51953125
3069,0.125,-0.87890625,-0.51171875
3070,0.13671875,-0.88671875,-0.49609375
3071,0.14453125,-0.89453125,-0.4921875
3072,0.15625,-0.90234375,-0.5
3073,0.15234375,-0.91015625,-0.48828125
3074,0.15234375,-0.93359375,-0.48828125
3075,0.15234375,-0.96484375,-0.48828125
3076,0.15234375,-0.9765625,-0.48046875
3077,0.15625,-0.98828125,-0.46875
3078,0.15234375,-1.0078125,-0.4609375
3079,0.1484375,-1.03125,-0.4453125
3080,0.12890625,-1.03515625,-0.4453125
3081,0.11328125,-1.03515625,-0.45703125
3082,0.109375,-1.05859375,-0.4453125
3083,0.09765625,-1.0625,-0.4453125
3084,0.08203125,-1.0703125,-0.45703125
3085,0.0703125,-1.0625,-0.46484375
3086,0.05859375,-1.05859375,-0.48046875
3087,0.0546875,-1.04296875,-0.46875
3088,0.05078125,-1.046875,-0.484375
3089,0.046875,-1.03125,-0.484375
3090,0.05078125,-1.03125,-0.47265625
3091,0.05078125,-1.0234375,-0.46875
3092,0.05859375,-1.01171875,-0.484375
3093,0.0625,-1.00390625,-0.47265625
3094,0.07421875,-1.00390625,-0.47265625
3095,0.08203125,-1.0,-0.47265625
3096,0.09375,-0.98828125,-0.4609375
3097,0.09375,-0.98046875,-0.4765625
3098,0.1015625,-0.98046875,-0.47265625
3099,0.09375,-0.96875,-0.45703125
3100,0.09765625,-0.98046875,-0.45703125
3101,0.1015625,-0.9765625,-0.4453125
3102,0.1015625,-0.96484375,-0.44921875
3103,0.10546875,-0.96484375,-0.453125
3104,0.109375,-0.9765625,-0.4375
3105,0.109375,-0.97265625,-0.44921875
3106,0.1171875,-0.96484375,-0.43359375
3107,0.109375,-0.98046875,-0.44140625
3108,0.09375,-0.96484375,-0.41796875
3109,0.08203125,-0.9765625,-0.41796875
3110,0.1015625,-0.98046875,-0.4296875
3111,0.08203125,-0.98046875,-0.41796875
3112,0.0859375,-0.98828125,-0.41015625
3113,0.07421875,-0.98828125,-0.421875
3114,0.07421875,-0.984375,-0.40234375
3115,0.078125,-0.9921875,-0.4140625
3116,0.07421875,-0.98828125,-0.40234375
3117,0.0703125,-0.9765625,-0.41015625
3118,0.06640625,-0.98046875,-0.38671875
3119,0.06640625,-0.984375,-0.39453125
3120,0.06640625,-0.984375,-0.38671875
3121,0.0625,-0.98046875,-0.37890625
3122,0.046875,-0.97265625,-0.38671875
3123,0.05859375,-0.984375,-0.375
3124,0.0546875,-0.96875,-0.40234375
3125,0.0625,-0.96875,-0.39453125
3126,0.06640625,-0.96875,-0.39453125
3127,0.078125,-0.9765625,-0.40234375
3128,0.078125,-0.95703125,-0.42578125
3129,0.07421875,-0.95703125,-0.39453125
3130,0.09375,-0.95703125,-0.4296875
3131,0.0859375,-0.95703125,-0.41796875
3132,0.09375,-0.95703125,-0.4296875
3133,0.09765625,-0.94921875,-0.421875
3134,0.109375,-0.9375,-0.421875
3135,0.09765625,-0.94140625,-0.421875
3136,0.09765625,-0.9375,-0.42578125
3137,0.09765625,-0.93359375,-0.42578125
3138,0.125,-0.94921875,-0.421875
3139,0.12890625,-0.95703125,-0.44140625
3140,0.140625,-0.9765625,-0.4296875
3141,0.125,-0.98828125,-0.43359375
3142,0.125,-1.0078125,-0.42578125
3143,0.125,-1.03515625,-0.4296875
3144,0.12109375,-1.02734375,-0.4453125
3145,0.125,-1.03515625,-0.45703125
3146,0.109375,-1.04296875,-0.46484375
3147,0.12109375,-1.0625,-0.48046875
3148,0.1015625,-1.06640625,-0.4765625
3149,0.0859375,-1.0625,-0.49609375
3150,0.0703125,-1.046875,-0.5
3151,0.0859375,-1.046875,-0.5078125
3152,0.0703125,-1.0234375,-0.50390625
3153,0.09765625,-1.015625,-0.50390625
3154,0.08203125,-1.015625,-0.50390625
3155,0.0859375,-1.01953125,-0.5078125
3156,0.0625,-1.0234375,-0.50390625
3157,0.0546875,-1.01953125,-0.50390625
3158,0.04296875,-1.01171875,-0.50390625
3159,0.046875,-1.01171875,-0.50390625
3160,0.0625,-1.01171875,-0.5078125
3161,0.06640625,-1.015625,-0.50390625
3162,0.0859375,-1.0078125,-0.515625
3163,0.08203125,-1.0,-0.515625
3164,0.0859375,-0.98828125,-0.52734375
3165,0.1015625,-0.99609375,-0.51171875
3166,0.08984375,-0.984375,-0.5
3167,0.0859375,-0.97265625,-0.48828125
3168,0.08984375,-0.953125,-0.4921875
3169,0.0859375,-0.92578125,-0.484375
3170,0.078125,-0.92578125,-0.4765625
3171,0.08203125,-0.92578125,-0.46484375
3172,0.05078125,-0.8984375,-0.4609375
3173,0.0546875,-0.91015625,-0.43359375
3174,0.04296875,-0.9140625,-0.43359375
3175,0.03515625,-0.91015625,-0.43359375
3176,0.02734375,-0.91796875,-0.44140625
3177,0.0078125,-0.92578125,-0.44921875
3178,0.0234375,-0.93359375,-0.4453125
3179,0.0078125,-0.9375,-0.453125
3180,0.0234375,-0.9453125,-0.44921875
3181,0.01171875,-0.9453125,-0.453125
3182,0.02734375,-0.95703125,-0.44140625
3183,0.02734375,-0.9609375,-0.4453125
3184,0.03515625,-0.953125,-0.453125
3185,0.04296875,-0.94921875,-0.45703125
3186,0.05078125,-0.953125,-0.453125
3187,0.04296875,-0.953125,-0.47265625
3188,0.04296875,-0.9609375,-0.45703125
3189,0.05078125,-0.953125,-0.4609375
3190,0.0625,-0.96875,-0.47265625
3191,0.0625,-0.96875,-0.453125
3192,0.0546875,-0.97265625,-0.45703125
3193,0.0625,-0.97265625,-0.46484375
3194,0.05859375,-0.98046875,-0.46484375
3195,0.0546875,-0.98046875,-0.46875
3196,0.05078125,-0.984375,-0.46484375
3197,0.06640625,-0.9921875,-0.46484375
3198,0.05859375,-1.0,-0.47265625
3199,0.05078125,-0.9921875,-0.46484375
3200,0.05859375,-0.98828125,-0.4609375
3201,0.0546875,-0.98828125,-0.46484375
3202,0.0546875,-0.9921875,-0.46875
3203,0.0546875,-0.98828125,-0.484375
3204,0.0625,-0.9921875,-0.4765625
3205,0.046875,-0.98046875,-0.4765625
3206,0.05859375,-0.9765625,-0.47265625
3207,0.0546875,-0.98046875,-0.48828125
3208,0.0546875,-0.96875,-0.4921875
3209,0.0625,-0.96875,-0.484375
3210,0.0625,-0.97265625,-0.48046875
3211,0.0546875,-0.97265625,-0.4765625
3212,0.046875,-0.9765625,-0.4765625
3213,0.0390625,-0.984375,-0.4765625
3214,0.03125,-0.9765625,-0.48046875
3215,0.0390625,-0.99609375,-0.45703125
3216,0.01953125,-0.9921875,-0.453125
3217,0.0234375,-0.98828125,-0.45703125
3218,0.01171875,-0.98828125,-0.44140625
3219,0.0,-0.99609375,-0.4453125
3220,0.0,-0.99609375,-0.453125
3221,-0.01171875,-1.0,-0.44140625
3222,-0.00390625,-0.9921875,-0.44140625
3223,-0.00390625,-1.00390625,-0.4296875
3224,-0.015625,-1.0078125,-0.43359375
3225,-0.01171875,-1.0,-0.42578125
3226,-0.01953125,-1.0,-0.42578125
3227,-0.0078125,-1.00390625,-0.43359375
3228,-0.0078125,-0.9921875,-0.421875
3229,-0.00390625,-1.0,-0.41015625
3230,-0.0078125,-0.98828125,-0.40625
3231,0.0,-0.98828125,-0.41015625
3232,0.0,-0.984375,-0.4140625
3233,0.00390625,-0.9765625,-0.421875
3234,0.015625,-0.9765625,-0.41015625
3235,0.01171875,-0.9765625,-0.40234375
3236,0.0078125,-0.9765625,-0.4140625
3237,0.015625,-0.9765625,-0.42578125
3238,0.015625,-0.9765625,-0.4140625
3239,0.0234375,-0.96875,-0.4140625
3240,0.02734375,-0.96875,-0.43359375
3241,0.04296875,-0.98828125,-0.41796875
3242,0.0234375,-0.98046875,-0.421875
3243,0.03125,-0.984375,-0.43359375
3244,0.01953125,-0.98046875,-0.4296875
3245,0.02734375,-0.984375,-0.4375
3246,0.02734375,-0.98046875,-0.41796875
3247,0.02734375,-0.984375,-0.41796875
3248,0.02734375,-0.97265625,-0.4453125
3249,0.03515625,-0.9765625,-0.44140625
3250,0.03515625,-0.9921875,-0.4296875
3251,0.02734375,-0.984375,-0.4453125
3252,0.0390625,-0.98046875,-0.4296875
3253,0.03515625,-0.98046875,-0.43359375
3254,0.03515625,-0.9921875,-0.4453125
3255,0.05078125,-0.9921875,-0.4375
3256,0.0390625,-0.98828125,-0.43359375
3257,0.0390625,-0.984375,-0.4453125
3258,0.03125,-0.984375,-0.44140625
3259,0.0390625,-0.98828125,-0.4375
3260,0.03515625,-0.984375,-0.4375
3261,0.03125,-0.98828125,-0.43359375
