,accelerometerAccelerationX(G),accelerometerAccelerationY(G),accelerometerAccelerationZ(G)
0,0.1015625,-0.99609375,-0.1015625
1,0.09765625,-1.0,-0.08984375
2,0.08984375,-1.0078125,-0.12109375
3,0.0859375,-0.99609375,-0.109375
4,0.08203125,-1.0,-0.10546875
5,0.08984375,-0.99609375,-0.1171875
6,0.07421875,-1.0,-0.125
7,0.0703125,-1.0078125,-0.12109375
8,0.0703125,-1.01171875,-0.12890625
9,0.05859375,-1.01171875,-0.125
10,0.0625,-1.01171875,-0.13671875
11,0.05078125,-1.02734375,-0.14453125
12,0.046875,-1.0234375,-0.15234375
13,0.05859375,-1.015625,-0.15234375
14,0.046875,-1.01953125,-0.13671875
15,0.0390625,-1.01171875,-0.15234375
16,0.05078125,-1.015625,-0.15625
17,0.06640625,-1.01953125,-0.15234375
18,0.0546875,-1.0234375,-0.14453125
19,0.046875,-1.01171875,-0.15625
20,0.0546875,-1.015625,-0.15234375
21,0.05078125,-1.01171875,-0.15234375
22,0.05859375,-1.015625,-0.1328125
23,0.0546875,-1.01171875,-0.15625
24,0.0625,-1.01171875,-0.14453125
25,0.06640625,-1.015625,-0.13671875
26,0.06640625,-1.01171875,-0.14453125
27,0.05859375,-1.01953125,-0.1328125
28,0.05859375,-1.01171875,-0.14453125
29,0.08203125,-1.00390625,-0.15625
30,0.078125,-1.00390625,-0.13671875
31,0.0703125,-1.0078125,-0.140625
32,0.078125,-0.99609375,-0.15234375
33,0.0703125,-1.00390625,-0.15625
34,0.07421875,-1.0,-0.14453125
35,0.078125,-1.0078125,-0.16015625
36,0.08203125,-1.0,-0.16015625
37,0.07421875,-1.0,-0.1640625
38,0.07421875,-1.01171875,-0.1640625
39,0.06640625,-1.0,-0.17578125
40,0.0625,-1.00390625,-0.18359375
41,0.05859375,-1.0078125,-0.1796875
42,0.046875,-1.01953125,-0.1796875
43,0.0546875,-1.01953125,-0.1875
44,0.0625,-1.0234375,-0.1796875
45,0.0546875,-1.04296875,-0.17578125
46,0.0390625,-1.02734375,-0.19140625
47,0.0546875,-1.03515625,-0.19921875
48,0.015625,-1.0390625,-0.19140625
49,0.04296875,-1.02734375,-0.203125
50,0.0546875,-1.02734375,-0.2265625
51,0.0546875,-1.0390625,-0.21875
52,0.0546875,-1.03125,-0.21484375
53,0.0546875,-1.0390625,-0.23828125
54,0.0546875,-1.0234375,-0.234375
55,0.0625,-1.03125,-0.23828125
56,0.05078125,-1.01953125,-0.234375
57,0.05859375,-1.02734375,-0.2421875
58,0.0625,-1.02734375,-0.25
59,0.08203125,-1.03125,-0.26171875
60,0.0546875,-1.015625,-0.25390625
61,0.0546875,-1.0234375,-0.28125
62,0.046875,-1.03125,-0.28125
63,0.05078125,-1.03515625,-0.28515625
64,0.03515625,-1.0390625,-0.2734375
65,0.046875,-1.0546875,-0.28515625
66,0.05078125,-1.0546875,-0.28515625
67,0.05078125,-1.04296875,-0.26953125
68,0.03125,-1.04296875,-0.2734375
69,0.05078125,-1.05078125,-0.27734375
70,0.03125,-1.04296875,-0.265625
71,0.03125,-1.0390625,-0.28515625
72,0.0390625,-1.04296875,-0.28125
73,0.03515625,-1.0390625,-0.28125
74,0.03125,-1.02734375,-0.28515625
75,0.0234375,-1.0390625,-0.29296875
76,0.01171875,-1.01171875,-0.29296875
77,0.01171875,-1.00390625,-0.3125
78,0.0234375,-1.0,-0.3125
79,-0.01171875,-1.01953125,-0.2890625
80,0.0234375,-0.984375,-0.3125
81,0.03125,-0.984375,-0.328125
82,0.02734375,-0.984375,-0.3203125
83,0.0234375,-0.984375,-0.33984375
84,0.04296875,-0.984375,-0.34765625
85,0.05078125,-0.99609375,-0.3515625
86,0.0546875,-1.00390625,-0.35546875
87,0.0625,-1.0234375,-0.37890625
88,0.05859375,-1.0390625,-0.359375
89,0.0625,-1.0390625,-0.37109375
90,0.05859375,-1.02734375,-0.39453125
91,0.0625,-1.046875,-0.3515625
92,0.08203125,-1.0546875,-0.33984375
93,0.0703125,-1.0625,-0.34375
94,0.06640625,-1.06640625,-0.3671875
95,0.08984375,-1.0625,-0.34765625
96,0.07421875,-1.04296875,-0.33984375
97,0.06640625,-1.046875,-0.34765625
98,0.05859375,-1.03515625,-0.3515625
99,0.06640625,-1.02734375,-0.35546875
100,0.05078125,-1.02734375,-0.33984375
101,0.07421875,-1.0234375,-0.3359375
102,0.05859375,-1.0078125,-0.328125
103,0.0625,-1.0078125,-0.34375
104,0.06640625,-1.00390625,-0.3203125
105,0.0859375,-1.0,-0.3046875
106,0.078125,-1.00390625,-0.30859375
107,0.06640625,-1.00390625,-0.30078125
108,0.0703125,-0.99609375,-0.28125
109,0.078125,-1.01953125,-0.30078125
110,0.08203125,-1.0078125,-0.296875
111,0.0625,-1.00390625,-0.296875
112,0.06640625,-1.01953125,-0.28515625
113,0.08984375,-1.00390625,-0.2734375
114,0.0859375,-1.00390625,-0.28125
115,0.078125,-1.0078125,-0.2890625
116,0.07421875,-1.00390625,-0.28515625
117,0.078125,-1.01171875,-0.2890625
118,0.07421875,-1.01171875,-0.27734375
119,0.07421875,-1.01953125,-0.28515625
120,0.0703125,-1.01953125,-0.29296875
121,0.0703125,-1.0234375,-0.28125
122,0.0703125,-1.0234375,-0.3046875
123,0.07421875,-1.02734375,-0.29296875
124,0.06640625,-1.03125,-0.27734375
125,0.06640625,-1.0234375,-0.296875
126,0.06640625,-1.03125,-0.28125
127,0.07421875,-1.02734375,-0.28515625
128,0.0625,-1.0234375,-0.27734375
129,0.06640625,-1.02734375,-0.296875
130,0.0625,-1.0234375,-0.26171875
131,0.0625,-1.0234375,-0.265625
132,0.0703125,-1.03515625,-0.28125
133,0.06640625,-1.01953125,-0.26953125
134,0.10546875,-1.0234375,-0.26953125
135,0.05859375,-1.015625,-0.27734375
136,0.05859375,-1.01953125,-0.28515625
137,0.06640625,-1.015625,-0.27734375
138,0.05859375,-1.01171875,-0.2734375
139,0.05859375,-1.0234375,-0.27734375
140,0.0546875,-1.0234375,-0.265625
141,0.06640625,-1.015625,-0.28515625
142,0.05859375,-1.01171875,-0.27734375
143,0.05859375,-1.0234375,-0.2734375
144,0.0625,-1.01171875,-0.28515625
145,0.0703125,-1.015625,-0.2734375
146,0.05859375,-1.01171875,-0.265625
147,0.0625,-1.0078125,-0.28125
148,0.05859375,-1.01953125,-0.26953125
149,0.06640625,-1.01171875,-0.27734375
150,0.0625,-1.01953125,-0.27734375
151,0.05859375,-1.015625,-0.2734375
152,0.0625,-1.02734375,-0.26953125
153,0.0546875,-1.01171875,-0.27734375
154,0.05859375,-1.02734375,-0.26953125
155,0.04296875,-1.01953125,-0.26953125
156,0.09375,-1.06640625,-0.27734375
157,0.05859375,-1.0234375,-0.29296875
158,0.0625,-1.0234375,-0.2890625
159,0.0546875,-1.0234375,-0.296875
160,0.05078125,-1.0078125,-0.28125
161,0.05859375,-1.03125,-0.27734375
162,0.05078125,-1.02734375,-0.28125
163,0.0546875,-1.01171875,-0.28515625
164,0.05078125,-1.01171875,-0.27734375
165,0.0546875,-0.984375,-0.29296875
166,0.046875,-1.01171875,-0.28125
167,0.0546875,-1.0078125,-0.2890625
168,0.0546875,-1.00390625,-0.28125
169,0.05859375,-1.00390625,-0.2734375
170,0.0546875,-0.99609375,-0.26953125
171,0.05078125,-0.9921875,-0.2734375
172,0.05859375,-0.98828125,-0.29296875
173,0.06640625,-0.984375,-0.2734375
174,0.05859375,-0.984375,-0.27734375
175,0.05859375,-0.97265625,-0.28515625
176,0.10546875,-0.9375,-0.3125
177,0.0625,-0.97265625,-0.26953125
178,0.0546875,-0.96875,-0.2734375
179,0.07421875,-0.98828125,-0.28515625
180,0.06640625,-0.98828125,-0.26953125
181,0.06640625,-0.98828125,-0.26171875
182,0.0625,-1.0078125,-0.2578125
183,0.06640625,-1.00390625,-0.265625
184,0.0625,-1.01953125,-0.25390625
185,0.0703125,-1.03125,-0.26171875
186,0.0625,-1.03515625,-0.2421875
187,0.05078125,-1.03125,-0.24609375
188,0.05859375,-1.0234375,-0.25390625
189,0.0390625,-1.0390625,-0.2578125
190,0.046875,-1.03515625,-0.2734375
191,0.05859375,-1.04296875,-0.265625
192,0.046875,-1.03515625,-0.2734375
193,0.05859375,-1.03515625,-0.26171875
194,0.05078125,-1.03515625,-0.26171875
195,0.0546875,-1.03125,-0.25390625
196,0.0703125,-1.0390625,-0.265625
197,0.0546875,-1.0390625,-0.26171875
198,0.0703125,-1.0546875,-0.25
199,0.0546875,-1.03515625,-0.27734375
200,0.05859375,-1.04296875,-0.25
201,0.046875,-1.046875,-0.25
202,0.05078125,-1.0390625,-0.25
203,0.0546875,-1.0390625,-0.25
204,0.0390625,-1.03515625,-0.2421875
205,0.05078125,-1.03125,-0.2421875
206,0.046875,-1.01953125,-0.2578125
207,0.0625,-1.01953125,-0.2421875
208,0.05078125,-1.015625,-0.24609375
209,0.0390625,-1.015625,-0.26171875
210,0.04296875,-1.01953125,-0.25390625
211,0.0546875,-1.01171875,-0.25
212,0.0625,-1.00390625,-0.25390625
213,0.0546875,-1.0,-0.25
214,0.05078125,-1.0078125,-0.25390625
215,0.05078125,-1.0078125,-0.26171875
216,0.05078125,-1.00390625,-0.265625
217,0.046875,-1.00390625,-0.26171875
218,0.0625,-1.0078125,-0.26171875
219,0.0546875,-1.00390625,-0.25390625
220,0.04296875,-0.98828125,-0.28515625
221,0.0625,-1.0078125,-0.2578125
222,0.0390625,-1.00390625,-0.2578125
223,0.0546875,-1.00390625,-0.2578125
224,0.0546875,-1.015625,-0.26171875
225,0.0546875,-1.00390625,-0.25
226,0.05078125,-1.00390625,-0.25390625
227,0.0546875,-1.00390625,-0.2578125
228,0.0546875,-1.00390625,-0.25
229,0.05859375,-1.0078125,-0.25
230,0.0625,-1.0078125,-0.2578125
231,0.0546875,-1.0078125,-0.25
232,0.05859375,-1.01171875,-0.25390625
233,0.06640625,-1.01171875,-0.26171875
234,0.0546875,-1.01953125,-0.2578125
235,0.0546875,-1.015625,-0.2421875
236,0.0703125,-1.01953125,-0.25390625
237,0.0625,-1.0234375,-0.2578125
238,0.078125,-1.02734375,-0.2578125
239,0.06640625,-1.02734375,-0.25
240,0.07421875,-1.0390625,-0.25390625
241,0.0703125,-1.02734375,-0.265625
242,0.046875,-1.04296875,-0.26171875
243,0.06640625,-1.0390625,-0.23828125
244,0.06640625,-1.03125,-0.25390625
245,0.0546875,-1.0234375,-0.25390625
246,0.0546875,-1.01953125,-0.2578125
247,0.0546875,-1.01171875,-0.24609375
248,0.0625,-1.0234375,-0.23828125
249,0.0703125,-1.01953125,-0.24609375
250,0.05078125,-1.015625,-0.2421875
251,0.046875,-1.00390625,-0.2421875
252,0.046875,-1.00390625,-0.234375
253,0.05078125,-1.00390625,-0.2421875
254,0.0625,-1.0078125,-0.25
255,0.0546875,-1.0078125,-0.2421875
256,0.0546875,-1.00390625,-0.2421875
257,0.0546875,-1.0,-0.234375
258,0.05859375,-1.00390625,-0.23828125
259,0.0546875,-0.9921875,-0.2421875
260,0.05859375,-1.0078125,-0.23828125
261,0.0703125,-1.01953125,-0.23828125
262,0.06640625,-1.01953125,-0.234375
263,0.0625,-0.9921875,-0.29296875
264,0.0625,-1.0234375,-0.2265625
265,0.06640625,-1.01171875,-0.23828125
266,0.05859375,-1.0234375,-0.21484375
267,0.06640625,-1.0390625,-0.234375
268,0.0625,-1.01953125,-0.234375
269,0.05859375,-1.0234375,-0.23828125
270,0.05859375,-1.01171875,-0.23828125
271,0.0625,-1.015625,-0.25
272,0.05859375,-1.01171875,-0.2421875
273,0.05078125,-1.0078125,-0.23046875
274,0.0546875,-1.0078125,-0.2421875
275,0.0546875,-1.01953125,-0.23828125
276,0.07421875,-1.01953125,-0.23046875
277,0.06640625,-1.02734375,-0.22265625
278,0.05859375,-1.0234375,-0.25
279,0.0703125,-1.0234375,-0.25390625
280,0.06640625,-1.0234375,-0.23046875
281,0.06640625,-1.0234375,-0.23046875
282,0.0625,-1.0234375,-0.23046875
283,0.06640625,-1.02734375,-0.234375
284,0.06640625,-1.01953125,-0.23828125
285,0.078125,-1.03125,-0.2265625
286,0.0703125,-1.02734375,-0.24609375
287,0.05859375,-1.015625,-0.234375
288,0.0703125,-1.03515625,-0.234375
289,0.0703125,-1.01953125,-0.23046875
290,0.07421875,-1.02734375,-0.23046875
291,0.06640625,-1.0234375,-0.2421875
292,0.07421875,-1.015625,-0.25
293,0.06640625,-1.01953125,-0.23046875
294,0.07421875,-1.01171875,-0.21875
295,0.06640625,-1.015625,-0.2109375
296,0.06640625,-1.01953125,-0.2421875
297,0.0703125,-1.01171875,-0.234375
298,0.0625,-1.01171875,-0.23046875
299,0.08203125,-1.015625,-0.23046875
300,0.0703125,-1.01171875,-0.234375
301,0.08203125,-1.0078125,-0.21484375
302,0.07421875,-1.0078125,-0.23828125
303,0.05859375,-1.0,-0.21875
304,0.05859375,-1.01171875,-0.2265625
305,0.06640625,-1.00390625,-0.22265625
306,0.05078125,-1.0078125,-0.23046875
307,0.0546875,-1.01953125,-0.2421875
308,0.0625,-1.0078125,-0.23046875
309,0.0546875,-1.0078125,-0.21484375
310,0.05859375,-1.01953125,-0.23828125
311,0.0625,-1.015625,-0.234375
312,0.0625,-1.01171875,-0.23046875
313,0.0625,-1.015625,-0.23046875
314,0.0703125,-1.015625,-0.234375
315,0.078125,-1.015625,-0.2109375
316,0.07421875,-1.0234375,-0.2109375
317,0.0703125,-1.01171875,-0.234375
318,0.0703125,-1.015625,-0.2109375
319,0.078125,-1.01953125,-0.2109375
320,0.0625,-1.015625,-0.23046875
321,0.078125,-1.0078125,-0.2265625
322,0.078125,-1.01171875,-0.2265625
323,0.07421875,-1.01171875,-0.203125
324,0.07421875,-1.0078125,-0.22265625
325,0.08203125,-1.015625,-0.2265625
326,0.07421875,-1.015625,-0.21875
327,0.078125,-1.01171875,-0.2109375
328,0.0859375,-1.01171875,-0.2109375
329,0.09375,-1.03125,-0.21875
330,0.0859375,-1.01953125,-0.2109375
331,0.07421875,-1.01171875,-0.22265625
332,0.08203125,-1.015625,-0.203125
333,0.06640625,-1.0234375,-0.23046875
334,0.06640625,-1.0234375,-0.2109375
335,0.08203125,-1.015625,-0.2109375
336,0.0703125,-1.02734375,-0.19140625
337,0.08203125,-1.01953125,-0.19921875
338,0.0625,-1.015625,-0.20703125
339,0.06640625,-1.0234375,-0.20703125
340,0.08203125,-1.0390625,-0.1953125
341,0.0703125,-1.02734375,-0.203125
342,0.07421875,-1.01171875,-0.1953125
343,0.06640625,-1.03125,-0.203125
344,0.07421875,-1.0234375,-0.203125
345,0.05859375,-1.01171875,-0.1953125
346,0.0703125,-1.01953125,-0.19921875
347,0.0546875,-1.01953125,-0.18359375
348,0.0546875,-1.01953125,-0.19921875
349,0.05859375,-1.0703125,-0.1328125
350,0.0546875,-1.01953125,-0.20703125
351,0.05859375,-1.03125,-0.20703125
352,0.06640625,-1.01953125,-0.19140625
353,0.06640625,-1.01953125,-0.21875
354,0.0625,-1.01953125,-0.22265625
355,0.07421875,-1.0234375,-0.21484375
356,0.08203125,-1.0390625,-0.203125
357,0.0703125,-1.01953125,-0.21484375
358,0.078125,-1.0234375,-0.20703125
359,0.0703125,-1.0234375,-0.19140625
360,0.0703125,-1.01953125,-0.22265625
361,0.06640625,-1.015625,-0.20703125
362,0.0625,-1.0234375,-0.1953125
363,0.0703125,-1.01953125,-0.2109375
364,0.0703125,-1.0234375,-0.21875
365,0.078125,-1.0234375,-0.22265625
366,0.0625,-1.015625,-0.22265625
367,0.0625,-1.02734375,-0.2265625
368,0.0703125,-1.0234375,-0.2265625
369,0.06640625,-1.015625,-0.22265625
370,0.07421875,-1.01953125,-0.2265625
371,0.0625,-1.01953125,-0.21875
372,0.078125,-1.01953125,-0.2265625
373,0.07421875,-1.01953125,-0.23046875
374,0.0625,-1.01953125,-0.21484375
375,0.0703125,-1.01171875,-0.22265625
376,0.078125,-1.0234375,-0.23828125
377,0.0703125,-1.0078125,-0.23046875
378,0.0703125,-1.015625,-0.2421875
379,0.06640625,-1.0078125,-0.2265625
380,0.0703125,-1.01953125,-0.2421875
381,0.078125,-1.015625,-0.24609375
382,0.0625,-1.01171875,-0.2421875
383,0.0703125,-1.015625,-0.2265625
384,0.06640625,-1.015625,-0.2265625
385,0.078125,-1.03125,-0.2421875
386,0.07421875,-1.01953125,-0.25390625
387,0.08203125,-1.01953125,-0.23046875
388,0.07421875,-1.01953125,-0.23828125
389,0.08203125,-1.01953125,-0.234375
390,0.078125,-1.0234375,-0.2421875
391,0.08203125,-1.01171875,-0.234375
392,0.06640625,-1.015625,-0.2421875
393,0.078125,-1.0234375,-0.2265625
394,0.078125,-1.01953125,-0.25
395,0.07421875,-1.01953125,-0.25
396,0.0703125,-1.01171875,-0.23046875
397,0.078125,-1.0234375,-0.234375
398,0.0703125,-1.01953125,-0.2421875
399,0.07421875,-1.0234375,-0.23828125
400,0.06640625,-1.0234375,-0.22265625
401,0.0703125,-1.03515625,-0.21484375
402,0.09375,-1.0390625,-0.22265625
403,0.07421875,-1.02734375,-0.2265625
404,0.08203125,-1.03125,-0.23046875
405,0.08203125,-1.03125,-0.2265625
406,0.0703125,-1.03515625,-0.22265625
407,0.05859375,-1.03515625,-0.22265625
408,0.07421875,-1.0390625,-0.2421875
409,0.078125,-1.03125,-0.23046875
410,0.07421875,-1.03515625,-0.21484375
411,0.06640625,-1.01953125,-0.22265625
412,0.05859375,-1.01953125,-0.24609375
413,0.06640625,-1.0078125,-0.22265625
414,0.06640625,-1.015625,-0.20703125
415,0.0625,-1.0234375,-0.20703125
416,0.07421875,-1.015625,-0.22265625
417,0.05859375,-1.01953125,-0.21484375
418,0.07421875,-1.0234375,-0.21875
419,0.0703125,-1.0078125,-0.1953125
420,0.08203125,-1.02734375,-0.20703125
421,0.06640625,-1.0234375,-0.19140625
422,0.0703125,-1.01953125,-0.2109375
423,0.078125,-1.0234375,-0.2109375
424,0.06640625,-1.015625,-0.203125
425,0.07421875,-1.03515625,-0.203125
426,0.08203125,-1.03515625,-0.21875
427,0.07421875,-1.03125,-0.203125
428,0.07421875,-1.015625,-0.2109375
429,0.06640625,-1.01953125,-0.20703125
430,0.06640625,-1.02734375,-0.2109375
431,0.078125,-1.01953125,-0.21484375
432,0.0625,-1.015625,-0.23828125
433,0.078125,-1.02734375,-0.22265625
434,0.0703125,-1.0078125,-0.1953125
435,0.06640625,-1.046875,-0.1484375
436,0.0859375,-1.01953125,-0.2109375
437,0.07421875,-1.00390625,-0.22265625
438,0.08984375,-1.0078125,-0.21484375
439,0.09765625,-1.01953125,-0.2109375
440,0.0859375,-1.01953125,-0.1953125
441,0.0859375,-1.02734375,-0.19921875
442,0.08984375,-1.015625,-0.20703125
443,0.07421875,-1.02734375,-0.20703125
444,0.078125,-1.0234375,-0.21875
445,0.078125,-1.01953125,-0.23046875
446,0.09375,-1.03125,-0.1953125
447,0.0859375,-1.0234375,-0.22265625
448,0.08203125,-1.01171875,-0.19921875
449,0.08984375,-1.015625,-0.20703125
450,0.08203125,-1.01171875,-0.20703125
451,0.08203125,-1.00390625,-0.21875
452,0.07421875,-1.00390625,-0.234375
453,0.0859375,-1.0078125,-0.2265625
454,0.07421875,-1.0078125,-0.23046875
455,0.06640625,-1.01171875,-0.21875
456,0.0625,-1.01171875,-0.22265625
457,0.078125,-1.02734375,-0.20703125
458,0.07421875,-1.01171875,-0.2109375
459,0.08984375,-1.01953125,-0.203125
460,0.0703125,-1.01171875,-0.21484375
461,0.08984375,-1.00390625,-0.21875
462,0.0859375,-1.01171875,-0.234375
463,0.0859375,-1.00390625,-0.21875
464,0.0859375,-1.00390625,-0.2109375
465,0.0859375,-1.015625,-0.21875
466,0.0859375,-1.00390625,-0.21875
467,0.0859375,-1.00390625,-0.19140625
468,0.06640625,-1.0,-0.21484375
469,0.08203125,-1.00390625,-0.20703125
470,0.07421875,-1.0078125,-0.21875
471,0.06640625,-1.0,-0.21875
472,0.0859375,-1.00390625,-0.234375
473,0.08203125,-1.0,-0.21484375
474,0.08203125,-1.0,-0.2265625
475,0.08203125,-1.00390625,-0.2109375
476,0.0859375,-1.0,-0.23828125
477,0.08203125,-0.9921875,-0.2265625
478,0.08203125,-1.0078125,-0.2421875
479,0.0859375,-1.0078125,-0.2421875
480,0.08203125,-0.98828125,-0.2578125
481,0.09375,-1.00390625,-0.2421875
482,0.09375,-1.01171875,-0.25
483,0.08984375,-1.015625,-0.25
484,0.08984375,-1.01171875,-0.23828125
485,0.078125,-1.01171875,-0.25
486,0.0859375,-1.01953125,-0.2421875
487,0.08203125,-1.015625,-0.234375
488,0.08984375,-1.0234375,-0.23828125
489,0.0859375,-1.02734375,-0.23828125
490,0.078125,-1.03125,-0.2421875
491,0.07421875,-1.0234375,-0.23046875
492,0.0703125,-1.01953125,-0.2265625
493,0.078125,-1.0234375,-0.25
494,0.06640625,-1.01953125,-0.234375
495,0.07421875,-1.00390625,-0.2421875
496,0.078125,-1.0078125,-0.23828125
497,0.08203125,-1.0,-0.25390625
498,0.08203125,-1.0078125,-0.2578125
499,0.09375,-0.99609375,-0.25
500,0.08203125,-1.0,-0.2421875
501,0.08203125,-0.9921875,-0.2421875
502,0.10546875,-1.0,-0.25
503,0.08984375,-1.0078125,-0.25
504,0.09765625,-0.99609375,-0.2421875
505,0.1015625,-1.015625,-0.25390625
506,0.08203125,-1.0078125,-0.26171875
507,0.1015625,-1.0078125,-0.24609375
508,0.08984375,-1.0078125,-0.25390625
509,0.09375,-1.0,-0.265625
510,0.09375,-1.00390625,-0.24609375
511,0.08984375,-1.00390625,-0.23828125
512,0.109375,-1.01171875,-0.25
513,0.0859375,-1.0078125,-0.25390625
514,0.08203125,-1.0,-0.2578125
515,0.0703125,-1.00390625,-0.25
516,0.07421875,-0.99609375,-0.23046875
517,0.08203125,-0.9921875,-0.26171875
518,0.07421875,-0.99609375,-0.265625
519,0.08984375,-1.00390625,-0.2734375
520,0.07421875,-0.9921875,-0.2734375
521,0.0859375,-1.0,-0.265625
522,0.08203125,-0.9921875,-0.26953125
523,0.10546875,-1.03125,-0.1953125
524,0.09765625,-1.00390625,-0.28515625
525,0.08984375,-1.00390625,-0.265625
526,0.09375,-1.01953125,-0.2734375
527,0.09765625,-1.0,-0.27734375
528,0.109375,-1.015625,-0.28125
529,0.11328125,-1.015625,-0.26171875
530,0.10546875,-1.01953125,-0.26171875
531,0.109375,-1.0234375,-0.28125
532,0.09765625,-1.02734375,-0.2578125
533,0.10546875,-1.03515625,-0.2578125
534,0.09765625,-1.02734375,-0.265625
535,0.109375,-1.0234375,-0.26953125
536,0.09765625,-1.02734375,-0.2578125
537,0.09375,-1.01171875,-0.26953125
538,0.09765625,-1.01171875,-0.26953125
539,0.10546875,-1.0,-0.27734375
540,0.09765625,-1.0,-0.27734375
541,0.109375,-1.0,-0.296875
542,0.12109375,-1.00390625,-0.30078125
543,0.11328125,-0.9921875,-0.2890625
544,0.11328125,-1.0,-0.296875
545,0.08984375,-0.9921875,-0.31640625
546,0.109375,-0.9921875,-0.33203125
547,0.125,-1.0,-0.3203125
548,0.10546875,-1.0,-0.3203125
549,0.0859375,-1.0078125,-0.3359375
550,0.1015625,-1.01953125,-0.33203125
551,0.10546875,-1.0078125,-0.3359375
552,0.09765625,-1.0234375,-0.31640625
553,0.08984375,-1.015625,-0.3359375
554,0.09375,-1.03515625,-0.3359375
555,0.0859375,-1.0234375,-0.328125
556,0.08203125,-1.02734375,-0.32421875
557,0.078125,-1.02734375,-0.3125
558,0.0625,-1.01953125,-0.34375
559,0.0703125,-1.01953125,-0.33984375
560,0.06640625,-1.02734375,-0.35546875
561,0.0703125,-1.01171875,-0.34765625
562,0.0625,-1.0078125,-0.359375
563,0.06640625,-1.00390625,-0.375
564,0.0625,-1.015625,-0.3828125
565,0.07421875,-1.0234375,-0.39453125
566,0.06640625,-1.03125,-0.40234375
567,0.0625,-1.01953125,-0.4140625
568,0.08984375,-1.046875,-0.40234375
569,0.08984375,-1.0390625,-0.4140625
570,0.0859375,-1.0546875,-0.4296875
571,0.0859375,-1.04296875,-0.421875
572,0.08984375,-1.0390625,-0.42578125
573,0.08984375,-1.02734375,-0.4375
574,0.09765625,-1.0078125,-0.4375
575,0.10546875,-1.015625,-0.44140625
576,0.11328125,-1.0,-0.4453125
577,0.11328125,-0.9921875,-0.44921875
578,0.12109375,-0.97265625,-0.45703125
579,0.12109375,-0.9765625,-0.46875
580,0.12890625,-0.96875,-0.484375
581,0.1171875,-0.94140625,-0.48828125
582,0.125,-0.9375,-0.49609375
583,0.1171875,-0.9375,-0.4921875
584,0.12109375,-0.93359375,-0.5
585,0.1171875,-0.94140625,-0.4921875
586,0.12890625,-0.953125,-0.49609375
587,0.109375,-0.9453125,-0.48046875
588,0.0859375,-0.9375,-0.48828125
589,0.10546875,-0.9453125,-0.50390625
590,0.10546875,-0.9609375,-0.49609375
591,0.1171875,-0.9765625,-0.48828125
592,0.109375,-0.9765625,-0.48828125
593,0.1171875,-0.984375,-0.4921875
594,0.09765625,-0.984375,-0.484375
595,0.10546875,-0.984375,-0.48828125
596,0.109375,-0.99609375,-0.5
597,0.1015625,-0.9921875,-0.49609375
598,0.11328125,-0.98828125,-0.51171875
599,0.09375,-0.97265625,-0.515625
600,0.109375,-0.98046875,-0.515625
601,0.10546875,-0.98046875,-0.51953125
602,0.109375,-0.9609375,-0.52734375
603,0.1171875,-0.96875,-0.5234375
604,0.10546875,-0.95703125,-0.53125
605,0.1171875,-0.94921875,-0.5390625
606,0.11328125,-0.9609375,-0.5234375
607,0.1171875,-0.94921875,-0.53125
608,0.1171875,-0.953125,-0.54296875
609,0.13671875,-0.92578125,-0.55859375
610,0.109375,-0.96484375,-0.5234375
611,0.1015625,-0.96484375,-0.52734375
612,0.1015625,-0.9609375,-0.5234375
613,0.09375,-0.9609375,-0.51953125
614,0.09765625,-0.96484375,-0.53125
615,0.09375,-0.97265625,-0.51171875
616,0.10546875,-0.984375,-0.515625
617,0.1015625,-0.9765625,-0.5078125
618,0.109375,-0.97265625,-0.515625
619,0.109375,-0.9765625,-0.51171875
620,0.078125,-0.953125,-0.50390625
621,0.12109375,-0.97265625,-0.51171875
622,0.09765625,-0.9765625,-0.50390625
623,0.12109375,-0.98828125,-0.5078125
624,0.109375,-0.98828125,-0.515625
625,0.11328125,-0.98828125,-0.50390625
626,0.125,-0.98046875,-0.49609375
627,0.10546875,-0.97265625,-0.5
628,0.1171875,-0.98046875,-0.5
629,0.11328125,-0.98046875,-0.4921875
630,0.10546875,-0.984375,-0.48828125
631,0.10546875,-0.97265625,-0.48046875
632,0.12109375,-0.96875,-0.48046875
633,0.109375,-0.97265625,-0.4765625
634,0.12109375,-0.9765625,-0.4765625
635,0.12109375,-0.96484375,-0.48046875
636,0.12109375,-0.96484375,-0.48828125
637,0.109375,-0.96484375,-0.49609375
638,0.11328125,-0.97265625,-0.47265625
639,0.11328125,-0.96484375,-0.46875
640,0.1171875,-0.9609375,-0.47265625
641,0.1171875,-0.97265625,-0.4765625
642,0.12109375,-0.98046875,-0.48046875
643,0.12109375,-0.98046875,-0.46484375
644,0.11328125,-0.97265625,-0.46484375
645,0.11328125,-0.97265625,-0.46875
646,0.12109375,-0.984375,-0.46875
647,0.11328125,-0.98046875,-0.46875
648,0.1171875,-0.97265625,-0.45703125
649,0.11328125,-0.99609375,-0.46484375
650,0.109375,-0.98828125,-0.45703125
651,0.12109375,-0.984375,-0.453125
652,0.109375,-0.9765625,-0.46484375
653,0.109375,-0.96484375,-0.46484375
654,0.10546875,-0.97265625,-0.484375
655,0.125,-0.97265625,-0.45703125
656,0.109375,-0.9609375,-0.46875
657,0.10546875,-0.9609375,-0.46484375
658,0.1171875,-0.953125,-0.45703125
659,0.1171875,-0.9609375,-0.453125
660,0.11328125,-0.9609375,-0.453125
661,0.09765625,-0.96484375,-0.4609375
662,0.10546875,-0.9765625,-0.4453125
663,0.10546875,-0.98046875,-0.453125
664,0.10546875,-0.9765625,-0.46875
665,0.09765625,-0.9921875,-0.4921875
666,0.1015625,-0.984375,-0.46875
667,0.1171875,-0.984375,-0.46875
668,0.1171875,-0.98046875,-0.4609375
669,0.10546875,-0.98828125,-0.47265625
670,0.125,-1.0,-0.4765625
671,0.10546875,-0.99609375,-0.46875
672,0.11328125,-0.98828125,-0.4453125
673,0.10546875,-0.9921875,-0.44921875
674,0.109375,-0.98828125,-0.453125
675,0.11328125,-0.98828125,-0.44921875
676,0.08203125,-0.98046875,-0.45703125
677,0.09765625,-0.98828125,-0.43359375
678,0.11328125,-0.9765625,-0.4375
679,0.11328125,-0.97265625,-0.42578125
680,0.10546875,-0.95703125,-0.41796875
681,0.109375,-0.95703125,-0.41015625
682,0.109375,-0.953125,-0.43359375
683,0.10546875,-0.9453125,-0.4140625
684,0.1171875,-0.94921875,-0.44140625
685,0.12109375,-0.9453125,-0.42578125
686,0.11328125,-0.96875,-0.421875
687,0.1171875,-0.953125,-0.42578125
688,0.125,-0.9609375,-0.43359375
689,0.12109375,-0.9609375,-0.4375
690,0.1171875,-0.9609375,-0.43359375
691,0.12890625,-0.9609375,-0.42578125
692,0.1171875,-0.97265625,-0.43359375
693,0.10546875,-0.9609375,-0.44140625
694,0.125,-0.98828125,-0.44140625
695,0.11328125,-0.98046875,-0.43359375
696,0.1171875,-0.98046875,-0.44921875
697,0.125,-1.0234375,-0.48046875
698,0.1015625,-0.98828125,-0.4609375
699,0.10546875,-0.98046875,-0.453125
700,0.11328125,-0.98828125,-0.45703125
701,0.1171875,-0.9921875,-0.46875
702,0.1171875,-0.984375,-0.45703125
703,0.109375,-0.98828125,-0.44921875
704,0.1171875,-0.98828125,-0.47265625
705,0.09765625,-0.98828125,-0.46875
706,0.12109375,-0.98828125,-0.47265625
707,0.09375,-0.97265625,-0.54296875
708,0.09375,-0.98828125,-0.46484375
709,0.10546875,-0.99609375,-0.484375
710,0.109375,-1.0,-0.4453125
711,0.1015625,-1.0,-0.45703125
712,0.109375,-0.9921875,-0.46484375
713,0.10546875,-0.98046875,-0.46484375
714,0.11328125,-0.98828125,-0.46484375
715,0.109375,-0.9921875,-0.46484375
716,0.11328125,-0.98046875,-0.4609375
717,0.10546875,-0.97265625,-0.4453125
718,0.10546875,-0.96875,-0.43359375
719,0.10546875,-0.96484375,-0.46484375
720,0.09765625,-0.9296875,-0.453125
721,0.10546875,-0.94140625,-0.45703125
722,0.10546875,-0.94140625,-0.453125
723,0.0859375,-0.94140625,-0.44140625
724,0.1015625,-0.93359375,-0.453125
725,0.09765625,-0.93359375,-0.46875
726,0.10546875,-0.93359375,-0.46484375
727,0.10546875,-0.93359375,-0.46484375
728,0.1171875,-0.9296875,-0.46875
729,0.12109375,-0.95703125,-0.4765625
730,0.10546875,-0.9375,-0.45703125
731,0.10546875,-0.9453125,-0.46875
732,0.109375,-0.9453125,-0.453125
733,0.11328125,-0.94140625,-0.44921875
734,0.1171875,-0.93359375,-0.4609375
735,0.11328125,-0.9375,-0.44921875
736,0.1171875,-0.93359375,-0.46484375
737,0.1328125,-0.890625,-0.46875
738,0.0625,-0.953125,-0.43359375
739,0.11328125,-0.9140625,-0.4453125
740,0.16015625,-0.88671875,-0.45703125
741,0.1484375,-0.875,-0.44921875
742,0.09375,-0.87890625,-0.46484375
743,0.109375,-0.91015625,-0.50390625
744,0.125,-0.859375,-0.46484375
745,0.1171875,-0.90625,-0.51953125
746,0.10546875,-0.85546875,-0.5390625
747,0.12109375,-0.95703125,-0.53515625
748,0.125,-0.90625,-0.55859375
749,0.09375,-0.87890625,-0.5625
750,0.14453125,-0.9296875,-0.54296875
751,0.1328125,-0.9375,-0.55859375
752,0.1328125,-0.95703125,-0.55859375
753,0.125,-0.94140625,-0.56640625
754,0.09375,-0.97265625,-0.58203125
755,0.125,-0.953125,-0.59765625
756,0.125,-0.9609375,-0.5859375
757,0.125,-0.9375,-0.58984375
758,0.1015625,-0.94140625,-0.60546875
759,0.12109375,-0.9375,-0.58984375
760,0.1015625,-0.91796875,-0.6015625
761,0.1171875,-0.9296875,-0.62109375
762,0.125,-0.921875,-0.640625
763,0.109375,-0.8671875,-0.63671875
764,0.12109375,-0.90234375,-0.640625
765,0.14453125,-0.91796875,-0.6796875
766,0.13671875,-0.91015625,-0.6875
767,0.13671875,-0.93359375,-0.6875
768,0.1328125,-0.93359375,-0.69921875
769,0.140625,-0.94140625,-0.6953125
770,0.14453125,-0.9375,-0.6953125
771,0.16015625,-0.9453125,-0.7265625
772,0.14453125,-0.9375,-0.7109375
773,0.1484375,-0.9296875,-0.73828125
774,0.16796875,-0.9375,-0.73046875
775,0.1484375,-0.9375,-0.73828125
776,0.16015625,-0.9296875,-0.73828125
777,0.1484375,-0.90234375,-0.72265625
778,0.1484375,-0.91796875,-0.73046875
779,0.1484375,-0.890625,-0.7421875
780,0.1484375,-0.890625,-0.74609375
781,0.14453125,-0.875,-0.7578125
782,0.140625,-0.875,-0.7578125
783,0.140625,-0.875,-0.75390625
784,0.15625,-0.85546875,-0.7734375
785,0.1484375,-0.8359375,-0.7734375
786,0.1640625,-0.83984375,-0.78125
787,0.1484375,-0.84765625,-0.77734375
788,0.1484375,-0.83203125,-0.78125
789,0.1484375,-0.83203125,-0.78515625
790,0.1484375,-0.82421875,-0.796875
791,0.15625,-0.81640625,-0.8125
792,0.1484375,-0.796875,-0.8125
793,0.171875,-0.796875,-0.8203125
794,0.16796875,-0.765625,-0.76171875
795,0.1640625,-0.7734375,-0.8515625
796,0.1796875,-0.7578125,-0.85546875
797,0.15625,-0.76171875,-0.86328125
798,0.1796875,-0.75,-0.87109375
799,0.1875,-0.75,-0.8828125
800,0.19140625,-0.734375,-0.89453125
801,0.18359375,-0.72265625,-0.89453125
802,0.1953125,-0.72265625,-0.890625
803,0.1953125,-0.71875,-0.89453125
804,0.20703125,-0.70703125,-0.90625
805,0.203125,-0.7109375,-0.88671875
806,0.19921875,-0.69140625,-0.89453125
807,0.20703125,-0.7109375,-0.9140625
808,0.2109375,-0.6875,-0.91015625
809,0.203125,-0.6796875,-0.92578125
810,0.203125,-0.6796875,-0.9375
811,0.21875,-0.67578125,-0.91796875
812,0.21875,-0.67578125,-0.91796875
813,0.21484375,-0.66796875,-0.92578125
814,0.21875,-0.65625,-0.9453125
815,0.22265625,-0.65625,-0.95703125
816,0.21484375,-0.66015625,-0.953125
817,0.2109375,-0.6484375,-0.9609375
818,0.19921875,-0.6484375,-0.9453125
819,0.19921875,-0.64453125,-0.98046875
820,0.1796875,-0.6328125,-0.96875
821,0.17578125,-0.640625,-0.97265625
822,0.1796875,-0.62890625,-0.96875
823,0.17578125,-0.6328125,-0.96484375
824,0.1640625,-0.63671875,-0.9765625
825,0.1875,-0.63671875,-0.98828125
826,0.18359375,-0.62890625,-0.98828125
827,0.171875,-0.640625,-0.99609375
828,0.1875,-0.6328125,-0.99609375
829,0.19921875,-0.63671875,-1.00390625
830,0.203125,-0.64453125,-1.015625
831,0.19921875,-0.640625,-1.01953125
832,0.20703125,-0.6484375,-1.02734375
833,0.1953125,-0.6484375,-1.03125
834,0.203125,-0.65234375,-1.046875
835,0.203125,-0.640625,-1.015625
836,0.203125,-0.64453125,-1.02734375
837,0.21484375,-0.65234375,-1.03515625
838,0.203125,-0.63671875,-1.03125
839,0.20703125,-0.64453125,-1.015625
840,0.20703125,-0.62890625,-1.0078125
841,0.20703125,-0.62890625,-1.03125
842,0.19140625,-0.62109375,-1.015625
843,0.1953125,-0.625,-1.0234375
844,0.1875,-0.6171875,-1.03125
845,0.1875,-0.6328125,-1.03515625
846,0.1875,-0.6171875,-1.0390625
847,0.1953125,-0.63671875,-1.04296875
848,0.1953125,-0.640625,-1.03125
849,0.20703125,-0.63671875,-1.0234375
850,0.1875,-0.62890625,-1.046875
851,0.19140625,-0.62890625,-1.02734375
852,0.20703125,-0.625,-1.03515625
853,0.19921875,-0.61328125,-1.03515625
854,0.2109375,-0.609375,-1.01953125
855,0.21484375,-0.6015625,-1.0234375
856,0.2109375,-0.59375,-1.0234375
857,0.20703125,-0.5859375,-1.0234375
858,0.21484375,-0.58984375,-1.0234375
859,0.203125,-0.57421875,-1.01953125
860,0.1953125,-0.57421875,-1.01953125
861,0.1875,-0.58984375,-1.02734375
862,0.1875,-0.5859375,-1.0390625
863,0.17578125,-0.5625,-1.0234375
864,0.1875,-0.58984375,-1.02734375
865,0.171875,-0.57421875,-1.03515625
866,0.19921875,-0.59765625,-1.02734375
867,0.18359375,-0.59765625,-1.05078125
868,0.1796875,-0.6015625,-1.03125
869,0.19140625,-0.59375,-1.05078125
870,0.19140625,-0.6015625,-1.0546875
871,0.1875,-0.5625,-1.0859375
872,0.1875,-0.58203125,-1.05859375
873,0.19921875,-0.578125,-1.0625
874,0.203125,-0.58203125,-1.0546875
875,0.1953125,-0.58203125,-1.0625
876,0.1953125,-0.578125,-1.0625
877,0.19140625,-0.578125,-1.0546875
878,0.1875,-0.5859375,-1.05078125
879,0.1953125,-0.5859375,-1.05859375
880,0.1953125,-0.5859375,-1.0390625
881,0.21484375,-0.60546875,-1.01171875
882,0.1875,-0.5859375,-1.05859375
883,0.18359375,-0.58984375,-1.06640625
884,0.19140625,-0.5859375,-1.078125
885,0.1953125,-0.58203125,-1.07421875
886,0.1796875,-0.58984375,-1.078125
887,0.17578125,-0.59765625,-1.078125
888,0.18359375,-0.58984375,-1.078125
889,0.17578125,-0.5859375,-1.078125
890,0.1796875,-0.6015625,-1.078125
891,0.17578125,-0.59765625,-1.08984375
892,0.16015625,-0.59765625,-1.078125
893,0.1640625,-0.59765625,-1.07421875
894,0.171875,-0.6015625,-1.05859375
895,0.16796875,-0.6015625,-1.0625
896,0.171875,-0.609375,-1.0546875
897,0.1484375,-0.58984375,-1.046875
898,0.16015625,-0.58203125,-1.05859375
899,0.1640625,-0.59375,-1.0390625
900,0.16015625,-0.58203125,-1.05078125
901,0.15234375,-0.578125,-1.06640625
902,0.140625,-0.57421875,-1.05078125
903,0.1640625,-0.57421875,-1.04296875
904,0.14453125,-0.5625,-1.0390625
905,0.15234375,-0.578125,-1.04296875
906,0.1640625,-0.5625,-1.03125
907,0.14453125,-0.5546875,-1.0390625
908,0.15625,-0.5625,-1.015625
909,0.140625,-0.54296875,-1.0390625
910,0.13671875,-0.5390625,-1.03125
911,0.140625,-0.5390625,-1.04296875
912,0.13671875,-0.53125,-1.046875
913,0.140625,-0.53515625,-1.03125
914,0.1328125,-0.53125,-1.03125
915,0.12109375,-0.53125,-1.04296875
916,0.1328125,-0.55078125,-1.03515625
917,0.13671875,-0.54296875,-1.0390625
918,0.125,-0.54296875,-1.0234375
919,0.1328125,-0.546875,-1.02734375
920,0.13671875,-0.546875,-1.015625
921,0.140625,-0.5625,-1.01171875
922,0.12109375,-0.5546875,-1.00390625
923,0.15625,-0.55859375,-1.00390625
924,0.140625,-0.55859375,-0.99609375
925,0.140625,-0.5546875,-0.9921875
926,0.1484375,-0.5546875,-1.0
927,0.1484375,-0.54296875,-1.00390625
928,0.15625,-0.53125,-0.9765625
929,0.16015625,-0.54296875,-0.98828125
930,0.15234375,-0.53515625,-0.9921875
931,0.15234375,-0.51953125,-0.984375
932,0.15234375,-0.51953125,-0.9765625
933,0.15625,-0.515625,-0.9921875
934,0.1484375,-0.50390625,-0.96875
935,0.14453125,-0.5078125,-0.98046875
936,0.1328125,-0.47265625,-0.9921875
937,0.12109375,-0.5,-0.93359375
938,0.15625,-0.5,-0.9296875
939,0.13671875,-0.49609375,-0.9140625
940,0.140625,-0.5,-0.9140625
941,0.11328125,-0.5,-0.9140625
942,0.09765625,-0.484375,-0.9140625
943,0.1171875,-0.4921875,-0.921875
944,0.1171875,-0.5,-0.92578125
945,0.1015625,-0.49609375,-0.90234375
946,0.10546875,-0.5078125,-0.87890625
947,0.109375,-0.51953125,-0.90234375
948,0.09765625,-0.53125,-0.890625
949,0.109375,-0.546875,-0.90234375
950,0.109375,-0.55859375,-0.91796875
951,0.10546875,-0.57421875,-0.91796875
952,0.12109375,-0.57421875,-0.91796875
953,0.11328125,-0.5859375,-0.92578125
954,0.1015625,-0.57421875,-0.9140625
955,0.11328125,-0.58984375,-0.91796875
956,0.08984375,-0.58984375,-0.921875
957,0.09375,-0.58984375,-0.92578125
958,0.0625,-0.58203125,-0.9296875
959,0.09765625,-0.5859375,-0.9140625
960,0.10546875,-0.5859375,-0.9296875
961,0.09765625,-0.58984375,-0.921875
962,0.08203125,-0.578125,-0.93359375
963,0.1015625,-0.5859375,-0.92578125
964,0.09375,-0.57421875,-0.9296875
965,0.078125,-0.57421875,-0.92578125
966,0.08203125,-0.5703125,-0.91796875
967,0.0859375,-0.57421875,-0.90234375
968,0.1328125,-0.48828125,-0.82421875
969,0.0703125,-0.578125,-0.87890625
970,0.07421875,-0.578125,-0.8984375
971,0.07421875,-0.59375,-0.90625
972,0.05859375,-0.59765625,-0.89453125
973,0.05859375,-0.58984375,-0.87890625
974,0.05859375,-0.59765625,-0.8671875
975,0.06640625,-0.60546875,-0.8671875
976,0.06640625,-0.59765625,-0.87890625
977,0.0625,-0.5859375,-0.8828125
978,0.0703125,-0.5859375,-0.8828125
979,0.06640625,-0.56640625,-0.87890625
980,0.0546875,-0.56640625,-0.87109375
981,0.07421875,-0.5546875,-0.859375
982,0.07421875,-0.55078125,-0.875
983,0.078125,-0.54296875,-0.87109375
984,0.08203125,-0.5390625,-0.86328125
985,0.09375,-0.54296875,-0.84765625
986,0.09375,-0.53125,-0.83984375
987,0.1015625,-0.53515625,-0.84375
988,0.109375,-0.5390625,-0.828125
989,0.12109375,-0.5390625,-0.8203125
990,0.125,-0.54296875,-0.8125
991,0.125,-0.55859375,-0.8203125
992,0.14453125,-0.5703125,-0.796875
993,0.14453125,-0.5859375,-0.796875
994,0.1484375,-0.61328125,-0.7890625
995,0.1484375,-0.62890625,-0.78125
996,0.15625,-0.62890625,-0.78125
997,0.1328125,-0.63671875,-0.765625
998,0.1328125,-0.64453125,-0.76953125
999,0.125,-0.67578125,-0.7734375
1000,0.10546875,-0.671875,-0.78125
1001,0.09375,-0.6875,-0.77734375
1002,0.078125,-0.6796875,-0.8046875
1003,0.07421875,-0.6953125,-0.7734375
1004,0.05859375,-0.69140625,-0.78515625
1005,0.0546875,-0.6953125,-0.76953125
1006,0.04296875,-0.69921875,-0.76171875
1007,0.03515625,-0.72265625,-0.76953125
1008,0.02734375,-0.69921875,-0.76171875
1009,0.05078125,-0.69921875,-0.796875
1010,-0.01171875,-0.72265625,-0.78125
1011,0.015625,-0.66796875,-0.70703125
1012,0.0546875,-0.703125,-0.7890625
1013,0.0703125,-0.65625,-0.8828125
1014,0.015625,-0.66796875,-0.7109375
1015,0.07421875,-0.67578125,-0.71875
1016,0.01171875,-0.66015625,-0.7265625
1017,0.0625,-0.71484375,-0.76171875
1018,0.02734375,-0.66796875,-0.70703125
1019,0.015625,-0.6953125,-0.7109375
1020,0.02734375,-0.671875,-0.66796875
1021,0.046875,-0.69921875,-0.63671875
1022,0.00390625,-0.72265625,-0.69921875
1023,0.01171875,-0.7109375,-0.65234375
1024,0.0390625,-0.72265625,-0.62890625
1025,0.03515625,-0.7421875,-0.63671875
1026,0.0234375,-0.7265625,-0.609375
1027,0.11328125,-0.70703125,-0.66015625
1028,0.015625,-0.77734375,-0.5546875
1029,0.05078125,-0.73828125,-0.5625
1030,0.06640625,-0.7265625,-0.51953125
1031,0.0234375,-0.734375,-0.6015625
1032,0.01953125,-0.69140625,-0.56640625
1033,0.0078125,-0.6875,-0.5234375
1034,-0.015625,-0.6328125,-0.546875
1035,-0.05078125,-0.66796875,-0.57421875
1036,-0.01953125,-0.61328125,-0.61328125
1037,-0.08203125,-0.59765625,-0.66796875
1038,-0.07421875,-0.609375,-0.65625
1039,-0.08203125,-0.5859375,-0.6796875
1040,-0.08203125,-0.57421875,-0.68359375
1041,-0.04296875,-0.60546875,-0.6953125
1042,-0.04296875,-0.5703125,-0.71484375
1043,-0.01953125,-0.59765625,-0.62109375
1044,-0.0234375,-0.59765625,-0.59375
1045,-0.0078125,-0.6015625,-0.55078125
1046,-0.00390625,-0.609375,-0.515625
1047,-0.0078125,-0.609375,-0.5
1048,-0.0234375,-0.59765625,-0.4609375
1049,-0.01171875,-0.60546875,-0.4375
1050,-0.02734375,-0.58984375,-0.4453125
1051,-0.0078125,-0.58984375,-0.43359375
1052,-0.01171875,-0.56640625,-0.41796875
1053,0.00390625,-0.546875,-0.43359375
1054,0.0234375,-0.5234375,-0.4296875
1055,0.0546875,-0.5,-0.4296875
1056,0.0859375,-0.484375,-0.421875
1057,0.125,-0.4453125,-0.44921875
1058,0.15625,-0.4296875,-0.453125
1059,0.19921875,-0.40234375,-0.4765625
1060,0.21875,-0.37890625,-0.484375
1061,0.24609375,-0.33984375,-0.5
1062,0.25390625,-0.3203125,-0.4921875
1063,0.265625,-0.30078125,-0.453125
1064,0.2578125,-0.28515625,-0.42578125
1065,0.23828125,-0.26953125,-0.40625
1066,0.203125,-0.2578125,-0.3828125
1067,0.16015625,-0.2265625,-0.35546875
1068,0.12109375,-0.21484375,-0.328125
1069,0.0859375,-0.203125,-0.31640625
1070,0.0703125,-0.17578125,-0.30859375
1071,0.05078125,-0.1484375,-0.29296875
1072,0.05078125,-0.14453125,-0.2890625
1073,0.05078125,-0.12109375,-0.28515625
1074,0.0625,-0.109375,-0.2890625
1075,0.0703125,-0.1015625,-0.2890625
1076,0.0859375,-0.07421875,-0.30859375
1077,0.10546875,-0.06640625,-0.30859375
1078,0.1171875,-0.078125,-0.3125
1079,0.125,-0.05859375,-0.32421875
1080,0.125,-0.0703125,-0.3203125
1081,0.12109375,-0.0625,-0.30859375
1082,0.109375,-0.0625,-0.29296875
1083,0.10546875,-0.06640625,-0.30078125
1084,0.08984375,-0.05859375,-0.26953125
1085,0.078125,-0.0625,-0.265625
1086,0.06640625,-0.05078125,-0.25390625
1087,0.0625,-0.046875,-0.25390625
1088,0.05859375,-0.05078125,-0.2578125
1089,0.0625,-0.0546875,-0.2734375
1090,0.07421875,-0.05859375,-0.2578125
1091,0.109375,-0.0703125,-0.265625
1092,0.14453125,-0.05859375,-0.265625
1093,0.1875,-0.078125,-0.29296875
1094,0.21875,-0.08203125,-0.27734375
1095,0.25,-0.08984375,-0.26171875
1096,0.2734375,-0.10546875,-0.23828125
1097,0.29296875,-0.0859375,-0.21875
1098,0.29296875,-0.0703125,-0.16015625
1099,0.31640625,-0.06640625,-0.1328125
1100,0.32421875,-0.046875,-0.109375
1101,0.359375,-0.0546875,-0.06640625
1102,0.4140625,-0.0703125,-0.04296875
1103,0.4921875,-0.06640625,0.0078125
1104,0.58203125,-0.09375,0.03125
1105,0.71484375,-0.1171875,0.1015625
1106,0.859375,-0.1796875,0.1328125
1107,1.08203125,-0.28125,0.1640625
1108,1.36328125,-0.39453125,0.22265625
1109,1.703125,-0.546875,0.36328125
1110,2.0625,-0.71484375,0.5859375
1111,2.46484375,-0.890625,0.77734375
1112,2.80078125,-1.0703125,0.85546875
1113,3.15234375,-1.28515625,1.01171875
1114,3.671875,-1.57421875,1.1953125
1115,4.08984375,-1.83984375,1.26171875
1116,4.796875,-2.33203125,1.33984375
1117,5.17578125,-2.70703125,1.28125
1118,5.48046875,-3.3203125,1.03125
1119,5.609375,-3.80859375,0.7109375
1120,5.19140625,-4.328125,0.2734375
1121,5.015625,-4.9453125,0.125
1122,4.53125,-5.37109375,0.03515625
1123,4.03515625,-5.625,0.19140625
1124,3.48046875,-5.453125,0.41796875
1125,2.80078125,-4.98828125,0.5703125
1126,1.9921875,-4.33203125,0.49609375
1127,1.2421875,-3.50390625,0.42578125
1128,0.60546875,-2.6953125,0.44921875
1129,0.08984375,-1.86328125,0.5546875
1130,-0.3125,-1.16796875,0.61328125
1131,-0.515625,-0.6640625,0.55078125
1132,-0.421875,-0.2734375,0.2734375
1133,-0.2734375,-0.05859375,0.01953125
1134,-0.21484375,0.02734375,-0.1953125
1135,-0.1015625,0.10546875,-0.38671875
1136,0.01953125,0.171875,-0.60546875
1137,0.22265625,0.24609375,-0.95703125
1138,0.36328125,0.26953125,-1.046875
1139,0.5,0.50390625,-0.90234375
1140,0.6640625,0.65625,-0.72265625
1141,0.81640625,0.765625,-0.5
1142,1.0078125,0.8984375,-0.23046875
1143,1.21484375,0.87890625,0.00390625
1144,1.3359375,0.84765625,0.3125
1145,1.4765625,0.75390625,0.46875
1146,1.66796875,0.62890625,0.52734375
1147,1.82421875,0.51171875,0.48828125
1148,1.85546875,0.515625,0.5546875
1149,1.609375,0.59765625,0.60546875
1150,1.37109375,0.69140625,0.66796875
1151,1.078125,0.7265625,0.6328125
1152,0.828125,0.74609375,0.59375
1153,0.5,0.82421875,0.5703125
1154,0.19140625,0.92578125,0.609375
1155,-0.02734375,1.0078125,0.69921875
1156,-0.15625,1.09765625,0.7890625
1157,-0.16015625,1.15625,0.81640625
1158,-0.04296875,1.20703125,0.79296875
1159,0.04296875,1.27734375,0.75390625
1160,0.140625,1.29296875,0.69921875
1161,0.26953125,1.30078125,0.64453125
1162,0.421875,1.29296875,0.56640625
1163,0.5390625,1.26953125,0.43359375
1164,0.62890625,1.25390625,0.34375
1165,0.64453125,1.25,0.26953125
1166,0.63671875,1.19140625,0.25390625
1167,0.58203125,1.1328125,0.23828125
1168,0.4921875,1.078125,0.2578125
1169,0.35546875,1.03125,0.3046875
1170,0.22265625,0.95703125,0.3671875
1171,0.09765625,0.86328125,0.41796875
1172,-0.0078125,0.76953125,0.44921875
1173,-0.109375,0.6875,0.4921875
1174,-0.1640625,0.58203125,0.55859375
1175,-0.203125,0.49609375,0.6171875
1176,-0.22265625,0.41015625,0.67578125
1177,-0.22265625,0.35546875,0.73828125
1178,-0.2109375,0.3046875,0.80078125
1179,-0.1640625,0.26171875,0.875
1180,-0.09375,0.2265625,0.921875
1181,-0.01171875,0.21484375,0.921875
1182,0.0859375,0.203125,0.91015625
1183,0.1953125,0.20703125,0.8828125
1184,0.2734375,0.234375,0.85546875
1185,0.37109375,0.24609375,0.828125
1186,0.453125,0.27734375,0.80078125
1187,0.50390625,0.3359375,0.765625
1188,0.61328125,0.3984375,0.734375
1189,0.69140625,0.4609375,0.6640625
1190,0.734375,0.52734375,0.59375
1191,0.7421875,0.58984375,0.51953125
1192,0.71875,0.6640625,0.47265625
1193,0.6796875,0.71875,0.3984375
1194,0.640625,0.765625,0.3359375
1195,0.59765625,0.79296875,0.2734375
1196,0.55078125,0.8203125,0.2421875
1197,0.48046875,0.83984375,0.21875
1198,0.40625,0.84765625,0.23046875
1199,0.3359375,0.86328125,0.23046875
1200,0.2578125,0.87109375,0.2890625
1201,0.20703125,0.859375,0.3515625
1202,0.21484375,0.8359375,0.3828125
1203,0.2109375,0.7890625,0.41796875
1204,0.23828125,0.7265625,0.42578125
1205,0.2421875,0.6484375,0.44140625
1206,0.25,0.55078125,0.453125
1207,0.25390625,0.46484375,0.44140625
1208,0.265625,0.39453125,0.4140625
1209,0.27734375,0.31640625,0.4453125
1210,0.3125,0.25390625,0.4453125
1211,0.328125,0.22265625,0.49609375
1212,0.37890625,0.14453125,0.5
1213,0.4140625,0.10546875,0.53515625
1214,0.44921875,0.06640625,0.5859375
1215,0.49609375,0.05078125,0.62109375
1216,0.5390625,0.02734375,0.6640625
1217,0.58203125,0.0,0.72265625
1218,0.61328125,0.01953125,0.7890625
1219,0.671875,0.03125,0.8359375
1220,0.70703125,0.0390625,0.890625
1221,0.74609375,0.06640625,0.94921875
1222,0.76171875,0.0703125,0.94921875
1223,0.765625,0.0859375,0.9609375
1224,0.7578125,0.109375,0.92578125
1225,0.74609375,0.10546875,0.88671875
1226,0.72265625,0.13671875,0.8359375
1227,0.7109375,0.12890625,0.7421875
1228,0.6484375,0.1484375,0.75390625
1229,0.62109375,0.140625,0.73046875
1230,0.62109375,0.15234375,0.67578125
1231,0.62109375,0.1484375,0.66796875
1232,0.60546875,0.16015625,0.65625
1233,0.64453125,0.12890625,0.64453125
1234,0.65234375,0.109375,0.66015625
1235,0.66796875,0.09375,0.6796875
1236,0.67578125,0.07421875,0.69921875
1237,0.6875,0.046875,0.70703125
1238,0.6953125,0.02734375,0.69921875
1239,0.68359375,0.01953125,0.72265625
1240,0.6875,0.01171875,0.71875
1241,0.6953125,0.00390625,0.7109375
1242,0.68359375,-0.0078125,0.71875
1243,0.67578125,0.00390625,0.71484375
1244,0.61328125,0.03515625,0.75390625
1245,0.69921875,0.0078125,0.69140625
1246,0.703125,0.01953125,0.671875
1247,0.67578125,0.0625,0.67578125
1248,0.6640625,0.07421875,0.6875
1249,0.65625,0.08203125,0.67578125
1250,0.67578125,0.08984375,0.66796875
1251,0.71484375,0.09765625,0.6328125
1252,0.7109375,0.09375,0.625
1253,0.7578125,0.0703125,0.5703125
1254,0.765625,0.07421875,0.55078125
1255,0.734375,0.078125,0.56640625
1256,0.73046875,0.08203125,0.57421875
1257,0.75,0.06640625,0.56640625
1258,0.76171875,0.0546875,0.55859375
1259,0.76953125,0.05078125,0.55859375
1260,0.7578125,0.0546875,0.60546875
1261,0.73828125,0.0390625,0.6015625
1262,0.8046875,0.01171875,0.58203125
1263,0.81640625,0.0078125,0.578125
1264,0.75390625,0.01171875,0.61328125
1265,0.734375,0.02734375,0.62109375
1266,0.74609375,0.0234375,0.59375
1267,0.7421875,0.0078125,0.609375
1268,0.7421875,0.015625,0.6015625
1269,0.7421875,0.0078125,0.578125
1270,0.75,0.0078125,0.5859375
1271,0.7578125,0.00390625,0.58203125
1272,0.7734375,0.0,0.55078125
1273,0.78515625,0.0,0.51953125
1274,0.796875,-0.0078125,0.52734375
1275,0.8125,-0.0234375,0.51171875
1276,0.81640625,0.0,0.5078125
1277,0.84765625,-0.015625,0.50390625
1278,0.85546875,-0.03515625,0.4921875
1279,0.86328125,-0.03125,0.48828125
1280,0.86328125,-0.0234375,0.50390625
1281,0.875,-0.03515625,0.5
1282,0.86328125,-0.03125,0.5
1283,0.88671875,-0.03515625,0.515625
1284,0.8671875,-0.04296875,0.50390625
1285,0.88671875,-0.046875,0.52734375
1286,0.875,-0.05859375,0.5390625
1287,0.88671875,-0.03125,0.53125
1288,0.8828125,-0.05859375,0.515625
1289,0.88671875,-0.0625,0.5078125
1290,0.89453125,-0.05078125,0.50390625
1291,0.8984375,-0.0625,0.48828125
1292,0.91796875,-0.0703125,0.50390625
1293,0.9140625,-0.0703125,0.49609375
1294,0.91015625,-0.07421875,0.46875
1295,0.93359375,-0.0859375,0.46875
1296,0.90234375,-0.06640625,0.4375
1297,0.921875,-0.0859375,0.4296875
1298,0.9140625,-0.09765625,0.421875
1299,0.90234375,-0.09375,0.4296875
1300,0.90625,-0.1171875,0.421875
1301,0.90234375,-0.13671875,0.4296875
1302,0.90234375,-0.1328125,0.421875
1303,0.8984375,-0.1484375,0.41796875
1304,0.9296875,-0.1953125,0.41796875
1305,0.890625,-0.26171875,0.35546875
1306,0.8984375,-0.23046875,0.4375
1307,0.86328125,-0.21484375,0.4375
1308,0.859375,-0.2265625,0.4453125
1309,0.8671875,-0.22265625,0.44140625
1310,0.85546875,-0.234375,0.42578125
1311,0.8515625,-0.234375,0.3828125
1312,0.87890625,-0.2109375,0.3671875
1313,0.921875,-0.20703125,0.35546875
1314,0.94921875,-0.13671875,0.4375
1315,0.96484375,-0.17578125,0.34765625
1316,0.9921875,-0.18359375,0.35546875
1317,1.00390625,-0.203125,0.375
1318,1.00390625,-0.1796875,0.3671875
1319,1.0,-0.17578125,0.41015625
1320,0.98828125,-0.15625,0.4453125
1321,0.9765625,-0.16015625,0.44921875
1322,0.95703125,-0.15625,0.48046875
1323,0.9609375,-0.1484375,0.5078125
1324,0.94921875,-0.12890625,0.51953125
1325,0.95703125,-0.12890625,0.5390625
1326,0.92578125,-0.109375,0.53125
1327,0.93359375,-0.09375,0.5234375
1328,0.91796875,-0.09375,0.515625
1329,0.890625,-0.09765625,0.5234375
1330,0.87890625,-0.07421875,0.5078125
1331,0.859375,-0.078125,0.5078125
1332,0.86328125,-0.08203125,0.5078125
1333,0.83984375,-0.078125,0.49609375
1334,0.83984375,-0.078125,0.46875
1335,0.828125,-0.0703125,0.46484375
1336,0.82421875,-0.06640625,0.46875
1337,0.8203125,-0.0546875,0.45703125
1338,0.81640625,-0.0546875,0.46484375
1339,0.8046875,-0.046875,0.45703125
1340,0.80078125,-0.02734375,0.47265625
1341,0.78125,-0.03125,0.47265625
1342,0.78125,-0.03125,0.46484375
1343,0.7734375,-0.03515625,0.484375
1344,0.765625,-0.02734375,0.48828125
1345,0.7578125,-0.109375,0.4375
1346,0.75,-0.1171875,0.4453125
1347,0.73828125,-0.0703125,0.5234375
1348,0.75,-0.03125,0.55859375
1349,0.76171875,0.00390625,0.62109375
1350,0.7890625,0.015625,0.62890625
1351,0.8125,0.03125,0.625
1352,0.78515625,0.0546875,0.609375
1353,0.8125,0.0546875,0.59765625
1354,0.8125,0.06640625,0.57421875
1355,0.80859375,0.08984375,0.5546875
1356,0.7890625,0.1171875,0.546875
1357,0.80078125,0.140625,0.546875
1358,0.79296875,0.1640625,0.52734375
1359,0.79296875,0.171875,0.53515625
1360,0.7890625,0.1875,0.52734375
1361,0.796875,0.1953125,0.51953125
1362,0.79296875,0.1875,0.546875
1363,0.78515625,0.19140625,0.54296875
1364,0.77734375,0.1875,0.55078125
1365,0.75390625,0.16015625,0.55859375
1366,0.76171875,0.1796875,0.57421875
1367,0.75,0.16015625,0.5859375
1368,0.74609375,0.15234375,0.6015625
1369,0.75390625,0.12109375,0.59765625
1370,0.75,0.10546875,0.60546875
1371,0.74609375,0.10546875,0.6015625
1372,0.74609375,0.09375,0.59375
1373,0.73046875,0.0625,0.60546875
1374,0.71875,0.0703125,0.58203125
1375,0.71875,0.0546875,0.6015625
1376,0.7109375,0.046875,0.6015625
1377,0.71875,0.0390625,0.58984375
1378,0.71875,0.046875,0.578125
1379,0.7265625,0.0390625,0.57421875
1380,0.7109375,0.0546875,0.5625
1381,0.71484375,0.046875,0.57421875
1382,0.72265625,0.05859375,0.5859375
1383,0.71875,0.0703125,0.57421875
1384,0.703125,0.07421875,0.59765625
1385,0.7109375,0.08984375,0.60546875
1386,0.69140625,0.08203125,0.5859375
1387,0.6953125,0.0859375,0.59375
1388,0.6953125,0.0859375,0.578125
1389,0.6953125,0.0859375,0.59375
1390,0.68359375,0.0859375,0.58203125
1391,0.69140625,0.08203125,0.6015625
1392,0.6953125,0.078125,0.60546875
1393,0.6796875,0.08984375,0.609375
1394,0.703125,0.0703125,0.61328125
1395,0.69921875,0.05859375,0.61328125
1396,0.703125,0.0625,0.60546875
1397,0.7265625,0.0546875,0.6015625
1398,0.73046875,0.05859375,0.6015625
1399,0.734375,0.05078125,0.58984375
1400,0.73046875,0.03515625,0.60546875
1401,0.734375,0.0390625,0.5859375
1402,0.73046875,0.02734375,0.5546875
1403,0.75,0.0234375,0.5625
1404,0.75,0.02734375,0.5625
1405,0.75390625,0.00390625,0.55078125
1406,0.7578125,0.01171875,0.546875
1407,0.765625,0.01953125,0.56640625
1408,0.765625,0.015625,0.5625
1409,0.76953125,0.02734375,0.5703125
1410,0.77734375,0.03125,0.57421875
1411,0.77734375,0.02734375,0.58203125
1412,0.7734375,0.0390625,0.5859375
1413,0.77734375,0.05078125,0.59765625
1414,0.76953125,0.0546875,0.59765625
1415,0.765625,0.05859375,0.5859375
1416,0.7578125,0.0625,0.59765625
1417,0.7578125,0.06640625,0.6015625
1418,0.76171875,0.046875,0.5859375
1419,0.7578125,0.05078125,0.61328125
1420,0.75390625,0.05859375,0.59375
1421,0.75,0.0546875,0.5859375
1422,0.75,0.05859375,0.59765625
1423,0.76171875,0.046875,0.58984375
1424,0.74609375,0.046875,0.58203125
1425,0.75390625,0.0390625,0.60546875
1426,0.75,0.0390625,0.59765625
1427,0.75390625,0.02734375,0.609375
1428,0.734375,0.03125,0.59765625
1429,0.7421875,0.03125,0.578125
1430,0.74609375,0.01171875,0.59375
1431,0.73828125,0.02734375,0.58984375
1432,0.73828125,0.015625,0.57421875
1433,0.73046875,0.02734375,0.5703125
1434,0.74609375,0.03515625,0.578125
1435,0.74609375,0.0390625,0.55859375
1436,0.7421875,0.046875,0.55859375
1437,0.74609375,0.04296875,0.55078125
1438,0.75390625,0.02734375,0.55078125
1439,0.7578125,0.0546875,0.55859375
1440,0.765625,0.0546875,0.5546875
1441,0.75390625,0.06640625,0.55078125
1442,0.77734375,0.05859375,0.5546875
1443,0.7734375,0.0703125,0.55078125
1444,0.77734375,0.0703125,0.55078125
1445,0.7890625,0.06640625,0.5546875
1446,0.78125,0.078125,0.55078125
1447,0.78515625,0.0859375,0.54296875
1448,0.7734375,0.09375,0.5625
1449,0.79296875,0.109375,0.5546875
1450,0.77734375,0.109375,0.55859375
1451,0.78515625,0.10546875,0.56640625
1452,0.78125,0.109375,0.55859375
1453,0.77734375,0.09765625,0.546875
1454,0.7734375,0.109375,0.5625
1455,0.76953125,0.1015625,0.5703125
1456,0.76171875,0.08984375,0.5625
1457,0.76953125,0.08203125,0.5859375
1458,0.7578125,0.078125,0.56640625
1459,0.75390625,0.078125,0.57421875
1460,0.7578125,0.06640625,0.5703125
1461,0.75390625,0.0625,0.56640625
1462,0.765625,0.05859375,0.578125
1463,0.75390625,0.0546875,0.578125
1464,0.7578125,0.046875,0.5625
1465,0.76171875,0.046875,0.55859375
1466,0.78125,0.04296875,0.5625
1467,0.7734375,0.05078125,0.546875
1468,0.79296875,0.03515625,0.546875
1469,0.7890625,0.0390625,0.5625
1470,0.796875,0.0390625,0.54296875
1471,0.8046875,0.0390625,0.55078125
1472,0.7890625,0.02734375,0.5546875
1473,0.7890625,0.0390625,0.56640625
1474,0.77734375,0.0390625,0.5703125
1475,0.77734375,0.03125,0.578125
1476,0.76953125,0.0390625,0.58984375
1477,0.765625,0.03125,0.59765625
1478,0.7578125,0.03125,0.61328125
1479,0.75390625,0.03515625,0.6015625
1480,0.73828125,0.03125,0.61328125
1481,0.7421875,0.02734375,0.60546875
1482,0.73828125,0.01953125,0.61328125
1483,0.73828125,0.01171875,0.60546875
1484,0.7265625,0.015625,0.61328125
1485,0.71875,0.01953125,0.6015625
1486,0.71875,0.0234375,0.6171875
1487,0.72265625,0.0078125,0.6015625
1488,0.72265625,0.0078125,0.60546875
1489,0.75,0.01171875,0.6796875
1490,0.7109375,0.01171875,0.60546875
1491,0.70703125,0.0234375,0.6015625
1492,0.73046875,0.02734375,0.5859375
1493,0.71875,0.04296875,0.59375
1494,0.73046875,0.03515625,0.5859375
1495,0.72265625,0.03515625,0.58984375
1496,0.73828125,0.0234375,0.58203125
1497,0.7421875,0.02734375,0.5625
1498,0.7421875,0.03515625,0.578125
1499,0.7421875,0.0390625,0.62890625
1500,0.734375,0.0390625,0.59375
1501,0.7421875,0.03515625,0.59765625
1502,0.72265625,0.04296875,0.59375
1503,0.7421875,0.03125,0.60546875
1504,0.73828125,0.03515625,0.61328125
1505,0.7265625,0.03125,0.61328125
1506,0.73046875,0.04296875,0.6171875
1507,0.72265625,0.04296875,0.625
1508,0.72265625,0.0390625,0.61328125
1509,0.71484375,0.04296875,0.6171875
1510,0.73046875,0.03125,0.609375
1511,0.70703125,0.046875,0.61328125
1512,0.71875,0.046875,0.6015625
1513,0.703125,0.05078125,0.609375
1514,0.70703125,0.0546875,0.61328125
1515,0.7109375,0.04296875,0.59765625
1516,0.73046875,0.0546875,0.58203125
1517,0.734375,0.046875,0.5703125
1518,0.7265625,0.05859375,0.5625
1519,0.7265625,0.05859375,0.609375
1520,0.734375,0.0625,0.6015625
1521,0.7265625,0.0625,0.5859375
1522,0.73828125,0.05078125,0.58984375
1523,0.73046875,0.05078125,0.59375
1524,0.73828125,0.046875,0.6015625
1525,0.7265625,0.05078125,0.62109375
1526,0.7421875,0.046875,0.609375
1527,0.73828125,0.05078125,0.60546875
1528,0.74609375,0.0546875,0.6171875
1529,0.734375,0.046875,0.61328125
1530,0.734375,0.04296875,0.60546875
1531,0.74609375,0.0390625,0.59375
1532,0.73046875,0.046875,0.6015625
1533,0.71875,0.0390625,0.59765625
1534,0.73046875,0.03515625,0.58984375
1535,0.7265625,0.0390625,0.5859375
1536,0.73046875,0.03515625,0.609375
1537,0.7265625,0.0234375,0.59375
1538,0.734375,0.05078125,0.6015625
1539,0.73828125,0.04296875,0.60546875
1540,0.73046875,0.046875,0.609375
1541,0.73828125,0.05078125,0.609375
1542,0.734375,0.0625,0.60546875
1543,0.73046875,0.0625,0.58984375
1544,0.7421875,0.0703125,0.58984375
1545,0.72265625,0.05859375,0.59765625
1546,0.73828125,0.0703125,0.59765625
1547,0.734375,0.05859375,0.6015625
1548,0.73828125,0.05078125,0.59765625
1549,0.73828125,0.06640625,0.578125
1550,0.75,0.05078125,0.59375
1551,0.73828125,0.0390625,0.58984375
1552,0.7421875,0.0390625,0.6015625
1553,0.73828125,0.03125,0.6015625
1554,0.734375,0.03125,0.60546875
1555,0.73046875,0.0234375,0.61328125
1556,0.73828125,0.0234375,0.609375
1557,0.7265625,0.01953125,0.60546875
1558,0.734375,0.01953125,0.61328125
1559,0.73046875,0.03125,0.61328125
1560,0.73046875,0.03515625,0.60546875
1561,0.74609375,0.04296875,0.609375
1562,0.73046875,0.046875,0.6015625
1563,0.73046875,0.05859375,0.59375
1564,0.73828125,0.046875,0.60546875
1565,0.72265625,0.06640625,0.5859375
1566,0.73046875,0.06640625,0.59765625
1567,0.734375,0.05859375,0.59375
1568,0.7265625,0.05859375,0.5859375
1569,0.734375,0.06640625,0.59375
1570,0.734375,0.06640625,0.578125
1571,0.734375,0.046875,0.59765625
1572,0.7265625,0.0546875,0.6171875
1573,0.7421875,0.04296875,0.59765625
1574,0.73046875,0.05078125,0.609375
1575,0.7265625,0.03515625,0.609375
1576,0.70703125,0.09375,0.5390625
1577,0.71875,0.05078125,0.59765625
1578,0.71875,0.046875,0.60546875
1579,0.72265625,0.046875,0.59765625
1580,0.71875,0.04296875,0.625
1581,0.71484375,0.0546875,0.609375
1582,0.70703125,0.05078125,0.59375
1583,0.71484375,0.0546875,0.6171875
1584,0.71875,0.0546875,0.6015625
1585,0.71484375,0.05859375,0.60546875
1586,0.72265625,0.0546875,0.6171875
1587,0.71484375,0.046875,0.6171875
1588,0.71484375,0.046875,0.625
1589,0.7109375,0.04296875,0.58984375
1590,0.7109375,0.05078125,0.6015625
1591,0.734375,0.046875,0.609375
1592,0.72265625,0.05859375,0.6015625
1593,0.73046875,0.05078125,0.609375
1594,0.71875,0.0546875,0.59375
1595,0.72265625,0.05078125,0.58203125
1596,0.73046875,0.0390625,0.58984375
1597,0.73046875,0.02734375,0.58984375
1598,0.7265625,0.03515625,0.59765625
1599,0.73828125,0.046875,0.59375
1600,0.73046875,0.0390625,0.58984375
1601,0.73046875,0.046875,0.6015625
1602,0.7265625,0.05078125,0.609375
1603,0.73046875,0.046875,0.60546875
1604,0.73046875,0.03125,0.58984375
1605,0.73046875,0.0390625,0.625
1606,0.734375,0.046875,0.625
1607,0.7265625,0.04296875,0.609375
1608,0.734375,0.04296875,0.6171875
1609,0.72265625,0.0546875,0.609375
1610,0.72265625,0.046875,0.6015625
1611,0.72265625,0.0390625,0.6015625
1612,0.72265625,0.046875,0.62109375
1613,0.73046875,0.05078125,0.62109375
1614,0.73046875,0.05078125,0.609375
1615,0.7265625,0.046875,0.6171875
1616,0.72265625,0.046875,0.6171875
1617,0.73046875,0.03515625,0.61328125
1618,0.71484375,0.0390625,0.62109375
1619,0.72265625,0.03515625,0.6015625
1620,0.7265625,0.03515625,0.6171875
1621,0.7265625,0.04296875,0.6171875
1622,0.72265625,0.03515625,0.6015625
1623,0.71875,0.0390625,0.6171875
1624,0.72265625,0.02734375,0.60546875
1625,0.71875,0.0234375,0.609375
1626,0.71875,0.0390625,0.61328125
1627,0.72265625,0.03125,0.62109375
1628,0.7109375,0.046875,0.61328125
1629,0.71484375,0.0390625,0.6171875
1630,0.72265625,0.04296875,0.60546875
1631,0.7265625,0.04296875,0.609375
1632,0.71484375,0.046875,0.609375
1633,0.7109375,0.03515625,0.6015625
1634,0.7265625,0.05078125,0.61328125
1635,0.71875,0.04296875,0.625
1636,0.7265625,0.04296875,0.61328125
1637,0.72265625,0.03125,0.6015625
1638,0.71875,0.046875,0.609375
1639,0.71875,0.04296875,0.61328125
1640,0.73046875,0.03515625,0.6015625
1641,0.71875,0.046875,0.61328125
1642,0.71875,0.046875,0.609375
1643,0.71875,0.04296875,0.61328125
1644,0.71484375,0.046875,0.60546875
1645,0.7265625,0.0625,0.60546875
1646,0.70703125,0.0625,0.609375
1647,0.7109375,0.0546875,0.6015625
1648,0.71875,0.05859375,0.6015625
1649,0.70703125,0.05078125,0.60546875
1650,0.71484375,0.0546875,0.60546875
1651,0.71484375,0.05078125,0.61328125
1652,0.71875,0.0625,0.609375
1653,0.703125,0.0390625,0.59765625
1654,0.7265625,0.04296875,0.60546875
1655,0.71875,0.05078125,0.6171875
1656,0.73046875,0.05859375,0.6171875
1657,0.72265625,0.046875,0.61328125
1658,0.72265625,0.05859375,0.6171875
1659,0.71484375,0.0546875,0.640625
1660,0.71875,0.05078125,0.61328125
1661,0.72265625,0.0546875,0.61328125
1662,0.71484375,0.046875,0.62109375
1663,0.6796875,0.04296875,0.5546875
1664,0.7109375,0.05859375,0.61328125
1665,0.734375,0.0546875,0.60546875
1666,0.7265625,0.0546875,0.6015625
1667,0.71484375,0.046875,0.59765625
1668,0.7265625,0.0546875,0.59765625
1669,0.7265625,0.05078125,0.5859375
1670,0.70703125,0.04296875,0.6015625
1671,0.7265625,0.05859375,0.59765625
1672,0.71875,0.04296875,0.609375
1673,0.7109375,0.046875,0.60546875
1674,0.71484375,0.05078125,0.59765625
1675,0.7109375,0.0625,0.6015625
1676,0.7109375,0.046875,0.59765625
1677,0.72265625,0.05078125,0.609375
1678,0.70703125,0.05078125,0.60546875
1679,0.71875,0.05859375,0.61328125
1680,0.71875,0.06640625,0.6015625
1681,0.7109375,0.05078125,0.6171875
1682,0.7109375,0.0546875,0.6015625
1683,0.71875,0.05859375,0.609375
1684,0.7109375,0.05859375,0.60546875
1685,0.71484375,0.0625,0.59765625
1686,0.71875,0.0546875,0.625
1687,0.703125,0.05859375,0.58984375
1688,0.71484375,0.05859375,0.59765625
1689,0.7109375,0.08203125,0.59375
1690,0.7265625,0.05078125,0.609375
1691,0.7109375,0.0546875,0.60546875
1692,0.734375,0.046875,0.609375
1693,0.71484375,0.046875,0.6015625
1694,0.70703125,0.05078125,0.6015625
1695,0.70703125,0.0390625,0.609375
1696,0.7109375,0.05078125,0.6171875
1697,0.71484375,0.03125,0.6171875
1698,0.72265625,0.04296875,0.6328125
1699,0.73046875,0.0390625,0.6171875
1700,0.71875,0.046875,0.625
1701,0.71484375,0.04296875,0.61328125
1702,0.73046875,0.05859375,0.61328125
1703,0.6484375,0.0625,0.6953125
1704,0.7265625,0.0546875,0.62109375
1705,0.70703125,0.0546875,0.60546875
1706,0.72265625,0.0625,0.60546875
1707,0.71484375,0.0703125,0.609375
1708,0.70703125,0.0625,0.59765625
1709,0.6953125,0.0703125,0.59765625
1710,0.7109375,0.07421875,0.6171875
1711,0.703125,0.0703125,0.59375
1712,0.70703125,0.0703125,0.59765625
1713,0.703125,0.07421875,0.609375
1714,0.70703125,0.06640625,0.60546875
1715,0.70703125,0.06640625,0.60546875
1716,0.703125,0.07421875,0.625
1717,0.69140625,0.078125,0.62109375
1718,0.703125,0.078125,0.62109375
1719,0.7109375,0.06640625,0.62109375
1720,0.71484375,0.06640625,0.62109375
1721,0.72265625,0.0625,0.62109375
1722,0.71875,0.0703125,0.61328125
1723,0.70703125,0.07421875,0.625
1724,0.70703125,0.06640625,0.63671875
1725,0.703125,0.07421875,0.60546875
1726,0.70703125,0.06640625,0.6171875
1727,0.72265625,0.0703125,0.6328125
1728,0.703125,0.0625,0.6328125
1729,0.71484375,0.0625,0.6171875
1730,0.71875,0.0625,0.61328125
1731,0.6953125,0.06640625,0.6015625
1732,0.7109375,0.078125,0.625
1733,0.69921875,0.0625,0.6171875
1734,0.7109375,0.0625,0.609375
1735,0.7109375,0.0703125,0.6171875
1736,0.71484375,0.06640625,0.609375
1737,0.69921875,0.07421875,0.625
1738,0.70703125,0.0703125,0.61328125
1739,0.70703125,0.06640625,0.6015625
1740,0.7109375,0.06640625,0.625
1741,0.703125,0.0703125,0.62109375
1742,0.69921875,0.0625,0.6328125
1743,0.7109375,0.0625,0.60546875
1744,0.703125,0.078125,0.62890625
1745,0.703125,0.0625,0.60546875
1746,0.69140625,0.07421875,0.640625
1747,0.71484375,0.0703125,0.61328125
1748,0.70703125,0.06640625,0.62890625
1749,0.69921875,0.07421875,0.625
1750,0.69921875,0.0546875,0.69140625
1751,0.70703125,0.078125,0.62109375
1752,0.7109375,0.08203125,0.61328125
1753,0.70703125,0.0703125,0.625
1754,0.70703125,0.0625,0.625
1755,0.71875,0.06640625,0.62109375
1756,0.70703125,0.06640625,0.625
1757,0.69921875,0.0625,0.62109375
1758,0.6953125,0.0703125,0.62109375
1759,0.6953125,0.0625,0.6328125
1760,0.69921875,0.06640625,0.62890625
1761,0.6953125,0.0703125,0.62109375
1762,0.6953125,0.0703125,0.640625
1763,0.6953125,0.0625,0.62890625
1764,0.6953125,0.078125,0.61328125
1765,0.703125,0.07421875,0.640625
1766,0.69921875,0.0625,0.62890625
1767,0.71484375,0.05859375,0.62109375
1768,0.7109375,0.0859375,0.62109375
1769,0.7109375,0.078125,0.62890625
1770,0.69921875,0.08203125,0.6328125
1771,0.703125,0.07421875,0.640625
1772,0.69921875,0.078125,0.62890625
1773,0.6953125,0.06640625,0.6328125
1774,0.69921875,0.078125,0.62890625
1775,0.69921875,0.07421875,0.625
1776,0.6953125,0.08203125,0.625
1777,0.7109375,0.0703125,0.63671875
1778,0.70703125,0.07421875,0.62890625
1779,0.69140625,0.0703125,0.6171875
1780,0.703125,0.06640625,0.62109375
1781,0.6953125,0.06640625,0.625
1782,0.69921875,0.07421875,0.625
1783,0.6953125,0.0625,0.609375
1784,0.703125,0.06640625,0.6015625
1785,0.69921875,0.0625,0.6171875
1786,0.69140625,0.06640625,0.60546875
1787,0.69140625,0.05859375,0.60546875
1788,0.6875,0.07421875,0.61328125
1789,0.69140625,0.06640625,0.625
1790,0.70703125,0.05859375,0.62109375
1791,0.703125,0.08203125,0.63671875
1792,0.70703125,0.0703125,0.625
1793,0.70703125,0.078125,0.625
1794,0.7109375,0.0703125,0.64453125
1795,0.703125,0.0859375,0.61328125
1796,0.70703125,0.08203125,0.6328125
1797,0.70703125,0.078125,0.62890625
1798,0.69921875,0.08984375,0.62109375
1799,0.703125,0.0859375,0.62109375
1800,0.7109375,0.08203125,0.6171875
1801,0.70703125,0.078125,0.625
1802,0.69921875,0.07421875,0.62890625
1803,0.70703125,0.07421875,0.6171875
1804,0.6953125,0.07421875,0.625
1805,0.69921875,0.06640625,0.63671875
1806,0.703125,0.0703125,0.62109375
1807,0.6953125,0.07421875,0.625
1808,0.70703125,0.0703125,0.6328125
1809,0.7109375,0.0703125,0.63671875
1810,0.6953125,0.06640625,0.6328125
1811,0.68359375,0.07421875,0.625
1812,0.69140625,0.0703125,0.625
1813,0.703125,0.07421875,0.62890625
1814,0.69140625,0.0703125,0.625
1815,0.6875,0.0703125,0.6328125
1816,0.6953125,0.0625,0.6328125
1817,0.69140625,0.07421875,0.61328125
1818,0.69140625,0.0703125,0.61328125
1819,0.69140625,0.0703125,0.6328125
1820,0.68359375,0.08203125,0.60546875
1821,0.6875,0.0703125,0.61328125
1822,0.69140625,0.08984375,0.61328125
1823,0.6953125,0.0859375,0.6328125
1824,0.69140625,0.08203125,0.61328125
1825,0.68359375,0.078125,0.6171875
1826,0.703125,0.0859375,0.625
1827,0.68359375,0.07421875,0.6171875
1828,0.71484375,0.05859375,0.5859375
1829,0.7109375,0.08984375,0.6328125
1830,0.703125,0.08984375,0.62890625
1831,0.6953125,0.09375,0.6328125
1832,0.71484375,0.0703125,0.609375
1833,0.69140625,0.06640625,0.62890625
1834,0.69921875,0.06640625,0.640625
1835,0.69921875,0.07421875,0.6484375
1836,0.69921875,0.07421875,0.640625
1837,0.6796875,0.04296875,0.59765625
1838,0.70703125,0.05859375,0.640625
1839,0.69140625,0.0625,0.64453125
1840,0.69140625,0.0546875,0.6328125
1841,0.703125,0.05859375,0.625
1842,0.703125,0.0546875,0.62890625
1843,0.6953125,0.05859375,0.6328125
1844,0.69921875,0.06640625,0.61328125
1845,0.69140625,0.07421875,0.6171875
1846,0.6953125,0.07421875,0.6171875
1847,0.6875,0.07421875,0.61328125
1848,0.703125,0.0703125,0.609375
1849,0.69921875,0.078125,0.62109375
1850,0.69140625,0.07421875,0.60546875
1851,0.69921875,0.08203125,0.61328125
1852,0.70703125,0.08203125,0.6328125
1853,0.6953125,0.0859375,0.64453125
1854,0.69921875,0.08203125,0.63671875
1855,0.7109375,0.07421875,0.625
1856,0.69921875,0.078125,0.63671875
1857,0.69921875,0.07421875,0.6328125
1858,0.70703125,0.078125,0.62890625
1859,0.69140625,0.0859375,0.625
1860,0.6875,0.078125,0.62890625
1861,0.69140625,0.09375,0.62890625
1862,0.69140625,0.08203125,0.6328125
1863,0.70703125,0.0703125,0.62890625
1864,0.69140625,0.07421875,0.625
1865,0.6875,0.078125,0.6171875
1866,0.703125,0.07421875,0.625
1867,0.69921875,0.06640625,0.62109375
1868,0.68359375,0.0703125,0.63671875
1869,0.6875,0.0703125,0.62890625
1870,0.6875,0.0625,0.6328125
1871,0.6953125,0.0625,0.62890625
1872,0.6953125,0.06640625,0.62109375
1873,0.69140625,0.07421875,0.6171875
1874,0.671875,0.078125,0.6328125
1875,0.69140625,0.0625,0.62890625
1876,0.69921875,0.06640625,0.63671875
1877,0.6875,0.0703125,0.625
1878,0.69921875,0.0625,0.6328125
1879,0.6875,0.07421875,0.61328125
1880,0.6953125,0.0703125,0.62890625
1881,0.6953125,0.0703125,0.6171875
1882,0.69921875,0.0703125,0.62890625
1883,0.6875,0.0703125,0.625
1884,0.69921875,0.078125,0.63671875
1885,0.68359375,0.06640625,0.625
1886,0.6953125,0.0625,0.625
1887,0.6875,0.0703125,0.625
1888,0.6953125,0.0703125,0.6171875
1889,0.69140625,0.08203125,0.609375
1890,0.6953125,0.078125,0.61328125
1891,0.6875,0.08984375,0.62109375
1892,0.69140625,0.07421875,0.640625
1893,0.6953125,0.078125,0.63671875
1894,0.70703125,0.07421875,0.62890625
1895,0.70703125,0.0703125,0.6171875
1896,0.69140625,0.06640625,0.62890625
1897,0.6953125,0.0703125,0.62109375
1898,0.6953125,0.06640625,0.63671875
1899,0.703125,0.05859375,0.63671875
1900,0.69921875,0.05859375,0.6171875
1901,0.69140625,0.06640625,0.63671875
1902,0.69140625,0.06640625,0.62109375
1903,0.68359375,0.06640625,0.640625
1904,0.6953125,0.0625,0.62109375
1905,0.6953125,0.06640625,0.62890625
1906,0.69921875,0.07421875,0.6171875
1907,0.6953125,0.07421875,0.62890625
1908,0.69921875,0.0703125,0.62890625
1909,0.703125,0.06640625,0.640625
1910,0.69921875,0.06640625,0.62109375
1911,0.69140625,0.078125,0.6328125
1912,0.69921875,0.0703125,0.640625
1913,0.703125,0.06640625,0.63671875
1914,0.70703125,0.06640625,0.625
1915,0.69921875,0.0703125,0.6328125
1916,0.69140625,0.0703125,0.63671875
1917,0.703125,0.0703125,0.60546875
1918,0.703125,0.0703125,0.625
1919,0.6953125,0.05859375,0.62890625
1920,0.6953125,0.07421875,0.62109375
1921,0.703125,0.05859375,0.63671875
1922,0.69140625,0.06640625,0.62890625
1923,0.69921875,0.06640625,0.62109375
1924,0.66796875,0.0546875,0.640625
1925,0.69921875,0.04296875,0.61328125
1926,0.69921875,0.06640625,0.6171875
1927,0.69921875,0.05859375,0.625
1928,0.6875,0.0546875,0.62109375
1929,0.6953125,0.0703125,0.62890625
1930,0.6953125,0.0546875,0.6328125
1931,0.6875,0.0625,0.62890625
1932,0.703125,0.0546875,0.6328125
1933,0.69921875,0.0703125,0.625
1934,0.703125,0.05859375,0.625
1935,0.69921875,0.06640625,0.640625
1936,0.69140625,0.0703125,0.6328125
1937,0.70703125,0.05859375,0.62109375
1938,0.6875,0.0625,0.625
1939,0.69921875,0.05859375,0.62890625
1940,0.703125,0.0625,0.62109375
1941,0.6875,0.0546875,0.625
1942,0.69921875,0.05859375,0.640625
1943,0.69921875,0.05859375,0.62890625
1944,0.6875,0.0625,0.6328125
1945,0.70703125,0.05078125,0.62109375
1946,0.69921875,0.0625,0.6171875
1947,0.6875,0.0546875,0.61328125
1948,0.69140625,0.05859375,0.625
1949,0.6953125,0.05078125,0.62109375
1950,0.6875,0.05859375,0.625
1951,0.68359375,0.0703125,0.640625
1952,0.69140625,0.06640625,0.60546875
1953,0.68359375,0.05859375,0.62890625
1954,0.6953125,0.0546875,0.625
1955,0.69140625,0.06640625,0.60546875
1956,0.6953125,0.0625,0.6328125
1957,0.69140625,0.06640625,0.62890625
1958,0.6953125,0.0625,0.6171875
1959,0.6953125,0.0625,0.62890625
1960,0.69921875,0.07421875,0.62890625
1961,0.69140625,0.05859375,0.6171875
1962,0.703125,0.05859375,0.62890625
1963,0.7109375,0.0625,0.62890625
1964,0.69921875,0.0546875,0.63671875
1965,0.6953125,0.0546875,0.62109375
1966,0.69140625,0.05078125,0.6171875
1967,0.6953125,0.0703125,0.63671875
1968,0.69140625,0.05859375,0.6328125
1969,0.69921875,0.0546875,0.63671875
1970,0.7109375,0.0546875,0.62109375
1971,0.69140625,0.06640625,0.625
1972,0.69140625,0.06640625,0.625
1973,0.70703125,0.0625,0.63671875
1974,0.703125,0.0546875,0.6328125
1975,0.6875,0.06640625,0.62109375
1976,0.6875,0.078125,0.625
1977,0.69140625,0.0703125,0.6328125
1978,0.6953125,0.078125,0.62890625
1979,0.69921875,0.0703125,0.625
1980,0.6953125,0.07421875,0.62890625
1981,0.69921875,0.06640625,0.6328125
1982,0.70703125,0.078125,0.62109375
1983,0.69140625,0.06640625,0.62109375
1984,0.6953125,0.0625,0.63671875
1985,0.70703125,0.0546875,0.640625
1986,0.69140625,0.0625,0.62890625
1987,0.6875,0.046875,0.65234375
1988,0.6875,0.0546875,0.64453125
1989,0.69140625,0.046875,0.6328125
1990,0.69140625,0.0390625,0.6171875
1991,0.6953125,0.03125,0.63671875
1992,0.71875,0.02734375,0.62890625
1993,0.69921875,0.0546875,0.625
1994,0.69921875,0.046875,0.6171875
1995,0.69921875,0.046875,0.62109375
1996,0.703125,0.05078125,0.62890625
1997,0.6953125,0.0625,0.609375
1998,0.7109375,0.0625,0.61328125
1999,0.69921875,0.0703125,0.6015625
2000,0.69921875,0.07421875,0.60546875
2001,0.703125,0.0703125,0.61328125
2002,0.7109375,0.0625,0.6171875
2003,0.703125,0.0703125,0.609375
2004,0.69921875,0.07421875,0.62890625
2005,0.703125,0.078125,0.62890625
2006,0.6953125,0.06640625,0.61328125
2007,0.69921875,0.06640625,0.62890625
2008,0.71484375,0.0703125,0.625
2009,0.6875,0.06640625,0.63671875
2010,0.6875,0.07421875,0.63671875
2011,0.6875,0.07421875,0.625
2012,0.69921875,0.0625,0.62890625
2013,0.69921875,0.0703125,0.625
2014,0.68359375,0.07421875,0.62890625
2015,0.6796875,0.0625,0.63671875
2016,0.6875,0.0703125,0.625
2017,0.69140625,0.07421875,0.63671875
2018,0.69140625,0.05859375,0.61328125
2019,0.70703125,0.06640625,0.625
2020,0.703125,0.05078125,0.6328125
2021,0.69921875,0.05859375,0.6328125
2022,0.6953125,0.0625,0.62890625
2023,0.703125,0.05859375,0.62890625
2024,0.71484375,0.046875,0.6328125
2025,0.69140625,0.0625,0.64453125
2026,0.6953125,0.0625,0.62109375
2027,0.6953125,0.0625,0.625
2028,0.703125,0.0625,0.62109375
2029,0.6953125,0.06640625,0.62890625
2030,0.69921875,0.0625,0.6171875
2031,0.6953125,0.06640625,0.62890625
2032,0.69921875,0.0703125,0.62109375
2033,0.6875,0.07421875,0.6328125
2034,0.69140625,0.06640625,0.62890625
2035,0.69921875,0.0703125,0.62109375
2036,0.69140625,0.06640625,0.625
2037,0.6953125,0.0625,0.6328125
2038,0.69921875,0.05859375,0.625
2039,0.68359375,0.0703125,0.625
2040,0.6875,0.078125,0.63671875
2041,0.6953125,0.06640625,0.640625
2042,0.68359375,0.06640625,0.625
2043,0.68359375,0.07421875,0.63671875
2044,0.6875,0.06640625,0.63671875
2045,0.68359375,0.07421875,0.62109375
2046,0.67578125,0.07421875,0.62109375
2047,0.703125,0.06640625,0.61328125
2048,0.6875,0.05859375,0.63671875
2049,0.69140625,0.05859375,0.625
2050,0.6953125,0.0625,0.625
2051,0.69140625,0.05859375,0.63671875
2052,0.6953125,0.0625,0.625
2053,0.69140625,0.0625,0.62890625
2054,0.69921875,0.05859375,0.625
2055,0.6953125,0.05078125,0.63671875
2056,0.6875,0.0703125,0.63671875
2057,0.6953125,0.0703125,0.6171875
2058,0.703125,0.07421875,0.625
2059,0.68359375,0.07421875,0.640625
2060,0.68359375,0.0703125,0.640625
2061,0.69140625,0.078125,0.6328125
2062,0.68359375,0.06640625,0.62890625
2063,0.6875,0.07421875,0.61328125
2064,0.69921875,0.0625,0.625
2065,0.69140625,0.08203125,0.6328125
2066,0.6953125,0.07421875,0.62890625
2067,0.6796875,0.07421875,0.61328125
2068,0.69140625,0.09375,0.625
2069,0.6953125,0.0703125,0.640625
2070,0.6953125,0.0625,0.63671875
2071,0.6953125,0.07421875,0.625
2072,0.68359375,0.07421875,0.640625
2073,0.6875,0.0703125,0.62890625
2074,0.69140625,0.0703125,0.62109375
2075,0.6796875,0.07421875,0.64453125
2076,0.67578125,0.078125,0.63671875
2077,0.6796875,0.07421875,0.6171875
2078,0.6875,0.0703125,0.62890625
2079,0.68359375,0.06640625,0.640625
2080,0.67578125,0.06640625,0.625
2081,0.69921875,0.0625,0.640625
2082,0.67578125,0.06640625,0.62890625
2083,0.6953125,0.06640625,0.63671875
2084,0.6796875,0.06640625,0.62890625
2085,0.69140625,0.0625,0.64453125
2086,0.6953125,0.0625,0.62890625
2087,0.69140625,0.0703125,0.62109375
2088,0.70703125,0.09765625,0.62890625
2089,0.6953125,0.07421875,0.6328125
2090,0.6953125,0.06640625,0.62109375
2091,0.703125,0.0703125,0.60546875
2092,0.703125,0.06640625,0.625
2093,0.69921875,0.078125,0.64453125
2094,0.69140625,0.07421875,0.625
2095,0.6953125,0.07421875,0.6171875
2096,0.6875,0.0625,0.62109375
2097,0.6953125,0.0703125,0.62109375
2098,0.6796875,0.0703125,0.6171875
2099,0.6875,0.07421875,0.65625
2100,0.69140625,0.07421875,0.62890625
2101,0.68359375,0.07421875,0.63671875
2102,0.69140625,0.0625,0.62109375
2103,0.69921875,0.0625,0.6328125
2104,0.69140625,0.06640625,0.640625
2105,0.6875,0.07421875,0.63671875
2106,0.6875,0.07421875,0.6328125
2107,0.6875,0.06640625,0.62890625
2108,0.68359375,0.07421875,0.6328125
2109,0.69921875,0.0625,0.63671875
2110,0.68359375,0.06640625,0.6328125
2111,0.6953125,0.07421875,0.62890625
2112,0.6953125,0.0703125,0.625
2113,0.6875,0.0703125,0.63671875
2114,0.6875,0.0703125,0.6484375
2115,0.6796875,0.06640625,0.62890625
2116,0.6953125,0.0703125,0.62109375
2117,0.6875,0.06640625,0.6171875
2118,0.6875,0.07421875,0.625
2119,0.69921875,0.06640625,0.63671875
2120,0.6875,0.08203125,0.6328125
2121,0.6953125,0.0703125,0.640625
2122,0.6875,0.07421875,0.62890625
2123,0.6796875,0.08203125,0.63671875
2124,0.6875,0.0703125,0.63671875
2125,0.6875,0.07421875,0.6171875
2126,0.69140625,0.07421875,0.6015625
2127,0.68359375,0.06640625,0.6328125
2128,0.69140625,0.078125,0.62109375
2129,0.69140625,0.08203125,0.62109375
2130,0.68359375,0.06640625,0.6328125
2131,0.671875,0.07421875,0.63671875
2132,0.69140625,0.05859375,0.62890625
2133,0.6953125,0.07421875,0.625
2134,0.67578125,0.0703125,0.62890625
2135,0.703125,0.05859375,0.62890625
2136,0.6953125,0.06640625,0.62890625
2137,0.703125,0.0625,0.62890625
2138,0.69140625,0.0703125,0.6484375
2139,0.6875,0.078125,0.65234375
2140,0.70703125,0.06640625,0.62890625
2141,0.69921875,0.0703125,0.62890625
2142,0.69921875,0.05859375,0.6328125
2143,0.69921875,0.06640625,0.625
2144,0.69140625,0.0703125,0.640625
2145,0.6875,0.0703125,0.64453125
2146,0.6953125,0.078125,0.64453125
2147,0.69140625,0.0625,0.6484375
2148,0.6953125,0.078125,0.63671875
2149,0.68359375,0.06640625,0.640625
2150,0.69140625,0.06640625,0.6328125
2151,0.69140625,0.0703125,0.65234375
2152,0.6875,0.07421875,0.62109375
2153,0.69140625,0.07421875,0.640625
2154,0.68359375,0.06640625,0.62890625
2155,0.69140625,0.078125,0.625
2156,0.6796875,0.0703125,0.63671875
2157,0.6875,0.078125,0.6171875
2158,0.671875,0.078125,0.6328125
2159,0.6875,0.078125,0.6328125
2160,0.6875,0.0859375,0.625
2161,0.69921875,0.078125,0.62109375
2162,0.69140625,0.0703125,0.60546875
2163,0.69140625,0.0859375,0.62890625
2164,0.68359375,0.08203125,0.625
2165,0.6875,0.078125,0.640625
2166,0.6953125,0.07421875,0.62109375
2167,0.6953125,0.07421875,0.64453125
2168,0.6875,0.0703125,0.64453125
2169,0.69140625,0.0625,0.640625
2170,0.6875,0.0625,0.64453125
2171,0.68359375,0.0625,0.640625
2172,0.6875,0.0546875,0.6328125
2173,0.68359375,0.04296875,0.65234375
2174,0.6953125,0.0546875,0.6328125
2175,0.6640625,0.08984375,0.6171875
2176,0.69140625,0.05859375,0.62890625
2177,0.69140625,0.0546875,0.625
2178,0.6953125,0.06640625,0.62890625
2179,0.6796875,0.06640625,0.62109375
2180,0.6875,0.0703125,0.6015625
2181,0.6875,0.08203125,0.6171875
2182,0.69921875,0.08203125,0.609375
2183,0.68359375,0.08203125,0.6171875
2184,0.703125,0.06640625,0.6328125
2185,0.6953125,0.0703125,0.6484375
2186,0.67578125,0.07421875,0.66796875
2187,0.7109375,0.07421875,0.640625
2188,0.6953125,0.08203125,0.62890625
2189,0.6875,0.08203125,0.63671875
2190,0.6875,0.06640625,0.640625
2191,0.6875,0.078125,0.6328125
2192,0.6953125,0.0625,0.640625
2193,0.703125,0.06640625,0.6484375
2194,0.6953125,0.0703125,0.6328125
2195,0.68359375,0.08203125,0.62890625
2196,0.6796875,0.0703125,0.62890625
2197,0.69140625,0.07421875,0.640625
2198,0.68359375,0.06640625,0.625
2199,0.6875,0.07421875,0.63671875
2200,0.68359375,0.06640625,0.6328125
2201,0.6796875,0.07421875,0.625
2202,0.69140625,0.046875,0.6171875
2203,0.6875,0.0625,0.6171875
2204,0.68359375,0.0625,0.625
2205,0.67578125,0.06640625,0.63671875
2206,0.68359375,0.07421875,0.64453125
2207,0.69921875,0.06640625,0.64453125
2208,0.68359375,0.0703125,0.6171875
2209,0.6953125,0.0703125,0.62890625
2210,0.6796875,0.06640625,0.61328125
2211,0.69921875,0.05859375,0.63671875
2212,0.68359375,0.0703125,0.62109375
2213,0.69140625,0.0546875,0.63671875
2214,0.6953125,0.0625,0.63671875
2215,0.6953125,0.05859375,0.62890625
2216,0.6953125,0.05859375,0.625
2217,0.6796875,0.0546875,0.62109375
2218,0.6875,0.05078125,0.62890625
2219,0.6953125,0.0625,0.63671875
2220,0.69140625,0.05859375,0.625
2221,0.6796875,0.06640625,0.6328125
2222,0.6796875,0.0625,0.6328125
2223,0.68359375,0.07421875,0.640625
2224,0.6875,0.0625,0.63671875
2225,0.69140625,0.07421875,0.60546875
2226,0.68359375,0.06640625,0.609375
2227,0.69140625,0.07421875,0.640625
2228,0.6875,0.07421875,0.625
2229,0.69140625,0.06640625,0.640625
2230,0.69921875,0.0625,0.66015625
2231,0.6875,0.0703125,0.6328125
2232,0.703125,0.046875,0.63671875
2233,0.6953125,0.05859375,0.63671875
2234,0.69140625,0.0546875,0.61328125
2235,0.6875,0.0625,0.62890625
2236,0.67578125,0.05859375,0.62109375
2237,0.69140625,0.0625,0.6171875
2238,0.6953125,0.0625,0.625
2239,0.6953125,0.05859375,0.62109375
2240,0.68359375,0.0703125,0.640625
2241,0.69140625,0.06640625,0.6328125
2242,0.69140625,0.0703125,0.64453125
2243,0.69140625,0.05859375,0.62890625
2244,0.69921875,0.0625,0.6328125
2245,0.69140625,0.0625,0.62890625
2246,0.6953125,0.0625,0.63671875
2247,0.6953125,0.05859375,0.62890625
2248,0.69921875,0.05859375,0.63671875
2249,0.6875,0.0703125,0.63671875
2250,0.6953125,0.06640625,0.62890625
2251,0.69140625,0.0625,0.65234375
2252,0.6875,0.05859375,0.62109375
2253,0.68359375,0.07421875,0.64453125
2254,0.6875,0.0546875,0.625
2255,0.68359375,0.05859375,0.6171875
2256,0.6875,0.06640625,0.625
2257,0.68359375,0.05078125,0.62890625
2258,0.6796875,0.06640625,0.640625
2259,0.6953125,0.046875,0.64453125
2260,0.68359375,0.06640625,0.625
2261,0.69140625,0.05078125,0.62109375
2262,0.68359375,0.10546875,0.58203125
2263,0.69140625,0.05078125,0.609375
2264,0.703125,0.046875,0.62890625
2265,0.69140625,0.05078125,0.6328125
2266,0.69140625,0.0625,0.62890625
2267,0.70703125,0.0625,0.6328125
2268,0.6875,0.0625,0.640625
2269,0.6953125,0.06640625,0.62890625
2270,0.703125,0.0625,0.6484375
2271,0.6953125,0.05078125,0.64453125
2272,0.68359375,0.05859375,0.6328125
2273,0.703125,0.05078125,0.62109375
2274,0.69140625,0.05859375,0.63671875
2275,0.69921875,0.0546875,0.6328125
2276,0.703125,0.05859375,0.62890625
2277,0.6875,0.05859375,0.625
2278,0.69140625,0.04296875,0.6171875
2279,0.69140625,0.0546875,0.62109375
2280,0.6953125,0.05859375,0.62890625
2281,0.6875,0.05078125,0.62109375
2282,0.6875,0.05078125,0.62890625
2283,0.69921875,0.046875,0.63671875
2284,0.69140625,0.04296875,0.6328125
2285,0.69921875,0.046875,0.62890625
2286,0.6875,0.046875,0.6328125
2287,0.6875,0.0390625,0.62109375
2288,0.6875,0.046875,0.625
2289,0.69140625,0.05859375,0.62890625
2290,0.69140625,0.05078125,0.625
2291,0.69140625,0.05859375,0.625
2292,0.70703125,0.05078125,0.62890625
2293,0.69140625,0.05078125,0.62890625
2294,0.68359375,0.05078125,0.6328125
2295,0.6875,0.05859375,0.6328125
2296,0.6953125,0.05078125,0.62890625
2297,0.6875,0.05859375,0.62109375
2298,0.69140625,0.0546875,0.609375
2299,0.6953125,0.05859375,0.625
2300,0.6953125,0.046875,0.625
2301,0.69921875,0.04296875,0.62890625
2302,0.69140625,0.0625,0.62109375
2303,0.6953125,0.04296875,0.6328125
2304,0.68359375,0.05078125,0.609375
2305,0.69140625,0.046875,0.63671875
2306,0.69140625,0.046875,0.6328125
2307,0.69921875,0.04296875,0.6328125
2308,0.6953125,0.046875,0.63671875
2309,0.69921875,0.0546875,0.640625
2310,0.69140625,0.05859375,0.6328125
2311,0.69140625,0.046875,0.62890625
2312,0.6953125,0.046875,0.63671875
2313,0.703125,0.05078125,0.6484375
2314,0.6953125,0.046875,0.6484375
2315,0.6875,0.046875,0.64453125
2316,0.6953125,0.04296875,0.62890625
2317,0.6953125,0.0546875,0.64453125
2318,0.703125,0.05078125,0.625
2319,0.6875,0.05078125,0.625
2320,0.69140625,0.0625,0.62890625
2321,0.69921875,0.046875,0.62109375
2322,0.6953125,0.046875,0.6328125
2323,0.69140625,0.04296875,0.62109375
2324,0.69921875,0.03515625,0.62890625
2325,0.6953125,0.0390625,0.6328125
2326,0.69140625,0.0390625,0.62890625
2327,0.69140625,0.04296875,0.6328125
2328,0.69921875,0.04296875,0.62890625
2329,0.6875,0.0546875,0.62890625
2330,0.69921875,0.0390625,0.6171875
2331,0.69140625,0.05078125,0.625
2332,0.68359375,0.0546875,0.62109375
2333,0.6875,0.0546875,0.6328125
2334,0.6875,0.05078125,0.63671875
2335,0.69921875,0.05078125,0.62109375
2336,0.6875,0.046875,0.625
2337,0.69921875,0.05859375,0.625
2338,0.68359375,0.0625,0.62890625
2339,0.7109375,0.046875,0.6328125
2340,0.703125,0.0546875,0.63671875
2341,0.703125,0.0390625,0.62109375
2342,0.69140625,0.05078125,0.6484375
2343,0.69921875,0.0625,0.6328125
2344,0.69921875,0.02734375,0.63671875
2345,0.6953125,0.0390625,0.6328125
2346,0.69140625,0.01953125,0.640625
2347,0.68359375,0.02734375,0.62109375
2348,0.68359375,0.03125,0.6328125
2349,0.703125,0.078125,0.546875
2350,0.6953125,0.03515625,0.61328125
2351,0.69921875,0.0390625,0.640625
2352,0.6953125,0.04296875,0.6171875
2353,0.6953125,0.046875,0.6171875
2354,0.69140625,0.046875,0.6171875
2355,0.6875,0.05078125,0.609375
2356,0.69921875,0.0546875,0.6015625
2357,0.6953125,0.05859375,0.625
2358,0.69921875,0.046875,0.625
2359,0.6953125,0.0703125,0.60546875
2360,0.6875,0.0625,0.578125
2361,0.69921875,0.0625,0.6171875
2362,0.6953125,0.05859375,0.609375
2363,0.70703125,0.04296875,0.62890625
2364,0.69921875,0.0546875,0.6328125
2365,0.703125,0.0625,0.6328125
2366,0.69140625,0.0625,0.6171875
2367,0.703125,0.0546875,0.61328125
2368,0.69140625,0.0546875,0.6171875
2369,0.69140625,0.0546875,0.625
2370,0.6875,0.046875,0.6328125
2371,0.6875,0.0546875,0.62109375
2372,0.69140625,0.046875,0.62890625
2373,0.69140625,0.05078125,0.6171875
2374,0.68359375,0.0390625,0.63671875
2375,0.6875,0.04296875,0.6171875
2376,0.69140625,0.04296875,0.625
2377,0.69140625,0.046875,0.62890625
2378,0.6953125,0.0390625,0.62109375
2379,0.703125,0.03125,0.62109375
2380,0.69140625,0.05078125,0.62109375
2381,0.6953125,0.04296875,0.64453125
2382,0.69921875,0.046875,0.60546875
2383,0.6953125,0.04296875,0.63671875
2384,0.6953125,0.046875,0.640625
2385,0.6953125,0.05078125,0.6171875
2386,0.69140625,0.05078125,0.62890625
2387,0.69140625,0.05078125,0.6328125
2388,0.69921875,0.04296875,0.640625
2389,0.6953125,0.046875,0.625
2390,0.68359375,0.0546875,0.62890625
2391,0.6953125,0.05859375,0.6328125
2392,0.703125,0.046875,0.62109375
2393,0.6875,0.0546875,0.62890625
2394,0.69140625,0.0546875,0.63671875
2395,0.69921875,0.05078125,0.6328125
2396,0.69921875,0.0546875,0.62109375
2397,0.69140625,0.05859375,0.62890625
2398,0.6875,0.06640625,0.62109375
2399,0.69140625,0.05859375,0.625
2400,0.6953125,0.0546875,0.6328125
2401,0.68359375,0.05859375,0.625
2402,0.69140625,0.05078125,0.62890625
2403,0.69921875,0.05078125,0.6328125
2404,0.6953125,0.0625,0.625
2405,0.6953125,0.046875,0.62890625
2406,0.6953125,0.0390625,0.64453125
2407,0.69140625,0.05859375,0.6328125
2408,0.69140625,0.0546875,0.6328125
2409,0.66796875,0.046875,0.60546875
2410,0.68359375,0.05078125,0.6171875
2411,0.6875,0.046875,0.6171875
2412,0.69140625,0.0546875,0.6328125
2413,0.69921875,0.046875,0.62890625
2414,0.69140625,0.0625,0.62109375
2415,0.69140625,0.0625,0.62890625
2416,0.6875,0.0546875,0.63671875
2417,0.6875,0.046875,0.625
2418,0.6953125,0.05078125,0.6328125
2419,0.6953125,0.05859375,0.6171875
2420,0.68359375,0.06640625,0.62109375
2421,0.703125,0.0625,0.640625
2422,0.6875,0.0625,0.63671875
2423,0.6875,0.046875,0.63671875
2424,0.6875,0.05859375,0.63671875
2425,0.69921875,0.0546875,0.62109375
2426,0.69140625,0.0546875,0.625
2427,0.6796875,0.0546875,0.625
2428,0.6875,0.0546875,0.6328125
2429,0.6953125,0.0546875,0.6328125
2430,0.68359375,0.05859375,0.62890625
2431,0.6875,0.04296875,0.62890625
2432,0.68359375,0.0546875,0.625
2433,0.67578125,0.05859375,0.64453125
2434,0.6875,0.0546875,0.640625
2435,0.6875,0.046875,0.6171875
2436,0.70703125,0.0078125,0.703125
2437,0.6953125,0.046875,0.6171875
2438,0.6953125,0.05078125,0.6328125
2439,0.6796875,0.05859375,0.640625
2440,0.6953125,0.05078125,0.63671875
2441,0.69921875,0.046875,0.62109375
2442,0.6875,0.05859375,0.6328125
2443,0.68359375,0.06640625,0.6484375
2444,0.69140625,0.0390625,0.63671875
2445,0.6875,0.0625,0.64453125
2446,0.703125,0.046875,0.640625
2447,0.69140625,0.109375,0.65625
2448,0.6875,0.05078125,0.640625
2449,0.6875,0.0625,0.625
2450,0.6875,0.05078125,0.640625
2451,0.6875,0.0703125,0.62109375
2452,0.6875,0.05859375,0.625
2453,0.69140625,0.0546875,0.62109375
2454,0.68359375,0.05859375,0.65625
2455,0.68359375,0.05859375,0.6171875
2456,0.69921875,0.06640625,0.64453125
2457,0.68359375,0.06640625,0.63671875
2458,0.69140625,0.06640625,0.640625
2459,0.6875,0.0625,0.6328125
2460,0.69921875,0.0625,0.63671875
2461,0.69140625,0.05859375,0.640625
2462,0.68359375,0.05859375,0.63671875
2463,0.6875,0.05859375,0.625
2464,0.6875,0.0625,0.62890625
2465,0.68359375,0.0703125,0.640625
2466,0.68359375,0.06640625,0.63671875
2467,0.68359375,0.06640625,0.6328125
2468,0.6875,0.0625,0.6171875
2469,0.6875,0.0703125,0.6328125
2470,0.69140625,0.05078125,0.640625
2471,0.6875,0.0625,0.62890625
2472,0.6953125,0.0546875,0.6171875
2473,0.68359375,0.06640625,0.6328125
2474,0.69140625,0.06640625,0.6328125
2475,0.69140625,0.05859375,0.63671875
2476,0.6875,0.0625,0.609375
2477,0.6875,0.05078125,0.62109375
2478,0.69921875,0.05859375,0.63671875
2479,0.6875,0.0703125,0.625
2480,0.68359375,0.0546875,0.62109375
2481,0.6875,0.0625,0.63671875
2482,0.68359375,0.08203125,0.625
2483,0.69921875,0.06640625,0.6328125
2484,0.6796875,0.0625,0.64453125
2485,0.6875,0.06640625,0.64453125
2486,0.68359375,0.0703125,0.625
2487,0.6796875,0.05859375,0.640625
2488,0.69140625,0.08203125,0.640625
2489,0.6875,0.0625,0.63671875
2490,0.68359375,0.0625,0.63671875
2491,0.6796875,0.0546875,0.63671875
2492,0.6796875,0.0703125,0.63671875
2493,0.6796875,0.0546875,0.62890625
2494,0.68359375,0.06640625,0.64453125
2495,0.6796875,0.0625,0.625
2496,0.66796875,0.06640625,0.63671875
2497,0.67578125,0.0703125,0.640625
2498,0.6875,0.05859375,0.63671875
2499,0.67578125,0.07421875,0.62109375
2500,0.69140625,0.07421875,0.6328125
2501,0.6875,0.078125,0.62109375
2502,0.6953125,0.06640625,0.62890625
2503,0.68359375,0.06640625,0.625
2504,0.6953125,0.0703125,0.61328125
2505,0.6875,0.07421875,0.625
2506,0.6875,0.078125,0.640625
2507,0.6875,0.07421875,0.63671875
2508,0.703125,0.07421875,0.62890625
2509,0.6796875,0.05859375,0.64453125
2510,0.69140625,0.0546875,0.63671875
2511,0.6875,0.07421875,0.6484375
2512,0.68359375,0.0625,0.6640625
2513,0.6875,0.05859375,0.640625
2514,0.68359375,0.05859375,0.640625
2515,0.69921875,0.05078125,0.6171875
2516,0.67578125,0.0546875,0.63671875
2517,0.69140625,0.05859375,0.625
2518,0.67578125,0.05078125,0.6328125
2519,0.68359375,0.078125,0.61328125
2520,0.6796875,0.0625,0.63671875
2521,0.67578125,0.07421875,0.6171875
2522,0.68359375,0.06640625,0.6328125
2523,0.69921875,0.12890625,0.546875
2524,0.6796875,0.07421875,0.62109375
2525,0.69140625,0.0703125,0.62109375
2526,0.6875,0.07421875,0.640625
2527,0.68359375,0.07421875,0.6328125
2528,0.6953125,0.0859375,0.63671875
2529,0.6796875,0.09765625,0.65625
2530,0.67578125,0.078125,0.6328125
2531,0.68359375,0.08984375,0.640625
2532,0.6796875,0.09765625,0.6328125
2533,0.68359375,0.08984375,0.6484375
2534,0.67578125,0.0625,0.62890625
2535,0.6875,0.08984375,0.640625
2536,0.68359375,0.078125,0.65625
2537,0.671875,0.08203125,0.640625
2538,0.6875,0.07421875,0.640625
2539,0.671875,0.08984375,0.6484375
2540,0.68359375,0.078125,0.62890625
2541,0.6875,0.08203125,0.64453125
2542,0.6796875,0.06640625,0.6484375
2543,0.67578125,0.078125,0.6484375
2544,0.67578125,0.07421875,0.6484375
2545,0.68359375,0.06640625,0.62890625
2546,0.68359375,0.06640625,0.640625
2547,0.66796875,0.06640625,0.640625
2548,0.6796875,0.08203125,0.65234375
2549,0.67578125,0.07421875,0.64453125
2550,0.6796875,0.08203125,0.6328125
2551,0.6796875,0.07421875,0.640625
2552,0.6796875,0.0625,0.63671875
2553,0.6875,0.07421875,0.63671875
2554,0.6875,0.078125,0.63671875
2555,0.67578125,0.0703125,0.65234375
2556,0.67578125,0.078125,0.6484375
2557,0.6796875,0.078125,0.63671875
2558,0.6640625,0.078125,0.63671875
2559,0.6796875,0.06640625,0.6328125
2560,0.6796875,0.08203125,0.625
2561,0.67578125,0.06640625,0.65625
2562,0.67578125,0.09375,0.6328125
2563,0.6640625,0.09375,0.62890625
2564,0.6640625,0.078125,0.6328125
2565,0.671875,0.09375,0.63671875
2566,0.66796875,0.0859375,0.65625
2567,0.6796875,0.09765625,0.6484375
2568,0.67578125,0.0859375,0.6328125
2569,0.671875,0.078125,0.64453125
2570,0.6796875,0.09765625,0.63671875
2571,0.67578125,0.08984375,0.6328125
2572,0.671875,0.08984375,0.64453125
2573,0.66796875,0.08203125,0.64453125
2574,0.671875,0.0625,0.63671875
2575,0.671875,0.07421875,0.6328125
2576,0.671875,0.06640625,0.6484375
2577,0.6796875,0.0859375,0.6328125
2578,0.6796875,0.08203125,0.640625
2579,0.69140625,0.07421875,0.6328125
2580,0.68359375,0.078125,0.63671875
2581,0.6796875,0.078125,0.62890625
2582,0.671875,0.07421875,0.6484375
2583,0.6640625,0.08203125,0.6484375
2584,0.6796875,0.08203125,0.6484375
2585,0.6796875,0.08203125,0.640625
2586,0.66796875,0.08203125,0.6484375
2587,0.67578125,0.07421875,0.625
2588,0.66796875,0.0859375,0.6328125
2589,0.67578125,0.07421875,0.6328125
2590,0.6640625,0.07421875,0.6484375
2591,0.6796875,0.06640625,0.63671875
2592,0.69140625,0.0703125,0.640625
2593,0.671875,0.078125,0.6484375
2594,0.6796875,0.07421875,0.63671875
2595,0.67578125,0.078125,0.65234375
2596,0.671875,0.0703125,0.62890625
2597,0.671875,0.06640625,0.625
2598,0.671875,0.0703125,0.62890625
2599,0.66796875,0.08203125,0.63671875
2600,0.6796875,0.07421875,0.640625
2601,0.671875,0.0703125,0.625
2602,0.66796875,0.07421875,0.6328125
2603,0.671875,0.07421875,0.640625
2604,0.67578125,0.06640625,0.63671875
2605,0.671875,0.07421875,0.62890625
2606,0.67578125,0.078125,0.62890625
2607,0.6640625,0.078125,0.6171875
2608,0.671875,0.07421875,0.63671875
2609,0.671875,0.078125,0.64453125
2610,0.671875,0.08203125,0.6640625
2611,0.671875,0.015625,0.70703125
2612,0.671875,0.08984375,0.64453125
2613,0.67578125,0.07421875,0.6328125
2614,0.67578125,0.078125,0.6484375
2615,0.66796875,0.0859375,0.640625
2616,0.671875,0.07421875,0.640625
2617,0.671875,0.06640625,0.65234375
2618,0.6796875,0.07421875,0.65234375
2619,0.6796875,0.0703125,0.66015625
2620,0.671875,0.078125,0.65625
2621,0.66796875,0.07421875,0.6484375
2622,0.671875,0.06640625,0.63671875
2623,0.671875,0.07421875,0.6484375
2624,0.67578125,0.0703125,0.6484375
2625,0.6640625,0.07421875,0.62890625
2626,0.68359375,0.0703125,0.64453125
2627,0.6796875,0.07421875,0.64453125
2628,0.671875,0.0703125,0.64453125
2629,0.67578125,0.06640625,0.65234375
2630,0.67578125,0.078125,0.640625
2631,0.67578125,0.07421875,0.640625
2632,0.671875,0.0859375,0.64453125
2633,0.67578125,0.0703125,0.6328125
2634,0.671875,0.06640625,0.62890625
2635,0.671875,0.078125,0.63671875
2636,0.67578125,0.06640625,0.63671875
2637,0.67578125,0.07421875,0.64453125
2638,0.66796875,0.06640625,0.6328125
2639,0.671875,0.0703125,0.66015625
2640,0.6796875,0.078125,0.63671875
2641,0.67578125,0.08203125,0.6328125
2642,0.671875,0.07421875,0.63671875
2643,0.67578125,0.0703125,0.64453125
2644,0.6875,0.06640625,0.65625
2645,0.6953125,0.06640625,0.6484375
2646,0.6875,0.0703125,0.63671875
2647,0.671875,0.07421875,0.6484375
2648,0.67578125,0.06640625,0.64453125
2649,0.68359375,0.07421875,0.65234375
2650,0.68359375,0.0546875,0.62890625
2651,0.67578125,0.0625,0.6328125
2652,0.6796875,0.06640625,0.63671875
2653,0.6875,0.06640625,0.640625
2654,0.6796875,0.06640625,0.65234375
2655,0.66796875,0.05859375,0.65234375
2656,0.6796875,0.0703125,0.64453125
2657,0.6875,0.05859375,0.64453125
2658,0.6796875,0.0546875,0.6328125
2659,0.67578125,0.06640625,0.6328125
2660,0.6796875,0.05859375,0.64453125
2661,0.67578125,0.05078125,0.63671875
2662,0.671875,0.06640625,0.6328125
2663,0.67578125,0.05859375,0.625
2664,0.6875,0.06640625,0.640625
2665,0.67578125,0.05859375,0.6484375
2666,0.6796875,0.0625,0.6328125
2667,0.6875,0.06640625,0.640625
2668,0.671875,0.06640625,0.63671875
2669,0.67578125,0.0546875,0.64453125
2670,0.6796875,0.05859375,0.64453125
2671,0.68359375,0.05859375,0.63671875
2672,0.671875,0.0625,0.65234375
2673,0.671875,0.05859375,0.640625
2674,0.6796875,0.05859375,0.63671875
2675,0.67578125,0.05859375,0.6328125
2676,0.6796875,0.0546875,0.64453125
2677,0.68359375,0.06640625,0.6640625
2678,0.68359375,0.05859375,0.640625
2679,0.6796875,0.05859375,0.640625
2680,0.67578125,0.07421875,0.6328125
2681,0.6796875,0.05859375,0.640625
2682,0.671875,0.07421875,0.6328125
2683,0.6796875,0.0625,0.6328125
2684,0.6796875,0.078125,0.6328125
2685,0.68359375,0.0703125,0.62890625
2686,0.6875,0.07421875,0.6328125
2687,0.6875,0.07421875,0.62109375
2688,0.69140625,0.06640625,0.62890625
2689,0.67578125,0.07421875,0.64453125
2690,0.6953125,0.0625,0.62890625
2691,0.6796875,0.06640625,0.64453125
2692,0.68359375,0.0546875,0.66015625
2693,0.6875,0.05078125,0.64453125
2694,0.67578125,0.046875,0.66796875
2695,0.67578125,0.046875,0.6328125
2696,0.67578125,0.0390625,0.64453125
2697,0.66796875,0.046875,0.65234375
2698,0.69921875,0.01171875,0.63671875
2699,0.6796875,0.04296875,0.6328125
2700,0.66796875,0.046875,0.64453125
2701,0.68359375,0.04296875,0.640625
2702,0.671875,0.046875,0.63671875
2703,0.68359375,0.05078125,0.6171875
2704,0.671875,0.05859375,0.62109375
2705,0.67578125,0.046875,0.6328125
2706,0.6875,0.0625,0.62890625
2707,0.6875,0.05078125,0.62109375
2708,0.69140625,0.0625,0.625
2709,0.63671875,0.04296875,0.59765625
2710,0.6796875,0.0625,0.625
2711,0.69140625,0.0625,0.62890625
2712,0.6953125,0.0546875,0.63671875
2713,0.6875,0.0546875,0.62890625
2714,0.7109375,0.0546875,0.6328125
2715,0.6953125,0.0546875,0.625
2716,0.68359375,0.046875,0.63671875
2717,0.6953125,0.0625,0.62109375
2718,0.6796875,0.0625,0.64453125
2719,0.6796875,0.05078125,0.6328125
2720,0.6875,0.04296875,0.640625
2721,0.6875,0.05078125,0.640625
2722,0.68359375,0.0546875,0.6484375
2723,0.6796875,0.05859375,0.63671875
2724,0.68359375,0.05859375,0.65625
2725,0.68359375,0.04296875,0.6484375
2726,0.68359375,0.04296875,0.64453125
2727,0.69140625,0.0390625,0.640625
2728,0.6796875,0.0546875,0.6328125
2729,0.6796875,0.046875,0.6171875
2730,0.69140625,0.04296875,0.62890625
2731,0.67578125,0.05078125,0.64453125
2732,0.69140625,0.0390625,0.6328125
2733,0.68359375,0.046875,0.625
2734,0.67578125,0.046875,0.63671875
2735,0.69140625,0.046875,0.63671875
2736,0.69140625,0.02734375,0.625
2737,0.6796875,0.03125,0.6171875
2738,0.70703125,0.0390625,0.6171875
2739,0.6875,0.03515625,0.6328125
2740,0.6875,0.04296875,0.6171875
2741,0.68359375,0.03515625,0.62890625
2742,0.68359375,0.046875,0.640625
2743,0.6875,0.0390625,0.62890625
2744,0.69140625,0.03515625,0.640625
2745,0.69140625,0.03125,0.640625
2746,0.6875,0.03125,0.6171875
2747,0.6953125,0.046875,0.62109375
2748,0.6796875,0.03125,0.62109375
2749,0.69921875,0.0390625,0.64453125
2750,0.67578125,0.04296875,0.62890625
2751,0.6875,0.0546875,0.63671875
2752,0.6953125,0.0390625,0.62109375
2753,0.6953125,0.046875,0.625
2754,0.69140625,0.0390625,0.640625
2755,0.69140625,0.02734375,0.6328125
2756,0.6953125,0.04296875,0.6328125
2757,0.69921875,0.03125,0.6328125
2758,0.69140625,0.03125,0.625
2759,0.6796875,0.0390625,0.640625
2760,0.6796875,0.0390625,0.625
2761,0.68359375,0.0390625,0.62890625
2762,0.67578125,0.04296875,0.6328125
2763,0.67578125,0.0390625,0.6484375
2764,0.6875,0.046875,0.63671875
2765,0.6875,0.04296875,0.63671875
2766,0.68359375,0.0390625,0.640625
2767,0.68359375,0.03125,0.63671875
2768,0.6875,0.03515625,0.64453125
2769,0.6875,0.0390625,0.63671875
2770,0.6953125,0.03515625,0.625
2771,0.69921875,0.0234375,0.625
2772,0.6796875,0.03515625,0.625
2773,0.6875,0.02734375,0.640625
2774,0.69140625,0.02734375,0.64453125
2775,0.6953125,0.03515625,0.6328125
2776,0.69140625,0.02734375,0.62109375
2777,0.69921875,0.03515625,0.62109375
2778,0.6953125,0.03515625,0.62109375
2779,0.6953125,0.046875,0.6171875
2780,0.69140625,0.046875,0.6171875
2781,0.68359375,0.0546875,0.62109375
2782,0.68359375,0.046875,0.62109375
2783,0.6953125,0.0390625,0.61328125
2784,0.6875,0.0390625,0.62109375
2785,0.6875,0.0390625,0.62890625
2786,0.69140625,0.04296875,0.6328125
2787,0.69140625,0.03515625,0.62890625
2788,0.68359375,0.03125,0.62890625
2789,0.67578125,0.03515625,0.62890625
2790,0.69921875,0.03125,0.640625
2791,0.6953125,0.02734375,0.625
2792,0.6953125,0.02734375,0.6328125
2793,0.71484375,0.02734375,0.6171875
2794,0.703125,0.02734375,0.6171875
2795,0.69921875,0.03515625,0.63671875
2796,0.7421875,0.02734375,0.65234375
2797,0.703125,0.03125,0.6171875
2798,0.69921875,0.04296875,0.625
2799,0.70703125,0.04296875,0.6171875
2800,0.703125,0.03125,0.62109375
2801,0.69921875,0.03125,0.61328125
2802,0.70703125,0.0390625,0.6328125
2803,0.703125,0.02734375,0.6328125
2804,0.71875,0.015625,0.62109375
2805,0.703125,0.03515625,0.6328125
2806,0.6953125,0.0390625,0.62890625
2807,0.6953125,0.03125,0.62109375
2808,0.6953125,0.01953125,0.63671875
2809,0.69921875,0.03515625,0.62890625
2810,0.703125,0.0234375,0.62890625
2811,0.6953125,0.04296875,0.6328125
2812,0.6953125,0.03515625,0.625
2813,0.68359375,0.03125,0.62890625
2814,0.7109375,0.0234375,0.6015625
2815,0.6875,0.04296875,0.6328125
2816,0.6953125,0.03125,0.62890625
2817,0.703125,0.02734375,0.61328125
2818,0.703125,0.046875,0.62890625
2819,0.69140625,0.02734375,0.60546875
2820,0.70703125,0.03515625,0.6015625
2821,0.703125,0.0390625,0.625
2822,0.69921875,0.04296875,0.6171875
2823,0.69140625,0.03125,0.62109375
2824,0.703125,0.02734375,0.609375
2825,0.703125,0.04296875,0.6171875
2826,0.69921875,0.04296875,0.625
2827,0.69921875,0.04296875,0.6171875
2828,0.6953125,0.0390625,0.6328125
2829,0.69140625,0.03515625,0.625
2830,0.69921875,0.03125,0.6328125
2831,0.69921875,0.01953125,0.625
2832,0.69140625,0.03515625,0.640625
2833,0.68359375,0.046875,0.625
2834,0.703125,0.03125,0.62890625
2835,0.69140625,0.02734375,0.64453125
2836,0.69921875,0.03125,0.63671875
2837,0.7109375,0.01953125,0.62890625
2838,0.6953125,0.03125,0.6328125
2839,0.68359375,0.03515625,0.62890625
2840,0.69921875,0.02734375,0.625
2841,0.69921875,0.01953125,0.6171875
2842,0.6875,0.04296875,0.62109375
2843,0.6953125,0.01953125,0.62109375
2844,0.703125,0.02734375,0.6328125
2845,0.703125,0.04296875,0.625
2846,0.68359375,0.0390625,0.62890625
2847,0.6875,0.04296875,0.61328125
2848,0.6875,0.0390625,0.6328125
2849,0.68359375,0.046875,0.62109375
2850,0.703125,0.04296875,0.62890625
2851,0.6796875,0.0546875,0.625
2852,0.703125,0.04296875,0.62109375
2853,0.703125,0.03125,0.62109375
2854,0.70703125,0.03515625,0.6328125
2855,0.69140625,0.03515625,0.61328125
2856,0.703125,0.03125,0.6171875
2857,0.703125,0.03125,0.64453125
2858,0.69921875,0.0234375,0.64453125
2859,0.703125,0.03125,0.6484375
2860,0.69921875,0.03125,0.63671875
2861,0.6953125,0.02734375,0.64453125
2862,0.6875,0.01171875,0.63671875
2863,0.69140625,0.01171875,0.6328125
2864,0.68359375,0.0078125,0.62890625
2865,0.6953125,0.01953125,0.63671875
2866,0.6875,0.02734375,0.61328125
2867,0.69140625,0.02734375,0.6328125
2868,0.6953125,0.02734375,0.62890625
2869,0.69140625,0.04296875,0.625
2870,0.6953125,0.03515625,0.62109375
2871,0.69140625,0.046875,0.6171875
2872,0.69921875,0.04296875,0.60546875
2873,0.69140625,0.0546875,0.609375
2874,0.703125,0.04296875,0.60546875
2875,0.69921875,0.05078125,0.625
2876,0.69921875,0.0390625,0.6171875
2877,0.70703125,0.046875,0.6171875
2878,0.69140625,0.05078125,0.625
2879,0.703125,0.03125,0.62890625
2880,0.69921875,0.03515625,0.6328125
2881,0.70703125,0.05078125,0.63671875
2882,0.703125,0.0390625,0.640625
2883,0.71484375,0.0625,0.66015625
2884,0.6953125,0.0390625,0.6328125
2885,0.6875,0.046875,0.6484375
2886,0.6875,0.05078125,0.6328125
2887,0.6953125,0.046875,0.62890625
2888,0.69140625,0.05078125,0.62890625
2889,0.70703125,0.0234375,0.63671875
2890,0.6953125,0.0390625,0.640625
2891,0.6953125,0.03125,0.63671875
2892,0.68359375,0.0390625,0.6171875
2893,0.703125,0.03515625,0.6171875
2894,0.69140625,0.03125,0.62109375
2895,0.70703125,0.03125,0.62890625
2896,0.68359375,0.03515625,0.6328125
2897,0.69140625,0.046875,0.6171875
2898,0.69140625,0.03125,0.62890625
2899,0.70703125,0.03125,0.62109375
2900,0.7109375,0.02734375,0.62890625
2901,0.70703125,0.0234375,0.625
2902,0.70703125,0.03125,0.62890625
2903,0.69921875,0.03125,0.62890625
2904,0.69921875,0.0390625,0.62890625
2905,0.6953125,0.03515625,0.6328125
2906,0.70703125,0.0390625,0.62890625
2907,0.69140625,0.02734375,0.62890625
2908,0.6953125,0.046875,0.6484375
2909,0.6953125,0.0390625,0.62890625
2910,0.69921875,0.01953125,0.6171875
2911,0.69140625,0.0390625,0.6328125
2912,0.69140625,0.04296875,0.62890625
2913,0.68359375,0.0546875,0.625
2914,0.69921875,0.046875,0.64453125
2915,0.69140625,0.03515625,0.640625
2916,0.6953125,0.03515625,0.6328125
2917,0.69140625,0.0390625,0.63671875
2918,0.69921875,0.0390625,0.640625
2919,0.6953125,0.02734375,0.6328125
2920,0.6953125,0.01953125,0.63671875
2921,0.69140625,0.03515625,0.640625
2922,0.68359375,0.03515625,0.6328125
2923,0.6796875,0.02734375,0.63671875
2924,0.6796875,0.03125,0.640625
2925,0.6796875,0.03515625,0.62890625
2926,0.6796875,0.02734375,0.63671875
2927,0.6875,0.03515625,0.625
2928,0.6875,0.02734375,0.62890625
2929,0.6796875,0.046875,0.625
2930,0.70703125,0.02734375,0.625
2931,0.6796875,0.03515625,0.62890625
2932,0.69140625,0.03515625,0.625
2933,0.68359375,0.03515625,0.63671875
2934,0.6953125,0.03515625,0.63671875
2935,0.69140625,0.02734375,0.64453125
2936,0.69921875,0.0390625,0.62890625
2937,0.68359375,0.05078125,0.6171875
2938,0.6953125,0.046875,0.63671875
2939,0.69921875,0.04296875,0.6328125
2940,0.69140625,0.04296875,0.64453125
2941,0.68359375,0.04296875,0.62890625
2942,0.6875,0.05078125,0.6328125
2943,0.6953125,0.03515625,0.63671875
2944,0.69140625,0.046875,0.6328125
2945,0.68359375,0.046875,0.65625
2946,0.69921875,0.03125,0.6328125
2947,0.6953125,0.04296875,0.63671875
2948,0.69921875,0.03125,0.63671875
2949,0.6875,0.03515625,0.6328125
2950,0.69140625,0.04296875,0.63671875
2951,0.69140625,0.0390625,0.640625
2952,0.6875,0.03515625,0.62109375
2953,0.6796875,0.04296875,0.60546875
2954,0.6875,0.046875,0.62109375
2955,0.69140625,0.03515625,0.62890625
2956,0.6875,0.0390625,0.62890625
2957,0.703125,0.02734375,0.625
2958,0.6953125,0.0390625,0.6328125
2959,0.6953125,0.04296875,0.625
2960,0.68359375,0.04296875,0.62890625
2961,0.67578125,0.04296875,0.62109375
2962,0.68359375,0.04296875,0.63671875
2963,0.6875,0.0390625,0.640625
2964,0.703125,0.02734375,0.64453125
2965,0.6875,0.03515625,0.64453125
2966,0.6875,0.04296875,0.625
2967,0.69140625,0.0390625,0.62890625
2968,0.6953125,0.04296875,0.6171875
2969,0.6875,0.0390625,0.64453125
2970,0.703125,-0.01953125,0.6328125
2971,0.703125,0.03125,0.640625
2972,0.69140625,0.01171875,0.625
2973,0.6875,0.0390625,0.625
2974,0.69140625,0.0390625,0.62890625
2975,0.68359375,0.04296875,0.63671875
2976,0.69140625,0.0390625,0.625
2977,0.6875,0.03515625,0.62109375
2978,0.6875,0.0390625,0.62890625
2979,0.703125,0.04296875,0.625
2980,0.69921875,0.03515625,0.6328125
2981,0.6875,0.04296875,0.62890625
2982,0.6875,0.05078125,0.62109375
2983,0.69140625,0.03125,0.61328125
2984,0.6875,0.04296875,0.62890625
2985,0.6953125,0.03515625,0.62890625
2986,0.69140625,0.05078125,0.640625
2987,0.6953125,0.04296875,0.640625
2988,0.671875,0.04296875,0.65234375
2989,0.703125,0.03515625,0.6328125
2990,0.6875,0.03515625,0.6328125
2991,0.6875,0.0390625,0.65234375
2992,0.69140625,0.03125,0.625
2993,0.6796875,0.04296875,0.62890625
2994,0.69140625,0.04296875,0.62890625
2995,0.69140625,0.03125,0.64453125
2996,0.69140625,0.03125,0.6484375
2997,0.6953125,0.03515625,0.640625
2998,0.703125,0.02734375,0.62890625
2999,0.6953125,0.046875,0.640625
