,accelerometerAccelerationX(G),accelerometerAccelerationY(G),accelerometerAccelerationZ(G)
0,-0.36328125,-1.5625,-0.83203125
1,-0.33984375,-1.9609375,-0.16015625
2,-0.31640625,-2.32421875,0.55859375
3,-0.25390625,-2.4921875,1.2578125
4,-0.2734375,-2.40625,1.81640625
5,-0.23828125,-2.3984375,1.984375
6,0.01171875,-2.51171875,1.6484375
7,0.5625,-2.85546875,0.97265625
8,1.00390625,-3.23046875,0.37890625
9,1.35546875,-3.50390625,-0.0234375
10,1.59765625,-3.66015625,-0.0078125
11,1.3828125,-3.48828125,0.2734375
12,0.94140625,-3.17578125,0.63671875
13,0.52734375,-2.796875,0.9140625
14,0.25,-2.421875,0.94921875
15,0.0625,-2.1015625,0.859375
16,-0.0390625,-1.7734375,0.76171875
17,-0.109375,-1.4765625,0.70703125
18,-0.2265625,-1.13671875,0.6328125
19,-0.33203125,-0.85546875,0.52734375
20,-0.38671875,-0.5703125,0.41796875
21,-0.390625,-0.37890625,0.265625
22,-0.40234375,-0.25390625,0.15625
23,-0.34375,-0.33984375,0.1171875
24,-0.20703125,-0.5,0.140625
25,-0.0703125,-0.72265625,0.09375
26,-0.015625,-1.0,0.10546875
27,0.01953125,-1.296875,0.19140625
28,0.1015625,-1.58984375,0.3046875
29,0.15625,-1.8828125,0.41015625
30,0.17578125,-2.0078125,0.375
31,0.10546875,-1.8984375,0.171875
32,-0.0390625,-1.6328125,0.046875
33,-0.18359375,-1.328125,0.03125
34,-0.28515625,-0.99609375,0.04296875
35,-0.3125,-0.6328125,0.05078125
36,-0.2421875,-0.35546875,0.0390625
37,-0.1953125,-0.1484375,0.0546875
38,-0.2109375,-0.0546875,0.140625
39,-0.203125,-0.06640625,0.19140625
40,-0.19921875,-0.1328125,0.23828125
41,-0.16015625,-0.2421875,0.23046875
42,-0.09765625,-0.30859375,0.20703125
43,-0.01171875,-0.35546875,0.20703125
44,0.09375,-0.375,0.1640625
45,0.19140625,-0.3125,0.1484375
46,0.29296875,-0.23046875,0.0625
47,0.42578125,-0.14453125,-0.02734375
48,0.5390625,-0.0234375,-0.109375
49,0.64453125,0.0703125,-0.19921875
50,0.69921875,0.1484375,-0.26171875
51,0.70703125,0.21484375,-0.3203125
52,0.6875,0.23828125,-0.41015625
53,0.57421875,0.25,-0.45703125
54,0.4765625,0.24609375,-0.484375
55,0.3984375,0.2421875,-0.49609375
56,0.359375,0.21875,-0.484375
57,0.296875,0.171875,-0.41015625
58,0.2578125,0.109375,-0.3671875
59,0.24609375,0.0625,-0.296875
60,0.29296875,0.00390625,-0.2578125
61,0.44140625,-0.10546875,-0.28515625
62,0.51171875,-0.20703125,-0.36328125
63,0.53515625,-0.3203125,-0.44921875
64,0.60546875,-0.48046875,-0.6640625
65,0.74609375,-0.69140625,-1.0390625
66,0.82421875,-0.9765625,-1.44921875
67,0.8203125,-1.28515625,-1.51953125
68,0.65234375,-1.6953125,-0.9609375
69,0.32421875,-2.171875,0.203125
70,0.01953125,-2.5390625,1.18359375
71,-0.171875,-2.7421875,1.62890625
72,-0.28515625,-2.6953125,1.5546875
73,-0.4140625,-2.6328125,1.22265625
74,-0.49609375,-2.7265625,0.67578125
75,-0.6796875,-2.796875,0.171875
76,-0.9296875,-2.75,-0.015625
77,-1.28125,-2.6015625,0.109375
78,-1.48828125,-2.28515625,0.3984375
79,-1.5,-1.90234375,0.6875
80,-1.3203125,-1.58984375,0.87890625
81,-1.09765625,-1.36328125,0.99609375
82,-0.90625,-1.19140625,1.078125
83,-0.7109375,-1.10546875,1.13671875
84,-0.58203125,-1.16015625,1.0859375
85,-0.50390625,-1.296875,1.03125
86,-0.46875,-1.48046875,1.015625
87,-0.48046875,-1.671875,1.05078125
88,-0.48828125,-1.86328125,1.09765625
89,-0.47265625,-2.015625,1.1640625
90,-0.37890625,-2.15625,1.1796875
91,-0.15625,-2.25390625,1.08984375
92,0.1484375,-2.26953125,0.94921875
93,0.30859375,-2.1953125,0.75390625
94,0.32421875,-2.1640625,0.66796875
95,0.26953125,-2.1484375,0.66015625
96,0.20703125,-2.1796875,0.60546875
97,0.125,-2.13671875,0.578125
98,0.00390625,-1.9921875,0.5703125
99,-0.05859375,-1.78125,0.5625
100,-0.16015625,-1.48828125,0.44140625
101,-0.19921875,-1.08203125,0.23046875
102,-0.25,-0.6484375,-0.12890625
103,-0.15234375,-0.28125,-0.44921875
104,-0.07421875,0.15625,-0.6328125
105,-0.10546875,0.515625,-0.703125
106,-0.12890625,0.75,-0.71875
107,-0.15234375,0.8046875,-0.6875
108,-0.11328125,0.60546875,-0.52734375
109,-0.0546875,0.25,-0.25390625
110,0.015625,-0.13671875,0.01953125
111,0.09375,-0.51171875,0.359375
112,0.1015625,-0.796875,0.60546875
113,0.0703125,-0.90625,0.7265625
114,0.03125,-0.8671875,0.7109375
115,-0.00390625,-0.75390625,0.60546875
116,-0.06640625,-0.57421875,0.49609375
117,-0.171875,-0.42578125,0.35546875
118,-0.265625,-0.27734375,0.21875
119,-0.3125,-0.17578125,0.07421875
120,-0.30078125,-0.10546875,-0.08984375
121,-0.234375,-0.0703125,-0.24609375
122,-0.2109375,-0.05078125,-0.29296875
123,-0.15234375,-0.0546875,-0.33203125
124,-0.125,-0.0546875,-0.3671875
125,-0.12109375,-0.09765625,-0.41796875
126,-0.1015625,-0.17578125,-0.4140625
127,-0.078125,-0.24609375,-0.36328125
128,-0.05859375,-0.27734375,-0.30859375
129,-0.07421875,-0.28515625,-0.265625
130,-0.15234375,-0.26171875,-0.22265625
131,-0.26171875,-0.2421875,-0.20703125
132,-0.3359375,-0.27734375,-0.234375
133,-0.3359375,-0.234375,-0.25
134,-0.48046875,-0.2265625,-0.421875
135,-0.6484375,-0.25,-0.6875
136,-0.79296875,-0.36328125,-1.11328125
137,-0.8203125,-0.59375,-1.6015625
138,-0.7109375,-0.9609375,-1.8671875
139,-0.53125,-1.42578125,-1.67578125
140,-0.45703125,-1.86328125,-0.9609375
141,-0.48046875,-2.203125,-0.08984375
142,-0.48828125,-2.40234375,0.72265625
143,-0.40625,-2.34375,1.359375
144,-0.3203125,-2.22265625,1.72265625
145,-0.19140625,-2.13671875,1.6875
146,0.140625,-2.265625,1.28125
147,0.66796875,-2.5859375,0.83203125
148,1.40625,-3.046875,0.38671875
149,2.05078125,-3.515625,-0.0625
150,2.3515625,-3.7265625,-0.125
151,1.96484375,-3.58984375,0.140625
152,1.26171875,-3.27734375,0.515625
153,0.59765625,-2.9140625,0.94140625
154,0.15234375,-2.62109375,1.05078125
155,-0.03515625,-2.34375,0.9375
156,-0.16015625,-2.0859375,0.80078125
157,-0.34375,-1.8359375,0.74609375
158,-0.58984375,-1.59375,0.703125
159,-0.81640625,-1.375,0.6484375
160,-0.9609375,-1.25390625,0.59765625
161,-1.0625,-1.16796875,0.50390625
162,-1.1796875,-1.1640625,0.4140625
163,-1.2265625,-1.19140625,0.40234375
164,-1.171875,-1.21875,0.37109375
165,-1.046875,-1.25390625,0.3671875
166,-0.87109375,-1.2578125,0.328125
167,-0.64453125,-1.25390625,0.26171875
168,-0.28125,-1.1640625,0.1328125
169,0.078125,-0.96875,0.02734375
170,0.31640625,-0.79296875,0.08984375
171,0.43359375,-0.7421875,0.2109375
172,0.45703125,-0.7265625,0.30078125
173,0.4375,-0.71875,0.3828125
174,0.39453125,-0.703125,0.43359375
175,0.3984375,-0.546875,0.40625
176,0.359375,-0.390625,0.3203125
177,0.3671875,-0.19921875,0.234375
178,0.36328125,-0.05859375,0.12890625
179,0.37109375,0.015625,0.09765625
180,0.3203125,0.0234375,0.0859375
181,0.25390625,0.0,0.1640625
182,0.1953125,-0.109375,0.21875
183,0.15234375,-0.25,0.296875
184,0.12890625,-0.40625,0.35546875
185,0.16015625,-0.48046875,0.3671875
186,0.2265625,-0.5078125,0.33203125
187,0.28515625,-0.49609375,0.234375
188,0.2890625,-0.41015625,0.12109375
189,0.28125,-0.30078125,-0.02734375
190,0.23828125,-0.13671875,-0.19140625
191,0.1875,0.0390625,-0.3125
192,0.1328125,0.18359375,-0.4296875
193,0.109375,0.26171875,-0.484375
194,0.0703125,0.32421875,-0.46484375
195,0.0546875,0.32421875,-0.37109375
196,0.00390625,0.32421875,-0.26953125
197,0.0,0.30859375,-0.1796875
198,-0.02734375,0.2734375,-0.15234375
199,0.0,0.203125,-0.17578125
200,0.04296875,0.10546875,-0.21875
201,0.11328125,-0.0234375,-0.203125
202,0.18359375,-0.15625,-0.1953125
203,0.2734375,-0.3203125,-0.21875
204,0.33984375,-0.4453125,-0.24609375
205,0.37109375,-0.52734375,-0.3125
206,0.3984375,-0.59765625,-0.359375
207,0.4765625,-0.64453125,-0.52734375
208,0.60546875,-0.78125,-0.91015625
209,0.7578125,-1.03125,-1.54296875
210,0.80078125,-1.3046875,-1.7578125
211,0.76953125,-1.73828125,-1.3671875
212,0.7578125,-2.30078125,-0.13671875
213,0.61328125,-2.71484375,1.30859375
214,0.3125,-2.6875,2.0546875
215,0.1640625,-2.4453125,2.109375
216,0.2734375,-2.34375,1.6484375
217,0.2890625,-2.2734375,0.890625
218,0.09765625,-2.28515625,0.03125
219,-0.28125,-2.33203125,-0.5078125
220,-0.84765625,-2.4296875,-0.453125
221,-1.53125,-2.37890625,0.02734375
222,-1.93359375,-2.26171875,0.63671875
223,-1.84375,-2.14453125,0.97265625
224,-1.51953125,-1.9921875,1.05078125
225,-1.2421875,-1.78515625,1.01171875
226,-1.08984375,-1.66015625,0.94140625
227,-0.99609375,-1.63671875,0.90625
228,-0.84765625,-1.67578125,0.9140625
229,-0.6484375,-1.75390625,0.890625
230,-0.4609375,-1.83984375,0.85546875
231,-0.30859375,-1.8515625,0.8359375
232,-0.1328125,-1.91015625,0.87890625
233,0.046875,-1.94921875,0.90625
234,0.2578125,-1.99609375,0.96875
235,0.4765625,-2.0078125,0.9921875
236,0.5859375,-2.0,0.92578125
237,0.609375,-1.98046875,0.78125
238,0.55078125,-1.93359375,0.546875
239,0.3046875,-1.74609375,0.29296875
240,-0.0234375,-1.5625,0.12890625
241,-0.296875,-1.37109375,0.0703125
242,-0.44921875,-1.16015625,0.0078125
243,-0.40234375,-0.95703125,-0.02734375
244,-0.359375,-0.6875,-0.08984375
245,-0.37109375,-0.453125,-0.1484375
246,-0.41796875,-0.19140625,-0.109375
247,-0.45703125,0.140625,-0.0546875
248,-0.41796875,0.43359375,-0.08984375
249,-0.2890625,0.6328125,-0.23046875
250,-0.171875,0.68359375,-0.3984375
251,-0.0546875,0.56640625,-0.46875
252,0.0703125,0.2734375,-0.36328125
253,0.125,-0.12109375,-0.06640625
254,0.05078125,-0.45703125,0.2734375
255,-0.0390625,-0.70703125,0.515625
256,-0.15234375,-0.79296875,0.5390625
257,-0.171875,-0.7578125,0.5078125
258,-0.1953125,-0.671875,0.453125
259,-0.20703125,-0.5234375,0.39453125
260,-0.28125,-0.40234375,0.3359375
261,-0.3828125,-0.30859375,0.25
262,-0.453125,-0.23046875,0.04296875
263,-0.45703125,-0.17578125,-0.17578125
264,-0.40234375,-0.12890625,-0.3125
265,-0.31640625,-0.109375,-0.43359375
266,-0.26953125,-0.09765625,-0.578125
267,-0.22265625,-0.1328125,-0.6640625
268,-0.15625,-0.17578125,-0.62109375
269,-0.10546875,-0.2109375,-0.515625
270,-0.11328125,-0.23046875,-0.41796875
271,-0.109375,-0.24609375,-0.35546875
272,-0.0859375,-0.25,-0.34375
273,-0.1171875,-0.22265625,-0.33203125
274,-0.31640625,-0.203125,-0.4140625
275,-0.5703125,-0.22265625,-0.59765625
276,-0.7265625,-0.35546875,-0.96484375
277,-0.72265625,-0.625,-1.375
278,-0.53125,-1.03515625,-1.55859375
279,-0.3046875,-1.48828125,-1.3359375
280,-0.1015625,-1.88671875,-0.765625
281,-0.0078125,-2.1640625,0.00390625
282,-0.05078125,-2.25,0.703125
283,-0.1328125,-2.140625,1.24609375
284,-0.11328125,-1.96484375,1.44140625
285,0.11328125,-1.93359375,1.16015625
286,0.35546875,-2.1015625,0.7890625
287,0.75390625,-2.3828125,0.4296875
288,1.25,-2.70703125,0.125
289,1.66015625,-2.94140625,-0.046875
290,1.609375,-2.8671875,0.10546875
291,1.2578125,-2.6171875,0.4453125
292,0.80078125,-2.37890625,0.75
293,0.375,-2.1484375,0.953125
294,0.09765625,-1.97265625,0.9609375
295,-0.0859375,-1.83203125,0.8515625
296,-0.19140625,-1.74609375,0.80078125
297,-0.2890625,-1.6796875,0.81640625
298,-0.4140625,-1.59765625,0.85546875
299,-0.5390625,-1.5703125,0.9140625
300,-0.5703125,-1.55078125,0.98046875
301,-0.546875,-1.5546875,1.0234375
302,-0.51171875,-1.59375,1.0390625
303,-0.57421875,-1.6953125,1.01171875
304,-0.63671875,-1.8046875,0.890625
305,-0.65234375,-1.88671875,0.734375
306,-0.7109375,-1.9296875,0.5703125
307,-0.74609375,-2.0,0.51171875
308,-0.546875,-2.0,0.53125
309,-0.21484375,-1.66796875,0.17578125
310,0.05078125,-1.1796875,-0.1171875
311,0.29296875,-0.75,-0.19140625
312,0.3828125,-0.50390625,-0.0859375
313,0.41796875,-0.3125,0.01171875
314,0.34375,-0.15234375,0.0390625
315,0.23828125,0.015625,0.0390625
316,0.17578125,0.125,0.06640625
317,0.15625,0.1640625,0.1171875
318,0.109375,0.10546875,0.17578125
319,0.06640625,0.015625,0.24609375
320,0.02734375,-0.09375,0.25
321,-0.00390625,-0.22265625,0.2578125
322,-0.02734375,-0.33984375,0.25390625
323,-0.03125,-0.45703125,0.25
324,0.00390625,-0.48828125,0.234375
325,0.109375,-0.53125,0.20703125
326,0.2265625,-0.53515625,0.171875
327,0.33203125,-0.55078125,0.15234375
328,0.4375,-0.57421875,0.109375
329,0.49609375,-0.5234375,0.0703125
330,0.46875,-0.4453125,0.00390625
331,0.37890625,-0.30078125,-0.09765625
332,0.27734375,-0.15625,-0.1875
333,0.2421875,-0.05859375,-0.27734375
334,0.2421875,0.015625,-0.32421875
335,0.17578125,0.125,-0.40625
336,0.09375,0.1328125,-0.44921875
337,0.05859375,0.11328125,-0.4921875
338,0.0390625,0.078125,-0.48046875
339,0.01171875,0.04296875,-0.4375
340,0.03125,0.0078125,-0.359375
341,0.09765625,-0.05078125,-0.30078125
342,0.19140625,-0.078125,-0.296875
343,0.2890625,-0.1171875,-0.30859375
344,0.375,-0.15625,-0.390625
345,0.45703125,-0.2265625,-0.48828125
346,0.609375,-0.390625,-0.74609375
347,0.84765625,-0.62109375,-1.13671875
348,1.046875,-0.953125,-1.51953125
349,1.109375,-1.34765625,-1.7421875
350,1.125,-1.88671875,-1.41796875
351,1.265625,-2.57421875,-0.26953125
352,1.2734375,-3.22265625,1.0390625
353,0.546875,-3.15234375,1.66015625
354,0.4140625,-3.078125,1.73046875
355,0.40625,-3.0390625,1.3515625
356,0.12109375,-2.8984375,0.83984375
357,-0.4140625,-2.7109375,0.359375
358,-0.890625,-2.58984375,-0.00390625
359,-1.43359375,-2.54296875,-0.234375
360,-1.79296875,-2.38671875,-0.140625
361,-1.78515625,-2.1328125,0.36328125
362,-1.58203125,-1.90625,0.70703125
363,-1.33203125,-1.70703125,0.9296875
364,-1.13671875,-1.53125,1.00390625
365,-1.08984375,-1.421875,0.9765625
366,-1.046875,-1.38671875,0.90234375
367,-0.86328125,-1.4375,0.875
368,-0.58984375,-1.55859375,0.76953125
369,-0.3359375,-1.703125,0.69140625
370,-0.14453125,-1.8671875,0.67578125
371,-0.0078125,-1.99609375,0.75
372,0.11328125,-2.1640625,0.8515625
373,0.33984375,-2.33203125,0.921875
374,0.578125,-2.40234375,0.96875
375,0.7578125,-2.41015625,0.86328125
376,0.859375,-2.32421875,0.78515625
377,0.765625,-2.09375,0.5390625
378,0.5546875,-1.7421875,0.30859375
379,0.25,-1.3203125,0.22265625
380,-0.0390625,-0.87890625,0.15625
381,-0.10546875,-0.6015625,0.05859375
382,-0.06640625,-0.4765625,-0.09765625
383,-0.08203125,-0.3828125,-0.1796875
384,-0.14453125,-0.21484375,-0.265625
385,-0.2734375,-0.0546875,-0.328125
386,-0.30859375,0.1015625,-0.375
387,-0.29296875,0.26953125,-0.44140625
388,-0.19921875,0.37890625,-0.44140625
389,-0.1015625,0.4296875,-0.42578125
390,0.0234375,0.34375,-0.33984375
391,0.08984375,0.2265625,-0.09375
392,0.1171875,0.05078125,0.21875
393,0.0703125,-0.07421875,0.45703125
394,0.0,-0.16015625,0.546875
395,-0.078125,-0.19140625,0.4765625
396,-0.1171875,-0.203125,0.4140625
397,-0.14453125,-0.19140625,0.359375
398,-0.19921875,-0.1484375,0.32421875
399,-0.26953125,-0.10546875,0.29296875
400,-0.3359375,-0.09765625,0.25
401,-0.37890625,-0.0625,0.171875
402,-0.38671875,-0.06640625,0.06640625
403,-0.375,-0.0703125,-0.0390625
404,-0.3359375,-0.09375,-0.171875
405,-0.27734375,-0.1328125,-0.24609375
406,-0.21484375,-0.19140625,-0.33984375
407,-0.2109375,-0.21875,-0.359375
408,-0.1875,-0.23046875,-0.26953125
409,-0.1796875,-0.234375,-0.2890625
410,-0.140625,-0.25,-0.29296875
411,-0.13671875,-0.23828125,-0.30859375
412,-0.203125,-0.23046875,-0.3046875
413,-0.28515625,-0.23046875,-0.31640625
414,-0.328125,-0.25390625,-0.328125
415,-0.34375,-0.28125,-0.35546875
416,-0.4765625,-0.28515625,-0.44140625
417,-0.6875,-0.3515625,-0.72265625
418,-0.8828125,-0.48828125,-1.234375
419,-0.91796875,-0.78125,-1.703125
420,-0.75390625,-1.33984375,-1.7421875
421,-0.5078125,-2.0078125,-1.15625
422,-0.30859375,-2.58984375,-0.31640625
423,-0.0625,-3.06640625,0.55859375
424,-0.09765625,-3.09765625,1.61328125
425,-0.296875,-3.00390625,2.26171875
426,-0.2421875,-3.01171875,2.15234375
427,0.21484375,-3.296875,1.61328125
428,0.984375,-3.73828125,0.90625
429,1.7421875,-4.13671875,0.12109375
430,2.10546875,-4.20703125,-0.3828125
431,1.94921875,-3.8359375,-0.1953125
432,1.53125,-3.25,0.32421875
433,1.078125,-2.703125,0.88671875
434,0.6875,-2.2265625,1.046875
435,0.390625,-1.8203125,0.890625
436,0.16796875,-1.53125,0.72265625
437,-0.02734375,-1.26953125,0.6171875
438,-0.29296875,-0.98828125,0.47265625
439,-0.55859375,-0.76953125,0.37890625
440,-0.74609375,-0.640625,0.3359375
441,-0.86328125,-0.63671875,0.33203125
442,-0.99609375,-0.73828125,0.33984375
443,-1.13671875,-0.9453125,0.3828125
444,-1.15234375,-1.25390625,0.5
445,-1.06640625,-1.53125,0.609375
446,-0.8203125,-1.73046875,0.68359375
447,-0.4921875,-1.8359375,0.6171875
448,-0.15234375,-1.86328125,0.484375
449,0.11328125,-1.74609375,0.27734375
450,0.265625,-1.54296875,0.078125
451,0.3203125,-1.19140625,0.078125
452,0.25,-0.91015625,0.10546875
453,0.17578125,-0.6875,0.2421875
454,0.1171875,-0.515625,0.3125
455,0.125,-0.3515625,0.30078125
456,0.12109375,-0.16796875,0.24609375
457,0.12109375,0.04296875,0.12890625
458,0.09765625,0.23828125,0.00390625
459,0.0859375,0.375,-0.046875
460,0.0625,0.44921875,-0.0625
461,0.109375,0.44140625,-0.0234375
462,0.15234375,0.3671875,0.01953125
463,0.23046875,0.19140625,0.07421875
464,0.296875,0.01171875,0.125
465,0.390625,-0.15234375,0.15625
466,0.43359375,-0.28515625,0.1796875
467,0.48828125,-0.35546875,0.16796875
468,0.5,-0.390625,0.140625
469,0.49609375,-0.3984375,0.03125
470,0.5,-0.3671875,-0.07421875
471,0.4609375,-0.30859375,-0.1796875
472,0.46875,-0.234375,-0.24609375
473,0.37890625,-0.13671875,-0.2734375
474,0.26171875,0.015625,-0.36328125
475,0.16796875,0.05859375,-0.375
476,0.0625,0.1875,-0.41015625
477,0.01953125,0.1875,-0.42578125
478,0.0078125,0.20703125,-0.37890625
479,0.02734375,0.14453125,-0.36328125
480,0.09375,0.01171875,-0.33203125
481,0.1953125,-0.12890625,-0.2734375
482,0.2265625,-0.25,-0.1796875
483,0.234375,-0.33203125,-0.1328125
484,0.20703125,-0.3828125,-0.1328125
485,0.28125,-0.4921875,-0.21875
486,0.4609375,-0.62890625,-0.58984375
487,0.5703125,-0.84375,-1.21875
488,0.66796875,-1.12890625,-1.78515625
489,0.59765625,-1.71484375,-1.7265625
490,0.453125,-2.453125,-0.71484375
491,0.21484375,-3.26171875,1.01953125
492,0.13671875,-3.77734375,2.5390625
493,-0.1328125,-3.68359375,2.90625
494,0.05078125,-3.47265625,2.42578125
495,0.15625,-3.234375,1.5
496,-0.09375,-2.98046875,0.515625
497,-0.47265625,-2.82421875,-0.18359375
498,-1.046875,-2.67578125,-0.375
499,-1.57421875,-2.4140625,-0.0078125
500,-1.59375,-2.078125,0.52734375
501,-1.4375,-1.66015625,0.6953125
502,-1.27734375,-1.21484375,0.74609375
503,-1.14453125,-0.87109375,0.75390625
504,-0.98828125,-0.64453125,0.88671875
505,-0.8359375,-0.54296875,0.875
506,-0.6640625,-0.5703125,0.80859375
507,-0.4921875,-0.72265625,0.71875
508,-0.35546875,-0.79296875,0.73046875
509,-0.2578125,-0.97265625,0.76171875
510,-0.3515625,-1.19921875,0.69140625
511,0.07421875,-1.52734375,0.9453125
512,-0.1015625,-1.6796875,0.96484375
513,0.08203125,-1.921875,0.94921875
514,0.3671875,-2.2265625,0.9140625
515,0.51171875,-2.3984375,0.7890625
516,0.62890625,-2.49609375,0.65625
517,0.5625,-2.4921875,0.52734375
518,0.234375,-2.34375,0.70703125
519,-0.0234375,-2.15234375,0.85546875
520,-0.08984375,-1.859375,0.69921875
521,0.0,-1.48828125,0.421875
522,0.0859375,-1.07421875,0.1484375
523,0.14453125,-0.69140625,-0.13671875
524,0.171875,-0.23046875,-0.203125
525,0.03125,0.125,-0.2109375
526,-0.0625,0.47265625,-0.21484375
527,-0.1015625,0.73828125,-0.24609375
528,-0.11328125,0.85546875,-0.34375
529,-0.15234375,0.78125,-0.30078125
530,-0.171875,0.62109375,-0.26953125
531,-0.19140625,0.34375,-0.1484375
532,-0.2109375,-0.0390625,0.01953125
533,-0.19140625,-0.42578125,0.1640625
534,-0.18359375,-0.73046875,0.24609375
535,-0.1484375,-0.859375,0.15234375
536,-0.171875,-0.90234375,0.07421875
537,-0.1953125,-0.8125,-0.0078125
538,-0.3515625,-0.65234375,0.0390625
539,-0.40234375,-0.55859375,-0.07421875
540,-0.47265625,-0.48828125,0.03125
541,-0.51171875,-0.3671875,-0.0390625
542,-0.4765625,-0.2890625,-0.10546875
543,-0.37109375,-0.23828125,-0.1328125
544,-0.32421875,-0.23046875,-0.14453125
545,-0.2265625,-0.15625,-0.140625
546,-0.1796875,-0.078125,-0.19140625
547,-0.140625,-0.04296875,-0.21484375
548,-0.15625,-0.015625,-0.22265625
549,-0.125,0.0390625,-0.1328125
550,-0.15625,0.078125,-0.19140625
551,-0.1328125,0.046875,-0.29296875
552,-0.21875,0.0390625,-0.38671875
553,-0.296875,0.0234375,-0.515625
554,-0.44140625,-0.09375,-0.734375
555,-0.51171875,-0.28125,-1.04296875
556,-0.52734375,-0.48046875,-1.4140625
557,-0.3671875,-0.8359375,-1.66796875
558,-0.171875,-1.375,-1.5234375
559,0.01171875,-1.9453125,-0.9375
560,0.10546875,-2.43359375,-0.046875
561,0.18359375,-2.75390625,0.83984375
562,0.0546875,-2.73046875,1.625
563,-0.15625,-2.578125,2.046875
564,-0.234375,-2.41015625,2.0625
565,0.01953125,-2.52734375,1.6875
566,0.36328125,-2.640625,1.1015625
567,0.77734375,-2.796875,0.47265625
568,1.04296875,-2.85546875,0.07421875
569,1.16015625,-2.734375,0.12890625
570,1.0625,-2.48828125,0.5625
571,0.7421875,-2.1953125,0.9375
572,0.51171875,-1.92578125,1.08984375
573,0.3203125,-1.75390625,0.9453125
574,0.19921875,-1.56640625,0.7578125
575,0.078125,-1.43359375,0.66796875
576,-0.0234375,-1.28515625,0.65625
577,-0.0546875,-1.18359375,0.671875
578,-0.15234375,-1.05078125,0.69140625
579,-0.203125,-0.9453125,0.6640625
580,-0.23828125,-0.91796875,0.6796875
581,-0.2890625,-0.953125,0.67578125
582,-0.4296875,-1.14453125,0.73046875
583,-0.46484375,-1.375,0.76171875
584,-0.51953125,-1.53125,0.6640625
585,-0.546875,-1.671875,0.53125
586,-0.41796875,-1.73828125,0.4609375
587,-0.24609375,-1.75390625,0.37890625
588,-0.01953125,-1.7265625,0.359375
589,0.19921875,-1.57421875,0.234375
590,0.3046875,-1.19921875,0.0703125
591,0.3125,-0.96875,0.10546875
592,0.23828125,-0.77734375,0.1171875
593,0.16796875,-0.671875,0.171875
594,0.0859375,-0.55859375,0.26171875
595,0.04296875,-0.43359375,0.26171875
596,0.015625,-0.30078125,0.22265625
597,-0.0078125,-0.1640625,0.12890625
598,-0.05078125,-0.046875,0.046875
599,-0.0859375,0.02734375,-0.01171875
600,-0.09375,0.03515625,-0.046875
601,-0.0859375,-0.0546875,-0.03125
602,-0.015625,-0.2265625,0.04296875
603,0.02734375,-0.43359375,0.1484375
604,0.1015625,-0.5859375,0.2421875
605,0.16796875,-0.69140625,0.3203125
606,0.23046875,-0.69921875,0.3359375
607,0.296875,-0.63671875,0.296875
608,0.35546875,-0.51171875,0.265625
609,0.4140625,-0.390625,0.17578125
610,0.44921875,-0.20703125,0.01171875
611,0.4921875,-0.02734375,-0.1484375
612,0.4765625,0.08984375,-0.34375
613,0.44921875,0.203125,-0.453125
614,0.37109375,0.3125,-0.5
615,0.28125,0.37109375,-0.55859375
616,0.1953125,0.39453125,-0.546875
617,0.15625,0.37109375,-0.50390625
618,0.1484375,0.30859375,-0.43359375
619,0.12109375,0.22265625,-0.2890625
620,0.140625,0.125,-0.21875
621,0.1875,0.03125,-0.18359375
622,0.29296875,-0.10546875,-0.296875
623,0.4375,-0.28515625,-0.51171875
624,0.6640625,-0.53125,-0.84765625
625,0.86328125,-0.8125,-1.2734375
626,0.94140625,-1.14453125,-1.68359375
627,0.96484375,-1.65234375,-1.765625
628,0.87890625,-2.3671875,-1.12109375
629,0.6171875,-3.203125,0.25
630,0.46484375,-3.75390625,1.8125
631,0.13671875,-3.57421875,2.3359375
632,0.125,-3.22265625,1.99609375
633,0.36328125,-3.07421875,1.40234375
634,0.16796875,-2.96484375,0.6171875
635,-0.33984375,-2.796875,-0.00390625
636,-0.94921875,-2.609375,-0.43359375
637,-1.46875,-2.3828125,-0.44921875
638,-1.8984375,-2.0390625,-0.12109375
639,-1.9765625,-1.66015625,0.28515625
640,-1.76171875,-1.29296875,0.65234375
641,-1.53515625,-0.9140625,0.828125
642,-1.2109375,-0.74609375,0.875
643,-0.9609375,-0.65625,0.7578125
644,-0.80078125,-0.69921875,0.63671875
645,-0.69140625,-0.79296875,0.58203125
646,-0.53515625,-0.94140625,0.609375
647,-0.32421875,-1.08984375,0.66015625
648,-0.09375,-1.2734375,0.72265625
649,0.1015625,-1.5,0.7578125
650,0.2265625,-1.75,0.859375
651,0.29296875,-2.0078125,0.9453125
652,0.39453125,-2.26171875,1.0234375
653,0.5078125,-2.4609375,1.0625
654,0.55859375,-2.63671875,0.99609375
655,0.625,-2.734375,0.8515625
656,0.52734375,-2.70703125,0.7109375
657,0.26953125,-2.546875,0.62890625
658,-0.0234375,-2.21484375,0.49609375
659,-0.20703125,-1.765625,0.28125
660,-0.2421875,-1.29296875,0.0625
661,-0.14453125,-0.91015625,-0.125
662,-0.07421875,-0.55859375,-0.2578125
663,-0.0625,-0.171875,-0.30859375
664,-0.08203125,0.21484375,-0.26171875
665,-0.19140625,0.54296875,-0.23046875
666,-0.21875,0.84765625,-0.26953125
667,-0.1640625,0.9296875,-0.2734375
668,-0.0859375,0.90234375,-0.31640625
669,0.07421875,0.72265625,-0.26953125
670,0.19140625,0.3515625,-0.0625
671,0.203125,-0.078125,0.21484375
672,0.10546875,-0.40234375,0.46875
673,-0.0625,-0.63671875,0.61328125
674,-0.21875,-0.703125,0.58203125
675,-0.2890625,-0.65234375,0.47265625
676,-0.32421875,-0.5546875,0.3984375
677,-0.35546875,-0.4609375,0.3203125
678,-0.39453125,-0.39453125,0.28515625
679,-0.44921875,-0.359375,0.18359375
680,-0.453125,-0.359375,0.04296875
681,-0.38671875,-0.3828125,-0.1015625
682,-0.2890625,-0.3984375,-0.265625
683,-0.2421875,-0.421875,-0.3203125
684,-0.171875,-0.38671875,-0.296875
685,-0.06640625,-0.35546875,-0.2890625
686,-0.00390625,-0.30078125,-0.30078125
687,0.03515625,-0.21875,-0.25390625
688,0.00390625,-0.12890625,-0.20703125
689,-0.03515625,-0.0703125,-0.20703125
690,-0.08984375,-0.03125,-0.2265625
691,-0.1484375,-0.0625,-0.29296875
692,-0.33984375,-0.15234375,-0.42578125
693,-0.5625,-0.26171875,-0.640625
694,-0.73828125,-0.453125,-1.05078125
695,-0.83984375,-0.6875,-1.56640625
696,-0.796875,-1.17578125,-1.8671875
697,-0.59375,-1.88671875,-1.6015625
698,-0.3828125,-2.640625,-0.90234375
699,-0.26953125,-3.3125,0.0
700,-0.37109375,-3.4765625,0.9296875
701,-0.5703125,-3.078125,1.77734375
702,-0.5625,-2.61328125,1.96484375
703,-0.2890625,-2.24609375,1.54296875
704,0.171875,-2.15234375,1.00390625
705,0.921875,-2.25390625,0.46875
706,1.73046875,-2.4609375,-0.02734375
707,2.0625,-2.59765625,-0.30859375
708,2.0234375,-2.5,-0.04296875
709,1.76953125,-2.328125,0.34765625
710,1.3828125,-2.1875,0.64453125
711,1.078125,-2.08984375,0.7421875
712,0.8515625,-1.9921875,0.5703125
713,0.609375,-1.87890625,0.453125
714,0.24609375,-1.6953125,0.40625
715,-0.07421875,-1.52734375,0.4609375
716,-0.2734375,-1.40625,0.5078125
717,-0.5546875,-1.296875,0.546875
718,-0.93359375,-1.21875,0.62109375
719,-1.203125,-1.1953125,0.6953125
720,-1.41015625,-1.20703125,0.7265625
721,-1.5703125,-1.34375,0.73046875
722,-1.6328125,-1.546875,0.75390625
723,-1.5546875,-1.70703125,0.74609375
724,-1.33203125,-1.80078125,0.73828125
725,-1.05859375,-1.8515625,0.6484375
726,-0.75,-1.890625,0.55078125
727,-0.375,-1.86328125,0.4375
728,-0.0546875,-1.73828125,0.359375
729,0.1640625,-1.48828125,0.27734375
730,0.23828125,-1.140625,0.15625
731,0.2109375,-0.8125,0.12109375
732,0.1484375,-0.5234375,0.078125
733,0.13671875,-0.25,0.0546875
734,0.125,-0.02734375,0.02734375
735,0.10546875,0.19140625,0.04296875
736,0.1171875,0.3515625,0.06640625
737,0.1328125,0.37109375,0.08984375
738,0.1640625,0.3515625,0.15234375
739,0.21484375,0.28515625,0.14453125
740,0.2890625,0.23046875,0.14453125
741,0.34765625,0.125,0.078125
742,0.359375,0.00390625,0.03125
743,0.35546875,-0.109375,0.05078125
744,0.37890625,-0.16796875,0.1328125
745,0.4609375,-0.25,0.2421875
746,0.53125,-0.359375,0.33984375
747,0.58984375,-0.453125,0.3828125
748,0.6015625,-0.4609375,0.36328125
749,0.59375,-0.44140625,0.30078125
750,0.578125,-0.37890625,0.21484375
751,0.51953125,-0.2890625,0.0234375
752,0.5,-0.18359375,-0.12890625
753,0.4296875,-0.02734375,-0.25390625
754,0.32421875,0.1015625,-0.3828125
755,0.24609375,0.22265625,-0.43359375
756,0.1484375,0.28515625,-0.46484375
757,0.08203125,0.3203125,-0.47265625
758,0.04296875,0.29296875,-0.4375
759,0.03125,0.18359375,-0.37890625
760,0.05078125,0.05078125,-0.30078125
761,0.0703125,-0.11328125,-0.21484375
762,0.08984375,-0.25390625,-0.1875
763,0.140625,-0.390625,-0.1796875
764,0.171875,-0.53515625,-0.23828125
765,0.27734375,-0.68359375,-0.38671875
766,0.4296875,-0.828125,-0.6875
767,0.55078125,-0.9921875,-1.15625
768,0.69921875,-1.34375,-1.61328125
769,0.66015625,-1.8828125,-1.5546875
770,0.4609375,-2.5859375,-0.7578125
771,0.25390625,-3.25390625,0.625
772,0.2421875,-3.55078125,1.82421875
773,-0.01171875,-3.42578125,2.140625
774,-0.25,-3.13671875,1.87890625
775,-0.4609375,-2.81640625,1.28125
776,-0.67578125,-2.48828125,0.53515625
777,-0.91796875,-2.3046875,-0.0625
778,-1.234375,-2.16015625,-0.2890625
779,-1.49609375,-1.953125,-0.1953125
780,-1.34375,-1.69921875,0.15625
781,-1.24609375,-1.39453125,0.37109375
782,-1.140625,-1.13671875,0.4765625
783,-1.0,-0.9375,0.625
784,-0.828125,-0.859375,0.7890625
785,-0.64453125,-0.91015625,0.81640625
786,-0.36328125,-1.0625,0.74609375
787,-0.15234375,-1.25,0.70703125
788,0.0,-1.41796875,0.71875
789,0.0859375,-1.54296875,0.80859375
790,0.1875,-1.66796875,0.8671875
791,0.36328125,-1.734375,0.8359375
792,0.5546875,-1.82421875,0.78515625
793,0.8203125,-1.8515625,0.765625
794,0.9375,-1.80078125,0.74609375
795,0.89453125,-1.8125,0.65625
796,0.69140625,-1.78125,0.6328125
797,0.37109375,-1.75,0.65625
798,0.0234375,-1.7734375,0.66015625
799,-0.33203125,-1.7109375,0.66015625
800,-0.55859375,-1.640625,0.546875
801,-0.6015625,-1.51953125,0.41015625
802,-0.49609375,-1.41015625,0.29296875
803,-0.3671875,-1.203125,0.21484375
804,-0.3203125,-0.96484375,0.10546875
805,-0.3359375,-0.6796875,0.00390625
806,-0.359375,-0.36328125,-0.015625
807,-0.37109375,-0.06640625,-0.00390625
808,-0.33203125,0.1875,-0.00390625
809,-0.25,0.30859375,-0.0859375
810,-0.1640625,0.37109375,-0.1015625
811,-0.078125,0.27734375,-0.03125
812,-0.046875,0.109375,0.10546875
813,-0.078125,-0.171875,0.19921875
814,-0.16015625,-0.39453125,0.3125
815,-0.23828125,-0.5703125,0.3828125
816,-0.30859375,-0.65234375,0.35546875
817,-0.3359375,-0.671875,0.265625
818,-0.39453125,-0.6484375,0.19921875
819,-0.43359375,-0.58203125,0.12890625
820,-0.4609375,-0.515625,0.02734375
821,-0.4453125,-0.45703125,-0.19140625
822,-0.41015625,-0.36328125,-0.2734375
823,-0.34765625,-0.26953125,-0.26953125
824,-0.2890625,-0.1875,-0.25390625
825,-0.23828125,-0.1171875,-0.28125
826,-0.1796875,-0.0546875,-0.25390625
827,-0.12890625,0.0,-0.234375
828,-0.08984375,0.02734375,-0.18359375
829,-0.0703125,0.0625,-0.125
830,-0.02734375,0.0703125,-0.1171875
831,-0.00390625,0.078125,-0.1015625
832,-0.0625,0.08203125,-0.15234375
833,-0.15234375,0.06640625,-0.2109375
834,-0.23046875,0.0,-0.33984375
835,-0.33203125,-0.10546875,-0.47265625
836,-0.484375,-0.23828125,-0.71484375
837,-0.578125,-0.45703125,-1.0859375
838,-0.5078125,-0.75390625,-1.484375
839,-0.33984375,-1.20703125,-1.734375
840,-0.11328125,-1.81640625,-1.484375
841,0.18359375,-2.53515625,-0.56640625
842,0.2421875,-2.92578125,0.3125
843,0.01171875,-2.99609375,1.01953125
844,-0.21484375,-2.68359375,1.62890625
845,-0.29296875,-2.421875,1.76171875
846,-0.12890625,-2.29296875,1.59765625
847,0.23828125,-2.22265625,1.2421875
848,0.70703125,-2.2265625,0.81640625
849,1.1171875,-2.30859375,0.26953125
850,1.35546875,-2.33203125,-0.0859375
851,1.4453125,-2.25390625,-0.015625
852,1.328125,-2.078125,0.26953125
853,1.05078125,-1.90234375,0.48046875
854,0.8046875,-1.7421875,0.61328125
855,0.625,-1.63671875,0.59765625
856,0.33984375,-1.49609375,0.62890625
857,0.09375,-1.38671875,0.69921875
858,-0.06640625,-1.2890625,0.76171875
859,-0.171875,-1.2578125,0.76953125
860,-0.296875,-1.21875,0.734375
861,-0.40234375,-1.19921875,0.75390625
862,-0.5234375,-1.23046875,0.734375
863,-0.6953125,-1.30078125,0.7734375
864,-0.875,-1.4296875,0.80859375
865,-1.05078125,-1.52734375,0.87890625
866,-1.1640625,-1.69140625,0.921875
867,-1.09765625,-1.7890625,0.85546875
868,-0.94140625,-1.83203125,0.6875
869,-0.6953125,-1.859375,0.5
870,-0.42578125,-1.7890625,0.3671875
871,-0.0859375,-1.609375,0.140625
872,0.12890625,-1.28125,-0.11328125
873,0.16015625,-0.99609375,-0.1171875
874,0.21875,-0.81640625,0.01171875
875,0.1953125,-0.6796875,0.18359375
876,0.19140625,-0.546875,0.33203125
877,0.20703125,-0.41015625,0.390625
878,0.21484375,-0.26171875,0.3671875
879,0.24609375,-0.09765625,0.28125
880,0.25,0.046875,0.17578125
881,0.2421875,0.1484375,0.06640625
882,0.18359375,0.203125,0.00390625
883,0.1171875,0.16015625,-0.06640625
884,0.0859375,0.046875,-0.0703125
885,0.05859375,-0.14453125,-0.03125
886,0.07421875,-0.359375,0.0546875
887,0.13671875,-0.58203125,0.1796875
888,0.21875,-0.7421875,0.30078125
889,0.32421875,-0.83203125,0.40625
890,0.4140625,-0.86328125,0.421875
891,0.46484375,-0.76171875,0.34765625
892,0.46875,-0.609375,0.234375
893,0.48046875,-0.44921875,0.078125
894,0.4921875,-0.265625,-0.0859375
895,0.5,-0.12890625,-0.27734375
896,0.49609375,-0.01171875,-0.3984375
897,0.37109375,0.10546875,-0.48046875
898,0.26953125,0.20703125,-0.51171875
899,0.13671875,0.25,-0.46875
900,0.0234375,0.28515625,-0.453125
901,-0.03515625,0.30078125,-0.453125
902,-0.0234375,0.24609375,-0.46875
903,0.0625,0.15625,-0.47265625
904,0.23828125,0.00390625,-0.59375
905,0.515625,-0.2421875,-0.87109375
906,0.7890625,-0.515625,-1.24609375
907,0.93359375,-0.80859375,-1.68359375
908,0.91796875,-1.20703125,-1.9140625
909,0.88671875,-1.85546875,-1.5625
910,0.734375,-2.6953125,-0.53515625
911,0.36328125,-3.38671875,0.859375
912,0.26171875,-3.60546875,2.05859375
913,0.234375,-3.25390625,2.32421875
914,0.3125,-2.7734375,1.84765625
915,0.3828125,-2.39453125,1.3359375
916,0.07421875,-1.98828125,0.6796875
917,-0.375,-1.79296875,0.1484375
918,-0.95703125,-1.57421875,-0.3359375
919,-1.45703125,-1.39453125,-0.578125
920,-1.69921875,-1.21875,-0.4921875
921,-1.65234375,-1.09375,-0.2265625
922,-1.55078125,-1.00390625,-0.01171875
923,-1.5078125,-0.90234375,0.1796875
924,-1.43359375,-0.83203125,0.42578125
925,-1.23046875,-0.84765625,0.515625
926,-0.96875,-0.94140625,0.48046875
927,-0.76171875,-1.078125,0.41796875
928,-0.62109375,-1.23828125,0.45703125
929,-0.421875,-1.45703125,0.52734375
930,-0.1484375,-1.70703125,0.640625
931,0.09765625,-1.92578125,0.70703125
932,0.2890625,-2.10546875,0.76171875
933,0.3984375,-2.2578125,0.7890625
934,0.48828125,-2.38671875,0.8359375
935,0.578125,-2.515625,0.83984375
936,0.67578125,-2.54296875,0.84375
937,0.67578125,-2.4921875,0.84765625
938,0.50390625,-2.30859375,0.890625
939,0.2578125,-2.07421875,0.8828125
940,0.0390625,-1.94140625,0.8203125
941,-0.16015625,-1.78515625,0.640625
942,-0.32421875,-1.5625,0.390625
943,-0.4296875,-1.359375,0.30859375
944,-0.4765625,-1.1015625,0.27734375
945,-0.4453125,-0.875,0.24609375
946,-0.2890625,-0.66015625,0.21875
947,-0.12890625,-0.41015625,0.0703125
948,0.0078125,-0.1015625,-0.12109375
949,0.1015625,0.2109375,-0.26171875
950,0.16015625,0.5234375,-0.328125
951,0.1796875,0.7890625,-0.3515625
952,0.1875,0.828125,-0.3046875
953,0.23046875,0.68359375,-0.14453125
954,0.2109375,0.34765625,0.1015625
955,0.14453125,0.00390625,0.35546875
956,0.0546875,-0.3046875,0.51171875
957,-0.06640625,-0.4609375,0.5078125
958,-0.203125,-0.5078125,0.4140625
959,-0.359375,-0.5078125,0.33984375
960,-0.49609375,-0.48828125,0.30078125
961,-0.6328125,-0.4765625,0.29296875
962,-0.7265625,-0.4765625,0.28125
963,-0.71484375,-0.50390625,0.234375
964,-0.640625,-0.52734375,0.07421875
965,-0.515625,-0.546875,-0.05859375
966,-0.41796875,-0.50390625,-0.1953125
967,-0.2578125,-0.47265625,-0.2890625
968,-0.14453125,-0.40234375,-0.26171875
969,-0.0234375,-0.34765625,-0.2109375
970,0.078125,-0.2890625,-0.1953125
971,0.13671875,-0.26953125,-0.14453125
972,0.109375,-0.25,-0.1015625
973,0.0625,-0.24609375,-0.08203125
974,0.02734375,-0.26171875,-0.1171875
975,-0.06640625,-0.26953125,-0.21484375
976,-0.296875,-0.28515625,-0.43359375
977,-0.5390625,-0.375,-0.76953125
978,-0.6953125,-0.5234375,-1.328125
979,-0.6328125,-0.79296875,-1.8046875
980,-0.45703125,-1.26171875,-1.9296875
981,-0.25390625,-1.85546875,-1.48046875
982,-0.14453125,-2.4765625,-0.7578125
983,-0.203125,-2.91796875,-0.01171875
984,-0.56640625,-3.0,0.6171875
985,-0.7578125,-2.7578125,1.2734375
986,-0.6328125,-2.4765625,1.4765625
987,-0.40234375,-2.1875,1.20703125
988,-0.015625,-1.9453125,0.66015625
989,0.73828125,-1.98828125,0.04296875
990,1.6328125,-2.19140625,-0.390625
991,2.16796875,-2.421875,-0.5234375
992,1.96875,-2.3671875,-0.265625
993,1.5,-2.125,0.24609375
994,1.16015625,-1.96875,0.52734375
995,0.92578125,-1.8125,0.64453125
996,0.73046875,-1.65625,0.5625
997,0.48046875,-1.49609375,0.4453125
998,0.25390625,-1.40625,0.3125
999,0.05078125,-1.32421875,0.2890625
1000,-0.15234375,-1.25390625,0.35546875
1001,-0.35546875,-1.21484375,0.44921875
1002,-0.58984375,-1.203125,0.51953125
1003,-0.765625,-1.2734375,0.6015625
1004,-0.88671875,-1.38671875,0.69921875
1005,-1.02734375,-1.5625,0.73828125
1006,-1.07421875,-1.8125,0.81640625
1007,-1.0390625,-2.04296875,0.8828125
1008,-0.93359375,-2.1875,0.90234375
1009,-0.734375,-2.234375,0.86328125
1010,-0.5625,-2.25,0.6875
1011,-0.3125,-2.20703125,0.50390625
1012,-0.06640625,-2.0546875,0.3828125
1013,0.08984375,-1.76171875,0.34765625
1014,0.19140625,-1.34375,0.16796875
1015,0.13671875,-0.92578125,0.08203125
1016,0.05078125,-0.5703125,0.0625
1017,-0.08203125,-0.1328125,-0.00390625
1018,-0.17578125,0.15234375,-0.03515625
1019,-0.2421875,0.421875,-0.04296875
1020,-0.1953125,0.59765625,-0.03515625
1021,-0.13671875,0.66796875,-0.05859375
1022,-0.07421875,0.5859375,0.0
1023,-0.01953125,0.4296875,0.06640625
1024,-0.0078125,0.2109375,0.05859375
1025,0.0,0.0,0.015625
1026,0.01171875,-0.19140625,0.00390625
1027,0.0546875,-0.33984375,0.04296875
1028,0.11328125,-0.46875,0.16015625
1029,0.1953125,-0.5703125,0.265625
1030,0.2890625,-0.6171875,0.41015625
1031,0.38671875,-0.6171875,0.48828125
1032,0.4453125,-0.5703125,0.484375
1033,0.48046875,-0.5078125,0.421875
1034,0.5,-0.4140625,0.265625
1035,0.47265625,-0.29296875,0.08984375
1036,0.38671875,-0.19140625,-0.109375
1037,0.359375,-0.09765625,-0.2265625
1038,0.26171875,-0.0078125,-0.31640625
1039,0.140625,0.05859375,-0.3984375
1040,0.0078125,0.10546875,-0.3984375
1041,-0.09375,0.1328125,-0.35546875
1042,-0.1953125,0.16015625,-0.31640625
1043,-0.16796875,0.125,-0.296875
1044,-0.05859375,0.0703125,-0.3125
1045,0.1171875,-0.046875,-0.40234375
1046,0.39453125,-0.234375,-0.625
1047,0.6875,-0.46484375,-0.98828125
1048,0.91015625,-0.71484375,-1.4765625
1049,0.9921875,-0.96875,-1.93359375
1050,1.0390625,-1.44921875,-1.98046875
1051,1.09765625,-2.2109375,-1.234375
1052,0.91796875,-3.0390625,0.09765625
1053,0.78515625,-3.56640625,1.44140625
1054,0.7734375,-3.47265625,2.18359375
1055,0.62890625,-3.0546875,2.0546875
1056,0.59765625,-2.66015625,1.6015625
1057,0.46484375,-2.3359375,1.04296875
1058,0.04296875,-2.015625,0.44140625
1059,-0.47265625,-1.87109375,-0.07421875
1060,-1.1015625,-1.765625,-0.41015625
1061,-1.55859375,-1.58203125,-0.4375
1062,-1.7421875,-1.359375,-0.21875
1063,-1.6875,-1.1640625,-0.00390625
1064,-1.5234375,-1.0703125,0.15625
1065,-1.46875,-0.95703125,0.30859375
1066,-1.3203125,-0.88671875,0.41796875
1067,-1.078125,-0.91796875,0.49609375
1068,-0.90625,-1.0625,0.51171875
1069,-0.7421875,-1.25390625,0.546875
1070,-0.53515625,-1.44140625,0.62890625
1071,-0.25,-1.64453125,0.71484375
1072,0.03125,-1.84375,0.72265625
1073,0.24609375,-1.984375,0.71875
1074,0.359375,-2.09765625,0.73046875
1075,0.47265625,-2.234375,0.7890625
1076,0.57421875,-2.359375,0.84765625
1077,0.66796875,-2.38671875,0.87109375
1078,0.7421875,-2.33984375,0.87109375
1079,0.64453125,-2.2421875,0.8203125
1080,0.49609375,-2.109375,0.80859375
1081,0.3203125,-2.01953125,0.7265625
1082,0.1171875,-1.8671875,0.515625
1083,-0.125,-1.5625,0.2421875
1084,-0.26171875,-1.265625,0.1015625
1085,-0.32421875,-0.97265625,0.07421875
1086,-0.31640625,-0.70703125,0.05859375
1087,-0.25,-0.44921875,0.00390625
1088,-0.18359375,-0.140625,-0.09765625
1089,-0.13671875,0.1875,-0.16015625
1090,-0.0703125,0.46875,-0.21484375
1091,-0.0390625,0.6171875,-0.2421875
1092,-0.05078125,0.70703125,-0.234375
1093,-0.0078125,0.52734375,-0.07421875
1094,0.02734375,0.2265625,0.09765625
1095,0.05078125,-0.14453125,0.2890625
1096,0.03515625,-0.4375,0.3984375
1097,-0.0390625,-0.60546875,0.390625
1098,-0.17578125,-0.625,0.3359375
1099,-0.26171875,-0.59375,0.31640625
1100,-0.359375,-0.54296875,0.37109375
1101,-0.46484375,-0.4765625,0.39453125
1102,-0.55078125,-0.421875,0.41015625
1103,-0.6015625,-0.3671875,0.359375
1104,-0.60546875,-0.33984375,0.21484375
1105,-0.5859375,-0.30078125,0.0234375
1106,-0.51171875,-0.28125,-0.20703125
1107,-0.43359375,-0.296875,-0.3125
1108,-0.3046875,-0.3046875,-0.30859375
1109,-0.18359375,-0.33203125,-0.328125
1110,-0.0625,-0.30859375,-0.296875
1111,0.04296875,-0.28125,-0.24609375
1112,0.10546875,-0.25390625,-0.14453125
1113,0.1171875,-0.21875,-0.04296875
1114,0.0859375,-0.2109375,0.00390625
1115,0.0390625,-0.1953125,-0.01171875
1116,-0.0078125,-0.19921875,-0.08203125
1117,-0.15234375,-0.20703125,-0.171875
1118,-0.43359375,-0.265625,-0.3671875
1119,-0.734375,-0.39453125,-0.76953125
1120,-0.91796875,-0.578125,-1.37890625
1121,-0.94140625,-0.96484375,-1.91796875
1122,-0.84375,-1.59375,-1.9609375
1123,-0.51171875,-2.31640625,-1.33203125
1124,-0.234375,-2.94140625,-0.5234375
1125,-0.3359375,-3.26953125,0.13671875
1126,-0.50390625,-3.1328125,0.8828125
1127,-0.6875,-2.73828125,1.4765625
1128,-0.48828125,-2.5390625,1.4140625
1129,-0.1015625,-2.42578125,0.95703125
1130,0.62890625,-2.41015625,0.53125
1131,1.48046875,-2.4375,0.12890625
1132,2.0546875,-2.53515625,-0.125
1133,2.09765625,-2.4609375,-0.10546875
1134,1.8359375,-2.234375,0.22265625
1135,1.5390625,-2.06640625,0.41015625
1136,1.26171875,-1.90625,0.5
1137,1.015625,-1.80859375,0.4609375
1138,0.76171875,-1.71484375,0.375
1139,0.453125,-1.62109375,0.29296875
1140,0.109375,-1.51953125,0.3125
1141,-0.09765625,-1.41796875,0.359375
1142,-0.19921875,-1.3203125,0.41015625
1143,-0.421875,-1.2265625,0.4921875
1144,-0.65234375,-1.1796875,0.5546875
1145,-0.84375,-1.19921875,0.59375
1146,-1.05078125,-1.2890625,0.609375
1147,-1.2265625,-1.4453125,0.65625
1148,-1.35546875,-1.63671875,0.67578125
1149,-1.3203125,-1.75390625,0.71875
1150,-1.15625,-1.8125,0.62890625
1151,-0.91015625,-1.8203125,0.5
1152,-0.65234375,-1.875,0.359375
1153,-0.3125,-1.8125,0.27734375
1154,-0.0546875,-1.67578125,0.25390625
1155,0.0625,-1.4765625,0.24609375
1156,0.05859375,-1.19140625,0.1171875
1157,0.01953125,-0.828125,0.0625
1158,-0.00390625,-0.484375,0.0234375
1159,0.03125,-0.16796875,0.05078125
1160,0.0390625,0.12109375,0.0703125
1161,0.0390625,0.3046875,0.125
1162,0.0390625,0.3984375,0.1875
1163,0.02734375,0.37109375,0.2421875
1164,0.03125,0.265625,0.28515625
1165,0.015625,0.140625,0.26171875
1166,0.01171875,-0.04296875,0.1953125
1167,0.03515625,-0.20703125,0.1171875
1168,0.09375,-0.359375,0.046875
1169,0.09765625,-0.44921875,0.06640625
1170,0.140625,-0.5078125,0.12109375
1171,0.19921875,-0.5234375,0.20703125
1172,0.2578125,-0.51171875,0.2578125
1173,0.33203125,-0.484375,0.26953125
1174,0.37890625,-0.41796875,0.2265625
1175,0.3984375,-0.35546875,0.13671875
1176,0.39453125,-0.25390625,0.00390625
1177,0.390625,-0.203125,-0.1015625
1178,0.36328125,-0.1328125,-0.25
1179,0.33203125,-0.03515625,-0.30078125
1180,0.265625,0.03515625,-0.3984375
1181,0.17578125,0.12109375,-0.4140625
1182,0.09375,0.15625,-0.3984375
1183,0.015625,0.19921875,-0.3515625
1184,-0.04296875,0.234375,-0.33984375
1185,-0.0703125,0.23046875,-0.2578125
1186,-0.03125,0.1484375,-0.140625
1187,0.0390625,0.02734375,-0.05078125
1188,0.171875,-0.11328125,-0.0234375
1189,0.2890625,-0.28515625,-0.09765625
1190,0.421875,-0.48828125,-0.27734375
1191,0.59765625,-0.7109375,-0.546875
1192,0.77734375,-0.91015625,-0.9921875
1193,0.9375,-1.26953125,-1.69140625
1194,0.9765625,-1.828125,-1.66015625
1195,0.90234375,-2.6953125,-0.78125
1196,0.6953125,-3.5390625,0.5390625
1197,0.69921875,-3.890625,1.46484375
1198,0.45703125,-3.703125,1.47265625
1199,0.3359375,-3.375,1.265625
1200,0.15234375,-3.03125,1.01171875
1201,-0.32421875,-2.578125,0.62890625
1202,-0.76953125,-2.20703125,0.15234375
1203,-1.12109375,-1.8671875,-0.14453125
1204,-1.3671875,-1.54296875,-0.07421875
1205,-1.54296875,-1.22265625,0.11328125
1206,-1.53515625,-0.9453125,0.3515625
1207,-1.39453125,-0.77734375,0.4921875
1208,-1.25,-0.74609375,0.48828125
1209,-1.18359375,-0.73828125,0.50390625
1210,-1.07421875,-0.828125,0.49609375
1211,-0.875,-1.06640625,0.4765625
1212,-0.67578125,-1.31640625,0.50390625
1213,-0.5234375,-1.53125,0.61328125
1214,-0.41796875,-1.72265625,0.7578125
1215,-0.3125,-1.82421875,0.9296875
1216,-0.2109375,-1.91796875,0.99609375
1217,-0.0078125,-1.95703125,0.94140625
1218,0.21484375,-1.99609375,0.875
1219,0.45703125,-1.9609375,0.78515625
1220,0.62109375,-1.875,0.73046875
1221,0.703125,-1.68359375,0.609375
1222,0.671875,-1.55859375,0.47265625
1223,0.6015625,-1.453125,0.35546875
1224,0.37890625,-1.34765625,0.2890625
1225,0.08203125,-1.296875,0.25
1226,-0.1796875,-1.21484375,0.28125
1227,-0.359375,-1.10546875,0.28125
1228,-0.42578125,-1.0078125,0.265625
1229,-0.43359375,-0.8515625,0.203125
1230,-0.3359375,-0.69921875,0.12109375
1231,-0.26171875,-0.50390625,0.12109375
1232,-0.19921875,-0.26953125,0.08984375
1233,-0.09765625,-0.1015625,0.0078125
1234,-0.05078125,0.046875,-0.1015625
1235,0.03125,0.15625,-0.1484375
1236,0.16015625,0.10546875,-0.1484375
1237,0.22265625,-0.04296875,-0.04296875
1238,0.27734375,-0.3203125,0.1171875
1239,0.3046875,-0.6015625,0.28125
1240,0.26171875,-0.78125,0.3828125
1241,0.1640625,-0.8359375,0.40625
1242,0.05859375,-0.76953125,0.39453125
1243,-0.0390625,-0.68359375,0.33203125
1244,-0.125,-0.52734375,0.2421875
1245,-0.19140625,-0.4375,0.140625
1246,-0.296875,-0.359375,0.02734375
1247,-0.35546875,-0.36328125,-0.05078125
1248,-0.3828125,-0.37109375,-0.15234375
1249,-0.4375,-0.328125,-0.18359375
1250,-0.3828125,-0.30859375,-0.1875
1251,-0.3125,-0.29296875,-0.21484375
1252,-0.23828125,-0.25390625,-0.26953125
1253,-0.16796875,-0.18359375,-0.26953125
1254,-0.12109375,-0.09765625,-0.21484375
1255,-0.10546875,-0.03515625,-0.109375
1256,-0.109375,0.0,-0.09765625
1257,-0.08203125,0.00390625,-0.140625
1258,-0.08203125,0.046875,-0.18359375
1259,-0.1953125,0.00390625,-0.265625
1260,-0.37109375,-0.05078125,-0.40234375
1261,-0.59375,-0.140625,-0.6875
1262,-0.80078125,-0.2734375,-1.16015625
1263,-0.91796875,-0.515625,-1.58203125
1264,-0.984375,-1.00390625,-1.7578125
1265,-0.90625,-1.75390625,-1.48828125
1266,-0.51953125,-2.5625,-1.0
1267,-0.0625,-3.2265625,-0.26171875
1268,-0.17578125,-3.3984375,0.50390625
1269,-0.3671875,-3.08203125,1.2734375
1270,-0.5078125,-2.57421875,1.49609375
1271,-0.24609375,-2.4375,1.0234375
1272,0.37109375,-2.43359375,0.53125
1273,1.19921875,-2.63671875,0.15234375
1274,1.90234375,-2.859375,-0.12890625
1275,2.08984375,-2.97265625,-0.171875
1276,1.7421875,-2.765625,0.0859375
1277,1.3828125,-2.5390625,0.3984375
1278,1.0546875,-2.3046875,0.578125
1279,0.86328125,-2.0546875,0.54296875
1280,0.76171875,-1.82421875,0.39453125
1281,0.59765625,-1.6328125,0.265625
1282,0.30078125,-1.4296875,0.2109375
1283,0.0078125,-1.2578125,0.2421875
1284,-0.1796875,-1.1484375,0.25390625
1285,-0.328125,-1.05078125,0.28515625
1286,-0.515625,-1.0078125,0.33984375
1287,-0.75390625,-0.99609375,0.37890625
1288,-0.9296875,-1.08203125,0.42578125
1289,-1.03515625,-1.25,0.48828125
1290,-1.07421875,-1.46875,0.515625
1291,-1.0234375,-1.71484375,0.58984375
1292,-0.91015625,-1.8984375,0.66796875
1293,-0.76171875,-1.94921875,0.63671875
1294,-0.5546875,-1.96875,0.5703125
1295,-0.35546875,-1.953125,0.421875
1296,-0.09765625,-1.90234375,0.32421875
1297,0.05078125,-1.7734375,0.34765625
1298,0.08984375,-1.58984375,0.375
1299,0.0859375,-1.3125,0.3828125
1300,0.03125,-1.02734375,0.25390625
1301,-0.0234375,-0.7109375,0.10546875
1302,-0.08203125,-0.37109375,0.00390625
1303,-0.14453125,-0.06640625,-0.03125
1304,-0.20703125,0.23828125,-0.0390625
1305,-0.27734375,0.47265625,-0.0390625
1306,-0.3125,0.6015625,0.01171875
1307,-0.34375,0.60546875,0.09375
1308,-0.296875,0.4921875,0.203125
1309,-0.19140625,0.296875,0.2421875
1310,-0.1015625,0.08984375,0.234375
1311,-0.05859375,-0.03125,0.20703125
1312,-0.0546875,-0.1484375,0.16015625
1313,0.0078125,-0.24609375,0.15234375
1314,0.08984375,-0.3203125,0.203125
1315,0.18359375,-0.3671875,0.24609375
1316,0.26953125,-0.39453125,0.23828125
1317,0.35546875,-0.38671875,0.23828125
1318,0.40234375,-0.3671875,0.1640625
1319,0.4140625,-0.3203125,0.06640625
1320,0.421875,-0.28125,-0.0625
1321,0.375,-0.21484375,-0.125
1322,0.33984375,-0.1875,-0.1953125
1323,0.3125,-0.1171875,-0.2578125
1324,0.23046875,-0.046875,-0.3203125
1325,0.1640625,0.015625,-0.35546875
1326,0.140625,0.06640625,-0.359375
1327,0.125,0.09765625,-0.3359375
1328,0.1640625,0.07421875,-0.28515625
1329,0.21484375,0.05078125,-0.24609375
1330,0.25390625,0.0,-0.21484375
1331,0.3125,-0.06640625,-0.1953125
1332,0.40625,-0.15625,-0.21875
1333,0.51171875,-0.3125,-0.3359375
1334,0.6640625,-0.4921875,-0.59765625
1335,0.79296875,-0.7265625,-0.98828125
1336,0.8984375,-1.00390625,-1.390625
1337,0.97265625,-1.41796875,-1.48828125
1338,0.984375,-2.0078125,-0.9375
1339,0.84765625,-2.6328125,-0.00390625
1340,0.6328125,-3.08203125,0.8203125
1341,0.5625,-3.25,1.17578125
1342,0.40234375,-3.1640625,1.20703125
1343,0.171875,-2.99609375,0.984375
1344,-0.078125,-2.8203125,0.625
1345,-0.515625,-2.55859375,-0.078125
1346,-0.90625,-2.32421875,-0.2109375
1347,-1.27734375,-2.02734375,-0.1328125
1348,-1.55078125,-1.69140625,0.0625
1349,-1.68359375,-1.3203125,0.359375
1350,-1.58203125,-1.04296875,0.44140625
1351,-1.36328125,-0.9296875,0.40234375
1352,-1.20703125,-0.82421875,0.33203125
1353,-1.03515625,-0.84765625,0.33203125
1354,-0.84765625,-0.99609375,0.390625
1355,-0.625,-1.20703125,0.4609375
1356,-0.453125,-1.421875,0.58203125
1357,-0.3203125,-1.61328125,0.7578125
1358,-0.23828125,-1.7578125,0.953125
1359,-0.12890625,-1.8515625,1.0859375
1360,0.0,-1.90234375,1.0390625
1361,0.15625,-1.9609375,0.9453125
1362,0.28515625,-1.953125,0.890625
1363,0.41015625,-1.94140625,0.8203125
1364,0.5234375,-1.875,0.75
1365,0.59765625,-1.75390625,0.68359375
1366,0.5546875,-1.56640625,0.5234375
1367,0.36328125,-1.46875,0.42578125
1368,0.2109375,-1.40234375,0.41015625
1369,-0.00390625,-1.4140625,0.42578125
1370,-0.21484375,-1.37890625,0.40625
1371,-0.34765625,-1.29296875,0.44140625
1372,-0.4375,-1.23046875,0.453125
1373,-0.48828125,-1.14453125,0.3984375
1374,-0.4453125,-1.046875,0.35546875
1375,-0.3046875,-0.97265625,0.30078125
1376,-0.16796875,-0.84375,0.26171875
1377,-0.09375,-0.71875,0.16796875
1378,-0.04296875,-0.5703125,0.0703125
1379,-0.01953125,-0.37109375,0.01953125
1380,0.00390625,-0.22265625,0.0234375
1381,0.0,-0.09375,0.06640625
1382,-0.08203125,-0.0390625,0.11328125
1383,-0.14453125,-0.0390625,0.1484375
1384,-0.19921875,-0.10546875,0.171875
1385,-0.2265625,-0.1640625,0.21484375
1386,-0.234375,-0.21484375,0.296875
1387,-0.26171875,-0.23828125,0.3359375
1388,-0.2890625,-0.24609375,0.33984375
1389,-0.328125,-0.2421875,0.30859375
1390,-0.36328125,-0.2421875,0.2421875
1391,-0.39453125,-0.25390625,0.1171875
1392,-0.38671875,-0.265625,0.0
1393,-0.37109375,-0.25390625,-0.109375
1394,-0.27734375,-0.27734375,-0.25
1395,-0.1640625,-0.3203125,-0.24609375
1396,-0.0703125,-0.3203125,-0.18359375
1397,0.02734375,-0.30078125,-0.140625
1398,0.10546875,-0.27734375,-0.1171875
1399,0.1796875,-0.2421875,-0.07421875
1400,0.1875,-0.19140625,-0.05859375
1401,0.21484375,-0.171875,-0.046875
1402,0.16796875,-0.14453125,-0.05859375
1403,0.015625,-0.13671875,-0.125
1404,-0.25,-0.15234375,-0.27734375
1405,-0.5,-0.203125,-0.609375
1406,-0.6484375,-0.296875,-1.1328125
1407,-0.56640625,-0.5234375,-1.61328125
1408,-0.48828125,-0.94140625,-1.80078125
1409,-0.38671875,-1.57421875,-1.4375
1410,-0.296875,-2.26171875,-0.80078125
1411,-0.2578125,-2.88671875,-0.109375
1412,-0.48828125,-3.19921875,0.6015625
1413,-0.70703125,-3.15234375,1.3515625
1414,-0.74609375,-2.828125,1.7109375
1415,-0.5703125,-2.5,1.33984375
1416,-0.2890625,-2.28515625,0.73828125
1417,0.23828125,-2.1953125,0.203125
1418,0.94140625,-2.1875,-0.20703125
1419,1.4375,-2.1953125,-0.4453125
1420,1.4296875,-2.0546875,-0.25
1421,1.2109375,-1.8828125,0.1015625
1422,1.0078125,-1.7109375,0.41796875
1423,0.8359375,-1.5703125,0.5703125
1424,0.72265625,-1.45703125,0.52734375
1425,0.5625,-1.35546875,0.4375
1426,0.328125,-1.2421875,0.359375
1427,0.10546875,-1.17578125,0.36328125
1428,-0.0625,-1.10546875,0.37890625
1429,-0.1640625,-1.08984375,0.3984375
1430,-0.24609375,-1.0703125,0.4375
1431,-0.37890625,-1.09765625,0.48828125
1432,-0.515625,-1.19140625,0.55859375
1433,-0.63671875,-1.3515625,0.60546875
1434,-0.734375,-1.53515625,0.65625
1435,-0.80078125,-1.7421875,0.73046875
1436,-0.8125,-1.95703125,0.8046875
1437,-0.76953125,-2.0859375,0.83984375
1438,-0.63671875,-2.1015625,0.8125
1439,-0.47265625,-2.05859375,0.7578125
1440,-0.28125,-2.00390625,0.62890625
1441,-0.0859375,-1.859375,0.421875
1442,0.0703125,-1.6953125,0.26171875
1443,0.16796875,-1.4921875,0.2109375
1444,0.21484375,-1.21484375,0.23046875
1445,0.171875,-0.95703125,0.20703125
1446,0.0859375,-0.7109375,0.13671875
1447,0.0,-0.453125,0.05859375
1448,-0.0859375,-0.19140625,0.0546875
1449,-0.1328125,0.05859375,0.07421875
1450,-0.13671875,0.234375,0.12109375
1451,-0.125,0.31640625,0.15234375
1452,-0.11328125,0.3125,0.1796875
1453,-0.078125,0.21875,0.20703125
1454,-0.0390625,0.08984375,0.203125
1455,0.01171875,-0.03125,0.17578125
1456,0.05078125,-0.16015625,0.09765625
1457,0.06640625,-0.23828125,0.08203125
1458,0.11328125,-0.265625,0.08203125
1459,0.171875,-0.28515625,0.1015625
1460,0.21875,-0.29296875,0.1484375
1461,0.2734375,-0.30078125,0.1796875
1462,0.328125,-0.2890625,0.1875
1463,0.3671875,-0.25390625,0.1640625
1464,0.3671875,-0.25,0.08203125
1465,0.3984375,-0.22265625,0.02734375
1466,0.34375,-0.16796875,-0.00390625
1467,0.2890625,-0.1328125,-0.0625
1468,0.19921875,-0.09375,-0.140625
1469,0.08203125,-0.05078125,-0.140625
1470,-0.00390625,0.0,-0.19140625
1471,-0.0703125,0.04296875,-0.1875
1472,-0.08203125,0.0625,-0.15625
1473,-0.01953125,0.0234375,-0.15625
1474,0.0625,-0.01953125,-0.16796875
1475,0.16796875,-0.09375,-0.171875
1476,0.25390625,-0.19140625,-0.20703125
1477,0.33203125,-0.30859375,-0.27734375
1478,0.421875,-0.46875,-0.40234375
1479,0.55859375,-0.703125,-0.6640625
1480,0.671875,-0.9296875,-1.10546875
1481,0.71875,-1.16796875,-1.6953125
1482,0.76953125,-1.69140625,-1.8359375
1483,0.75,-2.46484375,-1.1015625
1484,0.49609375,-3.16015625,0.21875
1485,0.34765625,-3.53125,1.37109375
1486,0.48828125,-3.45703125,1.91796875
1487,0.40625,-3.015625,1.71875
1488,0.3828125,-2.72265625,1.296875
1489,0.18359375,-2.50390625,0.68359375
1490,-0.13671875,-2.30859375,0.078125
1491,-0.5625,-2.11328125,-0.31640625
1492,-0.9296875,-1.94140625,-0.42578125
1493,-1.203125,-1.640625,-0.14453125
1494,-1.34375,-1.3046875,0.140625
1495,-1.3359375,-1.00390625,0.39453125
1496,-1.2578125,-0.8203125,0.51953125
1497,-1.19140625,-0.68359375,0.53125
1498,-1.05859375,-0.65234375,0.4765625
1499,-0.86328125,-0.75,0.44140625
1500,-0.6953125,-0.91796875,0.42578125
1501,-0.55078125,-1.1171875,0.453125
1502,-0.42578125,-1.3203125,0.484375
1503,-0.2734375,-1.5234375,0.59375
1504,-0.16015625,-1.7109375,0.7421875
1505,-0.0234375,-1.875,0.8359375
1506,0.078125,-1.98828125,0.81640625
1507,0.19921875,-2.06640625,0.7890625
1508,0.265625,-2.0859375,0.7421875
1509,0.35546875,-2.06640625,0.7265625
1510,0.40234375,-2.01953125,0.66796875
1511,0.38671875,-1.93359375,0.58984375
1512,0.33203125,-1.7734375,0.51953125
1513,0.12109375,-1.58203125,0.484375
1514,-0.11328125,-1.4453125,0.47265625
1515,-0.26953125,-1.34765625,0.46875
1516,-0.39453125,-1.25,0.421875
1517,-0.4140625,-1.12890625,0.375
1518,-0.37890625,-0.96875,0.296875
1519,-0.2578125,-0.89453125,0.28515625
1520,-0.1640625,-0.765625,0.2578125
1521,-0.078125,-0.66015625,0.25
1522,-0.01953125,-0.50390625,0.18359375
1523,0.01953125,-0.37109375,0.0703125
1524,0.0546875,-0.16796875,-0.0234375
1525,0.12109375,-0.00390625,-0.12890625
1526,0.19921875,0.078125,-0.12890625
1527,0.25,0.05078125,-0.06640625
1528,0.23046875,-0.078125,0.03515625
1529,0.1484375,-0.28125,0.10546875
1530,0.0625,-0.4296875,0.1875
1531,-0.05859375,-0.5390625,0.16796875
1532,-0.15234375,-0.56640625,0.1015625
1533,-0.15625,-0.578125,0.07421875
1534,-0.17578125,-0.5703125,0.0078125
1535,-0.17578125,-0.53515625,-0.0703125
1536,-0.2421875,-0.49609375,-0.17578125
1537,-0.296875,-0.43359375,-0.23828125
1538,-0.30859375,-0.39453125,-0.265625
1539,-0.32421875,-0.34375,-0.296875
1540,-0.3046875,-0.3046875,-0.3046875
1541,-0.2421875,-0.265625,-0.28125
1542,-0.1484375,-0.2421875,-0.25
1543,-0.05859375,-0.1953125,-0.14453125
1544,0.01171875,-0.15234375,-0.05078125
1545,0.00390625,-0.1171875,-0.00390625
1546,0.01171875,-0.06640625,-0.0234375
1547,0.03125,-0.05078125,-0.0625
1548,0.015625,-0.05859375,-0.125
1549,-0.09765625,-0.05859375,-0.1953125
1550,-0.2734375,-0.10546875,-0.25
1551,-0.484375,-0.1953125,-0.42578125
1552,-0.6328125,-0.3125,-0.76171875
1553,-0.6484375,-0.5390625,-1.1796875
1554,-0.5625,-0.90625,-1.48828125
1555,-0.4765625,-1.46875,-1.3984375
1556,-0.3515625,-2.046875,-0.88671875
1557,-0.2265625,-2.5546875,-0.109375
1558,-0.1484375,-2.85546875,0.64453125
1559,-0.27734375,-2.81640625,1.3203125
1560,-0.37109375,-2.48046875,1.75
1561,-0.2109375,-2.26171875,1.73046875
1562,0.15234375,-2.03515625,1.3828125
1563,0.56640625,-1.9921875,0.90625
1564,1.06640625,-2.00390625,0.40625
1565,1.42578125,-2.13671875,-0.03515625
1566,1.5,-2.22265625,-0.2421875
1567,1.359375,-2.22265625,-0.0390625
1568,1.0390625,-2.09375,0.359375
1569,0.70703125,-1.91796875,0.5703125
1570,0.44921875,-1.73046875,0.68359375
1571,0.25390625,-1.5859375,0.66015625
1572,0.11328125,-1.44140625,0.6171875
1573,-0.0078125,-1.359375,0.62109375
1574,-0.13671875,-1.28125,0.68359375
1575,-0.203125,-1.21484375,0.71875
1576,-0.30859375,-1.17578125,0.71484375
1577,-0.39453125,-1.10546875,0.703125
1578,-0.51953125,-1.12109375,0.62109375
1579,-0.6328125,-1.14453125,0.5703125
1580,-0.73828125,-1.21875,0.58203125
1581,-0.8515625,-1.2890625,0.578125
1582,-0.9765625,-1.359375,0.5625
1583,-0.95703125,-1.40234375,0.54296875
1584,-0.80078125,-1.359375,0.51953125
1585,-0.5703125,-1.24609375,0.50390625
1586,-0.3359375,-1.125,0.3984375
1587,-0.12890625,-1.00390625,0.3125
1588,-0.00390625,-0.89453125,0.25390625
1589,0.0625,-0.828125,0.328125
1590,0.11328125,-0.8125,0.44921875
1591,0.13671875,-0.82421875,0.546875
1592,0.14453125,-0.875,0.578125
1593,0.09765625,-0.92578125,0.609375
1594,0.08203125,-0.96875,0.5703125
1595,0.05859375,-1.0,0.55859375
1596,-0.00390625,-0.99609375,0.49609375
1597,-0.08203125,-0.91796875,0.3984375
1598,-0.15234375,-0.765625,0.265625
1599,-0.1796875,-0.59765625,0.09375
1600,-0.1953125,-0.4453125,-0.0625
1601,-0.16015625,-0.30078125,-0.15234375
1602,-0.078125,-0.23046875,-0.21484375
1603,0.0078125,-0.1875,-0.2265625
1604,0.1015625,-0.18359375,-0.21484375
1605,0.14453125,-0.171875,-0.1796875
1606,0.20703125,-0.17578125,-0.16796875
1607,0.23046875,-0.1484375,-0.1640625
1608,0.29296875,-0.15234375,-0.15625
1609,0.328125,-0.14453125,-0.15625
1610,0.328125,-0.1171875,-0.203125
1611,0.3046875,-0.0625,-0.19921875
1612,0.27734375,-0.015625,-0.21484375
1613,0.23046875,0.0390625,-0.23046875
1614,0.19921875,0.04296875,-0.19140625
1615,0.1875,0.0234375,-0.10546875
1616,0.21484375,0.0,-0.09375
1617,0.25390625,-0.05859375,-0.125
1618,0.25,-0.11328125,-0.19921875
1619,0.25390625,-0.19140625,-0.25390625
1620,0.30859375,-0.3203125,-0.41015625
1621,0.4375,-0.49609375,-0.56640625
1622,0.6015625,-0.71875,-0.8515625
1623,0.7265625,-0.96484375,-1.25
1624,0.73828125,-1.2890625,-1.5390625
1625,0.74609375,-1.81640625,-1.35546875
1626,0.62109375,-2.5234375,-0.59765625
1627,0.23046875,-3.1171875,0.53125
1628,-0.0546875,-3.3203125,1.55859375
1629,0.11328125,-3.2421875,1.93359375
1630,0.265625,-2.765625,1.609375
1631,0.19921875,-2.4296875,1.0390625
1632,0.015625,-2.3125,0.58984375
1633,-0.28125,-2.27734375,0.44140625
1634,-0.8046875,-2.08203125,0.2734375
1635,-1.1640625,-1.88671875,0.12890625
1636,-1.34765625,-1.66796875,0.17578125
1637,-1.37109375,-1.4921875,0.296875
1638,-1.296875,-1.33203125,0.4296875
1639,-1.18359375,-1.17578125,0.49609375
1640,-1.08203125,-1.07421875,0.4609375
1641,-0.9609375,-0.9765625,0.39453125
1642,-0.83203125,-0.98828125,0.3671875
1643,-0.6796875,-1.078125,0.35546875
1644,-0.55859375,-1.20703125,0.35546875
1645,-0.4453125,-1.328125,0.41015625
1646,-0.32421875,-1.4609375,0.5390625
1647,-0.1484375,-1.59375,0.6875
1648,-0.01171875,-1.70703125,0.765625
1649,0.10546875,-1.74609375,0.7421875
1650,0.140625,-1.77734375,0.671875
1651,0.1484375,-1.78515625,0.64453125
1652,0.1484375,-1.8203125,0.65625
1653,0.1796875,-1.8046875,0.64453125
1654,0.16015625,-1.7578125,0.6015625
1655,0.0859375,-1.65234375,0.61328125
1656,-0.0078125,-1.50390625,0.625
1657,-0.1640625,-1.3359375,0.56640625
1658,-0.21484375,-1.32421875,0.47265625
1659,-0.21484375,-1.359375,0.3671875
1660,-0.2421875,-1.36328125,0.30859375
1661,-0.2421875,-1.32421875,0.3359375
1662,-0.24609375,-1.27734375,0.31640625
1663,-0.14453125,-1.24609375,0.3203125
1664,-0.01953125,-1.16015625,0.2734375
1665,0.0859375,-1.015625,0.19921875
1666,0.15625,-0.66796875,0.05078125
1667,0.203125,-0.32421875,-0.03125
1668,0.234375,0.046875,-0.14453125
1669,0.2421875,0.375,-0.1640625
1670,0.265625,0.61328125,-0.1796875
1671,0.2578125,0.75,-0.1796875
1672,0.2109375,0.7734375,-0.1328125
1673,0.1171875,0.65625,-0.04296875
1674,0.00390625,0.48046875,-0.0234375
1675,-0.0859375,0.25,-0.01171875
1676,-0.1484375,0.03125,-0.08203125
1677,-0.1640625,-0.17578125,-0.15234375
1678,-0.12109375,-0.3515625,-0.1875
1679,-0.09375,-0.46875,-0.203125
1680,-0.0703125,-0.53125,-0.1875
1681,-0.05078125,-0.55859375,-0.140625
1682,-0.02734375,-0.58984375,-0.109375
1683,0.00390625,-0.55859375,-0.046875
1684,0.01953125,-0.58203125,0.02734375
1685,0.046875,-0.5625,0.0703125
1686,0.05859375,-0.5234375,0.09375
1687,0.05078125,-0.4921875,0.09375
1688,0.00390625,-0.453125,0.05859375
1689,-0.03515625,-0.3828125,0.00390625
1690,-0.0703125,-0.3203125,-0.078125
1691,-0.10546875,-0.265625,-0.14453125
1692,-0.203125,-0.23046875,-0.171875
1693,-0.34765625,-0.2265625,-0.23046875
1694,-0.58203125,-0.2421875,-0.4296875
1695,-0.7578125,-0.33203125,-0.76171875
1696,-0.828125,-0.56640625,-1.20703125
1697,-0.890625,-0.921875,-1.46484375
1698,-0.96875,-1.41796875,-1.421875
1699,-0.9375,-2.01953125,-1.03515625
1700,-0.78515625,-2.6328125,-0.43359375
1701,-0.66796875,-3.12890625,0.2578125
1702,-0.625,-3.359375,0.90234375
1703,-0.58203125,-3.265625,1.3046875
1704,-0.44140625,-3.046875,1.1796875
1705,-0.125,-2.8828125,0.73046875
1706,0.296875,-2.78515625,0.25390625
1707,0.87109375,-2.73828125,-0.015625
1708,1.25390625,-2.63671875,-0.203125
1709,1.20703125,-2.45703125,-0.3046875
1710,1.05859375,-2.2421875,-0.14453125
1711,0.8984375,-2.01171875,0.05078125
1712,0.66015625,-1.7421875,0.2265625
1713,0.38671875,-1.515625,0.34375
1714,0.15234375,-1.33984375,0.40234375
1715,-0.171875,-1.171875,0.38671875
1716,-0.37890625,-1.0546875,0.35546875
1717,-0.50390625,-0.9765625,0.296875
1718,-0.5546875,-0.9140625,0.30078125
1719,-0.59375,-0.87109375,0.328125
1720,-0.65625,-0.875,0.328125
1721,-0.73828125,-0.94921875,0.34375
1722,-0.76953125,-1.03125,0.3515625
1723,-0.78515625,-1.21875,0.359375
1724,-0.73828125,-1.390625,0.42578125
1725,-0.63671875,-1.578125,0.515625
1726,-0.4765625,-1.7421875,0.5546875
1727,-0.28125,-1.875,0.58203125
1728,-0.07421875,-1.9296875,0.59375
1729,0.1484375,-1.89453125,0.55078125
1730,0.33203125,-1.80078125,0.421875
1731,0.4375,-1.67578125,0.33984375
1732,0.47265625,-1.51953125,0.2890625
1733,0.44921875,-1.3203125,0.28125
1734,0.40234375,-1.12109375,0.25390625
1735,0.32421875,-0.890625,0.21875
1736,0.23046875,-0.6640625,0.12109375
1737,0.1015625,-0.4453125,0.05859375
1738,0.01171875,-0.2421875,0.015625
1739,-0.0625,-0.07421875,-0.015625
1740,-0.1015625,0.0234375,0.015625
1741,-0.10546875,0.01953125,0.07421875
1742,-0.1015625,-0.01171875,0.1328125
1743,-0.09375,-0.11328125,0.1796875
1744,-0.03125,-0.20703125,0.203125
1745,0.0390625,-0.27734375,0.21484375
1746,0.125,-0.35546875,0.17578125
1747,0.16796875,-0.39453125,0.15234375
1748,0.2421875,-0.4296875,0.12109375
1749,0.296875,-0.43359375,0.1328125
1750,0.35546875,-0.41015625,0.16015625
1751,0.39453125,-0.3671875,0.1484375
1752,0.41796875,-0.3046875,0.109375
1753,0.40234375,-0.2265625,0.0625
1754,0.4140625,-0.14453125,-0.0234375
1755,0.43359375,-0.078125,-0.1171875
1756,0.3984375,0.00390625,-0.1953125
1757,0.3515625,0.078125,-0.2265625
1758,0.296875,0.1328125,-0.24609375
1759,0.2265625,0.1796875,-0.25
1760,0.16796875,0.21484375,-0.25
1761,0.1484375,0.20703125,-0.23046875
1762,0.140625,0.1875,-0.1953125
1763,0.1328125,0.12109375,-0.1953125
1764,0.1640625,0.01171875,-0.20703125
1765,0.18359375,-0.1796875,-0.30078125
1766,0.17578125,-0.421875,-0.4453125
1767,0.234375,-0.65234375,-0.671875
1768,0.30859375,-0.91796875,-1.04296875
1769,0.3515625,-1.2109375,-1.47265625
1770,0.34765625,-1.5546875,-1.5390625
1771,0.29296875,-2.06640625,-0.94921875
1772,0.015625,-2.59375,0.2890625
1773,-0.43359375,-3.01953125,1.46484375
1774,-0.4140625,-3.25,2.0703125
1775,0.21875,-3.29296875,2.05859375
1776,0.45703125,-3.0703125,1.421875
1777,0.484375,-2.83984375,0.72265625
1778,0.390625,-2.578125,0.3046875
1779,0.171875,-2.26171875,0.125
1780,-0.2265625,-1.89453125,0.0390625
1781,-0.6484375,-1.56640625,0.01171875
1782,-0.828125,-1.28515625,0.1640625
1783,-0.8671875,-1.05078125,0.328125
1784,-0.9609375,-0.84765625,0.37890625
1785,-0.9609375,-0.6953125,0.34765625
1786,-0.88671875,-0.62890625,0.296875
1787,-0.8359375,-0.6328125,0.30078125
1788,-0.77734375,-0.73828125,0.265625
1789,-0.65234375,-0.921875,0.22265625
1790,-0.53515625,-1.203125,0.21875
1791,-0.44921875,-1.4609375,0.37109375
1792,-0.36328125,-1.74609375,0.60546875
1793,-0.22265625,-2.0390625,0.83203125
1794,-0.09375,-2.30078125,0.9375
1795,0.03515625,-2.53515625,0.9375
1796,0.171875,-2.70703125,0.93359375
1797,0.24609375,-2.7734375,0.89453125
1798,0.2734375,-2.72265625,0.84765625
1799,0.234375,-2.515625,0.796875
1800,0.1171875,-2.23046875,0.72265625
1801,0.0,-1.9453125,0.59765625
1802,-0.09375,-1.6484375,0.4453125
1803,-0.21484375,-1.40625,0.38671875
1804,-0.31640625,-1.23046875,0.38671875
1805,-0.37890625,-1.16015625,0.421875
1806,-0.4609375,-1.0859375,0.41796875
1807,-0.49609375,-1.02734375,0.43359375
1808,-0.5234375,-1.0,0.41796875
1809,-0.5390625,-0.95703125,0.3828125
1810,-0.5234375,-0.87890625,0.3671875
1811,-0.44921875,-0.78125,0.296875
1812,-0.45703125,-0.7265625,0.22265625
1813,-0.41015625,-0.609375,0.12109375
1814,-0.2734375,-0.44140625,0.0234375
1815,-0.2265625,-0.1953125,-0.00390625
1816,-0.1484375,0.05078125,-0.05078125
1817,-0.09765625,0.265625,-0.046875
1818,-0.03125,0.4140625,-0.10546875
1819,-0.05078125,0.45703125,-0.1796875
1820,-0.05859375,0.3828125,-0.17578125
1821,-0.078125,0.23828125,-0.0859375
1822,-0.15234375,0.08984375,0.0390625
1823,-0.234375,-0.08203125,0.12890625
1824,-0.25390625,-0.27734375,0.19921875
1825,-0.22265625,-0.45703125,0.203125
1826,-0.19140625,-0.60546875,0.234375
1827,-0.19140625,-0.6953125,0.19140625
1828,-0.17578125,-0.70703125,0.16015625
1829,-0.203125,-0.65625,0.08984375
1830,-0.19921875,-0.59375,0.00390625
1831,-0.20703125,-0.4765625,-0.0625
1832,-0.15625,-0.375,-0.12890625
1833,-0.109375,-0.31640625,-0.21484375
1834,-0.046875,-0.26953125,-0.21484375
1835,0.04296875,-0.25390625,-0.20703125
1836,0.11328125,-0.23828125,-0.17578125
1837,0.1796875,-0.2421875,-0.171875
1838,0.14453125,-0.24609375,-0.1484375
1839,-0.0078125,-0.2890625,-0.21484375
1840,-0.23828125,-0.3515625,-0.4140625
1841,-0.359375,-0.47265625,-0.79296875
1842,-0.3984375,-0.6640625,-1.18359375
1843,-0.32421875,-0.91015625,-1.375
1844,-0.23046875,-1.22265625,-1.22265625
1845,-0.2421875,-1.58203125,-0.828125
1846,-0.3671875,-1.9453125,-0.3671875
1847,-0.39453125,-2.296875,0.109375
1848,-0.39453125,-2.5,0.51953125
1849,-0.48046875,-2.41796875,0.8828125
1850,-0.4921875,-2.22265625,0.984375
1851,-0.375,-1.96484375,0.7421875
1852,-0.2109375,-1.7265625,0.28515625
1853,-0.01171875,-1.59765625,-0.29296875
1854,0.24609375,-1.71875,-0.6953125
1855,0.59765625,-1.88671875,-0.73828125
1856,0.76171875,-1.91796875,-0.56640625
1857,0.6953125,-1.85546875,-0.30078125
1858,0.5859375,-1.75,0.015625
1859,0.4921875,-1.59375,0.30078125
1860,0.33984375,-1.47265625,0.48046875
1861,0.21484375,-1.38671875,0.48828125
1862,0.09375,-1.375,0.42578125
1863,0.0,-1.40234375,0.296875
1864,-0.07421875,-1.49609375,0.21875
1865,-0.12109375,-1.61328125,0.16015625
1866,-0.18359375,-1.75,0.1796875
1867,-0.2421875,-1.890625,0.2421875
1868,-0.2578125,-2.046875,0.34375
1869,-0.29296875,-2.17578125,0.4921875
1870,-0.328125,-2.28125,0.6328125
1871,-0.33203125,-2.35546875,0.73046875
1872,-0.28125,-2.36328125,0.7890625
1873,-0.1875,-2.3125,0.78125
1874,-0.04296875,-2.2578125,0.71484375
1875,0.0859375,-2.14453125,0.65625
1876,0.21875,-2.015625,0.5546875
1877,0.3125,-1.91796875,0.47265625
1878,0.359375,-1.78125,0.3671875
1879,0.37109375,-1.640625,0.2578125
1880,0.3125,-1.48046875,0.234375
1881,0.2265625,-1.33984375,0.234375
1882,0.12109375,-1.203125,0.26171875
1883,-0.00390625,-1.05859375,0.296875
1884,-0.15625,-0.87109375,0.2265625
1885,-0.29296875,-0.640625,0.1171875
1886,-0.37890625,-0.4296875,0.08203125
1887,-0.40234375,-0.24609375,0.109375
1888,-0.36328125,-0.03515625,0.12109375
1889,-0.28125,0.0625,0.15625
1890,-0.125,0.07421875,0.1953125
1891,-0.01953125,0.03515625,0.23046875
1892,0.0546875,0.00390625,0.25390625
1893,0.12109375,-0.046875,0.2578125
1894,0.16796875,-0.09765625,0.22265625
1895,0.21484375,-0.14453125,0.1875
1896,0.27734375,-0.1796875,0.16015625
1897,0.359375,-0.23046875,0.13671875
1898,0.43359375,-0.26171875,0.09765625
1899,0.47265625,-0.2890625,0.0703125
1900,0.52734375,-0.3203125,0.03515625
1901,0.57421875,-0.328125,0.00390625
1902,0.56640625,-0.35546875,-0.07421875
1903,0.59765625,-0.36328125,-0.109375
1904,0.53125,-0.3359375,-0.12890625
1905,0.46875,-0.30078125,-0.1484375
1906,0.34765625,-0.25,-0.171875
1907,0.25,-0.1796875,-0.1953125
1908,0.15234375,-0.09765625,-0.23046875
1909,0.04296875,-0.01171875,-0.2421875
1910,-0.046875,0.03515625,-0.265625
1911,-0.09375,0.08203125,-0.2890625
1912,-0.0703125,0.08203125,-0.37890625
1913,0.0390625,0.0,-0.55078125
1914,0.21875,-0.19921875,-0.8359375
1915,0.33203125,-0.37890625,-1.0546875
1916,0.359375,-0.578125,-1.2734375
1917,0.30859375,-0.86328125,-1.27734375
1918,0.23046875,-1.25,-0.9375
1919,-0.00390625,-1.66796875,-0.23828125
1920,-0.29296875,-1.94140625,0.56640625
1921,-0.4609375,-2.0234375,1.171875
1922,-0.44921875,-1.96875,1.375
1923,-0.18359375,-1.84375,1.33203125
1924,0.1953125,-1.75,1.16796875
1925,0.40234375,-1.66015625,0.94921875
1926,0.33984375,-1.546875,0.62109375
1927,0.20703125,-1.41015625,0.31640625
1928,0.00390625,-1.2890625,0.05078125
1929,-0.2421875,-1.265625,-0.19921875
1930,-0.42578125,-1.28125,-0.3203125
1931,-0.4375,-1.30078125,-0.2265625
1932,-0.49609375,-1.28125,-0.03515625
1933,-0.5859375,-1.2265625,0.14453125
1934,-0.62109375,-1.19140625,0.3203125
1935,-0.57421875,-1.19921875,0.4453125
1936,-0.46484375,-1.26171875,0.44140625
1937,-0.375,-1.37890625,0.44921875
1938,-0.29296875,-1.5234375,0.51171875
1939,-0.2421875,-1.76171875,0.640625
1940,-0.1328125,-2.015625,0.66796875
1941,-0.02734375,-2.2578125,0.68359375
1942,0.05078125,-2.46484375,0.703125
1943,0.11328125,-2.62109375,0.70703125
1944,0.1171875,-2.68359375,0.74609375
1945,0.13671875,-2.67578125,0.77734375
1946,0.1171875,-2.53515625,0.7734375
1947,0.0390625,-2.33984375,0.78515625
1948,-0.0546875,-2.109375,0.7890625
1949,-0.203125,-1.8203125,0.7265625
1950,-0.35546875,-1.53515625,0.65234375
1951,-0.47265625,-1.3125,0.55859375
1952,-0.56640625,-1.109375,0.41015625
1953,-0.64453125,-0.91796875,0.29296875
1954,-0.6875,-0.73046875,0.19921875
1955,-0.71875,-0.51953125,0.16015625
1956,-0.67578125,-0.390625,0.125
1957,-0.61328125,-0.34375,0.01953125
1958,-0.51171875,-0.26953125,-0.03515625
1959,-0.390625,-0.28515625,-0.125
1960,-0.2578125,-0.25,-0.125
1961,-0.15234375,-0.2265625,-0.08984375
1962,-0.08203125,-0.203125,-0.03125
1963,-0.046875,-0.1875,0.03515625
1964,-0.02734375,-0.1796875,0.12109375
1965,0.015625,-0.25,0.2109375
1966,0.0703125,-0.34765625,0.23046875
1967,0.03125,-0.43359375,0.26953125
1968,-0.015625,-0.484375,0.28515625
1969,-0.11328125,-0.46875,0.265625
1970,-0.15625,-0.46875,0.2890625
1971,-0.234375,-0.44140625,0.25390625
1972,-0.28125,-0.43359375,0.1875
1973,-0.3125,-0.46875,0.08203125
1974,-0.3125,-0.49609375,-0.03515625
1975,-0.3046875,-0.5,-0.12890625
1976,-0.26953125,-0.4375,-0.18359375
1977,-0.1796875,-0.38671875,-0.25
1978,-0.0859375,-0.31640625,-0.2734375
1979,-0.02734375,-0.26953125,-0.25390625
1980,0.015625,-0.21484375,-0.2421875
1981,0.05078125,-0.18359375,-0.16796875
1982,0.1015625,-0.1328125,-0.18359375
1983,0.17578125,-0.10546875,-0.203125
1984,0.1796875,-0.07421875,-0.19140625
1985,0.1953125,-0.08203125,-0.19140625
1986,0.0546875,-0.125,-0.24609375
1987,-0.171875,-0.19921875,-0.42578125
1988,-0.3828125,-0.30078125,-0.76171875
1989,-0.44921875,-0.55859375,-1.33203125
1990,-0.31640625,-0.88671875,-1.6171875
1991,-0.22265625,-1.29296875,-1.484375
1992,-0.3046875,-1.67578125,-0.953125
1993,-0.37890625,-1.99609375,-0.28125
1994,-0.4296875,-2.23828125,0.34765625
1995,-0.41796875,-2.2734375,0.83984375
1996,-0.49609375,-2.078125,1.12109375
1997,-0.4609375,-1.96484375,1.1640625
1998,-0.22265625,-1.890625,1.01953125
1999,0.0859375,-1.82421875,0.6640625
2000,0.51953125,-1.875,0.234375
2001,0.9765625,-2.02734375,-0.04296875
2002,1.21484375,-2.12109375,-0.19921875
2003,1.171875,-2.09375,-0.1484375
2004,1.0546875,-1.984375,0.14453125
2005,0.87890625,-1.8828125,0.41015625
2006,0.66796875,-1.73046875,0.56640625
2007,0.4921875,-1.58984375,0.56640625
2008,0.34375,-1.45703125,0.48828125
2009,0.2265625,-1.359375,0.3203125
2010,0.171875,-1.34375,0.234375
2011,0.10546875,-1.37109375,0.22265625
2012,0.01171875,-1.453125,0.265625
2013,-0.1171875,-1.51171875,0.36328125
2014,-0.296875,-1.6328125,0.51171875
2015,-0.4375,-1.7734375,0.6015625
2016,-0.546875,-1.90234375,0.71484375
2017,-0.63671875,-2.02734375,0.796875
2018,-0.7265625,-2.1171875,0.8515625
2019,-0.765625,-2.13671875,0.90625
2020,-0.7109375,-2.0859375,0.91015625
2021,-0.5234375,-2.01953125,0.8359375
2022,-0.2890625,-1.93359375,0.73046875
2023,-0.08984375,-1.84375,0.5625
2024,0.05859375,-1.734375,0.4375
2025,0.15234375,-1.62109375,0.3359375
2026,0.18359375,-1.4765625,0.28125
2027,0.21484375,-1.30078125,0.26171875
2028,0.16796875,-1.12890625,0.2578125
2029,0.11328125,-0.94921875,0.27734375
2030,0.0234375,-0.7734375,0.27734375
2031,-0.01953125,-0.60546875,0.26171875
2032,-0.125,-0.4140625,0.22265625
2033,-0.2109375,-0.171875,0.15625
2034,-0.23828125,0.0546875,0.1015625
2035,-0.24609375,0.234375,0.0625
2036,-0.19921875,0.34765625,0.0546875
2037,-0.13671875,0.3828125,0.03515625
2038,-0.078125,0.328125,0.0703125
2039,0.01171875,0.18359375,0.140625
2040,0.09375,0.046875,0.15234375
2041,0.1953125,-0.1015625,0.2265625
2042,0.265625,-0.24609375,0.21875
2043,0.34765625,-0.36328125,0.25
2044,0.44921875,-0.47265625,0.23046875
2045,0.54296875,-0.5234375,0.1953125
2046,0.6328125,-0.52734375,0.1171875
2047,0.69140625,-0.515625,0.01171875
2048,0.7109375,-0.46484375,-0.09765625
2049,0.640625,-0.37890625,-0.19140625
2050,0.55859375,-0.32421875,-0.24609375
2051,0.421875,-0.27734375,-0.265625
2052,0.2734375,-0.1953125,-0.29296875
2053,0.1328125,-0.1328125,-0.3203125
2054,-0.00390625,-0.04296875,-0.3203125
2055,-0.11328125,0.03125,-0.3125
2056,-0.171875,0.09375,-0.29296875
2057,-0.18359375,0.13671875,-0.27734375
2058,-0.140625,0.10546875,-0.2890625
2059,-0.0390625,0.01171875,-0.3984375
2060,0.1484375,-0.15625,-0.6015625
2061,0.33203125,-0.359375,-0.9453125
2062,0.49609375,-0.609375,-1.296875
2063,0.50390625,-0.99609375,-1.50390625
2064,0.5234375,-1.44921875,-1.25390625
2065,0.46484375,-1.95703125,-0.59375
2066,0.26171875,-2.2890625,0.1953125
2067,0.03515625,-2.3828125,0.88671875
2068,0.03515625,-2.2734375,1.34765625
2069,0.33203125,-2.15625,1.484375
2070,0.484375,-1.984375,1.296875
2071,0.3046875,-1.80078125,0.99609375
2072,-0.01171875,-1.66796875,0.5625
2073,-0.234375,-1.5625,0.13671875
2074,-0.421875,-1.5234375,-0.2109375
2075,-0.62890625,-1.4921875,-0.36328125
2076,-0.75390625,-1.43359375,-0.296875
2077,-0.8046875,-1.328125,-0.109375
2078,-0.84765625,-1.2421875,0.10546875
2079,-0.859375,-1.10546875,0.34765625
2080,-0.7734375,-1.0078125,0.453125
2081,-0.62890625,-1.0,0.4375
2082,-0.51171875,-1.07421875,0.48828125
2083,-0.4609375,-1.19921875,0.58203125
2084,-0.3828125,-1.37890625,0.640625
2085,-0.28515625,-1.62109375,0.69140625
2086,-0.1875,-1.84765625,0.72265625
2087,-0.125,-2.0703125,0.7578125
2088,-0.08984375,-2.296875,0.78515625
2089,-0.09375,-2.4140625,0.84375
2090,-0.07421875,-2.4609375,0.9140625
2091,-0.01171875,-2.43359375,0.875
2092,0.015625,-2.33203125,0.8828125
2093,0.01953125,-2.171875,0.80078125
2094,-0.0078125,-1.953125,0.75390625
2095,-0.109375,-1.73828125,0.671875
2096,-0.25,-1.5546875,0.59765625
2097,-0.390625,-1.375,0.515625
2098,-0.50390625,-1.26171875,0.390625
2099,-0.51171875,-1.1953125,0.2734375
2100,-0.546875,-1.05859375,0.2265625
2101,-0.50390625,-0.95703125,0.2421875
2102,-0.42578125,-0.87109375,0.234375
2103,-0.296875,-0.77734375,0.23046875
2104,-0.16796875,-0.703125,0.2265625
2105,-0.046875,-0.5859375,0.1640625
2106,0.0625,-0.41015625,0.08203125
2107,0.1484375,-0.24609375,0.01953125
2108,0.171875,-0.09375,-0.01953125
2109,0.1875,0.01171875,0.01171875
2110,0.19140625,0.03125,0.0546875
2111,0.12890625,0.01171875,0.10546875
2112,0.05078125,-0.09375,0.16015625
2113,0.00390625,-0.2265625,0.1953125
2114,-0.08984375,-0.34375,0.19140625
2115,-0.19140625,-0.45703125,0.1875
2116,-0.2734375,-0.49609375,0.21875
2117,-0.359375,-0.54296875,0.23046875
2118,-0.48046875,-0.5546875,0.20703125
2119,-0.51171875,-0.6015625,0.13671875
2120,-0.53125,-0.64453125,0.01953125
2121,-0.53125,-0.6484375,-0.08984375
2122,-0.4921875,-0.63671875,-0.17578125
2123,-0.4453125,-0.5859375,-0.19140625
2124,-0.38671875,-0.50390625,-0.1484375
2125,-0.28125,-0.3984375,-0.12890625
2126,-0.2265625,-0.25390625,-0.109375
2127,-0.14453125,-0.1328125,-0.10546875
2128,-0.0703125,-0.0234375,-0.08203125
2129,-0.02734375,0.03515625,-0.09765625
2130,0.0,0.05078125,-0.11328125
2131,0.0,0.0625,-0.17578125
2132,-0.1640625,0.01953125,-0.26171875
2133,-0.39453125,-0.06640625,-0.53515625
2134,-0.58984375,-0.19921875,-1.0
2135,-0.640625,-0.3984375,-1.625
2136,-0.421875,-0.8671875,-2.03515625
2137,-0.19921875,-1.375,-1.77734375
2138,-0.01171875,-1.92578125,-1.08203125
2139,0.109375,-2.41796875,-0.32421875
2140,0.1171875,-2.69921875,0.44140625
2141,-0.1796875,-2.55078125,1.125
2142,-0.3515625,-2.1484375,1.53125
2143,-0.296875,-1.921875,1.44140625
2144,-0.22265625,-1.64453125,1.0234375
2145,0.05859375,-1.50390625,0.4296875
2146,0.515625,-1.609375,-0.140625
2147,1.06640625,-1.80078125,-0.4375
2148,1.44140625,-1.9921875,-0.4453125
2149,1.35546875,-2.01171875,-0.21875
2150,1.1484375,-1.9453125,0.17578125
2151,0.9375,-1.85546875,0.4453125
2152,0.796875,-1.76171875,0.546875
2153,0.71484375,-1.65234375,0.48828125
2154,0.578125,-1.53515625,0.37890625
2155,0.40625,-1.48828125,0.25
2156,0.2734375,-1.4921875,0.1953125
2157,0.14453125,-1.5390625,0.26171875
2158,0.03515625,-1.59765625,0.3203125
2159,-0.140625,-1.68359375,0.37109375
2160,-0.30859375,-1.76171875,0.48046875
2161,-0.58984375,-1.8515625,0.58984375
2162,-0.7578125,-1.94921875,0.671875
2163,-0.90625,-2.0,0.703125
2164,-1.0,-2.08203125,0.7421875
2165,-0.984375,-2.09765625,0.78125
2166,-0.86328125,-2.0625,0.77734375
2167,-0.65234375,-1.98046875,0.74609375
2168,-0.421875,-1.88671875,0.61328125
2169,-0.16796875,-1.7578125,0.4921875
2170,0.08984375,-1.6171875,0.328125
2171,0.2734375,-1.3671875,0.16796875
2172,0.38671875,-1.140625,0.05859375
2173,0.4453125,-0.88671875,-0.0078125
2174,0.390625,-0.67578125,0.02734375
2175,0.32421875,-0.51171875,0.05078125
2176,0.203125,-0.36328125,0.08984375
2177,0.07421875,-0.2109375,0.16796875
2178,-0.02734375,-0.03515625,0.25
2179,-0.12890625,0.078125,0.25390625
2180,-0.1796875,0.16015625,0.2421875
2181,-0.1875,0.2265625,0.171875
2182,-0.1875,0.20703125,0.11328125
2183,-0.1640625,0.1484375,0.0703125
2184,-0.1328125,0.0390625,0.03125
2185,-0.0859375,-0.06640625,0.00390625
2186,-0.0546875,-0.18359375,0.0
2187,0.0078125,-0.28515625,0.04296875
2188,0.09765625,-0.38671875,0.1015625
2189,0.21484375,-0.4921875,0.18359375
2190,0.3359375,-0.5625,0.265625
2191,0.45703125,-0.6171875,0.2890625
2192,0.53125,-0.609375,0.26171875
2193,0.546875,-0.578125,0.19921875
2194,0.5,-0.51171875,0.09765625
2195,0.42578125,-0.43359375,0.02734375
2196,0.37890625,-0.3515625,-0.09765625
2197,0.34765625,-0.2578125,-0.23046875
2198,0.23046875,-0.1484375,-0.32421875
2199,0.125,-0.0234375,-0.40234375
2200,0.015625,0.0390625,-0.45703125
2201,-0.06640625,0.07421875,-0.48828125
2202,-0.1015625,0.0625,-0.5703125
2203,0.02734375,-0.0234375,-0.75390625
2204,0.296875,-0.22265625,-1.02734375
2205,0.5546875,-0.453125,-1.3203125
2206,0.71484375,-0.70703125,-1.58984375
2207,0.75,-1.0625,-1.52734375
2208,0.73046875,-1.59765625,-0.93359375
2209,0.5859375,-2.1640625,0.078125
2210,0.3828125,-2.6015625,1.17578125
2211,0.39453125,-2.5234375,1.6484375
2212,0.62890625,-2.37890625,1.53515625
2213,0.84375,-2.19921875,1.16015625
2214,0.84375,-2.1171875,0.625
2215,0.47265625,-2.05078125,0.0234375
2216,-0.06640625,-2.05859375,-0.38671875
2217,-0.63671875,-1.95703125,-0.4453125
2218,-1.08203125,-1.8046875,-0.34765625
2219,-1.29296875,-1.53125,-0.19921875
2220,-1.2890625,-1.25,0.03125
2221,-1.25390625,-1.0,0.23046875
2222,-1.13671875,-0.81640625,0.36328125
2223,-1.0,-0.7421875,0.4296875
2224,-0.828125,-0.78515625,0.390625
2225,-0.703125,-0.89453125,0.33984375
2226,-0.65234375,-1.046875,0.34765625
2227,-0.60546875,-1.28515625,0.390625
2228,-0.53125,-1.515625,0.47265625
2229,-0.37109375,-1.81640625,0.5234375
2230,-0.19921875,-2.1171875,0.609375
2231,-0.09375,-2.34765625,0.67578125
2232,-0.0546875,-2.51171875,0.71875
2233,-0.02734375,-2.62109375,0.76953125
2234,0.03515625,-2.66796875,0.8203125
2235,0.12890625,-2.61328125,0.83203125
2236,0.17578125,-2.41796875,0.76953125
2237,0.125,-2.1484375,0.73046875
2238,0.0390625,-1.82421875,0.73046875
2239,-0.0625,-1.58984375,0.65625
2240,-0.125,-1.42578125,0.51953125
2241,-0.2109375,-1.25,0.375
2242,-0.2421875,-1.09375,0.24609375
2243,-0.23046875,-0.984375,0.1484375
2244,-0.23046875,-0.828125,0.10546875
2245,-0.12890625,-0.7265625,0.09765625
2246,-0.06640625,-0.58203125,0.1484375
2247,0.0703125,-0.41796875,0.17578125
2248,0.13671875,-0.1796875,0.09765625
2249,0.20703125,0.078125,-0.0390625
2250,0.24609375,0.29296875,-0.12890625
2251,0.2578125,0.48828125,-0.12109375
2252,0.2265625,0.5390625,-0.17578125
2253,0.18359375,0.4375,-0.07421875
2254,0.125,0.2109375,0.08203125
2255,0.09375,-0.0703125,0.265625
2256,0.0078125,-0.328125,0.390625
2257,-0.08203125,-0.49609375,0.42578125
2258,-0.24609375,-0.5859375,0.39453125
2259,-0.39453125,-0.609375,0.328125
2260,-0.51953125,-0.5703125,0.24609375
2261,-0.61328125,-0.55859375,0.1875
2262,-0.69140625,-0.56640625,0.08203125
2263,-0.69140625,-0.60546875,-0.01953125
2264,-0.63671875,-0.6484375,-0.15234375
2265,-0.515625,-0.640625,-0.29296875
2266,-0.4140625,-0.609375,-0.34765625
2267,-0.28125,-0.54296875,-0.28125
2268,-0.18359375,-0.48046875,-0.24609375
2269,-0.0546875,-0.375,-0.2265625
2270,0.02734375,-0.2734375,-0.2265625
2271,0.1171875,-0.19921875,-0.16015625
2272,0.14453125,-0.1015625,-0.12109375
2273,0.09375,-0.07421875,-0.109375
2274,0.05078125,-0.04296875,-0.1328125
2275,0.03125,-0.046875,-0.18359375
2276,-0.0703125,-0.046875,-0.234375
2277,-0.26953125,-0.06640625,-0.3359375
2278,-0.51171875,-0.1640625,-0.58203125
2279,-0.7890625,-0.29296875,-1.06640625
2280,-0.8984375,-0.54296875,-1.62109375
2281,-0.8359375,-0.99609375,-2.0078125
2282,-0.63671875,-1.59765625,-1.83984375
2283,-0.34765625,-2.3125,-1.04296875
2284,-0.1640625,-2.7265625,-0.28515625
2285,-0.3359375,-2.84765625,0.37109375
2286,-0.453125,-2.71484375,1.015625
2287,-0.51171875,-2.4375,1.41015625
2288,-0.3046875,-2.26171875,1.33984375
2289,0.07421875,-2.125,0.84765625
2290,0.76171875,-2.07421875,0.2890625
2291,1.48046875,-2.18359375,-0.171875
2292,1.87890625,-2.3125,-0.41015625
2293,1.7734375,-2.29296875,-0.26953125
2294,1.53125,-2.1875,0.0390625
2295,1.265625,-2.0703125,0.3203125
2296,0.9765625,-1.90234375,0.48828125
2297,0.72265625,-1.71484375,0.52734375
2298,0.46484375,-1.54296875,0.48046875
2299,0.21484375,-1.421875,0.3828125
2300,0.04296875,-1.359375,0.33984375
2301,-0.07421875,-1.36328125,0.34765625
2302,-0.16796875,-1.3984375,0.38671875
2303,-0.27734375,-1.43359375,0.48046875
2304,-0.41796875,-1.5390625,0.578125
2305,-0.5234375,-1.65234375,0.65625
2306,-0.70703125,-1.765625,0.71484375
2307,-0.8515625,-1.87109375,0.796875
2308,-0.9453125,-1.984375,0.87890625
2309,-0.8984375,-2.0078125,0.9140625
2310,-0.765625,-1.90234375,0.89453125
2311,-0.58203125,-1.78515625,0.76953125
2312,-0.34765625,-1.67578125,0.6015625
2313,-0.0703125,-1.5703125,0.40625
2314,0.1953125,-1.42578125,0.265625
2315,0.37109375,-1.2265625,0.16796875
2316,0.453125,-1.02734375,0.1328125
2317,0.3984375,-0.7734375,0.04296875
2318,0.28515625,-0.56640625,0.03515625
2319,0.1875,-0.39453125,0.078125
2320,0.14453125,-0.23828125,0.10546875
2321,0.1171875,-0.04296875,0.0546875
2322,0.03515625,0.12109375,0.0234375
2323,0.01171875,0.25,0.046875
2324,-0.01953125,0.29296875,0.0703125
2325,-0.08203125,0.265625,0.109375
2326,-0.13671875,0.1796875,0.125
2327,-0.14453125,-0.00390625,0.140625
2328,-0.125,-0.21875,0.1640625
2329,-0.06640625,-0.3984375,0.14453125
2330,-0.0234375,-0.5234375,0.13671875
2331,0.0234375,-0.60546875,0.13671875
2332,0.05859375,-0.62890625,0.17578125
2333,0.1484375,-0.62890625,0.19921875
2334,0.23828125,-0.578125,0.13671875
2335,0.3125,-0.484375,0.08203125
2336,0.359375,-0.38671875,0.015625
2337,0.41015625,-0.30078125,-0.0546875
2338,0.390625,-0.203125,-0.11328125
2339,0.3203125,-0.125,-0.21484375
2340,0.24609375,-0.07421875,-0.2578125
2341,0.1796875,0.00390625,-0.2578125
2342,0.1015625,0.07421875,-0.2734375
2343,0.0703125,0.10546875,-0.31640625
2344,0.0546875,0.12109375,-0.3984375
2345,0.0703125,0.109375,-0.51171875
2346,0.2109375,0.03515625,-0.6953125
2347,0.4296875,-0.140625,-0.953125
2348,0.73828125,-0.40625,-1.28125
2349,0.94921875,-0.671875,-1.66796875
2350,1.015625,-1.00390625,-1.8671875
2351,1.09765625,-1.546875,-1.47265625
2352,0.96875,-2.26171875,-0.39453125
2353,0.5859375,-2.765625,0.80078125
2354,0.32421875,-2.87109375,1.79296875
2355,0.3828125,-2.5625,2.18359375
2356,0.69140625,-2.1796875,1.84375
2357,0.69140625,-1.94140625,1.2265625
2358,0.4453125,-1.72265625,0.484375
2359,0.0390625,-1.75,-0.17578125
2360,-0.50390625,-1.75,-0.5234375
2361,-1.12890625,-1.6953125,-0.5390625
2362,-1.515625,-1.55078125,-0.296875
2363,-1.5625,-1.40625,-0.01171875
2364,-1.4921875,-1.19921875,0.12890625
2365,-1.40234375,-1.06640625,0.30859375
2366,-1.3828125,-0.9375,0.46875
2367,-1.26171875,-0.94140625,0.51171875
2368,-1.09765625,-1.0,0.51953125
2369,-0.9453125,-1.15625,0.47265625
2370,-0.8203125,-1.36328125,0.4609375
2371,-0.6953125,-1.58984375,0.515625
2372,-0.4921875,-1.875,0.59375
2373,-0.2578125,-2.1953125,0.66015625
2374,-0.109375,-2.421875,0.69921875
2375,-0.05859375,-2.55078125,0.76953125
2376,-0.00390625,-2.65625,0.859375
2377,0.0625,-2.7109375,0.875
2378,0.13671875,-2.703125,0.88671875
2379,0.25390625,-2.57421875,0.86328125
2380,0.30078125,-2.3515625,0.828125
2381,0.2421875,-1.94921875,0.73046875
2382,0.16015625,-1.67578125,0.59765625
2383,0.08203125,-1.46875,0.48046875
2384,0.01171875,-1.265625,0.33203125
2385,-0.07421875,-1.0703125,0.1796875
2386,-0.1796875,-0.8828125,0.09765625
2387,-0.21484375,-0.75,0.05859375
2388,-0.22265625,-0.57421875,0.03125
2389,-0.15625,-0.375,0.00390625
2390,-0.09375,-0.1328125,-0.04296875
2391,-0.01953125,0.12890625,-0.08203125
2392,0.06640625,0.3125,-0.1171875
2393,0.171875,0.38671875,-0.16015625
2394,0.2421875,0.38671875,-0.12890625
2395,0.25390625,0.28125,-0.01953125
2396,0.28125,0.1015625,0.06640625
2397,0.2578125,-0.1328125,0.14453125
2398,0.21484375,-0.3203125,0.21484375
2399,0.16796875,-0.52734375,0.23046875
2400,0.0625,-0.5859375,0.25
2401,-0.05078125,-0.58984375,0.26171875
2402,-0.1640625,-0.53515625,0.2890625
2403,-0.265625,-0.46875,0.3203125
2404,-0.3515625,-0.453125,0.3046875
2405,-0.46484375,-0.421875,0.234375
2406,-0.51171875,-0.48828125,0.08984375
2407,-0.48046875,-0.52734375,-0.0859375
2408,-0.4375,-0.5546875,-0.171875
2409,-0.3671875,-0.546875,-0.2109375
2410,-0.296875,-0.5234375,-0.23046875
2411,-0.25390625,-0.4453125,-0.265625
2412,-0.16796875,-0.34375,-0.2578125
2413,-0.08984375,-0.23046875,-0.2109375
2414,-0.05078125,-0.13671875,-0.171875
2415,-0.04296875,-0.0546875,-0.1328125
2416,-0.0703125,0.00390625,-0.1640625
2417,-0.05078125,0.0078125,-0.1953125
2418,-0.08203125,0.01171875,-0.21875
2419,-0.23828125,0.0,-0.2421875
2420,-0.44921875,-0.07421875,-0.3671875
2421,-0.66015625,-0.1875,-0.67578125
2422,-0.83203125,-0.34765625,-1.171875
2423,-0.83203125,-0.66796875,-1.6640625
2424,-0.7578125,-1.2109375,-1.7734375
2425,-0.609375,-1.88671875,-1.296875
2426,-0.47265625,-2.5078125,-0.6640625
2427,-0.32421875,-2.94921875,-0.07421875
2428,-0.37890625,-2.99609375,0.4453125
2429,-0.3203125,-2.76953125,1.11328125
2430,-0.3125,-2.31640625,1.40234375
2431,-0.05859375,-2.13671875,1.0546875
2432,0.4296875,-2.015625,0.60546875
2433,1.140625,-2.03515625,0.17578125
2434,1.71875,-2.19140625,-0.12890625
2435,1.84375,-2.28125,-0.22265625
2436,1.515625,-2.16015625,0.04296875
2437,1.25390625,-2.046875,0.34375
2438,0.97265625,-1.9609375,0.4765625
2439,0.74609375,-1.84375,0.46875
2440,0.55859375,-1.7109375,0.359375
2441,0.328125,-1.61328125,0.2109375
2442,0.0859375,-1.55078125,0.140625
2443,-0.08203125,-1.54296875,0.19140625
2444,-0.1640625,-1.5,0.296875
2445,-0.2421875,-1.46484375,0.44140625
2446,-0.3359375,-1.44140625,0.515625
2447,-0.4609375,-1.44140625,0.54296875
2448,-0.59765625,-1.48828125,0.59375
2449,-0.71484375,-1.57421875,0.6328125
2450,-0.76171875,-1.625,0.66796875
2451,-0.73046875,-1.7421875,0.69140625
2452,-0.62890625,-1.765625,0.66015625
2453,-0.45703125,-1.75,0.58984375
2454,-0.23828125,-1.65625,0.4609375
2455,-0.0234375,-1.62890625,0.32421875
2456,0.19140625,-1.546875,0.1640625
2457,0.28515625,-1.3828125,0.0234375
2458,0.30078125,-1.25,0.04296875
2459,0.25,-1.08984375,0.11328125
2460,0.125,-0.96875,0.17578125
2461,0.015625,-0.84375,0.16015625
2462,-0.0546875,-0.6953125,0.1171875
2463,-0.06640625,-0.4921875,0.078125
2464,-0.109375,-0.265625,0.0234375
2465,-0.23828125,-0.0625,0.015625
2466,-0.33984375,0.08984375,0.05078125
2467,-0.40625,0.18359375,0.0859375
2468,-0.38671875,0.18359375,0.109375
2469,-0.32421875,0.05859375,0.1328125
2470,-0.234375,-0.1171875,0.14453125
2471,-0.15234375,-0.2734375,0.1484375
2472,-0.109375,-0.390625,0.15234375
2473,-0.07421875,-0.4921875,0.17578125
2474,0.00390625,-0.5234375,0.17578125
2475,0.125,-0.56640625,0.18359375
2476,0.21484375,-0.55078125,0.16015625
2477,0.31640625,-0.51171875,0.13671875
2478,0.41796875,-0.47265625,0.1015625
2479,0.5,-0.375,0.046875
2480,0.5078125,-0.28515625,-0.0234375
2481,0.51171875,-0.1953125,-0.06640625
2482,0.46484375,-0.1171875,-0.12890625
2483,0.41796875,-0.01953125,-0.1640625
2484,0.31640625,0.0859375,-0.17578125
2485,0.234375,0.203125,-0.1953125
2486,0.12890625,0.30078125,-0.21484375
2487,0.04296875,0.34375,-0.25
2488,0.0,0.3828125,-0.25390625
2489,0.00390625,0.359375,-0.34765625
2490,0.12109375,0.25390625,-0.51171875
2491,0.3671875,0.01171875,-0.80078125
2492,0.6640625,-0.2734375,-1.1953125
2493,0.8359375,-0.578125,-1.69140625
2494,0.89453125,-0.93359375,-1.97265625
2495,0.921875,-1.49609375,-1.58984375
2496,0.7890625,-2.1328125,-0.50390625
2497,0.453125,-2.58203125,0.6640625
2498,0.19921875,-2.69140625,1.53125
2499,0.32421875,-2.5625,1.8515625
2500,0.66796875,-2.43359375,1.66796875
2501,0.7890625,-2.3203125,1.1953125
2502,0.5625,-2.2578125,0.66796875
2503,0.18359375,-2.296875,0.1484375
2504,-0.41015625,-2.328125,-0.1640625
2505,-0.95703125,-2.24609375,-0.1796875
2506,-1.49609375,-2.03125,0.0078125
2507,-1.80859375,-1.72265625,0.36328125
2508,-1.8125,-1.47265625,0.7109375
2509,-1.79296875,-1.2578125,0.84765625
2510,-1.6171875,-1.09765625,0.87109375
2511,-1.27734375,-1.0859375,0.73828125
2512,-1.01171875,-1.17578125,0.58203125
2513,-0.91796875,-1.2890625,0.453125
2514,-0.85546875,-1.55859375,0.4140625
2515,-0.7265625,-1.7734375,0.46484375
2516,-0.515625,-1.99609375,0.515625
2517,-0.296875,-2.20703125,0.5703125
2518,-0.0625,-2.3515625,0.61328125
2519,0.07421875,-2.44921875,0.65234375
2520,0.14453125,-2.48046875,0.7421875
2521,0.24609375,-2.4609375,0.81640625
2522,0.36328125,-2.40625,0.8359375
2523,0.484375,-2.2578125,0.86328125
2524,0.4921875,-2.00390625,0.7890625
2525,0.44140625,-1.75,0.69140625
2526,0.35546875,-1.50390625,0.5625
2527,0.21875,-1.26171875,0.3984375
2528,0.0703125,-1.04296875,0.23828125
2529,-0.109375,-0.80078125,0.0546875
2530,-0.1484375,-0.6328125,0.00390625
2531,-0.1015625,-0.5234375,-0.05859375
2532,-0.00390625,-0.43359375,-0.03125
2533,0.0703125,-0.3203125,0.0078125
2534,0.1171875,-0.1875,0.05859375
2535,0.140625,-0.0078125,0.046875
2536,0.1484375,0.171875,-0.0234375
2537,0.1875,0.28515625,-0.10546875
2538,0.22265625,0.34375,-0.12890625
2539,0.2578125,0.3125,-0.0859375
2540,0.25,0.22265625,-0.0078125
2541,0.21875,0.00390625,0.11328125
2542,0.1875,-0.25390625,0.27734375
2543,0.06640625,-0.4296875,0.3984375
2544,-0.0625,-0.5078125,0.46875
2545,-0.21484375,-0.55078125,0.46875
2546,-0.359375,-0.52734375,0.4375
2547,-0.50390625,-0.49609375,0.40234375
2548,-0.609375,-0.47265625,0.359375
2549,-0.71484375,-0.43359375,0.28515625
2550,-0.7421875,-0.453125,0.19921875
2551,-0.70703125,-0.47265625,0.01953125
2552,-0.6171875,-0.50390625,-0.09765625
2553,-0.4921875,-0.52734375,-0.125
2554,-0.3828125,-0.55078125,-0.15234375
2555,-0.25390625,-0.44921875,-0.2265625
2556,-0.15625,-0.37890625,-0.23046875
2557,-0.0703125,-0.265625,-0.1875
2558,-0.03515625,-0.16796875,-0.15234375
2559,-0.0234375,-0.07421875,-0.1328125
2560,-0.07421875,-0.01171875,-0.140625
2561,-0.109375,0.03515625,-0.17578125
2562,-0.1640625,0.0546875,-0.2265625
2563,-0.296875,0.0859375,-0.25390625
2564,-0.5234375,0.03125,-0.41796875
2565,-0.80859375,-0.09375,-0.8125
2566,-1.02734375,-0.32421875,-1.390625
2567,-1.046875,-0.65234375,-1.94140625
2568,-0.87890625,-1.17578125,-2.08203125
2569,-0.5859375,-1.76171875,-1.52734375
2570,-0.39453125,-2.32421875,-0.82421875
2571,-0.21875,-2.74609375,-0.15234375
2572,-0.23828125,-2.8984375,0.48828125
2573,-0.28515625,-2.78515625,1.03125
2574,-0.3203125,-2.51171875,1.26171875
2575,-0.24609375,-2.16796875,0.98828125
2576,0.046875,-1.99609375,0.48828125
2577,0.60546875,-1.97265625,-0.07421875
2578,1.453125,-2.109375,-0.484375
2579,1.9921875,-2.2578125,-0.52734375
2580,1.953125,-2.3125,-0.33203125
2581,1.59375,-2.2109375,-0.03125
2582,1.25390625,-2.12109375,0.2578125
2583,0.9765625,-2.0390625,0.4375
2584,0.7421875,-1.9609375,0.49609375
2585,0.55078125,-1.87890625,0.47265625
2586,0.33984375,-1.80078125,0.3984375
2587,0.109375,-1.7421875,0.34765625
2588,-0.0546875,-1.6796875,0.36328125
2589,-0.16796875,-1.69140625,0.3828125
2590,-0.33984375,-1.6953125,0.4296875
2591,-0.56640625,-1.70703125,0.48046875
2592,-0.7734375,-1.7421875,0.5390625
2593,-0.94140625,-1.734375,0.6171875
2594,-1.046875,-1.7578125,0.66015625
2595,-1.05859375,-1.80078125,0.7421875
2596,-0.9765625,-1.859375,0.734375
2597,-0.796875,-1.86328125,0.6640625
2598,-0.5625,-1.8203125,0.60546875
2599,-0.26953125,-1.7421875,0.50390625
2600,-0.00390625,-1.62890625,0.328125
2601,0.2265625,-1.515625,0.203125
2602,0.40625,-1.31640625,0.04296875
2603,0.44140625,-1.12890625,0.02734375
2604,0.37890625,-0.91796875,0.05078125
2605,0.296875,-0.7421875,0.09375
2606,0.1953125,-0.55078125,0.05078125
2607,0.11328125,-0.33203125,-0.0078125
2608,-0.00390625,-0.07421875,-0.07421875
2609,-0.109375,0.15625,-0.0859375
2610,-0.1640625,0.36328125,-0.078125
2611,-0.2421875,0.51953125,-0.06640625
2612,-0.3046875,0.5546875,-0.05859375
2613,-0.296875,0.48046875,0.0078125
2614,-0.2265625,0.296875,0.03515625
2615,-0.1015625,0.1015625,0.05078125
2616,-0.03125,-0.08984375,0.11328125
2617,-0.00390625,-0.28125,0.1171875
2618,0.01171875,-0.43359375,0.15625
2619,0.08203125,-0.56640625,0.234375
2620,0.1640625,-0.64453125,0.3203125
2621,0.27734375,-0.6875,0.35546875
2622,0.3984375,-0.68359375,0.3359375
2623,0.50390625,-0.66015625,0.26953125
2624,0.5625,-0.5625,0.203125
2625,0.54296875,-0.45703125,0.12890625
2626,0.515625,-0.34375,0.03125
2627,0.43359375,-0.22265625,-0.0625
2628,0.3203125,-0.1015625,-0.1875
2629,0.18359375,-0.015625,-0.29296875
2630,0.04296875,0.01953125,-0.34765625
2631,-0.06640625,0.03515625,-0.41015625
2632,-0.1328125,0.0625,-0.453125
2633,-0.08203125,0.04296875,-0.484375
2634,0.10546875,-0.046875,-0.67578125
2635,0.44140625,-0.25,-0.9609375
2636,0.71875,-0.41796875,-1.28515625
2637,0.85546875,-0.58984375,-1.6796875
2638,0.875,-0.87109375,-1.8828125
2639,0.87109375,-1.3515625,-1.5703125
2640,0.77734375,-2.05859375,-0.62890625
2641,0.5390625,-2.7109375,0.45703125
2642,0.37890625,-3.0234375,1.44140625
2643,0.37109375,-2.8984375,1.98828125
2644,0.5390625,-2.6875,1.90234375
2645,0.58984375,-2.42578125,1.5703125
2646,0.41796875,-2.0703125,1.02734375
2647,0.05078125,-1.859375,0.36328125
2648,-0.44921875,-1.7421875,-0.17578125
2649,-1.1328125,-1.62109375,-0.5234375
2650,-1.55078125,-1.58984375,-0.58984375
2651,-1.37109375,-1.5625,-0.37109375
2652,-1.19140625,-1.46484375,-0.18359375
2653,-1.09375,-1.31640625,0.0625
2654,-1.04296875,-1.1484375,0.31640625
2655,-0.9453125,-1.0546875,0.5078125
2656,-0.83203125,-1.0234375,0.53515625
2657,-0.734375,-1.10546875,0.52734375
2658,-0.63671875,-1.24609375,0.55859375
2659,-0.48828125,-1.4140625,0.59765625
2660,-0.296875,-1.62109375,0.58203125
2661,-0.0390625,-1.87109375,0.5390625
2662,0.08984375,-2.10546875,0.53125
2663,0.16796875,-2.29296875,0.52734375
2664,0.2421875,-2.49609375,0.6171875
2665,0.27734375,-2.6484375,0.74609375
2666,0.30859375,-2.7265625,0.87890625
2667,0.31640625,-2.703125,0.98828125
2668,0.2265625,-2.51953125,0.9765625
2669,0.08203125,-2.26953125,0.9921875
2670,-0.00390625,-2.0234375,0.9296875
2671,-0.08203125,-1.78515625,0.734375
2672,-0.14453125,-1.546875,0.51953125
2673,-0.1640625,-1.26953125,0.29296875
2674,-0.1796875,-0.98828125,0.19140625
2675,-0.08984375,-0.69140625,0.140625
2676,0.046875,-0.47265625,0.12109375
2677,0.19140625,-0.2578125,0.05859375
2678,0.296875,-0.04296875,-0.01953125
2679,0.3515625,0.2109375,-0.11328125
2680,0.3203125,0.4453125,-0.2109375
2681,0.328125,0.63671875,-0.21875
2682,0.31640625,0.7109375,-0.25390625
2683,0.296875,0.625,-0.15625
2684,0.19921875,0.46484375,0.03125
2685,0.05078125,0.27734375,0.2265625
2686,-0.046875,0.03125,0.375
2687,-0.1875,-0.19921875,0.421875
2688,-0.34375,-0.2890625,0.4296875
2689,-0.4765625,-0.32421875,0.3828125
2690,-0.58203125,-0.36328125,0.2890625
2691,-0.6875,-0.40234375,0.21484375
2692,-0.77734375,-0.42578125,0.11328125
2693,-0.80078125,-0.45703125,0.0234375
2694,-0.80078125,-0.4921875,-0.0703125
2695,-0.73828125,-0.5,-0.1640625
2696,-0.65625,-0.49609375,-0.25
2697,-0.50390625,-0.5,-0.34765625
2698,-0.3671875,-0.5078125,-0.3515625
2699,-0.19140625,-0.4921875,-0.3046875
2700,-0.03125,-0.4609375,-0.26171875
2701,0.0859375,-0.4140625,-0.22265625
2702,0.15625,-0.37109375,-0.1484375
2703,0.16015625,-0.3046875,-0.1171875
2704,0.09375,-0.2421875,-0.08984375
2705,0.046875,-0.20703125,-0.1015625
2706,0.0,-0.1875,-0.1796875
2707,-0.11328125,-0.1640625,-0.26171875
2708,-0.26171875,-0.2109375,-0.40625
2709,-0.4609375,-0.30859375,-0.69140625
2710,-0.64453125,-0.4609375,-1.125
2711,-0.69921875,-0.671875,-1.63671875
2712,-0.5625,-1.05078125,-1.92578125
2713,-0.35546875,-1.58203125,-1.66015625
2714,-0.234375,-2.109375,-1.109375
2715,-0.10546875,-2.5703125,-0.55078125
2716,-0.140625,-2.8828125,0.046875
2717,-0.3671875,-2.90625,0.796875
2718,-0.5234375,-2.64453125,1.515625
2719,-0.46875,-2.48046875,1.54296875
2720,-0.18359375,-2.3046875,1.05859375
2721,0.5390625,-2.18359375,0.51171875
2722,1.35546875,-2.28125,-0.015625
2723,1.765625,-2.40625,-0.37890625
2724,1.6171875,-2.375,-0.25
2725,1.30859375,-2.2109375,0.12109375
2726,0.99609375,-2.0703125,0.41015625
2727,0.75390625,-1.96484375,0.51171875
2728,0.61328125,-1.86328125,0.44140625
2729,0.5078125,-1.7890625,0.28125
2730,0.27734375,-1.71875,0.22265625
2731,-0.01171875,-1.62109375,0.2421875
2732,-0.203125,-1.546875,0.2890625
2733,-0.296875,-1.51953125,0.3984375
2734,-0.4140625,-1.5,0.546875
2735,-0.51171875,-1.5078125,0.671875
2736,-0.6484375,-1.54296875,0.75390625
2737,-0.80078125,-1.65234375,0.8125
2738,-0.90234375,-1.7734375,0.8828125
2739,-0.90234375,-1.94921875,0.90625
2740,-0.76953125,-2.06640625,0.94140625
2741,-0.53125,-2.02734375,0.84765625
2742,-0.265625,-1.95703125,0.7890625
2743,-0.046875,-1.84375,0.62890625
2744,0.16015625,-1.74609375,0.43359375
2745,0.3203125,-1.6171875,0.3046875
2746,0.37890625,-1.48046875,0.2734375
2747,0.38671875,-1.25390625,0.296875
2748,0.2109375,-0.96875,0.35546875
2749,0.00390625,-0.77734375,0.328125
2750,-0.140625,-0.62109375,0.23046875
2751,-0.23828125,-0.41796875,0.125
2752,-0.2890625,-0.1953125,0.01171875
2753,-0.28125,0.02734375,-0.0390625
2754,-0.3515625,0.21875,-0.078125
2755,-0.37890625,0.3359375,-0.0546875
2756,-0.40625,0.33984375,-0.06640625
2757,-0.37890625,0.2109375,-0.05078125
2758,-0.2890625,0.01953125,-0.0078125
2759,-0.23046875,-0.16796875,-0.01171875
2760,-0.15625,-0.2890625,-0.015625
2761,-0.08984375,-0.35546875,-0.0078125
2762,-0.00390625,-0.37109375,0.0
2763,0.0703125,-0.37890625,0.00390625
2764,0.1328125,-0.3359375,0.015625
2765,0.1640625,-0.3046875,0.07421875
2766,0.15234375,-0.24609375,0.05859375
2767,0.1953125,-0.1640625,0.015625
2768,0.1640625,-0.09375,-0.015625
2769,0.1953125,0.0,-0.08203125
2770,0.17578125,0.0703125,-0.16015625
2771,0.18359375,0.1328125,-0.21484375
2772,0.18359375,0.203125,-0.26953125
2773,0.19921875,0.25390625,-0.29296875
2774,0.19140625,0.2890625,-0.29296875
2775,0.1875,0.31640625,-0.2578125
2776,0.2109375,0.31640625,-0.203125
2777,0.26953125,0.3203125,-0.1640625
2778,0.38671875,0.25390625,-0.19140625
2779,0.5625,0.125,-0.3125
2780,0.71484375,-0.07421875,-0.4765625
2781,0.8515625,-0.3125,-0.7109375
2782,0.984375,-0.5859375,-0.9765625
2783,1.05078125,-0.87890625,-1.28125
2784,1.015625,-1.3359375,-1.40625
2785,0.9375,-1.9921875,-0.9296875
2786,0.890625,-2.73828125,-0.03515625
2787,0.828125,-3.390625,0.890625
2788,0.78125,-3.73828125,1.546875
2789,0.421875,-3.60546875,1.71484375
2790,0.16796875,-3.1875,1.5078125
2791,-0.1953125,-2.81640625,1.17578125
2792,-0.5703125,-2.45703125,0.73046875
2793,-0.796875,-2.078125,0.23046875
2794,-0.99609375,-1.734375,-0.04296875
2795,-1.25390625,-1.47265625,-0.09375
2796,-1.44140625,-1.2890625,0.125
2797,-1.5234375,-1.078125,0.48828125
2798,-1.4453125,-0.94140625,0.54296875
2799,-1.2421875,-0.81640625,0.53125
2800,-1.07421875,-0.73828125,0.55859375
2801,-0.91796875,-0.66796875,0.5625
2802,-0.67578125,-0.75390625,0.5546875
2803,-0.46484375,-0.87890625,0.5234375
2804,-0.29296875,-1.015625,0.484375
2805,-0.22265625,-1.17578125,0.5234375
2806,-0.18359375,-1.3671875,0.62890625
2807,-0.109375,-1.5703125,0.68359375
2808,0.00390625,-1.75390625,0.66015625
2809,0.0859375,-1.921875,0.609375
2810,0.14453125,-2.01171875,0.609375
2811,0.14453125,-2.05078125,0.6484375
2812,0.18359375,-2.0625,0.65625
2813,0.17578125,-1.95703125,0.5625
2814,0.1328125,-1.81640625,0.45703125
2815,0.01171875,-1.70703125,0.41015625
2816,-0.20703125,-1.578125,0.48828125
2817,-0.42578125,-1.50390625,0.53515625
2818,-0.58203125,-1.44140625,0.54296875
2819,-0.6015625,-1.4140625,0.5546875
2820,-0.58984375,-1.37109375,0.546875
2821,-0.5234375,-1.265625,0.48046875
2822,-0.40625,-1.2109375,0.42578125
2823,-0.2421875,-1.09375,0.390625
2824,-0.10546875,-0.9296875,0.31640625
2825,0.03515625,-0.70703125,0.18359375
2826,0.18359375,-0.4453125,0.03125
2827,0.28515625,-0.15625,-0.09375
2828,0.29296875,0.09375,-0.1015625
2829,0.24609375,0.30078125,-0.02734375
2830,0.1796875,0.3671875,0.0703125
2831,0.0703125,0.30859375,0.140625
2832,0.06640625,0.18359375,0.26953125
2833,0.0,0.05078125,0.3125
2834,-0.0546875,-0.09375,0.3125
2835,-0.1171875,-0.2109375,0.26171875
2836,-0.19140625,-0.29296875,0.23046875
2837,-0.28125,-0.3515625,0.23046875
2838,-0.3671875,-0.3671875,0.234375
2839,-0.4375,-0.36328125,0.20703125
2840,-0.46875,-0.35546875,0.12109375
2841,-0.453125,-0.33203125,0.02734375
2842,-0.390625,-0.3515625,-0.10546875
2843,-0.34375,-0.3671875,-0.1484375
2844,-0.2578125,-0.39453125,-0.09765625
2845,-0.16796875,-0.37890625,-0.03125
2846,-0.09375,-0.3671875,0.0
2847,-0.01953125,-0.31640625,0.05078125
2848,0.01953125,-0.25390625,0.10546875
2849,0.05859375,-0.22265625,0.15234375
2850,0.05859375,-0.19921875,0.171875
2851,0.01171875,-0.1796875,0.09765625
2852,-0.13671875,-0.16796875,-0.1171875
2853,-0.39453125,-0.21484375,-0.41796875
2854,-0.65625,-0.29296875,-0.97265625
2855,-0.8046875,-0.4375,-1.75
2856,-0.78125,-0.796875,-2.3671875
2857,-0.73046875,-1.40625,-2.3203125
2858,-0.59375,-2.12109375,-1.6015625
2859,-0.3984375,-2.87109375,-0.56640625
2860,-0.53125,-3.375,0.48046875
2861,-0.81640625,-3.34375,1.4296875
2862,-0.84765625,-2.9609375,1.85546875
2863,-0.703125,-2.53125,1.47265625
2864,-0.453125,-2.2734375,0.7578125
2865,-0.05859375,-2.1328125,-0.0703125
2866,0.62890625,-2.17578125,-0.6796875
2867,1.37890625,-2.24609375,-0.8671875
2868,1.87109375,-2.2109375,-0.59765625
2869,1.76171875,-1.984375,-0.109375
2870,1.42578125,-1.65234375,0.3671875
2871,1.25,-1.5078125,0.55859375
2872,1.16796875,-1.43359375,0.515625
2873,1.078125,-1.375,0.3671875
2874,0.93359375,-1.33203125,0.20703125
2875,0.734375,-1.29296875,0.125
2876,0.5546875,-1.3125,0.06640625
2877,0.37890625,-1.3671875,0.05859375
2878,0.21484375,-1.390625,0.1015625
2879,0.0546875,-1.46875,0.140625
2880,-0.11328125,-1.5625,0.25
2881,-0.33984375,-1.671875,0.35546875
2882,-0.55859375,-1.80859375,0.4765625
2883,-0.71484375,-1.97265625,0.51953125
2884,-0.84765625,-2.12890625,0.6015625
2885,-0.890625,-2.2109375,0.69921875
2886,-0.91015625,-2.25390625,0.6953125
2887,-0.8671875,-2.23046875,0.64453125
2888,-0.75,-2.10546875,0.6015625
2889,-0.58984375,-1.96875,0.5390625
2890,-0.4765625,-1.8828125,0.5078125
2891,-0.375,-1.68359375,0.40234375
2892,-0.265625,-1.4296875,0.2421875
2893,-0.19921875,-1.1875,0.19140625
2894,-0.16015625,-0.96875,0.17578125
2895,-0.19140625,-0.67578125,0.10546875
2896,-0.2421875,-0.4296875,0.015625
2897,-0.3046875,-0.15625,-0.015625
2898,-0.38671875,0.09375,0.00390625
2899,-0.4140625,0.33203125,0.0703125
2900,-0.42578125,0.51953125,0.06640625
2901,-0.375,0.609375,0.03125
2902,-0.3046875,0.625,0.078125
2903,-0.19140625,0.49609375,0.15625
2904,-0.046875,0.34765625,0.21875
2905,0.03125,0.19140625,0.19140625
2906,0.10546875,0.02734375,0.1484375
2907,0.23828125,-0.10546875,0.12109375
2908,0.3515625,-0.2265625,0.09375
2909,0.43359375,-0.3125,0.08203125
2910,0.546875,-0.38671875,0.08203125
2911,0.671875,-0.4609375,0.0546875
2912,0.75,-0.49609375,0.04296875
2913,0.7578125,-0.51953125,0.01953125
2914,0.7265625,-0.53515625,0.0078125
2915,0.63671875,-0.546875,0.0078125
2916,0.5,-0.5078125,-0.015625
2917,0.3671875,-0.4453125,-0.078125
2918,0.1796875,-0.3671875,-0.15234375
2919,0.00390625,-0.23046875,-0.1953125
2920,-0.08984375,-0.1328125,-0.22265625
2921,-0.1328125,-0.01953125,-0.26953125
2922,-0.1328125,0.02734375,-0.28515625
2923,-0.0546875,0.00390625,-0.3359375
2924,0.125,-0.09375,-0.4609375
2925,0.40234375,-0.2578125,-0.6796875
2926,0.67578125,-0.48046875,-1.015625
2927,0.84765625,-0.68359375,-1.4453125
2928,0.91796875,-0.9765625,-1.73046875
2929,0.9921875,-1.4609375,-1.59375
2930,0.9609375,-2.10546875,-0.8125
2931,0.73046875,-2.6171875,0.21484375
2932,0.55078125,-2.7421875,1.01953125
2933,0.75,-2.7265625,1.4609375
2934,0.90625,-2.53515625,1.44140625
2935,0.8203125,-2.3359375,1.08203125
2936,0.48828125,-2.12890625,0.578125
2937,0.0234375,-2.00390625,0.03515625
2938,-0.46484375,-1.87109375,-0.28515625
2939,-0.88671875,-1.73828125,-0.4453125
2940,-1.15234375,-1.5859375,-0.34375
2941,-1.31640625,-1.37109375,-0.1640625
2942,-1.2265625,-1.203125,0.0390625
2943,-1.0546875,-1.0234375,0.26171875
2944,-0.984375,-0.88671875,0.3828125
2945,-0.86328125,-0.8671875,0.41796875
2946,-0.73828125,-0.94140625,0.37890625
2947,-0.6796875,-1.09375,0.40625
2948,-0.66796875,-1.3125,0.47265625
2949,-0.62890625,-1.57421875,0.546875
2950,-0.51953125,-1.83203125,0.625
2951,-0.40234375,-2.07421875,0.65234375
2952,-0.2734375,-2.29296875,0.671875
2953,-0.18359375,-2.46875,0.66796875
2954,-0.13671875,-2.55859375,0.69140625
2955,-0.05859375,-2.58984375,0.74609375
2956,0.0703125,-2.5625,0.73046875
2957,0.19921875,-2.453125,0.71875
2958,0.2734375,-2.22265625,0.67578125
2959,0.2734375,-1.94921875,0.68359375
2960,0.234375,-1.75,0.6875
2961,0.15625,-1.54296875,0.64453125
2962,0.0625,-1.33984375,0.5
2963,-0.015625,-1.11328125,0.28125
2964,-0.09765625,-0.890625,0.12890625
2965,-0.11328125,-0.65234375,0.07421875
2966,-0.11328125,-0.46484375,0.06640625
2967,-0.03125,-0.26171875,0.1015625
2968,0.0390625,-0.1171875,0.07421875
2969,0.07421875,0.04296875,-0.01171875
2970,0.1015625,0.2109375,-0.0859375
2971,0.12109375,0.33984375,-0.13671875
2972,0.1015625,0.35546875,-0.1953125
2973,0.125,0.27734375,-0.109375
2974,0.1171875,0.140625,-0.00390625
2975,0.09765625,-0.07421875,0.09765625
2976,0.1171875,-0.31640625,0.1875
2977,0.05078125,-0.52734375,0.24609375
2978,-0.0625,-0.6171875,0.26953125
2979,-0.1953125,-0.61328125,0.32421875
2980,-0.3671875,-0.52734375,0.3359375
2981,-0.5234375,-0.48046875,0.359375
2982,-0.640625,-0.41796875,0.25390625
2983,-0.6875,-0.41796875,0.1171875
2984,-0.69140625,-0.45703125,-0.01953125
2985,-0.62890625,-0.4765625,-0.16015625
2986,-0.58984375,-0.4921875,-0.234375
2987,-0.4765625,-0.52734375,-0.1953125
2988,-0.37890625,-0.53125,-0.17578125
2989,-0.25,-0.50390625,-0.20703125
2990,-0.12109375,-0.44140625,-0.234375
2991,-0.015625,-0.35546875,-0.203125
2992,0.0,-0.3203125,-0.1953125
2993,0.0078125,-0.29296875,-0.22265625
2994,0.0,-0.2734375,-0.28125
2995,-0.08203125,-0.25390625,-0.34375
2996,-0.25,-0.24609375,-0.453125
2997,-0.51171875,-0.25390625,-0.63671875
2998,-0.76953125,-0.328125,-1.046875
2999,-0.9453125,-0.4921875,-1.546875
3000,-0.9140625,-0.84375,-1.87890625
3001,-0.68359375,-1.37109375,-1.81640625
3002,-0.34375,-1.984375,-1.203125
3003,-0.11328125,-2.5703125,-0.5625
3004,-0.02734375,-2.84375,0.1640625
3005,-0.21484375,-2.76171875,0.76171875
3006,-0.30859375,-2.46875,1.11328125
3007,-0.3203125,-2.14453125,1.09375
3008,-0.203125,-1.8515625,0.9296875
3009,0.13671875,-1.60546875,0.60546875
3010,0.70703125,-1.671875,0.28515625
3011,1.3125,-1.79296875,0.0703125
3012,1.76953125,-1.9609375,-0.02734375
3013,1.66015625,-1.921875,0.01953125
3014,1.421875,-1.859375,0.203125
3015,1.19921875,-1.78125,0.30078125
3016,1.0078125,-1.71484375,0.27734375
3017,0.86328125,-1.60546875,0.18359375
3018,0.69140625,-1.55078125,0.078125
3019,0.45703125,-1.49609375,0.0390625
3020,0.18359375,-1.4453125,0.08203125
3021,-0.015625,-1.42578125,0.171875
3022,-0.16015625,-1.4296875,0.2421875
3023,-0.296875,-1.51171875,0.33984375
3024,-0.48046875,-1.546875,0.4140625
3025,-0.734375,-1.6484375,0.5234375
3026,-0.94140625,-1.796875,0.63671875
3027,-1.1015625,-1.96484375,0.7109375
3028,-1.1953125,-2.1640625,0.8046875
3029,-1.20703125,-2.26171875,0.8359375
3030,-1.05859375,-2.28515625,0.859375
3031,-0.80859375,-2.23828125,0.83984375
3032,-0.51953125,-2.16015625,0.7265625
3033,-0.23828125,-2.0625,0.57421875
3034,0.01953125,-1.91015625,0.390625
3035,0.23046875,-1.734375,0.29296875
3036,0.36328125,-1.484375,0.21484375
3037,0.44921875,-1.23828125,0.1796875
3038,0.43359375,-1.00390625,0.1796875
3039,0.34765625,-0.703125,0.2265625
3040,0.21484375,-0.4296875,0.23828125
3041,0.0859375,-0.18359375,0.25390625
3042,-0.0390625,0.05859375,0.24609375
3043,-0.140625,0.296875,0.2109375
3044,-0.20703125,0.49609375,0.10546875
3045,-0.25390625,0.6015625,0.04296875
3046,-0.25,0.61328125,0.02734375
3047,-0.22265625,0.5234375,0.01953125
3048,-0.23046875,0.38671875,0.01171875
3049,-0.1953125,0.23046875,0.03125
3050,-0.17578125,0.0859375,0.08984375
3051,-0.16015625,-0.03515625,0.12890625
3052,-0.109375,-0.1484375,0.19921875
3053,0.0,-0.25390625,0.24609375
3054,0.1015625,-0.3046875,0.24609375
3055,0.23046875,-0.3515625,0.203125
3056,0.3828125,-0.3984375,0.125
3057,0.484375,-0.41796875,0.04296875
3058,0.52734375,-0.40234375,-0.015625
3059,0.515625,-0.40234375,-0.0546875
3060,0.5,-0.40234375,-0.078125
3061,0.44140625,-0.39453125,-0.11328125
3062,0.40234375,-0.34765625,-0.19140625
3063,0.3203125,-0.29296875,-0.234375
3064,0.26953125,-0.25390625,-0.21875
3065,0.23046875,-0.21875,-0.26953125
3066,0.24609375,-0.21484375,-0.3046875
3067,0.26171875,-0.2578125,-0.3125
3068,0.31640625,-0.29296875,-0.3125
3069,0.45703125,-0.40234375,-0.38671875
3070,0.72265625,-0.5859375,-0.58203125
3071,0.98828125,-0.7890625,-0.8828125
3072,1.140625,-1.01953125,-1.31640625
3073,1.17578125,-1.265625,-1.6953125
3074,1.140625,-1.671875,-1.77734375
3075,1.04296875,-2.19140625,-1.34765625
3076,0.76953125,-2.703125,-0.41796875
3077,0.5390625,-3.00390625,0.56640625
3078,0.42578125,-3.046875,1.3828125
3079,0.1171875,-2.75390625,1.76171875
3080,-0.06640625,-2.37109375,1.66015625
3081,-0.1484375,-1.98828125,1.16796875
3082,-0.28125,-1.70703125,0.5625
3083,-0.53515625,-1.46875,-0.0546875
3084,-0.93359375,-1.2890625,-0.40625
3085,-1.28515625,-1.16796875,-0.4921875
3086,-1.3984375,-1.0625,-0.33984375
3087,-1.2265625,-0.96484375,0.03125
3088,-1.19140625,-0.87109375,0.23828125
3089,-1.12109375,-0.78125,0.44921875
3090,-0.98046875,-0.76171875,0.60546875
3091,-0.796875,-0.82421875,0.65625
3092,-0.6796875,-0.9765625,0.65625
3093,-0.61328125,-1.21484375,0.7109375
3094,-0.59375,-1.48828125,0.765625
3095,-0.55078125,-1.7578125,0.82421875
3096,-0.47265625,-2.04296875,0.890625
3097,-0.34375,-2.30859375,0.8828125
3098,-0.2421875,-2.49609375,0.82421875
3099,-0.15234375,-2.6015625,0.81640625
3100,-0.078125,-2.61328125,0.8046875
3101,-0.015625,-2.5390625,0.75390625
3102,0.1171875,-2.3984375,0.71875
3103,0.15234375,-2.13671875,0.65625
3104,0.1171875,-1.8984375,0.6328125
3105,0.046875,-1.72265625,0.60546875
3106,-0.04296875,-1.53515625,0.51953125
3107,-0.1875,-1.33984375,0.42578125
3108,-0.3046875,-1.125,0.34375
3109,-0.38671875,-0.96875,0.328125
3110,-0.38671875,-0.80078125,0.3125
3111,-0.27734375,-0.671875,0.26171875
3112,-0.05859375,-0.56640625,0.23046875
3113,0.16015625,-0.42578125,0.10546875
3114,0.26171875,-0.22265625,-0.12109375
3115,0.34375,0.015625,-0.32421875
3116,0.3671875,0.24609375,-0.4296875
3117,0.36328125,0.37109375,-0.4765625
3118,0.390625,0.36328125,-0.41015625
3119,0.3515625,0.21484375,-0.265625
3120,0.2890625,-0.0859375,-0.06640625
3121,0.203125,-0.43359375,0.109375
3122,0.0703125,-0.72265625,0.27734375
3123,-0.06640625,-0.91796875,0.3671875
3124,-0.1953125,-1.015625,0.453125
3125,-0.33203125,-1.05078125,0.453125
3126,-0.46484375,-0.98828125,0.39453125
3127,-0.57421875,-0.9140625,0.33203125
3128,-0.66015625,-0.80859375,0.203125
3129,-0.70703125,-0.6875,0.09375
3130,-0.7265625,-0.5625,-0.0234375
3131,-0.66796875,-0.4375,-0.1640625
3132,-0.59765625,-0.30078125,-0.296875
3133,-0.55078125,-0.18359375,-0.3828125
3134,-0.46875,-0.078125,-0.39453125
3135,-0.3203125,-0.00390625,-0.4140625
3136,-0.20703125,0.046875,-0.43359375
3137,-0.08984375,0.109375,-0.390625
3138,-0.03125,0.13671875,-0.3203125
3139,-0.015625,0.18359375,-0.2890625
3140,0.0,0.1875,-0.28125
3141,-0.0234375,0.19140625,-0.28515625
3142,-0.1484375,0.16796875,-0.359375
3143,-0.3671875,0.08203125,-0.55078125
3144,-0.57421875,-0.05078125,-0.921875
3145,-0.69921875,-0.27734375,-1.41015625
3146,-0.65625,-0.65234375,-1.84765625
3147,-0.51171875,-1.1875,-1.90625
3148,-0.3046875,-1.85546875,-1.41796875
3149,-0.00390625,-2.515625,-0.55859375
3150,0.1015625,-2.96484375,0.390625
3151,-0.22265625,-2.9609375,1.0546875
3152,-0.47265625,-2.55078125,1.703125
3153,-0.44921875,-2.25,1.8046875
3154,-0.29296875,-1.95703125,1.4609375
3155,0.015625,-1.8125,0.9453125
3156,0.49609375,-1.734375,0.3671875
3157,1.125,-1.9453125,-0.125
3158,1.5703125,-2.171875,-0.5390625
3159,1.4921875,-2.2109375,-0.38671875
3160,1.24609375,-2.08203125,0.13671875
3161,1.0078125,-1.9453125,0.53125
3162,0.8125,-1.8359375,0.64453125
3163,0.7109375,-1.73828125,0.58984375
3164,0.55859375,-1.640625,0.4765625
3165,0.33984375,-1.578125,0.4140625
3166,0.171875,-1.59375,0.375
3167,0.07421875,-1.6328125,0.43359375
3168,-0.0390625,-1.71484375,0.5078125
3169,-0.23046875,-1.76171875,0.56640625
3170,-0.44921875,-1.8515625,0.66796875
3171,-0.59375,-1.97265625,0.7578125
3172,-0.7421875,-2.0703125,0.84765625
3173,-0.92578125,-2.1484375,0.82421875
3174,-1.0546875,-2.1796875,0.83203125
3175,-1.05078125,-2.14453125,0.85546875
3176,-0.89453125,-2.01171875,0.84765625
3177,-0.70703125,-1.86328125,0.70703125
3178,-0.4609375,-1.703125,0.53515625
3179,-0.21875,-1.5078125,0.33984375
3180,0.00390625,-1.24609375,0.17578125
3181,0.19140625,-0.99609375,0.0390625
3182,0.30078125,-0.71484375,-0.0625
3183,0.33984375,-0.50390625,-0.1015625
3184,0.3359375,-0.3359375,-0.01171875
3185,0.2890625,-0.265625,0.09375
3186,0.23828125,-0.19140625,0.1953125
3187,0.13671875,-0.12890625,0.28125
3188,0.0390625,-0.07421875,0.390625
3189,-0.0625,-0.0234375,0.453125
3190,-0.140625,0.0,0.453125
3191,-0.1328125,0.0,0.4296875
3192,-0.09375,-0.05859375,0.375
3193,-0.0390625,-0.125,0.328125
3194,0.07421875,-0.23046875,0.25
3195,0.06640625,-0.24609375,0.08203125
3196,0.1640625,-0.30078125,-0.00390625
3197,0.2578125,-0.39453125,-0.015625
3198,0.28515625,-0.46484375,0.01171875
3199,0.42578125,-0.5390625,0.00390625
3200,0.5078125,-0.57421875,0.0546875
3201,0.54296875,-0.59765625,0.0078125
3202,0.61328125,-0.5390625,0.03125
3203,0.5703125,-0.4296875,-0.01171875
3204,0.5859375,-0.3359375,-0.0390625
3205,0.53125,-0.22265625,-0.08203125
3206,0.4609375,-0.0703125,-0.12890625
3207,0.3515625,0.08203125,-0.20703125
3208,0.2421875,0.19921875,-0.20703125
3209,0.16015625,0.2265625,-0.26171875
3210,0.03125,0.25,-0.20703125
3211,0.0703125,0.12109375,-0.23828125
3212,0.03125,0.05078125,-0.19140625
3213,0.1171875,-0.0859375,-0.25
3214,0.265625,-0.1953125,-0.3515625
3215,0.51953125,-0.50390625,-0.60546875
3216,0.765625,-0.6484375,-1.07421875
3217,0.9140625,-0.87109375,-1.42578125
3218,0.94140625,-1.12890625,-1.7890625
3219,0.859375,-1.5390625,-1.82421875
3220,0.69921875,-2.08984375,-1.2421875
3221,0.4375,-2.66796875,-0.2421875
3222,0.19140625,-3.0,0.65625
3223,0.12890625,-2.95703125,1.33984375
3224,0.17578125,-2.70703125,1.671875
3225,0.0859375,-2.27734375,1.6796875
3226,-0.02734375,-1.81640625,1.31640625
3227,-0.1796875,-1.578125,0.796875
3228,-0.40625,-1.34375,0.28515625
3229,-0.66796875,-1.2734375,-0.21875
3230,-0.97265625,-1.2734375,-0.49609375
3231,-1.10546875,-1.4140625,-0.45703125
3232,-1.08203125,-1.5234375,-0.22265625
3233,-1.09765625,-1.4609375,0.0546875
3234,-0.9921875,-1.41796875,0.34375
3235,-0.8671875,-1.33203125,0.55859375
3236,-0.69140625,-1.28125,0.625
3237,-0.55078125,-1.29296875,0.65234375
3238,-0.47265625,-1.33984375,0.71484375
3239,-0.4453125,-1.47265625,0.68359375
3240,-0.3828125,-1.6328125,0.71484375
3241,-0.30078125,-1.765625,0.6953125
3242,-0.2265625,-1.89453125,0.63671875
3243,-0.13671875,-1.99609375,0.62109375
3244,-0.12109375,-2.01171875,0.6953125
3245,-0.08984375,-2.0078125,0.7265625
3246,-0.00390625,-1.95703125,0.70703125
3247,0.0625,-1.86328125,0.67578125
3248,0.0703125,-1.73828125,0.71484375
3249,-0.015625,-1.62109375,0.71875
3250,-0.140625,-1.5234375,0.74609375
3251,-0.3125,-1.44921875,0.71875
3252,-0.44921875,-1.39453125,0.62109375
3253,-0.53515625,-1.33203125,0.4921875
3254,-0.63671875,-1.34375,0.3046875
3255,-0.609375,-1.2265625,0.25390625
3256,-0.51171875,-1.1796875,0.19921875
3257,-0.3359375,-1.05078125,0.1875
3258,-0.1484375,-0.90625,0.13671875
3259,0.0078125,-0.6953125,0.109375
3260,0.12890625,-0.37109375,-0.05078125
3261,0.20703125,-0.09375,-0.12890625
3262,0.27734375,0.140625,-0.17578125
3263,0.265625,0.3359375,-0.20703125
3264,0.29296875,0.4375,-0.2578125
3265,0.30078125,0.3984375,-0.19140625
3266,0.28515625,0.2421875,-0.04296875
3267,0.2421875,-0.0078125,0.1171875
3268,0.16796875,-0.2890625,0.24609375
3269,0.02734375,-0.4296875,0.34765625
3270,-0.0703125,-0.54296875,0.421875
3271,-0.1953125,-0.6171875,0.4296875
3272,-0.328125,-0.62890625,0.36328125
3273,-0.3515625,-0.5859375,0.28125
3274,-0.43359375,-0.55078125,0.15234375
3275,-0.484375,-0.6171875,-0.02734375
3276,-0.46875,-0.57421875,-0.22265625
3277,-0.4609375,-0.52734375,-0.31640625
3278,-0.3828125,-0.5390625,-0.30078125
3279,-0.25390625,-0.453125,-0.28515625
3280,-0.171875,-0.37109375,-0.24609375
3281,-0.0859375,-0.28515625,-0.21484375
3282,-0.00390625,-0.203125,-0.1328125
3283,0.02734375,-0.14453125,-0.109375
3284,0.0390625,-0.1171875,-0.07421875
3285,0.015625,-0.08984375,-0.15234375
3286,-0.04296875,-0.1015625,-0.21484375
3287,-0.23046875,-0.16796875,-0.29296875
3288,-0.4765625,-0.21484375,-0.50390625
3289,-0.734375,-0.33984375,-0.99609375
