,accelerometerAccelerationX(G),accelerometerAccelerationY(G),accelerometerAccelerationZ(G)
0,-0.078125,-0.8984375,0.53125
1,-0.0625,-0.90234375,0.53515625
2,-0.0625,-0.9140625,0.5234375
3,-0.078125,-0.90625,0.52734375
4,-0.07421875,-0.8984375,0.52734375
5,-0.08984375,-0.88671875,0.4921875
6,-0.0625,-0.90234375,0.53125
7,-0.08203125,-0.890625,0.53125
8,-0.08203125,-0.890625,0.5390625
9,-0.08203125,-0.88671875,0.53515625
10,-0.078125,-0.90234375,0.546875
11,-0.0703125,-0.90234375,0.5390625
12,-0.07421875,-0.890625,0.5390625
13,-0.078125,-0.890625,0.5546875
14,-0.07421875,-0.89453125,0.55078125
15,-0.1171875,-0.89453125,0.515625
16,-0.078125,-0.890625,0.53125
17,-0.078125,-0.8984375,0.546875
18,-0.06640625,-0.890625,0.546875
19,-0.07421875,-0.8828125,0.5625
20,-0.0859375,-0.890625,0.5390625
21,-0.07421875,-0.8984375,0.546875
22,-0.07421875,-0.90234375,0.55078125
23,-0.0859375,-0.87890625,0.55078125
24,-0.0859375,-0.8828125,0.546875
25,-0.07421875,-0.88671875,0.5546875
26,-0.0859375,-0.89453125,0.53125
27,-0.078125,-0.88671875,0.546875
28,-0.08203125,-0.87109375,0.55859375
29,-0.0703125,-0.8984375,0.5546875
30,-0.07421875,-0.89453125,0.55859375
31,-0.07421875,-0.8984375,0.5390625
32,-0.09375,-0.8671875,0.5390625
33,-0.07421875,-0.88671875,0.546875
34,-0.07421875,-0.88671875,0.53515625
35,-0.06640625,-0.890625,0.5390625
36,-0.0703125,-0.87890625,0.54296875
37,-0.07421875,-0.8984375,0.55078125
38,-0.08203125,-0.88671875,0.55078125
39,-0.0859375,-0.8828125,0.54296875
40,-0.09375,-0.88671875,0.55078125
41,-0.078125,-0.87109375,0.5390625
42,-0.08984375,-0.8984375,0.53515625
43,-0.078125,-0.8828125,0.54296875
44,-0.07421875,-0.890625,0.546875
45,-0.07421875,-0.91015625,0.5390625
46,-0.06640625,-0.8984375,0.5390625
47,-0.06640625,-0.890625,0.546875
48,-0.0703125,-0.90625,0.52734375
49,-0.078125,-0.8984375,0.54296875
50,-0.0625,-0.890625,0.54296875
51,-0.078125,-0.88671875,0.53125
52,-0.07421875,-0.890625,0.5625
53,-0.06640625,-0.88671875,0.55078125
54,-0.0859375,-0.8984375,0.5625
55,-0.0625,-0.90234375,0.5546875
56,-0.07421875,-0.88671875,0.5390625
57,-0.07421875,-0.90234375,0.546875
58,-0.08203125,-0.890625,0.5390625
59,-0.0859375,-0.890625,0.54296875
60,-0.078125,-0.8984375,0.55078125
61,-0.0703125,-0.89453125,0.55078125
62,-0.078125,-0.890625,0.5390625
63,-0.0859375,-0.890625,0.5390625
64,-0.08984375,-0.8984375,0.53515625
65,-0.07421875,-0.88671875,0.55859375
66,-0.0859375,-0.87890625,0.54296875
67,-0.08203125,-0.90234375,0.5625
68,-0.08984375,-0.87890625,0.55859375
69,-0.08203125,-0.90234375,0.53515625
70,-0.08203125,-0.890625,0.53125
71,-0.07421875,-0.890625,0.55078125
72,-0.08203125,-0.8984375,0.5390625
73,-0.078125,-0.89453125,0.54296875
74,-0.08984375,-0.8828125,0.546875
75,-0.0703125,-0.89453125,0.5625
76,-0.078125,-0.88671875,0.53125
77,-0.078125,-0.90234375,0.5234375
78,-0.06640625,-0.8984375,0.546875
79,-0.078125,-0.88671875,0.53515625
80,-0.078125,-0.890625,0.5390625
81,-0.0703125,-0.89453125,0.5546875
82,-0.06640625,-0.89453125,0.53515625
83,-0.078125,-0.890625,0.5390625
84,-0.08203125,-0.8984375,0.546875
85,-0.0703125,-0.89453125,0.5390625
86,-0.0703125,-0.89453125,0.53515625
87,-0.08203125,-0.88671875,0.5390625
88,-0.07421875,-0.890625,0.5625
89,-0.078125,-0.8984375,0.54296875
90,-0.078125,-0.88671875,0.54296875
91,-0.0859375,-0.88671875,0.5390625
92,-0.0859375,-0.890625,0.546875
93,-0.0859375,-0.90234375,0.54296875
94,-0.078125,-0.89453125,0.5390625
95,-0.078125,-0.890625,0.55078125
96,-0.0859375,-0.8828125,0.5390625
97,-0.08203125,-0.90234375,0.5390625
98,-0.08203125,-0.8828125,0.54296875
99,-0.078125,-0.89453125,0.55078125
100,-0.08984375,-0.8828125,0.53515625
101,-0.08203125,-0.88671875,0.546875
102,-0.08203125,-0.88671875,0.55859375
103,-0.07421875,-0.890625,0.546875
104,-0.0859375,-0.890625,0.55078125
105,-0.07421875,-0.88671875,0.55078125
106,-0.07421875,-0.890625,0.5546875
107,-0.08984375,-0.8828125,0.546875
108,-0.0859375,-0.88671875,0.5390625
109,-0.078125,-0.89453125,0.54296875
110,-0.08203125,-0.8828125,0.546875
111,-0.08203125,-0.8828125,0.55078125
112,-0.08203125,-0.8828125,0.5390625
113,-0.078125,-0.8828125,0.53515625
114,-0.06640625,-0.89453125,0.5546875
115,-0.07421875,-0.890625,0.546875
116,-0.078125,-0.88671875,0.5390625
117,-0.08203125,-0.8828125,0.5546875
118,-0.07421875,-0.88671875,0.546875
119,-0.06640625,-0.8984375,0.54296875
120,-0.0703125,-0.8828125,0.53515625
121,-0.09375,-0.890625,0.546875
122,-0.0859375,-0.87890625,0.54296875
123,-0.08984375,-0.890625,0.54296875
124,-0.08203125,-0.890625,0.5390625
125,-0.08203125,-0.8828125,0.546875
126,-0.0625,-0.88671875,0.55078125
127,-0.078125,-0.88671875,0.546875
128,-0.07421875,-0.88671875,0.55859375
129,-0.08203125,-0.89453125,0.55078125
130,-0.0703125,-0.90234375,0.546875
131,-0.06640625,-0.8984375,0.55859375
132,-0.0859375,-0.89453125,0.53515625
133,-0.0703125,-0.90234375,0.54296875
134,-0.0859375,-0.88671875,0.54296875
135,-0.11328125,-0.890625,0.53125
136,-0.08203125,-0.90234375,0.54296875
137,-0.078125,-0.8828125,0.5390625
138,-0.078125,-0.890625,0.546875
139,-0.0703125,-0.90625,0.53515625
140,-0.0859375,-0.890625,0.53125
141,-0.08203125,-0.87890625,0.5234375
142,-0.08203125,-0.8828125,0.55859375
143,-0.08203125,-0.8984375,0.54296875
144,-0.07421875,-0.88671875,0.5546875
145,-0.078125,-0.89453125,0.546875
146,-0.0859375,-0.87890625,0.5234375
147,-0.06640625,-0.89453125,0.55078125
148,-0.07421875,-0.89453125,0.546875
149,-0.07421875,-0.89453125,0.53515625
150,-0.07421875,-0.8984375,0.53515625
151,-0.0625,-0.89453125,0.52734375
152,-0.08203125,-0.88671875,0.5390625
153,-0.078125,-0.88671875,0.5390625
154,-0.078125,-0.890625,0.55078125
155,-0.0859375,-0.89453125,0.53125
156,-0.0859375,-0.89453125,0.54296875
157,-0.09765625,-0.88671875,0.53515625
158,-0.078125,-0.91015625,0.546875
159,-0.07421875,-0.8984375,0.546875
160,-0.08203125,-0.8984375,0.54296875
161,-0.07421875,-0.90234375,0.546875
162,-0.0859375,-0.8984375,0.546875
163,-0.0859375,-0.90234375,0.53125
164,-0.0703125,-0.91015625,0.54296875
165,-0.0625,-0.90234375,0.5234375
166,-0.08203125,-0.8984375,0.53125
167,-0.08984375,-0.8984375,0.546875
168,-0.08203125,-0.90234375,0.53515625
169,-0.07421875,-0.90625,0.53515625
170,-0.08203125,-0.89453125,0.546875
171,-0.0859375,-0.8828125,0.53515625
172,-0.0859375,-0.90625,0.53125
173,-0.07421875,-0.91015625,0.5234375
174,-0.078125,-0.88671875,0.53515625
175,-0.08203125,-0.89453125,0.52734375
176,-0.08984375,-0.8984375,0.5234375
177,-0.08203125,-0.9140625,0.54296875
178,-0.09765625,-0.90234375,0.5234375
179,-0.08203125,-0.89453125,0.53125
180,-0.08203125,-0.89453125,0.546875
181,-0.07421875,-0.89453125,0.54296875
182,-0.08984375,-0.90234375,0.53515625
183,-0.078125,-0.90234375,0.54296875
184,-0.0703125,-0.91015625,0.5390625
185,-0.08203125,-0.8984375,0.5390625
186,-0.08203125,-0.890625,0.5234375
187,-0.08203125,-0.90625,0.53515625
188,-0.078125,-0.8984375,0.53515625
189,-0.08203125,-0.8828125,0.5390625
190,-0.08203125,-0.90234375,0.5390625
191,-0.07421875,-0.90234375,0.546875
192,-0.08984375,-0.90625,0.515625
193,-0.08203125,-0.89453125,0.5390625
194,-0.07421875,-0.89453125,0.5390625
195,-0.0859375,-0.8984375,0.54296875
196,-0.078125,-0.8984375,0.5390625
197,-0.078125,-0.8984375,0.546875
198,-0.0859375,-0.8828125,0.5390625
199,-0.07421875,-0.89453125,0.5546875
200,-0.078125,-0.890625,0.5390625
201,-0.09375,-0.89453125,0.546875
202,-0.09375,-0.90234375,0.55078125
203,-0.0859375,-0.890625,0.5390625
204,-0.08203125,-0.90234375,0.54296875
205,-0.0703125,-0.88671875,0.53515625
206,-0.08203125,-0.8828125,0.53515625
207,-0.08984375,-0.89453125,0.53515625
208,-0.07421875,-0.8984375,0.54296875
209,-0.0859375,-0.8828125,0.55078125
210,-0.07421875,-0.8984375,0.546875
211,-0.078125,-0.89453125,0.546875
212,-0.08203125,-0.890625,0.5546875
213,-0.078125,-0.8828125,0.546875
214,-0.06640625,-0.890625,0.53515625
215,-0.07421875,-0.890625,0.5390625
216,-0.078125,-0.8828125,0.546875
217,-0.07421875,-0.89453125,0.546875
218,-0.08203125,-0.8984375,0.55859375
219,-0.078125,-0.89453125,0.5390625
220,-0.078125,-0.890625,0.54296875
221,-0.0703125,-0.8984375,0.5546875
222,-0.078125,-0.8984375,0.55078125
223,-0.078125,-0.8984375,0.546875
224,-0.07421875,-0.8984375,0.54296875
225,-0.08203125,-0.88671875,0.546875
226,-0.0703125,-0.89453125,0.54296875
227,-0.08203125,-0.8984375,0.5390625
228,-0.07421875,-0.89453125,0.53125
229,-0.07421875,-0.8984375,0.5390625
230,-0.07421875,-0.8984375,0.53515625
231,-0.0703125,-0.89453125,0.5546875
232,-0.078125,-0.8828125,0.53125
233,-0.07421875,-0.8984375,0.53125
234,-0.07421875,-0.88671875,0.546875
235,-0.078125,-0.90234375,0.5390625
236,-0.07421875,-0.890625,0.5234375
237,-0.078125,-0.8984375,0.52734375
238,-0.078125,-0.890625,0.53125
239,-0.078125,-0.88671875,0.5234375
240,-0.078125,-0.89453125,0.54296875
241,-0.08203125,-0.89453125,0.53125
242,-0.08203125,-0.890625,0.5390625
243,-0.0859375,-0.89453125,0.546875
244,-0.109375,-0.8984375,0.52734375
245,-0.08203125,-0.90625,0.55078125
246,-0.07421875,-0.8984375,0.55078125
247,-0.07421875,-0.89453125,0.52734375
248,-0.078125,-0.90234375,0.546875
249,-0.0859375,-0.88671875,0.53125
250,-0.08203125,-0.89453125,0.54296875
251,-0.08203125,-0.890625,0.5390625
252,-0.078125,-0.8984375,0.55859375
253,-0.08203125,-0.8828125,0.53515625
254,-0.078125,-0.90234375,0.5390625
255,-0.08984375,-0.88671875,0.5390625
256,-0.0859375,-0.8984375,0.54296875
257,-0.07421875,-0.8984375,0.5546875
258,-0.08203125,-0.88671875,0.5546875
259,-0.08203125,-0.89453125,0.55078125
260,-0.08203125,-0.890625,0.55859375
261,-0.07421875,-0.890625,0.5390625
262,-0.078125,-0.890625,0.53515625
263,-0.07421875,-0.8984375,0.546875
264,-0.078125,-0.89453125,0.5546875
265,-0.07421875,-0.8984375,0.546875
266,-0.078125,-0.890625,0.5390625
267,-0.078125,-0.89453125,0.55078125
268,-0.08203125,-0.890625,0.5390625
269,-0.078125,-0.890625,0.53515625
270,-0.09375,-0.90234375,0.546875
271,-0.0859375,-0.890625,0.546875
272,-0.0859375,-0.90234375,0.546875
273,-0.08203125,-0.890625,0.546875
274,-0.08203125,-0.89453125,0.5546875
275,-0.0859375,-0.87890625,0.546875
276,-0.07421875,-0.8984375,0.52734375
277,-0.08984375,-0.88671875,0.546875
278,-0.078125,-0.89453125,0.546875
279,-0.0703125,-0.88671875,0.55078125
280,-0.078125,-0.89453125,0.5390625
281,-0.078125,-0.89453125,0.53125
282,-0.08203125,-0.90234375,0.54296875
283,-0.08203125,-0.890625,0.53515625
284,-0.078125,-0.89453125,0.55078125
285,-0.078125,-0.8828125,0.546875
286,-0.0703125,-0.890625,0.53515625
287,-0.06640625,-0.89453125,0.5390625
288,-0.07421875,-0.890625,0.546875
289,-0.08984375,-0.88671875,0.53515625
290,-0.0859375,-0.89453125,0.5546875
291,-0.078125,-0.88671875,0.5390625
292,-0.078125,-0.875,0.546875
293,-0.08203125,-0.890625,0.5390625
294,-0.078125,-0.890625,0.54296875
295,-0.0859375,-0.890625,0.54296875
296,-0.0859375,-0.87890625,0.5546875
297,-0.08203125,-0.875,0.54296875
298,-0.078125,-0.890625,0.55078125
299,-0.0859375,-0.890625,0.546875
300,-0.0859375,-0.890625,0.54296875
301,-0.078125,-0.90234375,0.55078125
302,-0.09375,-0.8828125,0.54296875
303,-0.08203125,-0.890625,0.55078125
304,-0.0859375,-0.87890625,0.53515625
305,-0.08203125,-0.89453125,0.53515625
306,-0.08203125,-0.88671875,0.5390625
307,-0.07421875,-0.89453125,0.53515625
308,-0.078125,-0.8984375,0.546875
309,-0.08203125,-0.8828125,0.55859375
310,-0.09375,-0.87890625,0.5390625
311,-0.06640625,-0.8984375,0.55078125
312,-0.08203125,-0.89453125,0.54296875
313,-0.07421875,-0.91015625,0.52734375
314,-0.08203125,-0.89453125,0.53125
315,-0.08203125,-0.8984375,0.54296875
316,-0.08203125,-0.890625,0.5390625
317,-0.0859375,-0.890625,0.5390625
318,-0.0859375,-0.890625,0.5390625
319,-0.0703125,-0.8984375,0.5390625
320,-0.0703125,-0.89453125,0.54296875
321,-0.0703125,-0.8984375,0.54296875
322,-0.08203125,-0.890625,0.546875
323,-0.07421875,-0.8984375,0.54296875
324,-0.078125,-0.890625,0.54296875
325,-0.08203125,-0.90234375,0.55078125
326,-0.0703125,-0.89453125,0.5390625
327,-0.08203125,-0.88671875,0.52734375
328,-0.0703125,-0.8984375,0.55078125
329,-0.08203125,-0.8984375,0.546875
330,-0.06640625,-0.8984375,0.5546875
331,-0.09765625,-0.87890625,0.5234375
332,-0.0703125,-0.890625,0.5390625
333,-0.08203125,-0.890625,0.53515625
334,-0.08203125,-0.89453125,0.54296875
335,-0.07421875,-0.8984375,0.53515625
336,-0.0703125,-0.890625,0.52734375
337,-0.06640625,-0.890625,0.54296875
338,-0.06640625,-0.890625,0.52734375
339,-0.078125,-0.88671875,0.53125
340,-0.0703125,-0.8984375,0.54296875
341,-0.08984375,-0.89453125,0.546875
342,-0.078125,-0.890625,0.53515625
343,-0.09375,-0.88671875,0.546875
344,-0.06640625,-0.89453125,0.5390625
345,-0.078125,-0.89453125,0.53125
346,-0.07421875,-0.90234375,0.54296875
347,-0.0859375,-0.8984375,0.5234375
348,-0.07421875,-0.8984375,0.53125
349,-0.078125,-0.8984375,0.53515625
350,-0.07421875,-0.89453125,0.53515625
351,-0.07421875,-0.90625,0.5390625
352,-0.08203125,-0.89453125,0.546875
353,-0.0859375,-0.890625,0.53125
354,-0.08984375,-0.890625,0.53515625
355,-0.07421875,-0.8828125,0.546875
356,-0.078125,-0.89453125,0.546875
357,-0.07421875,-0.89453125,0.54296875
358,-0.06640625,-0.890625,0.55078125
359,-0.078125,-0.8984375,0.53125
360,-0.06640625,-0.89453125,0.55078125
361,-0.07421875,-0.8984375,0.54296875
362,-0.07421875,-0.88671875,0.55859375
363,-0.0703125,-0.90234375,0.5625
364,-0.0703125,-0.8984375,0.54296875
365,-0.07421875,-0.890625,0.54296875
366,-0.0703125,-0.89453125,0.5390625
367,-0.06640625,-0.89453125,0.52734375
368,-0.06640625,-0.89453125,0.53515625
369,-0.07421875,-0.88671875,0.5390625
370,-0.0859375,-0.89453125,0.546875
371,-0.08203125,-0.8828125,0.53515625
372,-0.06640625,-0.87890625,0.53515625
373,-0.0703125,-0.90234375,0.5390625
374,-0.078125,-0.890625,0.54296875
375,-0.07421875,-0.8984375,0.53515625
376,-0.08203125,-0.8984375,0.546875
377,-0.08203125,-0.89453125,0.53515625
378,-0.0859375,-0.89453125,0.52734375
379,-0.07421875,-0.890625,0.53515625
380,-0.08203125,-0.89453125,0.546875
381,-0.07421875,-0.90625,0.53515625
382,-0.08203125,-0.8828125,0.5390625
383,-0.06640625,-0.890625,0.54296875
384,-0.078125,-0.890625,0.53125
385,-0.08203125,-0.890625,0.53515625
386,-0.0703125,-0.8984375,0.54296875
387,-0.0703125,-0.90625,0.54296875
388,-0.0859375,-0.89453125,0.54296875
389,-0.078125,-0.9140625,0.54296875
390,-0.08984375,-0.90234375,0.53515625
391,-0.0703125,-0.90625,0.54296875
392,-0.078125,-0.90234375,0.55859375
393,-0.0859375,-0.88671875,0.5390625
394,-0.07421875,-0.890625,0.5390625
395,-0.08203125,-0.89453125,0.54296875
396,-0.08984375,-0.8828125,0.54296875
397,-0.08203125,-0.89453125,0.5390625
398,-0.078125,-0.90234375,0.54296875
399,-0.08203125,-0.890625,0.54296875
400,-0.08203125,-0.88671875,0.53515625
401,-0.078125,-0.88671875,0.5546875
402,-0.078125,-0.8984375,0.5234375
403,-0.0859375,-0.88671875,0.55078125
404,-0.08203125,-0.88671875,0.54296875
405,-0.07421875,-0.8984375,0.5390625
406,-0.0703125,-0.89453125,0.546875
407,-0.08203125,-0.8984375,0.546875
408,-0.078125,-0.89453125,0.5390625
409,-0.078125,-0.890625,0.55078125
410,-0.0859375,-0.88671875,0.5546875
411,-0.07421875,-0.8984375,0.5390625
412,-0.078125,-0.890625,0.53515625
413,-0.078125,-0.90234375,0.5390625
414,-0.078125,-0.8984375,0.5390625
415,-0.08203125,-0.88671875,0.5546875
416,-0.078125,-0.89453125,0.546875
417,-0.06640625,-0.8984375,0.5625
418,-0.078125,-0.89453125,0.58984375
419,-0.07421875,-0.890625,0.54296875
420,-0.08203125,-0.890625,0.5625
421,-0.08203125,-0.89453125,0.54296875
422,-0.0703125,-0.90234375,0.5390625
423,-0.07421875,-0.890625,0.5390625
424,-0.078125,-0.89453125,0.54296875
425,-0.08203125,-0.890625,0.546875
426,-0.07421875,-0.90234375,0.55078125
427,-0.08203125,-0.88671875,0.5546875
428,-0.07421875,-0.88671875,0.5234375
429,-0.0703125,-0.8828125,0.5390625
430,-0.078125,-0.890625,0.52734375
431,-0.078125,-0.890625,0.546875
432,-0.078125,-0.90234375,0.55859375
433,-0.08984375,-0.8828125,0.54296875
434,-0.07421875,-0.8984375,0.55859375
435,-0.08203125,-0.890625,0.5390625
436,-0.07421875,-0.8984375,0.546875
437,-0.07421875,-0.89453125,0.5390625
438,-0.0859375,-0.89453125,0.546875
439,-0.0859375,-0.890625,0.55078125
440,-0.0703125,-0.89453125,0.546875
441,-0.07421875,-0.89453125,0.54296875
442,-0.0859375,-0.89453125,0.546875
443,-0.08203125,-0.8828125,0.54296875
444,-0.08203125,-0.88671875,0.54296875
445,-0.078125,-0.8984375,0.54296875
446,-0.08984375,-0.90234375,0.54296875
447,-0.08203125,-0.8984375,0.52734375
448,-0.08203125,-0.89453125,0.53125
449,-0.08203125,-0.8984375,0.54296875
450,-0.08203125,-0.90625,0.546875
451,-0.07421875,-0.89453125,0.55859375
452,-0.08203125,-0.89453125,0.546875
453,-0.0703125,-0.88671875,0.5546875
454,-0.078125,-0.88671875,0.5546875
455,-0.078125,-0.890625,0.55078125
456,-0.0703125,-0.90234375,0.54296875
457,-0.078125,-0.88671875,0.54296875
458,-0.0703125,-0.90625,0.546875
459,-0.078125,-0.890625,0.5546875
460,-0.078125,-0.89453125,0.55078125
461,-0.08203125,-0.89453125,0.55078125
462,-0.078125,-0.890625,0.5390625
463,-0.078125,-0.8828125,0.55859375
464,-0.07421875,-0.89453125,0.54296875
465,-0.078125,-0.890625,0.55078125
466,-0.07421875,-0.890625,0.546875
467,-0.08203125,-0.890625,0.55078125
468,-0.078125,-0.89453125,0.5546875
469,-0.08203125,-0.89453125,0.5546875
470,-0.078125,-0.89453125,0.53125
471,-0.07421875,-0.89453125,0.546875
472,-0.08203125,-0.89453125,0.5390625
473,-0.0703125,-0.8984375,0.5546875
474,-0.08203125,-0.88671875,0.546875
475,-0.0703125,-0.8984375,0.53515625
476,-0.078125,-0.90234375,0.54296875
477,-0.078125,-0.89453125,0.5390625
478,-0.08203125,-0.8984375,0.546875
479,-0.078125,-0.89453125,0.5390625
480,-0.0703125,-0.8984375,0.546875
481,-0.0859375,-0.8984375,0.53125
482,-0.0859375,-0.90234375,0.55859375
483,-0.06640625,-0.89453125,0.54296875
484,-0.08203125,-0.90234375,0.53515625
485,-0.078125,-0.89453125,0.54296875
486,-0.08203125,-0.88671875,0.53515625
487,-0.0859375,-0.89453125,0.54296875
488,-0.078125,-0.89453125,0.53125
489,-0.078125,-0.8984375,0.5546875
490,-0.08984375,-0.88671875,0.55078125
491,-0.078125,-0.890625,0.55859375
492,-0.08203125,-0.890625,0.55078125
493,-0.0859375,-0.890625,0.53515625
494,-0.08203125,-0.890625,0.54296875
495,-0.07421875,-0.890625,0.5390625
496,-0.06640625,-0.90234375,0.55078125
497,-0.07421875,-0.8828125,0.55859375
498,-0.08203125,-0.890625,0.5546875
499,-0.07421875,-0.88671875,0.55078125
500,-0.078125,-0.8984375,0.55078125
501,-0.0703125,-0.87890625,0.53125
502,-0.078125,-0.87890625,0.5390625
503,-0.078125,-0.89453125,0.53125
504,-0.07421875,-0.88671875,0.55078125
505,-0.0859375,-0.8984375,0.5390625
506,-0.09375,-0.8828125,0.5546875
507,-0.1015625,-0.87890625,0.54296875
508,-0.0859375,-0.8828125,0.54296875
509,-0.07421875,-0.89453125,0.55078125
510,-0.07421875,-0.890625,0.546875
511,-0.078125,-0.890625,0.54296875
512,-0.078125,-0.87890625,0.546875
513,-0.0703125,-0.890625,0.5625
514,-0.0703125,-0.88671875,0.54296875
515,-0.07421875,-0.88671875,0.55859375
516,-0.07421875,-0.87109375,0.5234375
517,-0.078125,-0.88671875,0.5625
518,-0.0703125,-0.90234375,0.53515625
519,-0.078125,-0.89453125,0.546875
520,-0.078125,-0.89453125,0.54296875
521,-0.08203125,-0.890625,0.55078125
522,-0.078125,-0.88671875,0.546875
523,-0.078125,-0.890625,0.546875
524,-0.07421875,-0.890625,0.546875
525,-0.0859375,-0.89453125,0.54296875
526,-0.0703125,-0.890625,0.55859375
527,-0.07421875,-0.890625,0.54296875
528,-0.06640625,-0.890625,0.54296875
529,-0.0859375,-0.88671875,0.5546875
530,-0.08984375,-0.890625,0.55078125
531,-0.078125,-0.88671875,0.5546875
532,-0.07421875,-0.88671875,0.546875
533,-0.07421875,-0.89453125,0.5390625
534,-0.07421875,-0.890625,0.55078125
535,-0.0703125,-0.890625,0.546875
536,-0.08203125,-0.890625,0.54296875
537,-0.078125,-0.8984375,0.53515625
538,-0.0703125,-0.89453125,0.53515625
539,-0.078125,-0.89453125,0.5546875
540,-0.078125,-0.890625,0.54296875
541,-0.0859375,-0.890625,0.54296875
542,-0.0859375,-0.8828125,0.54296875
543,-0.08984375,-0.89453125,0.55859375
544,-0.08203125,-0.8984375,0.5625
545,-0.06640625,-0.8828125,0.55078125
546,-0.09375,-0.890625,0.5390625
547,-0.08984375,-0.890625,0.55859375
548,-0.08203125,-0.88671875,0.54296875
549,-0.07421875,-0.89453125,0.546875
550,-0.06640625,-0.88671875,0.5390625
551,-0.08203125,-0.87890625,0.5625
552,-0.078125,-0.8984375,0.55078125
553,-0.078125,-0.89453125,0.546875
554,-0.078125,-0.88671875,0.5390625
555,-0.08203125,-0.89453125,0.546875
556,-0.078125,-0.89453125,0.546875
557,-0.0859375,-0.88671875,0.546875
558,-0.078125,-0.8984375,0.546875
559,-0.0703125,-0.8984375,0.55078125
560,-0.078125,-0.8984375,0.546875
561,-0.078125,-0.88671875,0.55859375
562,-0.08203125,-0.8828125,0.546875
563,-0.07421875,-0.88671875,0.53515625
564,-0.0625,-0.8984375,0.55078125
565,-0.078125,-0.890625,0.54296875
566,-0.078125,-0.88671875,0.53515625
567,-0.078125,-0.890625,0.5390625
568,-0.08203125,-0.89453125,0.546875
569,-0.06640625,-0.89453125,0.546875
570,-0.07421875,-0.890625,0.55078125
571,-0.078125,-0.9140625,0.546875
572,-0.07421875,-0.89453125,0.53125
573,-0.08984375,-0.89453125,0.53125
574,-0.08203125,-0.890625,0.546875
575,-0.08203125,-0.890625,0.54296875
576,-0.08203125,-0.890625,0.546875
577,-0.07421875,-0.88671875,0.55859375
578,-0.08203125,-0.890625,0.546875
579,-0.0859375,-0.8984375,0.5390625
580,-0.06640625,-0.89453125,0.53125
581,-0.08203125,-0.890625,0.53515625
582,-0.0859375,-0.88671875,0.5546875
583,-0.08203125,-0.88671875,0.54296875
584,-0.0859375,-0.8828125,0.55078125
585,-0.0703125,-0.8828125,0.5390625
586,-0.0859375,-0.88671875,0.55078125
587,-0.0703125,-0.890625,0.54296875
588,-0.078125,-0.890625,0.54296875
589,-0.0859375,-0.88671875,0.546875
590,-0.07421875,-0.89453125,0.55859375
591,-0.08203125,-0.8828125,0.546875
592,-0.08203125,-0.8984375,0.55859375
593,-0.0703125,-0.89453125,0.56640625
594,-0.0859375,-0.87890625,0.55078125
595,-0.07421875,-0.88671875,0.5546875
596,-0.07421875,-0.890625,0.53125
597,-0.09375,-0.8984375,0.54296875
598,-0.07421875,-0.90234375,0.546875
599,-0.07421875,-0.890625,0.55859375
600,-0.08203125,-0.8984375,0.55859375
601,-0.078125,-0.890625,0.546875
602,-0.078125,-0.890625,0.55859375
603,-0.0859375,-0.8984375,0.55078125
604,-0.078125,-0.87890625,0.55859375
605,-0.07421875,-0.890625,0.53125
606,-0.08984375,-0.90625,0.55078125
607,-0.078125,-0.890625,0.55078125
608,-0.0703125,-0.89453125,0.55078125
609,-0.078125,-0.8828125,0.54296875
610,-0.0703125,-0.89453125,0.53125
611,-0.08203125,-0.875,0.53515625
612,-0.07421875,-0.88671875,0.546875
613,-0.0859375,-0.875,0.5390625
614,-0.07421875,-0.8828125,0.54296875
615,-0.09375,-0.87890625,0.5625
616,-0.08203125,-0.90234375,0.55078125
617,-0.0703125,-0.90625,0.546875
618,-0.06640625,-0.8984375,0.54296875
619,-0.08203125,-0.890625,0.55078125
620,-0.08203125,-0.890625,0.5546875
621,-0.078125,-0.890625,0.55078125
622,-0.0703125,-0.8984375,0.55078125
623,-0.08203125,-0.87109375,0.5546875
624,-0.07421875,-0.90234375,0.5546875
625,-0.07421875,-0.890625,0.5546875
626,-0.08984375,-0.890625,0.5390625
627,-0.08203125,-0.89453125,0.546875
628,-0.0859375,-0.8984375,0.5390625
629,-0.08203125,-0.890625,0.54296875
630,-0.0859375,-0.890625,0.5390625
631,-0.08984375,-0.890625,0.5234375
632,-0.08203125,-0.8828125,0.54296875
633,-0.0703125,-0.90234375,0.55078125
634,-0.0859375,-0.890625,0.546875
635,-0.08203125,-0.8828125,0.55859375
636,-0.078125,-0.88671875,0.55859375
637,-0.08203125,-0.88671875,0.55078125
638,-0.08203125,-0.8828125,0.5546875
639,-0.078125,-0.890625,0.546875
640,-0.078125,-0.88671875,0.5703125
641,-0.0859375,-0.8828125,0.54296875
642,-0.08203125,-0.88671875,0.546875
643,-0.0703125,-0.88671875,0.5703125
644,-0.0859375,-0.890625,0.546875
645,-0.078125,-0.8984375,0.55078125
646,-0.078125,-0.890625,0.54296875
647,-0.078125,-0.890625,0.5546875
648,-0.0859375,-0.88671875,0.5546875
649,-0.08203125,-0.8984375,0.546875
650,-0.0703125,-0.89453125,0.56640625
651,-0.08203125,-0.89453125,0.546875
652,-0.08203125,-0.88671875,0.5546875
653,-0.06640625,-0.88671875,0.55078125
654,-0.0859375,-0.8828125,0.546875
655,-0.07421875,-0.88671875,0.55859375
656,-0.078125,-0.89453125,0.54296875
657,-0.0703125,-0.89453125,0.54296875
658,-0.07421875,-0.8984375,0.53515625
659,-0.078125,-0.89453125,0.5546875
660,-0.0703125,-0.8984375,0.5390625
661,-0.0859375,-0.875,0.546875
662,-0.078125,-0.88671875,0.546875
663,-0.07421875,-0.88671875,0.5546875
664,-0.0859375,-0.8828125,0.54296875
665,-0.07421875,-0.8828125,0.53515625
666,-0.078125,-0.87890625,0.5390625
667,-0.08203125,-0.8984375,0.55859375
668,-0.07421875,-0.8828125,0.55078125
669,-0.0859375,-0.890625,0.55859375
670,-0.07421875,-0.890625,0.5625
671,-0.07421875,-0.890625,0.546875
672,-0.078125,-0.8828125,0.5546875
673,-0.08203125,-0.875,0.55859375
674,-0.07421875,-0.890625,0.5703125
675,-0.08203125,-0.890625,0.5546875
676,-0.08203125,-0.8984375,0.546875
677,-0.078125,-0.87109375,0.55078125
678,-0.08203125,-0.87890625,0.55859375
679,-0.07421875,-0.89453125,0.5546875
680,-0.07421875,-0.87890625,0.55859375
681,-0.0703125,-0.890625,0.546875
682,-0.08203125,-0.88671875,0.56640625
683,-0.07421875,-0.88671875,0.54296875
684,-0.0703125,-0.8828125,0.54296875
685,-0.08203125,-0.88671875,0.54296875
686,-0.078125,-0.8984375,0.55859375
687,-0.06640625,-0.89453125,0.5546875
688,-0.078125,-0.88671875,0.5390625
689,-0.07421875,-0.89453125,0.54296875
690,-0.078125,-0.890625,0.5390625
691,-0.0703125,-0.88671875,0.54296875
692,-0.078125,-0.8828125,0.55859375
693,-0.078125,-0.890625,0.53125
694,-0.07421875,-0.890625,0.546875
695,-0.078125,-0.8828125,0.546875
696,-0.08203125,-0.890625,0.5390625
697,-0.08203125,-0.87890625,0.546875
698,-0.0703125,-0.8828125,0.53515625
699,-0.08203125,-0.88671875,0.546875
700,-0.08203125,-0.8828125,0.55078125
701,-0.0703125,-0.8984375,0.54296875
702,-0.078125,-0.89453125,0.546875
703,-0.08984375,-0.89453125,0.54296875
704,-0.08203125,-0.890625,0.5546875
705,-0.0859375,-0.8984375,0.55078125
706,-0.078125,-0.8984375,0.55859375
707,-0.078125,-0.90234375,0.546875
708,-0.08203125,-0.890625,0.55078125
709,-0.078125,-0.890625,0.55078125
710,-0.0703125,-0.90234375,0.54296875
711,-0.078125,-0.8984375,0.55078125
712,-0.078125,-0.88671875,0.5546875
713,-0.08203125,-0.88671875,0.54296875
714,-0.06640625,-0.89453125,0.5390625
715,-0.0859375,-0.88671875,0.55859375
716,-0.0859375,-0.89453125,0.55078125
717,-0.0859375,-0.8984375,0.5546875
718,-0.06640625,-0.89453125,0.546875
719,-0.078125,-0.890625,0.5390625
720,-0.07421875,-0.89453125,0.5390625
721,-0.07421875,-0.88671875,0.546875
722,-0.0703125,-0.89453125,0.55078125
723,-0.08203125,-0.88671875,0.5546875
724,-0.078125,-0.890625,0.546875
725,-0.07421875,-0.89453125,0.55078125
726,-0.07421875,-0.90234375,0.54296875
727,-0.0859375,-0.890625,0.546875
728,-0.078125,-0.88671875,0.546875
729,-0.0859375,-0.890625,0.546875
730,-0.078125,-0.87890625,0.546875
731,-0.06640625,-0.8828125,0.53515625
732,-0.07421875,-0.890625,0.55859375
733,-0.0859375,-0.890625,0.55859375
734,-0.08203125,-0.890625,0.546875
735,-0.08203125,-0.89453125,0.546875
736,-0.08203125,-0.88671875,0.55078125
737,-0.07421875,-0.89453125,0.53515625
738,-0.078125,-0.89453125,0.55078125
739,-0.0703125,-0.88671875,0.546875
740,-0.08203125,-0.890625,0.55859375
741,-0.08203125,-0.890625,0.55078125
742,-0.0859375,-0.88671875,0.55078125
743,-0.0859375,-0.890625,0.54296875
744,-0.0703125,-0.8984375,0.56640625
745,-0.07421875,-0.890625,0.5546875
746,-0.078125,-0.88671875,0.5546875
747,-0.06640625,-0.8984375,0.53515625
748,-0.06640625,-0.90234375,0.55078125
749,-0.078125,-0.890625,0.5390625
750,-0.078125,-0.88671875,0.5390625
751,-0.078125,-0.90234375,0.5546875
752,-0.0859375,-0.8984375,0.5546875
753,-0.07421875,-0.890625,0.55078125
754,-0.078125,-0.890625,0.546875
755,-0.08203125,-0.89453125,0.5546875
756,-0.08203125,-0.88671875,0.546875
757,-0.0703125,-0.88671875,0.55078125
758,-0.08203125,-0.88671875,0.5390625
759,-0.07421875,-0.8828125,0.55078125
760,-0.078125,-0.9140625,0.54296875
761,-0.0703125,-0.8828125,0.5390625
762,-0.0703125,-0.89453125,0.5546875
763,-0.07421875,-0.8828125,0.55078125
764,-0.078125,-0.890625,0.546875
765,-0.0703125,-0.89453125,0.5546875
766,-0.08203125,-0.89453125,0.5546875
767,-0.08984375,-0.87890625,0.56640625
768,-0.078125,-0.90234375,0.546875
769,-0.09375,-0.89453125,0.5390625
770,-0.07421875,-0.90234375,0.53125
771,-0.0859375,-0.8828125,0.55078125
772,-0.08203125,-0.90234375,0.53515625
773,-0.08203125,-0.8984375,0.5390625
774,-0.0703125,-0.89453125,0.53125
775,-0.0859375,-0.890625,0.54296875
776,-0.0859375,-0.89453125,0.54296875
777,-0.08984375,-0.8828125,0.546875
778,-0.078125,-0.890625,0.5390625
779,-0.0703125,-0.90234375,0.54296875
780,-0.078125,-0.8828125,0.55078125
781,-0.078125,-0.88671875,0.5625
782,-0.0703125,-0.89453125,0.546875
783,-0.08203125,-0.88671875,0.55078125
784,-0.07421875,-0.890625,0.55078125
785,-0.08203125,-0.875,0.54296875
786,-0.08203125,-0.88671875,0.55078125
787,-0.0859375,-0.87890625,0.55078125
788,-0.07421875,-0.890625,0.546875
789,-0.09375,-0.8828125,0.53515625
790,-0.0703125,-0.89453125,0.5390625
791,-0.0703125,-0.8984375,0.546875
792,-0.07421875,-0.89453125,0.54296875
793,-0.08203125,-0.890625,0.53515625
794,-0.0859375,-0.8828125,0.55078125
795,-0.06640625,-0.90234375,0.546875
796,-0.07421875,-0.8984375,0.53515625
797,-0.08203125,-0.8828125,0.55078125
798,-0.078125,-0.890625,0.546875
799,-0.07421875,-0.8984375,0.54296875
800,-0.078125,-0.89453125,0.55078125
801,-0.07421875,-0.8984375,0.53515625
802,-0.08203125,-0.89453125,0.546875
803,-0.078125,-0.88671875,0.546875
804,-0.078125,-0.87890625,0.55078125
805,-0.078125,-0.8828125,0.55859375
806,-0.078125,-0.88671875,0.54296875
807,-0.078125,-0.8828125,0.546875
808,-0.08984375,-0.890625,0.546875
809,-0.0859375,-0.8828125,0.546875
810,-0.0703125,-0.875,0.5546875
811,-0.078125,-0.89453125,0.55859375
812,-0.078125,-0.88671875,0.5546875
813,-0.08984375,-0.88671875,0.5390625
814,-0.0859375,-0.88671875,0.5546875
815,-0.08203125,-0.89453125,0.55078125
816,-0.0703125,-0.890625,0.55859375
817,-0.07421875,-0.90234375,0.546875
818,-0.078125,-0.88671875,0.5390625
819,-0.07421875,-0.8984375,0.5546875
820,-0.078125,-0.90234375,0.546875
821,-0.08203125,-0.88671875,0.546875
822,-0.0859375,-0.88671875,0.5390625
823,-0.07421875,-0.89453125,0.5390625
824,-0.08984375,-0.88671875,0.55078125
825,-0.0859375,-0.88671875,0.546875
826,-0.08203125,-0.88671875,0.54296875
827,-0.078125,-0.88671875,0.52734375
828,-0.08203125,-0.8828125,0.546875
829,-0.0859375,-0.890625,0.546875
830,-0.07421875,-0.8984375,0.5625
831,-0.08203125,-0.8984375,0.5390625
832,-0.078125,-0.875,0.5625
833,-0.078125,-0.88671875,0.53515625
834,-0.078125,-0.890625,0.546875
835,-0.078125,-0.88671875,0.546875
836,-0.07421875,-0.89453125,0.5546875
837,-0.0859375,-0.88671875,0.546875
838,-0.06640625,-0.89453125,0.5546875
839,-0.0703125,-0.89453125,0.5390625
840,-0.0703125,-0.87890625,0.5390625
841,-0.09375,-0.890625,0.53515625
842,-0.0859375,-0.89453125,0.53515625
843,-0.07421875,-0.90234375,0.5546875
844,-0.07421875,-0.89453125,0.54296875
845,-0.0859375,-0.890625,0.5390625
846,-0.0859375,-0.8984375,0.53515625
847,-0.08203125,-0.88671875,0.52734375
848,-0.07421875,-0.87890625,0.54296875
849,-0.08984375,-0.8828125,0.53515625
850,-0.0703125,-0.890625,0.5390625
851,-0.07421875,-0.87890625,0.55078125
852,-0.07421875,-0.890625,0.54296875
853,-0.07421875,-0.90234375,0.5546875
854,-0.09375,-0.87109375,0.53125
855,-0.078125,-0.890625,0.53125
856,-0.0625,-0.890625,0.5390625
857,-0.08203125,-0.8984375,0.54296875
858,-0.078125,-0.88671875,0.546875
859,-0.07421875,-0.89453125,0.5546875
860,-0.0703125,-0.8828125,0.55078125
861,-0.07421875,-0.89453125,0.5390625
862,-0.078125,-0.890625,0.5390625
863,-0.0859375,-0.87890625,0.54296875
864,-0.078125,-0.89453125,0.55859375
865,-0.08984375,-0.87890625,0.55859375
866,-0.07421875,-0.8984375,0.5390625
867,-0.0859375,-0.90234375,0.53515625
868,-0.09375,-0.87890625,0.5625
869,-0.0859375,-0.8828125,0.54296875
870,-0.08984375,-0.88671875,0.55078125
871,-0.078125,-0.88671875,0.53515625
872,-0.07421875,-0.88671875,0.55078125
873,-0.08203125,-0.90234375,0.5390625
874,-0.08203125,-0.88671875,0.5390625
875,-0.08203125,-0.890625,0.54296875
876,-0.0703125,-0.89453125,0.5625
877,-0.078125,-0.8984375,0.54296875
878,-0.08203125,-0.90234375,0.546875
879,-0.07421875,-0.8984375,0.5390625
880,-0.078125,-0.90234375,0.5390625
881,-0.0859375,-0.87890625,0.53125
882,-0.08203125,-0.90234375,0.54296875
883,-0.07421875,-0.90625,0.55859375
884,-0.078125,-0.8984375,0.53125
885,-0.08984375,-0.89453125,0.5390625
886,-0.078125,-0.90234375,0.5390625
887,-0.0859375,-0.89453125,0.53515625
888,-0.078125,-0.8984375,0.546875
889,-0.06640625,-0.890625,0.5546875
890,-0.08203125,-0.88671875,0.53125
891,-0.0859375,-0.8828125,0.53515625
892,-0.08203125,-0.88671875,0.5234375
893,-0.06640625,-0.88671875,0.53125
894,-0.0703125,-0.875,0.53125
895,-0.06640625,-0.875,0.53125
896,-0.0703125,-0.87890625,0.515625
897,-0.08203125,-0.87890625,0.51953125
898,-0.06640625,-0.87109375,0.5390625
899,-0.08203125,-0.87109375,0.53125
900,-0.07421875,-0.86328125,0.546875
901,-0.09375,-0.8671875,0.53515625
902,-0.0859375,-0.875,0.5390625
903,-0.09375,-0.875,0.55078125
904,-0.0859375,-0.90234375,0.53125
905,-0.09375,-0.90625,0.5390625
906,-0.08984375,-0.9140625,0.53125
907,-0.078125,-0.9140625,0.53515625
908,-0.0703125,-0.92578125,0.52734375
909,-0.0703125,-0.921875,0.52734375
910,-0.078125,-0.9140625,0.5234375
911,-0.08984375,-0.91015625,0.51953125
912,-0.0859375,-0.90234375,0.5234375
913,-0.08203125,-0.8984375,0.5390625
914,-0.08203125,-0.8984375,0.54296875
915,-0.08984375,-0.890625,0.55078125
916,-0.09375,-0.890625,0.55859375
917,-0.078125,-0.88671875,0.55078125
918,-0.07421875,-0.890625,0.5625
919,-0.078125,-0.90625,0.55078125
920,-0.08984375,-0.87890625,0.55078125
921,-0.078125,-0.8828125,0.5546875
922,-0.08203125,-0.875,0.53515625
923,-0.0859375,-0.88671875,0.54296875
924,-0.0859375,-0.8828125,0.54296875
925,-0.0703125,-0.87890625,0.5390625
926,-0.08203125,-0.87890625,0.53515625
927,-0.06640625,-0.8984375,0.53125
928,-0.0625,-0.8828125,0.52734375
929,-0.05859375,-0.88671875,0.515625
930,-0.0625,-0.88671875,0.53125
931,-0.0625,-0.8984375,0.53515625
932,-0.0546875,-0.90234375,0.5234375
933,-0.0546875,-0.90625,0.51953125
934,-0.05859375,-0.90625,0.515625
935,-0.0625,-0.8984375,0.51953125
936,-0.0625,-0.921875,0.515625
937,-0.0703125,-0.91796875,0.51953125
938,-0.05859375,-0.921875,0.515625
939,-0.0625,-0.9140625,0.51953125
940,-0.0703125,-0.91015625,0.50390625
941,-0.0390625,-0.91796875,0.52734375
942,-0.0703125,-0.9140625,0.515625
943,-0.06640625,-0.92578125,0.49609375
944,-0.0703125,-0.90234375,0.50390625
945,-0.06640625,-0.91015625,0.4921875
946,-0.0625,-0.92578125,0.5
947,-0.05859375,-0.91796875,0.50390625
948,-0.06640625,-0.92578125,0.49609375
949,-0.07421875,-0.90234375,0.5
950,-0.078125,-0.91796875,0.49609375
951,-0.1015625,-0.90625,0.5
952,-0.078125,-0.91796875,0.49609375
953,-0.078125,-0.91015625,0.484375
954,-0.08203125,-0.91015625,0.48828125
955,-0.0859375,-0.921875,0.48828125
956,-0.078125,-0.9296875,0.48046875
957,-0.0703125,-0.921875,0.49609375
958,-0.078125,-0.921875,0.49609375
959,-0.0859375,-0.90234375,0.49609375
960,-0.08203125,-0.92578125,0.48828125
961,-0.078125,-0.90234375,0.48046875
962,-0.078125,-0.91015625,0.4921875
963,-0.05859375,-0.90234375,0.52734375
964,-0.08203125,-0.8984375,0.4921875
965,-0.078125,-0.90625,0.4921875
966,-0.078125,-0.90234375,0.48828125
967,-0.0703125,-0.91796875,0.4921875
968,-0.0859375,-0.92578125,0.4921875
969,-0.07421875,-0.91796875,0.48828125
970,-0.07421875,-0.9140625,0.5
971,-0.0859375,-0.921875,0.5
972,-0.08203125,-0.91015625,0.5078125
973,-0.078125,-0.91796875,0.5078125
974,-0.07421875,-0.92578125,0.4921875
975,-0.06640625,-0.92578125,0.5
976,-0.078125,-0.9140625,0.49609375
977,-0.078125,-0.91015625,0.4921875
978,-0.08203125,-0.921875,0.484375
979,-0.08984375,-0.91796875,0.4765625
980,-0.07421875,-0.95703125,0.50390625
981,-0.08984375,-0.96484375,0.484375
982,-0.08203125,-0.95703125,0.484375
983,-0.08984375,-0.9609375,0.484375
984,-0.0859375,-0.94140625,0.45703125
985,-0.08203125,-0.92578125,0.47265625
986,-0.078125,-0.921875,0.453125
987,-0.0703125,-0.921875,0.43359375
988,-0.0703125,-0.91796875,0.4453125
989,-0.07421875,-0.91796875,0.453125
990,-0.078125,-0.9140625,0.46484375
991,-0.06640625,-0.92578125,0.44921875
992,-0.05859375,-0.9375,0.4765625
993,-0.0546875,-0.9375,0.4609375
994,-0.05078125,-0.9375,0.453125
995,-0.06640625,-0.953125,0.4453125
996,-0.05859375,-0.95703125,0.4453125
997,-0.05078125,-0.9609375,0.4453125
998,-0.05859375,-0.96484375,0.42578125
999,-0.0625,-0.94921875,0.453125
1000,-0.06640625,-0.95703125,0.44140625
1001,-0.0546875,-0.96875,0.4375
1002,-0.0546875,-0.953125,0.4296875
1003,-0.05859375,-0.953125,0.43359375
1004,-0.0546875,-0.94921875,0.421875
1005,-0.05078125,-0.94921875,0.4375
1006,-0.0546875,-0.9375,0.4140625
1007,-0.0390625,-0.93359375,0.42578125
1008,-0.05859375,-0.9375,0.43359375
1009,-0.05078125,-0.953125,0.41796875
1010,-0.0625,-0.96875,0.41796875
1011,-0.06640625,-0.96875,0.41796875
1012,-0.0625,-0.9765625,0.4453125
1013,-0.0703125,-0.984375,0.4375
1014,-0.0703125,-0.97265625,0.44140625
1015,-0.078125,-0.97265625,0.453125
1016,-0.08984375,-0.96875,0.4609375
1017,-0.046875,-0.98828125,0.4296875
1018,-0.0625,-0.98828125,0.44140625
1019,-0.0546875,-0.99609375,0.4140625
1020,-0.03515625,-1.015625,0.41796875
1021,-0.0625,-1.00390625,0.43359375
1022,-0.0390625,-0.99609375,0.40625
1023,-0.046875,-1.0,0.3984375
1024,-0.046875,-1.00390625,0.41015625
1025,-0.0625,-1.00390625,0.390625
1026,-0.07421875,-1.0,0.39453125
1027,-0.0625,-1.0,0.39453125
1028,-0.046875,-1.01953125,0.41015625
1029,-0.0625,-1.01171875,0.3828125
1030,-0.06640625,-1.0078125,0.3984375
1031,-0.0703125,-1.0078125,0.38671875
1032,-0.0703125,-1.0078125,0.38671875
1033,-0.0625,-1.02734375,0.359375
1034,-0.05859375,-1.0234375,0.3515625
1035,-0.05078125,-1.04296875,0.359375
1036,-0.05859375,-1.02734375,0.328125
1037,-0.0546875,-1.046875,0.3515625
1038,-0.05078125,-1.05078125,0.3125
1039,-0.05078125,-1.05859375,0.3203125
1040,-0.046875,-1.0859375,0.30078125
1041,-0.0703125,-1.08984375,0.30859375
1042,-0.07421875,-1.08984375,0.27734375
1043,-0.09375,-1.10546875,0.28125
1044,-0.109375,-1.1171875,0.2578125
1045,-0.1171875,-1.125,0.25
1046,-0.1171875,-1.14453125,0.25
1047,-0.125,-1.14453125,0.21875
1048,-0.1015625,-1.16015625,0.23046875
1049,-0.1015625,-1.1640625,0.203125
1050,-0.09375,-1.15234375,0.203125
1051,-0.0859375,-1.16015625,0.1875
1052,-0.0859375,-1.1484375,0.1640625
1053,-0.06640625,-1.1640625,0.16015625
1054,-0.0546875,-1.1484375,0.15234375
1055,-0.04296875,-1.1328125,0.1484375
1056,-0.04296875,-1.12890625,0.14453125
1057,-0.03515625,-1.10546875,0.13671875
1058,-0.015625,-1.11328125,0.12890625
1059,-0.015625,-1.10546875,0.11328125
1060,-0.0078125,-1.10546875,0.1171875
1061,0.0,-1.09375,0.1171875
1062,-0.0078125,-1.09375,0.12109375
1063,-0.01953125,-1.08984375,0.109375
1064,-0.03515625,-1.08203125,0.10546875
1065,-0.02734375,-1.10546875,0.109375
1066,-0.03515625,-1.08984375,0.07421875
1067,-0.05078125,-1.10546875,0.06640625
1068,-0.05859375,-1.08984375,0.078125
1069,-0.06640625,-1.08984375,0.07421875
1070,-0.0703125,-1.08203125,0.05859375
1071,-0.06640625,-1.078125,0.0625
1072,-0.0703125,-1.0859375,0.03125
1073,-0.06640625,-1.078125,0.03125
1074,-0.05859375,-1.08984375,0.0234375
1075,-0.06640625,-1.08984375,0.015625
1076,-0.0546875,-1.10546875,0.0078125
1077,-0.0625,-1.10546875,0.0078125
1078,-0.07421875,-1.08984375,0.01171875
1079,-0.05859375,-1.09375,-0.0078125
1080,-0.0546875,-1.09765625,0.00390625
1081,-0.03515625,-1.09375,0.0078125
1082,-0.0546875,-1.08203125,0.0078125
1083,-0.06640625,-1.08203125,0.00390625
1084,-0.05859375,-1.05859375,-0.00390625
1085,-0.078125,-1.0546875,0.0078125
1086,-0.0703125,-1.0625,0.0078125
1087,-0.0625,-1.046875,0.0078125
1088,-0.0703125,-1.03515625,0.01171875
1089,-0.05859375,-1.0390625,0.0
1090,-0.0625,-1.05859375,0.0078125
1091,-0.05859375,-1.04296875,-0.03125
1092,-0.0390625,-1.0546875,-0.03515625
1093,-0.046875,-1.06640625,-0.0703125
1094,-0.02734375,-1.07421875,-0.06640625
1095,-0.01953125,-1.09375,-0.06640625
1096,-0.0390625,-1.06640625,-0.0703125
1097,-0.02734375,-1.08203125,-0.078125
1098,-0.03125,-1.07421875,-0.0546875
1099,-0.0546875,-1.0703125,-0.02734375
1100,-0.0546875,-1.05859375,-0.01171875
1101,-0.06640625,-1.04296875,-0.0078125
1102,-0.0703125,-1.03515625,0.01171875
1103,-0.07421875,-1.03515625,0.01171875
1104,-0.0859375,-1.0234375,0.00390625
1105,-0.06640625,-1.046875,0.01171875
1106,-0.07421875,-1.03515625,-0.0078125
1107,-0.05859375,-1.03515625,-0.015625
1108,-0.0546875,-1.05078125,-0.0234375
1109,-0.05859375,-1.0546875,-0.04296875
1110,-0.05078125,-1.0703125,-0.06640625
1111,-0.05078125,-1.07421875,-0.08203125
1112,-0.0546875,-1.0703125,-0.0703125
1113,-0.0625,-1.07421875,-0.08984375
1114,-0.05859375,-1.07421875,-0.07421875
1115,-0.05078125,-1.0859375,-0.06640625
1116,-0.04296875,-1.07421875,-0.07421875
1117,-0.046875,-1.07421875,-0.05078125
1118,-0.0390625,-1.06640625,-0.0390625
1119,-0.02734375,-1.05859375,-0.03515625
1120,-0.03515625,-1.02734375,-0.015625
1121,-0.01953125,-1.0234375,0.00390625
1122,-0.03515625,-1.015625,0.00390625
1123,-0.0234375,-1.0,0.00390625
1124,-0.01171875,-1.0,-0.01171875
1125,-0.00390625,-1.0,-0.02734375
1126,0.0,-1.0078125,-0.0625
1127,-0.00390625,-1.01171875,-0.09375
1128,0.0,-1.0390625,-0.12109375
1129,0.0,-1.05078125,-0.125
1130,-0.00390625,-1.06640625,-0.13671875
1131,-0.0078125,-1.08203125,-0.1484375
1132,0.0,-1.09765625,-0.15625
1133,-0.00390625,-1.09375,-0.1484375
1134,0.0,-1.09765625,-0.11328125
1135,-0.0078125,-1.08203125,-0.08203125
1136,-0.01171875,-1.05859375,-0.0625
1137,-0.0234375,-1.04296875,-0.04296875
1138,-0.02734375,-1.015625,-0.02734375
1139,-0.03515625,-0.9921875,-0.015625
1140,-0.015625,-0.97265625,-0.01171875
1141,-0.015625,-0.95703125,-0.0546875
1142,-0.03125,-0.9609375,-0.06640625
1143,-0.01953125,-0.953125,-0.09765625
1144,-0.01171875,-0.95703125,-0.1328125
1145,-0.00390625,-0.9609375,-0.1953125
1146,0.00390625,-0.98046875,-0.2265625
1147,0.0,-0.984375,-0.265625
1148,0.00390625,-1.0078125,-0.2890625
1149,0.00390625,-1.01953125,-0.30859375
1150,0.00390625,-1.04296875,-0.2890625
1151,0.00390625,-1.06640625,-0.26171875
1152,0.01171875,-1.078125,-0.25390625
1153,0.00390625,-1.0546875,-0.234375
1154,0.01171875,-1.05078125,-0.2109375
1155,0.015625,-1.01953125,-0.171875
1156,0.015625,-0.99609375,-0.16796875
1157,0.00390625,-0.96484375,-0.15234375
1158,0.00390625,-0.921875,-0.16015625
1159,0.0,-0.875,-0.1484375
1160,0.0078125,-0.8671875,-0.15234375
1161,0.0234375,-0.83203125,-0.15625
1162,0.015625,-0.80859375,-0.1796875
1163,0.015625,-0.78515625,-0.20703125
1164,0.02734375,-0.765625,-0.2421875
1165,0.015625,-0.73046875,-0.2578125
1166,0.03125,-0.7265625,-0.296875
1167,0.03515625,-0.7109375,-0.3203125
1168,0.01953125,-0.703125,-0.37890625
1169,0.01953125,-0.7109375,-0.41015625
1170,0.0078125,-0.70703125,-0.42578125
1171,0.00390625,-0.71484375,-0.421875
1172,0.01171875,-0.71875,-0.4140625
1173,0.01953125,-0.70703125,-0.40234375
1174,0.03125,-0.6796875,-0.39453125
1175,0.0390625,-0.64453125,-0.37890625
1176,0.0546875,-0.60546875,-0.3515625
1177,0.0546875,-0.5703125,-0.34765625
1178,0.0546875,-0.5390625,-0.2890625
1179,0.0390625,-0.515625,-0.26953125
1180,0.05078125,-0.46875,-0.25
1181,0.046875,-0.44140625,-0.234375
1182,0.046875,-0.390625,-0.2421875
1183,0.0390625,-0.3828125,-0.22265625
1184,0.0234375,-0.33203125,-0.23828125
1185,0.01171875,-0.31640625,-0.20703125
1186,0.0,-0.33203125,-0.2109375
1187,-0.00390625,-0.33203125,-0.19140625
1188,-0.015625,-0.34375,-0.18359375
1189,-0.04296875,-0.35546875,-0.140625
1190,-0.05859375,-0.35546875,-0.12890625
1191,-0.06640625,-0.3671875,-0.0859375
1192,-0.1171875,-0.3671875,-0.06640625
1193,-0.125,-0.3515625,-0.03125
1194,-0.125,-0.33984375,-0.00390625
1195,-0.14453125,-0.33203125,0.0078125
1196,-0.13671875,-0.32421875,0.01953125
1197,-0.13671875,-0.3359375,0.03125
1198,-0.14453125,-0.3515625,0.0078125
1199,-0.12890625,-0.3671875,0.0
1200,-0.12109375,-0.37890625,-0.06640625
1201,-0.109375,-0.41015625,-0.11328125
1202,-0.10546875,-0.4296875,-0.17578125
1203,-0.10546875,-0.4765625,-0.20703125
1204,-0.08984375,-0.5234375,-0.234375
1205,-0.05078125,-0.61328125,-0.23828125
1206,-0.01953125,-0.7109375,-0.18359375
1207,0.03125,-0.84375,-0.1328125
1208,0.05078125,-1.0,-0.09765625
1209,0.05859375,-1.15234375,-0.015625
1210,0.04296875,-1.265625,0.0703125
1211,0.0,-1.328125,0.13671875
1212,-0.046875,-1.421875,0.2578125
1213,-0.07421875,-1.390625,0.23046875
1214,-0.046875,-1.34375,0.234375
1215,-0.0703125,-1.3046875,0.24609375
1216,-0.0703125,-1.30859375,0.26953125
1217,-0.0703125,-1.3671875,0.30859375
1218,-0.03125,-1.484375,0.3671875
1219,-0.015625,-1.65234375,0.46875
1220,-0.015625,-1.890625,0.5234375
1221,-0.01171875,-2.1640625,0.5390625
1222,-0.0625,-2.44140625,0.62890625
1223,-0.08203125,-2.69921875,0.87109375
1224,-0.17578125,-3.140625,1.41015625
1225,-0.34765625,-3.9375,1.5703125
1226,-0.3671875,-3.79296875,0.05859375
1227,-0.23046875,-2.8828125,-0.7578125
1228,0.1171875,-2.0234375,-0.703125
1229,0.04296875,-1.4375,-0.4296875
1230,0.0,-1.08984375,-0.25390625
1231,-0.109375,-0.875,-0.22265625
1232,-0.2265625,-0.8828125,0.00390625
1233,-0.26171875,-1.125,0.203125
1234,-0.28125,-1.37890625,0.30859375
1235,-0.2421875,-1.578125,0.359375
1236,-0.1953125,-1.63671875,0.4140625
1237,-0.1328125,-1.55078125,0.3984375
1238,-0.0859375,-1.40625,0.3984375
1239,-0.109375,-1.21875,0.44140625
1240,-0.1640625,-1.05078125,0.51171875
1241,-0.11328125,-0.8515625,0.5234375
1242,-0.07421875,-0.7265625,0.51953125
1243,-0.01953125,-0.6015625,0.515625
1244,0.0,-0.484375,0.57421875
1245,-0.015625,-0.4140625,0.65234375
1246,-0.05859375,-0.40625,0.77734375
1247,-0.08984375,-0.44140625,0.82421875
1248,-0.1015625,-0.5078125,0.859375
1249,-0.09765625,-0.5703125,0.84765625
1250,-0.0859375,-0.6328125,0.79296875
1251,-0.09765625,-0.71484375,0.7421875
1252,-0.07421875,-0.76171875,0.625
1253,-0.03125,-0.765625,0.48046875
1254,0.015625,-0.74609375,0.3671875
1255,0.046875,-0.70703125,0.33203125
1256,0.03515625,-0.65234375,0.34765625
1257,0.01171875,-0.6328125,0.41015625
1258,0.015625,-0.6640625,0.4609375
1259,0.02734375,-0.6953125,0.45703125
1260,0.01171875,-0.765625,0.46875
1261,0.03515625,-0.8671875,0.48828125
1262,0.015625,-0.9765625,0.5078125
1263,0.0078125,-1.05859375,0.55078125
1264,-0.0390625,-1.1171875,0.62109375
1265,-0.06640625,-1.19140625,0.66015625
1266,-0.08984375,-1.25,0.69921875
1267,-0.09375,-1.2578125,0.75
1268,-0.11328125,-1.29296875,0.72265625
1269,-0.1015625,-1.29296875,0.6796875
1270,-0.078125,-1.265625,0.609375
1271,-0.05859375,-1.265625,0.58203125
1272,-0.0234375,-1.2109375,0.50390625
1273,0.0,-1.1328125,0.484375
1274,-0.0078125,-1.04296875,0.45703125
1275,-0.015625,-0.9765625,0.4140625
1276,-0.0390625,-0.9140625,0.39453125
1277,-0.04296875,-0.83984375,0.38671875
1278,-0.05859375,-0.7890625,0.38671875
1279,-0.046875,-0.7578125,0.359375
1280,-0.03515625,-0.74609375,0.328125
1281,-0.0234375,-0.73046875,0.328125
1282,-0.04296875,-0.73046875,0.37109375
1283,-0.046875,-0.7265625,0.3671875
1284,-0.05859375,-0.74609375,0.38671875
1285,-0.0703125,-0.76171875,0.4296875
1286,-0.078125,-0.7734375,0.46484375
1287,-0.07421875,-0.8203125,0.4609375
1288,-0.07421875,-0.84375,0.484375
1289,-0.06640625,-0.859375,0.484375
1290,-0.0703125,-0.87109375,0.48046875
1291,-0.05859375,-0.8828125,0.48046875
1292,-0.0703125,-0.90234375,0.47265625
1293,-0.07421875,-0.90625,0.4609375
1294,-0.0859375,-0.90234375,0.4609375
1295,-0.109375,-0.89453125,0.47265625
1296,-0.10546875,-0.8984375,0.48828125
1297,-0.125,-0.90234375,0.5
1298,-0.12109375,-0.91015625,0.5078125
1299,-0.12109375,-0.921875,0.52734375
1300,-0.125,-0.93359375,0.51953125
1301,-0.12109375,-0.94140625,0.53515625
1302,-0.109375,-0.95703125,0.53515625
1303,-0.10546875,-0.953125,0.53125
1304,-0.08984375,-0.96484375,0.53125
1305,-0.08203125,-0.953125,0.52734375
1306,-0.078125,-0.9453125,0.515625
1307,-0.078125,-0.9296875,0.52734375
1308,-0.07421875,-0.92578125,0.52734375
1309,-0.078125,-0.90234375,0.5234375
1310,-0.0703125,-0.90625,0.5234375
1311,-0.078125,-0.88671875,0.53125
1312,-0.0703125,-0.8828125,0.52734375
1313,-0.07421875,-0.875,0.5234375
1314,-0.0703125,-0.89453125,0.5234375
1315,-0.0625,-0.8984375,0.52734375
1316,-0.06640625,-0.91015625,0.5234375
1317,-0.06640625,-0.9140625,0.5234375
1318,-0.0625,-0.9140625,0.515625
1319,-0.07421875,-0.90625,0.51953125
1320,-0.07421875,-0.91015625,0.515625
1321,-0.08203125,-0.91015625,0.51171875
1322,-0.09765625,-0.88671875,0.5234375
1323,-0.08984375,-0.88671875,0.51953125
1324,-0.09375,-0.875,0.5078125
1325,-0.0625,-0.8671875,0.51171875
1326,-0.07421875,-0.8671875,0.52734375
1327,-0.06640625,-0.86328125,0.51953125
1328,-0.0625,-0.875,0.5234375
1329,-0.0703125,-0.875,0.5546875
1330,-0.07421875,-0.87890625,0.54296875
1331,-0.0625,-0.88671875,0.55859375
1332,-0.05859375,-0.890625,0.55078125
1333,-0.05859375,-0.90234375,0.5546875
1334,-0.0703125,-0.90625,0.546875
1335,-0.05078125,-0.9140625,0.5390625
1336,-0.046875,-0.92578125,0.5625
1337,-0.04296875,-0.9140625,0.5390625
1338,-0.03515625,-0.91796875,0.53515625
1339,-0.046875,-0.9140625,0.53125
1340,-0.0546875,-0.9140625,0.51953125
1341,-0.0625,-0.8984375,0.51171875
1342,-0.0703125,-0.8984375,0.51171875
1343,-0.0703125,-0.890625,0.515625
1344,-0.06640625,-0.90234375,0.515625
1345,-0.08203125,-0.90625,0.515625
1346,-0.08984375,-0.89453125,0.51953125
1347,-0.08203125,-0.8984375,0.51953125
1348,-0.08984375,-0.90234375,0.515625
1349,-0.0859375,-0.90625,0.53515625
1350,-0.09375,-0.8984375,0.5234375
1351,-0.09765625,-0.8984375,0.4765625
1352,-0.0625,-0.91015625,0.51171875
1353,-0.0703125,-0.90625,0.515625
1354,-0.08203125,-0.91015625,0.5390625
1355,-0.08203125,-0.89453125,0.52734375
1356,-0.0703125,-0.90234375,0.53515625
1357,-0.06640625,-0.890625,0.52734375
1358,-0.07421875,-0.88671875,0.54296875
1359,-0.05859375,-0.89453125,0.55859375
1360,-0.06640625,-0.90625,0.54296875
1361,-0.05859375,-0.921875,0.546875
1362,-0.06640625,-0.91015625,0.5390625
1363,-0.0859375,-0.90625,0.546875
1364,-0.078125,-0.91015625,0.5703125
1365,-0.0703125,-0.91796875,0.5546875
1366,-0.06640625,-0.91796875,0.55859375
1367,-0.0703125,-0.8984375,0.53515625
1368,-0.0703125,-0.90234375,0.546875
1369,-0.07421875,-0.91015625,0.53515625
1370,-0.07421875,-0.91015625,0.53125
1371,-0.078125,-0.90234375,0.5234375
1372,-0.0859375,-0.91015625,0.52734375
1373,-0.0703125,-0.890625,0.53125
1374,-0.0859375,-0.90234375,0.52734375
1375,-0.08203125,-0.89453125,0.51953125
1376,-0.078125,-0.8984375,0.50390625
1377,-0.078125,-0.89453125,0.5234375
1378,-0.08203125,-0.89453125,0.5234375
1379,-0.08203125,-0.90234375,0.515625
1380,-0.0859375,-0.8984375,0.53125
1381,-0.08203125,-0.90625,0.51953125
1382,-0.0859375,-0.8984375,0.51953125
1383,-0.078125,-0.91015625,0.5234375
1384,-0.08984375,-0.890625,0.51953125
1385,-0.0859375,-0.91015625,0.5390625
1386,-0.078125,-0.91796875,0.53125
1387,-0.08203125,-0.91015625,0.53515625
1388,-0.08984375,-0.91796875,0.53125
1389,-0.0703125,-0.91796875,0.53515625
1390,-0.08984375,-0.90625,0.51953125
1391,-0.07421875,-0.91796875,0.5234375
1392,-0.0859375,-0.90625,0.53515625
1393,-0.08203125,-0.8984375,0.5234375
1394,-0.078125,-0.91015625,0.5390625
1395,-0.07421875,-0.92578125,0.57421875
1396,-0.0546875,-0.890625,0.53125
1397,-0.09375,-0.921875,0.52734375
1398,-0.08984375,-0.921875,0.54296875
1399,-0.078125,-0.92578125,0.54296875
1400,-0.046875,-0.90625,0.515625
1401,-0.0859375,-0.90234375,0.515625
1402,-0.125,-0.91796875,0.5078125
1403,-0.078125,-0.87890625,0.4765625
1404,-0.02734375,-0.88671875,0.515625
1405,-0.046875,-0.890625,0.51953125
1406,-0.05859375,-0.8984375,0.54296875
1407,-0.07421875,-0.88671875,0.5390625
1408,-0.06640625,-0.8984375,0.53125
1409,-0.046875,-0.89453125,0.51953125
1410,-0.078125,-0.88671875,0.5
1411,-0.0625,-0.87890625,0.55859375
1412,-0.0546875,-0.890625,0.546875
1413,-0.0703125,-0.89453125,0.5234375
1414,-0.06640625,-0.91796875,0.53125
1415,-0.05078125,-0.9140625,0.5390625
1416,-0.0703125,-0.91796875,0.5
1417,-0.07421875,-0.90234375,0.5625
1418,-0.09765625,-0.91015625,0.53515625
1419,-0.06640625,-0.9375,0.52734375
1420,-0.09765625,-0.91015625,0.53125
1421,-0.0703125,-0.90625,0.53125
1422,-0.07421875,-0.9140625,0.52734375
1423,-0.07421875,-0.8984375,0.52734375
1424,-0.0703125,-0.890625,0.53125
1425,-0.05859375,-0.89453125,0.54296875
1426,-0.09765625,-0.89453125,0.515625
1427,-0.07421875,-0.87890625,0.49609375
1428,-0.046875,-0.875,0.50390625
1429,-0.06640625,-0.91015625,0.54296875
1430,-0.11328125,-0.875,0.54296875
1431,-0.12890625,-0.9140625,0.515625
1432,-0.07421875,-0.86328125,0.5078125
1433,-0.0859375,-0.93359375,0.5390625
1434,-0.13671875,-0.90234375,0.5234375
1435,-0.05078125,-0.8984375,0.57421875
1436,-0.078125,-0.91015625,0.51953125
1437,-0.0703125,-0.9140625,0.5390625
1438,-0.06640625,-0.89453125,0.5234375
1439,-0.078125,-0.91015625,0.52734375
1440,-0.08203125,-0.90625,0.5234375
1441,-0.109375,-0.8828125,0.5078125
1442,-0.0546875,-0.87109375,0.5234375
1443,-0.11328125,-0.8828125,0.52734375
1444,-0.0703125,-0.91015625,0.51953125
1445,-0.0625,-0.91015625,0.546875
1446,-0.0703125,-0.890625,0.53125
1447,-0.07421875,-0.88671875,0.515625
1448,-0.0625,-0.8984375,0.53125
1449,-0.0625,-0.89453125,0.58203125
1450,-0.06640625,-0.91015625,0.5234375
1451,-0.06640625,-0.8984375,0.53125
1452,-0.05859375,-0.91015625,0.5234375
1453,-0.0625,-0.91015625,0.53515625
1454,-0.08203125,-0.90234375,0.5390625
1455,-0.03125,-0.953125,0.54296875
1456,-0.11328125,-0.89453125,0.5546875
1457,-0.0625,-0.87890625,0.5625
1458,-0.09765625,-0.87890625,0.5
1459,-0.0859375,-0.87890625,0.55859375
1460,-0.0390625,-0.84765625,0.48046875
1461,-0.07421875,-0.8984375,0.546875
1462,-0.09375,-0.91796875,0.515625
1463,-0.0703125,-0.875,0.54296875
1464,-0.0703125,-0.90625,0.52734375
1465,-0.08203125,-0.91015625,0.52734375
1466,-0.0703125,-0.90234375,0.5390625
1467,-0.0859375,-0.90234375,0.53125
1468,-0.08203125,-0.8984375,0.53125
1469,-0.0703125,-0.91015625,0.54296875
1470,-0.08203125,-0.91015625,0.54296875
1471,-0.078125,-0.921875,0.52734375
1472,-0.078125,-0.89453125,0.5546875
1473,-0.0859375,-0.9140625,0.4765625
1474,-0.07421875,-0.90625,0.53515625
1475,-0.06640625,-0.89453125,0.51171875
1476,-0.06640625,-0.8984375,0.51953125
1477,-0.078125,-0.90625,0.51953125
1478,-0.0703125,-0.90234375,0.515625
1479,-0.06640625,-0.9375,0.5
1480,-0.07421875,-0.89453125,0.5
1481,-0.07421875,-0.88671875,0.53515625
1482,-0.0703125,-0.8984375,0.546875
1483,-0.0703125,-0.91015625,0.5390625
1484,-0.078125,-0.89453125,0.52734375
1485,-0.0625,-0.9140625,0.52734375
1486,-0.08203125,-0.91796875,0.5703125
1487,-0.08203125,-0.875,0.49609375
1488,-0.06640625,-0.91015625,0.5703125
1489,-0.09375,-0.8984375,0.55078125
1490,-0.05078125,-0.89453125,0.5078125
1491,-0.0703125,-0.8984375,0.53125
1492,-0.03125,-0.9453125,0.4921875
1493,-0.0703125,-0.90234375,0.5390625
1494,-0.06640625,-0.89453125,0.52734375
1495,-0.07421875,-0.90234375,0.546875
1496,-0.0703125,-0.8984375,0.515625
1497,-0.06640625,-0.90234375,0.5234375
1498,-0.07421875,-0.8984375,0.5390625
1499,-0.0703125,-0.91796875,0.52734375
1500,-0.06640625,-0.90625,0.5390625
1501,-0.078125,-0.8984375,0.5234375
1502,-0.0703125,-0.90625,0.52734375
1503,-0.07421875,-0.90234375,0.51953125
1504,-0.07421875,-0.91015625,0.5390625
1505,-0.07421875,-0.89453125,0.55078125
1506,-0.08203125,-0.921875,0.48828125
1507,-0.08203125,-0.890625,0.53125
1508,-0.0703125,-0.90234375,0.546875
1509,-0.06640625,-0.89453125,0.53515625
1510,-0.08203125,-0.90234375,0.54296875
1511,-0.03515625,-0.875,0.515625
1512,-0.08203125,-0.8828125,0.5390625
1513,-0.08203125,-0.8984375,0.53125
1514,-0.07421875,-0.8984375,0.5234375
1515,-0.078125,-0.90234375,0.53515625
1516,-0.07421875,-0.90625,0.53515625
1517,-0.07421875,-0.89453125,0.53125
1518,-0.07421875,-0.90234375,0.53515625
1519,-0.06640625,-0.890625,0.53515625
1520,-0.07421875,-0.89453125,0.53125
1521,-0.0703125,-0.89453125,0.546875
1522,-0.06640625,-0.89453125,0.53515625
1523,-0.07421875,-0.89453125,0.54296875
1524,-0.07421875,-0.8984375,0.5390625
1525,-0.0625,-0.91796875,0.5234375
1526,-0.078125,-0.89453125,0.53125
1527,-0.07421875,-0.890625,0.53515625
1528,-0.0703125,-0.890625,0.5390625
1529,-0.06640625,-0.8984375,0.52734375
1530,-0.0625,-0.91015625,0.53125
1531,-0.06640625,-0.90234375,0.5234375
1532,-0.078125,-0.890625,0.53515625
1533,-0.078125,-0.890625,0.53515625
1534,-0.07421875,-0.88671875,0.5390625
1535,-0.0859375,-0.8984375,0.53515625
1536,-0.07421875,-0.890625,0.5390625
1537,-0.07421875,-0.8984375,0.53515625
1538,-0.078125,-0.89453125,0.54296875
1539,-0.07421875,-0.90234375,0.54296875
1540,-0.078125,-0.91015625,0.53125
1541,-0.0703125,-0.90234375,0.546875
1542,-0.07421875,-0.89453125,0.53515625
1543,-0.0703125,-0.90234375,0.5390625
1544,-0.08203125,-0.90234375,0.54296875
1545,-0.08203125,-0.90625,0.546875
1546,-0.0703125,-0.9140625,0.53515625
1547,-0.07421875,-0.90234375,0.546875
1548,-0.06640625,-0.91015625,0.51953125
1549,-0.0859375,-0.88671875,0.51953125
1550,-0.07421875,-0.8984375,0.52734375
1551,-0.08203125,-0.90234375,0.53515625
1552,-0.0703125,-0.90234375,0.53125
1553,-0.08203125,-0.90234375,0.52734375
1554,-0.08984375,-0.89453125,0.51171875
1555,-0.08203125,-0.90234375,0.54296875
1556,-0.08203125,-0.89453125,0.546875
1557,-0.07421875,-0.89453125,0.55078125
1558,-0.08203125,-0.890625,0.546875
1559,-0.08203125,-0.89453125,0.5390625
1560,-0.07421875,-0.89453125,0.5234375
1561,-0.0625,-0.88671875,0.546875
1562,-0.078125,-0.890625,0.54296875
1563,-0.0703125,-0.87890625,0.546875
1564,-0.08203125,-0.90234375,0.546875
1565,-0.09765625,-0.890625,0.53515625
1566,-0.08203125,-0.89453125,0.546875
1567,-0.078125,-0.90234375,0.52734375
1568,-0.07421875,-0.90625,0.546875
1569,-0.09765625,-0.90625,0.53515625
1570,-0.08203125,-0.89453125,0.53515625
1571,-0.09375,-0.90234375,0.53515625
1572,-0.078125,-0.890625,0.546875
1573,-0.08203125,-0.89453125,0.53125
1574,-0.07421875,-0.90234375,0.53125
1575,-0.07421875,-0.90234375,0.53125
1576,-0.078125,-0.89453125,0.5390625
1577,-0.08984375,-0.8828125,0.51953125
1578,-0.05859375,-0.90625,0.546875
1579,-0.07421875,-0.8984375,0.5390625
1580,-0.08203125,-0.91015625,0.53125
1581,-0.07421875,-0.890625,0.5234375
1582,-0.08203125,-0.90625,0.53515625
1583,-0.078125,-0.8984375,0.55078125
1584,-0.0703125,-0.89453125,0.53515625
1585,-0.0703125,-0.8984375,0.53125
1586,-0.08203125,-0.8984375,0.5390625
1587,-0.07421875,-0.890625,0.53125
1588,-0.06640625,-0.8984375,0.53125
1589,-0.0703125,-0.90234375,0.5390625
1590,-0.06640625,-0.90625,0.52734375
1591,-0.07421875,-0.875,0.53125
1592,-0.08203125,-0.90234375,0.53515625
1593,-0.0703125,-0.90625,0.54296875
1594,-0.08203125,-0.88671875,0.53125
1595,-0.0703125,-0.90234375,0.52734375
1596,-0.08203125,-0.90234375,0.53515625
1597,-0.0703125,-0.91015625,0.53515625
1598,-0.0859375,-0.90625,0.546875
1599,-0.07421875,-0.8984375,0.53515625
1600,-0.08203125,-0.89453125,0.52734375
1601,-0.08984375,-0.90625,0.52734375
1602,-0.08984375,-0.8984375,0.546875
1603,-0.078125,-0.90234375,0.5234375
1604,-0.08203125,-0.90625,0.5390625
1605,-0.07421875,-0.8984375,0.54296875
1606,-0.08203125,-0.89453125,0.53515625
1607,-0.08203125,-0.91015625,0.52734375
1608,-0.078125,-0.89453125,0.5234375
1609,-0.07421875,-0.90234375,0.54296875
1610,-0.08203125,-0.90625,0.51171875
1611,-0.078125,-0.90625,0.51953125
1612,-0.0859375,-0.89453125,0.53125
1613,-0.0625,-0.890625,0.55859375
1614,-0.078125,-0.8984375,0.5234375
1615,-0.078125,-0.90625,0.5390625
1616,-0.078125,-0.90625,0.54296875
1617,-0.0703125,-0.9140625,0.53515625
1618,-0.078125,-0.90234375,0.53515625
1619,-0.078125,-0.90625,0.5234375
1620,-0.0859375,-0.8984375,0.53515625
1621,-0.08203125,-0.8984375,0.5234375
1622,-0.08203125,-0.89453125,0.52734375
1623,-0.078125,-0.90234375,0.51171875
1624,-0.0703125,-0.8984375,0.53515625
1625,-0.078125,-0.90625,0.52734375
1626,-0.06640625,-0.90625,0.52734375
1627,-0.078125,-0.8984375,0.53125
1628,-0.0703125,-0.8984375,0.5390625
1629,-0.08203125,-0.8984375,0.52734375
1630,-0.078125,-0.8984375,0.53125
1631,-0.08203125,-0.89453125,0.53125
1632,-0.08203125,-0.90234375,0.5234375
1633,-0.0703125,-0.8984375,0.53125
1634,-0.0625,-0.88671875,0.53515625
1635,-0.07421875,-0.8984375,0.5234375
1636,-0.08203125,-0.8984375,0.53515625
1637,-0.06640625,-0.90234375,0.5234375
1638,-0.078125,-0.89453125,0.5234375
1639,-0.08203125,-0.90234375,0.5390625
1640,-0.0859375,-0.90234375,0.53515625
1641,-0.078125,-0.90234375,0.53515625
1642,-0.08203125,-0.89453125,0.53515625
1643,-0.08203125,-0.90625,0.54296875
1644,-0.078125,-0.90234375,0.51953125
1645,-0.08203125,-0.90625,0.54296875
1646,-0.078125,-0.90234375,0.54296875
1647,-0.07421875,-0.89453125,0.5390625
1648,-0.07421875,-0.90234375,0.53515625
1649,-0.07421875,-0.90625,0.52734375
1650,-0.08203125,-0.90625,0.53125
1651,-0.0859375,-0.89453125,0.5234375
1652,-0.08203125,-0.89453125,0.53125
1653,-0.07421875,-0.890625,0.51953125
1654,-0.0703125,-0.91015625,0.53515625
1655,-0.08203125,-0.890625,0.5234375
1656,-0.08203125,-0.89453125,0.5234375
1657,-0.07421875,-0.91015625,0.53515625
1658,-0.0859375,-0.88671875,0.5234375
1659,-0.08203125,-0.90625,0.51171875
1660,-0.08203125,-0.90234375,0.515625
1661,-0.08203125,-0.90625,0.53125
1662,-0.078125,-0.8984375,0.5390625
1663,-0.08203125,-0.8984375,0.53515625
1664,-0.08203125,-0.89453125,0.5390625
1665,-0.08203125,-0.90625,0.52734375
1666,-0.078125,-0.8984375,0.53125
1667,-0.0859375,-0.9140625,0.52734375
1668,-0.07421875,-0.91015625,0.5234375
1669,-0.078125,-0.91015625,0.53515625
1670,-0.0859375,-0.90234375,0.5234375
1671,-0.078125,-0.90625,0.5234375
1672,-0.07421875,-0.91015625,0.51953125
1673,-0.0859375,-0.8984375,0.52734375
1674,-0.07421875,-0.8984375,0.52734375
1675,-0.078125,-0.9140625,0.53515625
1676,-0.078125,-0.8984375,0.53125
1677,-0.07421875,-0.91015625,0.515625
1678,-0.08203125,-0.90234375,0.52734375
1679,-0.07421875,-0.90625,0.52734375
1680,-0.08203125,-0.88671875,0.52734375
1681,-0.0859375,-0.890625,0.52734375
1682,-0.078125,-0.90234375,0.53125
1683,-0.07421875,-0.90625,0.52734375
1684,-0.078125,-0.91015625,0.52734375
1685,-0.078125,-0.8984375,0.53125
1686,-0.07421875,-0.91015625,0.53125
1687,-0.078125,-0.8984375,0.54296875
1688,-0.0859375,-0.89453125,0.52734375
1689,-0.0859375,-0.90625,0.5234375
1690,-0.078125,-0.91015625,0.51953125
1691,-0.08984375,-0.8984375,0.51953125
1692,-0.08203125,-0.90234375,0.515625
1693,-0.078125,-0.90234375,0.51953125
1694,-0.08203125,-0.90234375,0.53125
1695,-0.07421875,-0.91015625,0.53515625
1696,-0.078125,-0.90234375,0.5390625
1697,-0.08203125,-0.90234375,0.53125
1698,-0.078125,-0.8984375,0.53125
1699,-0.0625,-0.91015625,0.53125
1700,-0.07421875,-0.8828125,0.52734375
1701,-0.0859375,-0.88671875,0.5234375
1702,-0.0703125,-0.90234375,0.5234375
1703,-0.06640625,-0.90625,0.52734375
1704,-0.0859375,-0.89453125,0.51953125
1705,-0.07421875,-0.89453125,0.53125
1706,-0.078125,-0.89453125,0.51953125
1707,-0.07421875,-0.91015625,0.5234375
1708,-0.08203125,-0.90234375,0.51171875
1709,-0.08203125,-0.89453125,0.53125
1710,-0.07421875,-0.87890625,0.52734375
1711,-0.0859375,-0.90625,0.5234375
1712,-0.078125,-0.90625,0.515625
1713,-0.08203125,-0.91015625,0.51953125
1714,-0.0859375,-0.8984375,0.51953125
1715,-0.078125,-0.91015625,0.53125
1716,-0.07421875,-0.8984375,0.51953125
1717,-0.08203125,-0.8984375,0.515625
1718,-0.08203125,-0.91015625,0.515625
1719,-0.08203125,-0.91015625,0.53515625
1720,-0.0859375,-0.90625,0.51171875
1721,-0.08203125,-0.91015625,0.52734375
1722,-0.0625,-0.90234375,0.5390625
1723,-0.08203125,-0.90625,0.515625
1724,-0.07421875,-0.91015625,0.51953125
1725,-0.078125,-0.88671875,0.51171875
1726,-0.0859375,-0.90234375,0.51953125
1727,-0.08203125,-0.91015625,0.51171875
1728,-0.08203125,-0.90234375,0.52734375
1729,-0.08203125,-0.9140625,0.5234375
1730,-0.0859375,-0.90234375,0.53515625
1731,-0.08203125,-0.90234375,0.515625
1732,-0.09375,-0.8984375,0.5390625
1733,-0.08984375,-0.90625,0.51953125
1734,-0.0859375,-0.91015625,0.53125
1735,-0.08984375,-0.90625,0.51953125
1736,-0.1015625,-0.8984375,0.52734375
1737,-0.08203125,-0.8984375,0.52734375
1738,-0.09765625,-0.8984375,0.515625
1739,-0.0859375,-0.90625,0.53515625
1740,-0.08203125,-0.90625,0.5234375
1741,-0.0859375,-0.90625,0.52734375
1742,-0.08984375,-0.9140625,0.53515625
1743,-0.09375,-0.89453125,0.5234375
1744,-0.08203125,-0.90625,0.515625
1745,-0.09375,-0.90625,0.51953125
1746,-0.09375,-0.9140625,0.52734375
1747,-0.0859375,-0.921875,0.53515625
1748,-0.08984375,-0.91015625,0.53515625
1749,-0.09375,-0.91015625,0.53125
1750,-0.08984375,-0.90234375,0.51953125
1751,-0.0859375,-0.8984375,0.53515625
1752,-0.08984375,-0.890625,0.515625
1753,-0.09375,-0.91015625,0.52734375
1754,-0.078125,-0.8984375,0.5390625
1755,-0.08203125,-0.90625,0.5234375
1756,-0.08203125,-0.89453125,0.54296875
1757,-0.08203125,-0.90234375,0.52734375
1758,-0.078125,-0.90625,0.52734375
1759,-0.0859375,-0.89453125,0.51953125
1760,-0.08203125,-0.88671875,0.53515625
1761,-0.078125,-0.90234375,0.52734375
1762,-0.078125,-0.8984375,0.53125
1763,-0.08203125,-0.88671875,0.52734375
1764,-0.0703125,-0.8984375,0.51953125
1765,-0.07421875,-0.890625,0.53515625
1766,-0.0625,-0.8984375,0.54296875
1767,-0.06640625,-0.8984375,0.5234375
1768,-0.0703125,-0.89453125,0.53125
1769,-0.08203125,-0.88671875,0.546875
1770,-0.05859375,-0.90234375,0.53125
1771,-0.06640625,-0.90625,0.5234375
1772,-0.0625,-0.90234375,0.51171875
1773,-0.07421875,-0.8984375,0.5078125
1774,-0.05859375,-0.90234375,0.53125
1775,-0.05859375,-0.91796875,0.53125
1776,-0.07421875,-0.9140625,0.53125
1777,-0.0703125,-0.91015625,0.51953125
1778,-0.06640625,-0.9140625,0.51953125
1779,-0.08203125,-0.90625,0.51953125
1780,-0.06640625,-0.91015625,0.53125
1781,-0.078125,-0.9140625,0.5234375
1782,-0.08203125,-0.91796875,0.51953125
1783,-0.08203125,-0.90625,0.51953125
1784,-0.078125,-0.9140625,0.5234375
1785,-0.08984375,-0.8984375,0.53515625
1786,-0.09765625,-0.8984375,0.52734375
1787,-0.078125,-0.9140625,0.55078125
1788,-0.09375,-0.90234375,0.515625
1789,-0.0859375,-0.90625,0.51171875
1790,-0.08984375,-0.8984375,0.515625
1791,-0.08984375,-0.90234375,0.5234375
1792,-0.0859375,-0.91015625,0.51953125
1793,-0.1015625,-0.89453125,0.51171875
1794,-0.09765625,-0.89453125,0.51953125
1795,-0.08984375,-0.90625,0.5234375
1796,-0.08203125,-0.91015625,0.54296875
1797,-0.08203125,-0.90234375,0.51953125
1798,-0.0859375,-0.90625,0.515625
1799,-0.0703125,-0.91015625,0.51171875
1800,-0.09375,-0.91015625,0.51171875
1801,-0.08203125,-0.90625,0.53515625
1802,-0.06640625,-0.90234375,0.52734375
1803,-0.0859375,-0.91015625,0.53125
1804,-0.0703125,-0.90234375,0.54296875
1805,-0.07421875,-0.89453125,0.53125
1806,-0.07421875,-0.91015625,0.5234375
1807,-0.0703125,-0.91015625,0.52734375
1808,-0.07421875,-0.8984375,0.53515625
1809,-0.06640625,-0.90625,0.52734375
1810,-0.07421875,-0.8984375,0.52734375
1811,-0.0703125,-0.91015625,0.5234375
1812,-0.06640625,-0.89453125,0.51953125
1813,-0.06640625,-0.8984375,0.53125
1814,-0.06640625,-0.9140625,0.53125
1815,-0.0703125,-0.91015625,0.54296875
1816,-0.08203125,-0.90234375,0.5078125
1817,-0.078125,-0.890625,0.515625
1818,-0.0703125,-0.9140625,0.51953125
1819,-0.0859375,-0.90625,0.51953125
1820,-0.07421875,-0.9140625,0.5234375
1821,-0.078125,-0.9140625,0.51953125
1822,-0.0859375,-0.91015625,0.54296875
1823,-0.0859375,-0.89453125,0.53125
1824,-0.09375,-0.90625,0.52734375
1825,-0.10546875,-0.8984375,0.5234375
1826,-0.09375,-0.90625,0.53125
1827,-0.09765625,-0.8984375,0.5390625
1828,-0.09765625,-0.89453125,0.54296875
1829,-0.08984375,-0.90625,0.53125
1830,-0.09375,-0.90234375,0.54296875
1831,-0.09765625,-0.90234375,0.53515625
1832,-0.08984375,-0.89453125,0.53125
1833,-0.08203125,-0.8984375,0.53515625
1834,-0.08203125,-0.90234375,0.5390625
1835,-0.10546875,-0.89453125,0.52734375
1836,-0.10546875,-0.8984375,0.52734375
1837,-0.0859375,-0.90234375,0.53125
1838,-0.0859375,-0.89453125,0.5234375
1839,-0.09375,-0.89453125,0.53515625
1840,-0.08984375,-0.89453125,0.53125
1841,-0.10546875,-0.90234375,0.53125
1842,-0.07421875,-0.90625,0.53125
1843,-0.08984375,-0.90625,0.5234375
1844,-0.0859375,-0.90625,0.53515625
1845,-0.0859375,-0.89453125,0.54296875
1846,-0.0703125,-0.90234375,0.51953125
1847,-0.0859375,-0.890625,0.51953125
1848,-0.07421875,-0.8984375,0.515625
1849,-0.0703125,-0.8984375,0.53125
1850,-0.078125,-0.90234375,0.53125
1851,-0.0703125,-0.8828125,0.51953125
1852,-0.05859375,-0.9140625,0.53515625
1853,-0.07421875,-0.90234375,0.51953125
1854,-0.0859375,-0.8984375,0.5234375
1855,-0.08203125,-0.89453125,0.546875
1856,-0.0859375,-0.8984375,0.51953125
1857,-0.07421875,-0.90234375,0.52734375
1858,-0.0859375,-0.890625,0.53515625
1859,-0.0703125,-0.89453125,0.5234375
1860,-0.08203125,-0.90234375,0.53515625
1861,-0.08203125,-0.91015625,0.51953125
1862,-0.07421875,-0.90625,0.52734375
1863,-0.0859375,-0.91015625,0.5234375
1864,-0.08203125,-0.90234375,0.53125
1865,-0.08203125,-0.8984375,0.53125
1866,-0.08203125,-0.90234375,0.52734375
1867,-0.08984375,-0.8984375,0.5234375
1868,-0.078125,-0.91015625,0.52734375
1869,-0.078125,-0.90625,0.515625
1870,-0.078125,-0.90234375,0.5234375
1871,-0.08203125,-0.90625,0.52734375
1872,-0.0703125,-0.90625,0.51171875
1873,-0.078125,-0.91015625,0.51953125
1874,-0.09375,-0.9140625,0.53125
1875,-0.08203125,-0.90625,0.53125
1876,-0.07421875,-0.90625,0.51953125
1877,-0.0859375,-0.90234375,0.53515625
1878,-0.0703125,-0.8984375,0.51953125
1879,-0.078125,-0.91015625,0.5390625
1880,-0.07421875,-0.91015625,0.5234375
1881,-0.08203125,-0.90234375,0.5078125
1882,-0.0703125,-0.90625,0.52734375
1883,-0.08203125,-0.9140625,0.54296875
1884,-0.046875,-0.91015625,0.52734375
1885,-0.078125,-0.8984375,0.52734375
1886,-0.078125,-0.89453125,0.53515625
1887,-0.07421875,-0.8984375,0.5234375
1888,-0.07421875,-0.90234375,0.52734375
1889,-0.08203125,-0.90234375,0.5390625
1890,-0.08203125,-0.91015625,0.51953125
1891,-0.0859375,-0.90234375,0.53515625
1892,-0.06640625,-0.8984375,0.53515625
1893,-0.08203125,-0.8984375,0.54296875
1894,-0.0859375,-0.89453125,0.53515625
1895,-0.07421875,-0.8984375,0.54296875
1896,-0.078125,-0.9140625,0.52734375
1897,-0.08203125,-0.90625,0.53125
1898,-0.0859375,-0.88671875,0.52734375
1899,-0.08984375,-0.8984375,0.53125
1900,-0.08203125,-0.890625,0.52734375
1901,-0.08203125,-0.8984375,0.53515625
1902,-0.09375,-0.90234375,0.5234375
1903,-0.09375,-0.90234375,0.52734375
1904,-0.09765625,-0.91015625,0.54296875
1905,-0.1015625,-0.8984375,0.51953125
1906,-0.08984375,-0.90234375,0.51953125
1907,-0.09375,-0.90625,0.51953125
1908,-0.0859375,-0.90625,0.52734375
1909,-0.0859375,-0.8984375,0.52734375
1910,-0.09375,-0.90625,0.51953125
1911,-0.08984375,-0.8984375,0.5234375
1912,-0.0859375,-0.90234375,0.5234375
1913,-0.1015625,-0.89453125,0.515625
1914,-0.09765625,-0.8984375,0.52734375
1915,-0.09765625,-0.90625,0.53125
1916,-0.0859375,-0.90625,0.51953125
1917,-0.0859375,-0.8984375,0.51953125
1918,-0.08984375,-0.90625,0.51953125
1919,-0.09765625,-0.90234375,0.52734375
1920,-0.09375,-0.91015625,0.53125
1921,-0.078125,-0.89453125,0.51953125
1922,-0.08984375,-0.89453125,0.51953125
1923,-0.09375,-0.90234375,0.53125
1924,-0.08203125,-0.890625,0.52734375
1925,-0.078125,-0.90625,0.515625
1926,-0.08203125,-0.90234375,0.52734375
1927,-0.078125,-0.89453125,0.5234375
1928,-0.07421875,-0.90234375,0.53125
1929,-0.07421875,-0.90234375,0.5234375
1930,-0.078125,-0.90625,0.52734375
1931,-0.078125,-0.89453125,0.53515625
1932,-0.07421875,-0.88671875,0.51171875
1933,-0.08203125,-0.8984375,0.515625
1934,-0.078125,-0.88671875,0.52734375
1935,-0.07421875,-0.9140625,0.53125
1936,-0.078125,-0.90625,0.51953125
1937,-0.07421875,-0.89453125,0.5390625
1938,-0.08203125,-0.890625,0.546875
1939,-0.06640625,-0.87890625,0.54296875
1940,-0.07421875,-0.90625,0.53125
1941,-0.0859375,-0.8984375,0.5390625
1942,-0.07421875,-0.90234375,0.55078125
1943,-0.08203125,-0.90234375,0.53125
1944,-0.07421875,-0.91015625,0.52734375
1945,-0.078125,-0.90234375,0.546875
1946,-0.08203125,-0.90625,0.54296875
1947,-0.07421875,-0.90234375,0.5234375
1948,-0.0859375,-0.90625,0.52734375
1949,-0.0859375,-0.90625,0.51171875
1950,-0.07421875,-0.91015625,0.51171875
1951,-0.0859375,-0.8984375,0.5234375
1952,-0.08203125,-0.90625,0.5234375
1953,-0.08203125,-0.90234375,0.5234375
1954,-0.078125,-0.90234375,0.5234375
1955,-0.078125,-0.8984375,0.5390625
1956,-0.09765625,-0.90234375,0.5234375
1957,-0.08984375,-0.90625,0.52734375
1958,-0.0703125,-0.8984375,0.53125
1959,-0.08203125,-0.90234375,0.53125
1960,-0.09375,-0.890625,0.52734375
1961,-0.08203125,-0.91796875,0.54296875
1962,-0.0859375,-0.89453125,0.53515625
1963,-0.08203125,-0.90234375,0.52734375
1964,-0.078125,-0.88671875,0.53125
1965,-0.09765625,-0.89453125,0.5234375
1966,-0.08203125,-0.91015625,0.52734375
1967,-0.0859375,-0.90234375,0.5390625
1968,-0.0859375,-0.90625,0.5390625
1969,-0.08203125,-0.890625,0.53125
1970,-0.08203125,-0.8984375,0.53125
1971,-0.06640625,-0.90234375,0.5234375
1972,-0.08984375,-0.88671875,0.53515625
1973,-0.078125,-0.890625,0.53125
1974,-0.08203125,-0.90234375,0.53125
1975,-0.0703125,-0.90234375,0.52734375
1976,-0.06640625,-0.8984375,0.53515625
1977,-0.078125,-0.90625,0.55078125
1978,-0.07421875,-0.8984375,0.5546875
1979,-0.08203125,-0.89453125,0.53125
1980,-0.08203125,-0.8984375,0.5234375
1981,-0.08203125,-0.90234375,0.52734375
1982,-0.0703125,-0.90625,0.53515625
1983,-0.0859375,-0.8984375,0.5234375
1984,-0.0703125,-0.91796875,0.54296875
1985,-0.08203125,-0.90625,0.55078125
1986,-0.0859375,-0.8984375,0.5234375
1987,-0.078125,-0.90625,0.53125
1988,-0.07421875,-0.890625,0.53515625
1989,-0.08984375,-0.890625,0.53515625
1990,-0.08984375,-0.89453125,0.52734375
1991,-0.08984375,-0.890625,0.53515625
1992,-0.078125,-0.8984375,0.53515625
1993,-0.078125,-0.90234375,0.5390625
1994,-0.078125,-0.890625,0.5390625
1995,-0.08203125,-0.90625,0.53125
1996,-0.07421875,-0.89453125,0.53125
1997,-0.08203125,-0.890625,0.53125
1998,-0.078125,-0.8984375,0.51953125
1999,-0.07421875,-0.89453125,0.53515625
2000,-0.07421875,-0.89453125,0.546875
2001,-0.08203125,-0.8984375,0.52734375
2002,-0.07421875,-0.8984375,0.53125
2003,-0.078125,-0.90625,0.53125
2004,-0.0859375,-0.890625,0.5234375
2005,-0.0859375,-0.89453125,0.53125
2006,-0.08984375,-0.89453125,0.54296875
2007,-0.08203125,-0.88671875,0.53515625
2008,-0.0859375,-0.890625,0.53125
2009,-0.08203125,-0.90625,0.52734375
2010,-0.08203125,-0.90234375,0.52734375
2011,-0.08203125,-0.90234375,0.54296875
2012,-0.08203125,-0.90625,0.53125
2013,-0.078125,-0.89453125,0.5390625
2014,-0.0859375,-0.8984375,0.53125
2015,-0.0859375,-0.890625,0.52734375
2016,-0.08203125,-0.8984375,0.5390625
2017,-0.078125,-0.890625,0.52734375
2018,-0.08203125,-0.89453125,0.546875
2019,-0.08203125,-0.890625,0.53125
2020,-0.08984375,-0.8828125,0.53515625
2021,-0.09375,-0.8984375,0.52734375
2022,-0.08203125,-0.90234375,0.52734375
2023,-0.08984375,-0.8984375,0.51953125
2024,-0.08203125,-0.8984375,0.52734375
2025,-0.0859375,-0.8984375,0.52734375
2026,-0.08203125,-0.89453125,0.5234375
2027,-0.06640625,-0.921875,0.52734375
2028,-0.0859375,-0.89453125,0.53515625
2029,-0.0859375,-0.8984375,0.53515625
2030,-0.0859375,-0.90234375,0.55078125
2031,-0.08984375,-0.90625,0.53515625
2032,-0.08203125,-0.89453125,0.54296875
2033,-0.0859375,-0.88671875,0.52734375
2034,-0.0703125,-0.90625,0.53125
2035,-0.078125,-0.90234375,0.5390625
2036,-0.07421875,-0.890625,0.52734375
2037,-0.078125,-0.89453125,0.5234375
2038,-0.08203125,-0.89453125,0.54296875
2039,-0.078125,-0.89453125,0.52734375
2040,-0.09375,-0.890625,0.5390625
2041,-0.078125,-0.90234375,0.515625
2042,-0.08203125,-0.89453125,0.546875
2043,-0.08203125,-0.8984375,0.54296875
2044,-0.08203125,-0.8984375,0.52734375
2045,-0.0859375,-0.88671875,0.53515625
2046,-0.07421875,-0.8984375,0.53515625
2047,-0.08984375,-0.90234375,0.515625
2048,-0.078125,-0.8828125,0.54296875
2049,-0.08203125,-0.89453125,0.53515625
2050,-0.0859375,-0.8984375,0.53125
2051,-0.08984375,-0.90234375,0.54296875
2052,-0.08203125,-0.890625,0.52734375
2053,-0.08203125,-0.890625,0.546875
2054,-0.08984375,-0.90234375,0.5390625
2055,-0.078125,-0.8984375,0.53125
2056,-0.08203125,-0.91015625,0.5234375
2057,-0.09375,-0.890625,0.53125
2058,-0.08984375,-0.90625,0.546875
2059,-0.078125,-0.9140625,0.546875
2060,-0.08203125,-0.8984375,0.5390625
2061,-0.08984375,-0.890625,0.52734375
2062,-0.09375,-0.90625,0.54296875
2063,-0.0703125,-0.90234375,0.53515625
2064,-0.07421875,-0.89453125,0.51953125
2065,-0.078125,-0.8984375,0.53125
2066,-0.078125,-0.8984375,0.52734375
2067,-0.08203125,-0.88671875,0.52734375
2068,-0.078125,-0.8984375,0.5390625
2069,-0.08203125,-0.890625,0.53515625
2070,-0.0859375,-0.90234375,0.53515625
2071,-0.07421875,-0.90625,0.53515625
2072,-0.08203125,-0.890625,0.53125
2073,-0.08203125,-0.890625,0.546875
2074,-0.08203125,-0.90625,0.53125
2075,-0.09375,-0.890625,0.5390625
2076,-0.07421875,-0.8984375,0.54296875
2077,-0.0859375,-0.8984375,0.53125
2078,-0.0859375,-0.91796875,0.54296875
2079,-0.08203125,-0.89453125,0.51953125
2080,-0.07421875,-0.90625,0.52734375
2081,-0.08984375,-0.90234375,0.53125
2082,-0.078125,-0.91015625,0.5234375
2083,-0.0859375,-0.90625,0.53125
2084,-0.07421875,-0.890625,0.51953125
2085,-0.0859375,-0.8984375,0.52734375
2086,-0.08984375,-0.890625,0.53125
2087,-0.0859375,-0.8984375,0.5390625
2088,-0.08203125,-0.89453125,0.5390625
2089,-0.07421875,-0.90625,0.54296875
2090,-0.09375,-0.8984375,0.55078125
2091,-0.0859375,-0.890625,0.54296875
2092,-0.08203125,-0.90234375,0.52734375
2093,-0.078125,-0.8984375,0.53515625
2094,-0.08203125,-0.89453125,0.52734375
2095,-0.07421875,-0.89453125,0.5390625
2096,-0.08203125,-0.8984375,0.53125
2097,-0.0859375,-0.89453125,0.546875
2098,-0.0859375,-0.8984375,0.5390625
2099,-0.08203125,-0.890625,0.5390625
2100,-0.08203125,-0.8984375,0.5390625
2101,-0.0703125,-0.8984375,0.5390625
2102,-0.08203125,-0.890625,0.53125
2103,-0.08203125,-0.91015625,0.53125
2104,-0.078125,-0.89453125,0.51953125
2105,-0.08203125,-0.8984375,0.53515625
2106,-0.08984375,-0.890625,0.5390625
2107,-0.08203125,-0.890625,0.5390625
2108,-0.08203125,-0.89453125,0.52734375
2109,-0.0703125,-0.90234375,0.53125
2110,-0.07421875,-0.8984375,0.55078125
2111,-0.08203125,-0.8984375,0.5390625
2112,-0.08984375,-0.890625,0.5390625
2113,-0.0859375,-0.89453125,0.55078125
2114,-0.08984375,-0.88671875,0.53515625
2115,-0.08203125,-0.90234375,0.53125
2116,-0.0859375,-0.890625,0.51953125
2117,-0.0625,-0.89453125,0.546875
2118,-0.0859375,-0.8984375,0.52734375
2119,-0.0703125,-0.8984375,0.546875
2120,-0.0703125,-0.90625,0.5390625
2121,-0.08203125,-0.90625,0.53515625
2122,-0.08203125,-0.91015625,0.546875
2123,-0.08984375,-0.8984375,0.54296875
2124,-0.0859375,-0.89453125,0.52734375
2125,-0.07421875,-0.90625,0.53125
2126,-0.08203125,-0.90625,0.53125
2127,-0.078125,-0.8984375,0.53515625
2128,-0.08984375,-0.8984375,0.53125
2129,-0.0859375,-0.90625,0.54296875
2130,-0.07421875,-0.9140625,0.53515625
2131,-0.078125,-0.90234375,0.5234375
2132,-0.078125,-0.89453125,0.52734375
2133,-0.078125,-0.890625,0.54296875
2134,-0.08203125,-0.8984375,0.5390625
2135,-0.08203125,-0.9140625,0.5390625
2136,-0.078125,-0.90625,0.53125
2137,-0.08203125,-0.89453125,0.53125
2138,-0.08203125,-0.88671875,0.546875
2139,-0.06640625,-0.90234375,0.5234375
2140,-0.07421875,-0.90234375,0.5234375
2141,-0.0859375,-0.8984375,0.5234375
2142,-0.078125,-0.8984375,0.51953125
2143,-0.0703125,-0.9140625,0.53515625
2144,-0.078125,-0.8984375,0.54296875
2145,-0.078125,-0.90625,0.53515625
2146,-0.0859375,-0.890625,0.546875
2147,-0.08203125,-0.8828125,0.53125
2148,-0.0703125,-0.8984375,0.52734375
2149,-0.0859375,-0.88671875,0.53515625
2150,-0.08203125,-0.8984375,0.54296875
2151,-0.07421875,-0.88671875,0.5234375
2152,-0.078125,-0.8984375,0.53125
2153,-0.0703125,-0.90234375,0.53515625
2154,-0.09375,-0.90234375,0.53125
2155,-0.0859375,-0.89453125,0.5234375
2156,-0.078125,-0.8984375,0.53515625
2157,-0.078125,-0.89453125,0.53125
2158,-0.078125,-0.90234375,0.54296875
2159,-0.07421875,-0.89453125,0.55078125
2160,-0.08203125,-0.90234375,0.5390625
2161,-0.08203125,-0.89453125,0.546875
2162,-0.0859375,-0.8984375,0.51953125
2163,-0.07421875,-0.90234375,0.53515625
2164,-0.07421875,-0.8984375,0.53515625
2165,-0.07421875,-0.8984375,0.5234375
2166,-0.078125,-0.8984375,0.52734375
2167,-0.078125,-0.89453125,0.515625
2168,-0.08203125,-0.8984375,0.546875
2169,-0.06640625,-0.8984375,0.53515625
2170,-0.0703125,-0.89453125,0.53515625
2171,-0.078125,-0.91015625,0.53515625
2172,-0.06640625,-0.90625,0.5390625
2173,-0.078125,-0.9140625,0.53515625
2174,-0.0703125,-0.890625,0.53515625
2175,-0.0859375,-0.90234375,0.5390625
2176,-0.07421875,-0.8984375,0.54296875
2177,-0.08984375,-0.90234375,0.52734375
2178,-0.07421875,-0.90625,0.55078125
2179,-0.07421875,-0.89453125,0.53125
2180,-0.078125,-0.8984375,0.5390625
2181,-0.0703125,-0.8984375,0.52734375
2182,-0.07421875,-0.90625,0.53125
2183,-0.06640625,-0.91015625,0.52734375
2184,-0.09375,-0.90234375,0.51953125
2185,-0.0859375,-0.89453125,0.546875
2186,-0.07421875,-0.90234375,0.54296875
2187,-0.08984375,-0.8984375,0.54296875
2188,-0.0859375,-0.90234375,0.53515625
2189,-0.07421875,-0.90234375,0.546875
2190,-0.08203125,-0.8984375,0.53515625
2191,-0.08203125,-0.90234375,0.52734375
2192,-0.078125,-0.90625,0.5234375
2193,-0.078125,-0.90625,0.52734375
2194,-0.08984375,-0.89453125,0.53125
2195,-0.07421875,-0.8984375,0.546875
2196,-0.08203125,-0.90234375,0.53515625
2197,-0.0859375,-0.89453125,0.52734375
2198,-0.078125,-0.90234375,0.5390625
2199,-0.07421875,-0.88671875,0.53125
2200,-0.078125,-0.90625,0.5390625
2201,-0.07421875,-0.91796875,0.55859375
2202,-0.0859375,-0.89453125,0.53125
2203,-0.07421875,-0.8984375,0.5390625
2204,-0.08203125,-0.8984375,0.53125
2205,-0.05859375,-0.89453125,0.53515625
2206,-0.0859375,-0.89453125,0.53125
2207,-0.07421875,-0.890625,0.51953125
2208,-0.07421875,-0.90234375,0.54296875
2209,-0.078125,-0.8984375,0.53125
2210,-0.078125,-0.890625,0.54296875
2211,-0.07421875,-0.8984375,0.5390625
2212,-0.08203125,-0.90625,0.546875
2213,-0.0859375,-0.90625,0.5234375
2214,-0.0703125,-0.8828125,0.55078125
2215,-0.0859375,-0.8984375,0.54296875
2216,-0.07421875,-0.90234375,0.52734375
2217,-0.078125,-0.90234375,0.55078125
2218,-0.08203125,-0.90234375,0.546875
2219,-0.078125,-0.91015625,0.515625
2220,-0.0703125,-0.9140625,0.53515625
2221,-0.0859375,-0.91015625,0.515625
2222,-0.08203125,-0.90234375,0.5234375
2223,-0.078125,-0.90625,0.53515625
2224,-0.078125,-0.890625,0.52734375
2225,-0.07421875,-0.9140625,0.53125
2226,-0.078125,-0.890625,0.53125
2227,-0.0859375,-0.90625,0.53515625
2228,-0.09765625,-0.8828125,0.515625
2229,-0.078125,-0.90234375,0.52734375
2230,-0.078125,-0.89453125,0.5390625
2231,-0.08203125,-0.90234375,0.53125
2232,-0.08203125,-0.90625,0.51953125
2233,-0.06640625,-0.89453125,0.53125
2234,-0.0859375,-0.90625,0.53515625
2235,-0.0859375,-0.88671875,0.53515625
2236,-0.07421875,-0.8984375,0.53515625
2237,-0.09375,-0.8984375,0.546875
2238,-0.07421875,-0.90625,0.5390625
2239,-0.0703125,-0.90625,0.5390625
2240,-0.078125,-0.8984375,0.546875
2241,-0.078125,-0.90234375,0.5390625
2242,-0.08203125,-0.89453125,0.52734375
2243,-0.078125,-0.8984375,0.53125
2244,-0.07421875,-0.90625,0.52734375
2245,-0.08203125,-0.90625,0.5390625
2246,-0.078125,-0.90625,0.54296875
2247,-0.06640625,-0.91015625,0.5390625
2248,-0.09375,-0.90625,0.5390625
2249,-0.06640625,-0.89453125,0.55078125
2250,-0.078125,-0.90625,0.54296875
2251,-0.0703125,-0.9140625,0.5390625
2252,-0.08984375,-0.89453125,0.53515625
2253,-0.0859375,-0.8984375,0.5390625
2254,-0.078125,-0.8984375,0.53515625
2255,-0.078125,-0.90234375,0.515625
2256,-0.078125,-0.90234375,0.5390625
2257,-0.08203125,-0.8984375,0.51953125
2258,-0.08203125,-0.89453125,0.5234375
2259,-0.0859375,-0.87890625,0.5234375
2260,-0.07421875,-0.91015625,0.53125
2261,-0.08203125,-0.8984375,0.54296875
2262,-0.0859375,-0.890625,0.54296875
2263,-0.08203125,-0.8984375,0.53515625
2264,-0.08984375,-0.89453125,0.53515625
2265,-0.05859375,-0.89453125,0.5234375
2266,-0.078125,-0.90625,0.52734375
2267,-0.08203125,-0.8984375,0.52734375
2268,-0.08203125,-0.90625,0.53515625
2269,-0.07421875,-0.89453125,0.52734375
2270,-0.078125,-0.90234375,0.55859375
2271,-0.08203125,-0.90234375,0.52734375
2272,-0.0859375,-0.89453125,0.52734375
2273,-0.0703125,-0.90625,0.53125
2274,-0.07421875,-0.890625,0.546875
2275,-0.08984375,-0.90625,0.5390625
2276,-0.08203125,-0.91015625,0.53125
2277,-0.08203125,-0.89453125,0.5390625
2278,-0.078125,-0.90234375,0.55078125
2279,-0.0859375,-0.890625,0.53515625
2280,-0.078125,-0.88671875,0.5390625
2281,-0.0703125,-0.90234375,0.54296875
2282,-0.078125,-0.88671875,0.53515625
2283,-0.08984375,-0.8984375,0.53125
2284,-0.078125,-0.90234375,0.52734375
2285,-0.08984375,-0.890625,0.53515625
2286,-0.0703125,-0.90625,0.53125
2287,-0.07421875,-0.89453125,0.52734375
2288,-0.07421875,-0.89453125,0.55078125
2289,-0.08203125,-0.89453125,0.55078125
2290,-0.08203125,-0.8984375,0.53125
2291,-0.08984375,-0.91015625,0.52734375
2292,-0.07421875,-0.89453125,0.52734375
2293,-0.08203125,-0.89453125,0.5234375
2294,-0.078125,-0.90625,0.52734375
2295,-0.0859375,-0.89453125,0.52734375
2296,-0.08203125,-0.89453125,0.51953125
2297,-0.0703125,-0.9140625,0.5390625
2298,-0.07421875,-0.90625,0.5234375
2299,-0.078125,-0.88671875,0.5390625
2300,-0.078125,-0.8984375,0.5390625
2301,-0.078125,-0.90625,0.515625
2302,-0.078125,-0.8984375,0.54296875
2303,-0.07421875,-0.890625,0.53125
2304,-0.07421875,-0.89453125,0.52734375
2305,-0.0703125,-0.90234375,0.52734375
2306,-0.08203125,-0.90234375,0.53125
2307,-0.078125,-0.8984375,0.53515625
2308,-0.0859375,-0.8984375,0.53515625
2309,-0.07421875,-0.89453125,0.53125
2310,-0.0546875,-0.8984375,0.5078125
2311,-0.08203125,-0.90625,0.5234375
2312,-0.08203125,-0.90234375,0.53515625
2313,-0.078125,-0.8984375,0.5546875
2314,-0.078125,-0.90625,0.5234375
2315,-0.078125,-0.8984375,0.53515625
2316,-0.07421875,-0.90234375,0.53125
2317,-0.078125,-0.89453125,0.546875
2318,-0.08984375,-0.89453125,0.5234375
2319,-0.078125,-0.89453125,0.53125
2320,-0.078125,-0.890625,0.54296875
2321,-0.08203125,-0.8984375,0.54296875
2322,-0.07421875,-0.890625,0.52734375
2323,-0.08203125,-0.90234375,0.53515625
2324,-0.0859375,-0.890625,0.54296875
2325,-0.0859375,-0.90234375,0.5390625
2326,-0.08203125,-0.89453125,0.54296875
2327,-0.08203125,-0.90234375,0.54296875
2328,-0.08984375,-0.890625,0.52734375
2329,-0.08203125,-0.890625,0.52734375
2330,-0.0859375,-0.90625,0.5390625
2331,-0.08203125,-0.890625,0.54296875
2332,-0.0859375,-0.8984375,0.53515625
2333,-0.0859375,-0.89453125,0.546875
2334,-0.07421875,-0.90234375,0.5390625
2335,-0.078125,-0.90234375,0.5234375
2336,-0.06640625,-0.8984375,0.53515625
2337,-0.078125,-0.90234375,0.53515625
2338,-0.07421875,-0.90625,0.52734375
2339,-0.08203125,-0.90625,0.515625
2340,-0.07421875,-0.90234375,0.52734375
2341,-0.07421875,-0.89453125,0.53515625
2342,-0.07421875,-0.8984375,0.5234375
2343,-0.078125,-0.8984375,0.54296875
2344,-0.07421875,-0.90625,0.53515625
2345,-0.0859375,-0.8984375,0.52734375
2346,-0.0703125,-0.90625,0.546875
2347,-0.078125,-0.90625,0.53515625
2348,-0.08203125,-0.90625,0.5234375
2349,-0.07421875,-0.90234375,0.5234375
2350,-0.0859375,-0.90234375,0.53125
2351,-0.078125,-0.90234375,0.5234375
2352,-0.08203125,-0.9140625,0.54296875
2353,-0.0703125,-0.8984375,0.51953125
2354,-0.08984375,-0.90234375,0.52734375
2355,-0.07421875,-0.8984375,0.53515625
2356,-0.08203125,-0.90234375,0.53125
2357,-0.078125,-0.89453125,0.53515625
2358,-0.078125,-0.90234375,0.52734375
2359,-0.07421875,-0.8984375,0.5390625
2360,-0.08984375,-0.90234375,0.5390625
2361,-0.078125,-0.8984375,0.5234375
2362,-0.08203125,-0.89453125,0.53125
2363,-0.08203125,-0.90625,0.5390625
2364,-0.0703125,-0.90625,0.5234375
2365,-0.08203125,-0.890625,0.52734375
2366,-0.08984375,-0.8984375,0.53125
2367,-0.06640625,-0.90234375,0.52734375
2368,-0.078125,-0.8984375,0.53125
2369,-0.08203125,-0.89453125,0.5390625
2370,-0.078125,-0.8984375,0.52734375
2371,-0.078125,-0.90625,0.5390625
2372,-0.0625,-0.90625,0.5234375
2373,-0.078125,-0.90234375,0.53515625
2374,-0.078125,-0.8984375,0.5234375
2375,-0.08203125,-0.890625,0.51171875
2376,-0.078125,-0.8984375,0.53125
2377,-0.0703125,-0.90234375,0.53515625
2378,-0.0859375,-0.89453125,0.5234375
2379,-0.078125,-0.90234375,0.53125
2380,-0.078125,-0.91796875,0.515625
2381,-0.0625,-0.91015625,0.53125
2382,-0.0703125,-0.8984375,0.53515625
2383,-0.08203125,-0.89453125,0.5234375
2384,-0.0703125,-0.91015625,0.51953125
2385,-0.0703125,-0.8984375,0.5390625
2386,-0.08203125,-0.8984375,0.5390625
2387,-0.078125,-0.89453125,0.53125
2388,-0.08984375,-0.890625,0.5390625
2389,-0.0703125,-0.890625,0.54296875
2390,-0.078125,-0.90625,0.546875
2391,-0.08984375,-0.8984375,0.5390625
2392,-0.0859375,-0.88671875,0.53515625
2393,-0.08203125,-0.89453125,0.52734375
2394,-0.0859375,-0.8984375,0.5390625
2395,-0.078125,-0.8984375,0.52734375
2396,-0.08203125,-0.8984375,0.53125
2397,-0.078125,-0.91015625,0.5390625
2398,-0.08203125,-0.90234375,0.54296875
