,accelerometerAccelerationX(G),accelerometerAccelerationY(G),accelerometerAccelerationZ(G)
0,-0.0703125,-1.015625,0.203125
1,-0.06640625,-1.015625,0.2109375
2,-0.078125,-1.01953125,0.23046875
3,-0.07421875,-1.01171875,0.2265625
4,-0.07421875,-1.0,0.22265625
5,-0.09765625,-1.03125,0.19921875
6,-0.0625,-1.015625,0.2109375
7,-0.0625,-1.015625,0.203125
8,-0.05859375,-1.0234375,0.2109375
9,-0.0625,-1.015625,0.19921875
10,-0.07421875,-1.01171875,0.2109375
11,-0.0703125,-1.01171875,0.2109375
12,-0.05859375,-1.01171875,0.20703125
13,-0.06640625,-1.01953125,0.21484375
14,-0.05859375,-1.0234375,0.21484375
15,-0.06640625,-1.01171875,0.21875
16,-0.0625,-1.01171875,0.21875
17,-0.0625,-1.015625,0.20703125
18,-0.07421875,-1.0078125,0.21875
19,-0.07421875,-1.01953125,0.21484375
20,-0.078125,-1.01953125,0.21875
21,-0.06640625,-1.01171875,0.21875
22,-0.07421875,-1.015625,0.203125
23,-0.0625,-1.015625,0.23046875
24,-0.078125,-1.01953125,0.2109375
25,-0.07421875,-1.0234375,0.21875
26,-0.05078125,-1.03125,0.23046875
27,-0.0625,-1.01171875,0.21484375
28,-0.0703125,-1.0234375,0.20703125
29,-0.07421875,-1.01171875,0.20703125
30,-0.0703125,-1.0234375,0.2265625
31,-0.07421875,-1.0078125,0.20703125
32,-0.06640625,-1.01953125,0.21875
33,-0.05859375,-1.01953125,0.20703125
34,-0.0625,-1.02734375,0.20703125
35,-0.05078125,-1.01953125,0.2109375
36,-0.0625,-1.04296875,0.21484375
37,-0.0625,-1.00390625,0.21484375
38,-0.0625,-1.015625,0.2109375
39,-0.06640625,-1.01171875,0.2265625
40,-0.06640625,-1.015625,0.21875
41,-0.0625,-1.01953125,0.22265625
42,-0.0703125,-1.0078125,0.2109375
43,-0.07421875,-1.01171875,0.23046875
44,-0.05859375,-1.015625,0.21875
45,-0.0625,-1.01171875,0.203125
46,-0.07421875,-1.00390625,0.2109375
47,-0.0625,-1.0234375,0.21875
48,-0.06640625,-1.01171875,0.19921875
49,-0.07421875,-1.01953125,0.19921875
50,-0.06640625,-1.0078125,0.20703125
51,-0.06640625,-1.015625,0.2109375
52,-0.06640625,-1.01171875,0.2109375
53,-0.0625,-1.01953125,0.2109375
54,-0.0625,-1.02734375,0.2109375
55,-0.0703125,-1.01171875,0.20703125
56,-0.0625,-1.01953125,0.21484375
57,-0.0625,-1.01953125,0.21484375
58,-0.06640625,-1.0234375,0.20703125
59,-0.06640625,-1.01953125,0.20703125
60,-0.06640625,-1.02734375,0.2109375
61,-0.0625,-1.01953125,0.203125
62,-0.07421875,-1.0078125,0.21875
63,-0.06640625,-1.01953125,0.21875
64,-0.0546875,-1.01171875,0.23046875
65,-0.07421875,-1.0078125,0.20703125
66,-0.07421875,-1.0234375,0.22265625
67,-0.07421875,-1.015625,0.21484375
68,-0.0546875,-1.0234375,0.21484375
69,-0.06640625,-1.01953125,0.2109375
70,-0.07421875,-1.02734375,0.203125
71,-0.05859375,-1.01953125,0.22265625
72,-0.0703125,-1.01953125,0.22265625
73,-0.06640625,-1.015625,0.2265625
74,-0.0625,-1.01171875,0.21875
75,-0.05859375,-1.015625,0.2109375
76,-0.06640625,-1.01171875,0.20703125
77,-0.0625,-1.01953125,0.2109375
78,-0.0703125,-1.01171875,0.19140625
79,-0.0625,-1.01171875,0.2109375
80,-0.0625,-1.01171875,0.21875
81,-0.05078125,-1.015625,0.21484375
82,-0.06640625,-1.0234375,0.2265625
83,-0.0625,-1.01953125,0.2265625
84,-0.05859375,-1.0234375,0.2109375
85,-0.0703125,-1.015625,0.22265625
86,-0.07421875,-1.01171875,0.19921875
87,-0.0625,-1.01171875,0.22265625
88,-0.0625,-1.015625,0.2109375
89,-0.06640625,-1.0078125,0.2265625
90,-0.078125,-1.0078125,0.2265625
91,-0.078125,-1.01171875,0.20703125
92,-0.0703125,-1.01953125,0.203125
93,-0.0625,-1.01171875,0.2109375
94,-0.06640625,-1.01171875,0.21875
95,-0.06640625,-1.01171875,0.2265625
96,-0.06640625,-1.01171875,0.21875
97,-0.07421875,-1.01953125,0.21875
98,-0.078125,-1.01171875,0.203125
99,-0.0625,-1.0234375,0.20703125
100,-0.0625,-1.0078125,0.2109375
101,-0.0703125,-1.0078125,0.2109375
102,-0.05859375,-1.015625,0.21484375
103,-0.0703125,-1.01953125,0.20703125
104,-0.07421875,-1.0234375,0.21875
105,-0.06640625,-1.0234375,0.21875
106,-0.078125,-1.015625,0.2109375
107,-0.06640625,-1.01953125,0.21484375
108,-0.07421875,-1.02734375,0.2109375
109,-0.0625,-1.015625,0.2109375
110,-0.07421875,-1.0234375,0.19921875
111,-0.0625,-1.0234375,0.21875
112,-0.0703125,-1.01171875,0.2109375
113,-0.0546875,-1.015625,0.22265625
114,-0.0546875,-1.0234375,0.22265625
115,-0.0703125,-1.015625,0.23046875
116,-0.06640625,-1.0078125,0.203125
117,-0.0546875,-1.0078125,0.20703125
118,-0.05859375,-1.01953125,0.21484375
119,-0.05859375,-1.01171875,0.21875
120,-0.0703125,-1.01171875,0.21875
121,-0.05859375,-1.0078125,0.2109375
122,-0.078125,-1.01953125,0.2109375
123,-0.07421875,-1.0078125,0.21484375
124,-0.06640625,-1.01953125,0.21484375
125,-0.06640625,-1.01171875,0.22265625
126,-0.0859375,-1.01171875,0.20703125
127,-0.07421875,-1.0078125,0.21875
128,-0.06640625,-1.01171875,0.21875
129,-0.06640625,-1.01171875,0.2109375
130,-0.0703125,-1.01171875,0.21875
131,-0.06640625,-1.01953125,0.2109375
132,-0.0625,-1.02734375,0.21875
133,-0.0703125,-1.015625,0.2109375
134,-0.0703125,-1.015625,0.21484375
135,-0.078125,-1.01953125,0.21875
136,-0.06640625,-1.0234375,0.20703125
137,-0.078125,-1.015625,0.22265625
138,-0.0859375,-1.01171875,0.203125
139,-0.06640625,-1.015625,0.234375
140,-0.078125,-1.01953125,0.203125
141,-0.05859375,-1.0234375,0.21484375
142,-0.06640625,-1.0234375,0.21875
143,-0.0625,-1.03125,0.21875
144,-0.06640625,-1.0234375,0.1953125
145,-0.0703125,-1.015625,0.21875
146,-0.0625,-1.01953125,0.2109375
147,-0.06640625,-1.0234375,0.2109375
148,-0.0703125,-1.01953125,0.21484375
149,-0.0703125,-1.02734375,0.22265625
150,-0.0703125,-1.02734375,0.22265625
151,-0.06640625,-1.01171875,0.22265625
152,-0.07421875,-1.03125,0.20703125
153,-0.05859375,-1.015625,0.21875
154,-0.08203125,-1.00390625,0.203125
155,-0.06640625,-1.01171875,0.19921875
156,-0.0625,-1.015625,0.19921875
157,-0.0625,-1.01171875,0.20703125
158,-0.06640625,-1.01171875,0.2265625
159,-0.0546875,-1.01953125,0.20703125
160,-0.078125,-1.01171875,0.2109375
161,-0.0625,-1.01953125,0.2109375
162,-0.06640625,-1.0234375,0.2109375
163,-0.0625,-1.015625,0.2265625
164,-0.0703125,-1.015625,0.23828125
165,-0.05859375,-1.01171875,0.21875
166,-0.0625,-1.015625,0.22265625
167,-0.06640625,-1.00390625,0.2265625
168,-0.0625,-1.01953125,0.20703125
169,-0.0703125,-1.01171875,0.21484375
170,-0.05859375,-1.01953125,0.2265625
171,-0.06640625,-1.00390625,0.22265625
172,-0.0625,-1.01171875,0.23046875
173,-0.0625,-1.01171875,0.19140625
174,-0.0625,-1.01171875,0.22265625
175,-0.07421875,-1.015625,0.2109375
176,-0.06640625,-1.0078125,0.22265625
177,-0.06640625,-1.01171875,0.21875
178,-0.0703125,-1.01171875,0.2109375
179,-0.0703125,-1.01171875,0.21484375
180,-0.06640625,-1.01953125,0.22265625
181,-0.0625,-1.015625,0.21484375
182,-0.0703125,-1.01171875,0.2109375
183,-0.0546875,-1.03125,0.21875
184,-0.06640625,-1.01171875,0.23046875
185,-0.0703125,-1.01171875,0.21875
186,-0.0703125,-1.01171875,0.20703125
187,-0.05859375,-1.03125,0.2109375
188,-0.06640625,-1.01171875,0.20703125
189,-0.06640625,-1.01953125,0.21875
190,-0.06640625,-1.0078125,0.2265625
191,-0.06640625,-1.0078125,0.20703125
192,-0.06640625,-1.02734375,0.21875
193,-0.08203125,-1.01953125,0.22265625
194,-0.07421875,-1.01171875,0.21484375
195,-0.0625,-1.0234375,0.21875
196,-0.05859375,-1.0078125,0.203125
197,-0.0703125,-1.0078125,0.2109375
198,-0.08984375,-1.00390625,0.2109375
199,-0.0703125,-1.01171875,0.21875
200,-0.08203125,-1.00390625,0.21875
201,-0.0625,-1.01953125,0.203125
202,-0.06640625,-1.01171875,0.21875
203,-0.07421875,-1.01171875,0.2109375
204,-0.06640625,-1.0078125,0.21875
205,-0.06640625,-1.015625,0.20703125
206,-0.06640625,-1.01171875,0.20703125
207,-0.0625,-1.015625,0.20703125
208,-0.06640625,-1.01953125,0.20703125
209,-0.078125,-1.015625,0.2109375
210,-0.0703125,-1.01953125,0.21484375
211,-0.0703125,-1.00390625,0.20703125
212,-0.06640625,-1.0234375,0.22265625
213,-0.0625,-1.0078125,0.21484375
214,-0.07421875,-1.01171875,0.2109375
215,-0.08203125,-1.03125,0.21484375
216,-0.0703125,-1.0234375,0.19921875
217,-0.0625,-1.01953125,0.20703125
218,-0.08984375,-1.03515625,0.17578125
219,-0.078125,-1.015625,0.21484375
220,-0.0703125,-1.015625,0.2265625
221,-0.06640625,-1.01171875,0.1953125
222,-0.0703125,-1.0078125,0.2265625
223,-0.0703125,-1.01953125,0.21484375
224,-0.0625,-1.01171875,0.21484375
225,-0.0703125,-1.01171875,0.20703125
226,-0.0703125,-1.015625,0.22265625
227,-0.0546875,-1.00390625,0.21484375
228,-0.0703125,-1.03125,0.21484375
229,-0.05859375,-1.01171875,0.2109375
230,-0.0703125,-1.015625,0.20703125
231,-0.0625,-1.015625,0.203125
232,-0.0703125,-1.015625,0.21484375
233,-0.06640625,-1.0234375,0.20703125
234,-0.06640625,-1.015625,0.203125
235,-0.078125,-1.01171875,0.203125
236,-0.078125,-1.01953125,0.2109375
237,-0.078125,-1.015625,0.19921875
238,-0.0703125,-1.01953125,0.21484375
239,-0.08984375,-1.02734375,0.21875
240,-0.0625,-1.0234375,0.203125
241,-0.0703125,-1.01171875,0.203125
242,-0.0703125,-1.01953125,0.21484375
243,-0.0625,-1.015625,0.19921875
244,-0.0625,-1.015625,0.21484375
245,-0.06640625,-1.0234375,0.20703125
246,-0.078125,-1.01953125,0.20703125
247,-0.07421875,-1.0234375,0.203125
248,-0.0703125,-1.0234375,0.21484375
249,-0.05859375,-1.01953125,0.21875
250,-0.08203125,-1.015625,0.203125
251,-0.07421875,-1.01171875,0.2265625
252,-0.0703125,-1.015625,0.19921875
253,-0.0625,-1.01171875,0.203125
254,-0.07421875,-1.015625,0.203125
255,-0.05859375,-1.01953125,0.20703125
256,-0.06640625,-1.01953125,0.2109375
257,-0.07421875,-1.0078125,0.203125
258,-0.07421875,-1.01171875,0.21875
259,-0.0625,-1.0234375,0.20703125
260,-0.06640625,-1.015625,0.203125
261,-0.05859375,-1.01953125,0.21484375
262,-0.0625,-1.01171875,0.19140625
263,-0.06640625,-1.01171875,0.21484375
264,-0.0703125,-1.01953125,0.20703125
265,-0.06640625,-1.0234375,0.21875
266,-0.0703125,-1.0234375,0.20703125
267,-0.0625,-1.01953125,0.203125
268,-0.07421875,-1.01953125,0.19140625
269,-0.05859375,-1.01171875,0.21484375
270,-0.06640625,-1.015625,0.19921875
271,-0.0546875,-1.01953125,0.203125
272,-0.07421875,-1.01171875,0.203125
273,-0.0546875,-1.0234375,0.20703125
274,-0.0625,-1.00390625,0.203125
275,-0.07421875,-1.015625,0.1875
276,-0.07421875,-1.01171875,0.19921875
277,-0.06640625,-1.01953125,0.20703125
278,-0.06640625,-1.0234375,0.20703125
279,-0.0703125,-1.01953125,0.19921875
280,-0.07421875,-1.01171875,0.20703125
281,-0.06640625,-1.01171875,0.20703125
282,-0.0625,-0.98828125,0.22265625
283,-0.0625,-1.01953125,0.21875
284,-0.07421875,-1.015625,0.21484375
285,-0.0546875,-1.01171875,0.2109375
286,-0.05859375,-1.015625,0.19921875
287,-0.06640625,-1.015625,0.19921875
288,-0.0703125,-1.01171875,0.20703125
289,-0.078125,-1.015625,0.1953125
290,-0.06640625,-1.01171875,0.21484375
291,-0.08203125,-1.015625,0.1953125
292,-0.06640625,-1.015625,0.21484375
293,-0.0703125,-1.015625,0.2109375
294,-0.05859375,-1.01953125,0.19921875
295,-0.07421875,-1.0078125,0.21484375
296,-0.06640625,-1.01953125,0.19921875
297,-0.0625,-1.03125,0.19921875
298,-0.07421875,-1.0234375,0.19921875
299,-0.06640625,-1.015625,0.2109375
300,-0.06640625,-1.0234375,0.1953125
301,-0.05078125,-1.01953125,0.19921875
302,-0.0703125,-1.0234375,0.2109375
303,-0.08203125,-1.01953125,0.1953125
304,-0.05859375,-1.01171875,0.2109375
305,-0.0546875,-1.02734375,0.21484375
306,-0.07421875,-1.01171875,0.2109375
307,-0.07421875,-1.01171875,0.21484375
308,-0.08203125,-1.015625,0.2109375
309,-0.078125,-1.01171875,0.22265625
310,-0.0625,-1.015625,0.19921875
311,-0.06640625,-1.02734375,0.1953125
312,-0.078125,-1.015625,0.19921875
313,-0.07421875,-1.01953125,0.203125
314,-0.06640625,-1.01171875,0.203125
315,-0.06640625,-1.01953125,0.21484375
316,-0.06640625,-1.015625,0.2109375
317,-0.06640625,-1.01953125,0.20703125
318,-0.0625,-1.01953125,0.203125
319,-0.07421875,-1.01953125,0.20703125
320,-0.07421875,-1.01171875,0.2109375
321,-0.07421875,-1.01953125,0.19921875
322,-0.06640625,-1.0234375,0.203125
323,-0.078125,-1.01171875,0.20703125
324,-0.0703125,-1.0234375,0.20703125
325,-0.09765625,-1.0234375,0.1796875
326,-0.0703125,-1.015625,0.19921875
327,-0.0703125,-1.02734375,0.19140625
328,-0.0625,-1.01953125,0.20703125
329,-0.0703125,-1.02734375,0.19921875
330,-0.07421875,-1.0234375,0.20703125
331,-0.06640625,-1.015625,0.1953125
332,-0.078125,-1.0078125,0.2109375
333,-0.05078125,-1.0234375,0.21484375
334,-0.0625,-1.01953125,0.21875
335,-0.05859375,-1.0234375,0.20703125
336,-0.08203125,-1.00390625,0.203125
337,-0.06640625,-1.01171875,0.2109375
338,-0.06640625,-1.01953125,0.2265625
339,-0.06640625,-1.01171875,0.19921875
340,-0.06640625,-1.0234375,0.20703125
341,-0.06640625,-1.01171875,0.21875
342,-0.06640625,-1.01171875,0.2109375
343,-0.0625,-1.0234375,0.21484375
344,-0.078125,-1.015625,0.2109375
345,-0.06640625,-1.01171875,0.203125
346,-0.0703125,-1.0234375,0.19921875
347,-0.07421875,-1.015625,0.203125
348,-0.07421875,-1.0234375,0.21875
349,-0.0703125,-1.01171875,0.21484375
350,-0.0703125,-1.015625,0.2109375
351,-0.078125,-1.01171875,0.19921875
352,-0.06640625,-1.015625,0.19921875
353,-0.0703125,-1.0078125,0.2109375
354,-0.07421875,-1.01171875,0.2109375
355,-0.06640625,-1.0078125,0.203125
356,-0.0703125,-1.015625,0.203125
357,-0.0703125,-1.01171875,0.203125
358,-0.05859375,-1.03125,0.203125
359,-0.0703125,-1.02734375,0.2109375
360,-0.07421875,-1.015625,0.20703125
361,-0.06640625,-1.01171875,0.1953125
362,-0.07421875,-1.0078125,0.2109375
363,-0.07421875,-1.0078125,0.19921875
364,-0.0703125,-1.01953125,0.22265625
365,-0.0625,-1.03125,0.1953125
366,-0.08203125,-1.01953125,0.1953125
367,-0.0625,-1.01953125,0.21875
368,-0.06640625,-1.0234375,0.2109375
369,-0.0625,-1.01953125,0.21484375
370,-0.0703125,-1.01953125,0.20703125
371,-0.06640625,-1.0234375,0.21875
372,-0.078125,-1.0,0.20703125
373,-0.05859375,-1.015625,0.20703125
374,-0.0625,-1.0234375,0.2109375
375,-0.0625,-1.015625,0.20703125
376,-0.0546875,-1.01171875,0.21484375
377,-0.06640625,-1.015625,0.203125
378,-0.06640625,-1.01171875,0.19921875
379,-0.0546875,-1.015625,0.20703125
380,-0.0625,-1.01171875,0.20703125
381,-0.0546875,-1.0234375,0.203125
382,-0.05859375,-1.02734375,0.21875
383,-0.06640625,-1.01171875,0.20703125
384,-0.0703125,-1.0234375,0.1953125
385,-0.0625,-1.01953125,0.203125
386,-0.0625,-1.0234375,0.20703125
387,-0.06640625,-1.015625,0.20703125
388,-0.0703125,-1.02734375,0.21484375
389,-0.0859375,-1.01171875,0.17578125
390,-0.078125,-1.01953125,0.21484375
391,-0.0625,-1.0234375,0.203125
392,-0.08203125,-1.01953125,0.2109375
393,-0.0703125,-1.0078125,0.21484375
394,-0.0625,-1.015625,0.19921875
395,-0.0625,-1.015625,0.21484375
396,-0.078125,-1.015625,0.203125
397,-0.078125,-1.01953125,0.1953125
398,-0.0703125,-1.01953125,0.20703125
399,-0.0703125,-1.02734375,0.21484375
400,-0.0703125,-1.0234375,0.21484375
401,-0.0625,-1.0234375,0.20703125
402,-0.07421875,-1.01171875,0.19921875
403,-0.0703125,-1.03125,0.1953125
404,-0.05859375,-1.01953125,0.2109375
405,-0.05859375,-1.02734375,0.2109375
406,-0.0625,-1.0234375,0.1953125
407,-0.05859375,-1.0234375,0.19140625
408,-0.078125,-1.01171875,0.203125
409,-0.0703125,-1.01171875,0.20703125
410,-0.0625,-1.01953125,0.20703125
411,-0.07421875,-1.015625,0.21484375
412,-0.0703125,-1.015625,0.21875
413,-0.0625,-1.02734375,0.20703125
414,-0.0546875,-1.0234375,0.19921875
415,-0.06640625,-1.01171875,0.20703125
416,-0.07421875,-1.01953125,0.203125
417,-0.07421875,-1.01171875,0.19921875
418,-0.0625,-1.0078125,0.203125
419,-0.078125,-1.0234375,0.2109375
420,-0.0625,-1.01953125,0.21484375
421,-0.07421875,-1.01953125,0.21484375
422,-0.07421875,-1.0234375,0.19140625
423,-0.06640625,-1.01953125,0.23046875
424,-0.06640625,-1.01953125,0.21484375
425,-0.06640625,-1.01953125,0.20703125
426,-0.06640625,-1.01953125,0.19921875
427,-0.0703125,-1.015625,0.2109375
428,-0.078125,-1.01171875,0.203125
429,-0.06640625,-1.01953125,0.2109375
430,-0.07421875,-1.0,0.20703125
431,-0.0703125,-1.0234375,0.2109375
432,-0.07421875,-1.015625,0.1953125
433,-0.06640625,-1.01171875,0.20703125
434,-0.0625,-1.02734375,0.203125
435,-0.0703125,-1.015625,0.2109375
436,-0.07421875,-1.0234375,0.203125
437,-0.06640625,-1.015625,0.1953125
438,-0.0703125,-1.0234375,0.203125
439,-0.0703125,-1.01953125,0.2109375
440,-0.05859375,-1.01953125,0.2109375
441,-0.05859375,-1.01171875,0.20703125
442,-0.06640625,-1.01953125,0.203125
443,-0.0703125,-1.01953125,0.19921875
444,-0.0625,-1.01171875,0.2109375
445,-0.06640625,-1.0078125,0.1953125
446,-0.0703125,-1.0,0.19921875
447,-0.06640625,-1.00390625,0.21875
448,-0.0625,-1.015625,0.203125
449,-0.0625,-1.0078125,0.19921875
450,-0.06640625,-1.0078125,0.203125
451,-0.06640625,-1.00390625,0.2109375
452,-0.0703125,-0.99609375,0.2109375
453,-0.07421875,-0.98828125,0.19921875
454,-0.0703125,-0.98828125,0.20703125
455,-0.0703125,-0.99609375,0.2265625
456,-0.0546875,-1.0078125,0.19921875
457,-0.046875,-1.0234375,0.203125
458,-0.0546875,-1.03125,0.1953125
459,-0.06640625,-1.03125,0.20703125
460,-0.06640625,-1.046875,0.21484375
461,-0.078125,-1.05078125,0.21875
462,-0.06640625,-1.0390625,0.20703125
463,-0.06640625,-1.0234375,0.20703125
464,-0.06640625,-1.01953125,0.21484375
465,-0.06640625,-1.01171875,0.1953125
466,-0.05859375,-1.02734375,0.203125
467,-0.07421875,-1.01953125,0.19140625
468,-0.07421875,-1.01171875,0.1953125
469,-0.09375,-1.00390625,0.20703125
470,-0.0625,-1.01171875,0.18359375
471,-0.06640625,-1.01171875,0.1796875
472,-0.0546875,-1.0234375,0.1796875
473,-0.05859375,-1.0234375,0.2109375
474,-0.06640625,-1.0390625,0.19921875
475,-0.0703125,-1.05078125,0.17578125
476,-0.06640625,-1.05859375,0.1796875
477,-0.05859375,-1.0703125,0.1875
478,-0.0625,-1.05859375,0.203125
479,-0.0546875,-1.0546875,0.17578125
480,-0.05859375,-1.04296875,0.1796875
481,-0.05078125,-1.03125,0.1875
482,-0.05859375,-1.01953125,0.18359375
483,-0.04296875,-1.0078125,0.16796875
484,-0.0390625,-1.015625,0.16015625
485,-0.05078125,-1.01953125,0.16796875
486,-0.046875,-1.01171875,0.16796875
487,-0.05078125,-1.01171875,0.15625
488,-0.046875,-1.01171875,0.15234375
489,-0.046875,-1.0078125,0.15625
490,-0.05859375,-1.0078125,0.15625
491,-0.05078125,-1.01171875,0.15234375
492,-0.05859375,-1.015625,0.140625
493,-0.046875,-1.0234375,0.14453125
494,-0.06640625,-1.0078125,0.14453125
495,-0.0546875,-1.0234375,0.1484375
496,-0.05859375,-1.0234375,0.140625
497,-0.05859375,-1.015625,0.14453125
498,-0.03515625,-1.03125,0.140625
499,-0.05078125,-1.015625,0.15234375
500,-0.04296875,-1.0078125,0.14453125
501,-0.04296875,-1.00390625,0.1484375
502,-0.05078125,-1.0234375,0.140625
503,-0.046875,-1.015625,0.16796875
504,-0.05078125,-1.01171875,0.1640625
505,-0.04296875,-1.01171875,0.15625
506,-0.0546875,-1.01171875,0.1640625
507,-0.05859375,-1.00390625,0.15625
508,-0.0625,-1.0078125,0.16015625
509,-0.05859375,-1.0078125,0.1484375
510,-0.0546875,-1.0,0.14453125
511,-0.0546875,-1.0078125,0.1171875
512,-0.0703125,-1.00390625,0.12890625
513,-0.0546875,-1.0078125,0.12109375
514,-0.05859375,-1.01171875,0.11328125
515,-0.0625,-1.0078125,0.109375
516,-0.05859375,-1.0,0.09765625
517,-0.0234375,-1.02734375,0.08984375
518,-0.05859375,-1.0,0.09765625
519,-0.046875,-1.0078125,0.08203125
520,-0.05078125,-0.99609375,0.0859375
521,-0.0390625,-1.01953125,0.078125
522,-0.046875,-1.0078125,0.0625
523,-0.05078125,-1.0078125,0.07421875
524,-0.0546875,-1.02734375,0.0625
525,-0.05078125,-1.02734375,0.0625
526,-0.0625,-1.03515625,0.078125
527,-0.0625,-1.02734375,0.05859375
528,-0.06640625,-1.046875,0.0703125
529,-0.078125,-1.03515625,0.0703125
530,-0.0703125,-1.0390625,0.08203125
531,-0.078125,-1.03125,0.0703125
532,-0.08203125,-1.02734375,0.0703125
533,-0.078125,-1.01953125,0.07421875
534,-0.0625,-1.015625,0.0546875
535,-0.0625,-1.0,0.0546875
536,-0.07421875,-1.00390625,0.05078125
537,-0.0703125,-1.0,0.0390625
538,-0.06640625,-1.00390625,0.03125
539,-0.0625,-0.9921875,0.03125
540,-0.0625,-0.9921875,0.0234375
541,-0.05859375,-0.98046875,0.02734375
542,-0.046875,-0.984375,0.01953125
543,-0.05078125,-0.984375,0.015625
544,-0.046875,-0.9921875,0.0
545,-0.05859375,-0.9765625,-0.01953125
546,-0.0390625,-0.984375,-0.015625
547,-0.05078125,-0.96875,-0.046875
548,-0.0546875,-0.9609375,-0.0390625
549,-0.05859375,-0.9609375,-0.03515625
550,-0.046875,-0.96484375,-0.04296875
551,-0.03515625,-0.95703125,-0.05859375
552,-0.015625,-0.94921875,-0.046875
553,-0.00390625,-0.94921875,-0.0390625
554,-0.0078125,-0.94140625,-0.0390625
555,0.0,-0.94140625,-0.03515625
556,0.00390625,-0.9375,-0.05078125
557,0.01171875,-0.93359375,-0.0625
558,0.01171875,-0.921875,-0.078125
559,0.02734375,-0.8984375,-0.10546875
560,0.0234375,-0.92578125,-0.1015625
561,0.015625,-0.91796875,-0.1171875
562,0.02734375,-0.921875,-0.109375
563,0.0234375,-0.91796875,-0.13671875
564,0.03515625,-0.9140625,-0.1328125
565,0.0390625,-0.9140625,-0.1328125
566,0.02734375,-0.8984375,-0.11328125
567,0.03125,-0.90234375,-0.09765625
568,0.0390625,-0.890625,-0.1015625
569,0.03515625,-0.87890625,-0.08203125
570,0.01953125,-0.875,-0.07421875
571,0.01171875,-0.859375,-0.05859375
572,0.00390625,-0.875,-0.05859375
573,0.00390625,-0.87109375,-0.06640625
574,0.0,-0.86328125,-0.07421875
575,-0.01171875,-0.87109375,-0.05859375
576,-0.03515625,-0.85546875,-0.06640625
577,-0.05078125,-0.8515625,-0.08203125
578,-0.05859375,-0.84765625,-0.0625
579,-0.0625,-0.83984375,-0.07421875
580,-0.06640625,-0.83984375,-0.08203125
581,-0.0703125,-0.8515625,-0.0625
582,-0.05859375,-0.83203125,-0.08203125
583,-0.05859375,-0.83203125,-0.09375
584,-0.05078125,-0.83203125,-0.10546875
585,-0.05859375,-0.84375,-0.109375
586,-0.06640625,-0.85546875,-0.109375
587,-0.06640625,-0.86328125,-0.109375
588,-0.06640625,-0.8828125,-0.109375
589,-0.08203125,-0.8828125,-0.1171875
590,-0.06640625,-0.89453125,-0.12109375
591,-0.0703125,-0.8984375,-0.125
592,-0.0546875,-0.90234375,-0.14453125
593,-0.03125,-0.890625,-0.12890625
594,-0.03515625,-0.8984375,-0.125
595,-0.046875,-0.88671875,-0.09765625
596,-0.04296875,-0.89453125,-0.0859375
597,-0.0390625,-0.8984375,-0.078125
598,-0.03125,-0.90234375,-0.08984375
599,-0.03125,-0.91796875,-0.09375
600,-0.0390625,-0.9296875,-0.0859375
601,-0.06640625,-0.953125,-0.08984375
602,-0.06640625,-0.9609375,-0.08984375
603,-0.08203125,-0.98046875,-0.09765625
604,-0.09375,-0.98828125,-0.08984375
605,-0.11328125,-0.984375,-0.1171875
606,-0.12109375,-0.984375,-0.125
607,-0.12890625,-0.96875,-0.14453125
608,-0.12109375,-0.95703125,-0.13671875
609,-0.1328125,-0.93359375,-0.09765625
610,-0.125,-0.921875,-0.09375
611,-0.09375,-0.91796875,-0.0859375
612,-0.078125,-0.8984375,-0.06640625
613,-0.05859375,-0.87109375,-0.09765625
614,-0.05078125,-0.890625,-0.10546875
615,-0.0390625,-0.875,-0.10546875
616,-0.03125,-0.875,-0.1171875
617,-0.02734375,-0.859375,-0.140625
618,-0.03125,-0.83984375,-0.15625
619,-0.03125,-0.828125,-0.19140625
620,-0.03125,-0.828125,-0.21484375
621,-0.04296875,-0.82421875,-0.21875
622,-0.0390625,-0.82421875,-0.23046875
623,-0.046875,-0.828125,-0.22265625
624,-0.03515625,-0.84375,-0.171875
625,-0.05078125,-0.85546875,-0.15625
626,-0.04296875,-0.8671875,-0.1484375
627,-0.046875,-0.87109375,-0.12109375
628,-0.03125,-0.890625,-0.109375
629,-0.0234375,-0.88671875,-0.1015625
630,0.0,-0.90625,-0.12890625
631,-0.03125,-0.90234375,-0.140625
632,-0.01953125,-0.91015625,-0.1796875
633,-0.00390625,-0.91015625,-0.1953125
634,-0.0078125,-0.9296875,-0.19921875
635,0.0,-0.9375,-0.21484375
636,-0.01171875,-0.95703125,-0.20703125
637,-0.01171875,-0.95703125,-0.21875
638,-0.03125,-0.95703125,-0.20703125
639,-0.02734375,-0.9609375,-0.1953125
640,-0.0234375,-0.96484375,-0.18359375
641,-0.03125,-0.9453125,-0.1953125
642,-0.0390625,-0.94140625,-0.19921875
643,-0.02734375,-0.90625,-0.21875
644,-0.04296875,-0.890625,-0.2109375
645,-0.04296875,-0.890625,-0.203125
646,-0.0390625,-0.88671875,-0.1796875
647,-0.04296875,-0.890625,-0.171875
648,-0.05078125,-0.91015625,-0.1640625
649,-0.046875,-0.9296875,-0.171875
650,-0.04296875,-0.95703125,-0.1875
651,-0.06640625,-0.953125,-0.1953125
652,-0.0859375,-0.953125,-0.19921875
653,-0.1015625,-0.9609375,-0.203125
654,-0.109375,-0.94921875,-0.20703125
655,-0.125,-0.93359375,-0.24609375
656,-0.1328125,-0.93359375,-0.21875
657,-0.1328125,-0.90234375,-0.23046875
658,-0.09765625,-0.89453125,-0.2265625
659,-0.0859375,-0.87109375,-0.234375
660,-0.07421875,-0.88671875,-0.2421875
661,-0.0546875,-0.89453125,-0.23828125
662,-0.04296875,-0.921875,-0.25
663,-0.0234375,-0.9453125,-0.23828125
664,0.0,-0.984375,-0.234375
665,0.0,-1.0078125,-0.23828125
666,-0.03515625,-1.03125,-0.2265625
667,-0.03515625,-1.06640625,-0.2109375
668,-0.046875,-1.078125,-0.19921875
669,-0.05078125,-1.08984375,-0.203125
670,-0.06640625,-1.0859375,-0.21484375
671,-0.08203125,-1.07421875,-0.20703125
672,-0.11328125,-1.05078125,-0.21484375
673,-0.109375,-1.02734375,-0.21484375
674,-0.09765625,-1.01171875,-0.2578125
675,-0.07421875,-1.01171875,-0.2578125
676,-0.0625,-1.015625,-0.26953125
677,-0.0625,-1.02734375,-0.28125
678,-0.046875,-1.03515625,-0.28515625
679,-0.015625,-1.02734375,-0.25390625
680,0.0,-1.05078125,-0.26953125
681,0.0,-1.0546875,-0.25390625
682,0.0078125,-1.046875,-0.25390625
683,0.00390625,-1.05078125,-0.2421875
684,0.0,-1.02734375,-0.20703125
685,-0.03125,-1.015625,-0.1796875
686,-0.046875,-1.0078125,-0.15625
687,-0.0625,-1.00390625,-0.12890625
688,-0.05078125,-0.99609375,-0.1484375
689,-0.05859375,-0.96484375,-0.171875
690,-0.0546875,-0.94921875,-0.1796875
691,-0.08984375,-0.9453125,-0.18359375
692,-0.12109375,-0.9453125,-0.18359375
693,-0.13671875,-0.9453125,-0.21875
694,-0.140625,-0.953125,-0.2421875
695,-0.125,-0.98046875,-0.24609375
696,-0.14453125,-1.00390625,-0.2421875
697,-0.14453125,-1.01953125,-0.23046875
698,-0.140625,-1.0859375,-0.1484375
699,-0.1484375,-1.1015625,-0.18359375
700,-0.13671875,-1.1015625,-0.1953125
701,-0.1171875,-1.09375,-0.19140625
702,-0.109375,-1.08203125,-0.16796875
703,-0.09765625,-1.05078125,-0.15234375
704,-0.0859375,-1.0390625,-0.125
705,-0.08984375,-1.00390625,-0.125
706,-0.08984375,-1.00390625,-0.09765625
707,-0.0859375,-0.9765625,-0.0859375
708,-0.08203125,-0.96484375,-0.078125
709,-0.08203125,-0.97265625,-0.07421875
710,-0.078125,-0.98828125,-0.07421875
711,-0.10546875,-0.98828125,-0.078125
712,-0.1171875,-0.9921875,-0.09375
713,-0.12109375,-0.99609375,-0.109375
714,-0.125,-1.00390625,-0.16015625
715,-0.10546875,-1.02734375,-0.1640625
716,-0.08984375,-1.0390625,-0.171875
717,-0.08984375,-1.046875,-0.171875
718,-0.078125,-1.0703125,-0.16015625
719,-0.08984375,-1.078125,-0.14453125
720,-0.0625,-1.10546875,-0.140625
721,-0.0390625,-1.109375,-0.140625
722,-0.015625,-1.13671875,-0.12890625
723,-0.0390625,-1.11328125,-0.09765625
724,-0.05859375,-1.1015625,-0.1015625
725,-0.09375,-1.09375,-0.0859375
726,-0.13671875,-1.08984375,-0.0703125
727,-0.1484375,-1.08203125,-0.0625
728,-0.15625,-1.078125,-0.07421875
729,-0.16015625,-1.0859375,-0.0546875
730,-0.16796875,-1.08203125,-0.078125
731,-0.17578125,-1.109375,-0.08203125
732,-0.1484375,-1.13671875,-0.08203125
733,-0.14453125,-1.16015625,-0.1015625
734,-0.12109375,-1.1875,-0.109375
735,-0.09765625,-1.19921875,-0.09765625
736,-0.0703125,-1.2109375,-0.09765625
737,-0.0546875,-1.2265625,-0.09765625
738,-0.0546875,-1.23828125,-0.0859375
739,-0.04296875,-1.25,-0.10546875
740,-0.046875,-1.25390625,-0.109375
741,-0.0703125,-1.24609375,-0.1171875
742,-0.09765625,-1.22265625,-0.12890625
743,-0.12890625,-1.19921875,-0.109375
744,-0.15625,-1.18359375,-0.109375
745,-0.16796875,-1.1796875,-0.09375
746,-0.17578125,-1.1875,-0.10546875
747,-0.171875,-1.1875,-0.09765625
748,-0.171875,-1.1875,-0.12109375
749,-0.16015625,-1.21484375,-0.1015625
750,-0.16796875,-1.21484375,-0.10546875
751,-0.15234375,-1.234375,-0.08984375
752,-0.125,-1.23828125,-0.08984375
753,-0.125,-1.25,-0.07421875
754,-0.09375,-1.265625,-0.0546875
755,-0.07421875,-1.296875,-0.046875
756,-0.09375,-1.296875,-0.0390625
757,-0.0703125,-1.28125,-0.02734375
758,-0.0625,-1.29296875,-0.046875
759,-0.0859375,-1.27734375,-0.046875
760,-0.08984375,-1.28515625,-0.0390625
761,-0.1015625,-1.28515625,-0.0078125
762,-0.10546875,-1.28125,-0.00390625
763,-0.109375,-1.26953125,0.0
764,-0.11328125,-1.25,0.00390625
765,-0.125,-1.2421875,0.0078125
766,-0.13671875,-1.20703125,0.01171875
767,-0.109375,-1.1796875,0.0078125
768,-0.109375,-1.1796875,0.01171875
769,-0.109375,-1.15625,0.0078125
770,-0.078125,-1.16796875,0.01953125
771,-0.0859375,-1.171875,0.046875
772,-0.05859375,-1.1640625,0.0390625
773,-0.04296875,-1.203125,0.05859375
774,-0.0625,-1.21484375,0.05078125
775,-0.0390625,-1.2109375,0.06640625
776,-0.04296875,-1.2421875,0.06640625
777,-0.02734375,-1.25,0.1015625
778,-0.0390625,-1.25,0.09765625
779,-0.03515625,-1.265625,0.09765625
780,-0.05859375,-1.25,0.10546875
781,-0.0625,-1.25390625,0.12109375
782,-0.0703125,-1.24609375,0.10546875
783,-0.08984375,-1.2421875,0.10546875
784,-0.1015625,-1.2265625,0.1015625
785,-0.1015625,-1.234375,0.10546875
786,-0.10546875,-1.234375,0.10546875
787,-0.08203125,-1.23046875,0.10546875
788,-0.1015625,-1.21875,0.08984375
789,-0.1015625,-1.21484375,0.07421875
790,-0.1015625,-1.19921875,0.1015625
791,-0.1015625,-1.203125,0.08984375
792,-0.12109375,-1.171875,0.09765625
793,-0.12109375,-1.15625,0.09765625
794,-0.1328125,-1.140625,0.08984375
795,-0.14453125,-1.140625,0.09765625
796,-0.14453125,-1.109375,0.08203125
797,-0.16015625,-1.1171875,0.08203125
798,-0.1640625,-1.1171875,0.08984375
799,-0.1484375,-1.1171875,0.09765625
800,-0.16796875,-1.11328125,0.08984375
801,-0.15625,-1.10546875,0.09765625
802,-0.1484375,-1.10546875,0.10546875
803,-0.140625,-1.09765625,0.10546875
804,-0.1328125,-1.09375,0.109375
805,-0.1171875,-1.08203125,0.09765625
806,-0.1171875,-1.0625,0.11328125
807,-0.10546875,-1.03515625,0.09765625
808,-0.1015625,-1.015625,0.12109375
809,-0.10546875,-0.99609375,0.125
810,-0.08984375,-0.9765625,0.125
811,-0.09375,-0.953125,0.12109375
812,-0.09375,-0.94140625,0.12890625
813,-0.09375,-0.94140625,0.1171875
814,-0.0859375,-0.9375,0.12890625
815,-0.078125,-0.9375,0.125
816,-0.078125,-0.94140625,0.125
817,-0.078125,-0.94921875,0.1171875
818,-0.06640625,-0.94140625,0.140625
819,-0.0625,-0.984375,0.12890625
820,-0.078125,-0.9765625,0.13671875
821,-0.0625,-0.9921875,0.15234375
822,-0.05859375,-1.00390625,0.1640625
823,-0.0625,-1.0,0.18359375
824,-0.0390625,-1.01953125,0.171875
825,-0.0546875,-1.0,0.17578125
826,-0.0390625,-0.99609375,0.171875
827,-0.03515625,-1.0234375,0.1796875
828,-0.03515625,-1.01953125,0.17578125
829,-0.04296875,-1.01953125,0.1796875
830,-0.0390625,-1.01171875,0.1796875
831,-0.0625,-1.015625,0.1953125
832,-0.06640625,-1.01171875,0.18359375
833,-0.06640625,-1.0,0.1875
834,-0.08203125,-1.0,0.19140625
835,-0.0703125,-0.9921875,0.17578125
836,-0.0859375,-0.98828125,0.1875
837,-0.0859375,-1.0,0.1953125
838,-0.078125,-0.9921875,0.1640625
839,-0.08203125,-0.9921875,0.171875
840,-0.078125,-1.015625,0.17578125
841,-0.05859375,-1.00390625,0.17578125
842,-0.07421875,-1.0,0.15234375
843,-0.0703125,-1.0078125,0.16015625
844,-0.06640625,-1.015625,0.171875
845,-0.06640625,-1.01171875,0.18359375
846,-0.06640625,-1.02734375,0.17578125
847,-0.07421875,-1.01953125,0.17578125
848,-0.0546875,-1.03125,0.17578125
849,-0.06640625,-1.0234375,0.1640625
850,-0.05078125,-1.03125,0.15625
851,-0.0546875,-1.03515625,0.1640625
852,-0.05078125,-1.03515625,0.15234375
853,-0.046875,-1.03515625,0.16015625
854,-0.0625,-1.03515625,0.16015625
855,-0.05078125,-1.04296875,0.15234375
856,-0.0625,-1.05078125,0.16015625
857,-0.06640625,-1.0625,0.1484375
858,-0.06640625,-1.0625,0.15625
859,-0.07421875,-1.0703125,0.16015625
860,-0.07421875,-1.0625,0.15625
861,-0.08203125,-1.05078125,0.1640625
862,-0.09765625,-1.0703125,0.15234375
863,-0.1015625,-1.0703125,0.171875
864,-0.1171875,-1.05859375,0.16796875
865,-0.1015625,-1.0625,0.1796875
866,-0.10546875,-1.0859375,0.18359375
867,-0.11328125,-1.07421875,0.18359375
868,-0.12890625,-1.05859375,0.18359375
869,-0.12109375,-1.0625,0.17578125
870,-0.125,-1.05859375,0.18359375
871,-0.109375,-1.0546875,0.1875
872,-0.11328125,-1.05078125,0.17578125
873,-0.11328125,-1.0546875,0.17578125
874,-0.1015625,-1.0390625,0.1796875
875,-0.0859375,-1.04296875,0.16015625
876,-0.0859375,-1.02734375,0.1875
877,-0.08984375,-1.01953125,0.18359375
878,-0.08984375,-1.0234375,0.17578125
879,-0.0859375,-1.015625,0.1796875
880,-0.08203125,-1.015625,0.1796875
881,-0.07421875,-1.0234375,0.171875
882,-0.078125,-1.0,0.17578125
883,-0.07421875,-1.00390625,0.16796875
884,-0.0703125,-0.9921875,0.17578125
885,-0.08984375,-1.0078125,0.16796875
886,-0.08203125,-1.00390625,0.1640625
887,-0.08203125,-1.0,0.16015625
888,-0.0859375,-1.0078125,0.171875
889,-0.09375,-1.00390625,0.171875
890,-0.08984375,-1.0078125,0.16796875
891,-0.08984375,-1.00390625,0.17578125
892,-0.09765625,-1.01171875,0.1953125
893,-0.1015625,-1.01171875,0.17578125
894,-0.09765625,-1.0078125,0.1875
895,-0.09375,-1.01953125,0.1796875
896,-0.0859375,-1.01171875,0.1640625
897,-0.08984375,-1.0078125,0.18359375
898,-0.09765625,-1.01171875,0.1796875
899,-0.1015625,-1.01171875,0.18359375
900,-0.1015625,-1.01171875,0.1875
901,-0.10546875,-1.0078125,0.1640625
902,-0.109375,-1.0078125,0.18359375
903,-0.109375,-1.0,0.16015625
904,-0.09765625,-1.0078125,0.15625
905,-0.11328125,-1.00390625,0.16015625
906,-0.1171875,-1.0078125,0.171875
907,-0.109375,-1.01171875,0.15625
908,-0.1015625,-1.01171875,0.18359375
909,-0.10546875,-1.02734375,0.19140625
910,-0.109375,-1.01171875,0.18359375
911,-0.1015625,-1.01953125,0.1796875
912,-0.08984375,-1.03125,0.17578125
913,-0.08203125,-1.04296875,0.1875
914,-0.0859375,-1.0390625,0.1875
915,-0.078125,-1.03515625,0.171875
916,-0.078125,-1.0390625,0.17578125
917,-0.08203125,-1.03515625,0.1796875
918,-0.08984375,-1.0390625,0.19140625
919,-0.0859375,-1.03515625,0.1796875
920,-0.078125,-1.03125,0.1875
921,-0.08984375,-1.03125,0.1796875
922,-0.078125,-1.02734375,0.19140625
923,-0.07421875,-1.03125,0.1640625
924,-0.10546875,-1.0234375,0.1875
925,-0.08203125,-1.03515625,0.16796875
926,-0.1015625,-1.0390625,0.19921875
927,-0.1015625,-1.03125,0.16796875
928,-0.1015625,-1.0390625,0.1796875
929,-0.09375,-1.05078125,0.16796875
930,-0.09765625,-1.0390625,0.171875
931,-0.109375,-1.046875,0.18359375
932,-0.109375,-1.05078125,0.1796875
933,-0.12890625,-1.04296875,0.171875
934,-0.13671875,-1.02734375,0.17578125
935,-0.125,-1.03515625,0.1875
936,-0.125,-1.02734375,0.1953125
937,-0.11328125,-1.01953125,0.1875
938,-0.109375,-1.03125,0.18359375
939,-0.1171875,-1.03125,0.16796875
940,-0.09765625,-1.03125,0.18359375
941,-0.1015625,-1.01953125,0.17578125
942,-0.09765625,-1.0234375,0.17578125
943,-0.1015625,-1.01953125,0.16796875
944,-0.09765625,-1.02734375,0.16796875
945,-0.09375,-1.01171875,0.19140625
946,-0.10546875,-1.01171875,0.140625
947,-0.1015625,-1.01171875,0.16796875
948,-0.1015625,-1.0078125,0.1796875
949,-0.08984375,-1.01171875,0.1796875
950,-0.109375,-1.01953125,0.1875
951,-0.10546875,-1.01171875,0.19140625
952,-0.09375,-1.01953125,0.19140625
953,-0.09765625,-1.01171875,0.1796875
954,-0.09375,-1.01171875,0.19140625
955,-0.09375,-1.01171875,0.1796875
956,-0.09765625,-1.0078125,0.1875
957,-0.109375,-1.015625,0.18359375
958,-0.10546875,-1.0078125,0.1796875
959,-0.10546875,-1.0234375,0.18359375
960,-0.1171875,-1.0078125,0.1796875
961,-0.11328125,-1.0078125,0.17578125
962,-0.12109375,-1.015625,0.1875
963,-0.12109375,-1.01171875,0.1875
964,-0.1171875,-1.015625,0.18359375
965,-0.12109375,-1.01171875,0.19140625
966,-0.11328125,-1.0078125,0.18359375
967,-0.11328125,-1.0,0.171875
968,-0.1171875,-0.98828125,0.203125
969,-0.1171875,-1.01953125,0.1796875
970,-0.1171875,-1.0078125,0.171875
971,-0.125,-1.01953125,0.171875
972,-0.12109375,-1.015625,0.171875
973,-0.11328125,-1.01171875,0.1875
974,-0.125,-1.00390625,0.171875
975,-0.1015625,-1.02734375,0.17578125
976,-0.12109375,-1.015625,0.17578125
977,-0.1015625,-1.015625,0.17578125
978,-0.1015625,-1.0078125,0.1796875
979,-0.09375,-1.02734375,0.1796875
980,-0.109375,-1.0234375,0.17578125
981,-0.109375,-1.02734375,0.171875
982,-0.109375,-1.0234375,0.16796875
983,-0.1015625,-1.01953125,0.17578125
984,-0.12109375,-1.015625,0.1796875
985,-0.1015625,-1.0234375,0.1796875
986,-0.11328125,-1.03125,0.16796875
987,-0.109375,-1.0234375,0.171875
988,-0.11328125,-1.02734375,0.16796875
989,-0.12109375,-1.03125,0.18359375
990,-0.1015625,-1.0234375,0.16796875
991,-0.11328125,-1.0234375,0.1640625
992,-0.11328125,-1.0234375,0.1796875
993,-0.1171875,-1.0234375,0.17578125
994,-0.109375,-1.03515625,0.1796875
995,-0.12109375,-1.015625,0.19140625
996,-0.1171875,-1.0234375,0.1640625
997,-0.109375,-1.01953125,0.18359375
998,-0.11328125,-1.02734375,0.171875
999,-0.11328125,-1.01953125,0.171875
1000,-0.11328125,-1.0234375,0.16796875
1001,-0.109375,-1.03515625,0.1640625
1002,-0.1015625,-1.03125,0.1796875
1003,-0.09765625,-1.03515625,0.1640625
1004,-0.109375,-1.02734375,0.171875
1005,-0.1015625,-1.01953125,0.17578125
1006,-0.10546875,-1.02734375,0.1796875
1007,-0.11328125,-1.01171875,0.1640625
1008,-0.109375,-1.015625,0.1875
1009,-0.109375,-1.0,0.16796875
1010,-0.11328125,-1.01171875,0.171875
1011,-0.12109375,-1.00390625,0.17578125
1012,-0.1171875,-1.0078125,0.1953125
1013,-0.10546875,-1.01953125,0.18359375
1014,-0.109375,-1.01953125,0.171875
1015,-0.09765625,-1.01171875,0.17578125
1016,-0.09765625,-1.0234375,0.171875
1017,-0.09765625,-1.02734375,0.16796875
1018,-0.09375,-1.01953125,0.1953125
1019,-0.09375,-1.01171875,0.1796875
1020,-0.1015625,-1.015625,0.171875
1021,-0.109375,-1.02734375,0.18359375
1022,-0.11328125,-1.02734375,0.18359375
1023,-0.11328125,-1.03125,0.1796875
1024,-0.1171875,-1.0234375,0.1875
1025,-0.1171875,-1.03125,0.16796875
1026,-0.109375,-1.03125,0.17578125
1027,-0.11328125,-1.0234375,0.1875
1028,-0.1171875,-1.015625,0.1640625
1029,-0.1015625,-1.01953125,0.1796875
1030,-0.109375,-1.015625,0.18359375
1031,-0.11328125,-1.01171875,0.171875
1032,-0.11328125,-1.015625,0.171875
1033,-0.109375,-1.015625,0.16015625
1034,-0.11328125,-1.00390625,0.18359375
1035,-0.1015625,-1.01171875,0.18359375
1036,-0.1171875,-1.00390625,0.17578125
1037,-0.1015625,-1.00390625,0.1796875
1038,-0.109375,-1.0078125,0.18359375
1039,-0.11328125,-1.01171875,0.18359375
1040,-0.109375,-1.0234375,0.16796875
1041,-0.12109375,-1.01953125,0.1640625
1042,-0.10546875,-1.01953125,0.17578125
1043,-0.10546875,-1.02734375,0.171875
1044,-0.109375,-1.01953125,0.1796875
1045,-0.1015625,-1.015625,0.171875
1046,-0.09765625,-1.01953125,0.171875
1047,-0.09765625,-1.0234375,0.18359375
1048,-0.10546875,-1.01171875,0.1875
1049,-0.11328125,-1.015625,0.17578125
1050,-0.1171875,-1.015625,0.17578125
1051,-0.11328125,-1.01953125,0.17578125
1052,-0.1171875,-1.01953125,0.17578125
1053,-0.12109375,-1.03125,0.171875
1054,-0.10546875,-1.0234375,0.17578125
1055,-0.09765625,-1.01953125,0.16796875
1056,-0.109375,-1.015625,0.1796875
1057,-0.09765625,-1.0234375,0.18359375
1058,-0.10546875,-1.01953125,0.18359375
1059,-0.09765625,-1.01171875,0.1796875
1060,-0.10546875,-1.015625,0.17578125
1061,-0.09765625,-1.00390625,0.18359375
1062,-0.109375,-1.02734375,0.1875
1063,-0.11328125,-1.01171875,0.17578125
1064,-0.109375,-1.015625,0.1640625
1065,-0.109375,-1.0234375,0.19140625
1066,-0.1171875,-1.01953125,0.171875
1067,-0.11328125,-1.0234375,0.18359375
1068,-0.09765625,-1.01953125,0.17578125
1069,-0.109375,-1.01953125,0.171875
1070,-0.1015625,-1.015625,0.18359375
1071,-0.1015625,-1.02734375,0.16015625
1072,-0.1015625,-1.01953125,0.17578125
1073,-0.09765625,-1.0234375,0.19140625
1074,-0.1015625,-1.01953125,0.16796875
1075,-0.09765625,-1.0234375,0.17578125
1076,-0.10546875,-1.0078125,0.1796875
1077,-0.1015625,-1.01953125,0.1875
1078,-0.0859375,-1.01171875,0.1796875
1079,-0.10546875,-1.0078125,0.16015625
1080,-0.09765625,-1.01953125,0.17578125
1081,-0.09375,-1.00390625,0.18359375
1082,-0.1015625,-1.01171875,0.1953125
1083,-0.08984375,-1.03515625,0.18359375
1084,-0.1015625,-1.02734375,0.19140625
1085,-0.109375,-1.015625,0.19140625
1086,-0.109375,-1.00390625,0.18359375
1087,-0.1015625,-1.01953125,0.19140625
1088,-0.11328125,-1.015625,0.18359375
1089,-0.10546875,-1.01953125,0.1796875
1090,-0.1015625,-1.0234375,0.1796875
1091,-0.09375,-1.03125,0.17578125
1092,-0.09375,-1.0234375,0.1796875
1093,-0.09765625,-1.01171875,0.18359375
1094,-0.08984375,-1.015625,0.17578125
1095,-0.09765625,-1.0234375,0.16796875
1096,-0.0859375,-1.0390625,0.1796875
1097,-0.08984375,-1.01953125,0.1796875
1098,-0.09375,-1.0078125,0.171875
1099,-0.09375,-1.0078125,0.1953125
1100,-0.10546875,-1.0078125,0.1875
1101,-0.09375,-1.0234375,0.1875
1102,-0.09765625,-1.0234375,0.1875
1103,-0.10546875,-1.015625,0.1875
1104,-0.08984375,-1.015625,0.1796875
1105,-0.109375,-1.0234375,0.18359375
1106,-0.09765625,-1.0234375,0.1875
1107,-0.1171875,-1.01953125,0.19140625
1108,-0.1015625,-1.02734375,0.16796875
1109,-0.1015625,-1.0078125,0.1796875
1110,-0.109375,-1.015625,0.1953125
1111,-0.09765625,-1.01953125,0.1875
1112,-0.1015625,-1.01171875,0.1875
1113,-0.09765625,-1.0078125,0.17578125
1114,-0.09765625,-1.0234375,0.1796875
1115,-0.10546875,-1.015625,0.1953125
1116,-0.09375,-1.0234375,0.19140625
1117,-0.08984375,-1.03125,0.1953125
1118,-0.109375,-1.01953125,0.19140625
1119,-0.09765625,-1.02734375,0.1796875
1120,-0.11328125,-1.0234375,0.1953125
1121,-0.11328125,-1.01171875,0.18359375
1122,-0.10546875,-1.01953125,0.18359375
1123,-0.109375,-1.01171875,0.1875
1124,-0.09765625,-1.01953125,0.18359375
1125,-0.1171875,-1.0,0.19921875
1126,-0.10546875,-1.01171875,0.19140625
1127,-0.08984375,-1.015625,0.19140625
1128,-0.10546875,-1.01171875,0.19921875
1129,-0.1015625,-1.01171875,0.1875
1130,-0.09765625,-1.01953125,0.18359375
1131,-0.11328125,-1.0078125,0.16015625
1132,-0.1015625,-1.015625,0.17578125
1133,-0.09765625,-1.0234375,0.1796875
1134,-0.10546875,-1.015625,0.1796875
1135,-0.10546875,-1.00390625,0.1796875
1136,-0.1015625,-1.0078125,0.1796875
1137,-0.09375,-1.0078125,0.1796875
1138,-0.109375,-1.015625,0.1875
1139,-0.11328125,-1.01953125,0.18359375
1140,-0.109375,-1.01953125,0.18359375
1141,-0.09375,-1.01953125,0.171875
1142,-0.09765625,-1.01953125,0.18359375
1143,-0.10546875,-1.0234375,0.1875
1144,-0.1015625,-1.01953125,0.17578125
1145,-0.09765625,-1.01953125,0.18359375
1146,-0.09765625,-1.0234375,0.171875
1147,-0.08984375,-1.01953125,0.1875
1148,-0.09765625,-1.01953125,0.1796875
1149,-0.09765625,-1.01171875,0.19140625
1150,-0.09765625,-1.015625,0.1796875
1151,-0.09375,-1.015625,0.1796875
1152,-0.10546875,-1.01953125,0.1953125
1153,-0.10546875,-1.02734375,0.1875
1154,-0.109375,-1.01953125,0.1796875
1155,-0.1015625,-1.03125,0.1796875
1156,-0.09765625,-1.03125,0.1875
1157,-0.109375,-1.0234375,0.1796875
1158,-0.1015625,-1.02734375,0.18359375
1159,-0.1015625,-1.01171875,0.19140625
1160,-0.07421875,-1.0078125,0.19921875
1161,-0.109375,-1.015625,0.171875
1162,-0.12109375,-1.08203125,0.19140625
1163,-0.08984375,-1.03125,0.15234375
1164,-0.078125,-1.03515625,0.203125
1165,-0.06640625,-1.04296875,0.203125
1166,-0.07421875,-0.984375,0.171875
1167,-0.1015625,-1.0234375,0.17578125
1168,-0.11328125,-1.01953125,0.1875
1169,-0.11328125,-1.0078125,0.1640625
1170,-0.08203125,-1.01953125,0.171875
1171,-0.09765625,-1.0234375,0.18359375
1172,-0.109375,-1.01953125,0.171875
1173,-0.10546875,-1.00390625,0.1796875
1174,-0.11328125,-1.01171875,0.18359375
1175,-0.0625,-1.01953125,0.1640625
1176,-0.1328125,-0.984375,0.22265625
1177,-0.08984375,-1.0234375,0.15234375
1178,-0.10546875,-1.0078125,0.1796875
1179,-0.0859375,-1.02734375,0.21875
1180,-0.11328125,-1.0078125,0.1328125
1181,-0.11328125,-1.0234375,0.15625
1182,-0.109375,-1.00390625,0.171875
1183,-0.1171875,-1.03125,0.17578125
1184,-0.10546875,-1.03515625,0.17578125
1185,-0.10546875,-1.046875,0.2265625
1186,-0.09765625,-1.01953125,0.19140625
1187,-0.1015625,-1.0234375,0.18359375
1188,-0.1015625,-1.02734375,0.1796875
1189,-0.1015625,-1.01953125,0.18359375
1190,-0.13671875,-1.00390625,0.1796875
1191,-0.1015625,-1.02734375,0.25390625
1192,-0.1015625,-0.99609375,0.16015625
1193,-0.11328125,-0.9921875,0.203125
1194,-0.12109375,-1.01953125,0.1875
1195,-0.16796875,-1.04296875,0.28515625
1196,-0.0703125,-0.98828125,0.14453125
1197,-0.1015625,-1.00390625,0.19921875
1198,-0.09375,-1.03125,0.18359375
1199,-0.05859375,-1.0,0.18359375
1200,-0.0859375,-1.0078125,0.1875
1201,-0.10546875,-1.0234375,0.1875
1202,-0.109375,-1.01953125,0.1953125
1203,-0.09765625,-1.03125,0.1875
1204,-0.10546875,-1.02734375,0.1796875
1205,-0.09765625,-1.0234375,0.20703125
1206,-0.1328125,-1.03515625,0.19921875
1207,-0.11328125,-1.015625,0.20703125
1208,-0.0859375,-1.01171875,0.20703125
1209,-0.0859375,-1.01953125,0.1640625
1210,-0.08984375,-1.0078125,0.1953125
1211,-0.09375,-1.03125,0.1796875
1212,-0.11328125,-1.01171875,0.21484375
1213,-0.15234375,-1.02734375,0.18359375
1214,-0.10546875,-1.0078125,0.19140625
1215,-0.1171875,-1.0,0.1796875
1216,-0.1015625,-1.00390625,0.19140625
1217,-0.11328125,-1.01171875,0.19140625
1218,-0.1015625,-1.00390625,0.1875
1219,-0.09765625,-1.01953125,0.1953125
1220,-0.11328125,-1.0234375,0.16796875
1221,-0.10546875,-1.08203125,0.15625
1222,-0.125,-0.95703125,0.1640625
1223,-0.12109375,-1.0234375,0.1875
1224,-0.125,-1.0,0.24609375
1225,-0.09375,-1.05078125,0.1328125
1226,-0.10546875,-1.03515625,0.12109375
1227,-0.15234375,-1.03515625,0.2109375
1228,-0.0859375,-1.015625,0.203125
1229,-0.109375,-1.01953125,0.2109375
1230,-0.11328125,-1.0078125,0.1875
1231,-0.1015625,-1.0234375,0.140625
1232,-0.1015625,-1.01171875,0.1875
1233,-0.1015625,-1.0234375,0.19140625
1234,-0.109375,-1.015625,0.1953125
1235,-0.10546875,-1.01953125,0.1953125
1236,-0.1015625,-1.03515625,0.203125
1237,-0.06640625,-1.01953125,0.20703125
1238,-0.14453125,-1.01171875,0.140625
1239,-0.1015625,-1.015625,0.20703125
1240,-0.11328125,-0.9921875,0.21484375
1241,-0.12890625,-1.01171875,0.25
1242,-0.09375,-1.0234375,0.16796875
1243,-0.06640625,-1.0234375,0.23046875
1244,-0.0703125,-1.02734375,0.25
1245,-0.0625,-1.0078125,0.1875
1246,-0.11328125,-1.00390625,0.15625
1247,-0.1015625,-1.0078125,0.19921875
1248,-0.1015625,-1.015625,0.1953125
1249,-0.1015625,-1.01953125,0.1953125
1250,-0.10546875,-1.0078125,0.18359375
1251,-0.0859375,-1.02734375,0.1640625
1252,-0.10546875,-1.015625,0.203125
1253,-0.109375,-0.98828125,0.171875
1254,-0.1015625,-1.015625,0.18359375
1255,-0.109375,-1.015625,0.1875
1256,-0.10546875,-1.01171875,0.203125
1257,-0.09375,-1.01953125,0.1875
1258,-0.1015625,-1.015625,0.1875
1259,-0.09375,-1.015625,0.203125
1260,-0.10546875,-1.02734375,0.203125
1261,-0.1015625,-1.01953125,0.19140625
1262,-0.109375,-1.0234375,0.18359375
1263,-0.09765625,-1.01953125,0.19140625
1264,-0.09765625,-1.03515625,0.1796875
1265,-0.109375,-1.01953125,0.17578125
1266,-0.10546875,-1.015625,0.1640625
1267,-0.10546875,-1.0234375,0.1875
1268,-0.10546875,-1.01953125,0.1875
1269,-0.1171875,-1.00390625,0.1953125
1270,-0.1015625,-1.0234375,0.19140625
1271,-0.09765625,-1.0234375,0.203125
1272,-0.11328125,-1.03125,0.19140625
1273,-0.09765625,-1.01953125,0.19140625
1274,-0.1328125,-0.98046875,0.2578125
1275,-0.12109375,-1.0078125,0.203125
1276,-0.1171875,-1.0078125,0.19140625
1277,-0.11328125,-1.01953125,0.19921875
1278,-0.109375,-1.0078125,0.19140625
1279,-0.1015625,-1.015625,0.1953125
1280,-0.09375,-1.01171875,0.19921875
1281,-0.109375,-1.00390625,0.203125
1282,-0.11328125,-1.0078125,0.20703125
1283,-0.12109375,-1.00390625,0.203125
1284,-0.10546875,-1.015625,0.19921875
1285,-0.11328125,-1.0078125,0.17578125
1286,-0.109375,-1.015625,0.1875
1287,-0.11328125,-1.0078125,0.1953125
1288,-0.1171875,-1.0234375,0.18359375
1289,-0.10546875,-1.03125,0.1953125
1290,-0.10546875,-1.01953125,0.21484375
1291,-0.11328125,-1.0234375,0.19921875
1292,-0.11328125,-1.01953125,0.1953125
1293,-0.109375,-1.01953125,0.1875
1294,-0.109375,-1.0234375,0.19921875
1295,-0.12109375,-1.01171875,0.19140625
1296,-0.11328125,-1.03125,0.1953125
1297,-0.125,-1.015625,0.19140625
1298,-0.109375,-1.015625,0.2109375
1299,-0.10546875,-1.01953125,0.19140625
1300,-0.10546875,-1.015625,0.1953125
1301,-0.109375,-1.015625,0.19140625
1302,-0.1171875,-0.99609375,0.2109375
1303,-0.109375,-1.015625,0.2109375
1304,-0.11328125,-1.00390625,0.1875
1305,-0.11328125,-1.0078125,0.19140625
1306,-0.109375,-1.015625,0.1953125
1307,-0.10546875,-1.01953125,0.1953125
1308,-0.11328125,-1.01953125,0.1953125
1309,-0.125,-1.01171875,0.19921875
1310,-0.11328125,-1.0078125,0.19140625
1311,-0.10546875,-1.0078125,0.19921875
1312,-0.1015625,-1.01953125,0.20703125
1313,-0.09765625,-1.01171875,0.1875
1314,-0.1015625,-1.02734375,0.1953125
1315,-0.1015625,-1.0234375,0.203125
1316,-0.11328125,-1.015625,0.19140625
1317,-0.109375,-1.01953125,0.20703125
1318,-0.1015625,-1.0234375,0.20703125
1319,-0.109375,-1.0234375,0.2109375
1320,-0.109375,-1.015625,0.19921875
1321,-0.1171875,-1.015625,0.203125
1322,-0.11328125,-1.01953125,0.203125
1323,-0.12109375,-1.01171875,0.20703125
1324,-0.125,-1.01953125,0.19921875
1325,-0.12109375,-1.0078125,0.19921875
1326,-0.1171875,-1.015625,0.2109375
1327,-0.11328125,-1.0078125,0.1953125
1328,-0.1171875,-1.01953125,0.21484375
1329,-0.109375,-1.01171875,0.1953125
1330,-0.109375,-1.00390625,0.19921875
1331,-0.125,-1.01953125,0.20703125
1332,-0.1171875,-1.01953125,0.2109375
1333,-0.1171875,-1.02734375,0.19921875
1334,-0.10546875,-1.015625,0.203125
1335,-0.109375,-1.01171875,0.20703125
1336,-0.109375,-1.01953125,0.2109375
1337,-0.109375,-1.01953125,0.19140625
1338,-0.10546875,-1.01171875,0.20703125
1339,-0.1015625,-1.00390625,0.1953125
1340,-0.09375,-1.01171875,0.21484375
1341,-0.09375,-1.0,0.19921875
1342,-0.10546875,-1.00390625,0.20703125
1343,-0.09375,-1.00390625,0.2109375
1344,-0.1015625,-1.01171875,0.21484375
1345,-0.09765625,-1.0078125,0.21484375
1346,-0.11328125,-1.0078125,0.2109375
1347,-0.12109375,-1.01953125,0.21875
1348,-0.10546875,-1.015625,0.20703125
1349,-0.11328125,-1.0234375,0.21484375
1350,-0.12109375,-1.0234375,0.21484375
1351,-0.12890625,-1.0234375,0.203125
1352,-0.1328125,-1.046875,0.19921875
1353,-0.11328125,-1.02734375,0.21875
1354,-0.1171875,-1.01171875,0.2109375
1355,-0.12109375,-1.01171875,0.19921875
1356,-0.1171875,-1.015625,0.19921875
1357,-0.12890625,-1.01171875,0.203125
1358,-0.12109375,-1.01171875,0.21875
1359,-0.11328125,-1.0078125,0.20703125
1360,-0.10546875,-1.0078125,0.19140625
1361,-0.1171875,-1.0078125,0.1953125
1362,-0.1015625,-1.00390625,0.19140625
1363,-0.10546875,-1.00390625,0.19921875
1364,-0.09765625,-1.0078125,0.2109375
1365,-0.08984375,-1.0078125,0.20703125
1366,-0.1015625,-1.0078125,0.1953125
1367,-0.1015625,-1.01171875,0.2109375
1368,-0.09765625,-1.0234375,0.20703125
1369,-0.109375,-1.0234375,0.19921875
1370,-0.1171875,-1.01953125,0.20703125
1371,-0.11328125,-1.03125,0.203125
1372,-0.11328125,-1.02734375,0.203125
1373,-0.10546875,-1.0234375,0.203125
1374,-0.12109375,-1.015625,0.19921875
1375,-0.12109375,-1.01953125,0.20703125
1376,-0.11328125,-1.015625,0.203125
1377,-0.1171875,-1.015625,0.21484375
1378,-0.125,-1.01953125,0.2109375
1379,-0.125,-1.01953125,0.2109375
1380,-0.12890625,-1.01953125,0.2109375
1381,-0.1328125,-1.0078125,0.20703125
1382,-0.109375,-1.0234375,0.21484375
1383,-0.12109375,-1.0078125,0.21484375
1384,-0.12109375,-1.01171875,0.21484375
1385,-0.109375,-1.0078125,0.21484375
1386,-0.10546875,-1.0078125,0.20703125
1387,-0.11328125,-1.015625,0.203125
1388,-0.10546875,-1.015625,0.20703125
1389,-0.12109375,-1.00390625,0.2109375
1390,-0.11328125,-1.0078125,0.2109375
1391,-0.11328125,-1.015625,0.2265625
1392,-0.1171875,-1.01171875,0.21875
1393,-0.10546875,-1.01953125,0.2109375
1394,-0.10546875,-1.015625,0.21484375
1395,-0.125,-1.01171875,0.20703125
1396,-0.1171875,-1.015625,0.20703125
1397,-0.109375,-1.015625,0.203125
1398,-0.125,-1.0234375,0.21484375
1399,-0.11328125,-1.015625,0.19140625
1400,-0.12109375,-1.01171875,0.19921875
1401,-0.11328125,-1.02734375,0.21875
1402,-0.109375,-1.01171875,0.2109375
1403,-0.1328125,-1.0078125,0.2109375
1404,-0.11328125,-1.0234375,0.21484375
1405,-0.11328125,-1.01171875,0.21875
1406,-0.1171875,-1.0234375,0.21484375
1407,-0.125,-1.0078125,0.20703125
1408,-0.11328125,-1.00390625,0.203125
1409,-0.11328125,-1.00390625,0.20703125
1410,-0.1171875,-1.0078125,0.21875
1411,-0.12109375,-1.01171875,0.21875
1412,-0.11328125,-1.0078125,0.19921875
1413,-0.12109375,-1.01171875,0.203125
1414,-0.1171875,-1.015625,0.2109375
1415,-0.12109375,-1.01171875,0.21484375
1416,-0.140625,-1.0,0.171875
1417,-0.1015625,-1.01953125,0.203125
1418,-0.09375,-1.0078125,0.21484375
1419,-0.109375,-1.01171875,0.2109375
1420,-0.109375,-1.0078125,0.2109375
1421,-0.11328125,-1.01953125,0.22265625
1422,-0.11328125,-1.0078125,0.21484375
1423,-0.12109375,-1.00390625,0.20703125
1424,-0.125,-1.01953125,0.21875
1425,-0.1171875,-1.01953125,0.2109375
1426,-0.1171875,-1.01953125,0.22265625
1427,-0.12890625,-1.015625,0.20703125
1428,-0.1171875,-1.01953125,0.2109375
1429,-0.125,-1.01171875,0.2421875
1430,-0.125,-1.02734375,0.2109375
1431,-0.109375,-1.01953125,0.20703125
1432,-0.1171875,-1.015625,0.20703125
1433,-0.1171875,-1.00390625,0.203125
1434,-0.12109375,-1.01171875,0.22265625
1435,-0.109375,-1.0078125,0.2109375
1436,-0.12109375,-1.01171875,0.21875
1437,-0.11328125,-1.01953125,0.20703125
1438,-0.1171875,-1.015625,0.21875
1439,-0.1171875,-1.0,0.21875
1440,-0.11328125,-1.0078125,0.21484375
1441,-0.11328125,-1.0078125,0.22265625
1442,-0.1171875,-1.00390625,0.20703125
1443,-0.125,-1.0078125,0.2109375
1444,-0.12109375,-1.01171875,0.20703125
1445,-0.12109375,-1.0078125,0.22265625
1446,-0.12109375,-1.015625,0.22265625
1447,-0.11328125,-1.01953125,0.2265625
1448,-0.125,-1.01953125,0.22265625
1449,-0.125,-1.015625,0.21484375
1450,-0.125,-1.01953125,0.21875
1451,-0.125,-1.0078125,0.22265625
1452,-0.12109375,-1.01171875,0.21484375
1453,-0.109375,-1.0078125,0.2109375
1454,-0.12109375,-1.01171875,0.21484375
1455,-0.12109375,-1.0078125,0.2109375
1456,-0.11328125,-1.0234375,0.21875
1457,-0.1171875,-0.9921875,0.2109375
1458,-0.1328125,-1.0078125,0.21484375
1459,-0.12109375,-1.015625,0.21484375
1460,-0.12109375,-1.0078125,0.22265625
1461,-0.12109375,-1.01953125,0.21875
1462,-0.12109375,-1.01171875,0.21875
1463,-0.109375,-1.01171875,0.20703125
1464,-0.12109375,-1.0,0.2265625
1465,-0.1171875,-1.0078125,0.21484375
1466,-0.125,-1.00390625,0.2265625
1467,-0.11328125,-1.0078125,0.20703125
1468,-0.12109375,-1.0,0.20703125
1469,-0.125,-1.01171875,0.21484375
1470,-0.1171875,-1.01171875,0.21484375
1471,-0.11328125,-1.015625,0.21484375
1472,-0.12109375,-1.0078125,0.23046875
1473,-0.109375,-1.0234375,0.23046875
1474,-0.12890625,-1.01953125,0.21484375
1475,-0.11328125,-1.01171875,0.21875
1476,-0.109375,-1.0234375,0.21484375
1477,-0.12109375,-1.0234375,0.21875
1478,-0.11328125,-1.01171875,0.2109375
1479,-0.1171875,-1.0078125,0.2109375
1480,-0.0859375,-1.0078125,0.21484375
1481,-0.11328125,-1.01171875,0.21875
1482,-0.12109375,-1.01171875,0.21875
1483,-0.1171875,-1.01171875,0.2109375
1484,-0.1171875,-1.01171875,0.21875
1485,-0.12890625,-1.00390625,0.22265625
1486,-0.1328125,-1.0,0.2109375
1487,-0.1171875,-1.015625,0.2109375
1488,-0.12109375,-1.0078125,0.20703125
1489,-0.12890625,-1.0078125,0.21484375
1490,-0.12109375,-1.01171875,0.23046875
1491,-0.11328125,-1.00390625,0.21484375
1492,-0.109375,-1.0,0.2265625
1493,-0.12109375,-1.0078125,0.21484375
1494,-0.11328125,-1.00390625,0.2265625
1495,-0.10546875,-1.0078125,0.19921875
1496,-0.1015625,-1.0,0.21875
1497,-0.11328125,-1.01171875,0.23046875
1498,-0.125,-1.01171875,0.21875
1499,-0.1171875,-1.01171875,0.2265625
1500,-0.12890625,-1.01171875,0.23046875
1501,-0.11328125,-1.0234375,0.22265625
1502,-0.1328125,-1.015625,0.234375
1503,-0.12890625,-1.01171875,0.23046875
1504,-0.125,-1.03125,0.23828125
1505,-0.12890625,-1.01953125,0.21875
1506,-0.12890625,-1.01171875,0.2265625
1507,-0.1328125,-1.0078125,0.22265625
1508,-0.1328125,-1.01953125,0.2265625
1509,-0.13671875,-1.00390625,0.21484375
1510,-0.12890625,-1.015625,0.234375
1511,-0.12890625,-1.0078125,0.21875
1512,-0.1328125,-1.01171875,0.21875
1513,-0.1328125,-1.00390625,0.22265625
1514,-0.125,-1.0078125,0.2109375
1515,-0.12890625,-1.0078125,0.2265625
1516,-0.12109375,-1.00390625,0.20703125
1517,-0.12109375,-1.00390625,0.2265625
1518,-0.109375,-1.015625,0.234375
1519,-0.1328125,-1.00390625,0.2265625
1520,-0.1171875,-1.01171875,0.2109375
1521,-0.109375,-1.015625,0.23046875
1522,-0.10546875,-1.00390625,0.22265625
1523,-0.109375,-1.01953125,0.2265625
1524,-0.109375,-1.0234375,0.21484375
1525,-0.1171875,-1.0234375,0.22265625
1526,-0.109375,-1.03515625,0.21484375
1527,-0.11328125,-1.03125,0.21484375
1528,-0.1171875,-1.03515625,0.22265625
1529,-0.109375,-1.01171875,0.2109375
1530,-0.125,-1.015625,0.2109375
1531,-0.1328125,-1.01171875,0.203125
1532,-0.109375,-1.0078125,0.203125
1533,-0.1171875,-1.00390625,0.20703125
1534,-0.125,-1.00390625,0.203125
1535,-0.1171875,-0.99609375,0.203125
1536,-0.1171875,-1.00390625,0.22265625
1537,-0.12890625,-1.0,0.22265625
1538,-0.12890625,-1.0,0.21875
1539,-0.12890625,-1.0,0.2265625
1540,-0.12890625,-1.00390625,0.2109375
1541,-0.125,-1.01953125,0.2265625
1542,-0.12890625,-1.00390625,0.21484375
1543,-0.12109375,-1.015625,0.22265625
1544,-0.09375,-1.015625,0.234375
1545,-0.12109375,-1.015625,0.2265625
1546,-0.125,-1.015625,0.2109375
1547,-0.11328125,-1.02734375,0.21484375
1548,-0.10546875,-1.03515625,0.21875
1549,-0.109375,-1.01953125,0.21484375
1550,-0.11328125,-1.015625,0.2109375
1551,-0.1015625,-1.02734375,0.21875
1552,-0.1015625,-1.0234375,0.23046875
1553,-0.12109375,-1.00390625,0.20703125
1554,-0.1171875,-1.0078125,0.203125
1555,-0.12109375,-1.0078125,0.1953125
1556,-0.12890625,-1.00390625,0.1875
1557,-0.12890625,-1.01171875,0.19140625
1558,-0.11328125,-1.0078125,0.19140625
1559,-0.1171875,-1.0078125,0.19921875
1560,-0.1171875,-1.01953125,0.21875
1561,-0.1015625,-1.02734375,0.23046875
1562,-0.09375,-1.01953125,0.21875
1563,-0.1015625,-1.01953125,0.23046875
1564,-0.109375,-1.01953125,0.2109375
1565,-0.1328125,-1.02734375,0.20703125
1566,-0.1171875,-1.015625,0.22265625
1567,-0.12109375,-1.02734375,0.23828125
1568,-0.125,-1.04296875,0.21484375
1569,-0.1171875,-1.04296875,0.21484375
1570,-0.11328125,-1.0703125,0.19921875
1571,-0.1171875,-1.09765625,0.21875
1572,-0.1015625,-1.10546875,0.19921875
1573,-0.10546875,-1.1171875,0.203125
1574,-0.1171875,-1.11328125,0.1796875
1575,-0.1015625,-1.125,0.17578125
1576,-0.125,-1.1015625,0.1796875
1577,-0.11328125,-1.1015625,0.16796875
1578,-0.1171875,-1.10546875,0.16796875
1579,-0.14453125,-1.10546875,0.16015625
1580,-0.12109375,-1.1328125,0.1640625
1581,-0.16015625,-1.12890625,0.1796875
1582,-0.15234375,-1.1484375,0.1796875
1583,-0.15625,-1.19140625,0.171875
1584,-0.16796875,-1.21484375,0.1640625
1585,-0.17578125,-1.24609375,0.140625
1586,-0.171875,-1.2890625,0.1171875
1587,-0.1484375,-1.33203125,0.1171875
1588,-0.140625,-1.35546875,0.10546875
1589,-0.11328125,-1.37109375,0.1015625
1590,-0.08203125,-1.40234375,0.08984375
1591,-0.0546875,-1.4296875,0.08203125
1592,-0.046875,-1.45703125,0.03125
1593,-0.03515625,-1.46875,0.0078125
1594,-0.02734375,-1.484375,-0.0078125
1595,-0.03515625,-1.4921875,-0.01953125
1596,-0.04296875,-1.50390625,-0.046875
1597,-0.0546875,-1.49609375,-0.05859375
1598,-0.08984375,-1.5,-0.06640625
1599,-0.11328125,-1.50390625,-0.0625
1600,-0.1328125,-1.5,-0.07421875
1601,-0.13671875,-1.484375,-0.078125
1602,-0.15234375,-1.48046875,-0.08203125
1603,-0.15234375,-1.48046875,-0.06640625
1604,-0.1484375,-1.4765625,-0.0625
1605,-0.1640625,-1.46484375,-0.0546875
1606,-0.16796875,-1.42578125,-0.0546875
1607,-0.15234375,-1.40234375,-0.078125
1608,-0.125,-1.421875,-0.08203125
1609,-0.1171875,-1.37109375,-0.1015625
1610,-0.12109375,-1.359375,-0.0859375
1611,-0.1171875,-1.3515625,-0.06640625
1612,-0.10546875,-1.3203125,-0.0703125
1613,-0.1171875,-1.3046875,-0.046875
1614,-0.125,-1.27734375,-0.0546875
1615,-0.109375,-1.2578125,-0.0625
1616,-0.1171875,-1.2421875,-0.0625
1617,-0.07421875,-1.234375,-0.0703125
1618,-0.06640625,-1.22265625,-0.05078125
1619,-0.0390625,-1.21875,-0.0625
1620,-0.02734375,-1.19921875,-0.06640625
1621,-0.01953125,-1.1953125,-0.078125
1622,-0.0234375,-1.1875,-0.0859375
1623,-0.02734375,-1.1796875,-0.0703125
1624,-0.02734375,-1.1875,-0.08203125
1625,-0.03515625,-1.19140625,-0.07421875
1626,-0.0546875,-1.171875,-0.09375
1627,-0.0546875,-1.14453125,-0.09375
1628,-0.0625,-1.140625,-0.10546875
1629,-0.078125,-1.109375,-0.0546875
1630,-0.1015625,-1.09765625,-0.08203125
1631,-0.0859375,-1.0859375,-0.09765625
1632,-0.09375,-1.0546875,-0.08984375
1633,-0.0703125,-1.0703125,-0.09765625
1634,-0.0625,-1.0546875,-0.08984375
1635,-0.046875,-1.0546875,-0.10546875
1636,-0.0703125,-1.046875,-0.10546875
1637,-0.07421875,-1.015625,-0.11328125
1638,-0.08203125,-1.0234375,-0.109375
1639,-0.0703125,-1.01171875,-0.1171875
1640,-0.0625,-1.0,-0.109375
1641,-0.05859375,-0.99609375,-0.10546875
1642,-0.05859375,-0.99609375,-0.08984375
1643,-0.0625,-0.9921875,-0.06640625
1644,-0.046875,-0.984375,-0.078125
1645,-0.0703125,-0.96875,-0.06640625
1646,-0.0703125,-0.9765625,-0.05078125
1647,-0.0546875,-0.98046875,-0.05859375
1648,-0.0546875,-0.9609375,-0.05859375
1649,-0.0546875,-0.97265625,-0.07421875
1650,-0.04296875,-0.984375,-0.10546875
1651,-0.046875,-0.9765625,-0.1015625
1652,-0.05078125,-0.984375,-0.1328125
1653,-0.03515625,-0.98046875,-0.1328125
1654,-0.046875,-0.99609375,-0.1484375
1655,-0.046875,-1.0,-0.15625
1656,-0.03515625,-1.01171875,-0.171875
1657,-0.06640625,-1.00390625,-0.16796875
1658,-0.07421875,-1.00390625,-0.15625
1659,-0.078125,-1.0078125,-0.16015625
1660,-0.07421875,-1.0078125,-0.16015625
1661,-0.0703125,-1.0078125,-0.16796875
1662,-0.08203125,-1.01953125,-0.18359375
1663,-0.0859375,-1.00390625,-0.1796875
1664,-0.07421875,-1.01953125,-0.17578125
1665,-0.08203125,-1.0234375,-0.1796875
1666,-0.06640625,-1.01953125,-0.1640625
1667,-0.0546875,-1.03125,-0.1875
1668,-0.05078125,-1.03125,-0.1796875
1669,-0.0703125,-1.0234375,-0.1953125
1670,-0.0625,-1.0390625,-0.20703125
1671,-0.04296875,-1.03515625,-0.22265625
1672,-0.01953125,-1.03515625,-0.234375
1673,-0.03125,-1.06640625,-0.1875
1674,-0.04296875,-1.0625,-0.20703125
1675,-0.03515625,-1.05078125,-0.1953125
1676,-0.05859375,-1.04296875,-0.1875
1677,-0.05859375,-1.0234375,-0.2109375
1678,-0.046875,-1.02734375,-0.18359375
1679,-0.0546875,-1.02734375,-0.1875
1680,-0.06640625,-1.04296875,-0.1953125
1681,-0.06640625,-1.0390625,-0.19921875
1682,-0.078125,-1.03515625,-0.1953125
1683,-0.08984375,-1.0390625,-0.1953125
1684,-0.08203125,-1.04296875,-0.1875
1685,-0.09375,-1.04296875,-0.19140625
1686,-0.0859375,-1.0546875,-0.1796875
1687,-0.08203125,-1.046875,-0.17578125
1688,-0.0703125,-1.0625,-0.18359375
1689,-0.07421875,-1.05859375,-0.171875
1690,-0.03125,-1.0703125,-0.1796875
1691,-0.03515625,-1.05859375,-0.19140625
1692,-0.03125,-1.0546875,-0.17578125
1693,-0.0234375,-1.02734375,-0.1953125
1694,-0.0625,-1.03125,-0.1328125
1695,-0.03515625,-1.01953125,-0.140625
1696,-0.01171875,-1.03515625,-0.15625
1697,-0.0078125,-1.01171875,-0.1328125
1698,-0.0078125,-1.0078125,-0.13671875
1699,-0.03125,-0.99609375,-0.14453125
1700,-0.02734375,-1.00390625,-0.1328125
1701,-0.0546875,-0.99609375,-0.12109375
1702,-0.05078125,-0.99609375,-0.14453125
1703,-0.046875,-0.984375,-0.15625
1704,-0.046875,-0.97265625,-0.17578125
1705,-0.06640625,-0.96484375,-0.17578125
1706,-0.078125,-0.94921875,-0.1640625
1707,-0.07421875,-0.94921875,-0.16796875
1708,-0.09375,-0.953125,-0.17578125
1709,-0.10546875,-0.9453125,-0.15625
1710,-0.10546875,-0.9375,-0.125
1711,-0.10546875,-0.94921875,-0.125
1712,-0.0859375,-0.92578125,-0.12890625
1713,-0.0859375,-0.92578125,-0.1171875
1714,-0.078125,-0.9296875,-0.125
1715,-0.078125,-0.91796875,-0.11328125
1716,-0.06640625,-0.921875,-0.1015625
1717,-0.0546875,-0.9140625,-0.08203125
1718,-0.05078125,-0.890625,-0.078125
1719,-0.03125,-0.90234375,-0.09375
1720,-0.02734375,-0.8828125,-0.09375
1721,-0.0078125,-0.875,-0.0859375
1722,-0.01953125,-0.87109375,-0.078125
1723,-0.0078125,-0.875,-0.08203125
1724,-0.00390625,-0.875,-0.0859375
1725,-0.0078125,-0.84765625,-0.08984375
1726,-0.01953125,-0.8515625,-0.078125
1727,-0.01953125,-0.84765625,-0.07421875
1728,-0.0234375,-0.8515625,-0.07421875
1729,-0.0078125,-0.828125,-0.0625
1730,-0.015625,-0.82421875,-0.0703125
1731,-0.0078125,-0.8203125,-0.05859375
1732,-0.00390625,-0.80859375,-0.05078125
1733,-0.01171875,-0.796875,-0.04296875
1734,-0.00390625,-0.796875,-0.03515625
1735,-0.0078125,-0.78515625,-0.03515625
1736,0.01171875,-0.78515625,-0.046875
1737,-0.00390625,-0.765625,-0.04296875
1738,-0.015625,-0.76953125,-0.03125
1739,-0.01171875,-0.765625,-0.04296875
1740,-0.02734375,-0.765625,-0.05078125
1741,-0.0390625,-0.76171875,-0.05078125
1742,-0.03515625,-0.7734375,-0.0546875
1743,-0.0546875,-0.77734375,-0.0625
1744,-0.0546875,-0.7734375,-0.06640625
1745,-0.06640625,-0.7578125,-0.07421875
1746,-0.078125,-0.765625,-0.078125
1747,-0.09375,-0.76171875,-0.07421875
1748,-0.09765625,-0.76953125,-0.05859375
1749,-0.08984375,-0.76171875,-0.05078125
1750,-0.08203125,-0.7578125,-0.0390625
1751,-0.06640625,-0.765625,-0.02734375
1752,-0.07421875,-0.765625,-0.0234375
1753,-0.06640625,-0.7578125,-0.00390625
1754,-0.0546875,-0.76171875,0.00390625
1755,-0.0546875,-0.76171875,0.0078125
1756,-0.05078125,-0.765625,0.0
1757,-0.0546875,-0.7734375,0.0078125
1758,-0.05078125,-0.79296875,0.01953125
1759,-0.046875,-0.8046875,0.0
1760,-0.04296875,-0.8203125,0.01171875
1761,-0.046875,-0.828125,-0.00390625
1762,-0.05859375,-0.83984375,0.015625
1763,-0.0625,-0.84765625,0.0
1764,-0.0625,-0.859375,-0.00390625
1765,-0.05078125,-0.86328125,0.0
1766,-0.046875,-0.86328125,-0.0078125
1767,-0.03515625,-0.859375,-0.0078125
1768,-0.01953125,-0.875,-0.015625
1769,-0.03125,-0.86328125,-0.0234375
1770,-0.04296875,-0.8359375,-0.01953125
1771,-0.03125,-0.83984375,-0.03515625
1772,-0.02734375,-0.82421875,-0.05078125
1773,-0.02734375,-0.80859375,-0.07421875
1774,-0.015625,-0.8125,-0.07421875
1775,-0.015625,-0.8125,-0.09375
1776,-0.01953125,-0.8046875,-0.08984375
1777,-0.015625,-0.8046875,-0.1015625
1778,-0.01171875,-0.82421875,-0.0703125
1779,0.00390625,-0.8359375,-0.04296875
1780,-0.00390625,-0.83984375,-0.02734375
1781,-0.00390625,-0.87109375,-0.0078125
1782,-0.0078125,-0.8984375,0.015625
1783,-0.03515625,-0.9140625,0.02734375
1784,-0.03125,-0.94140625,0.03515625
1785,-0.0234375,-0.95703125,0.05078125
1786,-0.0390625,-0.97265625,0.04296875
1787,-0.05078125,-0.984375,0.0546875
1788,-0.046875,-0.9921875,0.05859375
1789,-0.05859375,-1.0,0.04296875
1790,-0.0625,-0.99609375,0.046875
1791,-0.0703125,-1.0,0.0546875
1792,-0.078125,-1.0078125,0.06640625
1793,-0.078125,-1.0078125,0.08203125
1794,-0.08203125,-1.0078125,0.08984375
1795,-0.0703125,-1.01953125,0.09375
1796,-0.078125,-1.03125,0.11328125
1797,-0.08203125,-1.02734375,0.12109375
1798,-0.0703125,-1.03515625,0.1328125
1799,-0.0703125,-1.04296875,0.14453125
1800,-0.06640625,-1.0390625,0.12890625
1801,-0.0625,-1.0390625,0.125
1802,-0.0546875,-1.02734375,0.14453125
1803,-0.05078125,-1.02734375,0.1171875
1804,-0.05078125,-1.01171875,0.1171875
1805,-0.0390625,-1.00390625,0.11328125
1806,-0.04296875,-1.0,0.10546875
1807,-0.046875,-0.9921875,0.12109375
1808,-0.04296875,-0.9921875,0.12109375
1809,-0.046875,-0.96484375,0.13671875
1810,-0.0390625,-0.984375,0.14453125
1811,-0.03515625,-0.9765625,0.15625
1812,-0.03515625,-0.98046875,0.15234375
1813,-0.02734375,-0.984375,0.15625
1814,-0.01953125,-0.98046875,0.125
1815,-0.015625,-0.99609375,0.125
1816,-0.0234375,-0.98828125,0.1015625
1817,-0.03125,-0.984375,0.08984375
1818,-0.01171875,-1.00390625,0.05859375
1819,-0.00390625,-1.0078125,0.0546875
1820,0.0,-0.99609375,0.05078125
1821,0.0,-1.01171875,0.0546875
1822,0.00390625,-1.00390625,0.0625
1823,0.0,-1.06640625,0.0546875
1824,0.00390625,-1.03125,0.078125
1825,-0.0078125,-1.04296875,0.078125
1826,-0.01953125,-1.05078125,0.11328125
1827,-0.03125,-1.05078125,0.1171875
1828,-0.04296875,-1.06640625,0.125
1829,-0.03515625,-1.06640625,0.1328125
1830,-0.03515625,-1.078125,0.140625
1831,-0.046875,-1.08984375,0.125
1832,-0.05859375,-1.1015625,0.1171875
1833,-0.07421875,-1.1015625,0.125
1834,-0.09375,-1.10546875,0.11328125
1835,-0.09765625,-1.12109375,0.11328125
1836,-0.1171875,-1.11328125,0.14453125
1837,-0.12890625,-1.08984375,0.15625
1838,-0.12109375,-1.0859375,0.16796875
1839,-0.1484375,-1.06640625,0.171875
1840,-0.14453125,-1.0546875,0.1640625
1841,-0.1640625,-1.04296875,0.19921875
1842,-0.16796875,-1.02734375,0.171875
1843,-0.18359375,-1.0234375,0.16796875
1844,-0.19921875,-1.0234375,0.16015625
1845,-0.20703125,-1.01953125,0.171875
1846,-0.21875,-1.00390625,0.1875
1847,-0.20703125,-1.0,0.18359375
1848,-0.171875,-1.0,0.19921875
1849,-0.15625,-1.00390625,0.16796875
1850,-0.13671875,-1.01171875,0.19140625
1851,-0.12890625,-1.01171875,0.16796875
1852,-0.11328125,-1.015625,0.17578125
1853,-0.1171875,-1.0,0.18359375
1854,-0.1015625,-1.00390625,0.18359375
1855,-0.09375,-1.00390625,0.1953125
1856,-0.06640625,-1.01953125,0.18359375
1857,-0.0546875,-1.0078125,0.19921875
1858,-0.0390625,-1.01953125,0.1953125
1859,-0.04296875,-1.0078125,0.19921875
1860,-0.0390625,-1.00390625,0.2109375
1861,-0.03515625,-1.00390625,0.21875
1862,-0.04296875,-0.98828125,0.22265625
1863,-0.03515625,-1.0,0.234375
1864,-0.04296875,-1.00390625,0.203125
1865,-0.03515625,-1.01171875,0.22265625
1866,-0.03125,-1.01953125,0.21875
1867,-0.04296875,-1.0234375,0.23046875
1868,-0.04296875,-1.0234375,0.2265625
1869,-0.0546875,-1.01953125,0.22265625
1870,-0.0625,-1.0078125,0.21484375
1871,-0.04296875,-1.02734375,0.21875
1872,-0.05859375,-1.0,0.2109375
1873,-0.04296875,-1.01171875,0.20703125
1874,-0.04296875,-1.015625,0.2109375
1875,-0.05078125,-1.02734375,0.23828125
1876,-0.0546875,-1.03515625,0.234375
1877,-0.0703125,-1.01953125,0.2421875
1878,-0.046875,-1.02734375,0.234375
1879,-0.05859375,-1.015625,0.25
1880,-0.05859375,-1.015625,0.2421875
1881,-0.046875,-1.015625,0.24609375
1882,-0.046875,-1.015625,0.2578125
1883,-0.05859375,-1.01171875,0.2421875
1884,-0.046875,-1.0078125,0.2421875
1885,-0.0546875,-1.0,0.23828125
1886,-0.0625,-1.00390625,0.2109375
1887,-0.0546875,-0.9765625,0.21484375
1888,-0.0546875,-0.9921875,0.2265625
1889,-0.06640625,-0.99609375,0.21875
1890,-0.0703125,-1.00390625,0.2265625
1891,-0.07421875,-1.0,0.22265625
1892,-0.0703125,-1.015625,0.25390625
1893,-0.0625,-1.015625,0.23046875
1894,-0.08203125,-1.01953125,0.23046875
1895,-0.0859375,-1.03515625,0.2421875
1896,-0.09375,-1.01953125,0.25390625
1897,-0.08984375,-1.0234375,0.2421875
1898,-0.0859375,-1.03125,0.23828125
1899,-0.1015625,-1.01953125,0.2265625
1900,-0.1015625,-1.01953125,0.2265625
1901,-0.1015625,-1.0078125,0.2265625
1902,-0.08984375,-1.015625,0.203125
1903,-0.1015625,-1.015625,0.20703125
1904,-0.10546875,-1.0078125,0.19921875
1905,-0.09375,-1.01171875,0.21484375
1906,-0.09375,-1.00390625,0.21875
1907,-0.0859375,-1.00390625,0.21875
1908,-0.08984375,-1.00390625,0.2109375
1909,-0.06640625,-1.03125,0.21875
1910,-0.07421875,-1.0234375,0.2265625
1911,-0.0859375,-1.02734375,0.234375
1912,-0.08203125,-1.02734375,0.24609375
1913,-0.078125,-1.01953125,0.23828125
1914,-0.08203125,-1.015625,0.234375
1915,-0.07421875,-1.01953125,0.23828125
1916,-0.06640625,-1.00390625,0.25
1917,-0.078125,-1.0,0.25390625
1918,-0.06640625,-0.98046875,0.25
1919,-0.0625,-0.9921875,0.2421875
1920,-0.0625,-0.98828125,0.25
1921,-0.05859375,-0.99609375,0.25390625
1922,-0.0546875,-0.984375,0.25
1923,-0.0625,-0.9921875,0.25
1924,-0.05078125,-1.0,0.25
1925,-0.05078125,-1.0,0.25
1926,-0.05078125,-1.00390625,0.25
1927,-0.0703125,-1.0078125,0.2421875
1928,-0.07421875,-1.0,0.25
1929,-0.06640625,-1.00390625,0.25390625
1930,-0.0546875,-1.0078125,0.2578125
1931,-0.078125,-1.0,0.26171875
1932,-0.09765625,-1.0,0.25390625
1933,-0.08984375,-1.0078125,0.28125
1934,-0.08984375,-1.00390625,0.28125
1935,-0.08203125,-1.00390625,0.2734375
1936,-0.08203125,-1.0,0.265625
1937,-0.078125,-1.00390625,0.265625
1938,-0.07421875,-1.0,0.265625
1939,-0.0703125,-1.00390625,0.2578125
1940,-0.05859375,-1.00390625,0.25390625
1941,-0.06640625,-1.00390625,0.25390625
1942,-0.0546875,-1.00390625,0.25390625
1943,-0.05859375,-1.00390625,0.2578125
1944,-0.0625,-1.0,0.2578125
1945,-0.05859375,-1.0078125,0.2734375
1946,-0.0546875,-1.01953125,0.265625
1947,-0.0703125,-1.015625,0.265625
1948,-0.078125,-1.00390625,0.26953125
1949,-0.06640625,-1.00390625,0.26171875
1950,-0.05859375,-1.01171875,0.26953125
1951,-0.09375,-1.01171875,0.26171875
1952,-0.0625,-1.01171875,0.26171875
1953,-0.0625,-1.01171875,0.25390625
1954,-0.06640625,-1.0078125,0.25
1955,-0.07421875,-1.01953125,0.25390625
1956,-0.078125,-1.01953125,0.25390625
1957,-0.08203125,-1.015625,0.25390625
1958,-0.0703125,-1.01953125,0.24609375
1959,-0.07421875,-1.01953125,0.25390625
1960,-0.0859375,-1.01953125,0.2265625
1961,-0.078125,-1.0234375,0.234375
1962,-0.07421875,-1.03125,0.24609375
1963,-0.0703125,-1.02734375,0.26171875
1964,-0.07421875,-1.0234375,0.24609375
1965,-0.06640625,-1.03515625,0.24609375
1966,-0.07421875,-1.015625,0.2421875
1967,-0.07421875,-1.01953125,0.23828125
1968,-0.08203125,-1.015625,0.23828125
1969,-0.06640625,-1.01953125,0.23046875
1970,-0.078125,-1.01171875,0.2265625
1971,-0.08203125,-1.00390625,0.234375
1972,-0.06640625,-1.015625,0.234375
1973,-0.08984375,-1.0078125,0.25390625
1974,-0.07421875,-1.01953125,0.24609375
1975,-0.08203125,-1.00390625,0.25
1976,-0.07421875,-1.01953125,0.2578125
1977,-0.07421875,-1.015625,0.25
1978,-0.07421875,-1.01953125,0.25390625
1979,-0.0703125,-1.0,0.26171875
1980,-0.0859375,-1.0,0.25390625
1981,-0.0859375,-1.0,0.2578125
1982,-0.08203125,-1.00390625,0.26171875
1983,-0.08203125,-0.99609375,0.26171875
1984,-0.0859375,-0.99609375,0.25
1985,-0.08203125,-0.99609375,0.25390625
1986,-0.0703125,-0.9921875,0.2421875
1987,-0.078125,-0.9921875,0.25
1988,-0.06640625,-0.9921875,0.26171875
1989,-0.078125,-0.99609375,0.25390625
1990,-0.078125,-0.98046875,0.25390625
1991,-0.0859375,-0.98046875,0.26171875
1992,-0.07421875,-0.99609375,0.2578125
1993,-0.07421875,-0.99609375,0.26171875
1994,-0.07421875,-0.98828125,0.24609375
1995,-0.0703125,-1.00390625,0.25
1996,-0.05859375,-1.0078125,0.25390625
1997,-0.06640625,-1.015625,0.2578125
1998,-0.0546875,-1.0234375,0.25
1999,-0.05078125,-1.01171875,0.25390625
2000,-0.05859375,-1.015625,0.24609375
2001,-0.04296875,-1.01953125,0.23828125
2002,-0.04296875,-1.01953125,0.25
2003,-0.03125,-1.01171875,0.2421875
2004,-0.04296875,-0.99609375,0.23828125
2005,-0.0390625,-1.00390625,0.25390625
2006,-0.0390625,-1.00390625,0.26171875
2007,-0.05078125,-1.0,0.24609375
2008,-0.04296875,-0.9921875,0.25
2009,-0.05859375,-1.0078125,0.25390625
2010,-0.0625,-0.99609375,0.25390625
2011,-0.05859375,-1.00390625,0.25
2012,-0.0703125,-1.00390625,0.25390625
2013,-0.07421875,-1.01171875,0.25390625
2014,-0.06640625,-1.00390625,0.24609375
2015,-0.08203125,-1.00390625,0.24609375
2016,-0.078125,-1.0234375,0.26171875
2017,-0.0859375,-1.01953125,0.265625
2018,-0.078125,-1.03125,0.25
2019,-0.078125,-1.015625,0.25390625
2020,-0.09375,-1.01171875,0.2578125
2021,-0.08984375,-1.01171875,0.25
2022,-0.0859375,-1.01953125,0.2578125
2023,-0.09765625,-1.0,0.2578125
2024,-0.09375,-1.00390625,0.25390625
2025,-0.078125,-1.01171875,0.265625
2026,-0.08984375,-1.0078125,0.2421875
2027,-0.0859375,-1.01171875,0.24609375
2028,-0.08984375,-1.00390625,0.2421875
2029,-0.08984375,-1.0078125,0.25390625
2030,-0.08984375,-1.0,0.24609375
2031,-0.09375,-1.0078125,0.2578125
2032,-0.08203125,-1.01171875,0.2421875
2033,-0.08203125,-1.01171875,0.25390625
2034,-0.08203125,-0.99609375,0.24609375
2035,-0.078125,-1.0078125,0.25390625
2036,-0.09765625,-1.0078125,0.23828125
2037,-0.08203125,-0.9921875,0.265625
2038,-0.07421875,-1.00390625,0.24609375
2039,-0.078125,-1.01953125,0.2421875
2040,-0.0703125,-1.01171875,0.2421875
2041,-0.0703125,-1.015625,0.24609375
2042,-0.078125,-1.01171875,0.2421875
2043,-0.078125,-1.01953125,0.24609375
2044,-0.08203125,-1.00390625,0.2421875
2045,-0.07421875,-1.01171875,0.25390625
2046,-0.0859375,-1.01171875,0.25390625
2047,-0.06640625,-1.00390625,0.24609375
2048,-0.0625,-1.0078125,0.24609375
2049,-0.06640625,-1.015625,0.23828125
2050,-0.0546875,-1.0078125,0.24609375
2051,-0.07421875,-1.015625,0.2421875
2052,-0.0703125,-1.0078125,0.25
2053,-0.06640625,-1.00390625,0.25
2054,-0.0625,-1.0078125,0.24609375
2055,-0.0703125,-1.00390625,0.24609375
2056,-0.05859375,-1.00390625,0.24609375
2057,-0.07421875,-1.0,0.25
2058,-0.0625,-1.0,0.25390625
2059,-0.078125,-1.00390625,0.25390625
2060,-0.0703125,-1.0078125,0.2578125
2061,-0.0625,-1.01171875,0.2421875
2062,-0.07421875,-1.0,0.25
2063,-0.0703125,-1.00390625,0.24609375
2064,-0.0703125,-1.00390625,0.2421875
2065,-0.06640625,-1.0,0.234375
2066,-0.0625,-1.00390625,0.24609375
2067,-0.07421875,-1.00390625,0.25
2068,-0.06640625,-1.00390625,0.24609375
2069,-0.0703125,-1.0,0.2578125
2070,-0.05859375,-1.0078125,0.234375
2071,-0.0703125,-1.0,0.2421875
2072,-0.0625,-1.01171875,0.23828125
2073,-0.07421875,-1.015625,0.2265625
2074,-0.0625,-1.0,0.234375
2075,-0.06640625,-1.015625,0.234375
2076,-0.0703125,-1.01171875,0.23046875
2077,-0.078125,-1.015625,0.23046875
2078,-0.078125,-1.01171875,0.2421875
2079,-0.08203125,-1.0,0.2109375
2080,-0.08984375,-1.0078125,0.23046875
2081,-0.08203125,-1.01171875,0.24609375
2082,-0.07421875,-1.01953125,0.2421875
2083,-0.078125,-1.01171875,0.2265625
2084,-0.078125,-1.0078125,0.234375
2085,-0.08203125,-1.02734375,0.25
2086,-0.0703125,-1.01171875,0.25
2087,-0.0859375,-1.00390625,0.23828125
2088,-0.08203125,-1.01171875,0.23828125
2089,-0.078125,-1.0,0.23828125
2090,-0.06640625,-1.01171875,0.234375
2091,-0.078125,-1.01953125,0.23046875
2092,-0.078125,-1.015625,0.24609375
2093,-0.08984375,-1.0078125,0.23828125
2094,-0.0859375,-1.01171875,0.2421875
2095,-0.07421875,-1.01953125,0.234375
2096,-0.08984375,-1.00390625,0.23828125
2097,-0.0859375,-1.0234375,0.234375
2098,-0.0859375,-1.0078125,0.24609375
2099,-0.07421875,-1.015625,0.2421875
2100,-0.0703125,-1.01953125,0.2265625
2101,-0.08984375,-1.01171875,0.24609375
2102,-0.078125,-1.03125,0.2265625
2103,-0.078125,-1.015625,0.23828125
2104,-0.0859375,-1.01953125,0.23828125
2105,-0.078125,-1.015625,0.234375
2106,-0.08984375,-1.02734375,0.23828125
2107,-0.08203125,-1.0234375,0.234375
2108,-0.078125,-1.015625,0.234375
2109,-0.078125,-1.01171875,0.2265625
2110,-0.0859375,-1.01953125,0.24609375
2111,-0.08203125,-1.015625,0.2421875
2112,-0.06640625,-1.0234375,0.24609375
2113,-0.078125,-1.02734375,0.234375
2114,-0.06640625,-1.02734375,0.234375
2115,-0.0859375,-1.01171875,0.2421875
2116,-0.07421875,-1.01953125,0.24609375
2117,-0.07421875,-1.015625,0.234375
2118,-0.07421875,-1.015625,0.23828125
2119,-0.0625,-1.01953125,0.23828125
2120,-0.0703125,-1.015625,0.25390625
2121,-0.08203125,-1.015625,0.23828125
2122,-0.06640625,-1.0078125,0.2421875
2123,-0.0703125,-1.01171875,0.23828125
2124,-0.0703125,-1.0078125,0.24609375
2125,-0.0703125,-1.01171875,0.2421875
2126,-0.0625,-1.0078125,0.2421875
2127,-0.06640625,-1.015625,0.23046875
2128,-0.078125,-1.0078125,0.23046875
2129,-0.0703125,-1.015625,0.2421875
2130,-0.0703125,-1.0078125,0.23046875
2131,-0.07421875,-1.01171875,0.2421875
2132,-0.0703125,-1.0078125,0.234375
2133,-0.0859375,-1.03125,0.25390625
2134,-0.0625,-1.01171875,0.23828125
2135,-0.07421875,-1.01171875,0.25
2136,-0.07421875,-1.0234375,0.2265625
2137,-0.078125,-1.00390625,0.2265625
2138,-0.06640625,-1.01171875,0.234375
2139,-0.0703125,-1.01171875,0.2421875
2140,-0.078125,-1.0078125,0.23828125
2141,-0.06640625,-1.015625,0.23828125
2142,-0.07421875,-1.01171875,0.2421875
2143,-0.07421875,-1.046875,0.24609375
2144,-0.07421875,-1.01171875,0.24609375
2145,-0.07421875,-1.015625,0.2265625
2146,-0.07421875,-1.0078125,0.24609375
2147,-0.07421875,-1.0078125,0.2265625
2148,-0.06640625,-1.01953125,0.23046875
2149,-0.0625,-1.015625,0.2265625
2150,-0.07421875,-1.01171875,0.234375
2151,-0.06640625,-1.015625,0.2421875
2152,-0.06640625,-1.01953125,0.234375
2153,-0.07421875,-1.0078125,0.2265625
2154,-0.08203125,-1.00390625,0.23046875
2155,-0.0703125,-1.01171875,0.24609375
2156,-0.0703125,-1.01953125,0.234375
2157,-0.07421875,-1.01953125,0.23046875
2158,-0.07421875,-1.0234375,0.234375
2159,-0.07421875,-1.0078125,0.234375
2160,-0.078125,-1.0078125,0.2265625
2161,-0.0703125,-1.01953125,0.2265625
2162,-0.078125,-1.0078125,0.234375
2163,-0.08203125,-1.015625,0.234375
2164,-0.0703125,-1.0078125,0.23828125
2165,-0.07421875,-1.01171875,0.23828125
2166,-0.08203125,-1.00390625,0.2265625
2167,-0.07421875,-1.015625,0.23828125
2168,-0.08203125,-1.00390625,0.234375
2169,-0.078125,-1.015625,0.25
2170,-0.08203125,-1.015625,0.2265625
2171,-0.06640625,-1.0234375,0.24609375
2172,-0.08203125,-1.01953125,0.2421875
2173,-0.0703125,-1.01171875,0.2421875
2174,-0.07421875,-1.015625,0.23828125
2175,-0.0703125,-1.01953125,0.23828125
2176,-0.07421875,-1.015625,0.2265625
2177,-0.07421875,-1.01953125,0.2421875
2178,-0.0859375,-1.00390625,0.24609375
2179,-0.08203125,-1.015625,0.23828125
2180,-0.0703125,-1.00390625,0.2421875
2181,-0.07421875,-1.015625,0.2421875
2182,-0.0703125,-1.01171875,0.23828125
2183,-0.07421875,-1.01953125,0.2265625
2184,-0.078125,-1.0,0.2265625
2185,-0.07421875,-1.01171875,0.2265625
2186,-0.0703125,-1.015625,0.2265625
2187,-0.0703125,-1.01171875,0.23046875
2188,-0.0625,-1.0078125,0.2265625
2189,-0.08203125,-1.0078125,0.23828125
2190,-0.078125,-1.0078125,0.2421875
2191,-0.06640625,-1.0078125,0.234375
2192,-0.08984375,-1.00390625,0.23828125
2193,-0.078125,-1.0078125,0.23828125
2194,-0.07421875,-1.01953125,0.23828125
2195,-0.0703125,-1.01171875,0.234375
2196,-0.06640625,-1.01171875,0.24609375
2197,-0.0703125,-1.0078125,0.234375
2198,-0.07421875,-1.01171875,0.234375
2199,-0.06640625,-1.0078125,0.23828125
2200,-0.078125,-1.0078125,0.2265625
2201,-0.078125,-1.015625,0.2421875
2202,-0.078125,-1.0078125,0.23828125
2203,-0.0859375,-1.01953125,0.23046875
2204,-0.078125,-1.015625,0.2265625
2205,-0.08203125,-1.01171875,0.23828125
2206,-0.0625,-1.01953125,0.23828125
2207,-0.0390625,-1.01171875,0.25
2208,-0.07421875,-1.00390625,0.23046875
2209,-0.0625,-1.01953125,0.24609375
2210,-0.07421875,-1.015625,0.2265625
2211,-0.07421875,-1.01171875,0.22265625
2212,-0.07421875,-1.0078125,0.21484375
2213,-0.07421875,-1.015625,0.2265625
2214,-0.0703125,-1.0234375,0.23828125
2215,-0.07421875,-1.01171875,0.22265625
2216,-0.08203125,-1.015625,0.234375
2217,-0.078125,-1.0078125,0.234375
2218,-0.078125,-1.0234375,0.22265625
2219,-0.06640625,-1.015625,0.2265625
2220,-0.078125,-1.0078125,0.23046875
2221,-0.07421875,-1.0078125,0.24609375
2222,-0.08984375,-1.01171875,0.23828125
2223,-0.0703125,-1.01953125,0.23828125
2224,-0.078125,-1.01171875,0.23046875
2225,-0.0625,-1.0078125,0.23828125
2226,-0.0859375,-1.0,0.23046875
2227,-0.07421875,-1.01171875,0.23828125
2228,-0.0859375,-1.0078125,0.23828125
2229,-0.07421875,-1.0078125,0.1953125
2230,-0.078125,-1.01171875,0.2265625
2231,-0.08203125,-1.00390625,0.2265625
2232,-0.08203125,-1.01953125,0.21875
2233,-0.07421875,-1.01171875,0.2421875
2234,-0.07421875,-1.03125,0.23046875
2235,-0.078125,-1.01953125,0.23828125
2236,-0.06640625,-1.01171875,0.23828125
2237,-0.0859375,-1.01171875,0.23046875
2238,-0.06640625,-1.015625,0.23046875
2239,-0.078125,-1.01171875,0.234375
2240,-0.0859375,-1.01171875,0.234375
2241,-0.07421875,-1.01171875,0.2265625
2242,-0.07421875,-1.015625,0.23046875
2243,-0.07421875,-1.015625,0.22265625
2244,-0.07421875,-1.015625,0.22265625
2245,-0.07421875,-1.00390625,0.2421875
2246,-0.07421875,-1.01171875,0.21484375
2247,-0.05859375,-1.0234375,0.22265625
2248,-0.0703125,-1.01953125,0.2421875
2249,-0.07421875,-1.01953125,0.23046875
2250,-0.07421875,-1.0078125,0.23828125
2251,-0.07421875,-1.02734375,0.2265625
2252,-0.0859375,-1.00390625,0.22265625
2253,-0.08203125,-1.0078125,0.234375
2254,-0.06640625,-1.015625,0.2265625
2255,-0.07421875,-1.00390625,0.25
2256,-0.078125,-1.00390625,0.23828125
2257,-0.078125,-1.0078125,0.23046875
2258,-0.06640625,-1.02734375,0.2265625
2259,-0.07421875,-1.0234375,0.234375
2260,-0.07421875,-1.01953125,0.22265625
2261,-0.06640625,-1.01953125,0.22265625
2262,-0.05859375,-1.02734375,0.234375
2263,-0.0703125,-1.015625,0.22265625
2264,-0.0625,-1.01171875,0.2421875
2265,-0.0625,-1.01953125,0.234375
2266,-0.0625,-1.0078125,0.23828125
2267,-0.078125,-1.015625,0.2265625
2268,-0.06640625,-1.01953125,0.2421875
2269,-0.08203125,-1.01171875,0.234375
2270,-0.07421875,-1.01171875,0.234375
2271,-0.0546875,-1.01953125,0.19921875
2272,-0.078125,-1.01953125,0.23828125
2273,-0.08203125,-1.01171875,0.234375
2274,-0.08203125,-1.01171875,0.23046875
2275,-0.0703125,-1.0078125,0.23828125
2276,-0.0859375,-1.015625,0.23828125
2277,-0.08203125,-1.0078125,0.21484375
2278,-0.05859375,-1.01171875,0.234375
2279,-0.06640625,-1.01171875,0.23828125
2280,-0.078125,-1.0078125,0.23046875
2281,-0.06640625,-1.01171875,0.24609375
2282,-0.06640625,-1.01171875,0.234375
2283,-0.06640625,-1.0078125,0.23046875
2284,-0.0703125,-1.015625,0.23828125
2285,-0.0703125,-1.01171875,0.2421875
2286,-0.0703125,-1.0078125,0.2421875
2287,-0.06640625,-1.00390625,0.22265625
2288,-0.07421875,-1.015625,0.2421875
2289,-0.078125,-1.0078125,0.23046875
2290,-0.078125,-1.0078125,0.23046875
2291,-0.05859375,-1.015625,0.234375
2292,-0.0703125,-1.0,0.2109375
2293,-0.0625,-1.04296875,0.21484375
2294,-0.0625,-1.00390625,0.2265625
2295,-0.06640625,-1.0078125,0.2265625
2296,-0.07421875,-1.015625,0.21875
2297,-0.0625,-1.01171875,0.22265625
2298,-0.0703125,-1.0078125,0.23046875
2299,-0.07421875,-1.00390625,0.2265625
2300,-0.0703125,-1.0078125,0.23046875
2301,-0.05859375,-1.00390625,0.2421875
2302,-0.08203125,-1.01171875,0.23046875
2303,-0.07421875,-1.0078125,0.23046875
2304,-0.07421875,-1.01171875,0.21875
2305,-0.078125,-1.01171875,0.23046875
2306,-0.07421875,-1.01171875,0.2421875
2307,-0.08203125,-1.0078125,0.2421875
2308,-0.07421875,-1.01171875,0.2421875
2309,-0.07421875,-1.00390625,0.2265625
2310,-0.07421875,-1.01171875,0.21875
2311,-0.0625,-1.015625,0.2265625
2312,-0.06640625,-1.015625,0.23828125
2313,-0.078125,-1.0234375,0.23828125
2314,-0.078125,-1.02734375,0.234375
2315,-0.0703125,-1.0078125,0.234375
2316,-0.07421875,-1.015625,0.234375
2317,-0.08203125,-1.0234375,0.23046875
2318,-0.078125,-1.015625,0.2265625
2319,-0.0625,-1.01171875,0.23046875
2320,-0.0703125,-1.0234375,0.23828125
2321,-0.08203125,-1.00390625,0.23046875
2322,-0.078125,-1.01171875,0.2421875
2323,-0.0859375,-1.0234375,0.2265625
2324,-0.08984375,-1.015625,0.23828125
2325,-0.07421875,-1.015625,0.234375
2326,-0.07421875,-1.0234375,0.23046875
2327,-0.078125,-1.0078125,0.23046875
2328,-0.0703125,-1.00390625,0.234375
2329,-0.06640625,-1.0234375,0.2265625
2330,-0.06640625,-1.01953125,0.234375
2331,-0.06640625,-1.0078125,0.2265625
2332,-0.06640625,-1.01953125,0.23046875
2333,-0.08203125,-1.0078125,0.22265625
2334,-0.0625,-1.015625,0.23046875
2335,-0.0703125,-1.03125,0.234375
2336,-0.0625,-1.0234375,0.23828125
2337,-0.078125,-1.01953125,0.2265625
2338,-0.0703125,-1.01953125,0.234375
2339,-0.07421875,-1.0078125,0.2265625
2340,-0.0703125,-1.0234375,0.2265625
2341,-0.07421875,-1.015625,0.2421875
2342,-0.0703125,-1.01953125,0.23046875
2343,-0.0703125,-1.00390625,0.234375
2344,-0.078125,-1.015625,0.234375
2345,-0.07421875,-1.01953125,0.2265625
2346,-0.0703125,-1.01171875,0.21875
2347,-0.08203125,-1.01171875,0.23046875
2348,-0.07421875,-1.00390625,0.23046875
2349,-0.0703125,-1.01953125,0.2265625
2350,-0.078125,-1.01171875,0.234375
2351,-0.0703125,-1.01171875,0.2265625
2352,-0.0703125,-1.0078125,0.234375
2353,-0.07421875,-1.0078125,0.21875
2354,-0.0703125,-1.01171875,0.21875
2355,-0.0703125,-1.01953125,0.22265625
2356,-0.0703125,-1.015625,0.21875
2357,-0.0859375,-1.03515625,0.22265625
2358,-0.08203125,-1.015625,0.23046875
2359,-0.078125,-1.0234375,0.20703125
2360,-0.0703125,-1.0078125,0.2265625
2361,-0.0703125,-1.02734375,0.21484375
2362,-0.07421875,-1.0234375,0.21875
2363,-0.0703125,-1.01953125,0.22265625
2364,-0.0625,-1.01171875,0.21875
2365,-0.0703125,-1.015625,0.2109375
2366,-0.0703125,-1.01953125,0.21875
2367,-0.0703125,-1.01953125,0.21875
2368,-0.07421875,-1.01171875,0.21875
2369,-0.07421875,-1.0078125,0.22265625
2370,-0.07421875,-1.01953125,0.21484375
2371,-0.07421875,-1.00390625,0.2265625
2372,-0.06640625,-1.01953125,0.20703125
2373,-0.06640625,-1.01171875,0.21875
2374,-0.0625,-1.01953125,0.234375
2375,-0.0625,-1.015625,0.234375
2376,-0.0625,-1.01171875,0.21484375
2377,-0.0703125,-1.015625,0.21484375
2378,-0.05859375,-1.03515625,0.2265625
2379,-0.06640625,-1.01953125,0.23046875
2380,-0.046875,-1.01953125,0.2265625
2381,-0.05859375,-1.0234375,0.23046875
2382,-0.0703125,-1.01171875,0.2265625
2383,-0.0703125,-1.01953125,0.20703125
2384,-0.05859375,-1.015625,0.2265625
2385,-0.06640625,-1.00390625,0.21875
2386,-0.0703125,-1.015625,0.234375
2387,-0.0625,-1.015625,0.234375
2388,-0.07421875,-1.01171875,0.23046875
2389,-0.0625,-1.01171875,0.21484375
2390,-0.07421875,-1.015625,0.21875
2391,-0.0703125,-1.01953125,0.21875
2392,-0.06640625,-1.01953125,0.234375
2393,-0.078125,-1.01171875,0.2265625
2394,-0.0625,-1.01953125,0.21875
2395,-0.05859375,-1.0234375,0.2265625
2396,-0.0703125,-1.0078125,0.21875
2397,-0.0703125,-1.01953125,0.21875
2398,-0.05859375,-1.00390625,0.2265625
2399,-0.08984375,-1.01171875,0.2109375
