,accelerometerAccelerationX(G),accelerometerAccelerationY(G),accelerometerAccelerationZ(G)
0,-0.02734375,-1.01953125,0.234375
1,-0.02734375,-1.01171875,0.22265625
2,-0.015625,-1.01953125,0.22265625
3,-0.0234375,-1.0078125,0.2109375
4,-0.03125,-1.0078125,0.23046875
5,-0.0234375,-1.01171875,0.21875
6,-0.02734375,-1.01171875,0.19921875
7,-0.0546875,-1.0234375,0.203125
8,-0.04296875,-0.98828125,0.21875
9,-0.0234375,-0.9921875,0.23828125
10,-0.01171875,-1.00390625,0.21875
11,-0.04296875,-1.0546875,0.16796875
12,-0.01953125,-0.984375,0.23046875
13,-0.04296875,-1.01171875,0.25390625
14,-0.0546875,-1.02734375,0.2421875
15,-0.015625,-1.0,0.2265625
16,-0.01953125,-1.0078125,0.2109375
17,-0.02734375,-1.01953125,0.2421875
18,-0.02734375,-1.0234375,0.21484375
19,-0.0234375,-1.015625,0.21875
20,-0.03125,-1.01171875,0.234375
21,-0.0234375,-1.015625,0.23828125
22,-0.02734375,-1.01953125,0.22265625
23,-0.03515625,-1.01171875,0.2265625
24,-0.02734375,-1.0234375,0.234375
25,-0.05078125,-1.03125,0.21484375
26,-0.01171875,-1.03515625,0.19140625
27,-0.03125,-1.0,0.23828125
28,-0.01953125,-1.015625,0.234375
29,-0.01953125,-1.0390625,0.21484375
30,-0.05078125,-1.00390625,0.23046875
31,-0.03125,-1.0078125,0.21875
32,0.02734375,-0.98046875,0.22265625
33,-0.01953125,-1.04296875,0.14453125
34,-0.03515625,-0.984375,0.234375
35,-0.01953125,-1.0234375,0.26171875
36,-0.0234375,-1.015625,0.2265625
37,-0.015625,-1.015625,0.22265625
38,-0.03515625,-1.01953125,0.234375
39,-0.01953125,-1.01953125,0.2265625
40,-0.01171875,-1.015625,0.24609375
41,-0.03515625,-1.01953125,0.24609375
42,-0.0390625,-1.015625,0.2265625
43,-0.04296875,-1.015625,0.1953125
44,-0.0078125,-1.01953125,0.2421875
45,-0.01171875,-1.0078125,0.23046875
46,-0.0234375,-1.0234375,0.234375
47,-0.015625,-1.0078125,0.2265625
48,-0.015625,-1.0,0.21875
49,-0.03125,-1.03515625,0.24609375
50,-0.015625,-1.01171875,0.203125
51,-0.01171875,-1.015625,0.22265625
52,-0.02734375,-1.015625,0.22265625
53,-0.01953125,-1.01953125,0.2265625
54,-0.0234375,-1.01171875,0.2265625
55,-0.0390625,-1.046875,0.22265625
56,-0.0234375,-1.0390625,0.234375
57,-0.0234375,-1.0,0.2265625
58,-0.03125,-1.015625,0.234375
59,-0.01953125,-1.03515625,0.2265625
60,-0.0234375,-1.015625,0.203125
61,-0.01953125,-1.0078125,0.20703125
62,-0.03125,-1.0078125,0.2265625
63,-0.00390625,-1.0234375,0.2265625
64,-0.03515625,-1.01171875,0.2734375
65,-0.00390625,-1.0,0.23046875
66,-0.0234375,-1.03515625,0.1953125
67,-0.03125,-1.01171875,0.234375
68,-0.02734375,-1.0078125,0.2265625
69,-0.0078125,-1.01953125,0.21484375
70,-0.015625,-1.03125,0.21875
71,-0.01171875,-1.0078125,0.23828125
72,-0.01171875,-1.04296875,0.22265625
73,-0.03125,-1.03515625,0.234375
74,-0.0703125,-1.03515625,0.265625
75,-0.0078125,-1.01171875,0.25
76,-0.0234375,-1.01171875,0.1796875
77,-0.02734375,-1.01953125,0.23046875
78,-0.0078125,-0.984375,0.23828125
79,-0.00390625,-1.03515625,0.22265625
80,-0.02734375,-1.01171875,0.2265625
81,-0.0390625,-1.01171875,0.1796875
82,-0.01953125,-1.015625,0.234375
83,-0.0234375,-1.01953125,0.23046875
84,-0.0234375,-1.01953125,0.23828125
85,-0.01953125,-1.01953125,0.21875
86,-0.00390625,-1.03515625,0.19921875
87,-0.01953125,-1.0390625,0.19140625
88,0.0,-1.01953125,0.25390625
89,-0.01953125,-1.03125,0.25390625
90,-0.0234375,-1.01171875,0.26953125
91,-0.00390625,-1.0234375,0.2421875
92,-0.078125,-1.0390625,0.25390625
93,-0.01953125,-1.04296875,0.2421875
94,-0.04296875,-1.04296875,0.25
95,-0.01953125,-1.00390625,0.2109375
96,-0.0234375,-0.984375,0.234375
97,-0.01171875,-1.015625,0.2109375
98,-0.03125,-1.0078125,0.23046875
99,-0.02734375,-1.015625,0.22265625
100,-0.01171875,-1.0234375,0.2109375
101,-0.015625,-1.0078125,0.23046875
102,-0.03515625,-1.0234375,0.21484375
103,-0.04296875,-1.05078125,0.23828125
104,-0.0234375,-0.99609375,0.23046875
105,-0.03515625,-1.046875,0.24609375
106,-0.046875,-1.015625,0.22265625
107,-0.05078125,-1.0,0.21875
108,-0.03125,-1.03125,0.2265625
109,-0.0078125,-1.0078125,0.26171875
110,-0.0234375,-1.0234375,0.22265625
111,-0.03125,-1.02734375,0.21484375
112,-0.02734375,-1.0078125,0.22265625
113,-0.0234375,-1.015625,0.2421875
114,-0.015625,-1.00390625,0.23046875
115,-0.01171875,-1.01953125,0.2265625
116,-0.02734375,-1.01171875,0.21875
117,-0.02734375,-1.01171875,0.22265625
118,-0.03125,-0.98828125,0.2265625
119,-0.01953125,-1.01953125,0.2265625
120,-0.0234375,-1.0234375,0.23046875
121,-0.0078125,-1.0234375,0.23828125
122,-0.0234375,-1.0234375,0.22265625
123,-0.0625,-1.046875,0.23828125
124,-0.02734375,-1.01171875,0.23046875
125,-0.015625,-1.02734375,0.2109375
126,-0.015625,-1.01171875,0.2265625
127,-0.02734375,-1.01953125,0.2421875
128,-0.00390625,-1.015625,0.234375
129,-0.03125,-1.0,0.22265625
130,-0.02734375,-1.015625,0.23046875
131,-0.03125,-1.00390625,0.20703125
132,-0.03515625,-1.00390625,0.1953125
133,-0.01953125,-1.01953125,0.21484375
134,-0.015625,-1.015625,0.234375
135,-0.01953125,-1.015625,0.21875
136,-0.03125,-1.01171875,0.2109375
137,-0.03125,-1.01171875,0.2421875
138,-0.015625,-1.015625,0.2265625
139,-0.0234375,-1.0078125,0.22265625
140,-0.01953125,-1.02734375,0.21875
141,-0.02734375,-1.01953125,0.2109375
142,-0.015625,-1.01953125,0.21484375
143,-0.015625,-1.01171875,0.22265625
144,-0.0078125,-1.0078125,0.22265625
145,-0.01953125,-1.01953125,0.21875
146,-0.02734375,-1.01953125,0.22265625
147,-0.015625,-1.01953125,0.21484375
148,-0.02734375,-1.015625,0.2265625
149,-0.02734375,-1.01953125,0.2109375
150,-0.02734375,-1.01171875,0.22265625
151,-0.02734375,-1.01953125,0.22265625
152,-0.02734375,-1.0234375,0.21875
153,-0.01953125,-1.02734375,0.22265625
154,-0.0234375,-1.01953125,0.203125
155,-0.0234375,-1.02734375,0.21484375
156,-0.0234375,-1.02734375,0.21484375
157,-0.0234375,-1.01953125,0.21484375
158,-0.01953125,-1.0234375,0.2109375
159,-0.015625,-1.01953125,0.21875
160,-0.015625,-1.0078125,0.21875
161,-0.01171875,-1.015625,0.22265625
162,-0.01171875,-1.0234375,0.20703125
163,-0.01171875,-1.0078125,0.20703125
164,-0.01171875,-1.015625,0.21484375
165,-0.01953125,-1.0234375,0.2265625
166,-0.01953125,-1.015625,0.2265625
167,-0.02734375,-1.0234375,0.22265625
168,-0.01953125,-1.0234375,0.2109375
169,-0.015625,-1.02734375,0.2109375
170,-0.03125,-1.0078125,0.21484375
171,-0.01953125,-1.02734375,0.1953125
172,-0.02734375,-1.01171875,0.21875
173,-0.03515625,-1.015625,0.2265625
174,-0.03125,-1.01953125,0.2109375
175,-0.03125,-1.01171875,0.20703125
176,-0.0234375,-1.0234375,0.22265625
177,-0.02734375,-1.015625,0.20703125
178,-0.0234375,-1.0234375,0.21484375
179,-0.015625,-1.0234375,0.2109375
180,-0.03125,-1.01953125,0.21875
181,-0.02734375,-1.01953125,0.21484375
182,-0.0390625,-1.0078125,0.20703125
183,-0.03125,-1.015625,0.20703125
184,-0.02734375,-1.01171875,0.2265625
185,-0.0234375,-1.0078125,0.20703125
186,-0.0234375,-1.02734375,0.2109375
187,-0.015625,-1.0234375,0.19921875
188,-0.0234375,-1.01953125,0.21875
189,-0.02734375,-1.0234375,0.21875
190,-0.01953125,-1.02734375,0.2109375
191,-0.02734375,-1.01171875,0.2109375
192,-0.03125,-1.015625,0.21484375
193,-0.01953125,-1.0234375,0.20703125
194,-0.02734375,-1.0234375,0.21484375
195,-0.02734375,-1.015625,0.21875
196,-0.02734375,-1.01953125,0.2265625
197,-0.01171875,-1.01953125,0.20703125
198,-0.02734375,-1.01171875,0.21875
199,-0.0234375,-1.015625,0.19921875
200,-0.015625,-1.0234375,0.2109375
201,-0.01171875,-1.03125,0.21875
202,-0.01953125,-1.01953125,0.19921875
203,-0.03125,-1.015625,0.21484375
204,-0.0234375,-1.0078125,0.20703125
205,-0.015625,-1.01953125,0.21484375
206,-0.01171875,-1.01953125,0.2109375
207,-0.0234375,-1.03125,0.21484375
208,-0.01953125,-1.0234375,0.20703125
209,-0.02734375,-1.03125,0.21484375
210,-0.015625,-1.02734375,0.22265625
211,-0.0078125,-1.02734375,0.21484375
212,-0.01171875,-1.02734375,0.19921875
213,-0.0078125,-1.0390625,0.20703125
214,-0.03125,-1.01953125,0.2265625
215,-0.0234375,-1.0078125,0.2265625
216,-0.03125,-1.02734375,0.2109375
217,-0.01171875,-1.015625,0.2109375
218,-0.01171875,-1.0078125,0.22265625
219,-0.03125,-1.01171875,0.21875
220,-0.01171875,-1.01953125,0.234375
221,-0.0234375,-1.01953125,0.22265625
222,-0.02734375,-1.01953125,0.21484375
223,-0.0234375,-1.015625,0.2109375
224,-0.0234375,-1.02734375,0.21875
225,-0.01171875,-1.0078125,0.21484375
226,-0.01953125,-1.03125,0.21484375
227,-0.02734375,-1.0234375,0.1953125
228,-0.01171875,-1.00390625,0.20703125
229,-0.015625,-1.01171875,0.203125
230,-0.01953125,-1.015625,0.22265625
231,-0.01953125,-1.015625,0.21484375
232,-0.0390625,-1.01171875,0.2109375
233,-0.03125,-1.01953125,0.19921875
234,-0.03125,-1.02734375,0.21484375
235,-0.0234375,-1.0234375,0.21484375
236,-0.0234375,-1.01953125,0.20703125
237,-0.02734375,-1.02734375,0.203125
238,-0.02734375,-1.0234375,0.1953125
239,-0.01171875,-1.0234375,0.2109375
240,-0.02734375,-1.01953125,0.2109375
241,-0.02734375,-1.03125,0.2109375
242,-0.015625,-1.02734375,0.19921875
243,-0.03515625,-1.015625,0.203125
244,-0.02734375,-1.0234375,0.2109375
245,-0.0234375,-1.01953125,0.23046875
246,-0.02734375,-1.03125,0.203125
247,-0.015625,-1.0234375,0.21875
248,-0.015625,-1.01171875,0.21875
249,-0.0234375,-1.0234375,0.21484375
250,-0.03125,-1.0234375,0.21875
251,-0.02734375,-1.0234375,0.2109375
252,-0.03515625,-1.015625,0.22265625
253,-0.015625,-1.015625,0.203125
254,-0.03515625,-1.01171875,0.19140625
255,-0.01953125,-1.01953125,0.2109375
256,-0.03125,-1.01953125,0.2109375
257,-0.01171875,-1.01953125,0.20703125
258,-0.01953125,-1.01953125,0.21484375
259,-0.03515625,-1.015625,0.21875
260,-0.015625,-1.0234375,0.19921875
261,-0.0078125,-1.01171875,0.20703125
262,-0.0234375,-1.015625,0.21875
263,0.0,-1.01953125,0.203125
264,-0.0234375,-1.015625,0.21875
265,-0.03515625,-1.015625,0.21875
266,-0.01171875,-1.0234375,0.20703125
267,-0.01171875,-1.02734375,0.21484375
268,-0.02734375,-1.01171875,0.21875
269,-0.03515625,-1.0078125,0.22265625
270,-0.0234375,-1.0234375,0.20703125
271,-0.02734375,-1.01953125,0.19921875
272,-0.01953125,-1.015625,0.2109375
273,-0.02734375,-1.01171875,0.22265625
274,-0.0390625,-1.015625,0.21875
275,-0.0234375,-1.01953125,0.2109375
276,-0.0234375,-1.015625,0.2265625
277,-0.0234375,-1.01953125,0.21484375
278,-0.03125,-1.01953125,0.21484375
279,-0.0234375,-1.01953125,0.22265625
280,-0.03125,-1.01953125,0.20703125
281,-0.01953125,-1.0234375,0.2109375
282,-0.0234375,-1.01171875,0.23046875
283,-0.015625,-1.0234375,0.19921875
284,-0.02734375,-1.03125,0.203125
285,-0.01171875,-1.01953125,0.21875
286,-0.0234375,-1.01953125,0.203125
287,-0.02734375,-1.01953125,0.203125
288,-0.03125,-1.02734375,0.19921875
289,-0.02734375,-1.01953125,0.22265625
290,-0.0234375,-1.02734375,0.21484375
291,-0.0234375,-1.01953125,0.22265625
292,-0.01953125,-1.0234375,0.20703125
293,-0.02734375,-1.015625,0.19921875
294,-0.02734375,-1.0078125,0.2109375
295,-0.0234375,-1.015625,0.20703125
296,-0.01953125,-1.01171875,0.20703125
297,-0.015625,-1.015625,0.19921875
298,-0.03125,-1.015625,0.2109375
299,-0.0234375,-1.0078125,0.21484375
300,-0.02734375,-1.01171875,0.21484375
301,-0.015625,-1.01171875,0.21875
302,-0.02734375,-1.015625,0.22265625
303,-0.01953125,-0.98828125,0.21875
304,-0.015625,-1.0078125,0.21484375
305,-0.0234375,-1.01171875,0.21484375
306,-0.03125,-1.015625,0.21875
307,-0.02734375,-1.015625,0.21875
308,-0.0078125,-1.01953125,0.2109375
309,-0.0234375,-1.00390625,0.203125
310,-0.03125,-1.00390625,0.2265625
311,-0.0234375,-1.015625,0.22265625
312,-0.0234375,-1.0234375,0.21484375
313,-0.02734375,-1.01953125,0.21484375
314,-0.02734375,-1.01953125,0.2265625
315,-0.03125,-1.01171875,0.21484375
316,-0.02734375,-1.015625,0.21484375
317,-0.015625,-1.015625,0.21875
318,-0.03125,-1.0234375,0.203125
319,-0.015625,-1.01171875,0.1953125
320,-0.0234375,-1.01953125,0.2109375
321,-0.0234375,-1.0234375,0.21875
322,-0.02734375,-1.02734375,0.203125
323,-0.01953125,-1.0234375,0.2109375
324,-0.01953125,-1.015625,0.20703125
325,-0.02734375,-1.0390625,0.2265625
326,-0.03515625,-1.015625,0.22265625
327,-0.02734375,-1.015625,0.19140625
328,-0.01953125,-1.0234375,0.1875
329,-0.03125,-1.015625,0.20703125
330,-0.02734375,-1.02734375,0.21484375
331,-0.0234375,-1.02734375,0.22265625
332,-0.0234375,-1.01953125,0.21484375
333,-0.04296875,-1.0078125,0.20703125
334,-0.03125,-1.015625,0.203125
335,-0.01953125,-1.0234375,0.2109375
336,-0.015625,-1.015625,0.20703125
337,-0.03125,-1.01171875,0.20703125
338,-0.01171875,-1.01953125,0.21484375
339,-0.03125,-1.015625,0.203125
340,-0.0234375,-1.0234375,0.203125
341,-0.02734375,-1.0234375,0.203125
342,-0.015625,-1.03125,0.21875
343,-0.02734375,-1.0234375,0.1953125
344,-0.01953125,-1.01171875,0.21875
345,-0.0234375,-1.01171875,0.21875
346,-0.02734375,-1.01953125,0.21875
347,-0.02734375,-1.01171875,0.203125
348,-0.015625,-1.0234375,0.22265625
349,-0.015625,-1.0234375,0.2109375
350,-0.0234375,-1.0234375,0.20703125
351,-0.03125,-1.01953125,0.20703125
352,-0.01171875,-1.0234375,0.2109375
353,-0.01953125,-1.02734375,0.20703125
354,-0.01953125,-1.015625,0.2109375
355,-0.01953125,-1.01953125,0.20703125
356,-0.01171875,-1.01953125,0.21875
357,-0.0234375,-1.015625,0.19921875
358,-0.01171875,-1.0234375,0.2109375
359,-0.01171875,-1.0234375,0.19921875
360,-0.0234375,-1.0234375,0.19921875
361,-0.015625,-1.0234375,0.20703125
362,-0.03125,-1.01953125,0.22265625
363,-0.0234375,-1.01171875,0.21484375
364,-0.015625,-1.01953125,0.1953125
365,-0.02734375,-1.015625,0.203125
366,-0.01953125,-1.01953125,0.19921875
367,-0.015625,-1.04296875,0.21484375
368,-0.01953125,-1.0078125,0.203125
369,-0.02734375,-1.01171875,0.21484375
370,-0.02734375,-1.0078125,0.22265625
371,-0.02734375,-1.0078125,0.19140625
372,-0.01953125,-1.015625,0.19921875
373,-0.01953125,-1.02734375,0.19140625
374,-0.0234375,-1.015625,0.203125
375,-0.04296875,-1.01171875,0.2109375
376,-0.01171875,-1.0234375,0.20703125
377,-0.0234375,-1.0078125,0.1953125
378,-0.01953125,-1.015625,0.203125
379,-0.0234375,-1.01953125,0.1953125
380,-0.01953125,-1.01171875,0.19921875
381,-0.0234375,-1.0234375,0.1953125
382,-0.03125,-1.0234375,0.203125
383,-0.01953125,-1.015625,0.19140625
384,-0.0078125,-1.03125,0.19921875
385,-0.0234375,-1.015625,0.20703125
386,-0.02734375,-1.01171875,0.2109375
387,-0.01171875,-1.015625,0.2109375
388,-0.01953125,-1.015625,0.19921875
389,-0.03515625,-1.0078125,0.20703125
390,-0.02734375,-1.01953125,0.19140625
391,-0.01953125,-1.01953125,0.19140625
392,-0.01953125,-1.01953125,0.1953125
393,-0.015625,-1.015625,0.203125
394,-0.015625,-1.03515625,0.2109375
395,-0.02734375,-1.01953125,0.203125
396,0.0,-1.01953125,0.19921875
397,-0.02734375,-1.0234375,0.19140625
398,-0.03125,-1.01953125,0.20703125
399,-0.02734375,-1.0234375,0.17578125
400,-0.0234375,-1.01953125,0.21484375
401,-0.0234375,-1.01953125,0.1875
402,-0.0234375,-1.01953125,0.19140625
403,-0.03125,-1.01953125,0.19140625
404,-0.02734375,-1.0234375,0.20703125
405,-0.01953125,-1.0078125,0.19140625
406,-0.0234375,-1.0234375,0.19140625
407,-0.02734375,-1.02734375,0.1796875
408,-0.0234375,-1.00390625,0.1953125
409,-0.02734375,-1.01171875,0.1875
410,-0.01171875,-1.0234375,0.1875
411,-0.0078125,-1.0234375,0.19140625
412,-0.01171875,-1.01171875,0.18359375
413,-0.0234375,-1.0234375,0.19921875
414,-0.02734375,-1.015625,0.1953125
415,-0.02734375,-1.01953125,0.19921875
416,-0.01171875,-1.015625,0.19140625
417,0.0,-1.03515625,0.19140625
418,-0.01953125,-1.02734375,0.1640625
419,-0.00390625,-1.03125,0.17578125
420,-0.0078125,-1.0234375,0.1953125
421,-0.0078125,-1.0234375,0.1796875
422,0.0,-1.02734375,0.171875
423,-0.00390625,-1.0234375,0.16796875
424,-0.015625,-1.0078125,0.16796875
425,-0.0078125,-1.0234375,0.171875
426,-0.0078125,-1.02734375,0.16796875
427,-0.00390625,-1.01953125,0.1484375
428,-0.00390625,-1.02734375,0.15625
429,-0.015625,-1.02734375,0.15234375
430,-0.00390625,-1.015625,0.16796875
431,-0.01171875,-1.015625,0.15625
432,-0.0078125,-1.00390625,0.14453125
433,-0.00390625,-1.01953125,0.15625
434,-0.0078125,-1.0234375,0.15234375
435,-0.0078125,-1.01953125,0.16015625
436,-0.02734375,-1.03125,0.15625
437,-0.015625,-1.0234375,0.13671875
438,-0.02734375,-1.015625,0.16015625
439,-0.0390625,-1.02734375,0.14453125
440,-0.01171875,-1.02734375,0.14453125
441,-0.03125,-1.0390625,0.15625
442,-0.0234375,-1.02734375,0.14453125
443,-0.01953125,-1.0234375,0.140625
444,-0.01953125,-1.015625,0.13671875
445,-0.01953125,-1.02734375,0.140625
446,-0.0078125,-1.03515625,0.1328125
447,-0.0078125,-1.01953125,0.125
448,-0.0234375,-1.03125,0.14453125
449,-0.0234375,-1.01953125,0.1328125
450,-0.01953125,-1.03125,0.13671875
451,-0.01953125,-1.0234375,0.16015625
452,-0.0078125,-1.03515625,0.140625
453,-0.00390625,-1.01953125,0.1484375
454,-0.01953125,-1.03125,0.140625
455,-0.02734375,-1.01953125,0.1484375
456,-0.02734375,-1.0234375,0.13671875
457,-0.015625,-1.02734375,0.13671875
458,-0.01171875,-1.02734375,0.14453125
459,-0.0390625,-1.0234375,0.140625
460,-0.015625,-1.03125,0.13671875
461,-0.02734375,-1.0234375,0.12890625
462,-0.015625,-1.02734375,0.1328125
463,-0.01953125,-1.03125,0.1328125
464,-0.015625,-1.02734375,0.1171875
465,-0.02734375,-1.0234375,0.12890625
466,-0.01953125,-1.03515625,0.125
467,-0.02734375,-1.02734375,0.140625
468,-0.01953125,-1.02734375,0.125
469,-0.0234375,-1.01953125,0.12890625
470,-0.01953125,-1.0390625,0.13671875
471,-0.01171875,-1.02734375,0.1484375
472,-0.0234375,-1.03515625,0.15234375
473,-0.0078125,-1.046875,0.1328125
474,-0.01171875,-1.05078125,0.1484375
475,-0.015625,-1.0546875,0.14453125
476,-0.01953125,-1.05078125,0.12109375
477,-0.02734375,-1.046875,0.12109375
478,-0.02734375,-1.04296875,0.1328125
479,-0.03125,-1.04296875,0.140625
480,-0.03515625,-1.046875,0.140625
481,-0.01953125,-1.0234375,0.1171875
482,-0.01953125,-1.03515625,0.12109375
483,-0.0390625,-1.02734375,0.1171875
484,-0.02734375,-1.01171875,0.1171875
485,-0.03515625,-1.0078125,0.1171875
486,-0.02734375,-1.0,0.1328125
487,-0.02734375,-0.99609375,0.12890625
488,-0.0234375,-1.0,0.12109375
489,-0.03125,-0.99609375,0.1328125
490,-0.015625,-1.00390625,0.1484375
491,-0.01953125,-1.01953125,0.1484375
492,-0.015625,-1.03125,0.1640625
493,0.0,-1.04296875,0.13671875
494,-0.015625,-1.05078125,0.1328125
495,-0.02734375,-1.09375,0.12109375
496,-0.01171875,-1.078125,0.11328125
497,-0.01171875,-1.06640625,0.109375
498,-0.0078125,-1.078125,0.10546875
499,-0.01171875,-1.05859375,0.09765625
500,0.0,-1.03515625,0.08203125
501,0.0,-1.01171875,0.078125
502,-0.0078125,-0.9921875,0.08203125
503,-0.0078125,-0.953125,0.08984375
504,0.00390625,-0.9296875,0.10546875
505,0.0,-0.921875,0.109375
506,0.0,-0.90625,0.125
507,-0.00390625,-0.90625,0.1484375
508,-0.015625,-0.9140625,0.16015625
509,0.0,-0.9453125,0.17578125
510,-0.01171875,-0.9765625,0.171875
511,0.0,-1.015625,0.1953125
512,-0.01171875,-1.04296875,0.18359375
513,-0.0078125,-1.07421875,0.1796875
514,-0.01171875,-1.09765625,0.17578125
515,-0.0234375,-1.1015625,0.15625
516,-0.01953125,-1.11328125,0.13671875
517,-0.04296875,-1.14453125,0.109375
518,-0.02734375,-1.09765625,0.1015625
519,-0.02734375,-1.08984375,0.06640625
520,-0.04296875,-1.05078125,0.07421875
521,-0.0390625,-1.03515625,0.0703125
522,-0.02734375,-1.00390625,0.06640625
523,-0.0234375,-0.98828125,0.06640625
524,-0.0234375,-0.96484375,0.07421875
525,-0.015625,-0.953125,0.08203125
526,-0.0078125,-0.94921875,0.08203125
527,-0.0078125,-0.95703125,0.0859375
528,-0.00390625,-0.97265625,0.1015625
529,-0.00390625,-1.01171875,0.1171875
530,0.0,-1.0390625,0.10546875
531,0.0,-1.07421875,0.1171875
532,0.0078125,-1.09375,0.09765625
533,0.0078125,-1.109375,0.1015625
534,0.00390625,-1.109375,0.07421875
535,0.00390625,-1.0859375,0.0546875
536,-0.00390625,-1.0703125,0.05078125
537,-0.00390625,-1.05078125,0.0390625
538,-0.015625,-1.0078125,0.0234375
539,-0.03515625,-0.984375,0.03125
540,-0.0390625,-0.9453125,0.05078125
541,-0.0390625,-0.90625,0.04296875
542,-0.04296875,-0.8828125,0.0703125
543,-0.02734375,-0.8828125,0.0703125
544,-0.015625,-0.90234375,0.08984375
545,-0.03515625,-0.921875,0.10546875
546,-0.01953125,-0.98046875,0.12109375
547,-0.01171875,-1.01171875,0.125
548,-0.02734375,-1.0390625,0.1171875
549,-0.00390625,-1.0703125,0.08984375
550,-0.00390625,-1.1015625,0.05859375
551,0.0,-1.1171875,0.05859375
552,0.0,-1.14453125,0.0234375
553,0.00390625,-1.13671875,0.01171875
554,0.00390625,-1.1328125,0.0
555,0.00390625,-1.11328125,0.0
556,0.0,-1.09375,0.00390625
557,-0.00390625,-1.0546875,0.0
558,-0.03125,-1.01953125,0.01171875
559,-0.015625,-0.98046875,0.02734375
560,-0.03515625,-0.95703125,0.03125
561,-0.02734375,-0.94921875,0.05078125
562,-0.03515625,-0.94140625,0.0390625
563,-0.02734375,-0.9453125,0.0390625
564,-0.03125,-0.953125,0.05859375
565,-0.01953125,-0.98046875,0.046875
566,-0.02734375,-1.0,0.03515625
567,-0.03515625,-1.0234375,0.015625
568,-0.01953125,-1.03515625,0.01171875
569,-0.03515625,-1.04296875,0.0
570,-0.0390625,-1.05859375,-0.01171875
571,-0.0390625,-1.078125,-0.03515625
572,-0.046875,-1.06640625,-0.03515625
573,-0.03125,-1.0703125,-0.0390625
574,-0.0390625,-1.046875,-0.046875
575,-0.03515625,-1.05078125,-0.04296875
576,-0.03515625,-1.0390625,-0.0390625
577,-0.0390625,-1.015625,-0.03125
578,-0.03515625,-1.0078125,-0.0078125
579,-0.03515625,-0.99609375,0.0
580,-0.03515625,-0.99609375,0.00390625
581,-0.0234375,-0.9921875,0.03125
582,-0.015625,-1.0078125,0.015625
583,-0.01171875,-1.01171875,0.00390625
584,-0.00390625,-1.02734375,-0.0234375
585,0.0,-1.04296875,-0.0546875
586,-0.00390625,-1.046875,-0.05078125
587,0.0,-1.05078125,-0.08984375
588,0.01171875,-1.05078125,-0.10546875
589,0.00390625,-1.03515625,-0.11328125
590,0.00390625,-1.01171875,-0.10546875
591,0.0,-1.0234375,-0.109375
592,0.00390625,-1.0,-0.07421875
593,-0.00390625,-1.0,-0.05078125
594,-0.01953125,-0.9765625,-0.04296875
595,-0.00390625,-0.984375,-0.03515625
596,0.00390625,-0.98828125,-0.015625
597,0.0,-1.01171875,-0.03515625
598,0.00390625,-1.02734375,-0.0390625
599,0.00390625,-1.046875,-0.06640625
600,0.0078125,-1.05859375,-0.07421875
601,0.0,-1.06640625,-0.0859375
602,0.00390625,-1.0546875,-0.10546875
603,0.015625,-1.02734375,-0.1484375
604,0.0,-1.0390625,-0.16015625
605,0.0,-1.015625,-0.15625
606,0.00390625,-1.01171875,-0.15625
607,0.0,-1.0,-0.1484375
608,0.0078125,-0.9921875,-0.109375
609,0.0,-0.99609375,-0.08984375
610,0.0,-1.0,-0.078125
611,-0.02734375,-0.99609375,-0.04296875
612,-0.01953125,-1.01171875,-0.0234375
613,-0.02734375,-1.015625,-0.00390625
614,-0.0390625,-1.01953125,-0.01953125
615,-0.02734375,-1.03125,-0.03125
616,-0.0234375,-1.0390625,-0.05859375
617,-0.01953125,-1.0234375,-0.1015625
618,-0.01171875,-1.015625,-0.1484375
619,0.0,-1.0078125,-0.203125
620,0.0,-1.00390625,-0.2109375
621,0.0,-0.99609375,-0.24609375
622,0.015625,-1.0,-0.26953125
623,0.0234375,-1.00390625,-0.25
624,0.00390625,-1.0,-0.25390625
625,0.01171875,-1.00390625,-0.234375
626,0.00390625,-1.0234375,-0.21875
627,-0.0078125,-1.03125,-0.1875
628,0.0,-1.05078125,-0.15625
629,-0.01171875,-1.05078125,-0.1328125
630,-0.01953125,-1.078125,-0.125
631,-0.03125,-1.0703125,-0.12109375
632,-0.01953125,-1.07421875,-0.12109375
633,-0.0234375,-1.06640625,-0.1328125
634,-0.03515625,-1.05078125,-0.125
635,-0.04296875,-1.02734375,-0.15234375
636,-0.03515625,-1.02734375,-0.1875
637,-0.02734375,-1.00390625,-0.203125
638,-0.0078125,-0.99609375,-0.2265625
639,0.0,-0.9765625,-0.24609375
640,0.00390625,-0.97265625,-0.2421875
641,0.01171875,-0.9765625,-0.23828125
642,0.01953125,-0.96484375,-0.22265625
643,0.02734375,-0.95703125,-0.203125
644,0.0390625,-0.9609375,-0.21484375
645,0.05859375,-0.94140625,-0.1796875
646,0.03125,-0.99609375,-0.1640625
647,0.0390625,-1.00390625,-0.15234375
648,0.0234375,-1.01953125,-0.171875
649,0.0234375,-1.046875,-0.1796875
650,0.0078125,-1.05859375,-0.1953125
651,0.01171875,-1.08984375,-0.20703125
652,0.0,-1.08203125,-0.23046875
653,-0.0078125,-1.08203125,-0.2421875
654,0.0,-1.08984375,-0.2421875
655,-0.01171875,-1.07421875,-0.26171875
656,0.00390625,-1.06640625,-0.265625
657,0.0078125,-1.046875,-0.26953125
658,0.01171875,-1.0390625,-0.26953125
659,0.0078125,-1.01171875,-0.26171875
660,0.0234375,-1.00390625,-0.23828125
661,0.0234375,-0.99609375,-0.2421875
662,0.03125,-0.9921875,-0.22265625
663,0.02734375,-0.984375,-0.22265625
664,0.02734375,-0.98828125,-0.21484375
665,0.01171875,-0.99609375,-0.1953125
666,0.0078125,-1.015625,-0.2109375
667,0.0078125,-0.984375,-0.19921875
668,-0.0078125,-1.00390625,-0.22265625
669,-0.0078125,-1.0,-0.21484375
670,-0.02734375,-1.0,-0.23828125
671,-0.01171875,-1.0,-0.234375
672,-0.03125,-0.9921875,-0.2421875
673,-0.03515625,-0.9921875,-0.25
674,-0.0234375,-0.984375,-0.25390625
675,-0.01953125,-0.99609375,-0.26171875
676,0.0,-1.0,-0.26953125
677,0.00390625,-0.99609375,-0.26171875
678,0.01953125,-0.99609375,-0.26953125
679,0.0390625,-1.0078125,-0.265625
680,0.03515625,-0.99609375,-0.265625
681,0.04296875,-1.00390625,-0.2421875
682,0.05078125,-1.0,-0.2421875
683,0.046875,-0.99609375,-0.24609375
684,0.046875,-1.0,-0.2421875
685,0.03515625,-1.00390625,-0.23828125
686,0.0234375,-1.0,-0.23828125
687,0.015625,-1.00390625,-0.23828125
688,0.015625,-1.01171875,-0.25
689,-0.00390625,-0.99609375,-0.25
690,-0.00390625,-1.01953125,-0.26171875
691,-0.0078125,-1.00390625,-0.265625
692,-0.0234375,-0.99609375,-0.26953125
693,0.0,-1.01171875,-0.2734375
694,-0.0078125,-1.0,-0.28515625
695,0.0,-1.0078125,-0.296875
696,0.00390625,-1.00390625,-0.28515625
697,0.01171875,-0.99609375,-0.29296875
698,0.01953125,-1.0,-0.28515625
699,0.01953125,-0.99609375,-0.28125
700,0.01171875,-1.00390625,-0.26953125
701,0.015625,-0.99609375,-0.26171875
702,0.03515625,-1.0,-0.26171875
703,0.01953125,-1.0,-0.2578125
704,0.03515625,-0.99609375,-0.265625
705,0.03125,-1.00390625,-0.26171875
706,0.015625,-0.99609375,-0.25390625
707,0.01953125,-0.99609375,-0.25390625
708,0.015625,-0.9921875,-0.25
709,0.0078125,-0.9765625,-0.24609375
710,0.01171875,-0.96875,-0.265625
711,0.01953125,-0.96484375,-0.25
712,0.01953125,-0.95703125,-0.265625
713,0.01953125,-0.9375,-0.2734375
714,0.03515625,-0.953125,-0.26953125
715,0.03125,-0.96484375,-0.3046875
716,0.04296875,-0.96875,-0.30078125
717,0.046875,-0.98046875,-0.30859375
718,0.0546875,-0.9921875,-0.32421875
719,0.05078125,-0.98046875,-0.296875
720,0.05859375,-0.984375,-0.296875
721,0.046875,-0.9921875,-0.28515625
722,0.046875,-0.98828125,-0.2734375
723,0.04296875,-0.9765625,-0.2734375
724,0.03125,-0.984375,-0.26953125
725,0.02734375,-0.9765625,-0.265625
726,0.0234375,-0.984375,-0.26171875
727,0.015625,-0.9765625,-0.28125
728,0.0,-0.984375,-0.26953125
729,0.00390625,-0.98046875,-0.27734375
730,0.0078125,-0.9921875,-0.27734375
731,0.00390625,-0.98828125,-0.27734375
732,0.01171875,-0.9765625,-0.2421875
733,0.00390625,-0.984375,-0.2734375
734,0.02734375,-0.98046875,-0.2734375
735,0.02734375,-0.984375,-0.265625
736,0.02734375,-0.9609375,-0.26171875
737,0.0390625,-0.96484375,-0.265625
738,0.0390625,-0.97265625,-0.265625
739,0.03515625,-0.96875,-0.27734375
740,0.0390625,-0.95703125,-0.28125
741,0.04296875,-0.96875,-0.29296875
742,0.04296875,-0.96875,-0.25390625
743,0.05078125,-0.97265625,-0.2734375
744,0.046875,-0.97265625,-0.29296875
745,0.04296875,-0.96875,-0.2890625
746,0.04296875,-0.97265625,-0.28515625
747,0.04296875,-0.96484375,-0.28125
748,0.03125,-0.96875,-0.28515625
749,0.04296875,-0.97265625,-0.2734375
750,0.01953125,-0.97265625,-0.2578125
751,0.01953125,-0.98046875,-0.26953125
752,0.01171875,-0.9765625,-0.265625
753,0.0078125,-0.97265625,-0.26953125
754,0.01953125,-0.984375,-0.2890625
755,0.0078125,-0.984375,-0.265625
756,0.0078125,-0.984375,-0.29296875
757,0.0078125,-0.98828125,-0.26953125
758,0.0078125,-0.98046875,-0.2734375
759,0.0078125,-0.98046875,-0.27734375
760,0.0,-0.97265625,-0.2890625
761,0.00390625,-0.9765625,-0.26953125
762,0.00390625,-0.97265625,-0.265625
763,0.0078125,-0.96484375,-0.27734375
764,0.0078125,-0.9765625,-0.2734375
765,0.01171875,-0.98046875,-0.265625
766,0.0078125,-0.96484375,-0.2578125
767,0.00390625,-0.97265625,-0.26953125
768,0.01953125,-0.984375,-0.26953125
769,0.01171875,-0.9765625,-0.26953125
770,0.02734375,-0.98046875,-0.2578125
771,0.02734375,-0.98828125,-0.26953125
772,0.0390625,-0.98046875,-0.27734375
773,0.03125,-0.99609375,-0.2734375
774,0.03515625,-0.98828125,-0.26171875
775,0.0234375,-0.9921875,-0.26953125
776,0.01953125,-0.984375,-0.25390625
777,0.02734375,-0.98828125,-0.25
778,0.01171875,-0.98828125,-0.25390625
779,0.03125,-0.98828125,-0.25390625
780,0.01953125,-0.9921875,-0.2578125
781,0.01171875,-0.99609375,-0.24609375
782,0.0234375,-0.99609375,-0.25390625
783,0.0234375,-0.99609375,-0.25390625
784,0.015625,-0.98828125,-0.25390625
785,0.02734375,-0.98828125,-0.26171875
786,0.01171875,-0.98828125,-0.26171875
787,0.01953125,-0.98046875,-0.26171875
788,0.01953125,-0.97265625,-0.26171875
789,0.01953125,-0.9765625,-0.2734375
790,0.01953125,-0.98046875,-0.27734375
791,0.01953125,-0.9765625,-0.26171875
792,0.02734375,-0.9921875,-0.2578125
793,0.02734375,-0.984375,-0.2578125
794,0.01953125,-0.98046875,-0.26953125
795,0.01953125,-0.98046875,-0.2734375
796,0.0234375,-0.98828125,-0.2578125
797,0.03125,-0.9765625,-0.27734375
798,0.01953125,-0.98828125,-0.25
799,0.015625,-0.98046875,-0.234375
800,0.0234375,-0.984375,-0.2421875
801,0.02734375,-0.9921875,-0.234375
802,0.015625,-0.9921875,-0.25
803,0.01171875,-0.9921875,-0.2578125
804,0.015625,-0.98828125,-0.24609375
805,0.0234375,-0.9921875,-0.24609375
806,0.0234375,-0.9921875,-0.2578125
807,0.015625,-0.99609375,-0.26953125
808,0.0234375,-0.98828125,-0.2578125
809,0.0234375,-0.99609375,-0.2734375
810,0.02734375,-0.984375,-0.265625
811,0.02734375,-0.9921875,-0.2578125
812,0.02734375,-0.9765625,-0.26171875
813,0.03125,-0.984375,-0.25390625
814,0.0390625,-0.984375,-0.25390625
815,0.04296875,-0.96875,-0.265625
816,0.0390625,-0.984375,-0.25
817,0.04296875,-0.98828125,-0.25390625
818,0.046875,-0.96875,-0.26171875
819,0.03515625,-0.984375,-0.25
820,0.03515625,-0.98046875,-0.24609375
821,0.03515625,-0.984375,-0.2578125
822,0.0390625,-0.9921875,-0.25
823,0.03125,-0.98828125,-0.25
824,0.03125,-0.99609375,-0.25
825,0.015625,-0.9765625,-0.2578125
826,0.01953125,-0.984375,-0.23828125
827,0.01171875,-0.98828125,-0.24609375
828,0.015625,-0.9921875,-0.2578125
829,0.0078125,-0.98828125,-0.25390625
830,0.01953125,-0.9921875,-0.25
831,0.0234375,-0.98828125,-0.25390625
832,0.01953125,-0.99609375,-0.2734375
833,0.01171875,-0.9921875,-0.28125
834,0.015625,-0.984375,-0.26953125
835,0.01953125,-0.98046875,-0.2734375
836,0.0234375,-0.9921875,-0.26953125
837,0.02734375,-0.984375,-0.26953125
838,0.015625,-0.9765625,-0.26953125
839,0.015625,-0.97265625,-0.25390625
840,0.015625,-0.9765625,-0.2578125
841,0.015625,-0.9765625,-0.265625
842,0.01171875,-0.98828125,-0.2578125
843,0.03125,-0.9921875,-0.2734375
844,0.03125,-0.98828125,-0.26953125
845,0.04296875,-0.99609375,-0.265625
846,0.05078125,-0.99609375,-0.265625
847,0.05078125,-0.98046875,-0.27734375
848,0.04296875,-0.984375,-0.26171875
849,0.0546875,-0.984375,-0.265625
850,0.0546875,-0.984375,-0.2734375
851,0.04296875,-0.98046875,-0.2578125
852,0.05078125,-0.9921875,-0.25
853,0.03515625,-0.984375,-0.2578125
854,0.03125,-0.984375,-0.2578125
855,0.03125,-0.96875,-0.2578125
856,0.0234375,-0.97265625,-0.2578125
857,0.02734375,-0.96875,-0.26171875
858,0.0234375,-0.96875,-0.2578125
859,0.0234375,-0.9765625,-0.26171875
860,0.0234375,-0.96875,-0.25390625
861,0.01953125,-0.9765625,-0.26171875
862,0.015625,-0.984375,-0.2578125
863,0.015625,-0.97265625,-0.26953125
864,0.01171875,-0.9765625,-0.2578125
865,0.0078125,-0.97265625,-0.26171875
866,0.02734375,-0.97265625,-0.26171875
867,0.015625,-0.97265625,-0.265625
868,0.01953125,-0.984375,-0.265625
869,0.0234375,-0.984375,-0.28125
870,0.0234375,-0.98046875,-0.26953125
871,0.02734375,-0.9921875,-0.265625
872,0.0234375,-0.98046875,-0.27734375
873,0.02734375,-0.98828125,-0.26171875
874,0.01953125,-0.98828125,-0.26171875
875,0.04296875,-0.98828125,-0.26171875
876,0.03125,-0.99609375,-0.25390625
877,0.03515625,-0.984375,-0.25390625
878,0.02734375,-0.9921875,-0.25
879,0.02734375,-0.99609375,-0.25
880,0.02734375,-0.98828125,-0.25
881,0.01953125,-0.99609375,-0.25
882,0.02734375,-0.98828125,-0.24609375
883,0.03515625,-0.98828125,-0.265625
884,0.02734375,-0.9921875,-0.2890625
885,0.02734375,-0.98828125,-0.25390625
886,0.01953125,-0.98828125,-0.26171875
887,0.015625,-0.984375,-0.2578125
888,0.01171875,-0.98828125,-0.25
889,0.015625,-0.97265625,-0.26171875
890,0.0234375,-0.96484375,-0.25390625
891,0.01171875,-0.98046875,-0.2578125
892,0.01171875,-0.96875,-0.265625
893,0.0234375,-0.984375,-0.2578125
894,0.03125,-0.98828125,-0.25390625
895,0.01953125,-0.98828125,-0.2578125
896,0.02734375,-0.9921875,-0.25
897,0.03125,-0.98046875,-0.25390625
898,0.02734375,-0.984375,-0.26171875
899,0.02734375,-0.984375,-0.2578125
900,0.01953125,-0.9921875,-0.234375
901,0.0234375,-0.98046875,-0.2421875
902,0.0234375,-0.98828125,-0.26171875
903,0.0234375,-0.98828125,-0.25390625
904,0.0234375,-0.984375,-0.25390625
905,0.0234375,-0.9921875,-0.25390625
906,0.03515625,-0.9921875,-0.22265625
907,0.02734375,-0.98828125,-0.26171875
908,0.02734375,-0.984375,-0.25390625
909,0.03125,-0.984375,-0.25390625
910,0.02734375,-0.9921875,-0.265625
911,0.03515625,-0.98828125,-0.26171875
912,0.02734375,-0.99609375,-0.2578125
913,0.03125,-0.9921875,-0.25
914,0.03125,-0.9765625,-0.24609375
915,0.0234375,-0.98046875,-0.25
916,0.03125,-0.984375,-0.25390625
917,0.02734375,-0.98828125,-0.24609375
918,0.02734375,-0.9921875,-0.2578125
919,0.0234375,-0.9921875,-0.25
920,0.01171875,-0.99609375,-0.2578125
921,0.01171875,-0.984375,-0.26171875
922,0.01171875,-0.99609375,-0.25
923,0.01171875,-0.9921875,-0.25390625
924,0.01171875,-0.98828125,-0.25
925,0.015625,-0.98828125,-0.25390625
926,0.0078125,-0.98046875,-0.25390625
927,0.015625,-0.9921875,-0.25
928,0.015625,-0.9765625,-0.26171875
929,0.0234375,-0.9921875,-0.24609375
930,0.0234375,-0.98828125,-0.24609375
931,0.01171875,-0.98828125,-0.25
932,0.02734375,-0.984375,-0.25390625
933,0.01953125,-0.9921875,-0.24609375
934,0.03125,-0.98828125,-0.24609375
935,0.0234375,-0.984375,-0.24609375
936,0.04296875,-0.9921875,-0.2421875
937,0.0390625,-0.98046875,-0.25
938,0.0390625,-0.984375,-0.25390625
939,0.03125,-0.9765625,-0.24609375
940,0.0234375,-0.984375,-0.2421875
941,0.0234375,-0.9921875,-0.25390625
942,0.03515625,-0.99609375,-0.25
943,0.02734375,-0.98828125,-0.25
944,0.0234375,-0.984375,-0.25390625
945,0.02734375,-0.98046875,-0.25390625
946,0.015625,-1.0,-0.2421875
947,0.02734375,-0.98828125,-0.24609375
948,0.0390625,-0.99609375,-0.234375
949,0.02734375,-0.98828125,-0.2578125
950,0.01953125,-1.0,-0.2421875
951,0.02734375,-0.98828125,-0.24609375
952,0.015625,-0.9921875,-0.24609375
953,0.015625,-0.9921875,-0.24609375
954,0.03125,-1.0,-0.25
955,0.01171875,-0.98046875,-0.25
956,0.01953125,-0.99609375,-0.2578125
957,0.02734375,-0.99609375,-0.25
958,0.03125,-0.98828125,-0.25390625
959,0.03515625,-0.99609375,-0.24609375
960,0.0234375,-0.984375,-0.25
961,0.03125,-0.9921875,-0.24609375
962,0.015625,-0.98828125,-0.2578125
963,0.01171875,-0.9921875,-0.24609375
964,0.01953125,-0.9921875,-0.24609375
965,0.0234375,-0.9921875,-0.25
966,0.0234375,-1.0,-0.2421875
967,0.01953125,-0.98828125,-0.2421875
968,0.01953125,-0.99609375,-0.25
969,0.0234375,-0.98828125,-0.2421875
970,0.01953125,-0.98828125,-0.24609375
971,0.0234375,-0.984375,-0.24609375
972,0.0234375,-0.9921875,-0.2421875
973,0.02734375,-0.9921875,-0.25
974,0.02734375,-0.9765625,-0.25390625
975,0.01953125,-0.984375,-0.23828125
976,0.01953125,-0.97265625,-0.2578125
977,0.02734375,-0.9765625,-0.2578125
978,0.01953125,-0.98046875,-0.24609375
979,0.01171875,-0.98828125,-0.25
980,0.015625,-0.9765625,-0.25390625
981,0.03125,-0.98046875,-0.25390625
982,0.0234375,-0.98046875,-0.25390625
983,0.01953125,-0.984375,-0.25390625
984,0.01953125,-0.98828125,-0.24609375
985,0.01171875,-0.98046875,-0.23828125
986,0.0234375,-0.98828125,-0.24609375
987,0.01953125,-0.98828125,-0.25390625
988,0.0234375,-0.98046875,-0.24609375
989,0.01171875,-0.984375,-0.24609375
990,0.03125,-0.98828125,-0.24609375
991,0.02734375,-0.98046875,-0.25
992,0.03125,-0.984375,-0.25
993,0.01171875,-0.9765625,-0.24609375
994,0.03125,-0.98046875,-0.24609375
995,0.03125,-0.98828125,-0.265625
996,0.03125,-0.9921875,-0.26953125
997,0.02734375,-0.99609375,-0.26171875
998,0.03515625,-0.9921875,-0.2578125
999,0.02734375,-0.9921875,-0.2421875
1000,0.02734375,-0.9921875,-0.25390625
1001,0.01953125,-0.98828125,-0.2421875
1002,0.04296875,-0.99609375,-0.2421875
1003,0.02734375,-0.984375,-0.23828125
1004,0.03125,-0.99609375,-0.25
1005,0.03125,-0.98828125,-0.23828125
1006,0.0234375,-0.99609375,-0.2421875
1007,0.01953125,-0.984375,-0.2421875
1008,0.03515625,-0.9921875,-0.2421875
1009,0.0234375,-0.984375,-0.234375
1010,0.03125,-0.97265625,-0.2421875
1011,0.02734375,-0.98828125,-0.23828125
1012,0.02734375,-0.9921875,-0.2421875
1013,0.03125,-0.96875,-0.25390625
1014,0.03125,-0.984375,-0.25
1015,0.03515625,-0.98828125,-0.2578125
1016,0.0234375,-0.98828125,-0.265625
1017,0.01953125,-0.99609375,-0.2578125
1018,0.0234375,-0.9921875,-0.25
1019,0.0234375,-0.98046875,-0.24609375
1020,0.03515625,-0.98828125,-0.2421875
1021,0.02734375,-0.98828125,-0.25390625
1022,0.02734375,-0.98828125,-0.25
1023,0.0234375,-0.984375,-0.23828125
1024,0.02734375,-0.984375,-0.2421875
1025,0.03515625,-0.98828125,-0.24609375
1026,0.0234375,-0.98828125,-0.24609375
1027,0.03125,-0.984375,-0.25390625
1028,0.0234375,-0.98828125,-0.234375
1029,0.03125,-0.99609375,-0.24609375
1030,0.01171875,-1.0,-0.2421875
1031,0.03515625,-0.99609375,-0.24609375
1032,0.03515625,-0.99609375,-0.24609375
1033,0.03125,-0.99609375,-0.25
1034,0.02734375,-1.0,-0.25
1035,0.02734375,-0.98828125,-0.24609375
1036,0.01953125,-0.984375,-0.234375
1037,0.03515625,-0.98828125,-0.2421875
1038,0.02734375,-0.98046875,-0.24609375
1039,0.03125,-0.98046875,-0.25390625
1040,0.02734375,-0.98828125,-0.25
1041,0.0234375,-0.984375,-0.265625
1042,0.015625,-0.984375,-0.2421875
1043,0.02734375,-0.9921875,-0.24609375
1044,0.01953125,-0.98046875,-0.2421875
1045,0.01953125,-0.9921875,-0.25
1046,0.01953125,-0.9921875,-0.25390625
1047,0.03125,-0.99609375,-0.24609375
1048,0.03125,-1.0,-0.2421875
1049,0.0234375,-0.9921875,-0.24609375
1050,0.015625,-0.99609375,-0.24609375
1051,0.0234375,-0.9921875,-0.2421875
1052,0.0234375,-0.99609375,-0.2421875
1053,0.0234375,-0.99609375,-0.24609375
1054,0.01953125,-0.984375,-0.25390625
1055,0.02734375,-0.98828125,-0.25
1056,0.02734375,-0.9921875,-0.25
1057,0.0234375,-0.9765625,-0.2421875
1058,0.02734375,-0.984375,-0.2578125
1059,0.015625,-0.98046875,-0.24609375
1060,0.0234375,-0.984375,-0.2421875
1061,0.0234375,-0.98828125,-0.2578125
1062,0.02734375,-0.9921875,-0.25390625
1063,0.02734375,-0.98828125,-0.24609375
1064,0.0234375,-0.9921875,-0.2578125
1065,0.03125,-0.9921875,-0.23828125
1066,0.03125,-0.99609375,-0.23828125
1067,0.02734375,-0.99609375,-0.25
1068,0.03125,-1.0,-0.23046875
1069,0.03125,-0.99609375,-0.2421875
1070,0.0390625,-1.00390625,-0.25
1071,0.0390625,-0.99609375,-0.24609375
1072,0.0390625,-1.0,-0.25
1073,0.03515625,-0.98828125,-0.265625
1074,0.03515625,-0.9921875,-0.25390625
1075,0.03515625,-0.99609375,-0.24609375
1076,0.0234375,-0.9921875,-0.25
1077,0.015625,-0.984375,-0.24609375
1078,0.0234375,-0.98828125,-0.2421875
1079,0.0234375,-0.98828125,-0.25
1080,0.01953125,-0.98828125,-0.234375
1081,0.01953125,-0.9921875,-0.24609375
1082,0.0234375,-0.98046875,-0.24609375
1083,0.01171875,-0.984375,-0.2421875
1084,0.03125,-0.984375,-0.24609375
1085,0.0234375,-0.984375,-0.24609375
1086,0.015625,-0.98046875,-0.25390625
1087,0.01953125,-0.98828125,-0.24609375
1088,0.046875,-0.9921875,-0.24609375
1089,0.0390625,-0.98828125,-0.23046875
1090,0.03125,-0.98828125,-0.25
1091,0.03125,-0.984375,-0.25390625
1092,0.0390625,-0.984375,-0.23828125
1093,0.0234375,-0.9921875,-0.23828125
1094,0.0390625,-0.99609375,-0.24609375
1095,0.0234375,-0.98046875,-0.23828125
1096,0.0234375,-0.984375,-0.25
1097,0.01953125,-0.9921875,-0.2578125
1098,0.03125,-0.98046875,-0.2421875
1099,0.015625,-0.9921875,-0.2421875
1100,0.01953125,-0.99609375,-0.25
1101,0.01171875,-0.98828125,-0.24609375
1102,0.02734375,-1.0,-0.2421875
1103,0.0234375,-0.99609375,-0.24609375
1104,0.015625,-0.98828125,-0.25
1105,0.01171875,-0.98828125,-0.25390625
1106,0.01953125,-0.98828125,-0.234375
1107,0.03125,-0.98046875,-0.25
1108,0.03125,-0.9921875,-0.24609375
1109,0.03125,-0.984375,-0.24609375
1110,0.03515625,-0.984375,-0.234375
1111,0.03515625,-0.9921875,-0.25390625
1112,0.02734375,-0.98828125,-0.25390625
1113,0.015625,-0.98046875,-0.24609375
1114,0.0390625,-0.99609375,-0.26171875
1115,0.0234375,-0.98828125,-0.24609375
1116,0.0234375,-0.98828125,-0.24609375
1117,0.01953125,-0.98046875,-0.25390625
1118,0.0234375,-0.9765625,-0.2578125
1119,0.03125,-0.984375,-0.26171875
1120,0.03125,-0.9921875,-0.27734375
1121,0.03125,-0.984375,-0.27734375
1122,0.02734375,-0.9921875,-0.25390625
1123,0.0390625,-0.98828125,-0.2578125
1124,0.03515625,-0.96875,-0.23828125
1125,0.04296875,-0.9921875,-0.25390625
1126,0.046875,-0.98828125,-0.24609375
1127,0.02734375,-0.9765625,-0.2421875
1128,0.0390625,-0.9921875,-0.24609375
1129,0.0390625,-0.99609375,-0.234375
1130,0.03125,-0.98046875,-0.23828125
1131,0.0234375,-0.984375,-0.25
1132,0.03515625,-0.98828125,-0.24609375
1133,0.015625,-1.0,-0.25
1134,0.015625,-0.98828125,-0.2421875
1135,0.01171875,-0.9921875,-0.23828125
1136,0.015625,-0.9765625,-0.23828125
1137,0.0078125,-0.98046875,-0.26171875
1138,0.0234375,-0.98828125,-0.26171875
1139,0.01953125,-0.97265625,-0.25390625
1140,0.015625,-0.9765625,-0.25
1141,0.015625,-0.9765625,-0.2578125
1142,0.015625,-0.9765625,-0.25390625
1143,0.01953125,-0.98046875,-0.26171875
1144,0.03125,-0.9765625,-0.26953125
1145,0.02734375,-0.984375,-0.25
1146,0.015625,-0.9921875,-0.25
1147,0.03125,-0.98828125,-0.25390625
1148,0.0234375,-0.98828125,-0.25
1149,0.0234375,-0.99609375,-0.25
1150,0.02734375,-0.9921875,-0.25
1151,0.03125,-0.9921875,-0.25390625
1152,0.03515625,-0.9921875,-0.2421875
1153,0.02734375,-0.98046875,-0.24609375
1154,0.02734375,-0.984375,-0.23828125
1155,0.01953125,-0.9921875,-0.25
1156,0.03125,-0.9921875,-0.25
1157,0.03125,-0.98828125,-0.25
1158,0.02734375,-0.98046875,-0.2421875
1159,0.03125,-0.99609375,-0.2578125
1160,0.03125,-0.98828125,-0.2578125
1161,0.03125,-0.98828125,-0.2578125
1162,0.015625,-0.98828125,-0.234375
1163,0.01953125,-0.98828125,-0.24609375
1164,0.03515625,-0.99609375,-0.2578125
1165,0.03125,-0.9921875,-0.25390625
1166,0.03125,-0.99609375,-0.2421875
1167,0.03515625,-0.99609375,-0.24609375
1168,0.02734375,-0.99609375,-0.24609375
1169,0.02734375,-0.99609375,-0.2578125
1170,0.015625,-0.98828125,-0.23828125
1171,0.01953125,-0.9921875,-0.23828125
1172,0.015625,-0.98046875,-0.24609375
1173,0.00390625,-0.9765625,-0.23828125
1174,0.015625,-0.98828125,-0.24609375
1175,0.015625,-0.98046875,-0.24609375
1176,0.01171875,-0.98828125,-0.24609375
1177,0.01953125,-0.984375,-0.24609375
1178,0.01953125,-0.984375,-0.25
1179,0.01953125,-0.98046875,-0.24609375
1180,0.0234375,-0.98828125,-0.23046875
1181,0.03125,-0.984375,-0.24609375
1182,0.03125,-0.98046875,-0.24609375
1183,0.03125,-0.97265625,-0.24609375
1184,0.03125,-0.9921875,-0.24609375
1185,0.0234375,-0.984375,-0.2578125
1186,0.0234375,-0.98828125,-0.2578125
1187,0.03515625,-0.98046875,-0.25390625
1188,0.0234375,-0.99609375,-0.25
1189,0.0546875,-0.984375,-0.23046875
1190,0.03125,-0.9765625,-0.2578125
1191,0.03125,-0.984375,-0.25390625
1192,0.015625,-0.9921875,-0.25390625
1193,0.01953125,-0.99609375,-0.24609375
1194,0.01953125,-0.99609375,-0.25
1195,0.0078125,-0.98046875,-0.24609375
1196,0.0078125,-0.99609375,-0.23046875
1197,0.01171875,-0.984375,-0.25
1198,0.01171875,-0.984375,-0.24609375
1199,0.015625,-0.9921875,-0.23828125
1200,0.015625,-0.9921875,-0.25
1201,0.015625,-0.98828125,-0.24609375
1202,0.015625,-0.98828125,-0.23828125
1203,0.0234375,-0.98828125,-0.2421875
1204,0.03125,-0.99609375,-0.24609375
1205,0.0234375,-0.9921875,-0.2421875
1206,0.02734375,-0.99609375,-0.23828125
1207,0.0234375,-0.9921875,-0.2421875
1208,0.02734375,-0.984375,-0.234375
1209,0.03515625,-0.98828125,-0.25
1210,0.04296875,-0.9921875,-0.24609375
1211,0.02734375,-0.98828125,-0.28125
1212,0.015625,-0.98046875,-0.24609375
1213,0.02734375,-0.97265625,-0.25390625
1214,0.03125,-0.9921875,-0.2421875
1215,0.03125,-0.99609375,-0.23828125
1216,0.04296875,-0.99609375,-0.2421875
1217,0.03125,-0.9921875,-0.23828125
1218,0.03125,-1.0,-0.234375
1219,0.02734375,-0.99609375,-0.2421875
1220,0.02734375,-1.0,-0.2421875
1221,0.015625,-0.9921875,-0.23828125
1222,0.03515625,-0.9921875,-0.25
1223,0.03125,-0.98828125,-0.23046875
1224,0.02734375,-0.9921875,-0.2265625
1225,0.015625,-0.9921875,-0.2421875
1226,0.0234375,-0.9921875,-0.23828125
1227,0.01953125,-1.0,-0.2421875
1228,0.01953125,-0.99609375,-0.24609375
1229,0.0078125,-0.98828125,-0.25
1230,0.0234375,-0.99609375,-0.24609375
1231,0.0234375,-0.9921875,-0.24609375
1232,0.01953125,-0.98828125,-0.2265625
1233,0.0234375,-0.98828125,-0.2421875
1234,0.0234375,-0.98828125,-0.2421875
1235,0.0234375,-1.0,-0.2421875
1236,0.02734375,-0.9921875,-0.234375
1237,0.01953125,-0.9921875,-0.23828125
1238,0.015625,-0.984375,-0.24609375
1239,0.01953125,-0.9921875,-0.25
1240,0.0234375,-0.98828125,-0.2421875
1241,0.0234375,-0.99609375,-0.25
1242,0.015625,-0.99609375,-0.234375
1243,0.01953125,-0.99609375,-0.25
1244,0.01953125,-0.99609375,-0.22265625
1245,0.02734375,-1.0,-0.234375
1246,0.03125,-1.0,-0.234375
1247,0.0078125,-0.9921875,-0.234375
1248,0.015625,-0.99609375,-0.2421875
1249,0.01953125,-0.99609375,-0.234375
1250,0.015625,-1.0,-0.24609375
1251,0.0234375,-0.99609375,-0.2265625
1252,0.015625,-1.00390625,-0.23046875
1253,0.01953125,-0.9921875,-0.234375
1254,0.0234375,-1.00390625,-0.2265625
1255,0.0234375,-0.99609375,-0.234375
1256,0.0234375,-0.99609375,-0.21875
1257,0.01953125,-0.9921875,-0.21875
1258,0.03515625,-1.015625,-0.22265625
1259,0.03515625,-1.0,-0.21875
1260,0.0234375,-1.00390625,-0.22265625
1261,0.0234375,-1.0,-0.20703125
1262,0.03515625,-1.01171875,-0.21875
1263,0.0234375,-1.0,-0.20703125
1264,0.0390625,-1.00390625,-0.21875
1265,0.02734375,-1.00390625,-0.21484375
1266,0.02734375,-1.00390625,-0.2265625
1267,0.015625,-1.00390625,-0.203125
1268,0.03125,-1.0078125,-0.20703125
1269,0.01171875,-1.0078125,-0.20703125
1270,0.0234375,-1.01953125,-0.20703125
1271,0.03515625,-1.02734375,-0.20703125
1272,0.03515625,-1.02734375,-0.2109375
1273,0.02734375,-1.0234375,-0.20703125
1274,0.03125,-1.03515625,-0.2109375
1275,0.0234375,-1.02734375,-0.2109375
1276,0.046875,-1.015625,-0.1796875
1277,0.015625,-1.0234375,-0.20703125
1278,0.03125,-1.01953125,-0.21484375
1279,0.0234375,-1.01953125,-0.20703125
1280,0.01171875,-1.0078125,-0.203125
1281,0.015625,-1.01171875,-0.1875
1282,0.01953125,-1.015625,-0.18359375
1283,0.00390625,-1.01953125,-0.17578125
1284,0.0078125,-1.02734375,-0.18359375
1285,0.00390625,-1.0234375,-0.171875
1286,0.0,-1.03125,-0.15625
1287,0.01171875,-1.0390625,-0.15234375
1288,0.00390625,-1.02734375,-0.1640625
1289,0.0078125,-1.0390625,-0.1640625
1290,0.0078125,-1.03125,-0.16015625
1291,0.00390625,-1.03125,-0.16015625
1292,0.01171875,-1.03125,-0.16015625
1293,0.00390625,-1.03125,-0.15234375
1294,0.01171875,-1.0234375,-0.16796875
1295,0.0078125,-1.04296875,-0.16015625
1296,0.0078125,-1.03515625,-0.1640625
1297,0.015625,-1.03125,-0.16796875
1298,0.015625,-1.046875,-0.17578125
1299,0.01953125,-1.03125,-0.15234375
1300,0.01953125,-1.0390625,-0.1484375
1301,0.01953125,-1.05078125,-0.14453125
1302,0.02734375,-1.0546875,-0.1484375
1303,0.01953125,-1.0625,-0.12890625
1304,0.02734375,-1.0546875,-0.1171875
1305,0.03515625,-1.0546875,-0.1171875
1306,0.0234375,-1.0546875,-0.12109375
1307,0.02734375,-1.05859375,-0.109375
1308,0.01953125,-1.05078125,-0.1015625
1309,0.01953125,-1.05078125,-0.12109375
1310,0.00390625,-1.05078125,-0.125
1311,0.0078125,-1.046875,-0.1171875
1312,0.01953125,-1.04296875,-0.09765625
1313,0.01171875,-1.04296875,-0.12109375
1314,0.01171875,-1.05078125,-0.10546875
1315,0.00390625,-1.02734375,-0.09375
1316,0.0078125,-1.046875,-0.109375
1317,0.01171875,-1.04296875,-0.1015625
1318,0.0234375,-1.0546875,-0.0859375
1319,0.01171875,-1.05859375,-0.11328125
1320,0.01171875,-1.06640625,-0.12109375
1321,0.00390625,-1.09375,-0.109375
1322,0.00390625,-1.12109375,-0.09765625
1323,0.015625,-1.13671875,-0.09765625
1324,0.00390625,-1.140625,-0.078125
1325,0.00390625,-1.16015625,-0.0625
1326,0.00390625,-1.15625,-0.04296875
1327,0.0,-1.1484375,-0.02734375
1328,0.0,-1.125,-0.01171875
1329,0.0,-1.10546875,-0.02734375
1330,0.0078125,-1.078125,-0.01171875
1331,0.0,-1.0390625,-0.05078125
1332,0.0,-1.0,-0.05078125
1333,-0.00390625,-0.98046875,-0.0625
1334,0.0,-0.94921875,-0.0625
1335,0.0,-0.9296875,-0.046875
1336,0.00390625,-0.9296875,-0.04296875
1337,0.0,-0.92578125,-0.046875
1338,0.00390625,-0.9296875,-0.0234375
1339,0.015625,-0.9375,-0.0234375
1340,0.02734375,-0.90625,-0.01953125
1341,0.015625,-0.9609375,0.00390625
1342,0.0078125,-0.9609375,0.01953125
1343,0.01953125,-0.984375,0.0390625
1344,0.01953125,-0.98828125,0.03515625
1345,0.0234375,-0.984375,0.0390625
1346,0.02734375,-0.9921875,0.05078125
1347,0.03125,-1.015625,0.0390625
1348,0.04296875,-1.0078125,0.03515625
1349,0.0390625,-1.015625,0.04296875
1350,0.03125,-1.01171875,0.015625
1351,0.04296875,-1.0234375,0.015625
1352,0.0390625,-1.01953125,0.01171875
1353,0.05078125,-1.02734375,0.02734375
1354,0.04296875,-1.04296875,0.02734375
1355,0.03515625,-1.03515625,0.02734375
1356,0.03515625,-1.04296875,0.03515625
1357,0.02734375,-1.03125,0.0390625
1358,0.03125,-1.04296875,0.0546875
1359,0.0234375,-1.03515625,0.0546875
1360,0.01171875,-1.03515625,0.0703125
1361,0.0,-1.03515625,0.078125
1362,0.0078125,-1.015625,0.08203125
1363,0.0,-1.01171875,0.09765625
1364,0.0,-1.0078125,0.0859375
1365,0.0,-0.99609375,0.08984375
1366,-0.0078125,-0.9921875,0.09375
1367,-0.015625,-0.98046875,0.09375
1368,-0.03515625,-0.98046875,0.08203125
1369,-0.01953125,-0.9765625,0.07421875
1370,-0.03125,-0.984375,0.0703125
1371,-0.03125,-0.984375,0.07421875
1372,-0.03125,-1.0,0.0703125
1373,-0.0234375,-0.98828125,0.0625
1374,-0.0234375,-1.00390625,0.07421875
1375,0.0,-1.02734375,0.07421875
1376,0.0,-1.03125,0.0859375
1377,0.00390625,-1.046875,0.125
1378,0.01953125,-1.05078125,0.1171875
1379,0.015625,-1.0625,0.13671875
1380,0.02734375,-1.0390625,0.15234375
1381,0.0390625,-1.03125,0.15234375
1382,0.03515625,-1.03125,0.1640625
1383,0.046875,-1.015625,0.1640625
1384,0.05078125,-1.0078125,0.171875
1385,0.05859375,-1.00390625,0.16796875
1386,0.046875,-0.9921875,0.16796875
1387,0.03125,-0.99609375,0.1484375
1388,0.0390625,-1.0,0.15625
1389,0.02734375,-1.00390625,0.16796875
1390,0.01171875,-1.00390625,0.15625
1391,0.01953125,-1.015625,0.1484375
1392,0.01171875,-1.03125,0.140625
1393,0.0,-1.02734375,0.140625
1394,-0.00390625,-1.046875,0.140625
1395,-0.00390625,-1.04296875,0.140625
1396,-0.00390625,-1.0546875,0.14453125
1397,-0.015625,-1.06640625,0.14453125
1398,-0.0234375,-1.06640625,0.13671875
1399,-0.03515625,-1.05078125,0.140625
1400,-0.03125,-1.0703125,0.1640625
1401,-0.04296875,-1.0625,0.15234375
1402,-0.05078125,-1.0546875,0.14453125
1403,-0.0390625,-1.05078125,0.16796875
1404,-0.0390625,-1.03125,0.171875
1405,-0.0234375,-1.04296875,0.1484375
1406,-0.046875,-1.0,0.1796875
1407,-0.03515625,-1.01171875,0.15234375
1408,-0.03125,-0.99609375,0.16796875
1409,-0.01953125,-0.99609375,0.16796875
1410,-0.01171875,-0.99609375,0.171875
1411,-0.00390625,-0.99609375,0.16015625
1412,0.00390625,-1.0,0.171875
1413,0.00390625,-1.00390625,0.1640625
1414,0.0078125,-1.0078125,0.171875
1415,0.015625,-1.015625,0.1796875
1416,0.03125,-1.015625,0.17578125
1417,0.0234375,-1.01953125,0.17578125
1418,0.01953125,-1.01171875,0.16015625
1419,0.02734375,-1.01171875,0.16015625
1420,0.01953125,-1.01171875,0.16015625
1421,0.03125,-1.0078125,0.17578125
1422,0.03125,-1.0,0.1484375
1423,0.03515625,-1.0,0.16796875
1424,0.02734375,-0.99609375,0.1796875
1425,0.03125,-1.0,0.1875
1426,0.02734375,-0.9921875,0.17578125
1427,0.03515625,-0.9921875,0.203125
1428,0.03515625,-0.98828125,0.19921875
1429,0.03515625,-1.0,0.1953125
1430,0.0234375,-0.9921875,0.19921875
1431,0.0234375,-1.00390625,0.20703125
1432,0.01953125,-1.01171875,0.2109375
1433,0.015625,-1.01171875,0.19921875
1434,0.02734375,-1.03515625,0.18359375
1435,0.03125,-1.03515625,0.17578125
1436,0.03125,-1.03125,0.171875
1437,0.02734375,-1.02734375,0.15625
1438,0.01953125,-1.02734375,0.15625
1439,0.01953125,-1.01171875,0.1640625
1440,0.03125,-1.0078125,0.16796875
1441,0.015625,-1.01171875,0.17578125
1442,0.01171875,-1.0234375,0.19140625
1443,0.01953125,-1.015625,0.1875
1444,0.0078125,-1.0078125,0.21875
1445,0.00390625,-1.00390625,0.21484375
1446,0.00390625,-1.0078125,0.22265625
1447,0.0,-1.0078125,0.2265625
1448,0.0,-1.0078125,0.2265625
1449,0.0,-1.00390625,0.23828125
1450,0.0,-1.00390625,0.21875
1451,0.0,-1.0078125,0.21875
1452,0.01171875,-1.01171875,0.1953125
1453,0.00390625,-1.015625,0.1875
1454,0.0,-1.015625,0.19921875
1455,0.0,-1.01953125,0.1796875
1456,-0.015625,-1.01171875,0.16796875
1457,-0.0078125,-1.01953125,0.16015625
1458,-0.01953125,-1.01953125,0.1484375
1459,0.0,-1.02734375,0.16015625
1460,-0.0078125,-1.01953125,0.17578125
1461,-0.015625,-1.015625,0.19140625
1462,0.0,-1.0078125,0.1953125
1463,-0.015625,-0.99609375,0.19921875
1464,0.0,-0.9921875,0.20703125
1465,0.0,-1.0,0.20703125
1466,-0.0078125,-0.9921875,0.21875
1467,-0.01953125,-0.98828125,0.2265625
1468,0.0,-1.0,0.234375
1469,-0.0078125,-1.0078125,0.21875
1470,-0.01171875,-1.0,0.20703125
1471,-0.015625,-1.0234375,0.2109375
1472,-0.015625,-1.015625,0.21875
1473,-0.02734375,-1.0234375,0.20703125
1474,-0.01953125,-1.03515625,0.1875
1475,-0.02734375,-1.02734375,0.19921875
1476,-0.01953125,-1.03125,0.16015625
1477,-0.00390625,-1.03515625,0.16796875
1478,-0.0078125,-1.03125,0.15234375
1479,0.0,-1.01953125,0.15234375
1480,-0.00390625,-1.01953125,0.15234375
1481,0.0,-1.01953125,0.16015625
1482,-0.01171875,-1.01953125,0.1953125
1483,-0.0078125,-1.0078125,0.18359375
1484,-0.01171875,-1.00390625,0.21875
1485,-0.015625,-1.00390625,0.21484375
1486,-0.01953125,-1.01171875,0.23046875
1487,-0.0078125,-1.00390625,0.21484375
1488,-0.00390625,-1.0078125,0.22265625
1489,-0.01171875,-1.0078125,0.21484375
1490,-0.01171875,-1.00390625,0.21484375
1491,-0.01953125,-1.0078125,0.2109375
1492,-0.0234375,-1.01171875,0.1953125
1493,-0.01953125,-1.01171875,0.1875
1494,-0.03125,-1.01171875,0.17578125
1495,-0.01953125,-1.01171875,0.171875
1496,-0.0234375,-1.01171875,0.16796875
1497,-0.01171875,-1.02734375,0.16015625
1498,0.0,-1.02734375,0.15234375
1499,0.00390625,-1.03515625,0.1640625
1500,0.0,-1.0390625,0.16015625
1501,0.0,-1.04296875,0.15625
1502,0.0,-1.04296875,0.18359375
1503,0.01171875,-1.02734375,0.171875
1504,0.0,-1.02734375,0.1875
1505,0.01171875,-1.01171875,0.17578125
1506,0.0078125,-1.00390625,0.1640625
1507,0.00390625,-1.0,0.15625
1508,0.00390625,-0.99609375,0.17578125
1509,0.00390625,-0.98828125,0.16015625
1510,0.0,-0.96484375,0.15625
1511,-0.01171875,-0.9609375,0.16796875
1512,-0.00390625,-0.96484375,0.1484375
1513,0.0,-0.98828125,0.15625
1514,-0.01171875,-0.99609375,0.14453125
1515,-0.0078125,-1.0,0.15625
1516,0.0,-1.0078125,0.14453125
1517,0.0078125,-1.0234375,0.15234375
1518,0.00390625,-1.02734375,0.140625
1519,0.00390625,-1.02734375,0.14453125
1520,0.01171875,-1.04296875,0.140625
1521,0.01953125,-1.03515625,0.14453125
1522,0.01171875,-1.03515625,0.14453125
1523,0.01953125,-1.03125,0.1484375
1524,0.01171875,-1.03125,0.1484375
1525,0.0234375,-1.0234375,0.13671875
1526,0.015625,-1.03125,0.14453125
1527,0.0078125,-1.02734375,0.12890625
1528,0.0078125,-1.03515625,0.140625
1529,0.0078125,-1.03515625,0.14453125
1530,0.0,-1.0390625,0.13671875
1531,0.0,-1.0390625,0.15234375
1532,0.00390625,-1.0390625,0.15234375
1533,-0.00390625,-1.0546875,0.16015625
1534,0.0,-1.05859375,0.13671875
1535,-0.0078125,-1.05859375,0.12890625
1536,-0.00390625,-1.06640625,0.140625
1537,-0.01171875,-1.06640625,0.1328125
1538,-0.00390625,-1.0625,0.1328125
1539,-0.015625,-1.05859375,0.125
1540,-0.01171875,-1.05078125,0.12890625
1541,-0.01171875,-1.05078125,0.12109375
1542,-0.0078125,-1.046875,0.11328125
1543,-0.0078125,-1.046875,0.11328125
1544,-0.01171875,-1.046875,0.109375
1545,-0.0078125,-1.04296875,0.1171875
1546,-0.015625,-1.046875,0.13671875
1547,0.0,-1.046875,0.13671875
1548,-0.015625,-1.046875,0.12890625
1549,0.00390625,-1.0390625,0.12890625
1550,0.0,-1.03515625,0.1328125
1551,0.015625,-1.04296875,0.12890625
1552,0.015625,-1.04296875,0.125
1553,0.02734375,-1.0546875,0.13671875
1554,0.05078125,-1.06640625,0.1328125
1555,0.03515625,-1.0625,0.12890625
1556,0.02734375,-1.06640625,0.12890625
1557,0.015625,-1.0625,0.125
1558,0.0078125,-1.06640625,0.12890625
1559,0.0,-1.05078125,0.140625
1560,0.00390625,-1.04296875,0.12890625
1561,-0.00390625,-1.05078125,0.1484375
1562,0.0,-1.03125,0.1328125
1563,-0.0078125,-1.02734375,0.13671875
1564,-0.03515625,-1.01953125,0.12890625
1565,-0.02734375,-1.03515625,0.140625
1566,-0.0390625,-1.02734375,0.1640625
1567,-0.03515625,-1.0234375,0.15625
1568,-0.0234375,-1.02734375,0.15625
1569,-0.03125,-1.02734375,0.15625
1570,-0.015625,-1.0234375,0.15625
1571,-0.00390625,-1.02734375,0.1484375
1572,-0.00390625,-1.02734375,0.15234375
1573,0.0,-1.01953125,0.12890625
1574,0.0,-1.04296875,0.15234375
1575,0.0,-1.03125,0.16015625
1576,-0.01171875,-1.03515625,0.1640625
1577,0.0,-1.03515625,0.14453125
1578,-0.01171875,-1.03125,0.1484375
1579,0.00390625,-1.0390625,0.16015625
1580,0.01171875,-1.03515625,0.13671875
1581,0.00390625,-1.0234375,0.140625
1582,0.0,-1.015625,0.1484375
1583,0.0,-1.0390625,0.140625
1584,0.01171875,-1.02734375,0.15625
1585,0.0,-1.02734375,0.14453125
1586,0.00390625,-1.015625,0.1328125
1587,0.00390625,-1.02734375,0.14453125
1588,0.0078125,-1.02734375,0.1328125
1589,0.0078125,-1.0390625,0.14453125
1590,0.00390625,-1.04296875,0.1484375
1591,0.0,-1.046875,0.140625
1592,0.0,-1.0390625,0.1328125
1593,-0.01171875,-1.02734375,0.15625
1594,-0.00390625,-1.03125,0.1328125
1595,-0.00390625,-1.0234375,0.14453125
1596,-0.0234375,-1.02734375,0.15234375
1597,-0.01953125,-1.0234375,0.17578125
1598,-0.0234375,-1.01171875,0.15625
1599,-0.0234375,-1.01171875,0.171875
1600,-0.02734375,-1.015625,0.171875
1601,-0.00390625,-1.0234375,0.1640625
1602,-0.0078125,-1.02734375,0.15625
1603,-0.01171875,-1.02734375,0.16015625
1604,-0.01953125,-1.03515625,0.15625
1605,-0.0078125,-1.04296875,0.15234375
1606,0.0,-1.0390625,0.16015625
1607,0.00390625,-1.03515625,0.16015625
1608,0.00390625,-1.04296875,0.1640625
1609,-0.00390625,-1.03125,0.15625
1610,-0.00390625,-1.04296875,0.16015625
1611,-0.0078125,-1.03515625,0.1640625
1612,0.0,-1.03125,0.15625
1613,0.00390625,-1.03515625,0.1640625
1614,0.0,-1.03125,0.1484375
1615,-0.015625,-1.015625,0.18359375
1616,0.00390625,-1.01953125,0.1640625
1617,-0.00390625,-1.0234375,0.171875
1618,0.015625,-1.00390625,0.18359375
1619,0.0,-1.0078125,0.16796875
1620,-0.00390625,-1.015625,0.18359375
1621,-0.0078125,-1.01171875,0.171875
1622,0.0,-1.015625,0.171875
1623,0.00390625,-1.02734375,0.1796875
1624,0.0,-1.01953125,0.15625
1625,0.0,-1.0234375,0.16796875
1626,0.0078125,-1.01953125,0.171875
1627,0.0078125,-1.0234375,0.1875
1628,0.00390625,-1.03515625,0.16796875
1629,0.0,-1.01953125,0.17578125
1630,0.0,-1.03515625,0.18359375
1631,0.0078125,-1.03515625,0.18359375
1632,0.0,-1.01953125,0.19921875
1633,0.00390625,-1.02734375,0.1953125
1634,0.0,-1.02734375,0.19140625
1635,0.00390625,-1.02734375,0.1953125
1636,-0.00390625,-1.015625,0.171875
1637,0.0,-1.02734375,0.18359375
1638,0.01171875,-1.01953125,0.19140625
1639,0.00390625,-1.01171875,0.1953125
1640,0.01171875,-1.01953125,0.19921875
1641,0.0078125,-1.01171875,0.1875
1642,0.015625,-1.0234375,0.1875
1643,0.015625,-1.02734375,0.18359375
1644,0.0078125,-1.0234375,0.1875
1645,0.0078125,-1.03125,0.1953125
1646,0.00390625,-1.01953125,0.19921875
1647,0.00390625,-1.02734375,0.19921875
1648,0.00390625,-1.015625,0.19140625
1649,0.0,-1.0078125,0.19140625
1650,0.0,-1.0078125,0.20703125
1651,0.0078125,-1.015625,0.203125
1652,0.00390625,-1.015625,0.2109375
1653,0.00390625,-1.01171875,0.21875
1654,0.0,-1.01171875,0.2265625
1655,0.00390625,-1.01953125,0.2109375
1656,0.00390625,-1.01171875,0.203125
1657,0.0,-1.015625,0.2109375
1658,0.0,-1.0078125,0.203125
1659,-0.00390625,-1.0078125,0.2265625
1660,-0.0078125,-1.01953125,0.23828125
1661,-0.0078125,-1.01171875,0.20703125
1662,0.0,-1.0234375,0.203125
1663,0.0,-1.02734375,0.20703125
1664,0.0,-1.0234375,0.2109375
1665,-0.0078125,-1.01953125,0.1953125
1666,0.0,-1.01953125,0.203125
1667,-0.01171875,-1.01953125,0.19140625
1668,0.0,-1.03125,0.2109375
1669,0.0,-1.015625,0.203125
1670,0.00390625,-1.03515625,0.1796875
1671,0.0,-1.01953125,0.19140625
1672,-0.0078125,-1.0234375,0.1953125
1673,-0.0078125,-1.01953125,0.19921875
1674,-0.02734375,-1.0234375,0.19140625
1675,-0.0078125,-1.015625,0.18359375
1676,-0.00390625,-1.03125,0.19921875
1677,-0.015625,-1.01953125,0.19140625
1678,0.0,-1.03515625,0.18359375
1679,0.0,-1.0234375,0.1875
1680,-0.01953125,-1.03125,0.20703125
1681,0.0,-1.03125,0.19921875
1682,0.00390625,-1.01953125,0.19140625
1683,-0.015625,-1.02734375,0.2109375
1684,-0.00390625,-1.0390625,0.20703125
1685,-0.0078125,-1.0390625,0.2109375
1686,-0.01171875,-1.02734375,0.1953125
1687,-0.01953125,-1.02734375,0.19140625
1688,-0.01953125,-1.01953125,0.20703125
1689,-0.0078125,-1.01953125,0.1953125
1690,0.0,-1.01171875,0.19140625
1691,-0.0078125,-1.0078125,0.1953125
1692,0.015625,-1.01953125,0.1875
1693,0.0,-1.0,0.203125
1694,0.0,-0.9921875,0.19140625
1695,0.00390625,-1.0078125,0.2109375
1696,0.0,-1.00390625,0.20703125
1697,-0.00390625,-0.99609375,0.2109375
1698,0.0,-1.00390625,0.21875
1699,-0.00390625,-0.99609375,0.203125
1700,0.0,-0.98046875,0.22265625
1701,0.00390625,-0.98046875,0.203125
1702,0.00390625,-0.99609375,0.203125
1703,0.0,-0.98828125,0.19140625
1704,-0.0078125,-1.0078125,0.19140625
1705,0.0,-0.99609375,0.22265625
1706,0.0078125,-1.0078125,0.21484375
1707,0.00390625,-1.015625,0.21484375
1708,0.0,-1.0234375,0.21875
1709,0.0,-1.03515625,0.22265625
1710,0.0,-1.04296875,0.20703125
1711,-0.00390625,-1.04296875,0.23046875
1712,-0.0078125,-1.02734375,0.20703125
1713,-0.0078125,-1.04296875,0.20703125
1714,0.0,-1.01953125,0.20703125
1715,-0.00390625,-1.015625,0.21484375
1716,0.0,-1.015625,0.20703125
1717,-0.00390625,-1.0078125,0.203125
1718,-0.00390625,-1.0078125,0.20703125
1719,-0.00390625,-1.01953125,0.20703125
1720,0.0,-1.0234375,0.203125
1721,0.0,-1.015625,0.19921875
1722,0.0,-1.02734375,0.203125
1723,0.0,-1.04296875,0.21484375
1724,0.00390625,-1.04296875,0.21484375
1725,0.0,-1.0546875,0.19921875
1726,0.0,-1.03125,0.21875
1727,-0.01171875,-1.02734375,0.22265625
1728,0.0,-1.03515625,0.203125
1729,-0.015625,-1.03515625,0.21484375
1730,0.0,-1.03515625,0.19921875
1731,-0.01171875,-1.03125,0.20703125
1732,-0.0078125,-1.0234375,0.21484375
1733,0.0,-1.03125,0.21484375
1734,0.0,-1.02734375,0.2109375
1735,0.0,-1.02734375,0.22265625
1736,0.0,-1.02734375,0.2265625
1737,0.00390625,-1.03515625,0.19921875
1738,0.00390625,-1.03515625,0.2265625
1739,0.0,-1.01171875,0.21875
1740,0.0,-1.01171875,0.2109375
1741,0.0,-1.01953125,0.2109375
1742,0.0,-1.02734375,0.2109375
1743,0.0078125,-1.01953125,0.21484375
1744,0.0,-1.0234375,0.20703125
1745,0.0,-1.0234375,0.203125
1746,0.0,-1.01171875,0.22265625
1747,0.0,-1.01953125,0.203125
1748,0.0,-1.0078125,0.203125
1749,0.0,-1.01171875,0.20703125
1750,0.0,-1.00390625,0.2109375
1751,0.0,-1.0078125,0.21875
1752,0.00390625,-1.01953125,0.2109375
1753,-0.00390625,-1.0,0.2109375
1754,0.00390625,-1.00390625,0.21484375
1755,0.0,-1.01171875,0.21875
1756,-0.01171875,-1.0,0.21484375
1757,0.0,-1.0078125,0.21484375
1758,0.0,-1.0078125,0.203125
1759,-0.00390625,-1.00390625,0.21875
1760,-0.00390625,-1.01171875,0.22265625
1761,-0.0078125,-1.01171875,0.21875
1762,-0.01953125,-1.0,0.203125
1763,-0.0078125,-1.015625,0.2109375
1764,-0.0078125,-1.0078125,0.21875
1765,-0.01171875,-1.0078125,0.2109375
1766,-0.01171875,-1.01171875,0.20703125
1767,-0.01171875,-1.00390625,0.21875
1768,-0.0234375,-1.01953125,0.21875
1769,-0.00390625,-1.0234375,0.1953125
1770,-0.01171875,-1.0078125,0.2109375
1771,-0.015625,-1.01953125,0.20703125
1772,-0.01171875,-1.0234375,0.22265625
1773,-0.01171875,-1.01953125,0.203125
1774,-0.00390625,-1.015625,0.19921875
1775,-0.01171875,-1.01953125,0.19921875
1776,-0.0078125,-1.03125,0.20703125
1777,-0.0078125,-1.0234375,0.21484375
1778,-0.00390625,-1.03125,0.20703125
1779,-0.01171875,-1.02734375,0.1953125
1780,-0.00390625,-1.01953125,0.20703125
1781,-0.00390625,-1.0234375,0.18359375
1782,-0.01171875,-1.03125,0.21484375
1783,-0.01171875,-1.015625,0.18359375
1784,0.0,-1.0234375,0.203125
1785,0.0,-1.02734375,0.2109375
1786,0.00390625,-1.03125,0.2109375
1787,-0.0078125,-1.03125,0.2109375
1788,-0.015625,-1.01953125,0.21484375
1789,-0.00390625,-1.0390625,0.1953125
1790,-0.01953125,-1.0234375,0.1953125
1791,-0.015625,-1.03515625,0.19140625
1792,-0.0078125,-1.01953125,0.203125
1793,-0.01171875,-1.0234375,0.20703125
1794,-0.015625,-1.015625,0.203125
1795,-0.015625,-1.03125,0.20703125
1796,-0.00390625,-1.0390625,0.20703125
1797,0.0,-1.01953125,0.19921875
1798,-0.01171875,-1.02734375,0.1953125
1799,-0.00390625,-1.01953125,0.20703125
1800,-0.0078125,-1.01953125,0.203125
1801,0.0,-1.01953125,0.2109375
1802,0.0,-1.02734375,0.203125
1803,0.0,-1.01953125,0.203125
1804,-0.0078125,-1.01171875,0.19140625
1805,-0.00390625,-1.015625,0.21484375
1806,0.0,-1.02734375,0.21875
1807,-0.00390625,-1.015625,0.21484375
1808,0.0,-1.015625,0.2109375
1809,0.0,-1.01171875,0.203125
1810,0.00390625,-1.01953125,0.2265625
1811,0.0,-1.0078125,0.2109375
1812,-0.015625,-1.015625,0.2109375
1813,-0.0078125,-1.01953125,0.2109375
1814,0.0,-1.015625,0.19921875
1815,0.0,-1.015625,0.19921875
1816,0.0,-1.015625,0.2109375
1817,-0.00390625,-1.015625,0.203125
1818,-0.00390625,-1.0078125,0.2109375
1819,0.0078125,-1.015625,0.21484375
1820,0.00390625,-1.0078125,0.19921875
1821,-0.0078125,-1.01171875,0.1953125
1822,0.00390625,-1.01953125,0.203125
1823,0.00390625,-1.01171875,0.2109375
1824,0.0,-1.01953125,0.20703125
1825,0.00390625,-1.015625,0.20703125
1826,0.0,-1.01953125,0.1953125
1827,0.01171875,-1.03125,0.2109375
1828,0.0,-1.0078125,0.19140625
1829,0.00390625,-1.0234375,0.20703125
1830,-0.0078125,-1.01953125,0.21484375
1831,-0.00390625,-1.01953125,0.19921875
1832,-0.00390625,-1.01953125,0.2109375
1833,0.0,-1.03515625,0.20703125
1834,0.0,-1.02734375,0.19921875
1835,0.0,-1.01953125,0.21484375
1836,-0.00390625,-1.0234375,0.19921875
1837,0.0,-1.02734375,0.20703125
1838,0.0,-1.02734375,0.18359375
1839,0.0,-1.02734375,0.1953125
1840,0.0,-1.0390625,0.1953125
1841,0.0,-1.01953125,0.20703125
1842,0.00390625,-1.03515625,0.2109375
1843,0.0,-1.01953125,0.19140625
1844,0.0,-1.01953125,0.19921875
1845,-0.01171875,-1.015625,0.203125
1846,0.0,-1.01953125,0.19921875
1847,0.0,-1.015625,0.1953125
1848,0.0,-1.015625,0.2109375
1849,-0.00390625,-1.03125,0.1953125
1850,-0.015625,-1.01171875,0.2109375
1851,-0.00390625,-1.01171875,0.20703125
1852,0.0,-1.01953125,0.20703125
1853,0.0,-1.03515625,0.2109375
1854,0.0,-1.01953125,0.1875
1855,-0.00390625,-1.0234375,0.21875
1856,-0.0078125,-1.0234375,0.19921875
1857,0.0,-1.0234375,0.20703125
1858,-0.0078125,-1.0078125,0.203125
1859,0.0,-1.02734375,0.20703125
1860,0.0,-1.0234375,0.203125
1861,0.0,-1.0234375,0.203125
1862,0.0,-1.00390625,0.19140625
1863,0.0,-1.01953125,0.20703125
1864,0.0,-1.0234375,0.2109375
1865,0.0,-1.01953125,0.1953125
1866,-0.0078125,-1.01953125,0.19921875
1867,0.0,-1.01171875,0.2109375
1868,0.0,-1.02734375,0.1875
1869,0.0,-1.02734375,0.203125
1870,-0.00390625,-1.02734375,0.203125
1871,-0.00390625,-1.02734375,0.21484375
1872,0.0,-1.0078125,0.20703125
1873,0.0,-1.01171875,0.203125
1874,0.00390625,-0.9921875,0.22265625
1875,-0.00390625,-1.0234375,0.1953125
1876,-0.015625,-1.0078125,0.203125
1877,-0.01171875,-1.015625,0.20703125
1878,0.0,-1.0234375,0.1796875
1879,-0.0078125,-1.01953125,0.1953125
1880,-0.00390625,-1.01953125,0.19921875
1881,-0.00390625,-1.015625,0.21484375
1882,-0.01171875,-1.01953125,0.203125
1883,-0.00390625,-1.0234375,0.1953125
1884,0.0,-1.0234375,0.19140625
1885,-0.01171875,-1.015625,0.19921875
1886,-0.015625,-1.01171875,0.21484375
1887,-0.01171875,-1.02734375,0.1875
1888,-0.0234375,-1.01171875,0.203125
1889,-0.01171875,-1.01953125,0.203125
1890,-0.01171875,-1.015625,0.203125
1891,-0.00390625,-1.01953125,0.19921875
1892,0.0,-1.01953125,0.19140625
1893,-0.0078125,-1.0234375,0.20703125
1894,-0.01171875,-1.01953125,0.20703125
1895,0.0,-1.02734375,0.1953125
1896,-0.0078125,-1.04296875,0.1953125
1897,-0.0078125,-1.01953125,0.19140625
1898,0.0,-1.0234375,0.1953125
1899,0.0,-1.015625,0.1953125
1900,-0.0078125,-1.015625,0.19921875
1901,0.0,-1.01953125,0.1875
1902,0.0,-1.03515625,0.1953125
1903,-0.01953125,-1.0234375,0.203125
1904,0.0,-1.02734375,0.19140625
1905,0.0,-1.015625,0.1953125
1906,0.0,-1.02734375,0.19140625
1907,0.0,-1.02734375,0.1796875
1908,-0.0078125,-1.0234375,0.19140625
1909,-0.0078125,-1.03515625,0.19921875
1910,0.0,-1.0234375,0.19140625
1911,-0.0234375,-1.01953125,0.1953125
1912,-0.015625,-1.01171875,0.1875
1913,0.0,-1.01953125,0.17578125
1914,-0.0078125,-1.03125,0.1953125
1915,-0.0078125,-1.01953125,0.203125
1916,0.0,-1.01953125,0.18359375
1917,-0.01171875,-1.01953125,0.1953125
1918,-0.00390625,-1.0234375,0.203125
1919,-0.01171875,-1.01953125,0.1953125
1920,0.0,-1.0234375,0.21484375
1921,0.0,-1.01953125,0.203125
1922,-0.00390625,-1.02734375,0.22265625
1923,0.0,-1.03125,0.203125
1924,-0.01171875,-1.0234375,0.20703125
1925,-0.02734375,-1.0078125,0.1953125
1926,-0.00390625,-1.015625,0.1953125
1927,-0.01171875,-1.01953125,0.203125
1928,-0.0234375,-1.01171875,0.20703125
1929,-0.01171875,-1.015625,0.1953125
1930,-0.01171875,-1.02734375,0.1953125
1931,-0.00390625,-1.0234375,0.203125
1932,-0.00390625,-1.0234375,0.19140625
1933,-0.015625,-1.01953125,0.1875
1934,-0.01171875,-1.01953125,0.19921875
1935,-0.00390625,-1.01953125,0.19921875
1936,0.0,-1.0234375,0.1953125
1937,-0.01171875,-1.01953125,0.203125
1938,-0.0078125,-1.04296875,0.1875
1939,-0.015625,-1.01953125,0.19140625
1940,0.0,-1.02734375,0.19140625
1941,-0.0078125,-1.0234375,0.1875
1942,0.0,-1.01953125,0.1953125
1943,-0.0078125,-1.02734375,0.1953125
1944,0.0,-1.02734375,0.20703125
1945,0.0,-1.03125,0.18359375
1946,-0.01171875,-1.01953125,0.20703125
1947,-0.00390625,-1.0234375,0.19921875
1948,-0.0078125,-1.015625,0.1953125
1949,0.0,-1.02734375,0.19921875
1950,0.0,-1.0234375,0.1953125
1951,0.0,-1.0234375,0.1953125
1952,0.0,-1.01171875,0.1875
1953,0.0,-1.01171875,0.203125
1954,-0.00390625,-1.01953125,0.1953125
1955,0.0,-1.0234375,0.20703125
1956,-0.0234375,-1.015625,0.203125
1957,-0.015625,-1.01953125,0.1953125
1958,-0.0078125,-1.015625,0.1953125
1959,0.00390625,-1.02734375,0.21484375
1960,-0.0078125,-1.01953125,0.21875
1961,-0.0078125,-1.0234375,0.19140625
1962,-0.00390625,-1.02734375,0.1875
1963,0.00390625,-1.015625,0.19140625
1964,-0.00390625,-1.01953125,0.19140625
1965,-0.01171875,-1.01953125,0.1875
1966,-0.00390625,-1.02734375,0.19140625
1967,-0.01171875,-1.01953125,0.1953125
1968,-0.01171875,-1.03515625,0.16796875
1969,-0.00390625,-1.0234375,0.203125
1970,0.0,-1.01953125,0.203125
1971,-0.00390625,-1.0234375,0.19921875
1972,-0.0078125,-1.0234375,0.203125
1973,0.0,-1.01953125,0.1953125
1974,0.0,-1.02734375,0.1953125
1975,-0.0078125,-1.01171875,0.19140625
1976,0.0,-1.01953125,0.19921875
1977,0.0,-1.03125,0.1953125
1978,0.0,-1.0234375,0.1953125
1979,0.0,-1.01171875,0.18359375
1980,0.0,-1.0234375,0.18359375
1981,0.0,-1.01171875,0.19140625
1982,0.0,-1.01953125,0.1796875
1983,0.00390625,-1.02734375,0.19140625
1984,0.0,-1.01953125,0.1875
1985,0.00390625,-1.0234375,0.1953125
1986,0.0,-1.0234375,0.1875
1987,-0.0078125,-1.01953125,0.1875
1988,0.0,-1.01953125,0.19921875
1989,-0.00390625,-1.02734375,0.1953125
1990,0.0,-1.01953125,0.1953125
1991,0.0,-1.0234375,0.18359375
1992,0.0,-1.0078125,0.203125
1993,0.0,-1.01171875,0.19921875
1994,0.0,-1.0234375,0.1953125
1995,-0.0078125,-1.01171875,0.19921875
1996,0.0,-1.0234375,0.18359375
1997,0.0,-1.0234375,0.19140625
1998,0.0,-1.0234375,0.1953125
1999,0.0,-1.015625,0.19140625
2000,0.0,-1.02734375,0.1953125
2001,-0.00390625,-1.0234375,0.2109375
2002,-0.0078125,-1.015625,0.19921875
2003,0.0,-1.015625,0.203125
2004,0.0,-1.0234375,0.1953125
2005,-0.00390625,-1.02734375,0.19921875
2006,0.00390625,-1.03125,0.203125
2007,0.0,-1.0234375,0.20703125
2008,-0.01953125,-1.0234375,0.19921875
2009,-0.0078125,-1.015625,0.1796875
2010,-0.0078125,-1.0234375,0.1796875
2011,0.0,-1.01953125,0.19140625
2012,0.0,-1.03125,0.1875
2013,-0.0078125,-1.0234375,0.1953125
2014,0.0,-1.03125,0.203125
2015,-0.0078125,-1.02734375,0.18359375
2016,0.0,-1.01953125,0.20703125
2017,0.0,-1.02734375,0.18359375
2018,0.0,-1.015625,0.1953125
2019,0.0,-1.015625,0.19140625
2020,-0.00390625,-1.0078125,0.1953125
2021,-0.015625,-1.0078125,0.19140625
2022,0.0,-1.0234375,0.1875
2023,-0.0078125,-1.015625,0.18359375
2024,0.0,-1.01953125,0.20703125
2025,-0.0078125,-1.02734375,0.19921875
2026,0.0,-1.02734375,0.18359375
2027,0.0,-1.015625,0.1796875
2028,0.0,-1.03515625,0.20703125
2029,0.0,-1.01953125,0.18359375
2030,-0.00390625,-1.015625,0.1953125
2031,-0.00390625,-1.01953125,0.1875
2032,0.0,-1.01171875,0.19140625
2033,0.0,-1.01953125,0.19140625
2034,0.0,-1.01953125,0.19140625
2035,0.0,-1.01171875,0.19140625
2036,0.0,-1.01953125,0.19140625
2037,-0.00390625,-1.01953125,0.20703125
2038,0.0,-1.01953125,0.1953125
2039,-0.00390625,-1.01171875,0.19140625
2040,-0.0078125,-1.01171875,0.18359375
2041,0.0,-1.0234375,0.20703125
2042,-0.01171875,-1.01171875,0.19140625
2043,0.0,-1.01953125,0.1953125
2044,-0.00390625,-1.015625,0.17578125
2045,0.01171875,-1.02734375,0.19921875
2046,-0.015625,-1.01953125,0.1953125
2047,0.0,-1.015625,0.19921875
2048,-0.01171875,-1.01953125,0.1953125
2049,-0.00390625,-1.02734375,0.1953125
2050,0.0,-1.0234375,0.203125
2051,-0.00390625,-1.01953125,0.19921875
2052,0.0,-1.03125,0.1875
2053,0.0,-1.03125,0.171875
2054,0.0,-1.02734375,0.18359375
2055,-0.00390625,-1.01953125,0.18359375
2056,0.0,-1.0234375,0.19140625
2057,0.0,-1.0234375,0.18359375
2058,-0.015625,-1.01171875,0.19921875
2059,0.0,-1.01171875,0.19140625
2060,-0.00390625,-1.01953125,0.19140625
2061,-0.00390625,-1.03125,0.1953125
2062,0.0,-1.01953125,0.1953125
2063,-0.0078125,-1.02734375,0.1953125
2064,-0.015625,-1.03125,0.1875
2065,-0.0078125,-1.015625,0.21484375
2066,0.0,-1.02734375,0.1875
2067,-0.01171875,-1.01953125,0.1953125
2068,-0.015625,-1.0234375,0.1875
2069,0.0,-1.0234375,0.1953125
2070,-0.0078125,-1.01953125,0.1875
2071,0.0,-1.02734375,0.1796875
2072,-0.0078125,-1.015625,0.18359375
2073,-0.0078125,-1.01953125,0.18359375
2074,0.0,-1.015625,0.1875
2075,0.0,-1.02734375,0.19140625
2076,-0.00390625,-1.0234375,0.1953125
2077,0.0,-1.0234375,0.1953125
2078,0.0,-1.01953125,0.18359375
2079,0.0,-1.01171875,0.19140625
2080,0.00390625,-1.01953125,0.19140625
2081,-0.01171875,-1.015625,0.19140625
2082,0.00390625,-1.03125,0.1796875
2083,-0.00390625,-1.03125,0.19140625
2084,-0.0078125,-1.03515625,0.1953125
2085,-0.01171875,-1.015625,0.19140625
2086,-0.01171875,-1.02734375,0.19140625
2087,-0.01171875,-1.01171875,0.19921875
2088,0.0078125,-1.0234375,0.17578125
2089,-0.01953125,-1.015625,0.203125
2090,0.0,-1.01953125,0.1875
2091,-0.01171875,-1.01953125,0.1875
2092,0.0,-1.0234375,0.19921875
2093,-0.01171875,-1.01171875,0.1875
2094,0.00390625,-1.03125,0.18359375
2095,-0.00390625,-1.015625,0.1875
2096,-0.00390625,-1.01953125,0.19140625
2097,0.0078125,-1.02734375,0.19140625
2098,0.0,-1.01171875,0.18359375
2099,-0.0078125,-1.01953125,0.19140625
2100,0.0,-1.0234375,0.1796875
2101,-0.0078125,-1.02734375,0.18359375
2102,0.0,-1.03125,0.18359375
2103,0.0,-1.0234375,0.1796875
2104,-0.01171875,-1.01953125,0.19140625
2105,0.00390625,-1.0234375,0.1875
2106,0.0,-1.01953125,0.1796875
2107,-0.0078125,-1.01953125,0.1796875
2108,-0.0078125,-1.01953125,0.19140625
2109,-0.015625,-1.0390625,0.19921875
2110,0.0,-1.0234375,0.1953125
2111,-0.0078125,-1.01953125,0.18359375
2112,0.0,-1.015625,0.19140625
2113,-0.0078125,-1.01953125,0.19921875
2114,-0.015625,-1.015625,0.1875
2115,0.0,-1.01953125,0.18359375
2116,0.0,-1.02734375,0.1953125
2117,-0.00390625,-1.01953125,0.1875
2118,0.0,-1.03515625,0.1953125
2119,-0.0078125,-1.01953125,0.1953125
2120,-0.00390625,-1.015625,0.19140625
2121,-0.01171875,-1.01953125,0.19921875
2122,-0.0078125,-1.01953125,0.1953125
2123,-0.01171875,-1.0234375,0.16796875
2124,0.0,-1.03515625,0.1875
2125,-0.00390625,-1.01953125,0.19140625
2126,-0.01953125,-1.01171875,0.19140625
2127,0.0,-1.0234375,0.1875
2128,0.0,-1.0234375,0.17578125
2129,-0.00390625,-1.046875,0.1796875
2130,-0.00390625,-1.02734375,0.19140625
2131,0.0078125,-1.0234375,0.1953125
2132,0.0,-1.03125,0.203125
2133,-0.00390625,-1.015625,0.18359375
2134,-0.00390625,-1.01953125,0.1875
2135,-0.00390625,-1.03515625,0.1796875
2136,-0.0078125,-1.01953125,0.19140625
2137,-0.00390625,-1.0234375,0.1953125
2138,0.0,-1.01953125,0.1875
2139,-0.01171875,-1.01171875,0.18359375
2140,-0.00390625,-1.01953125,0.20703125
2141,-0.01171875,-1.01953125,0.1875
2142,-0.00390625,-1.01171875,0.1875
2143,0.0,-1.02734375,0.18359375
2144,-0.01171875,-1.015625,0.19921875
2145,-0.01953125,-1.01171875,0.1953125
2146,0.0,-1.02734375,0.203125
2147,-0.00390625,-1.02734375,0.1953125
2148,0.0,-1.01953125,0.19921875
2149,-0.00390625,-1.02734375,0.1875
2150,0.0,-1.01171875,0.19921875
2151,-0.01171875,-1.015625,0.19140625
2152,-0.0078125,-1.01953125,0.16796875
2153,0.00390625,-1.03125,0.17578125
2154,-0.00390625,-1.015625,0.19140625
2155,-0.00390625,-1.02734375,0.18359375
2156,0.0,-1.0234375,0.1875
2157,0.00390625,-1.02734375,0.1875
2158,0.0,-1.0234375,0.17578125
2159,0.0,-1.03515625,0.19140625
2160,0.0,-1.01171875,0.1875
2161,-0.015625,-1.0,0.19140625
2162,0.0,-1.015625,0.1953125
2163,0.0,-1.0078125,0.1875
2164,0.0,-1.01953125,0.18359375
2165,0.00390625,-1.0078125,0.19140625
2166,-0.00390625,-1.015625,0.19921875
2167,-0.01171875,-1.01171875,0.19140625
2168,-0.0078125,-1.0078125,0.1953125
2169,0.0,-1.01953125,0.1953125
2170,-0.00390625,-1.0234375,0.1875
2171,0.0,-1.015625,0.19140625
2172,-0.00390625,-1.01953125,0.1875
2173,-0.01171875,-1.02734375,0.1796875
2174,-0.00390625,-1.015625,0.19140625
2175,-0.00390625,-1.03515625,0.19921875
2176,-0.00390625,-1.01953125,0.18359375
2177,-0.01171875,-1.03515625,0.18359375
2178,-0.00390625,-1.02734375,0.1796875
2179,-0.01171875,-1.03125,0.1953125
2180,-0.01171875,-1.02734375,0.19921875
2181,-0.01171875,-1.02734375,0.19140625
2182,-0.00390625,-1.0234375,0.18359375
2183,0.0,-1.01953125,0.1953125
2184,-0.0078125,-1.0234375,0.19921875
2185,-0.0078125,-1.0234375,0.1953125
2186,-0.0078125,-1.01953125,0.19140625
2187,0.0,-1.0234375,0.19140625
2188,-0.0078125,-1.03125,0.20703125
2189,-0.0078125,-1.01953125,0.1796875
2190,-0.00390625,-1.0234375,0.1875
2191,-0.00390625,-1.01953125,0.1875
2192,-0.00390625,-1.01953125,0.18359375
2193,-0.0078125,-1.01953125,0.19140625
2194,0.0,-1.01953125,0.19140625
2195,0.0,-1.03125,0.18359375
2196,0.0,-1.0234375,0.1796875
2197,0.0,-1.015625,0.1796875
2198,-0.00390625,-1.0078125,0.19140625
2199,0.0,-1.01953125,0.19140625
2200,-0.015625,-1.015625,0.1953125
2201,-0.00390625,-1.02734375,0.1875
2202,0.0,-1.01953125,0.17578125
2203,-0.0078125,-1.0078125,0.19140625
2204,0.0,-1.0234375,0.1875
2205,0.0,-1.02734375,0.171875
2206,-0.0078125,-1.02734375,0.19140625
2207,-0.01171875,-1.01953125,0.19140625
2208,-0.01171875,-1.015625,0.1953125
2209,0.0,-1.03125,0.19140625
2210,0.0,-1.01953125,0.1953125
2211,-0.0078125,-1.01953125,0.1875
2212,-0.015625,-1.03125,0.19140625
2213,-0.01171875,-1.01171875,0.19140625
2214,-0.00390625,-1.015625,0.1796875
2215,0.0,-1.0234375,0.1875
2216,-0.0078125,-1.0234375,0.18359375
2217,0.0,-1.015625,0.1953125
2218,0.0,-1.03125,0.19140625
2219,0.0,-1.015625,0.17578125
2220,0.0,-1.02734375,0.19921875
2221,0.0,-1.03515625,0.19140625
2222,-0.01171875,-1.03125,0.203125
2223,0.0,-1.01953125,0.17578125
2224,-0.00390625,-1.03125,0.19140625
2225,-0.0078125,-1.02734375,0.17578125
2226,-0.01171875,-1.02734375,0.19921875
2227,0.0,-1.0234375,0.18359375
2228,-0.01171875,-1.01953125,0.18359375
2229,0.0,-1.02734375,0.1796875
2230,-0.01171875,-1.0234375,0.1875
2231,0.0,-1.015625,0.18359375
2232,-0.0078125,-1.01953125,0.18359375
2233,-0.0078125,-1.03125,0.17578125
2234,0.0,-1.03125,0.18359375
2235,-0.00390625,-1.015625,0.1875
2236,0.0,-1.0234375,0.1953125
2237,0.0,-1.015625,0.203125
2238,0.00390625,-1.03125,0.1796875
2239,-0.00390625,-1.01953125,0.1796875
2240,0.00390625,-1.02734375,0.19140625
2241,0.0,-1.02734375,0.18359375
2242,0.0,-1.01953125,0.18359375
2243,0.0,-1.01953125,0.1953125
2244,0.0,-1.0234375,0.17578125
2245,-0.00390625,-1.0234375,0.1796875
2246,0.0,-1.01953125,0.19140625
2247,0.0,-1.01953125,0.19921875
2248,-0.00390625,-1.015625,0.1796875
2249,0.0,-1.01953125,0.171875
2250,-0.00390625,-1.01171875,0.1953125
2251,-0.0078125,-1.03125,0.19140625
2252,-0.0078125,-1.0234375,0.1953125
2253,0.00390625,-1.015625,0.18359375
2254,-0.00390625,-1.02734375,0.17578125
2255,0.0,-1.01953125,0.1953125
2256,-0.00390625,-1.0234375,0.1953125
2257,-0.01171875,-1.02734375,0.18359375
2258,0.0,-1.01953125,0.18359375
2259,-0.00390625,-1.0234375,0.1796875
2260,-0.015625,-1.015625,0.1875
2261,0.0,-1.03125,0.1796875
2262,-0.00390625,-1.03125,0.1796875
2263,-0.0078125,-1.02734375,0.19140625
2264,0.0,-1.02734375,0.171875
2265,-0.015625,-1.0234375,0.18359375
2266,-0.00390625,-1.0234375,0.18359375
2267,-0.01953125,-1.01953125,0.17578125
2268,-0.0078125,-1.02734375,0.18359375
2269,-0.01953125,-1.02734375,0.1875
2270,0.0,-1.02734375,0.171875
2271,-0.00390625,-1.0234375,0.16796875
2272,-0.00390625,-1.0390625,0.1796875
2273,-0.015625,-1.01953125,0.171875
2274,-0.00390625,-1.03125,0.17578125
2275,-0.0078125,-1.015625,0.171875
2276,-0.01171875,-1.01953125,0.17578125
2277,-0.00390625,-1.0234375,0.1640625
2278,-0.00390625,-1.02734375,0.17578125
2279,-0.01171875,-1.02734375,0.1796875
2280,0.0078125,-1.02734375,0.19921875
2281,0.0,-1.02734375,0.171875
2282,-0.0078125,-1.0234375,0.17578125
2283,-0.00390625,-1.02734375,0.1640625
2284,-0.015625,-1.015625,0.1796875
2285,-0.015625,-1.02734375,0.1796875
2286,-0.00390625,-1.03125,0.17578125
2287,-0.00390625,-1.02734375,0.18359375
2288,-0.00390625,-1.0234375,0.16015625
2289,0.0,-1.01953125,0.1796875
2290,0.0,-1.015625,0.18359375
2291,0.0,-1.01953125,0.1796875
2292,0.0,-1.01953125,0.171875
2293,-0.00390625,-1.03125,0.1640625
2294,0.0,-1.03515625,0.171875
2295,0.0,-1.0234375,0.17578125
2296,0.0,-1.03125,0.18359375
2297,0.00390625,-1.01953125,0.16796875
2298,0.0,-1.03125,0.1796875
2299,0.0,-1.02734375,0.171875
2300,-0.00390625,-1.0234375,0.1796875
2301,0.02734375,-1.00390625,0.15625
2302,0.01171875,-1.0078125,0.17578125
2303,0.0078125,-1.015625,0.1796875
2304,0.00390625,-1.0234375,0.18359375
2305,0.0,-1.0234375,0.1640625
2306,0.00390625,-1.02734375,0.17578125
2307,0.0,-1.01953125,0.171875
2308,0.00390625,-1.015625,0.171875
2309,0.0,-1.01953125,0.1796875
2310,0.00390625,-1.0234375,0.17578125
2311,0.00390625,-1.01171875,0.17578125
2312,0.0078125,-1.02734375,0.1796875
2313,0.00390625,-1.03515625,0.16796875
2314,0.0,-1.02734375,0.17578125
2315,-0.0078125,-1.015625,0.17578125
2316,0.00390625,-1.02734375,0.171875
2317,0.0,-1.01953125,0.18359375
2318,0.00390625,-1.0234375,0.17578125
2319,0.0078125,-1.0234375,0.16796875
2320,0.0,-1.0234375,0.1796875
2321,0.00390625,-1.015625,0.171875
2322,-0.00390625,-1.0234375,0.1796875
2323,-0.0078125,-1.0234375,0.1796875
2324,0.0078125,-1.03125,0.1875
2325,0.0,-1.0234375,0.1875
2326,0.0,-1.01953125,0.171875
2327,0.0078125,-1.0234375,0.1796875
2328,0.0,-1.02734375,0.17578125
2329,0.00390625,-1.02734375,0.171875
2330,0.00390625,-1.03515625,0.1796875
2331,-0.0078125,-1.01953125,0.16796875
2332,-0.00390625,-1.015625,0.19140625
2333,0.0,-1.015625,0.18359375
2334,0.0,-1.0234375,0.1640625
2335,0.0078125,-1.02734375,0.1796875
2336,0.00390625,-1.0234375,0.16796875
2337,-0.0078125,-1.015625,0.1640625
2338,0.00390625,-1.0234375,0.1875
2339,0.0,-1.03515625,0.18359375
2340,0.0,-1.01953125,0.171875
2341,0.0,-1.0390625,0.17578125
2342,-0.00390625,-1.01953125,0.171875
2343,0.0,-1.03125,0.15625
2344,0.0,-1.015625,0.171875
2345,-0.00390625,-1.02734375,0.17578125
2346,0.0,-1.0234375,0.1640625
2347,-0.01171875,-1.0234375,0.16796875
2348,0.0,-1.02734375,0.18359375
2349,0.0078125,-1.03515625,0.17578125
2350,0.00390625,-1.01953125,0.1640625
2351,-0.00390625,-1.01953125,0.171875
2352,-0.0078125,-1.015625,0.16015625
2353,0.0,-1.01953125,0.17578125
2354,-0.0078125,-1.02734375,0.16796875
2355,0.0,-1.0234375,0.16015625
2356,-0.015625,-1.0234375,0.1875
2357,-0.00390625,-1.02734375,0.1796875
2358,0.0,-1.02734375,0.171875
2359,-0.0078125,-1.02734375,0.1796875
2360,-0.0078125,-1.03125,0.171875
2361,-0.0078125,-1.01953125,0.16015625
2362,0.0,-1.0234375,0.1796875
2363,-0.01171875,-1.02734375,0.1796875
2364,0.0,-1.0234375,0.16796875
2365,-0.015625,-1.0234375,0.18359375
2366,0.0,-1.0234375,0.171875
2367,-0.0078125,-1.0234375,0.17578125
2368,0.0,-1.01953125,0.16015625
2369,0.0,-1.0234375,0.15625
2370,-0.00390625,-1.015625,0.1640625
2371,0.0,-1.03125,0.16796875
2372,-0.00390625,-1.01953125,0.16796875
2373,-0.00390625,-1.01171875,0.16015625
2374,0.0,-1.02734375,0.16796875
2375,0.0078125,-1.01171875,0.1484375
2376,-0.01171875,-1.02734375,0.16015625
2377,-0.00390625,-1.015625,0.15625
2378,-0.00390625,-1.0234375,0.16015625
2379,-0.0078125,-1.0234375,0.1640625
2380,-0.01171875,-1.015625,0.171875
2381,-0.01171875,-1.02734375,0.15625
2382,-0.015625,-1.03125,0.17578125
2383,-0.00390625,-1.0234375,0.16796875
2384,-0.00390625,-1.02734375,0.16796875
2385,0.0,-1.03515625,0.17578125
2386,0.0,-1.0390625,0.19140625
2387,-0.01171875,-1.01953125,0.16796875
2388,0.0,-1.02734375,0.16015625
2389,-0.015625,-1.03125,0.171875
2390,-0.0234375,-1.02734375,0.16015625
2391,0.0,-1.03125,0.15625
2392,-0.0078125,-1.02734375,0.16796875
2393,-0.00390625,-1.01953125,0.1640625
2394,-0.00390625,-1.01953125,0.1796875
2395,0.0,-1.02734375,0.16796875
2396,-0.0078125,-1.0234375,0.1796875
2397,-0.0078125,-1.0234375,0.16796875
2398,0.0,-1.02734375,0.1796875
