,accelerometerAccelerationX(G),accelerometerAccelerationY(G),accelerometerAccelerationZ(G)
0,-0.04296875,-1.03515625,0.11328125
1,-0.0546875,-1.03125,0.109375
2,-0.0546875,-1.0234375,0.1015625
3,-0.05078125,-1.0234375,0.1171875
4,-0.046875,-1.03125,0.109375
5,-0.0546875,-1.03515625,0.109375
6,-0.0546875,-1.03125,0.125
7,-0.05078125,-1.03515625,0.1171875
8,-0.05859375,-1.0234375,0.1015625
9,-0.046875,-1.0390625,0.11328125
10,-0.0546875,-1.0234375,0.109375
11,-0.0546875,-1.03515625,0.10546875
12,-0.0546875,-1.01953125,0.12109375
13,-0.0625,-1.0234375,0.1171875
14,-0.05859375,-1.0390625,0.125
15,-0.05078125,-1.05859375,0.1171875
16,-0.0625,-1.0234375,0.125
17,-0.05859375,-1.0234375,0.12890625
18,-0.0546875,-1.01953125,0.1328125
19,-0.05078125,-1.01953125,0.12890625
20,-0.0546875,-1.01953125,0.12890625
21,-0.0625,-1.015625,0.13671875
22,-0.0703125,-1.03125,0.12890625
23,-0.06640625,-1.01953125,0.1015625
24,-0.0703125,-1.0390625,0.1015625
25,-0.0546875,-1.046875,0.1015625
26,-0.05078125,-1.046875,0.09375
27,-0.046875,-1.05078125,0.09375
28,-0.0546875,-1.05859375,0.0859375
29,-0.05859375,-1.0703125,0.1015625
30,-0.0625,-1.0703125,0.109375
31,-0.05859375,-1.078125,0.125
32,-0.05078125,-1.08203125,0.11328125
33,-0.03515625,-1.08203125,0.1484375
34,-0.04296875,-1.0703125,0.16796875
35,-0.03515625,-1.0625,0.19140625
36,-0.05078125,-1.046875,0.1875
37,-0.0546875,-1.01953125,0.20703125
38,-0.0546875,-1.0234375,0.21875
39,-0.05859375,-1.00390625,0.23828125
40,-0.05859375,-0.99609375,0.2421875
41,-0.05859375,-0.99609375,0.24609375
42,-0.05859375,-0.98828125,0.234375
43,-0.0625,-0.98828125,0.2421875
44,-0.0703125,-0.9921875,0.234375
45,-0.0625,-1.00390625,0.22265625
46,-0.0546875,-0.99609375,0.23046875
47,-0.05078125,-1.0078125,0.2265625
48,-0.046875,-1.00390625,0.21484375
49,-0.046875,-1.00390625,0.203125
50,-0.03515625,-1.015625,0.1953125
51,-0.03125,-1.01953125,0.21484375
52,-0.01953125,-1.00390625,0.23046875
53,-0.02734375,-1.01171875,0.2265625
54,-0.0078125,-1.01953125,0.21875
55,-0.0078125,-1.00390625,0.2265625
56,0.0,-0.99609375,0.2265625
57,0.0,-1.0,0.203125
58,0.0,-0.99609375,0.2109375
59,-0.0078125,-0.98828125,0.203125
60,-0.0234375,-0.98828125,0.203125
61,-0.0078125,-0.98046875,0.1875
62,-0.0234375,-0.9765625,0.1875
63,-0.02734375,-0.98046875,0.171875
64,-0.03515625,-0.9765625,0.15625
65,-0.046875,-0.97265625,0.1484375
66,-0.04296875,-0.97265625,0.1484375
67,-0.0390625,-0.98828125,0.14453125
68,-0.03515625,-0.99609375,0.15625
69,-0.02734375,-0.99609375,0.1640625
70,-0.03125,-1.00390625,0.1484375
71,-0.03515625,-0.9921875,0.14453125
72,-0.015625,-1.0,0.13671875
73,-0.0390625,-1.0078125,0.15234375
74,-0.02734375,-1.01171875,0.15234375
75,-0.04296875,-1.0078125,0.171875
76,-0.04296875,-1.0,0.15625
77,-0.04296875,-1.00390625,0.15234375
78,-0.05078125,-1.00390625,0.13671875
79,-0.0703125,-0.98828125,0.15625
80,-0.0390625,-0.99609375,0.125
81,-0.046875,-1.00390625,0.140625
82,-0.03125,-1.01953125,0.140625
83,-0.03515625,-1.015625,0.12109375
84,-0.03515625,-1.01171875,0.11328125
85,-0.02734375,-1.015625,0.1015625
86,-0.03515625,-1.03515625,0.09375
87,-0.01171875,-1.0234375,0.078125
88,-0.01171875,-1.046875,0.05859375
89,0.0,-1.03515625,0.0625
90,-0.00390625,-1.01953125,0.03515625
91,-0.00390625,-1.01171875,0.015625
92,0.00390625,-1.00390625,0.0
93,0.0,-0.98828125,-0.02734375
94,0.0,-0.984375,-0.04296875
95,0.0,-0.96484375,-0.04296875
96,0.0,-0.94140625,-0.03515625
97,-0.01171875,-0.91796875,-0.0546875
98,-0.00390625,-0.9140625,-0.0546875
99,-0.03125,-0.87890625,-0.078125
100,-0.046875,-0.83984375,-0.0859375
101,-0.0625,-0.81640625,-0.078125
102,-0.07421875,-0.78515625,-0.07421875
103,-0.0859375,-0.76953125,-0.06640625
104,-0.08984375,-0.73828125,-0.05859375
105,-0.09375,-0.70703125,-0.0234375
106,-0.08984375,-0.6796875,0.00390625
107,-0.08984375,-0.66796875,0.0390625
108,-0.08203125,-0.63671875,0.0625
109,-0.09375,-0.6328125,0.09765625
110,-0.0859375,-0.62890625,0.140625
111,-0.07421875,-0.6328125,0.17578125
112,-0.06640625,-0.66015625,0.20703125
113,-0.05859375,-0.6953125,0.23046875
114,-0.05859375,-0.75,0.25390625
115,-0.05078125,-0.78125,0.27734375
116,-0.03515625,-0.84375,0.28515625
117,-0.00390625,-0.9140625,0.2734375
118,0.0078125,-0.96484375,0.265625
119,0.03515625,-1.015625,0.2734375
120,0.0390625,-1.0703125,0.2578125
121,0.0546875,-1.13671875,0.28125
122,0.0546875,-1.19140625,0.26953125
123,0.046875,-1.25390625,0.29296875
124,0.03515625,-1.3125,0.34765625
125,0.0234375,-1.359375,0.359375
126,0.01171875,-1.390625,0.37109375
127,0.0,-1.42578125,0.3828125
128,0.0078125,-1.4453125,0.37109375
129,0.0078125,-1.4609375,0.3828125
130,0.0,-1.48046875,0.39453125
131,-0.01171875,-1.4921875,0.3828125
132,-0.04296875,-1.50390625,0.390625
133,-0.015625,-1.56640625,0.34765625
134,-0.0390625,-1.55859375,0.35546875
135,-0.0703125,-1.5546875,0.359375
136,-0.0859375,-1.55859375,0.3203125
137,-0.109375,-1.56640625,0.3125
138,-0.1171875,-1.546875,0.296875
139,-0.12890625,-1.5234375,0.28125
140,-0.1328125,-1.5234375,0.2890625
141,-0.12109375,-1.5390625,0.28515625
142,-0.09765625,-1.53515625,0.28515625
143,-0.09765625,-1.51171875,0.2734375
144,-0.06640625,-1.5234375,0.28515625
145,-0.08984375,-1.49609375,0.2578125
146,-0.07421875,-1.4921875,0.25
147,-0.078125,-1.46875,0.25
148,-0.08203125,-1.453125,0.25
149,-0.12109375,-1.4140625,0.23828125
150,-0.12890625,-1.37109375,0.2265625
151,-0.14453125,-1.3515625,0.234375
152,-0.16015625,-1.3125,0.21484375
153,-0.19140625,-1.28515625,0.20703125
154,-0.22265625,-1.203125,0.17578125
155,-0.26171875,-1.171875,0.171875
156,-0.26953125,-1.09375,0.203125
157,-0.32421875,-1.07421875,0.1953125
158,-0.36328125,-0.99609375,0.23046875
159,-0.40625,-0.99609375,0.24609375
160,-0.4609375,-0.9140625,0.2265625
161,-0.4765625,-0.84375,0.203125
162,-0.47265625,-0.85546875,0.18359375
163,-0.48046875,-0.80078125,0.16796875
164,-0.45703125,-0.8046875,0.125
165,-0.4296875,-0.77734375,0.0859375
166,-0.37109375,-0.7421875,0.0234375
167,-0.29296875,-0.7265625,0.01171875
168,-0.23046875,-0.71875,0.0078125
169,-0.18359375,-0.7109375,0.0
170,-0.13671875,-0.67578125,-0.03125
171,-0.1015625,-0.61328125,-0.03125
172,-0.07421875,-0.58203125,-0.05859375
173,-0.03515625,-0.5234375,-0.046875
174,-0.0078125,-0.51171875,-0.0546875
175,0.0234375,-0.48046875,-0.04296875
176,0.05859375,-0.453125,-0.0234375
177,0.0625,-0.41015625,-0.015625
178,0.0703125,-0.3828125,-0.01171875
179,0.08203125,-0.3515625,-0.0234375
180,0.08984375,-0.3359375,-0.046875
181,0.0625,-0.3046875,-0.09765625
182,0.05078125,-0.27734375,-0.18359375
183,0.015625,-0.26953125,-0.23828125
184,0.0,-0.27734375,-0.27734375
185,-0.015625,-0.29296875,-0.3359375
186,-0.01953125,-0.3359375,-0.34765625
187,-0.0078125,-0.40625,-0.3359375
188,0.0078125,-0.49609375,-0.3203125
189,0.02734375,-0.59375,-0.26953125
190,0.046875,-0.70703125,-0.21875
191,0.07421875,-0.8203125,-0.17578125
192,0.078125,-0.953125,-0.1015625
193,0.06640625,-1.08984375,-0.05078125
194,0.0390625,-1.2421875,-0.04296875
195,-0.01953125,-1.36328125,-0.015625
196,-0.046875,-1.52734375,0.04296875
197,-0.09375,-1.69140625,0.17578125
198,-0.12890625,-1.828125,0.15234375
199,-0.1640625,-1.97265625,0.11328125
200,-0.2265625,-1.984375,0.078125
201,-0.2265625,-2.01953125,0.03515625
202,-0.21875,-2.01171875,0.0078125
203,-0.17578125,-2.0234375,0.015625
204,-0.16015625,-1.96875,0.04296875
205,-0.09765625,-1.8984375,0.06640625
206,-0.0546875,-1.7734375,0.13671875
207,0.0,-1.6171875,0.1484375
208,0.07421875,-1.484375,0.16796875
209,0.09765625,-1.3515625,0.15234375
210,0.0859375,-1.2421875,0.1953125
211,0.0859375,-1.17578125,0.23828125
212,0.0859375,-1.1484375,0.296875
213,0.0625,-1.203125,0.34375
214,0.04296875,-1.26171875,0.34375
215,-0.00390625,-1.34375,0.31640625
216,-0.03515625,-1.4609375,0.2890625
217,-0.078125,-1.55859375,0.25
218,-0.1015625,-1.6953125,0.21484375
219,-0.12109375,-1.78515625,0.16796875
220,-0.1328125,-1.88671875,0.125
221,-0.12890625,-1.97265625,0.14453125
222,-0.16015625,-2.00390625,0.12890625
223,-0.15234375,-2.01171875,0.12890625
224,-0.16796875,-1.96875,0.10546875
225,-0.13671875,-1.9453125,0.14453125
226,-0.13671875,-1.87890625,0.171875
227,-0.109375,-1.765625,0.1953125
228,-0.06640625,-1.6484375,0.1953125
229,-0.00390625,-1.54296875,0.2265625
230,0.06640625,-1.4375,0.19921875
231,0.08203125,-1.3125,0.12890625
232,0.11328125,-1.17578125,0.1015625
233,0.09375,-1.0703125,0.109375
234,0.11328125,-0.96484375,0.1015625
235,0.09765625,-0.89453125,0.12109375
236,0.1015625,-0.8515625,0.15625
237,0.09765625,-0.82421875,0.21484375
238,0.08203125,-0.765625,0.25390625
239,0.06640625,-0.73828125,0.2578125
240,0.0078125,-0.640625,0.234375
241,-0.0078125,-0.5703125,0.22265625
242,-0.046875,-0.46875,0.18359375
243,-0.03515625,-0.37890625,0.15234375
244,-0.03515625,-0.296875,0.13671875
245,0.0234375,-0.15234375,0.05859375
246,0.03125,-0.01171875,-0.01953125
247,0.03515625,0.03515625,-0.03125
248,0.03515625,0.1328125,-0.09375
249,0.06640625,0.1796875,-0.13671875
250,0.1015625,0.1953125,-0.14453125
251,0.11328125,0.1796875,-0.1328125
252,0.125,0.1484375,-0.140625
253,0.1484375,0.11328125,-0.1015625
254,0.140625,0.08984375,-0.06640625
255,0.1171875,0.0859375,-0.03515625
256,0.09765625,0.08203125,-0.02734375
257,0.078125,0.05859375,-0.015625
258,0.07421875,0.02734375,-0.015625
259,0.0234375,0.01953125,-0.0234375
260,0.0390625,0.00390625,-0.05078125
261,0.01171875,-0.0234375,-0.0234375
262,0.01171875,-0.05859375,-0.01171875
263,0.00390625,-0.11328125,-0.05078125
264,-0.04296875,-0.16796875,-0.07421875
265,-0.09765625,-0.2109375,-0.0859375
266,-0.09375,-0.2421875,-0.1328125
267,-0.09765625,-0.26171875,-0.16015625
268,-0.140625,-0.34375,-0.14453125
269,-0.12109375,-0.45703125,-0.17578125
270,-0.0625,-0.55859375,-0.2578125
271,-0.0859375,-0.64453125,-0.28125
272,-0.09375,-0.74609375,-0.32421875
273,-0.15625,-0.91796875,-0.26171875
274,-0.1328125,-1.09375,-0.171875
275,-0.12109375,-1.28515625,-0.03515625
276,-0.0859375,-1.5,0.08203125
277,0.00390625,-1.75,0.10546875
278,-0.015625,-1.90625,0.07421875
279,-0.03515625,-2.0625,0.05859375
280,0.07421875,-2.171875,-0.04296875
281,0.15234375,-2.21484375,-0.08203125
282,0.1484375,-2.23046875,-0.0859375
283,0.0859375,-2.2265625,-0.015625
284,0.0,-2.21484375,0.0234375
285,-0.04296875,-2.1796875,0.0703125
286,-0.0703125,-2.140625,0.125
287,-0.0703125,-2.078125,0.17578125
288,-0.05078125,-1.98828125,0.16796875
289,0.0,-1.9296875,0.140625
290,0.0,-1.86328125,0.10546875
291,0.0,-1.83203125,0.125
292,0.03515625,-1.828125,0.1328125
293,0.03515625,-1.83984375,0.140625
294,0.01953125,-1.88671875,0.19921875
295,-0.0078125,-1.91015625,0.203125
296,-0.0546875,-1.92578125,0.30859375
297,-0.08203125,-1.8671875,0.31640625
298,-0.1015625,-1.828125,0.32421875
299,-0.11328125,-1.78125,0.30859375
300,-0.10546875,-1.76953125,0.3046875
301,-0.11328125,-1.76953125,0.328125
302,-0.08203125,-1.765625,0.3515625
303,-0.046875,-1.76953125,0.36328125
304,-0.01171875,-1.78515625,0.3515625
305,-0.015625,-1.78515625,0.3359375
306,-0.02734375,-1.7734375,0.3359375
307,0.01171875,-1.765625,0.3515625
308,-0.01953125,-1.76171875,0.4140625
309,-0.0390625,-1.7421875,0.4296875
310,-0.05078125,-1.73046875,0.4296875
311,-0.08203125,-1.65625,0.42578125
312,-0.14453125,-1.5234375,0.38671875
313,-0.2265625,-1.4140625,0.3515625
314,-0.2421875,-1.27734375,0.3359375
315,-0.19140625,-1.0703125,0.23046875
316,-0.23828125,-0.8984375,0.25
317,-0.20703125,-0.63671875,0.09765625
318,-0.21875,-0.53515625,0.1640625
319,-0.203125,-0.41015625,0.0859375
320,-0.2109375,-0.2578125,0.0859375
321,-0.17578125,-0.11328125,0.02734375
322,-0.15625,-0.05859375,0.015625
323,-0.140625,-0.01171875,0.01953125
324,-0.08984375,0.08984375,-0.04296875
325,-0.171875,-0.01953125,-0.03515625
326,-0.14453125,0.08984375,-0.13671875
327,-0.1484375,0.1484375,-0.1796875
328,-0.18359375,0.109375,-0.16015625
329,-0.125,0.11328125,-0.15625
330,-0.1015625,0.1484375,-0.1875
331,-0.10546875,0.1171875,-0.19921875
332,-0.1328125,0.109375,-0.1875
333,-0.16015625,0.08203125,-0.125
334,-0.18359375,0.06640625,-0.10546875
335,-0.18359375,0.0390625,-0.078125
336,-0.1640625,0.03515625,-0.04296875
337,-0.140625,0.0078125,-0.015625
338,-0.11328125,-0.00390625,0.046875
339,-0.1015625,-0.03515625,0.00390625
340,-0.05078125,-0.0390625,0.015625
341,-0.00390625,-0.03125,0.0
342,0.0078125,-0.046875,0.01171875
343,0.03125,-0.0703125,0.0
344,0.015625,-0.0859375,-0.10546875
345,0.01171875,-0.125,-0.1875
346,-0.046875,-0.15625,-0.26171875
347,-0.1015625,-0.2578125,-0.3671875
348,-0.24609375,-0.421875,-0.5
349,-0.34765625,-0.66796875,-0.6015625
350,-0.390625,-0.90625,-0.83203125
351,-0.40625,-1.15625,-1.01171875
352,-0.15625,-1.42578125,-0.8671875
353,0.21484375,-1.80078125,-0.46875
354,0.34765625,-2.16015625,0.16796875
355,0.4140625,-2.50390625,0.67578125
356,0.375,-2.67578125,1.0078125
357,0.23828125,-2.58203125,0.609375
358,0.11328125,-2.40625,0.15234375
359,0.0234375,-2.1796875,-0.36328125
360,0.09765625,-2.1953125,-0.55859375
361,0.18359375,-2.19921875,-0.40625
362,0.19921875,-2.26171875,-0.2421875
363,0.1171875,-2.17578125,-0.03125
364,-0.02734375,-1.8671875,0.08203125
365,-0.13671875,-1.5234375,0.1171875
366,-0.19921875,-1.2578125,0.1875
367,-0.28515625,-1.14453125,0.25390625
368,-0.375,-1.09765625,0.34765625
369,-0.421875,-1.09375,0.3515625
370,-0.484375,-1.109375,0.33203125
371,-0.51171875,-1.12109375,0.30859375
372,-0.484375,-1.16796875,0.31640625
373,-0.48046875,-1.234375,0.32421875
374,-0.46484375,-1.359375,0.36328125
375,-0.45703125,-1.484375,0.3671875
376,-0.4140625,-1.58203125,0.3125
377,-0.41015625,-1.6796875,0.18359375
378,-0.44921875,-1.75390625,0.05859375
379,-0.40234375,-1.875,0.04296875
380,-0.375,-2.0,0.1171875
381,-0.3046875,-2.05078125,0.17578125
382,-0.22265625,-2.109375,0.21875
383,-0.10546875,-2.12890625,0.22265625
384,-0.00390625,-2.0703125,0.2265625
385,0.046875,-2.05078125,0.2265625
386,0.11328125,-2.03515625,0.25390625
387,0.1640625,-1.97265625,0.26953125
388,0.26171875,-1.859375,0.26953125
389,0.296875,-1.71484375,0.28515625
390,0.34765625,-1.5703125,0.33984375
391,0.375,-1.46875,0.33203125
392,0.40625,-1.35546875,0.33203125
393,0.40234375,-1.21875,0.27734375
394,0.33984375,-1.05859375,0.21484375
395,0.24609375,-0.8671875,0.17578125
396,0.15625,-0.6953125,0.17578125
397,0.06640625,-0.5234375,0.16796875
398,-0.01953125,-0.45703125,0.12890625
399,0.0625,-0.3984375,0.078125
400,0.0546875,-0.26953125,0.015625
401,0.0390625,-0.12890625,-0.0546875
402,0.015625,0.02734375,-0.140625
403,0.015625,0.12890625,-0.2109375
404,0.10546875,0.16796875,-0.25
405,0.16015625,0.234375,-0.34375
406,0.11328125,0.29296875,-0.41796875
407,0.1171875,0.24609375,-0.3671875
408,0.12109375,0.12890625,-0.2734375
409,0.1015625,0.0390625,-0.2578125
410,0.078125,0.0,-0.234375
411,0.03515625,0.00390625,-0.1875
412,0.02734375,-0.0234375,-0.12890625
413,0.0234375,-0.0390625,-0.078125
414,0.0,-0.0703125,-0.05078125
415,0.0,-0.0859375,-0.0078125
416,-0.01171875,-0.1015625,0.01953125
417,-0.01953125,-0.12890625,0.03515625
418,-0.03515625,-0.1484375,0.05078125
419,-0.04296875,-0.1640625,0.05078125
420,-0.0625,-0.1328125,0.03125
421,-0.0859375,-0.23046875,-0.1328125
422,-0.0625,-0.2890625,-0.2890625
423,-0.0703125,-0.3515625,-0.4453125
424,-0.15625,-0.3515625,-0.79296875
425,-0.25390625,-0.40625,-1.05859375
426,-0.234375,-0.59765625,-1.1015625
427,-0.12890625,-0.89453125,-0.92578125
428,-0.02734375,-1.30859375,-0.18359375
429,0.140625,-1.65625,0.28125
430,0.3515625,-1.86328125,0.67578125
431,0.46875,-1.9375,0.80859375
432,0.56640625,-1.921875,0.5546875
433,0.58984375,-1.85546875,0.2421875
434,0.50390625,-1.765625,-0.02734375
435,0.26171875,-1.7109375,-0.2265625
436,0.03125,-1.6796875,-0.18359375
437,-0.109375,-1.71484375,-0.046875
438,-0.28125,-1.78125,0.11328125
439,-0.4765625,-1.8203125,0.23046875
440,-0.6328125,-1.7421875,0.2421875
441,-0.734375,-1.62109375,0.26171875
442,-0.76953125,-1.51171875,0.265625
443,-0.7578125,-1.4296875,0.23046875
444,-0.7109375,-1.390625,0.16015625
445,-0.57421875,-1.44140625,0.12890625
446,-0.4921875,-1.5234375,0.16796875
447,-0.40625,-1.625,0.1796875
448,-0.359375,-1.7109375,0.17578125
449,-0.29296875,-1.78515625,0.15625
450,-0.21875,-1.8359375,0.171875
451,-0.11328125,-1.9140625,0.19921875
452,-0.046875,-1.92578125,0.19140625
453,0.0078125,-1.95703125,0.18359375
454,0.01953125,-1.9375,0.1875
455,0.04296875,-1.92578125,0.2109375
456,0.0078125,-1.9609375,0.24609375
457,-0.0703125,-1.91015625,0.21875
458,-0.12109375,-1.81640625,0.19921875
459,-0.1015625,-1.7421875,0.20703125
460,-0.02734375,-1.6875,0.20703125
461,-0.015625,-1.65625,0.21875
462,-0.046875,-1.640625,0.2421875
463,-0.07421875,-1.6484375,0.31640625
464,-0.11328125,-1.57421875,0.35546875
465,-0.12109375,-1.53515625,0.36328125
466,-0.1328125,-1.52734375,0.44921875
467,-0.1015625,-1.46875,0.41796875
468,-0.10546875,-1.4375,0.52734375
469,-0.1015625,-1.3515625,0.4609375
470,-0.1015625,-1.23828125,0.44921875
471,-0.09375,-1.20703125,0.5
472,-0.15234375,-1.0390625,0.375
473,-0.1484375,-0.859375,0.2578125
474,-0.1640625,-0.703125,0.1484375
475,-0.19140625,-0.5625,0.05859375
476,-0.16796875,-0.4375,0.00390625
477,-0.171875,-0.27734375,-0.06640625
478,-0.17578125,-0.16796875,-0.0625
479,-0.20703125,-0.1015625,-0.05859375
480,-0.20703125,0.00390625,-0.07421875
481,-0.2578125,0.08203125,-0.125
482,-0.3046875,0.15234375,-0.1328125
483,-0.30859375,0.10546875,-0.15234375
484,-0.3125,0.2265625,-0.21875
485,-0.3046875,0.25,-0.22265625
486,-0.3203125,0.234375,-0.2265625
487,-0.26953125,0.2578125,-0.23828125
488,-0.22265625,0.2578125,-0.2109375
489,-0.22265625,0.19140625,-0.24609375
490,-0.17578125,0.14453125,-0.22265625
491,-0.140625,0.0859375,-0.2109375
492,-0.09765625,0.03515625,-0.16796875
493,-0.07421875,-0.0234375,-0.06640625
494,-0.01953125,-0.07421875,-0.0078125
495,0.0078125,-0.12109375,0.03515625
496,0.01953125,-0.13671875,0.078125
497,0.04296875,-0.171875,0.1015625
498,0.04296875,-0.20703125,0.06640625
499,-0.1015625,-0.23046875,-0.17578125
500,-0.41015625,-0.2578125,-0.5
501,-0.4765625,-0.47265625,-0.73828125
502,-0.54296875,-0.50390625,-1.04296875
503,-0.52734375,-0.54296875,-1.51171875
504,-0.53125,-0.7421875,-1.5703125
505,-0.3203125,-1.171875,-1.16015625
506,-0.19140625,-1.5,-0.59375
507,-0.16015625,-1.8984375,-0.015625
508,-0.1171875,-2.1953125,0.41015625
509,-0.15625,-2.32421875,0.5625
510,-0.2734375,-2.3359375,0.67578125
511,-0.27734375,-2.328125,0.671875
512,-0.046875,-2.31640625,0.45703125
513,0.06640625,-2.22265625,0.19140625
514,0.10546875,-2.12109375,-0.15234375
515,0.171875,-1.9921875,-0.58984375
516,0.16796875,-1.91796875,-0.59765625
517,0.21875,-1.79296875,-0.60546875
518,0.21875,-1.6796875,-0.4140625
519,0.19921875,-1.57421875,-0.2109375
520,0.1640625,-1.44140625,-0.05859375
521,0.1484375,-1.27734375,0.03515625
522,0.0703125,-1.15234375,0.1015625
523,-0.0234375,-1.0546875,0.1796875
524,-0.1484375,-0.98046875,0.140625
525,-0.203125,-0.98828125,0.09765625
526,-0.25,-1.0625,0.16796875
527,-0.28515625,-1.20703125,0.19921875
528,-0.31640625,-1.359375,0.26171875
529,-0.3203125,-1.51171875,0.26171875
530,-0.328125,-1.61328125,0.19921875
531,-0.3515625,-1.67578125,0.16796875
532,-0.390625,-1.75390625,0.15625
533,-0.40234375,-1.86328125,0.15234375
534,-0.37890625,-1.96875,0.13671875
535,-0.328125,-2.03515625,0.10546875
536,-0.26171875,-2.12890625,0.07421875
537,-0.2265625,-2.1875,0.10546875
538,-0.1875,-2.2109375,0.10546875
539,-0.140625,-2.19921875,0.11328125
540,-0.1015625,-2.19140625,0.15625
541,-0.06640625,-2.171875,0.21875
542,0.0078125,-2.13671875,0.27734375
543,0.015625,-2.03515625,0.3125
544,0.015625,-1.96875,0.37109375
545,0.08984375,-1.875,0.421875
546,0.13671875,-1.81640625,0.421875
547,0.1640625,-1.70703125,0.41015625
548,0.16796875,-1.58203125,0.39453125
549,0.16015625,-1.4375,0.37109375
550,0.125,-1.22265625,0.34375
551,0.0703125,-1.046875,0.32421875
552,0.07421875,-0.8359375,0.2578125
553,-0.08984375,-0.5546875,0.16796875
554,-0.2265625,-0.33203125,0.06640625
555,-0.16015625,-0.265625,0.1015625
556,-0.09375,-0.19921875,0.05078125
557,-0.05859375,-0.05078125,-0.1015625
558,-0.12109375,0.171875,-0.18359375
559,-0.07421875,0.22265625,-0.21875
560,-0.0390625,0.390625,-0.37109375
561,0.01953125,0.484375,-0.48046875
562,0.1015625,0.45703125,-0.484375
563,0.1796875,0.40234375,-0.484375
564,0.20703125,0.38671875,-0.5
565,0.18359375,0.32421875,-0.46484375
566,0.15234375,0.22265625,-0.36328125
567,0.125,0.06640625,-0.26171875
568,0.125,-0.0390625,-0.15234375
569,0.11328125,-0.0703125,-0.12890625
570,0.1328125,-0.078125,-0.15625
571,0.17578125,-0.078125,-0.1328125
572,0.18359375,-0.09765625,-0.12890625
573,0.1796875,-0.1171875,-0.0859375
574,0.18359375,-0.15625,-0.0390625
575,0.19140625,-0.17578125,-0.0234375
576,0.1953125,-0.19921875,0.015625
577,0.1796875,-0.21484375,0.01953125
578,0.19140625,-0.21484375,0.01953125
579,0.1953125,-0.2421875,0.0
580,0.0625,-0.2890625,-0.18359375
581,-0.0234375,-0.34375,-0.390625
582,-0.0859375,-0.41015625,-0.5625
583,-0.20703125,-0.4296875,-0.80078125
584,-0.33984375,-0.51171875,-0.8828125
585,-0.25,-0.71484375,-0.87890625
586,-0.19921875,-0.94140625,-0.6875
587,-0.05859375,-1.234375,-0.31640625
588,-0.03515625,-1.48046875,0.12109375
589,0.12890625,-1.78515625,0.6171875
590,0.203125,-1.96484375,0.6640625
591,0.23046875,-2.0078125,0.5859375
592,0.30859375,-1.92578125,0.30859375
593,0.25,-1.89453125,-0.12890625
594,0.04296875,-1.8828125,-0.42578125
595,-0.09375,-1.9453125,-0.5625
596,-0.1953125,-2.06640625,-0.421875
597,-0.2890625,-2.19140625,-0.1796875
598,-0.42578125,-2.2421875,0.04296875
599,-0.4453125,-2.109375,0.1796875
600,-0.4140625,-1.88671875,0.1953125
601,-0.34765625,-1.71484375,0.1953125
602,-0.30078125,-1.61328125,0.15625
603,-0.296875,-1.5859375,0.11328125
604,-0.2578125,-1.59375,0.07421875
605,-0.19140625,-1.64453125,0.0703125
606,-0.16015625,-1.73828125,0.07421875
607,-0.140625,-1.80859375,0.125
608,-0.13671875,-1.859375,0.140625
609,-0.1328125,-1.90234375,0.1953125
610,-0.14453125,-1.90625,0.23828125
611,-0.1875,-1.890625,0.27734375
612,-0.21875,-1.89453125,0.296875
613,-0.2890625,-1.8984375,0.3359375
614,-0.31640625,-2.046875,0.45703125
615,-0.40625,-2.0390625,0.4140625
616,-0.41796875,-2.015625,0.41796875
617,-0.44140625,-2.0,0.375
618,-0.4375,-1.99609375,0.35546875
619,-0.40625,-1.94140625,0.328125
620,-0.35546875,-1.91796875,0.31640625
621,-0.28125,-1.85546875,0.30078125
622,-0.25,-1.8046875,0.33203125
623,-0.1640625,-1.7265625,0.34765625
624,-0.07421875,-1.60546875,0.328125
625,0.00390625,-1.50390625,0.36328125
626,0.015625,-1.37890625,0.38671875
627,0.03125,-1.203125,0.32421875
628,0.05859375,-0.94921875,0.3046875
629,0.046875,-0.70703125,0.19921875
630,0.04296875,-0.5,0.078125
631,0.08203125,-0.359375,0.09375
632,0.0703125,-0.125,-0.01953125
633,0.078125,-0.04296875,-0.015625
634,0.05859375,0.09765625,-0.0625
635,0.00390625,0.15234375,-0.0703125
636,0.0390625,0.2734375,-0.0703125
637,-0.08984375,0.26171875,-0.05078125
638,-0.078125,0.40234375,-0.203125
639,-0.1484375,0.37109375,-0.23828125
640,-0.21875,0.296875,-0.36328125
641,-0.18359375,0.2890625,-0.41796875
642,-0.1875,0.265625,-0.41015625
643,-0.1953125,0.19140625,-0.46484375
644,-0.1875,0.07421875,-0.45703125
645,-0.21484375,0.0,-0.38671875
646,-0.203125,-0.078125,-0.32421875
647,-0.1640625,-0.16796875,-0.25
648,-0.140625,-0.2109375,-0.171875
649,-0.1328125,-0.23828125,-0.0546875
650,-0.08984375,-0.2734375,0.015625
651,-0.05859375,-0.2890625,0.0703125
652,-0.015625,-0.3125,0.08203125
653,0.015625,-0.28125,0.0234375
654,0.0546875,-0.25390625,0.01953125
655,0.08203125,-0.25,0.01953125
656,0.0859375,-0.25390625,0.0390625
657,-0.0390625,-0.23828125,-0.08984375
658,-0.27734375,-0.3125,-0.31640625
659,-0.32421875,-0.62890625,-0.41015625
660,-0.4609375,-0.60546875,-0.76953125
661,-0.40234375,-0.64453125,-1.3203125
662,-0.3828125,-0.76171875,-1.4296875
663,-0.29296875,-1.078125,-1.01171875
664,-0.12109375,-1.3828125,-0.48046875
665,-0.234375,-1.5546875,0.078125
666,-0.30859375,-1.703125,0.4375
667,-0.3671875,-1.7890625,0.54296875
668,-0.40234375,-1.71875,0.53125
669,-0.375,-1.67578125,0.42578125
670,-0.33984375,-1.62109375,0.1796875
671,-0.28125,-1.55078125,-0.09375
672,-0.15625,-1.59765625,-0.25390625
673,-0.0546875,-1.671875,-0.3125
674,0.11328125,-1.765625,-0.3515625
675,0.17578125,-1.734375,-0.32421875
676,0.21484375,-1.703125,-0.29296875
677,0.19140625,-1.63671875,-0.22265625
678,0.12890625,-1.5078125,-0.18359375
679,0.1015625,-1.3984375,-0.08984375
680,0.0234375,-1.34375,0.03515625
681,-0.12890625,-1.26171875,0.06640625
682,-0.19140625,-1.2734375,0.13671875
683,-0.25390625,-1.34765625,0.21484375
684,-0.2734375,-1.40625,0.28125
685,-0.30078125,-1.4296875,0.3359375
686,-0.3046875,-1.48828125,0.32421875
687,-0.32421875,-1.55859375,0.30859375
688,-0.3203125,-1.68359375,0.2890625
689,-0.2890625,-1.78125,0.296875
690,-0.26171875,-1.90234375,0.3046875
691,-0.23046875,-2.015625,0.27734375
692,-0.21875,-2.09375,0.25
693,-0.19140625,-2.1171875,0.19140625
694,-0.140625,-2.1484375,0.1640625
695,-0.08984375,-2.12109375,0.171875
696,-0.01171875,-2.0703125,0.1953125
697,0.02734375,-2.015625,0.22265625
698,0.01953125,-1.9296875,0.22265625
699,0.00390625,-1.8359375,0.265625
700,0.0390625,-1.77734375,0.296875
701,0.0546875,-1.77734375,0.28125
702,0.0703125,-1.71875,0.3203125
703,0.078125,-1.73046875,0.32421875
704,0.1015625,-1.7578125,0.39453125
705,0.09375,-1.76953125,0.44140625
706,0.1328125,-1.7890625,0.4453125
707,0.15625,-1.69140625,0.41015625
708,0.0859375,-1.515625,0.40234375
709,0.0546875,-1.33203125,0.37109375
710,-0.0234375,-1.14453125,0.34375
711,-0.03125,-0.90625,0.2734375
712,-0.05078125,-0.76171875,0.22265625
713,-0.078125,-0.57421875,0.13671875
714,-0.12109375,-0.34375,0.06640625
715,-0.2265625,-0.1171875,-0.02734375
716,-0.08984375,-0.13671875,0.0
717,-0.14453125,0.12109375,-0.23828125
718,-0.0625,0.09765625,-0.18359375
719,0.02734375,0.19921875,-0.31640625
720,0.0,0.27734375,-0.44140625
721,0.16796875,0.1015625,-0.30859375
722,0.08984375,0.2265625,-0.37890625
723,0.0234375,0.29296875,-0.3828125
724,0.03515625,0.1953125,-0.27734375
725,0.0078125,0.15234375,-0.25390625
726,-0.00390625,0.08984375,-0.171875
727,0.01171875,0.05078125,-0.1171875
728,0.03515625,0.0078125,-0.05859375
729,0.0703125,0.0078125,-0.01953125
730,0.08984375,-0.0078125,0.0
731,0.12890625,-0.03515625,-0.04296875
732,0.171875,-0.0859375,-0.0703125
733,0.17578125,-0.1328125,-0.07421875
734,0.19921875,-0.17578125,-0.0859375
735,0.2109375,-0.19921875,-0.05859375
736,0.19921875,-0.22265625,-0.03515625
737,0.16796875,-0.25,-0.015625
738,0.09765625,-0.328125,-0.2265625
739,0.14453125,-0.421875,-0.33984375
740,0.07421875,-0.4140625,-0.65234375
741,-0.0859375,-0.52734375,-0.93359375
742,-0.00390625,-0.7109375,-1.0078125
743,0.03515625,-0.921875,-0.97265625
744,0.1015625,-1.15234375,-0.82421875
745,0.1953125,-1.37109375,-0.4453125
746,0.3125,-1.7109375,-0.0234375
747,0.4765625,-1.90234375,0.32421875
748,0.51953125,-1.96875,0.546875
749,0.37890625,-1.94921875,0.66015625
750,0.203125,-1.82421875,0.45703125
751,0.13671875,-1.765625,0.28125
752,-0.07421875,-1.7734375,0.0
753,-0.25390625,-1.7734375,-0.2578125
754,-0.4765625,-1.70703125,-0.43359375
755,-0.609375,-1.68359375,-0.46875
756,-0.68359375,-1.62890625,-0.31640625
757,-0.7265625,-1.54296875,-0.13671875
758,-0.7265625,-1.40234375,0.00390625
759,-0.64453125,-1.25,0.0625
760,-0.546875,-1.12109375,0.1171875
761,-0.40625,-1.03125,0.171875
762,-0.26171875,-0.99609375,0.19140625
763,-0.13671875,-1.01171875,0.1875
764,-0.05859375,-1.0625,0.16796875
765,-0.00390625,-1.125,0.06640625
766,0.03515625,-1.22265625,0.0
767,0.13671875,-1.28515625,-0.04296875
768,0.203125,-1.38671875,-0.07421875
769,0.234375,-1.48046875,-0.07421875
770,0.23046875,-1.58984375,-0.0703125
771,0.1484375,-1.7109375,-0.0234375
772,0.06640625,-1.78125,0.0078125
773,-0.03125,-1.86328125,0.078125
774,-0.14453125,-1.875,0.13671875
775,-0.24609375,-1.85546875,0.21484375
776,-0.32421875,-1.85546875,0.265625
777,-0.45703125,-1.88671875,0.328125
778,-0.53515625,-1.88671875,0.32421875
779,-0.56640625,-1.78515625,0.2890625
780,-0.60546875,-1.76171875,0.26171875
781,-0.5703125,-1.734375,0.28515625
782,-0.5625,-1.734375,0.328125
783,-0.546875,-1.7421875,0.375
784,-0.49609375,-1.70703125,0.453125
785,-0.4375,-1.6875,0.546875
786,-0.41015625,-1.703125,0.58203125
787,-0.39453125,-1.7109375,0.671875
788,-0.36328125,-1.73828125,0.76171875
789,-0.31640625,-1.69921875,0.67578125
790,-0.2265625,-1.6171875,0.62109375
791,-0.17578125,-1.52734375,0.578125
792,-0.11328125,-1.4375,0.421875
793,-0.046875,-1.23046875,0.2109375
794,0.01171875,-1.03125,0.10546875
795,0.06640625,-0.828125,-0.07421875
796,0.0,-0.69140625,-0.16796875
797,0.0703125,-0.5,-0.19140625
798,0.12890625,-0.30078125,-0.20703125
799,0.1640625,-0.23046875,-0.25
800,0.14453125,-0.11328125,-0.234375
801,0.125,0.0390625,-0.26171875
802,0.12890625,0.0703125,-0.28125
803,0.0625,0.0625,-0.203125
804,-0.03515625,0.0859375,-0.125
805,-0.12890625,0.02734375,-0.203125
806,-0.16796875,-0.02734375,-0.25
807,-0.1875,-0.046875,-0.2421875
808,-0.15234375,-0.0390625,-0.29296875
809,-0.10546875,-0.0546875,-0.30859375
810,-0.0546875,-0.05078125,-0.3046875
811,-0.01953125,-0.05859375,-0.2890625
812,0.0078125,-0.0546875,-0.24609375
813,0.0390625,-0.05859375,-0.1953125
814,0.0390625,-0.0703125,-0.12109375
815,0.04296875,-0.10546875,-0.02734375
816,-0.015625,-0.11328125,0.02734375
817,-0.30078125,-0.1875,-0.4375
818,-0.2890625,-0.33203125,-0.484375
819,-0.3671875,-0.38671875,-0.71484375
820,-0.4921875,-0.28515625,-1.328125
821,-0.53515625,-0.40625,-1.4765625
822,-0.578125,-0.7109375,-1.29296875
823,-0.57421875,-1.0,-0.8515625
824,-0.703125,-1.3046875,-0.58984375
825,-0.8046875,-1.5234375,-0.234375
826,-0.796875,-1.7265625,-0.01171875
827,-0.81640625,-1.86328125,0.265625
828,-0.6171875,-1.9765625,0.140625
829,-0.3671875,-2.015625,0.11328125
830,-0.2265625,-1.9453125,-0.08984375
831,-0.01953125,-1.90234375,-0.25390625
832,0.0703125,-1.8828125,-0.30078125
833,0.30859375,-1.9140625,-0.37890625
834,0.515625,-1.85546875,-0.44140625
835,0.58203125,-1.80078125,-0.30859375
836,0.51171875,-1.70703125,-0.15234375
837,0.45703125,-1.5625,0.0
838,0.37109375,-1.39453125,0.0546875
839,0.2890625,-1.234375,0.0390625
840,0.17578125,-1.1171875,0.0078125
841,0.046875,-0.9921875,-0.078125
842,-0.0859375,-0.90234375,-0.10546875
843,-0.2265625,-0.953125,-0.05078125
844,-0.38671875,-1.0703125,0.05859375
845,-0.4921875,-1.22265625,0.1796875
846,-0.62109375,-1.37109375,0.234375
847,-0.63671875,-1.48046875,0.1953125
848,-0.61328125,-1.55859375,0.14453125
849,-0.59375,-1.70703125,0.1015625
850,-0.5546875,-1.828125,0.109375
851,-0.51953125,-1.96484375,0.078125
852,-0.421875,-2.046875,0.09375
853,-0.296875,-2.1171875,0.078125
854,-0.16015625,-2.13671875,0.0625
855,-0.03125,-2.1484375,0.0703125
856,0.046875,-2.109375,0.0625
857,0.078125,-2.0546875,0.05078125
858,0.11328125,-1.97265625,0.09375
859,0.0859375,-1.88671875,0.125
860,0.015625,-1.8359375,0.16796875
861,0.0078125,-1.75,0.1875
862,-0.0703125,-1.72265625,0.25390625
863,-0.109375,-1.7109375,0.28515625
864,-0.125,-1.6171875,0.2734375
865,-0.140625,-1.578125,0.3125
866,-0.15234375,-1.61328125,0.33203125
867,-0.09375,-1.703125,0.3671875
868,-0.08984375,-1.79296875,0.3828125
869,-0.12109375,-1.76171875,0.3203125
870,-0.16796875,-1.609375,0.1953125
871,-0.1484375,-1.3984375,0.0703125
872,-0.05078125,-1.15234375,-0.03515625
873,0.0546875,-0.921875,-0.078125
874,0.0625,-0.76171875,-0.0859375
875,0.05078125,-0.59765625,-0.08203125
876,0.04296875,-0.44140625,-0.11328125
877,0.0703125,-0.3671875,-0.0859375
878,0.203125,-0.40625,-0.0078125
879,0.234375,-0.3359375,-0.00390625
880,0.18359375,-0.21484375,-0.0546875
881,0.08203125,-0.0234375,-0.1171875
882,0.1015625,0.03125,-0.0703125
883,0.14453125,0.08984375,-0.0546875
884,0.17578125,0.11328125,-0.04296875
885,0.125,0.15625,-0.0390625
886,0.0859375,0.23828125,-0.03125
887,0.0703125,0.30859375,-0.02734375
888,0.0859375,0.31640625,-0.05078125
889,0.1171875,0.3125,-0.01953125
890,0.10546875,0.33984375,-0.015625
891,0.12109375,0.3515625,-0.05859375
892,0.13671875,0.3359375,-0.09765625
893,0.1328125,0.3125,-0.12109375
894,0.140625,0.265625,-0.1875
895,0.13671875,0.22265625,-0.19921875
896,0.15625,0.17578125,-0.21484375
897,0.1640625,0.11328125,-0.25390625
898,0.140625,0.05859375,-0.2890625
899,0.1015625,0.0078125,-0.37109375
900,0.08203125,-0.0859375,-0.4296875
901,0.05078125,-0.20703125,-0.51171875
902,0.0078125,-0.37109375,-0.53125
903,-0.05859375,-0.515625,-0.55859375
904,-0.16015625,-0.69921875,-0.5234375
905,-0.25390625,-0.859375,-0.4140625
906,-0.33984375,-1.08203125,-0.27734375
907,-0.33203125,-1.28515625,-0.14453125
908,-0.27734375,-1.48046875,-0.00390625
909,-0.28515625,-1.60546875,0.0625
910,-0.31640625,-1.6796875,0.09765625
911,-0.31640625,-1.73046875,0.1328125
912,-0.28515625,-1.6875,0.125
913,-0.2734375,-1.61328125,0.0859375
914,-0.3046875,-1.5390625,0.015625
915,-0.32421875,-1.51953125,-0.1328125
916,-0.32421875,-1.515625,-0.109375
917,-0.31640625,-1.46484375,-0.16015625
918,-0.2890625,-1.40625,-0.171875
919,-0.2578125,-1.3515625,-0.16796875
920,-0.23828125,-1.3125,-0.1796875
921,-0.2421875,-1.25,-0.21875
922,-0.203125,-1.2109375,-0.25390625
923,-0.15234375,-1.2109375,-0.25
924,-0.09375,-1.24609375,-0.2265625
925,-0.03515625,-1.29296875,-0.13671875
926,0.015625,-1.35546875,-0.05078125
927,0.0625,-1.40625,-0.01171875
928,0.0859375,-1.4296875,-0.0078125
929,0.0859375,-1.42578125,-0.1015625
930,0.08984375,-1.4375,-0.140625
931,0.08984375,-1.45703125,-0.19921875
932,0.0390625,-1.4765625,-0.140625
933,-0.00390625,-1.4921875,-0.0859375
934,-0.078125,-1.48828125,-0.01953125
935,-0.08984375,-1.5078125,-0.00390625
936,-0.10546875,-1.49609375,-0.00390625
937,-0.09765625,-1.5078125,-0.01953125
938,-0.12890625,-1.5,-0.0703125
939,-0.171875,-1.484375,-0.09765625
940,-0.2109375,-1.5,-0.12109375
941,-0.2578125,-1.49609375,-0.15234375
942,-0.28125,-1.4921875,-0.19140625
943,-0.30859375,-1.4765625,-0.22265625
944,-0.30859375,-1.41796875,-0.25390625
945,-0.29296875,-1.34375,-0.30078125
946,-0.265625,-1.25,-0.33984375
947,-0.2265625,-1.19140625,-0.375
948,-0.1796875,-1.09765625,-0.38671875
949,-0.171875,-1.03125,-0.36328125
950,-0.1875,-0.9375,-0.34765625
951,-0.1796875,-0.82421875,-0.41015625
952,-0.140625,-0.73046875,-0.47265625
953,-0.12890625,-0.66015625,-0.51171875
954,-0.125,-0.6015625,-0.54296875
955,-0.12890625,-0.5703125,-0.5625
956,-0.125,-0.56640625,-0.51171875
957,-0.09375,-0.57421875,-0.4375
958,-0.08203125,-0.57421875,-0.30078125
959,-0.05859375,-0.55859375,-0.203125
960,-0.03515625,-0.55859375,-0.14453125
961,-0.03515625,-0.5390625,-0.14453125
962,-0.05859375,-0.51171875,-0.1328125
963,-0.07421875,-0.5078125,-0.2109375
964,-0.05078125,-0.5078125,-0.26171875
965,-0.04296875,-0.4921875,-0.27734375
966,-0.0546875,-0.4453125,-0.31640625
967,-0.046875,-0.3984375,-0.30859375
968,-0.02734375,-0.34765625,-0.32421875
969,-0.02734375,-0.2890625,-0.3046875
970,-0.015625,-0.2734375,-0.30859375
971,0.0078125,-0.27734375,-0.3359375
972,0.01171875,-0.2890625,-0.359375
973,0.03515625,-0.31640625,-0.390625
974,0.015625,-0.328125,-0.453125
975,-0.03125,-0.35546875,-0.4765625
976,-0.08203125,-0.3828125,-0.50390625
977,-0.14453125,-0.40625,-0.63671875
978,-0.19921875,-0.484375,-0.72265625
979,-0.16015625,-0.56640625,-0.82421875
980,-0.1484375,-0.61328125,-0.875
981,-0.13671875,-0.68359375,-0.81640625
982,-0.171875,-0.73046875,-0.82421875
983,-0.20703125,-0.7578125,-0.75
984,-0.26171875,-0.82421875,-0.6953125
985,-0.33203125,-0.859375,-0.70703125
986,-0.41796875,-0.95703125,-0.61328125
987,-0.48046875,-1.01953125,-0.6171875
988,-0.52734375,-1.09765625,-0.4765625
989,-0.578125,-1.12109375,-0.42578125
990,-0.5703125,-1.08984375,-0.390625
991,-0.578125,-1.05859375,-0.3515625
992,-0.56640625,-1.0078125,-0.31640625
993,-0.55078125,-0.93359375,-0.328125
994,-0.52734375,-0.8984375,-0.33984375
995,-0.5,-0.8359375,-0.35546875
996,-0.48046875,-0.76171875,-0.3984375
997,-0.4375,-0.72265625,-0.47265625
998,-0.4140625,-0.6640625,-0.5
999,-0.36328125,-0.63671875,-0.546875
1000,-0.31640625,-0.61328125,-0.5859375
1001,-0.2734375,-0.60546875,-0.66015625
1002,-0.2265625,-0.58984375,-0.67578125
1003,-0.1875,-0.578125,-0.68359375
1004,-0.16796875,-0.56640625,-0.703125
1005,-0.12890625,-0.57421875,-0.67578125
1006,-0.12890625,-0.5703125,-0.69140625
1007,-0.0859375,-0.609375,-0.75
1008,-0.12890625,-0.67578125,-0.62890625
1009,-0.1484375,-0.69140625,-0.63671875
1010,-0.16015625,-0.6484375,-0.61328125
1011,-0.171875,-0.625,-0.61328125
1012,-0.1796875,-0.6015625,-0.58984375
1013,-0.16796875,-0.59765625,-0.578125
1014,-0.1484375,-0.578125,-0.58984375
1015,-0.15625,-0.56640625,-0.59375
1016,-0.14453125,-0.5859375,-0.6171875
1017,-0.15234375,-0.56640625,-0.640625
1018,-0.1484375,-0.58203125,-0.63671875
1019,-0.12890625,-0.5859375,-0.66015625
1020,-0.109375,-0.59765625,-0.66015625
1021,-0.109375,-0.578125,-0.67578125
1022,-0.10546875,-0.56640625,-0.6875
1023,-0.11328125,-0.55078125,-0.6875
1024,-0.125,-0.55078125,-0.73046875
1025,-0.12109375,-0.55859375,-0.7578125
1026,-0.1328125,-0.55859375,-0.765625
1027,-0.1171875,-0.5859375,-0.75390625
1028,-0.125,-0.58984375,-0.734375
1029,-0.1328125,-0.60546875,-0.7109375
1030,-0.12890625,-0.59375,-0.6953125
1031,-0.125,-0.58984375,-0.65625
1032,-0.14453125,-0.5703125,-0.65234375
1033,-0.10546875,-0.56640625,-0.66796875
1034,-0.09765625,-0.55859375,-0.66015625
1035,-0.05859375,-0.56640625,-0.58984375
1036,-0.10546875,-0.55078125,-0.53515625
1037,-0.05078125,-0.5390625,-0.53515625
1038,-0.03125,-0.51953125,-0.50390625
1039,-0.06640625,-0.4921875,-0.46875
1040,-0.078125,-0.4765625,-0.4140625
1041,-0.046875,-0.46875,-0.3984375
1042,-0.03515625,-0.40625,-0.32421875
1043,-0.1328125,-0.39453125,-0.27734375
1044,-0.1171875,-0.296875,-0.1875
1045,-0.08203125,-0.296875,-0.1953125
1046,-0.109375,-0.265625,-0.2109375
1047,-0.05078125,-0.16015625,-0.0390625
1048,-0.07421875,-0.0078125,0.1796875
1049,-0.15234375,-0.02734375,0.23046875
1050,-0.27734375,-0.01953125,0.3359375
1051,-0.2421875,-0.234375,0.28125
1052,-0.2890625,-0.3203125,0.54296875
1053,-0.37109375,-0.3046875,0.64453125
1054,-0.4375,-0.43359375,0.7421875
1055,-0.52734375,-0.52734375,0.59765625
1056,-0.625,-0.55859375,0.4140625
1057,-0.65234375,-0.51953125,0.22265625
1058,-0.59765625,-0.44921875,0.0
1059,-0.55859375,-0.40234375,-0.20703125
1060,-0.53515625,-0.203125,-0.39453125
1061,-0.46484375,-0.01171875,-0.453125
1062,-0.37109375,0.046875,-0.35546875
1063,-0.265625,0.12109375,-0.39453125
1064,-0.234375,0.1484375,-0.453125
1065,-0.17578125,0.26171875,-0.4375
1066,-0.08203125,0.3125,-0.4921875
1067,0.03515625,0.37109375,-0.60546875
1068,0.1796875,0.41796875,-0.6796875
1069,0.28515625,0.44140625,-0.67578125
1070,0.36328125,0.40625,-0.64453125
1071,0.4296875,0.36328125,-0.6640625
1072,0.56640625,0.33203125,-0.74609375
1073,0.6875,0.31640625,-0.80859375
1074,0.7890625,0.3125,-0.85546875
1075,0.94921875,0.3203125,-0.87890625
1076,1.015625,0.40234375,-0.95703125
1077,1.08203125,0.44921875,-1.04296875
1078,1.03125,0.45703125,-1.1171875
1079,1.05859375,0.48046875,-1.2890625
1080,1.03125,0.515625,-1.3828125
1081,0.9453125,0.52734375,-1.4140625
1082,0.92578125,0.5546875,-1.4296875
1083,0.78125,0.5546875,-1.38671875
1084,0.84375,0.6171875,-1.4453125
1085,0.734375,0.578125,-1.34375
1086,0.578125,0.5,-1.22265625
1087,0.54296875,0.51953125,-1.203125
1088,0.4609375,0.50390625,-1.1640625
1089,0.44140625,0.453125,-1.13671875
1090,0.39453125,0.484375,-1.125
1091,0.296875,0.4765625,-0.9453125
1092,0.26953125,0.4296875,-0.796875
1093,0.19921875,0.33203125,-0.7265625
1094,0.26171875,0.078125,-0.6875
1095,0.35546875,-0.1015625,-0.72265625
1096,0.37109375,-0.375,-0.66015625
1097,0.34765625,-0.5234375,-0.60546875
1098,0.2421875,-0.6484375,-0.61328125
1099,0.109375,-0.75,-0.5234375
1100,-0.0546875,-0.796875,-0.484375
1101,-0.08203125,-0.88671875,-0.41015625
1102,-0.0703125,-0.8671875,-0.3671875
1103,-0.30078125,-0.7734375,-0.359375
1104,-0.38671875,-0.76171875,-0.1953125
1105,-0.40234375,-0.65234375,-0.24609375
1106,-0.390625,-0.55078125,-0.04296875
1107,-0.12890625,-0.28125,0.30859375
1108,-0.00390625,-0.25390625,0.375
1109,-0.38671875,-0.05859375,0.43359375
1110,-0.24609375,-0.01171875,0.49609375
1111,0.6171875,0.10546875,0.6796875
1112,0.42578125,0.29296875,0.6640625
1113,0.61328125,0.6953125,0.66796875
1114,1.56640625,0.90625,0.046875
1115,2.59765625,1.86328125,0.44921875
1116,4.3203125,2.70703125,0.140625
1117,4.828125,2.98046875,-0.1328125
1118,5.23828125,2.828125,-0.8828125
1119,5.20703125,2.76953125,-1.375
1120,6.7421875,2.6171875,-1.05078125
1121,7.328125,2.26171875,-1.25390625
1122,7.29296875,1.61328125,-1.7578125
1123,6.97265625,1.65234375,-2.2265625
1124,5.859375,1.84765625,-2.3671875
1125,5.1875,1.87109375,-2.2421875
1126,3.29296875,1.16796875,-1.38671875
1127,2.296875,0.484375,-0.63671875
1128,2.046875,-0.0859375,-0.29296875
1129,1.76171875,-0.15234375,0.015625
1130,1.28125,-0.171875,0.19140625
1131,1.2265625,0.18359375,0.01171875
1132,1.27734375,0.8203125,-0.05859375
1133,0.7265625,0.69140625,0.05859375
1134,0.59765625,0.50390625,0.22265625
1135,0.62109375,0.57421875,0.29296875
1136,0.65625,0.5546875,0.32421875
1137,0.3984375,0.59375,0.29296875
1138,0.3984375,0.83203125,0.30078125
1139,0.8203125,0.9453125,0.15234375
1140,0.87109375,0.921875,0.16796875
1141,0.7265625,0.74609375,0.2421875
1142,0.6953125,0.640625,0.1640625
1143,0.328125,0.6484375,0.078125
1144,0.609375,0.66796875,0.1640625
1145,0.38671875,0.671875,0.0625
1146,0.3515625,0.72265625,0.09765625
1147,0.41796875,0.58203125,0.08203125
1148,0.38671875,0.6640625,0.12890625
1149,0.55859375,0.59765625,0.1640625
1150,0.5703125,0.56640625,0.125
1151,0.59375,0.52734375,0.1640625
1152,0.63671875,0.44921875,0.14453125
1153,1.0546875,0.3671875,0.1640625
1154,0.9296875,0.19140625,0.3359375
1155,0.67578125,0.23828125,0.2109375
1156,0.49609375,0.1796875,0.2109375
1157,0.296875,0.13671875,0.2109375
1158,0.34765625,0.046875,0.2578125
1159,0.45703125,0.04296875,0.3046875
1160,1.01171875,0.1640625,0.30078125
1161,0.3828125,0.20703125,0.28125
1162,0.49609375,0.0390625,0.24609375
1163,0.5859375,0.234375,0.22265625
1164,0.7265625,0.296875,0.18359375
1165,0.76953125,0.296875,0.20703125
1166,0.8984375,0.26171875,0.21875
1167,0.87109375,0.22265625,0.18359375
1168,0.828125,0.18359375,0.08984375
1169,0.98828125,0.28515625,0.0
1170,0.96484375,0.35546875,-0.0234375
1171,0.9921875,0.44921875,-0.08203125
1172,1.03515625,0.4921875,-0.1015625
1173,1.22265625,0.47265625,-0.0625
1174,1.125,0.41015625,-0.09765625
1175,0.984375,0.37890625,-0.0390625
1176,0.69921875,0.3203125,-0.05859375
1177,0.88671875,0.35546875,-0.00390625
1178,0.875,0.34765625,0.0078125
1179,0.7890625,0.37109375,0.0390625
1180,0.796875,0.31640625,0.05859375
1181,0.7421875,0.33203125,0.05078125
1182,0.8828125,0.3515625,-0.03125
1183,0.92578125,0.328125,-0.03515625
1184,0.9765625,0.32421875,-0.09765625
1185,1.07421875,0.375,-0.14453125
1186,1.046875,0.3359375,-0.21484375
1187,1.15234375,0.3046875,-0.2421875
1188,1.20703125,0.30078125,-0.2421875
1189,1.2109375,0.30078125,-0.2421875
1190,1.16015625,0.296875,-0.21875
1191,1.1796875,0.328125,-0.21484375
1192,1.16015625,0.3125,-0.21875
1193,1.15625,0.32421875,-0.19140625
1194,1.12890625,0.3203125,-0.1953125
1195,1.10546875,0.32421875,-0.16796875
1196,1.11328125,0.296875,-0.16015625
1197,1.08984375,0.2578125,-0.14453125
1198,1.07421875,0.2421875,-0.13671875
1199,1.04296875,0.19921875,-0.12109375
1200,1.07421875,0.16015625,-0.10546875
1201,1.07421875,0.12890625,-0.09765625
1202,1.04296875,0.125,-0.109375
1203,0.9921875,0.12109375,-0.11328125
1204,0.9765625,0.12890625,-0.11328125
1205,0.98046875,0.109375,-0.09765625
1206,0.96484375,0.10546875,-0.09765625
1207,0.9296875,0.1171875,-0.08984375
1208,0.90234375,0.125,-0.1015625
1209,0.8828125,0.12890625,-0.1171875
1210,0.87109375,0.15234375,-0.1328125
1211,0.83203125,0.13671875,-0.12109375
1212,0.83203125,0.14453125,-0.15234375
1213,0.81640625,0.1484375,-0.15625
1214,0.83984375,0.13671875,-0.18359375
1215,0.8515625,0.125,-0.18359375
1216,0.8515625,0.12890625,-0.23828125
1217,0.85546875,0.1171875,-0.25
1218,0.87109375,0.1171875,-0.265625
1219,0.8828125,0.09765625,-0.26953125
1220,0.8984375,0.09765625,-0.28515625
1221,0.91796875,0.078125,-0.30078125
1222,0.93359375,0.0703125,-0.296875
1223,0.92578125,0.0703125,-0.3203125
1224,0.9375,0.06640625,-0.3203125
1225,0.96875,0.08203125,-0.33984375
1226,0.96875,0.09375,-0.30859375
1227,0.98046875,0.08984375,-0.31640625
1228,0.9921875,0.09375,-0.3046875
1229,0.99609375,0.08203125,-0.2890625
1230,0.98828125,0.08203125,-0.26953125
1231,1.015625,0.0859375,-0.25390625
1232,1.0078125,0.0703125,-0.234375
1233,1.01953125,0.078125,-0.234375
1234,1.0390625,0.06640625,-0.24609375
1235,1.04296875,0.05078125,-0.25390625
1236,1.02734375,0.0234375,-0.26171875
1237,1.03125,0.01953125,-0.20703125
1238,1.0390625,0.0,-0.26171875
1239,1.02734375,0.0,-0.25
1240,1.03515625,-0.015625,-0.25390625
1241,1.0234375,-0.03125,-0.25390625
1242,1.00390625,-0.02734375,-0.25
1243,1.0078125,-0.01171875,-0.25
1244,1.01171875,-0.0078125,-0.25390625
1245,1.00390625,-0.03125,-0.25
1246,0.984375,-0.0234375,-0.25
1247,0.98828125,0.0,-0.25
1248,0.9765625,-0.01953125,-0.25390625
1249,0.95703125,-0.015625,-0.2734375
1250,0.953125,-0.01171875,-0.27734375
1251,0.9375,-0.01953125,-0.2578125
1252,0.94140625,-0.046875,-0.26171875
1253,0.91015625,-0.0390625,-0.26953125
1254,0.921875,-0.046875,-0.2578125
1255,0.90625,-0.05078125,-0.26171875
1256,0.91796875,-0.0625,-0.2578125
1257,0.90625,-0.0546875,-0.28125
1258,0.9140625,-0.05859375,-0.265625
1259,0.91015625,-0.03515625,-0.2734375
1260,0.9140625,-0.078125,-0.25390625
1261,0.9140625,-0.0703125,-0.26953125
1262,0.91015625,-0.0703125,-0.25
1263,0.92578125,-0.078125,-0.24609375
1264,0.92578125,-0.0703125,-0.24609375
1265,0.92578125,-0.0703125,-0.2578125
1266,0.92578125,-0.0703125,-0.2578125
1267,0.9375,-0.0625,-0.25
1268,0.9375,-0.07421875,-0.25
1269,0.921875,-0.06640625,-0.25390625
1270,0.9453125,-0.078125,-0.26171875
1271,0.9453125,-0.07421875,-0.2578125
1272,0.9453125,-0.0703125,-0.2421875
1273,0.94921875,-0.05078125,-0.25
1274,0.95703125,-0.04296875,-0.24609375
1275,0.9453125,-0.03515625,-0.24609375
1276,0.9609375,-0.0234375,-0.234375
1277,0.96484375,0.0,-0.23828125
1278,0.9609375,-0.01171875,-0.2265625
1279,0.97265625,-0.0078125,-0.234375
1280,0.95703125,0.0,-0.22265625
1281,0.97265625,0.00390625,-0.234375
1282,0.96875,-0.00390625,-0.2421875
1283,0.9609375,0.0078125,-0.24609375
1284,0.953125,0.015625,-0.24609375
1285,0.953125,0.015625,-0.25
1286,0.98046875,0.015625,-0.24609375
1287,0.96484375,0.02734375,-0.23046875
1288,0.95703125,0.03125,-0.234375
1289,0.9609375,0.03515625,-0.23828125
1290,0.96484375,0.0234375,-0.23828125
1291,0.96484375,0.01953125,-0.22265625
1292,0.96484375,0.03125,-0.2265625
1293,0.97265625,0.0234375,-0.22265625
1294,0.9609375,0.01953125,-0.20703125
1295,0.953125,0.03515625,-0.203125
1296,0.953125,0.04296875,-0.2109375
1297,0.94140625,0.046875,-0.21484375
1298,0.96484375,0.0234375,-0.21484375
1299,0.953125,0.03515625,-0.22265625
1300,0.95703125,0.03125,-0.21484375
1301,0.953125,0.03125,-0.21875
1302,0.96484375,0.0390625,-0.21484375
1303,0.96875,0.03515625,-0.2265625
1304,0.9609375,0.03515625,-0.2109375
1305,0.9609375,0.03515625,-0.203125
1306,0.96484375,0.04296875,-0.22265625
1307,0.96484375,0.04296875,-0.2265625
1308,0.96484375,0.0390625,-0.22265625
1309,0.96484375,0.0390625,-0.23046875
1310,0.96875,0.03515625,-0.21875
1311,0.96875,0.05078125,-0.2109375
1312,0.95703125,0.0546875,-0.22265625
1313,0.96875,0.046875,-0.2265625
1314,0.96484375,0.05859375,-0.22265625
1315,0.95703125,0.06640625,-0.22265625
1316,0.9609375,0.0625,-0.2109375
1317,0.9609375,0.078125,-0.22265625
1318,0.96484375,0.05859375,-0.2265625
1319,0.96875,0.06640625,-0.21875
1320,0.96875,0.0703125,-0.2265625
1321,0.96484375,0.0703125,-0.234375
1322,0.96875,0.07421875,-0.2265625
1323,0.96484375,0.08203125,-0.20703125
1324,0.953125,0.0703125,-0.21484375
1325,0.98828125,0.05859375,-0.22265625
1326,0.97265625,0.05859375,-0.21484375
1327,0.96875,0.05859375,-0.2265625
1328,0.984375,0.0546875,-0.203125
1329,0.97265625,0.05078125,-0.2109375
1330,0.97265625,0.0546875,-0.2265625
1331,0.96875,0.046875,-0.2109375
1332,0.96484375,0.046875,-0.21484375
1333,0.96875,0.04296875,-0.21875
1334,0.94921875,0.05078125,-0.22265625
1335,0.953125,0.03125,-0.2109375
1336,0.95703125,0.03125,-0.22265625
1337,0.96875,0.0390625,-0.2109375
1338,0.9609375,0.02734375,-0.2109375
1339,0.953125,0.01953125,-0.21484375
1340,0.95703125,0.03125,-0.22265625
1341,0.9453125,0.01953125,-0.22265625
1342,0.95703125,0.03515625,-0.21875
1343,0.953125,0.01953125,-0.21484375
1344,0.9453125,0.0234375,-0.203125
1345,0.9453125,0.02734375,-0.21484375
1346,0.95703125,0.015625,-0.20703125
1347,0.9609375,0.01171875,-0.22265625
1348,0.9453125,0.0234375,-0.22265625
1349,0.9609375,0.015625,-0.203125
1350,0.9609375,0.015625,-0.23046875
1351,0.9453125,0.0234375,-0.23828125
1352,0.96484375,0.015625,-0.22265625
1353,0.97265625,0.0234375,-0.23046875
1354,0.96484375,0.03125,-0.2265625
1355,0.9765625,0.0234375,-0.203125
1356,0.96484375,0.015625,-0.22265625
1357,0.97265625,0.01953125,-0.23828125
1358,0.95703125,0.01953125,-0.23046875
1359,0.97265625,0.01953125,-0.22265625
1360,0.96875,0.015625,-0.2265625
1361,0.96875,0.02734375,-0.2109375
1362,0.9609375,0.01171875,-0.2109375
1363,0.98046875,0.0234375,-0.234375
1364,0.95703125,0.0234375,-0.21484375
1365,0.96484375,0.01171875,-0.2109375
1366,0.95703125,0.01953125,-0.2265625
1367,0.97265625,0.0234375,-0.2109375
1368,0.96875,0.01953125,-0.2109375
1369,0.9609375,0.01171875,-0.22265625
1370,0.96875,0.01953125,-0.2109375
1371,0.97265625,0.0234375,-0.2265625
1372,0.96875,0.015625,-0.21875
1373,0.95703125,0.0234375,-0.2109375
1374,0.96484375,0.03515625,-0.2265625
1375,0.96484375,0.03125,-0.20703125
1376,0.95703125,0.01953125,-0.21484375
1377,0.96875,0.0234375,-0.2265625
1378,0.96875,0.01171875,-0.21875
1379,0.953125,0.03515625,-0.23046875
1380,0.95703125,0.02734375,-0.21875
1381,0.96484375,0.0234375,-0.2109375
1382,0.9609375,0.02734375,-0.20703125
1383,0.9765625,0.02734375,-0.21484375
1384,0.9609375,0.0234375,-0.22265625
1385,0.953125,0.0234375,-0.20703125
1386,0.95703125,0.0234375,-0.2265625
1387,0.96875,0.03125,-0.2109375
1388,0.97265625,0.03125,-0.21875
1389,0.96875,0.03515625,-0.2265625
1390,0.95703125,0.01953125,-0.22265625
1391,0.9609375,0.01953125,-0.22265625
1392,0.96484375,0.03515625,-0.2265625
1393,0.96875,0.02734375,-0.2109375
1394,0.9609375,0.03515625,-0.21875
1395,0.96875,0.03515625,-0.21875
1396,0.96484375,0.0390625,-0.2265625
1397,0.96484375,0.03125,-0.21875
1398,0.95703125,0.015625,-0.22265625
1399,0.96484375,0.03515625,-0.234375
1400,0.97265625,0.0234375,-0.21875
1401,0.95703125,0.04296875,-0.20703125
1402,0.97265625,0.01953125,-0.2109375
1403,0.96484375,0.0390625,-0.23046875
1404,0.96875,0.0390625,-0.22265625
1405,0.95703125,0.03515625,-0.22265625
1406,0.95703125,0.04296875,-0.21875
1407,0.9609375,0.02734375,-0.21875
1408,0.96484375,0.03515625,-0.22265625
1409,0.98046875,0.01953125,-0.21875
1410,0.96875,0.0234375,-0.2265625
1411,0.96875,0.03515625,-0.21875
1412,0.94921875,0.02734375,-0.22265625
1413,0.9609375,0.02734375,-0.22265625
1414,0.96484375,0.02734375,-0.21484375
1415,0.9609375,0.02734375,-0.21484375
1416,0.96875,0.03515625,-0.21875
1417,0.9609375,0.0234375,-0.2265625
1418,0.95703125,0.03515625,-0.21484375
1419,0.97265625,0.01953125,-0.21875
1420,0.9609375,0.03125,-0.2109375
1421,0.96875,0.02734375,-0.2265625
1422,0.96484375,0.0234375,-0.2109375
1423,0.95703125,0.0234375,-0.21484375
1424,0.97265625,0.02734375,-0.22265625
1425,0.9609375,0.03125,-0.21875
1426,0.96484375,0.03125,-0.2265625
1427,0.96484375,0.03125,-0.23046875
1428,0.9609375,0.03515625,-0.21484375
1429,0.97265625,0.03515625,-0.21484375
1430,0.96484375,0.01953125,-0.2265625
1431,0.953125,0.0390625,-0.21875
1432,0.97265625,0.03125,-0.21875
1433,0.96875,0.03515625,-0.2109375
1434,0.9609375,0.02734375,-0.20703125
1435,0.9609375,0.03125,-0.2109375
1436,0.9609375,0.0234375,-0.21875
1437,0.95703125,0.02734375,-0.20703125
1438,0.9609375,0.03125,-0.21484375
1439,0.9609375,0.03515625,-0.22265625
1440,0.96484375,0.02734375,-0.203125
1441,0.953125,0.04296875,-0.203125
1442,0.96875,0.02734375,-0.21484375
1443,0.96484375,0.04296875,-0.2109375
1444,0.96484375,0.03125,-0.21484375
1445,0.9609375,0.04296875,-0.20703125
1446,0.96875,0.03515625,-0.21875
1447,0.96484375,0.02734375,-0.21875
1448,0.96875,0.0234375,-0.22265625
1449,0.9609375,0.02734375,-0.2109375
1450,0.953125,0.02734375,-0.2109375
1451,0.96875,0.02734375,-0.203125
1452,0.9609375,0.02734375,-0.1953125
1453,0.95703125,0.02734375,-0.203125
1454,0.96484375,0.04296875,-0.21875
1455,0.96484375,0.01953125,-0.21484375
1456,0.96484375,0.03515625,-0.21875
1457,0.96484375,0.02734375,-0.21875
1458,0.96875,0.02734375,-0.2265625
1459,0.9609375,0.03125,-0.22265625
1460,0.96875,0.0390625,-0.2265625
1461,0.9609375,0.03125,-0.203125
1462,0.96484375,0.0390625,-0.21484375
1463,0.96875,0.0390625,-0.2109375
1464,0.96484375,0.0234375,-0.22265625
1465,0.96875,0.03515625,-0.20703125
1466,0.97265625,0.02734375,-0.2265625
1467,0.9765625,0.02734375,-0.20703125
1468,0.97265625,0.03125,-0.2109375
1469,0.96484375,0.0234375,-0.2109375
1470,0.96875,0.03515625,-0.234375
1471,0.96875,0.015625,-0.2265625
1472,0.9609375,0.03125,-0.2109375
1473,0.9609375,0.01953125,-0.21484375
1474,0.96875,0.03125,-0.22265625
1475,0.96484375,0.0234375,-0.2109375
1476,0.96484375,0.03515625,-0.22265625
1477,0.9765625,0.0390625,-0.21484375
1478,0.953125,0.0390625,-0.203125
1479,0.9609375,0.02734375,-0.2265625
1480,0.96484375,0.03125,-0.2109375
1481,0.96875,0.02734375,-0.21484375
1482,0.95703125,0.04296875,-0.22265625
1483,0.96484375,0.02734375,-0.203125
1484,0.96484375,0.02734375,-0.21875
1485,0.96484375,0.03125,-0.2109375
1486,0.9609375,0.03125,-0.2109375
1487,0.96875,0.0234375,-0.21875
1488,0.96484375,0.03515625,-0.2265625
1489,0.9609375,0.02734375,-0.21875
1490,0.96484375,0.0234375,-0.23046875
1491,0.96484375,0.03515625,-0.22265625
1492,0.953125,0.03125,-0.21875
1493,0.9609375,0.03125,-0.22265625
1494,0.9609375,0.03125,-0.22265625
1495,0.96875,0.0390625,-0.22265625
1496,0.97265625,0.02734375,-0.21875
1497,0.95703125,0.0234375,-0.20703125
1498,0.96484375,0.01953125,-0.2265625
1499,0.96875,0.02734375,-0.21484375
1500,0.95703125,0.0390625,-0.22265625
1501,0.97265625,0.0234375,-0.234375
1502,0.96484375,0.03515625,-0.234375
1503,0.96484375,0.02734375,-0.21875
1504,0.9609375,0.03125,-0.21875
1505,0.96484375,0.02734375,-0.21484375
1506,0.95703125,0.03515625,-0.234375
1507,0.953125,0.03125,-0.21484375
1508,0.96484375,0.01953125,-0.22265625
1509,0.96875,0.01953125,-0.21484375
1510,0.953125,0.02734375,-0.20703125
1511,0.96484375,0.01953125,-0.21484375
1512,0.96484375,0.03125,-0.2109375
1513,0.96875,0.02734375,-0.21875
1514,0.9609375,0.0390625,-0.22265625
1515,0.95703125,0.02734375,-0.20703125
1516,0.97265625,0.02734375,-0.21875
1517,0.96484375,0.03515625,-0.21875
1518,0.95703125,0.02734375,-0.21484375
1519,0.9609375,0.02734375,-0.22265625
1520,0.96484375,0.0234375,-0.203125
1521,0.96484375,0.03515625,-0.2109375
1522,0.9609375,0.0390625,-0.20703125
1523,0.96484375,0.0234375,-0.2109375
1524,0.96484375,0.02734375,-0.203125
1525,0.96484375,0.03515625,-0.1953125
1526,0.96875,0.03515625,-0.20703125
1527,0.9765625,0.03515625,-0.21484375
1528,0.9609375,0.03515625,-0.19921875
1529,0.97265625,0.0390625,-0.21875
1530,0.96484375,0.0234375,-0.2109375
1531,0.9609375,0.03515625,-0.22265625
1532,0.984375,0.03125,-0.21484375
1533,0.96875,0.03125,-0.19921875
1534,0.96484375,0.03125,-0.21875
1535,0.9609375,0.0390625,-0.203125
1536,0.95703125,0.03125,-0.22265625
1537,0.96484375,0.0390625,-0.21484375
1538,0.953125,0.03125,-0.2109375
1539,0.9609375,0.03515625,-0.203125
1540,0.9609375,0.02734375,-0.21484375
1541,0.9609375,0.046875,-0.2265625
1542,0.97265625,0.02734375,-0.21875
1543,0.95703125,0.03515625,-0.2265625
1544,0.96484375,0.0390625,-0.19140625
1545,0.9609375,0.03125,-0.20703125
1546,0.96484375,0.0234375,-0.21484375
1547,0.96484375,0.03125,-0.21875
1548,0.9609375,0.02734375,-0.22265625
1549,0.96484375,0.0390625,-0.2109375
1550,0.96484375,0.0390625,-0.20703125
1551,0.96875,0.03125,-0.20703125
1552,0.9609375,0.03125,-0.23828125
1553,0.96484375,0.03125,-0.22265625
1554,0.96484375,0.04296875,-0.20703125
1555,0.97265625,0.03125,-0.2109375
1556,0.9609375,0.03125,-0.22265625
1557,0.96875,0.04296875,-0.22265625
1558,0.953125,0.04296875,-0.21875
1559,0.95703125,0.01953125,-0.21875
1560,0.95703125,0.03125,-0.20703125
1561,0.96875,0.02734375,-0.21875
1562,0.96484375,0.0390625,-0.21484375
1563,0.97265625,0.02734375,-0.203125
1564,0.92578125,0.03125,-0.23828125
1565,0.95703125,0.0234375,-0.2109375
1566,0.95703125,0.02734375,-0.21484375
1567,0.95703125,0.03125,-0.2109375
1568,0.9609375,0.02734375,-0.20703125
1569,0.96875,0.03125,-0.23046875
1570,0.96484375,0.03125,-0.22265625
1571,0.96875,0.0234375,-0.22265625
1572,0.9765625,0.03125,-0.21875
1573,0.9609375,0.03515625,-0.21875
1574,0.96875,0.046875,-0.2109375
1575,0.9609375,0.03515625,-0.22265625
1576,0.95703125,0.03515625,-0.2109375
1577,0.96875,0.03125,-0.2109375
1578,0.9609375,0.0234375,-0.22265625
1579,0.96875,0.03125,-0.203125
1580,0.96484375,0.0234375,-0.21875
1581,0.96875,0.02734375,-0.19921875
1582,0.9765625,0.0390625,-0.20703125
1583,0.95703125,0.02734375,-0.21875
1584,0.97265625,0.03125,-0.21484375
1585,0.97265625,0.03515625,-0.2109375
1586,0.96875,0.02734375,-0.2421875
1587,0.9609375,0.03125,-0.1875
1588,0.9609375,0.03515625,-0.2109375
1589,0.96875,0.02734375,-0.21875
1590,0.95703125,0.03515625,-0.21484375
1591,0.97265625,0.02734375,-0.22265625
1592,0.96875,0.02734375,-0.21484375
1593,0.96484375,0.03515625,-0.203125
1594,0.9765625,0.02734375,-0.22265625
1595,0.9609375,0.03125,-0.203125
1596,0.96484375,0.02734375,-0.22265625
1597,0.94921875,0.04296875,-0.2109375
1598,0.96875,0.03125,-0.2109375
1599,0.96484375,0.0390625,-0.2109375
1600,0.95703125,0.046875,-0.2109375
1601,0.9609375,0.03125,-0.20703125
1602,0.96484375,0.0234375,-0.2109375
1603,0.97265625,0.0390625,-0.2109375
1604,0.9609375,0.02734375,-0.19921875
1605,0.96484375,0.03125,-0.22265625
1606,0.97265625,0.03125,-0.2109375
1607,0.9765625,0.02734375,-0.203125
1608,0.96484375,0.0390625,-0.19140625
1609,0.9765625,0.03125,-0.2109375
1610,0.97265625,0.015625,-0.21484375
1611,0.953125,0.0390625,-0.21484375
1612,0.94921875,0.04296875,-0.203125
1613,0.96484375,0.03515625,-0.21875
1614,0.9609375,0.03515625,-0.21484375
1615,0.96875,0.01953125,-0.21484375
1616,0.95703125,0.0390625,-0.21875
1617,0.96484375,0.0234375,-0.2109375
1618,0.97265625,0.02734375,-0.21875
1619,0.96484375,0.0390625,-0.203125
1620,0.96484375,0.03515625,-0.203125
1621,0.96484375,0.03125,-0.21484375
1622,0.9609375,0.046875,-0.21875
1623,0.96875,0.0390625,-0.22265625
1624,0.9609375,0.03125,-0.2109375
1625,0.96875,0.0390625,-0.21484375
1626,0.96875,0.03515625,-0.21875
1627,0.96484375,0.01953125,-0.2265625
1628,0.96484375,0.0390625,-0.2265625
1629,0.96875,0.03125,-0.21875
1630,0.96875,0.03125,-0.21875
1631,0.96875,0.0234375,-0.19921875
1632,0.9765625,0.02734375,-0.21484375
1633,0.95703125,0.046875,-0.19921875
1634,0.95703125,0.03515625,-0.203125
1635,0.96875,0.02734375,-0.203125
1636,0.96484375,0.02734375,-0.20703125
1637,0.9609375,0.03125,-0.21484375
1638,0.9609375,0.03125,-0.21875
1639,0.96484375,0.01953125,-0.19140625
1640,0.9765625,0.02734375,-0.21875
1641,0.96484375,0.0234375,-0.19921875
1642,0.96875,0.01171875,-0.22265625
1643,0.9609375,0.01953125,-0.21875
1644,0.96484375,0.03125,-0.21484375
1645,0.96484375,0.03515625,-0.21484375
1646,0.9609375,0.0234375,-0.203125
1647,0.96484375,0.02734375,-0.23046875
1648,0.95703125,0.03125,-0.19921875
1649,0.96875,0.03515625,-0.20703125
1650,0.97265625,0.03125,-0.21484375
1651,0.96484375,0.0234375,-0.1796875
1652,0.9765625,0.0234375,-0.2109375
1653,0.9609375,0.02734375,-0.21875
1654,0.9609375,0.02734375,-0.2109375
1655,0.9609375,0.03125,-0.20703125
1656,0.96875,0.03125,-0.20703125
1657,0.9609375,0.03125,-0.21484375
1658,0.96484375,0.03125,-0.21484375
1659,0.9609375,0.03515625,-0.203125
1660,0.97265625,0.0390625,-0.22265625
1661,0.953125,0.02734375,-0.1953125
1662,0.96875,0.02734375,-0.22265625
1663,0.96484375,0.0234375,-0.21484375
1664,0.9765625,0.01953125,-0.2109375
1665,0.95703125,0.03515625,-0.20703125
1666,0.96484375,0.02734375,-0.2109375
1667,0.96484375,0.02734375,-0.22265625
1668,0.95703125,0.01953125,-0.21875
1669,0.96484375,0.03125,-0.21484375
1670,0.9609375,0.03125,-0.203125
1671,0.97265625,0.02734375,-0.19921875
1672,0.9609375,0.04296875,-0.203125
1673,0.95703125,0.03125,-0.2265625
1674,0.95703125,0.04296875,-0.1953125
1675,0.9765625,0.03515625,-0.20703125
1676,0.9765625,0.04296875,-0.20703125
1677,0.9609375,0.03515625,-0.21484375
1678,0.96875,0.0234375,-0.2109375
1679,0.9609375,0.02734375,-0.21875
1680,0.9609375,0.02734375,-0.20703125
1681,0.97265625,0.02734375,-0.203125
1682,0.9609375,0.02734375,-0.203125
1683,0.96875,0.03125,-0.2109375
1684,0.95703125,0.03515625,-0.203125
1685,0.96484375,0.03515625,-0.19921875
1686,0.96484375,0.02734375,-0.2109375
1687,0.96484375,0.01953125,-0.20703125
1688,0.953125,0.03515625,-0.2265625
1689,0.96875,0.03515625,-0.2265625
1690,0.96484375,0.0390625,-0.20703125
1691,0.95703125,0.02734375,-0.203125
1692,0.97265625,0.0234375,-0.21875
1693,0.96484375,0.03515625,-0.20703125
1694,0.9609375,0.0390625,-0.20703125
1695,0.9609375,0.0390625,-0.203125
1696,0.96875,0.02734375,-0.1953125
1697,0.95703125,0.03515625,-0.2109375
1698,0.95703125,0.0390625,-0.203125
1699,0.96484375,0.03125,-0.2109375
1700,0.96484375,0.02734375,-0.22265625
1701,0.9765625,0.046875,-0.22265625
1702,0.96875,0.03125,-0.21875
1703,0.95703125,0.03125,-0.21484375
1704,0.96484375,0.0234375,-0.21875
1705,0.97265625,0.01953125,-0.22265625
1706,0.97265625,0.03515625,-0.203125
1707,0.95703125,0.03515625,-0.20703125
1708,0.96875,0.02734375,-0.2109375
1709,0.96875,0.03125,-0.21484375
1710,0.96875,0.0234375,-0.20703125
1711,0.9609375,0.0390625,-0.2109375
1712,0.9765625,0.02734375,-0.21484375
1713,0.96484375,0.03515625,-0.21484375
1714,0.9609375,0.03125,-0.20703125
1715,0.953125,0.03515625,-0.20703125
1716,0.96875,0.03125,-0.203125
1717,0.96484375,0.0546875,-0.203125
1718,0.96875,0.02734375,-0.203125
1719,0.95703125,0.03125,-0.21484375
1720,0.95703125,0.03125,-0.2265625
1721,0.96875,0.03515625,-0.22265625
1722,0.96484375,0.02734375,-0.203125
1723,0.96484375,0.03125,-0.19921875
1724,0.9609375,0.03125,-0.20703125
1725,0.97265625,0.0390625,-0.21484375
1726,0.97265625,0.0390625,-0.20703125
1727,0.96875,0.046875,-0.21484375
1728,0.96875,0.0390625,-0.19921875
1729,0.96484375,0.02734375,-0.2109375
1730,0.97265625,0.03125,-0.21484375
1731,0.97265625,0.03515625,-0.20703125
1732,0.96484375,0.02734375,-0.20703125
1733,0.96875,0.03125,-0.19921875
1734,0.96875,0.03515625,-0.19921875
1735,0.9609375,0.03515625,-0.20703125
1736,0.96484375,0.04296875,-0.203125
1737,0.95703125,0.03125,-0.21484375
1738,0.9453125,0.03125,-0.23828125
1739,0.95703125,0.02734375,-0.21484375
1740,0.96875,0.03125,-0.203125
1741,0.97265625,0.02734375,-0.19921875
1742,0.98046875,0.02734375,-0.2109375
1743,0.96875,0.03515625,-0.19921875
1744,0.97265625,0.02734375,-0.203125
1745,0.96484375,0.0390625,-0.2109375
1746,0.96484375,0.0390625,-0.22265625
1747,0.9609375,0.0390625,-0.19921875
1748,0.97265625,0.01953125,-0.2109375
1749,0.96875,0.03125,-0.203125
1750,0.96484375,0.02734375,-0.203125
1751,0.96484375,0.02734375,-0.20703125
1752,0.97265625,0.03125,-0.21484375
1753,0.96484375,0.0390625,-0.21484375
1754,0.96484375,0.0390625,-0.20703125
1755,0.96875,0.0390625,-0.203125
1756,0.96875,0.03515625,-0.22265625
1757,0.94921875,0.0390625,-0.21484375
1758,0.96875,0.0390625,-0.20703125
1759,0.95703125,0.03515625,-0.203125
1760,0.9609375,0.04296875,-0.20703125
1761,0.96484375,0.03515625,-0.203125
1762,0.96484375,0.0234375,-0.21875
1763,0.97265625,0.03515625,-0.203125
1764,0.95703125,0.03515625,-0.19140625
1765,0.96875,0.0390625,-0.2109375
1766,0.9609375,0.03125,-0.203125
1767,0.96875,0.03515625,-0.2109375
1768,0.96875,0.04296875,-0.20703125
1769,0.96484375,0.02734375,-0.2109375
1770,0.98046875,0.03125,-0.20703125
1771,0.9609375,0.03125,-0.20703125
1772,0.9765625,0.0234375,-0.2109375
1773,0.953125,0.0390625,-0.19921875
1774,0.97265625,0.03125,-0.2109375
1775,0.9609375,0.03515625,-0.1953125
1776,0.96484375,0.03125,-0.19921875
1777,0.96875,0.03125,-0.20703125
1778,0.9609375,0.03515625,-0.2109375
1779,0.96484375,0.01953125,-0.19921875
1780,0.96875,0.03515625,-0.22265625
1781,0.9609375,0.03515625,-0.20703125
1782,0.9609375,0.03515625,-0.2109375
1783,0.96875,0.02734375,-0.20703125
1784,0.97265625,0.03515625,-0.203125
1785,0.96484375,0.03515625,-0.2109375
1786,0.96484375,0.0390625,-0.1953125
1787,0.9609375,0.03125,-0.21875
1788,0.96484375,0.0234375,-0.20703125
1789,0.96484375,0.03125,-0.21484375
1790,0.97265625,0.02734375,-0.2109375
1791,0.9765625,0.03515625,-0.2109375
1792,0.97265625,0.03125,-0.203125
1793,0.96875,0.0390625,-0.2109375
1794,0.97265625,0.03125,-0.19921875
1795,0.96875,0.0234375,-0.19921875
1796,0.96484375,0.02734375,-0.20703125
1797,0.95703125,0.03515625,-0.22265625
1798,0.96484375,0.0390625,-0.19921875
1799,0.96484375,0.03515625,-0.1953125
1800,0.97265625,0.0390625,-0.203125
1801,0.9609375,0.02734375,-0.203125
1802,0.96484375,0.0390625,-0.21484375
1803,0.97265625,0.03515625,-0.203125
1804,0.98046875,0.07421875,-0.19921875
1805,0.9765625,0.0234375,-0.21484375
1806,0.98046875,0.0234375,-0.19921875
1807,0.97265625,0.01953125,-0.2109375
1808,0.95703125,0.03515625,-0.2109375
1809,0.98046875,0.02734375,-0.21484375
1810,0.9765625,0.03125,-0.21875
1811,0.96484375,0.03515625,-0.21484375
1812,0.97265625,0.03515625,-0.19921875
1813,0.96484375,0.04296875,-0.203125
1814,0.97265625,0.0390625,-0.203125
1815,0.96484375,0.046875,-0.203125
1816,0.96484375,0.0390625,-0.21875
1817,0.95703125,0.03125,-0.2109375
1818,0.97265625,0.03125,-0.21875
1819,0.96484375,0.03515625,-0.203125
1820,0.9609375,0.0234375,-0.19921875
1821,0.96875,0.02734375,-0.203125
1822,0.96484375,0.03515625,-0.203125
1823,0.95703125,0.0234375,-0.1953125
1824,0.95703125,0.03125,-0.19921875
1825,0.96484375,0.02734375,-0.203125
1826,0.94921875,0.01171875,-0.21875
1827,0.97265625,0.0234375,-0.2109375
1828,0.96875,0.02734375,-0.2265625
1829,0.96875,0.0234375,-0.2109375
1830,0.97265625,0.0234375,-0.2109375
1831,0.95703125,0.03515625,-0.20703125
1832,0.96484375,0.0234375,-0.2109375
1833,0.96484375,0.04296875,-0.20703125
1834,0.96875,0.046875,-0.1953125
1835,0.9765625,0.05078125,-0.19921875
1836,0.9609375,0.02734375,-0.19921875
1837,0.9609375,0.03515625,-0.21875
1838,0.97265625,0.02734375,-0.203125
1839,0.96484375,0.02734375,-0.19921875
1840,0.96875,0.03515625,-0.20703125
1841,0.96875,0.0234375,-0.2109375
1842,0.97265625,0.02734375,-0.22265625
1843,0.9765625,0.04296875,-0.1953125
1844,0.95703125,0.0390625,-0.2109375
1845,0.97265625,0.02734375,-0.21484375
1846,0.96875,0.04296875,-0.21484375
1847,0.9765625,0.03515625,-0.20703125
1848,0.96484375,0.0390625,-0.203125
1849,0.96875,0.0234375,-0.203125
1850,0.9609375,0.0390625,-0.203125
1851,0.96484375,0.0390625,-0.21875
1852,0.96484375,0.0390625,-0.2109375
1853,0.96484375,0.03515625,-0.20703125
1854,0.96875,0.0390625,-0.19921875
1855,0.96875,0.03515625,-0.203125
1856,0.97265625,0.03125,-0.2109375
1857,0.9609375,0.03515625,-0.21484375
1858,0.9609375,0.03515625,-0.203125
1859,0.9609375,0.03125,-0.203125
1860,0.96484375,0.0234375,-0.20703125
1861,0.96484375,0.03125,-0.21484375
1862,0.96484375,0.03125,-0.2109375
1863,0.96484375,0.0234375,-0.1953125
1864,0.96875,0.03125,-0.20703125
1865,0.97265625,0.046875,-0.2109375
1866,0.96484375,0.02734375,-0.19140625
1867,0.97265625,0.0390625,-0.21875
1868,0.95703125,0.03515625,-0.1640625
1869,0.97265625,0.03125,-0.21484375
1870,0.9609375,0.02734375,-0.21875
1871,0.96484375,0.03125,-0.203125
1872,0.96484375,0.02734375,-0.203125
1873,0.9609375,0.04296875,-0.19921875
1874,0.97265625,0.01953125,-0.2109375
1875,0.96484375,0.03515625,-0.21875
1876,0.953125,0.02734375,-0.19921875
1877,0.9765625,0.03125,-0.2109375
1878,0.96875,0.03125,-0.19921875
1879,0.96875,0.02734375,-0.19921875
1880,0.9609375,0.04296875,-0.1875
1881,0.97265625,0.0234375,-0.203125
1882,0.97265625,0.01953125,-0.21875
1883,0.9609375,0.046875,-0.2109375
1884,0.96875,0.0234375,-0.20703125
1885,0.96875,0.03515625,-0.1953125
1886,0.9765625,0.02734375,-0.203125
1887,0.96875,0.02734375,-0.2109375
1888,0.9609375,0.02734375,-0.203125
1889,0.9765625,0.0390625,-0.21875
1890,0.96875,0.0234375,-0.19921875
1891,0.9296875,0.04296875,-0.25
1892,0.9609375,0.0390625,-0.19921875
1893,0.97265625,0.03125,-0.20703125
1894,0.96484375,0.03125,-0.1953125
1895,0.953125,0.0390625,-0.21875
1896,0.96875,0.03125,-0.1953125
1897,0.9765625,0.0234375,-0.2109375
1898,0.97265625,0.02734375,-0.2109375
1899,0.96484375,0.03515625,-0.20703125
1900,0.96875,0.03125,-0.20703125
1901,0.9609375,0.04296875,-0.19921875
1902,0.984375,0.03515625,-0.21875
1903,0.9765625,0.03125,-0.21875
1904,0.98046875,0.03125,-0.203125
1905,0.96875,0.0390625,-0.203125
1906,0.9609375,0.0390625,-0.2109375
1907,0.96484375,0.0234375,-0.20703125
1908,0.9609375,0.02734375,-0.20703125
1909,0.96484375,0.01953125,-0.21484375
1910,0.96875,0.03515625,-0.2109375
1911,0.96875,0.0390625,-0.20703125
1912,0.96875,0.03515625,-0.19921875
1913,0.97265625,0.046875,-0.21484375
1914,0.97265625,0.03125,-0.21484375
1915,0.96484375,0.02734375,-0.2109375
1916,0.95703125,0.04296875,-0.203125
1917,0.9765625,0.03515625,-0.2109375
1918,0.97265625,0.01953125,-0.2109375
1919,0.96875,0.03515625,-0.2109375
1920,0.9609375,0.03125,-0.203125
1921,0.96875,0.0234375,-0.20703125
1922,0.96484375,0.0390625,-0.2109375
1923,0.96875,0.0390625,-0.2109375
1924,0.97265625,0.03125,-0.21875
1925,0.96484375,0.03515625,-0.2109375
1926,0.96484375,0.0390625,-0.2109375
1927,0.96484375,0.03515625,-0.2109375
1928,0.96875,0.03515625,-0.20703125
1929,0.97265625,0.0390625,-0.20703125
1930,0.96484375,0.03125,-0.20703125
1931,0.953125,0.0390625,-0.20703125
1932,0.9765625,0.03125,-0.20703125
1933,0.9609375,0.03125,-0.20703125
1934,0.97265625,0.0390625,-0.1953125
1935,0.96484375,0.0390625,-0.20703125
1936,0.96875,0.03515625,-0.19921875
1937,0.9609375,0.03125,-0.203125
1938,0.95703125,0.0390625,-0.20703125
1939,0.9609375,0.05078125,-0.19921875
1940,0.9765625,0.046875,-0.22265625
1941,0.96875,0.02734375,-0.2109375
1942,0.96875,0.0390625,-0.1953125
1943,0.953125,0.0390625,-0.20703125
1944,0.96484375,0.03125,-0.19921875
1945,0.9765625,0.0390625,-0.21484375
1946,0.96484375,0.03515625,-0.21875
1947,0.9765625,0.03515625,-0.203125
1948,0.96484375,0.02734375,-0.20703125
1949,0.96875,0.0390625,-0.19140625
1950,0.96875,0.03125,-0.20703125
1951,0.9765625,0.03515625,-0.2109375
1952,0.9609375,0.01953125,-0.19921875
1953,0.96484375,0.03125,-0.21484375
1954,0.97265625,0.03125,-0.19140625
1955,0.97265625,0.03125,-0.2109375
1956,0.95703125,0.04296875,-0.20703125
1957,0.96484375,0.03515625,-0.203125
1958,0.96484375,0.03125,-0.19921875
1959,0.96875,0.03125,-0.19921875
1960,0.96875,0.03125,-0.203125
1961,0.96484375,0.03125,-0.20703125
1962,0.97265625,0.03515625,-0.21875
1963,0.95703125,0.0390625,-0.20703125
1964,0.97265625,0.0390625,-0.1875
1965,0.96875,0.03515625,-0.21484375
1966,0.96484375,0.0234375,-0.20703125
1967,0.9609375,0.01171875,-0.25
1968,0.96875,0.02734375,-0.19921875
1969,0.96484375,0.0234375,-0.21875
1970,0.9609375,0.0390625,-0.21875
1971,0.96484375,0.03125,-0.2109375
1972,0.96484375,0.03515625,-0.19140625
1973,0.96484375,0.02734375,-0.2109375
1974,0.96875,0.02734375,-0.203125
1975,0.98046875,0.02734375,-0.19921875
1976,0.97265625,0.0234375,-0.19921875
1977,0.96875,0.0234375,-0.2109375
1978,0.94140625,0.01171875,-0.1484375
1979,0.96484375,0.03125,-0.20703125
1980,0.95703125,0.03515625,-0.2109375
1981,0.9609375,0.03515625,-0.23046875
1982,0.9609375,0.0390625,-0.21484375
1983,0.9609375,0.03515625,-0.2265625
1984,0.9609375,0.03515625,-0.2109375
1985,0.96484375,0.03515625,-0.2109375
1986,0.96484375,0.04296875,-0.203125
1987,0.9609375,0.046875,-0.21484375
1988,0.96875,0.01953125,-0.18359375
1989,0.96875,0.02734375,-0.21875
1990,0.96484375,0.01953125,-0.20703125
1991,0.96484375,0.03125,-0.21484375
1992,0.96484375,0.02734375,-0.203125
1993,0.9609375,0.02734375,-0.22265625
1994,0.97265625,0.02734375,-0.2109375
1995,0.9609375,0.0234375,-0.2265625
1996,0.96484375,0.03515625,-0.19921875
1997,0.9609375,0.04296875,-0.203125
1998,0.9609375,0.03515625,-0.19921875
1999,0.9609375,0.03515625,-0.2109375
2000,0.96875,0.0078125,-0.21875
2001,0.96484375,0.03125,-0.1953125
2002,0.97265625,0.04296875,-0.21484375
2003,0.96484375,0.01953125,-0.2109375
2004,0.95703125,0.04296875,-0.1953125
2005,0.96484375,0.0390625,-0.203125
2006,0.97265625,0.03515625,-0.2109375
2007,0.96484375,0.04296875,-0.20703125
2008,0.96875,0.0234375,-0.19921875
2009,0.96484375,0.04296875,-0.2109375
2010,0.97265625,0.03515625,-0.19921875
2011,0.96484375,0.02734375,-0.20703125
2012,0.9765625,0.03125,-0.1953125
2013,0.9609375,0.0390625,-0.22265625
2014,0.96484375,0.03515625,-0.19921875
2015,0.9609375,0.03515625,-0.1953125
2016,0.97265625,0.0390625,-0.19140625
2017,0.95703125,0.05078125,-0.20703125
2018,0.96484375,0.03125,-0.19921875
2019,0.9609375,0.03125,-0.2109375
2020,0.9609375,0.05078125,-0.1875
2021,0.96875,0.03515625,-0.20703125
2022,0.96875,0.03515625,-0.1953125
2023,0.96484375,0.03125,-0.1953125
2024,0.96875,0.03515625,-0.1953125
2025,0.96875,0.03515625,-0.1953125
2026,0.96875,0.0390625,-0.203125
2027,0.9765625,0.03125,-0.19921875
2028,0.9609375,0.03515625,-0.19921875
2029,0.9765625,0.03515625,-0.1953125
2030,0.9609375,0.0390625,-0.19921875
2031,0.97265625,0.03125,-0.2109375
2032,0.96875,0.0390625,-0.203125
2033,0.9765625,0.02734375,-0.19140625
2034,0.96875,0.03125,-0.203125
2035,0.96484375,0.0390625,-0.1953125
2036,0.97265625,0.03125,-0.1953125
2037,0.96875,0.03125,-0.1953125
2038,0.97265625,0.0390625,-0.1796875
2039,0.97265625,0.03515625,-0.1953125
2040,0.96875,0.0390625,-0.19140625
2041,0.95703125,0.03125,-0.203125
2042,0.96484375,0.02734375,-0.1875
2043,0.9453125,0.02734375,-0.1796875
2044,0.984375,0.0390625,-0.1875
2045,0.96484375,0.03125,-0.19140625
2046,0.96875,0.0234375,-0.19921875
2047,0.9765625,0.03125,-0.20703125
2048,0.97265625,0.03515625,-0.203125
2049,0.96875,0.03125,-0.203125
2050,0.98046875,0.0234375,-0.19140625
2051,0.97265625,0.0234375,-0.2109375
2052,0.9765625,0.0390625,-0.16796875
2053,0.97265625,0.03515625,-0.19921875
2054,0.98828125,0.02734375,-0.19921875
2055,0.96484375,0.03125,-0.18359375
2056,0.96875,0.0390625,-0.19140625
2057,0.96875,0.02734375,-0.19140625
2058,0.95703125,0.03515625,-0.20703125
2059,0.9609375,0.02734375,-0.19921875
2060,0.97265625,0.03125,-0.19921875
2061,0.98046875,0.01953125,-0.19921875
2062,0.9609375,0.03515625,-0.19921875
2063,0.984375,0.02734375,-0.19140625
2064,0.96875,0.0390625,-0.203125
2065,0.984375,0.0078125,-0.22265625
2066,0.9609375,0.02734375,-0.2109375
2067,0.96875,0.03125,-0.19140625
2068,0.984375,0.03125,-0.19921875
2069,0.96484375,0.0234375,-0.1953125
2070,0.9609375,0.03515625,-0.1953125
2071,0.96875,0.0390625,-0.1875
2072,0.9609375,0.0390625,-0.1953125
2073,0.97265625,0.03125,-0.1953125
2074,0.9765625,0.03125,-0.1875
2075,0.9765625,0.02734375,-0.18359375
2076,0.96484375,0.03515625,-0.19921875
2077,0.97265625,0.03125,-0.1953125
2078,0.97265625,0.0234375,-0.19921875
2079,0.9765625,0.03125,-0.203125
2080,0.98046875,0.01953125,-0.19921875
2081,0.97265625,0.03125,-0.1953125
2082,0.9765625,0.02734375,-0.19921875
2083,0.98046875,0.02734375,-0.19140625
2084,0.97265625,0.03515625,-0.1875
2085,0.96484375,0.03515625,-0.1875
2086,0.96875,0.03125,-0.19921875
2087,0.9765625,0.03515625,-0.1953125
2088,0.98046875,0.01171875,-0.19921875
2089,0.98046875,0.03125,-0.17578125
2090,0.98046875,0.015625,-0.171875
2091,0.97265625,0.0234375,-0.17578125
2092,0.96484375,0.03125,-0.17578125
2093,0.97265625,0.02734375,-0.18359375
2094,0.98046875,0.0234375,-0.1875
2095,0.9765625,0.03125,-0.1796875
2096,0.9765625,0.0234375,-0.19921875
2097,0.9765625,0.0234375,-0.203125
2098,0.9609375,0.04296875,-0.1796875
2099,0.96875,0.03515625,-0.19140625
2100,0.9765625,0.03515625,-0.1875
2101,0.96875,0.0390625,-0.19140625
2102,0.984375,0.0234375,-0.1953125
2103,0.97265625,0.02734375,-0.19140625
2104,0.96875,0.03125,-0.1953125
2105,0.96484375,0.0234375,-0.203125
2106,0.98046875,0.03125,-0.19921875
2107,0.96875,0.03515625,-0.203125
2108,0.96875,0.01171875,-0.1875
2109,0.96484375,0.03125,-0.1875
2110,0.96875,0.0234375,-0.1953125
2111,0.98046875,0.02734375,-0.18359375
2112,0.9765625,0.02734375,-0.1953125
2113,0.97265625,0.02734375,-0.19140625
2114,0.98046875,0.03515625,-0.1953125
2115,0.97265625,0.03515625,-0.1875
2116,0.96875,0.03125,-0.1875
2117,0.96875,0.03515625,-0.19140625
2118,0.9765625,0.02734375,-0.1953125
2119,0.98046875,0.0234375,-0.1796875
2120,0.9765625,0.03515625,-0.171875
2121,0.984375,0.02734375,-0.1875
2122,0.9609375,0.04296875,-0.19140625
2123,0.98046875,0.0234375,-0.1953125
2124,0.98046875,0.03515625,-0.17578125
2125,0.9765625,0.03125,-0.20703125
2126,0.984375,0.01953125,-0.18359375
2127,0.96484375,0.02734375,-0.1953125
2128,0.97265625,0.0390625,-0.1875
2129,0.98046875,0.03125,-0.1875
2130,0.96484375,0.03125,-0.1875
2131,0.953125,0.015625,-0.203125
2132,0.96484375,0.03125,-0.1875
2133,0.9609375,0.02734375,-0.1796875
2134,0.97265625,0.03515625,-0.1875
2135,0.96875,0.02734375,-0.17578125
2136,0.96484375,0.03125,-0.203125
2137,0.97265625,0.03125,-0.1796875
2138,0.96484375,0.02734375,-0.17578125
2139,0.96484375,0.02734375,-0.18359375
2140,0.96484375,0.0234375,-0.16796875
2141,0.96484375,0.0234375,-0.18359375
2142,0.96484375,0.0234375,-0.1875
2143,0.96484375,0.03515625,-0.18359375
2144,0.9609375,0.02734375,-0.2109375
2145,0.96484375,0.02734375,-0.19140625
2146,0.9765625,0.02734375,-0.1796875
2147,0.96875,0.03125,-0.18359375
2148,0.96875,0.03125,-0.203125
2149,0.97265625,0.04296875,-0.18359375
2150,0.9765625,0.02734375,-0.19140625
2151,0.97265625,0.0234375,-0.18359375
2152,0.97265625,0.02734375,-0.171875
2153,0.97265625,0.03125,-0.18359375
2154,0.9765625,0.02734375,-0.19140625
2155,0.96875,0.03515625,-0.1953125
2156,0.9921875,0.01953125,-0.1875
2157,0.97265625,0.0234375,-0.1796875
2158,0.9765625,0.02734375,-0.1796875
2159,0.96875,0.0390625,-0.1796875
2160,0.97265625,0.03515625,-0.18359375
2161,0.98046875,0.01953125,-0.17578125
2162,0.9765625,0.0234375,-0.17578125
2163,0.9765625,0.02734375,-0.16796875
2164,0.96875,0.02734375,-0.18359375
2165,0.96875,0.02734375,-0.17578125
2166,0.97265625,0.03515625,-0.18359375
2167,0.98046875,0.02734375,-0.1796875
2168,0.9765625,0.01171875,-0.19140625
2169,0.97265625,0.02734375,-0.1796875
2170,0.98046875,0.0390625,-0.19140625
2171,0.97265625,0.04296875,-0.16796875
2172,0.9765625,0.0234375,-0.17578125
2173,0.96875,0.04296875,-0.17578125
2174,0.96484375,0.02734375,-0.171875
2175,0.97265625,0.03125,-0.18359375
2176,0.9765625,0.01953125,-0.1796875
2177,0.97265625,0.03125,-0.16796875
2178,0.9765625,0.02734375,-0.1875
2179,0.97265625,0.03125,-0.1640625
2180,0.9765625,0.02734375,-0.171875
2181,0.98828125,0.0234375,-0.16796875
2182,0.97265625,0.04296875,-0.171875
2183,0.96875,0.02734375,-0.1796875
2184,0.97265625,0.046875,-0.1875
2185,0.98046875,0.01953125,-0.1796875
2186,0.96484375,0.0234375,-0.171875
2187,0.98046875,0.03125,-0.1796875
2188,0.9765625,0.02734375,-0.17578125
2189,0.98828125,0.03125,-0.171875
2190,0.97265625,0.01953125,-0.17578125
2191,0.96484375,0.03125,-0.16015625
2192,0.96875,0.01953125,-0.1796875
2193,0.97265625,0.03125,-0.171875
2194,0.9765625,0.03125,-0.1796875
2195,0.96875,0.05859375,-0.1796875
2196,0.984375,0.02734375,-0.1796875
2197,0.96875,0.0390625,-0.171875
2198,0.98046875,0.03125,-0.17578125
2199,0.984375,0.0234375,-0.16796875
2200,0.98046875,0.01953125,-0.1796875
2201,0.984375,0.0234375,-0.18359375
2202,0.984375,0.03515625,-0.171875
2203,0.9765625,0.0234375,-0.1796875
2204,0.96875,0.03125,-0.1875
2205,0.96484375,0.03515625,-0.1796875
2206,0.98046875,0.02734375,-0.16796875
2207,0.984375,0.02734375,-0.1640625
2208,0.98046875,0.02734375,-0.1796875
2209,0.97265625,0.0234375,-0.1796875
2210,0.97265625,0.03125,-0.1796875
2211,0.984375,0.03515625,-0.18359375
2212,0.97265625,0.02734375,-0.18359375
2213,0.9765625,0.0390625,-0.16796875
2214,0.9765625,0.01171875,-0.1796875
2215,0.96875,0.03125,-0.171875
2216,0.96484375,0.03125,-0.1796875
2217,0.98046875,0.03515625,-0.171875
2218,0.96875,0.04296875,-0.19921875
2219,0.9765625,0.02734375,-0.16015625
2220,0.97265625,0.0234375,-0.16015625
2221,0.98046875,0.0234375,-0.17578125
2222,0.984375,0.03125,-0.171875
2223,0.98046875,0.0234375,-0.16796875
2224,0.98046875,0.03125,-0.1640625
2225,0.984375,0.02734375,-0.17578125
2226,0.984375,0.0234375,-0.17578125
2227,0.9765625,0.02734375,-0.17578125
2228,0.9765625,0.03515625,-0.17578125
2229,0.97265625,0.02734375,-0.17578125
2230,0.984375,0.0234375,-0.18359375
2231,0.9765625,0.02734375,-0.17578125
2232,0.984375,0.0390625,-0.171875
2233,0.98046875,0.03125,-0.17578125
2234,0.98046875,0.03125,-0.1953125
2235,0.98046875,0.03125,-0.1796875
2236,0.96875,0.0234375,-0.1640625
2237,0.9765625,0.02734375,-0.1796875
2238,0.98828125,0.03125,-0.171875
2239,0.96875,0.03125,-0.18359375
2240,0.9921875,0.0390625,-0.171875
2241,0.9765625,0.0234375,-0.1640625
2242,0.98046875,0.0390625,-0.16796875
2243,0.98046875,0.015625,-0.171875
2244,0.96875,0.02734375,-0.1640625
2245,0.984375,0.02734375,-0.1796875
2246,0.96875,0.01953125,-0.19140625
2247,0.97265625,0.03125,-0.1796875
2248,0.9765625,0.03125,-0.1796875
2249,0.98046875,0.03515625,-0.1640625
2250,0.97265625,0.0390625,-0.171875
2251,0.98046875,0.03515625,-0.17578125
2252,0.9765625,0.0234375,-0.16796875
2253,0.9765625,0.0234375,-0.16796875
2254,0.9765625,0.02734375,-0.18359375
2255,0.96484375,0.02734375,-0.16015625
2256,0.98046875,0.02734375,-0.16015625
2257,0.97265625,0.03125,-0.16796875
2258,0.9765625,0.0390625,-0.17578125
2259,0.96484375,0.03515625,-0.18359375
2260,0.98046875,0.03125,-0.15625
2261,0.9765625,0.046875,-0.16796875
2262,0.98046875,0.03515625,-0.16796875
2263,0.98046875,0.02734375,-0.1875
2264,0.9765625,0.02734375,-0.15234375
2265,0.9765625,0.015625,-0.1796875
2266,0.9765625,0.01953125,-0.16015625
2267,0.98828125,0.0234375,-0.1640625
2268,0.98046875,0.01953125,-0.18359375
2269,0.98046875,0.02734375,-0.19140625
2270,0.96875,0.015625,-0.17578125
2271,0.98046875,0.0390625,-0.16796875
2272,0.9921875,0.03125,-0.16015625
2273,0.9765625,0.01953125,-0.17578125
2274,0.98046875,0.02734375,-0.171875
2275,0.96484375,0.03515625,-0.1640625
2276,0.97265625,0.03125,-0.16796875
2277,0.98046875,0.0234375,-0.17578125
2278,0.9765625,0.0234375,-0.17578125
2279,0.984375,0.0234375,-0.171875
2280,0.97265625,0.01953125,-0.18359375
2281,0.9765625,0.03515625,-0.1640625
2282,0.96875,0.0390625,-0.16015625
2283,0.98828125,0.03125,-0.1640625
2284,0.984375,0.02734375,-0.17578125
2285,0.9765625,0.0234375,-0.17578125
2286,0.984375,0.03125,-0.171875
2287,0.9765625,0.01953125,-0.16015625
2288,0.98046875,0.02734375,-0.171875
2289,0.98046875,0.01953125,-0.16796875
2290,0.9765625,0.01953125,-0.1796875
2291,0.97265625,0.02734375,-0.17578125
2292,0.97265625,0.03125,-0.171875
2293,0.98046875,0.02734375,-0.17578125
2294,0.9765625,0.0234375,-0.16796875
2295,0.98046875,0.01953125,-0.16015625
2296,0.9765625,0.015625,-0.1640625
2297,0.98046875,0.03125,-0.1796875
2298,0.98828125,0.0390625,-0.1640625
2299,0.9765625,0.0234375,-0.171875
2300,0.98046875,0.03515625,-0.18359375
2301,0.9921875,0.02734375,-0.16796875
2302,0.97265625,0.02734375,-0.1640625
2303,0.9765625,0.03515625,-0.17578125
2304,0.96875,0.015625,-0.17578125
2305,0.99609375,0.03515625,-0.16796875
2306,0.96875,0.0234375,-0.16796875
2307,0.984375,0.0234375,-0.16796875
2308,0.97265625,0.015625,-0.15625
2309,0.96875,0.02734375,-0.1640625
2310,0.97265625,0.01953125,-0.171875
2311,0.98046875,0.02734375,-0.17578125
2312,0.98046875,0.015625,-0.18359375
2313,0.98046875,0.02734375,-0.18359375
2314,0.984375,0.0234375,-0.18359375
2315,0.98046875,0.02734375,-0.17578125
2316,0.96875,0.03515625,-0.1640625
2317,0.9765625,0.03515625,-0.1796875
2318,0.97265625,0.02734375,-0.16015625
2319,0.96875,0.02734375,-0.17578125
2320,0.97265625,0.02734375,-0.17578125
2321,0.9765625,0.01953125,-0.1640625
2322,0.984375,0.04296875,-0.16015625
2323,0.9765625,0.02734375,-0.1640625
2324,0.9765625,0.03515625,-0.171875
2325,0.97265625,0.03515625,-0.16015625
2326,0.98046875,0.03125,-0.17578125
2327,0.97265625,0.02734375,-0.1484375
2328,0.96875,0.01953125,-0.16015625
2329,0.984375,0.02734375,-0.171875
2330,0.97265625,0.02734375,-0.15625
2331,0.9765625,0.02734375,-0.16796875
2332,0.9765625,0.02734375,-0.16015625
2333,0.9765625,0.0234375,-0.1640625
2334,0.984375,0.01953125,-0.15625
2335,0.98046875,0.02734375,-0.16796875
2336,0.9765625,0.01953125,-0.16796875
2337,0.96484375,0.02734375,-0.16796875
2338,0.98828125,0.015625,-0.1640625
2339,0.9765625,0.015625,-0.15625
2340,0.98046875,0.03515625,-0.1640625
2341,0.97265625,0.02734375,-0.16796875
2342,0.98828125,0.01171875,-0.16015625
2343,0.97265625,0.01953125,-0.16796875
2344,0.98046875,0.02734375,-0.1640625
2345,0.9765625,0.03125,-0.16796875
2346,0.9765625,0.03515625,-0.16796875
2347,0.98046875,0.02734375,-0.16015625
2348,0.98046875,0.01953125,-0.16796875
2349,0.98046875,0.0390625,-0.16796875
2350,0.98828125,0.015625,-0.171875
2351,0.9765625,0.03125,-0.17578125
2352,0.98828125,0.015625,-0.16015625
2353,0.9765625,0.02734375,-0.16796875
2354,0.98046875,0.0234375,-0.171875
2355,0.9765625,0.0234375,-0.16796875
2356,0.9765625,0.01953125,-0.15234375
2357,0.96875,0.04296875,-0.16015625
2358,0.98046875,0.015625,-0.18359375
2359,0.98046875,0.01953125,-0.1640625
2360,0.9765625,0.0234375,-0.1484375
2361,0.9765625,0.0234375,-0.1640625
2362,0.97265625,0.0234375,-0.1640625
2363,0.984375,0.02734375,-0.1640625
2364,0.9765625,0.015625,-0.15625
2365,0.98046875,0.02734375,-0.15625
2366,0.96875,0.03515625,-0.16796875
2367,0.9765625,0.015625,-0.16015625
2368,0.98046875,0.02734375,-0.16796875
2369,0.98828125,0.03515625,-0.16015625
2370,0.98046875,0.0390625,-0.1640625
2371,0.9765625,0.01953125,-0.18359375
2372,0.98046875,0.03125,-0.171875
2373,0.98046875,0.03125,-0.1640625
2374,0.9765625,0.0234375,-0.16796875
2375,0.96875,0.03125,-0.171875
2376,0.984375,0.0234375,-0.16796875
2377,0.98046875,0.015625,-0.16015625
2378,0.984375,0.02734375,-0.171875
2379,0.984375,0.01953125,-0.1640625
2380,0.984375,0.015625,-0.1640625
2381,0.97265625,0.02734375,-0.171875
2382,0.98046875,0.02734375,-0.1640625
2383,0.98046875,0.03515625,-0.16796875
2384,0.98046875,0.02734375,-0.16796875
2385,0.984375,0.01953125,-0.16015625
2386,0.984375,0.01953125,-0.171875
2387,0.98828125,0.02734375,-0.1640625
2388,0.984375,0.015625,-0.1796875
2389,0.9765625,0.0234375,-0.17578125
2390,0.98046875,0.02734375,-0.15625
2391,0.98046875,0.02734375,-0.15234375
2392,0.9921875,0.015625,-0.1875
2393,0.9765625,0.02734375,-0.16015625
2394,0.98046875,0.02734375,-0.171875
2395,0.9765625,0.03515625,-0.15625
2396,0.98046875,0.03125,-0.1640625
2397,0.98046875,0.03515625,-0.16796875
2398,0.98046875,0.015625,-0.1640625
2399,0.98046875,0.0234375,-0.1640625
2400,0.98046875,0.015625,-0.16796875
2401,0.98046875,0.03125,-0.1640625
2402,0.98828125,0.02734375,-0.15625
2403,0.98046875,0.02734375,-0.1484375
2404,0.97265625,0.03515625,-0.1796875
2405,0.984375,0.03125,-0.16796875
2406,0.96875,0.03125,-0.16015625
2407,0.9765625,0.0234375,-0.16015625
2408,0.9765625,0.03125,-0.1640625
2409,0.98046875,0.02734375,-0.15625
2410,0.984375,0.0234375,-0.16015625
2411,0.97265625,0.04296875,-0.17578125
2412,0.984375,0.0234375,-0.15625
2413,0.96875,0.02734375,-0.16796875
2414,0.9765625,0.02734375,-0.171875
2415,0.9765625,0.02734375,-0.1640625
2416,0.98046875,0.0234375,-0.1484375
2417,0.98046875,0.0234375,-0.16015625
2418,0.98046875,0.02734375,-0.171875
2419,0.984375,0.03125,-0.15625
2420,0.9921875,0.015625,-0.16015625
2421,0.98828125,0.01171875,-0.1640625
2422,0.9765625,0.015625,-0.18359375
2423,0.96484375,0.02734375,-0.15234375
2424,0.97265625,0.02734375,-0.16796875
2425,0.98828125,0.01953125,-0.1640625
2426,0.98046875,0.03125,-0.171875
2427,0.984375,0.02734375,-0.16796875
2428,0.96875,0.03515625,-0.16796875
2429,0.9765625,0.03515625,-0.17578125
2430,0.97265625,0.01953125,-0.15234375
2431,0.98046875,0.01953125,-0.18359375
2432,0.97265625,0.03515625,-0.1640625
2433,0.984375,0.03515625,-0.15625
2434,0.97265625,0.01953125,-0.1640625
2435,0.9765625,0.01171875,-0.16796875
2436,0.96875,0.03125,-0.16796875
2437,0.98828125,0.015625,-0.16796875
2438,0.98046875,0.01953125,-0.16796875
2439,0.984375,0.02734375,-0.16796875
2440,0.98046875,0.0234375,-0.16796875
2441,0.9765625,0.02734375,-0.1640625
2442,0.98046875,0.03125,-0.15234375
2443,0.98046875,0.015625,-0.17578125
2444,0.98046875,0.01953125,-0.1640625
2445,0.98828125,0.01953125,-0.16796875
2446,0.98046875,0.02734375,-0.16015625
2447,0.97265625,0.03515625,-0.171875
2448,0.98046875,0.03125,-0.15625
2449,0.98046875,0.0234375,-0.15625
2450,0.9765625,0.0234375,-0.16796875
2451,0.97265625,0.02734375,-0.1640625
2452,0.98046875,0.01953125,-0.16796875
2453,0.98828125,0.0234375,-0.15234375
2454,0.984375,0.0234375,-0.140625
2455,0.984375,0.01953125,-0.15234375
2456,0.98046875,0.01953125,-0.16796875
2457,0.9765625,0.0234375,-0.16796875
2458,0.9765625,0.02734375,-0.1640625
2459,0.97265625,0.03125,-0.17578125
2460,0.9765625,0.02734375,-0.16015625
2461,0.96875,0.03125,-0.16796875
2462,0.984375,0.0234375,-0.16796875
2463,0.9765625,0.0234375,-0.16796875
2464,0.9765625,0.01953125,-0.16796875
2465,0.98046875,0.01953125,-0.16796875
2466,0.9765625,0.02734375,-0.1640625
2467,0.98046875,0.03515625,-0.171875
2468,0.96875,0.03515625,-0.1640625
2469,0.984375,0.02734375,-0.171875
2470,0.98828125,0.02734375,-0.17578125
2471,0.98046875,0.01953125,-0.15234375
2472,0.98046875,0.02734375,-0.1640625
2473,0.98046875,0.0234375,-0.16796875
2474,0.98046875,0.03125,-0.171875
2475,0.97265625,0.0234375,-0.171875
2476,0.9765625,0.0234375,-0.1640625
2477,0.96875,0.02734375,-0.16015625
2478,0.98828125,0.015625,-0.1640625
2479,0.96875,0.04296875,-0.171875
2480,0.97265625,0.01953125,-0.1640625
2481,0.96875,0.02734375,-0.17578125
2482,0.97265625,0.015625,-0.16796875
2483,0.97265625,0.01953125,-0.16796875
2484,0.98046875,0.01953125,-0.171875
2485,0.984375,0.01953125,-0.171875
2486,0.98828125,0.02734375,-0.1796875
2487,0.98046875,0.02734375,-0.17578125
2488,0.984375,0.02734375,-0.1640625
2489,0.984375,0.03125,-0.1640625
2490,0.98046875,0.03125,-0.16796875
2491,0.97265625,0.02734375,-0.15625
2492,0.98046875,0.02734375,-0.15625
2493,0.9765625,0.02734375,-0.171875
2494,0.984375,0.01953125,-0.1640625
2495,0.9765625,0.0234375,-0.1640625
2496,0.97265625,0.0234375,-0.1796875
2497,0.98046875,0.03125,-0.16015625
2498,0.9921875,0.01953125,-0.15625
2499,0.98828125,0.0234375,-0.16796875
2500,0.98046875,0.03125,-0.15625
2501,0.96875,0.01953125,-0.1484375
2502,0.9765625,0.03515625,-0.15234375
2503,0.98046875,0.0234375,-0.15625
2504,0.97265625,0.02734375,-0.16015625
2505,0.984375,0.03515625,-0.1484375
2506,0.98046875,0.0234375,-0.1640625
2507,0.9765625,0.03125,-0.16796875
2508,0.97265625,0.0390625,-0.1640625
2509,0.9765625,0.03515625,-0.1640625
2510,0.98828125,0.0234375,-0.15625
2511,0.984375,0.02734375,-0.16796875
2512,0.98046875,0.03125,-0.15234375
2513,0.97265625,0.03125,-0.16015625
2514,0.98046875,0.0390625,-0.16015625
2515,0.98046875,0.0234375,-0.16796875
2516,0.98046875,0.02734375,-0.171875
2517,0.97265625,0.02734375,-0.16796875
2518,0.984375,0.0234375,-0.15625
2519,0.984375,0.02734375,-0.15234375
2520,0.984375,0.03125,-0.1640625
2521,0.98046875,0.0234375,-0.171875
2522,0.984375,0.02734375,-0.171875
2523,0.98828125,0.0234375,-0.17578125
2524,0.9765625,0.01953125,-0.1640625
2525,0.98828125,0.0234375,-0.1640625
2526,0.984375,0.0234375,-0.1796875
2527,0.984375,0.0234375,-0.171875
2528,0.98828125,0.03125,-0.16796875
2529,0.984375,0.03125,-0.15625
2530,0.96875,0.02734375,-0.15625
2531,0.984375,0.0234375,-0.16015625
2532,0.97265625,0.03515625,-0.15625
2533,0.96875,0.01953125,-0.14453125
2534,0.98046875,0.01953125,-0.16796875
2535,0.9765625,0.02734375,-0.16015625
2536,0.98046875,0.01953125,-0.1640625
2537,0.984375,0.015625,-0.16015625
2538,0.98046875,0.0234375,-0.15625
2539,0.96875,0.02734375,-0.1640625
2540,0.98046875,0.015625,-0.1640625
2541,0.96875,0.0234375,-0.171875
2542,0.98046875,0.01953125,-0.17578125
2543,0.96875,0.00390625,-0.16796875
2544,0.984375,0.01171875,-0.15625
2545,0.9609375,0.02734375,-0.171875
2546,0.97265625,0.03125,-0.1640625
2547,0.97265625,0.01953125,-0.16796875
2548,0.97265625,0.0390625,-0.15234375
2549,0.97265625,0.03125,-0.171875
2550,0.97265625,0.015625,-0.171875
2551,0.98828125,0.03125,-0.16796875
2552,0.98046875,0.01953125,-0.171875
2553,0.984375,0.015625,-0.15625
2554,0.984375,0.01953125,-0.17578125
2555,0.9765625,0.03515625,-0.1640625
2556,0.96484375,0.03125,-0.16015625
2557,0.96484375,0.02734375,-0.1640625
2558,0.984375,0.0234375,-0.16015625
2559,0.98046875,0.02734375,-0.15625
2560,0.98046875,0.0234375,-0.1796875
2561,0.97265625,0.0234375,-0.16796875
2562,0.9765625,0.02734375,-0.16796875
2563,0.984375,0.03125,-0.15625
2564,0.984375,0.015625,-0.15625
2565,0.9765625,0.0234375,-0.17578125
2566,0.9765625,0.015625,-0.16015625
2567,0.97265625,0.03125,-0.171875
2568,0.97265625,0.02734375,-0.171875
2569,0.984375,0.03125,-0.16796875
2570,0.984375,0.03515625,-0.16015625
2571,0.98046875,0.02734375,-0.1640625
2572,0.98046875,0.0234375,-0.171875
2573,0.96875,0.02734375,-0.16796875
2574,0.9765625,0.0234375,-0.1640625
2575,0.98046875,0.0234375,-0.16015625
2576,0.9765625,0.02734375,-0.1796875
2577,0.97265625,0.02734375,-0.16796875
2578,0.97265625,0.01953125,-0.16015625
2579,0.984375,0.02734375,-0.16015625
2580,0.9765625,0.015625,-0.16015625
2581,0.97265625,0.02734375,-0.171875
2582,0.9765625,0.03125,-0.16015625
2583,0.98828125,0.0234375,-0.1796875
2584,0.9765625,0.02734375,-0.17578125
2585,0.98046875,0.01953125,-0.15234375
2586,0.9765625,0.0234375,-0.16796875
2587,1.0,0.0234375,-0.140625
2588,0.984375,0.02734375,-0.171875
2589,0.96875,0.0234375,-0.1640625
2590,0.9765625,0.03125,-0.16015625
2591,0.9765625,0.01953125,-0.15234375
2592,0.96875,0.0390625,-0.15234375
2593,0.97265625,0.03515625,-0.1640625
2594,0.96484375,0.03125,-0.16015625
2595,0.9765625,0.015625,-0.16796875
2596,0.97265625,0.02734375,-0.17578125
2597,0.97265625,0.02734375,-0.16796875
2598,0.9765625,0.03125,-0.171875
2599,0.984375,0.0234375,-0.1796875
2600,0.984375,0.02734375,-0.16796875
2601,0.984375,0.01953125,-0.16796875
2602,0.984375,0.0234375,-0.171875
2603,0.98046875,0.02734375,-0.16796875
2604,0.9765625,0.01953125,-0.1640625
2605,0.9765625,0.03125,-0.16796875
2606,0.98046875,0.03515625,-0.16796875
2607,0.96875,0.03125,-0.15625
2608,0.98046875,0.015625,-0.171875
2609,0.98046875,0.01953125,-0.171875
2610,0.98828125,0.03515625,-0.14453125
2611,0.98046875,0.02734375,-0.17578125
2612,0.9765625,0.01953125,-0.171875
2613,0.96484375,0.03125,-0.16015625
2614,0.98046875,0.0390625,-0.15234375
2615,0.98828125,0.0234375,-0.17578125
2616,0.97265625,0.03125,-0.18359375
2617,0.98828125,0.0234375,-0.16796875
2618,0.984375,0.03125,-0.1640625
2619,0.97265625,0.03125,-0.1640625
2620,0.984375,0.0234375,-0.16015625
2621,0.98046875,0.0234375,-0.16015625
2622,0.9765625,0.0234375,-0.1640625
2623,0.98828125,0.0234375,-0.16796875
2624,0.98046875,0.0234375,-0.16015625
2625,0.984375,0.0234375,-0.171875
2626,0.984375,0.01953125,-0.16015625
2627,0.97265625,0.01953125,-0.16015625
2628,0.984375,0.03125,-0.171875
2629,0.98046875,0.02734375,-0.17578125
2630,0.96875,0.03125,-0.171875
2631,0.97265625,0.0234375,-0.16796875
2632,0.98046875,0.02734375,-0.19140625
2633,0.984375,0.0234375,-0.16796875
2634,0.96484375,0.03125,-0.1640625
2635,0.97265625,0.01953125,-0.1796875
2636,0.96875,0.02734375,-0.171875
2637,0.98046875,0.01953125,-0.171875
2638,0.9921875,0.015625,-0.17578125
2639,0.9765625,0.0234375,-0.16796875
2640,0.98046875,0.0234375,-0.1640625
2641,0.984375,0.03125,-0.15625
2642,0.97265625,0.015625,-0.16796875
2643,0.9765625,0.03125,-0.15625
2644,0.9765625,0.01953125,-0.1640625
2645,0.9765625,0.01953125,-0.16796875
2646,0.96484375,0.0234375,-0.171875
2647,0.96875,0.03125,-0.16796875
2648,0.98046875,0.0234375,-0.1640625
2649,0.984375,0.0390625,-0.1796875
2650,0.98046875,0.0234375,-0.1640625
2651,0.97265625,0.0234375,-0.1796875
2652,0.9765625,0.02734375,-0.18359375
2653,0.9765625,0.01953125,-0.16015625
2654,0.9765625,0.03125,-0.1640625
2655,0.98046875,0.03515625,-0.1640625
2656,0.98046875,0.03515625,-0.16015625
2657,0.98046875,0.02734375,-0.171875
2658,0.9765625,0.03515625,-0.17578125
2659,0.9765625,0.03125,-0.16796875
2660,0.98046875,0.0234375,-0.16015625
2661,0.9765625,0.03515625,-0.16796875
2662,0.9765625,0.0390625,-0.171875
2663,0.9765625,0.0234375,-0.16796875
2664,0.96875,0.03125,-0.17578125
2665,0.9765625,0.03125,-0.17578125
2666,0.984375,0.0390625,-0.15625
2667,0.97265625,0.04296875,-0.1640625
2668,0.97265625,0.03125,-0.1640625
2669,0.97265625,0.03125,-0.171875
2670,0.96484375,0.03125,-0.15625
2671,0.96875,0.0390625,-0.171875
2672,0.98046875,0.02734375,-0.1640625
2673,0.97265625,0.015625,-0.1796875
2674,0.98046875,0.0234375,-0.16015625
2675,0.95703125,0.03125,-0.1953125
2676,0.97265625,0.02734375,-0.18359375
2677,0.98046875,0.02734375,-0.17578125
2678,0.98046875,0.02734375,-0.1796875
2679,0.9765625,0.01953125,-0.171875
2680,0.9765625,0.0234375,-0.1796875
2681,0.984375,0.02734375,-0.18359375
2682,0.984375,0.01953125,-0.1640625
2683,0.984375,0.01953125,-0.17578125
2684,0.984375,0.01953125,-0.16796875
2685,0.9765625,0.03515625,-0.18359375
2686,0.98046875,0.01953125,-0.171875
2687,0.984375,0.02734375,-0.1640625
2688,0.97265625,0.03515625,-0.171875
2689,0.96484375,0.04296875,-0.171875
2690,0.9765625,0.03125,-0.17578125
2691,0.96875,0.04296875,-0.15625
2692,0.98828125,0.01953125,-0.16796875
2693,0.98046875,0.0234375,-0.17578125
2694,0.98046875,0.02734375,-0.15625
2695,0.97265625,0.0234375,-0.171875
2696,0.96875,0.02734375,-0.16015625
2697,0.984375,0.015625,-0.1875
2698,0.96875,0.01953125,-0.1640625
2699,0.9765625,0.0234375,-0.1640625
2700,0.9765625,0.03125,-0.1640625
2701,0.96875,0.02734375,-0.15625
2702,0.97265625,0.0234375,-0.16796875
2703,0.97265625,0.02734375,-0.16796875
2704,0.98046875,0.0234375,-0.18359375
2705,0.97265625,0.02734375,-0.1796875
2706,0.98046875,0.01953125,-0.16015625
2707,0.97265625,0.03515625,-0.16796875
2708,0.96875,0.02734375,-0.171875
2709,0.9765625,0.02734375,-0.1640625
2710,0.98046875,0.03125,-0.16796875
2711,0.984375,0.02734375,-0.1875
2712,0.97265625,0.02734375,-0.171875
2713,0.984375,0.0234375,-0.17578125
2714,0.97265625,0.0390625,-0.16015625
2715,0.984375,0.0234375,-0.1640625
2716,0.984375,0.015625,-0.1796875
2717,0.984375,0.03515625,-0.15234375
2718,0.97265625,0.03515625,-0.16796875
2719,0.96484375,0.01953125,-0.15625
2720,0.9765625,0.03125,-0.17578125
2721,0.96875,0.03515625,-0.1875
2722,0.97265625,0.0234375,-0.16015625
2723,0.9765625,0.03515625,-0.15625
2724,0.97265625,0.01953125,-0.171875
2725,0.9765625,0.02734375,-0.171875
2726,0.96484375,0.03515625,-0.1796875
2727,0.984375,0.0234375,-0.1875
2728,0.9765625,0.03125,-0.1796875
2729,0.96875,0.03515625,-0.17578125
2730,0.98828125,0.0234375,-0.1640625
2731,0.9765625,0.03515625,-0.16796875
2732,0.98046875,0.02734375,-0.1640625
2733,0.98046875,0.02734375,-0.17578125
2734,0.984375,0.0234375,-0.16796875
2735,0.98046875,0.03125,-0.17578125
2736,0.98046875,0.03125,-0.171875
2737,0.96875,0.03515625,-0.16796875
2738,0.98046875,0.01953125,-0.1796875
2739,0.984375,0.03125,-0.1796875
2740,0.9921875,0.02734375,-0.18359375
2741,0.98046875,0.01953125,-0.171875
2742,0.98046875,0.01953125,-0.171875
2743,0.97265625,0.02734375,-0.1796875
2744,0.984375,0.0234375,-0.171875
2745,0.97265625,0.02734375,-0.171875
2746,0.984375,0.015625,-0.171875
2747,0.9765625,0.03515625,-0.1640625
2748,0.984375,0.01953125,-0.17578125
2749,0.98828125,0.01953125,-0.17578125
2750,0.98828125,0.0234375,-0.17578125
2751,0.98046875,0.01953125,-0.16796875
2752,0.97265625,0.02734375,-0.171875
2753,0.9765625,0.02734375,-0.1796875
2754,0.984375,0.03125,-0.16796875
2755,0.9765625,0.02734375,-0.16796875
2756,0.97265625,0.0234375,-0.171875
2757,0.96484375,0.02734375,-0.16796875
2758,0.984375,0.0234375,-0.16796875
2759,0.9765625,0.01953125,-0.16015625
2760,0.97265625,0.03125,-0.171875
2761,0.9765625,0.0234375,-0.1796875
2762,0.97265625,0.0390625,-0.19921875
2763,0.9765625,0.03515625,-0.171875
2764,0.98046875,0.03125,-0.16796875
2765,0.9765625,0.01953125,-0.17578125
2766,0.984375,0.01953125,-0.1640625
2767,0.9765625,0.02734375,-0.1796875
2768,0.9765625,0.02734375,-0.17578125
2769,0.97265625,0.02734375,-0.171875
2770,0.9765625,0.03125,-0.16015625
2771,0.9765625,0.04296875,-0.16796875
2772,0.9609375,0.03125,-0.15234375
2773,0.984375,0.01953125,-0.15625
2774,0.98046875,0.03125,-0.171875
2775,0.9765625,0.02734375,-0.1640625
2776,0.984375,0.03125,-0.1640625
2777,0.98046875,0.01953125,-0.171875
2778,0.98046875,0.03125,-0.16015625
2779,0.97265625,0.0234375,-0.16796875
2780,0.984375,0.0234375,-0.16796875
2781,0.984375,0.03125,-0.16015625
2782,0.984375,0.02734375,-0.16796875
2783,0.97265625,0.04296875,-0.15234375
2784,0.98046875,0.03125,-0.1953125
2785,0.9765625,0.02734375,-0.16796875
2786,0.98046875,0.015625,-0.1640625
2787,0.98046875,0.02734375,-0.1796875
2788,0.984375,0.02734375,-0.16796875
2789,0.9765625,0.0234375,-0.17578125
2790,0.9765625,0.0234375,-0.17578125
2791,0.98046875,0.0234375,-0.17578125
2792,0.96875,0.03125,-0.171875
2793,0.984375,0.015625,-0.16015625
2794,0.98046875,0.0234375,-0.15625
2795,0.97265625,0.02734375,-0.15234375
2796,0.98046875,0.0390625,-0.16796875
2797,0.97265625,0.02734375,-0.16015625
2798,0.98046875,0.0234375,-0.16015625
2799,0.9921875,0.01953125,-0.1796875
2800,0.98046875,0.015625,-0.17578125
2801,0.9765625,0.02734375,-0.1796875
2802,0.97265625,0.0390625,-0.17578125
2803,0.9765625,0.03125,-0.171875
2804,0.9765625,0.03125,-0.171875
2805,0.984375,0.0234375,-0.15625
2806,0.9765625,0.03515625,-0.17578125
2807,0.98046875,0.01953125,-0.16796875
2808,0.98046875,0.03125,-0.1640625
2809,0.98828125,0.0390625,-0.16015625
2810,0.9765625,0.01953125,-0.1640625
2811,0.9765625,0.03125,-0.15625
2812,0.97265625,0.0390625,-0.1640625
2813,0.9921875,0.01953125,-0.1796875
2814,0.984375,0.02734375,-0.15625
2815,0.97265625,0.0390625,-0.1640625
2816,0.9765625,0.03125,-0.16796875
2817,0.97265625,0.03515625,-0.16796875
2818,0.98046875,0.01953125,-0.171875
2819,0.98046875,0.0234375,-0.171875
2820,0.9765625,0.03125,-0.1796875
2821,0.9765625,0.04296875,-0.171875
2822,0.98046875,0.02734375,-0.16015625
2823,0.97265625,0.04296875,-0.16796875
2824,0.98046875,0.04296875,-0.171875
2825,0.98046875,0.02734375,-0.16015625
2826,0.9765625,0.02734375,-0.16796875
2827,0.96875,0.0390625,-0.1640625
2828,0.95703125,0.0234375,-0.14453125
2829,0.97265625,0.01953125,-0.15625
2830,0.9765625,0.03515625,-0.15234375
2831,0.9765625,0.03515625,-0.16015625
2832,0.98046875,0.03125,-0.16796875
2833,0.98046875,0.02734375,-0.16796875
2834,0.97265625,0.02734375,-0.16796875
2835,0.97265625,0.0234375,-0.171875
2836,0.98046875,0.02734375,-0.171875
2837,0.97265625,0.03515625,-0.16015625
2838,0.984375,0.0234375,-0.16796875
2839,0.98046875,0.03515625,-0.1640625
2840,0.984375,0.02734375,-0.1640625
2841,0.98828125,0.0234375,-0.15625
2842,0.96875,0.0234375,-0.1640625
2843,0.98828125,0.02734375,-0.16796875
2844,0.97265625,0.015625,-0.16796875
2845,0.9765625,0.02734375,-0.1640625
2846,0.96484375,0.0390625,-0.16015625
2847,0.98046875,0.01953125,-0.16796875
2848,0.9765625,0.03515625,-0.16015625
2849,0.9765625,0.02734375,-0.16015625
2850,0.98046875,0.0390625,-0.1640625
2851,0.97265625,0.0234375,-0.16015625
2852,0.984375,0.01953125,-0.1640625
2853,0.97265625,0.03125,-0.1640625
2854,0.98828125,0.01953125,-0.171875
2855,0.98046875,0.02734375,-0.171875
2856,0.984375,0.01953125,-0.1640625
2857,0.98046875,0.02734375,-0.16015625
2858,0.9765625,0.0234375,-0.15625
2859,0.97265625,0.0234375,-0.16015625
2860,0.984375,0.0234375,-0.1640625
2861,0.98828125,0.02734375,-0.15625
2862,0.984375,0.0234375,-0.17578125
2863,0.984375,0.01953125,-0.15234375
2864,0.9765625,0.01953125,-0.16796875
2865,0.98046875,0.03125,-0.16015625
2866,0.98046875,0.03515625,-0.1640625
2867,0.98828125,0.03125,-0.15234375
2868,0.98046875,0.0390625,-0.15234375
2869,0.98828125,0.03125,-0.1640625
2870,0.9765625,0.03515625,-0.171875
2871,0.97265625,0.03125,-0.16015625
2872,0.98828125,0.03515625,-0.16796875
2873,0.96484375,0.0390625,-0.15625
2874,0.9765625,0.0234375,-0.15234375
2875,0.9765625,0.0234375,-0.1640625
2876,0.98046875,0.01953125,-0.16015625
2877,0.98046875,0.02734375,-0.1484375
2878,0.984375,0.01953125,-0.15234375
2879,0.98046875,0.0234375,-0.15625
2880,0.97265625,0.02734375,-0.15625
2881,0.984375,0.03125,-0.15625
2882,0.9765625,0.03515625,-0.15625
2883,0.9765625,0.02734375,-0.1640625
2884,0.9921875,0.015625,-0.16796875
2885,0.96875,0.03515625,-0.15234375
2886,0.9765625,0.03515625,-0.16796875
2887,0.97265625,0.01953125,-0.1640625
2888,0.984375,0.0234375,-0.16015625
2889,0.984375,0.03125,-0.15625
2890,0.9921875,0.03125,-0.1640625
2891,0.98046875,0.0390625,-0.15234375
2892,0.98046875,0.015625,-0.15234375
2893,0.9765625,0.03125,-0.16015625
2894,0.9765625,0.03125,-0.16015625
2895,0.98046875,0.02734375,-0.15625
2896,0.9765625,0.02734375,-0.16015625
2897,0.984375,0.0234375,-0.1640625
2898,0.98046875,0.03125,-0.17578125
2899,0.98046875,0.02734375,-0.17578125
2900,0.9765625,0.03515625,-0.16796875
2901,0.98046875,0.0234375,-0.1484375
2902,0.98828125,0.0234375,-0.16796875
2903,0.984375,0.02734375,-0.16796875
2904,0.97265625,0.01953125,-0.16015625
2905,0.9765625,0.0234375,-0.16796875
2906,0.984375,0.0234375,-0.16796875
2907,0.98046875,0.03125,-0.16015625
2908,0.984375,0.02734375,-0.16015625
2909,0.9765625,0.0234375,-0.15625
2910,0.99609375,0.02734375,-0.171875
2911,0.984375,0.015625,-0.1484375
2912,0.98046875,0.03515625,-0.15234375
2913,0.98046875,0.01953125,-0.15625
2914,0.98046875,0.03515625,-0.1640625
2915,0.96875,0.01953125,-0.15625
2916,0.98046875,0.02734375,-0.15234375
2917,0.98046875,0.0234375,-0.15625
2918,0.9765625,0.0234375,-0.1484375
2919,0.98046875,0.03125,-0.16015625
2920,0.98046875,0.03125,-0.1640625
2921,0.984375,0.015625,-0.1640625
2922,0.9765625,0.0234375,-0.1640625
2923,0.97265625,0.0234375,-0.1484375
2924,0.984375,0.01953125,-0.16015625
2925,0.97265625,0.03125,-0.1484375
2926,0.9765625,0.02734375,-0.1640625
2927,0.96875,0.03125,-0.16015625
2928,0.9765625,0.03125,-0.16796875
2929,0.984375,0.03125,-0.15625
2930,0.984375,0.02734375,-0.14453125
2931,0.9765625,0.03515625,-0.16796875
2932,0.984375,0.02734375,-0.16015625
2933,0.9765625,0.0234375,-0.16796875
2934,0.984375,0.0234375,-0.16015625
2935,0.9921875,0.03125,-0.1484375
2936,0.984375,0.01953125,-0.15625
2937,0.96484375,0.02734375,-0.171875
2938,0.984375,0.0390625,-0.1484375
2939,0.984375,0.03515625,-0.15234375
2940,0.984375,0.02734375,-0.15625
2941,0.984375,0.03515625,-0.1640625
2942,0.9765625,0.03125,-0.15625
2943,0.98046875,0.03515625,-0.15625
2944,0.98046875,0.03125,-0.1640625
2945,0.9765625,0.01953125,-0.1484375
2946,0.9765625,0.01953125,-0.16015625
2947,0.9921875,0.02734375,-0.16796875
2948,0.98046875,0.03125,-0.15234375
2949,0.9921875,0.01953125,-0.140625
2950,0.98046875,0.01953125,-0.15625
2951,0.98046875,0.03515625,-0.171875
2952,0.9921875,0.0234375,-0.1640625
2953,0.9765625,0.01953125,-0.14453125
2954,0.98046875,0.01953125,-0.16015625
2955,0.9765625,0.01953125,-0.17578125
2956,0.97265625,0.01953125,-0.17578125
2957,0.98046875,0.01953125,-0.16796875
2958,0.9765625,0.02734375,-0.16796875
2959,0.97265625,0.0234375,-0.16015625
2960,0.98828125,0.02734375,-0.15625
2961,0.98828125,0.02734375,-0.15625
2962,0.98046875,0.03515625,-0.1640625
2963,0.98046875,0.02734375,-0.15625
2964,0.9765625,0.03125,-0.15625
2965,0.98046875,0.03515625,-0.16015625
2966,0.98828125,0.01953125,-0.16015625
2967,0.9765625,0.03125,-0.15234375
2968,0.97265625,0.02734375,-0.15625
2969,0.9765625,0.02734375,-0.15234375
2970,0.97265625,0.03125,-0.1640625
2971,0.98828125,0.03125,-0.16015625
2972,0.9765625,0.02734375,-0.15625
2973,0.98046875,0.01953125,-0.15625
2974,0.984375,0.02734375,-0.1484375
2975,0.984375,0.02734375,-0.1484375
2976,0.98046875,0.015625,-0.16796875
2977,0.98828125,0.01953125,-0.1640625
2978,0.96875,0.0390625,-0.15625
2979,0.9765625,0.0234375,-0.15234375
2980,0.97265625,0.03125,-0.1640625
2981,0.98828125,0.01953125,-0.1640625
2982,0.98046875,0.02734375,-0.14453125
2983,0.9765625,0.02734375,-0.15625
2984,0.96875,0.0234375,-0.14453125
2985,0.984375,0.01953125,-0.15234375
2986,0.984375,0.03125,-0.15625
2987,0.9921875,0.0234375,-0.15625
2988,0.98046875,0.0234375,-0.15234375
2989,0.9765625,0.03515625,-0.15625
2990,0.9765625,0.02734375,-0.1484375
2991,0.98046875,0.0234375,-0.16015625
2992,0.98046875,0.02734375,-0.15234375
2993,0.9765625,0.01953125,-0.15234375
2994,0.984375,0.03515625,-0.15625
2995,0.98828125,0.03125,-0.16015625
2996,0.9765625,0.01953125,-0.1640625
2997,0.984375,0.02734375,-0.14453125
2998,0.98828125,0.01953125,-0.1484375
2999,0.98828125,0.01953125,-0.15625
