,accelerometerAccelerationX(G),accelerometerAccelerationY(G),accelerometerAccelerationZ(G)
0,0.0,-0.98046875,-0.2265625
1,0.01171875,-0.9765625,-0.21875
2,0.00390625,-0.984375,-0.203125
3,0.0078125,-0.9765625,-0.22265625
4,0.0078125,-0.9921875,-0.23046875
5,0.00390625,-0.98046875,-0.21875
6,0.00390625,-0.9921875,-0.21875
7,0.0078125,-0.9921875,-0.21875
8,0.0078125,-0.98046875,-0.2265625
9,0.0078125,-0.984375,-0.2265625
10,0.01953125,-0.9765625,-0.23046875
11,0.0078125,-0.97265625,-0.2265625
12,0.0,-0.98046875,-0.2109375
13,0.00390625,-0.98046875,-0.21875
14,0.0078125,-0.96875,-0.2421875
15,0.0,-0.98046875,-0.23046875
16,0.01171875,-0.9765625,-0.2265625
17,0.00390625,-0.97265625,-0.22265625
18,0.00390625,-0.984375,-0.234375
19,0.00390625,-0.98046875,-0.2265625
20,0.015625,-0.98046875,-0.22265625
21,0.00390625,-0.96875,-0.21875
22,0.0078125,-0.97265625,-0.234375
23,0.0078125,-0.96875,-0.22265625
24,0.0,-0.97265625,-0.2109375
25,0.0078125,-0.98046875,-0.21875
26,0.0078125,-0.97265625,-0.21484375
27,0.0,-0.98046875,-0.23828125
28,0.00390625,-0.9765625,-0.22265625
29,0.00390625,-0.9765625,-0.2109375
30,0.00390625,-0.984375,-0.21484375
31,0.0,-0.98046875,-0.23828125
32,0.00390625,-0.984375,-0.234375
33,0.0078125,-0.9921875,-0.23046875
34,0.0078125,-0.98046875,-0.234375
35,0.00390625,-0.98828125,-0.22265625
36,0.0,-0.98828125,-0.234375
37,0.0,-0.97265625,-0.234375
38,0.0078125,-0.98046875,-0.23046875
39,0.0,-0.98046875,-0.23046875
40,0.00390625,-0.9765625,-0.23046875
41,0.0078125,-0.98046875,-0.2109375
42,0.01171875,-0.984375,-0.234375
43,0.00390625,-0.9765625,-0.2265625
44,0.00390625,-0.97265625,-0.23046875
45,0.0,-0.984375,-0.23046875
46,0.00390625,-0.98046875,-0.2421875
47,0.01953125,-1.0,-0.2421875
48,0.00390625,-0.984375,-0.23828125
49,0.0,-0.98046875,-0.22265625
50,0.00390625,-0.98046875,-0.234375
51,0.0078125,-0.97265625,-0.2265625
52,0.0078125,-0.97265625,-0.23828125
53,0.01171875,-0.96484375,-0.234375
54,0.0078125,-0.97265625,-0.23046875
55,0.015625,-0.97265625,-0.2421875
56,0.00390625,-0.984375,-0.24609375
57,0.0078125,-0.984375,-0.23828125
58,0.01171875,-0.984375,-0.23046875
59,0.0078125,-0.984375,-0.22265625
60,0.0078125,-0.98828125,-0.23828125
61,0.00390625,-0.984375,-0.23046875
62,-0.00390625,-0.97265625,-0.234375
63,0.01953125,-0.98828125,-0.23046875
64,0.00390625,-0.9765625,-0.234375
65,0.00390625,-0.98046875,-0.22265625
66,0.0,-0.96875,-0.23828125
67,0.00390625,-0.9765625,-0.23828125
68,-0.00390625,-0.97265625,-0.2265625
69,0.01171875,-0.97265625,-0.21484375
70,0.00390625,-0.9765625,-0.234375
71,0.015625,-0.97265625,-0.234375
72,0.0,-0.96875,-0.23046875
73,0.01171875,-0.98046875,-0.2421875
74,0.00390625,-0.96875,-0.234375
75,0.01171875,-0.9765625,-0.23046875
76,0.0,-0.96875,-0.23046875
77,0.0,-0.97265625,-0.23046875
78,0.00390625,-0.97265625,-0.2265625
79,0.00390625,-0.9765625,-0.23046875
80,0.0078125,-0.98046875,-0.23828125
81,0.01171875,-0.98046875,-0.23828125
82,0.00390625,-0.97265625,-0.23046875
83,0.00390625,-0.9765625,-0.23828125
84,0.00390625,-0.9765625,-0.234375
85,0.00390625,-0.97265625,-0.2265625
86,0.01171875,-0.9765625,-0.23046875
87,0.015625,-0.97265625,-0.25
88,0.0078125,-0.97265625,-0.23828125
89,0.0,-0.98046875,-0.21484375
90,0.00390625,-0.98046875,-0.23046875
91,0.00390625,-0.9765625,-0.21875
92,0.0078125,-0.98046875,-0.234375
93,0.00390625,-0.9765625,-0.234375
94,0.0078125,-0.9765625,-0.23046875
95,0.01953125,-0.98828125,-0.2265625
96,0.01171875,-0.97265625,-0.23046875
97,0.0,-0.97265625,-0.234375
98,0.0078125,-0.96875,-0.2265625
99,0.015625,-0.98046875,-0.21875
100,0.0078125,-0.96875,-0.2421875
101,0.0078125,-0.97265625,-0.23828125
102,0.01953125,-0.9765625,-0.23046875
103,0.015625,-0.9765625,-0.23046875
104,0.00390625,-0.98046875,-0.23828125
105,0.01171875,-0.9765625,-0.2265625
106,0.01171875,-0.98046875,-0.21875
107,0.01171875,-0.984375,-0.23828125
108,0.02734375,-0.98046875,-0.22265625
109,0.015625,-0.9921875,-0.23046875
110,0.01953125,-0.984375,-0.2265625
111,0.015625,-0.9921875,-0.234375
112,0.00390625,-0.95703125,-0.2265625
113,0.0078125,-0.97265625,-0.234375
114,0.015625,-0.9765625,-0.22265625
115,0.00390625,-0.9765625,-0.2265625
116,0.00390625,-0.97265625,-0.234375
117,0.0,-0.9765625,-0.2265625
118,0.00390625,-0.9765625,-0.234375
119,0.00390625,-0.96875,-0.23828125
120,0.00390625,-0.97265625,-0.234375
121,0.0,-0.9765625,-0.234375
122,0.0,-0.9765625,-0.2265625
123,0.01171875,-0.9765625,-0.23046875
124,0.0078125,-0.9609375,-0.2265625
125,0.0078125,-0.96875,-0.2265625
126,0.0,-0.9765625,-0.2109375
127,0.01171875,-0.9765625,-0.234375
128,0.0,-0.96875,-0.22265625
129,0.0,-0.9765625,-0.2265625
130,0.015625,-0.97265625,-0.22265625
131,0.0,-0.97265625,-0.23046875
132,0.0,-0.96875,-0.2265625
133,0.00390625,-0.9765625,-0.2421875
134,0.00390625,-0.97265625,-0.2421875
135,0.00390625,-0.98046875,-0.23046875
136,0.0078125,-0.984375,-0.2265625
137,0.0,-0.9765625,-0.234375
138,0.0,-0.98046875,-0.234375
139,0.0,-0.9765625,-0.25
140,0.00390625,-0.984375,-0.234375
141,0.0,-0.9765625,-0.2265625
142,0.0,-0.98046875,-0.2265625
143,0.00390625,-0.9765625,-0.2265625
144,-0.0078125,-0.97265625,-0.2265625
145,0.0,-0.984375,-0.2265625
146,0.00390625,-0.98046875,-0.234375
147,0.00390625,-0.96484375,-0.2421875
148,0.0,-0.98046875,-0.234375
149,0.0,-0.97265625,-0.22265625
150,0.00390625,-0.96484375,-0.22265625
151,0.0,-0.96484375,-0.23046875
152,0.015625,-0.9765625,-0.2265625
153,0.015625,-0.98046875,-0.23828125
154,0.01953125,-0.9765625,-0.25390625
155,0.0078125,-0.984375,-0.2578125
156,0.015625,-0.984375,-0.23828125
157,0.0078125,-0.96875,-0.24609375
158,0.0,-0.96875,-0.2421875
159,0.0078125,-0.98828125,-0.23046875
160,0.0078125,-0.97265625,-0.23828125
161,0.01171875,-0.9921875,-0.234375
162,0.01953125,-0.9765625,-0.234375
163,0.015625,-0.984375,-0.23828125
164,0.0078125,-0.984375,-0.234375
165,0.0078125,-0.96875,-0.22265625
166,0.015625,-0.98046875,-0.234375
167,0.0078125,-0.96875,-0.2265625
168,0.03125,-0.98046875,-0.23046875
169,0.015625,-0.96875,-0.21875
170,0.00390625,-0.97265625,-0.25
171,0.0,-0.97265625,-0.2265625
172,0.00390625,-0.97265625,-0.23828125
173,0.015625,-0.9921875,-0.2421875
174,0.00390625,-0.97265625,-0.23046875
175,0.015625,-0.96875,-0.2421875
176,0.00390625,-0.9765625,-0.25
177,0.0078125,-0.9765625,-0.2421875
178,0.0078125,-0.97265625,-0.23828125
179,0.00390625,-0.97265625,-0.2421875
180,0.0,-0.9765625,-0.25
181,0.0078125,-0.9921875,-0.23828125
182,0.0,-0.98046875,-0.23828125
183,0.0078125,-0.984375,-0.23828125
184,0.01171875,-0.98828125,-0.23046875
185,0.0,-0.96875,-0.24609375
186,0.0078125,-0.97265625,-0.23828125
187,0.015625,-0.984375,-0.2265625
188,0.00390625,-0.97265625,-0.2265625
189,0.00390625,-0.98046875,-0.234375
190,0.01171875,-0.984375,-0.2265625
191,0.00390625,-0.98046875,-0.2421875
192,0.00390625,-0.98046875,-0.234375
193,0.0,-0.98046875,-0.24609375
194,0.0,-0.97265625,-0.23046875
195,0.0,-0.97265625,-0.23046875
196,0.00390625,-0.97265625,-0.2265625
197,0.0,-0.97265625,-0.2265625
198,0.0078125,-0.97265625,-0.2265625
199,0.00390625,-0.97265625,-0.23046875
200,0.0078125,-0.984375,-0.23828125
201,0.0,-0.96875,-0.234375
202,0.0078125,-0.98046875,-0.2265625
203,0.00390625,-0.97265625,-0.23046875
204,0.01171875,-0.9921875,-0.234375
205,0.00390625,-0.9765625,-0.234375
206,0.0078125,-0.98828125,-0.234375
207,0.00390625,-0.98828125,-0.2421875
208,0.0,-0.9765625,-0.23828125
209,0.00390625,-0.96875,-0.234375
210,0.00390625,-0.984375,-0.23828125
211,0.00390625,-0.96875,-0.23046875
212,0.00390625,-0.96875,-0.22265625
213,0.0,-0.97265625,-0.24609375
214,0.015625,-0.98828125,-0.21875
215,0.01171875,-0.9765625,-0.23046875
216,0.0078125,-0.98046875,-0.2265625
217,0.00390625,-0.96875,-0.21875
218,0.0,-0.98046875,-0.22265625
219,0.00390625,-0.96875,-0.2265625
220,0.0,-0.97265625,-0.23046875
221,0.0078125,-0.98046875,-0.2265625
222,0.00390625,-0.9765625,-0.23046875
223,0.01171875,-0.97265625,-0.21875
224,0.015625,-0.97265625,-0.22265625
225,0.00390625,-0.9765625,-0.22265625
226,0.01171875,-0.9765625,-0.23046875
227,0.00390625,-0.97265625,-0.23046875
228,0.01171875,-0.97265625,-0.23046875
229,0.0078125,-0.98046875,-0.23046875
230,-0.00390625,-0.96875,-0.22265625
231,0.00390625,-0.97265625,-0.234375
232,0.0078125,-0.98046875,-0.2109375
233,0.00390625,-0.96484375,-0.2421875
234,0.0,-0.98046875,-0.22265625
235,0.0,-0.97265625,-0.24609375
236,0.00390625,-0.98046875,-0.23046875
237,0.0,-0.9765625,-0.234375
238,0.00390625,-0.9765625,-0.2265625
239,0.0078125,-0.97265625,-0.22265625
240,0.0078125,-0.9765625,-0.2265625
241,0.0,-0.9765625,-0.23046875
242,0.00390625,-0.96875,-0.23046875
243,0.01171875,-0.98046875,-0.234375
244,0.0,-0.96875,-0.20703125
245,0.0078125,-0.9765625,-0.2265625
246,0.0078125,-0.98046875,-0.2265625
247,0.01171875,-0.97265625,-0.2109375
248,0.0078125,-0.97265625,-0.21484375
249,0.0078125,-0.98046875,-0.2265625
250,0.01171875,-0.9765625,-0.23046875
251,0.00390625,-0.97265625,-0.234375
252,0.0,-0.98828125,-0.22265625
253,0.00390625,-0.97265625,-0.21875
254,0.0,-0.97265625,-0.22265625
255,0.0078125,-0.984375,-0.203125
256,0.0078125,-0.984375,-0.23828125
257,0.01171875,-0.97265625,-0.22265625
258,0.0,-0.9765625,-0.23828125
259,0.01171875,-0.98046875,-0.234375
260,0.00390625,-0.9765625,-0.21875
261,0.0078125,-0.96875,-0.21484375
262,0.0,-0.9765625,-0.21484375
263,0.0078125,-0.984375,-0.22265625
264,0.0078125,-0.984375,-0.20703125
265,0.0,-0.97265625,-0.2109375
266,0.00390625,-0.97265625,-0.234375
267,0.00390625,-0.97265625,-0.23046875
268,0.00390625,-0.9765625,-0.22265625
269,0.01171875,-0.98046875,-0.21875
270,0.00390625,-0.9765625,-0.21484375
271,0.00390625,-0.9765625,-0.234375
272,0.0,-0.98046875,-0.22265625
273,0.00390625,-0.9765625,-0.21484375
274,0.0078125,-0.984375,-0.21484375
275,0.0078125,-0.97265625,-0.21875
276,0.0,-0.984375,-0.21484375
277,0.00390625,-0.97265625,-0.21875
278,0.00390625,-0.9765625,-0.21875
279,0.00390625,-0.98046875,-0.2265625
280,0.00390625,-0.97265625,-0.234375
281,0.00390625,-0.984375,-0.21484375
282,0.0,-0.98046875,-0.21484375
283,-0.00390625,-0.9765625,-0.23046875
284,0.00390625,-0.9921875,-0.23046875
285,0.0,-0.98046875,-0.2265625
286,0.00390625,-0.98046875,-0.21875
287,0.00390625,-0.9765625,-0.21875
288,0.00390625,-0.9765625,-0.2265625
289,0.0078125,-0.98828125,-0.21484375
290,0.00390625,-0.98046875,-0.2265625
291,0.0078125,-0.98828125,-0.2265625
292,0.0078125,-0.984375,-0.2109375
293,0.00390625,-0.9765625,-0.21484375
294,0.0,-0.98828125,-0.21875
295,0.00390625,-0.98046875,-0.22265625
296,0.0,-0.9765625,-0.21484375
297,0.015625,-0.9921875,-0.20703125
298,0.0,-0.9765625,-0.21484375
299,0.00390625,-0.98046875,-0.24609375
300,0.0,-0.98046875,-0.21875
301,0.0,-0.9765625,-0.20703125
302,0.01171875,-0.9765625,-0.21484375
303,0.0,-0.984375,-0.21875
304,0.01171875,-0.9765625,-0.22265625
305,0.0078125,-0.97265625,-0.21875
306,0.00390625,-0.9765625,-0.20703125
307,0.00390625,-0.98828125,-0.20703125
308,0.00390625,-0.97265625,-0.21875
309,0.015625,-0.99609375,-0.21484375
310,0.0,-0.99609375,-0.23046875
311,0.0,-0.984375,-0.2265625
312,0.0,-0.99609375,-0.21875
313,0.0,-0.984375,-0.20703125
314,0.01171875,-0.9921875,-0.203125
315,0.0,-0.97265625,-0.22265625
316,0.0078125,-0.97265625,-0.23046875
317,0.0078125,-0.96875,-0.19921875
318,0.0,-0.97265625,-0.21484375
319,-0.0078125,-0.96875,-0.21484375
320,0.0,-0.984375,-0.20703125
321,0.015625,-0.9765625,-0.2265625
322,0.00390625,-0.97265625,-0.21484375
323,0.01171875,-0.97265625,-0.2109375
324,0.015625,-0.98828125,-0.2265625
325,0.00390625,-0.97265625,-0.21875
326,0.01171875,-0.98828125,-0.21484375
327,0.00390625,-0.9765625,-0.2109375
328,0.0,-0.97265625,-0.2109375
329,0.0,-0.984375,-0.21875
330,0.0,-0.98046875,-0.21875
331,0.01171875,-0.9921875,-0.22265625
332,0.00390625,-0.97265625,-0.203125
333,0.0078125,-0.9921875,-0.2109375
334,0.00390625,-0.984375,-0.20703125
335,0.0,-0.98046875,-0.20703125
336,0.0,-0.9921875,-0.20703125
337,0.00390625,-0.984375,-0.21484375
338,0.00390625,-0.984375,-0.2109375
339,0.0,-0.97265625,-0.20703125
340,0.0078125,-0.9765625,-0.20703125
341,0.0,-0.98828125,-0.21875
342,0.00390625,-0.98046875,-0.19921875
343,0.0078125,-0.984375,-0.20703125
344,0.00390625,-0.97265625,-0.20703125
345,0.01171875,-0.9921875,-0.19921875
346,0.00390625,-0.98046875,-0.2109375
347,0.00390625,-0.9765625,-0.20703125
348,0.0078125,-0.984375,-0.1953125
349,0.0078125,-0.99609375,-0.19921875
350,0.0,-0.98046875,-0.20703125
351,0.00390625,-0.97265625,-0.2109375
352,0.0,-0.984375,-0.203125
353,0.00390625,-0.98046875,-0.1953125
354,0.0078125,-0.98828125,-0.20703125
355,0.0078125,-0.984375,-0.20703125
356,0.00390625,-0.984375,-0.18359375
357,0.00390625,-0.9765625,-0.20703125
358,0.00390625,-0.98046875,-0.20703125
359,0.0078125,-0.98046875,-0.19140625
360,0.00390625,-0.9765625,-0.21875
361,0.00390625,-0.98046875,-0.19921875
362,0.00390625,-0.98046875,-0.19921875
363,0.00390625,-0.97265625,-0.19921875
364,0.0234375,-1.0078125,-0.19921875
365,0.00390625,-0.9765625,-0.203125
366,0.0,-0.97265625,-0.20703125
367,0.015625,-0.984375,-0.19921875
368,0.00390625,-0.984375,-0.19921875
369,0.01171875,-0.984375,-0.203125
370,0.0078125,-0.9765625,-0.19921875
371,0.015625,-0.99609375,-0.21484375
372,0.00390625,-0.98046875,-0.19140625
373,0.00390625,-0.984375,-0.20703125
374,0.00390625,-0.99609375,-0.19921875
375,0.0,-0.9765625,-0.20703125
376,0.00390625,-0.984375,-0.20703125
377,0.0078125,-0.984375,-0.20703125
378,0.015625,-0.99609375,-0.2109375
379,0.0,-0.98046875,-0.20703125
380,0.00390625,-0.984375,-0.2265625
381,0.00390625,-0.9765625,-0.19921875
382,0.00390625,-0.97265625,-0.203125
383,0.0,-0.9765625,-0.203125
384,0.0,-0.96875,-0.2109375
385,0.0078125,-0.98046875,-0.20703125
386,0.0078125,-0.9765625,-0.22265625
387,-0.0078125,-0.96875,-0.203125
388,0.00390625,-0.98046875,-0.21875
389,0.00390625,-0.98046875,-0.2109375
390,0.00390625,-0.984375,-0.203125
391,0.015625,-0.984375,-0.203125
392,0.0,-0.9765625,-0.1875
393,0.0078125,-0.984375,-0.1953125
394,0.0078125,-0.984375,-0.19921875
395,0.0,-0.984375,-0.21875
396,0.0078125,-0.98828125,-0.203125
397,0.0,-0.984375,-0.19921875
398,0.0078125,-0.98046875,-0.20703125
399,0.0,-0.984375,-0.20703125
400,0.0078125,-0.98046875,-0.203125
401,0.0078125,-0.984375,-0.1953125
402,0.0,-0.984375,-0.2109375
403,0.00390625,-0.97265625,-0.1875
404,0.01171875,-0.984375,-0.19921875
405,0.0,-0.9765625,-0.203125
406,0.00390625,-0.98828125,-0.19921875
407,-0.00390625,-0.9609375,-0.21484375
408,0.0078125,-0.98828125,-0.1953125
409,0.0078125,-0.984375,-0.1953125
410,0.0,-0.98046875,-0.20703125
411,0.0078125,-0.98046875,-0.203125
412,0.00390625,-0.97265625,-0.19921875
413,0.0078125,-0.98046875,-0.20703125
414,0.00390625,-0.984375,-0.21484375
415,0.00390625,-0.984375,-0.19140625
416,0.0078125,-0.98046875,-0.2109375
417,0.01171875,-0.984375,-0.22265625
418,0.0,-0.984375,-0.20703125
419,0.0078125,-0.98046875,-0.2109375
420,0.015625,-0.98046875,-0.203125
421,0.00390625,-0.98046875,-0.19921875
422,0.0078125,-0.98828125,-0.1875
423,0.0078125,-0.984375,-0.19140625
424,0.0078125,-0.9765625,-0.21875
425,0.01171875,-0.97265625,-0.2109375
426,0.0078125,-0.98828125,-0.19921875
427,0.0078125,-0.984375,-0.203125
428,0.0078125,-0.98828125,-0.19921875
429,0.01171875,-0.96484375,-0.20703125
430,0.00390625,-0.98046875,-0.1953125
431,0.0078125,-0.9765625,-0.19921875
432,0.015625,-0.9765625,-0.21875
433,0.01171875,-0.98046875,-0.20703125
434,0.00390625,-0.97265625,-0.2109375
435,0.00390625,-0.97265625,-0.20703125
436,0.0,-0.98046875,-0.20703125
437,0.00390625,-0.984375,-0.20703125
438,0.00390625,-0.98046875,-0.19921875
439,0.0078125,-0.9921875,-0.203125
440,0.00390625,-0.98046875,-0.2109375
441,0.00390625,-0.99609375,-0.2109375
442,0.00390625,-0.984375,-0.20703125
443,0.0,-0.98828125,-0.19140625
444,0.0078125,-0.98046875,-0.1875
445,0.01171875,-0.98046875,-0.203125
446,0.0,-0.98828125,-0.1953125
447,0.0,-0.98046875,-0.19921875
448,0.0078125,-0.9765625,-0.2109375
449,0.0078125,-0.9765625,-0.19921875
450,0.00390625,-0.96875,-0.20703125
451,0.01953125,-0.98046875,-0.18359375
452,0.0078125,-0.96875,-0.21484375
453,0.00390625,-0.9765625,-0.1875
454,0.00390625,-0.96875,-0.19921875
455,0.0078125,-0.98046875,-0.20703125
456,0.01171875,-0.984375,-0.1953125
457,0.015625,-0.984375,-0.20703125
458,0.0,-0.984375,-0.1953125
459,0.0078125,-0.98828125,-0.19921875
460,0.00390625,-0.97265625,-0.21484375
461,0.0078125,-0.984375,-0.20703125
462,0.01171875,-0.984375,-0.203125
463,0.0078125,-0.98046875,-0.2109375
464,0.00390625,-0.98828125,-0.21484375
465,0.00390625,-0.98046875,-0.20703125
466,0.0078125,-0.984375,-0.21484375
467,0.00390625,-0.98046875,-0.19921875
468,0.0,-0.98046875,-0.22265625
469,0.00390625,-0.98046875,-0.2109375
470,0.0078125,-0.96484375,-0.21484375
471,0.00390625,-0.98046875,-0.2109375
472,0.01953125,-0.98046875,-0.21875
473,0.01171875,-0.98046875,-0.2109375
474,0.00390625,-0.97265625,-0.20703125
475,0.0078125,-0.98828125,-0.1953125
476,0.00390625,-0.98046875,-0.2109375
477,0.01171875,-0.98046875,-0.203125
478,0.0078125,-0.9765625,-0.21484375
479,0.00390625,-0.98046875,-0.203125
480,0.00390625,-0.98046875,-0.1953125
481,0.01171875,-0.9765625,-0.20703125
482,0.015625,-0.98046875,-0.1953125
483,0.01953125,-0.9765625,-0.21484375
484,0.00390625,-0.97265625,-0.22265625
485,0.01953125,-0.98046875,-0.20703125
486,0.015625,-0.98828125,-0.22265625
487,0.015625,-0.9765625,-0.21875
488,0.0078125,-0.98828125,-0.21484375
489,0.01171875,-0.97265625,-0.21484375
490,0.0078125,-0.9765625,-0.2109375
491,0.00390625,-0.9765625,-0.2109375
492,0.015625,-0.9765625,-0.21484375
493,0.0078125,-0.9765625,-0.2109375
494,0.0078125,-0.984375,-0.21484375
495,0.015625,-0.97265625,-0.2109375
496,0.00390625,-0.98046875,-0.21484375
497,0.0078125,-0.98046875,-0.2109375
498,0.0078125,-0.98046875,-0.2109375
499,0.0,-0.98828125,-0.203125
500,0.0,-0.97265625,-0.20703125
501,0.0,-0.984375,-0.2265625
502,0.01953125,-0.9765625,-0.22265625
503,0.015625,-0.9921875,-0.23046875
504,0.0078125,-0.98046875,-0.2265625
505,0.0,-0.97265625,-0.23046875
506,0.0078125,-0.97265625,-0.22265625
507,0.00390625,-0.97265625,-0.21484375
508,0.0078125,-0.98046875,-0.21484375
509,0.0078125,-0.9765625,-0.21875
510,0.0078125,-0.97265625,-0.20703125
511,0.01171875,-0.9765625,-0.2265625
512,0.01171875,-0.98828125,-0.21484375
513,0.0078125,-0.98046875,-0.22265625
514,0.00390625,-0.9765625,-0.2265625
515,0.00390625,-0.9765625,-0.21484375
516,0.0078125,-0.97265625,-0.21875
517,0.00390625,-0.9765625,-0.2265625
518,0.00390625,-0.97265625,-0.21875
519,0.015625,-0.97265625,-0.2265625
520,0.00390625,-0.97265625,-0.21875
521,0.0,-0.96875,-0.2109375
522,0.01171875,-0.98828125,-0.21484375
523,-0.0078125,-0.96875,-0.2109375
524,0.00390625,-0.984375,-0.22265625
525,0.00390625,-0.9765625,-0.22265625
526,0.00390625,-0.97265625,-0.234375
527,0.00390625,-0.97265625,-0.22265625
528,0.00390625,-0.9765625,-0.234375
529,0.0078125,-0.98828125,-0.2265625
530,0.00390625,-0.97265625,-0.22265625
531,0.015625,-0.98046875,-0.234375
532,0.0078125,-0.984375,-0.23046875
533,0.0,-0.97265625,-0.23046875
534,0.01171875,-0.984375,-0.21484375
535,0.0078125,-0.98046875,-0.2265625
536,0.0,-0.9765625,-0.2265625
537,-0.00390625,-0.99609375,-0.1953125
538,0.00390625,-0.984375,-0.2421875
539,0.00390625,-0.984375,-0.23046875
540,0.0078125,-0.98828125,-0.23828125
541,0.0078125,-0.98046875,-0.23828125
542,0.0078125,-0.97265625,-0.23828125
543,0.00390625,-0.98046875,-0.25390625
544,0.0078125,-0.98828125,-0.23828125
545,0.00390625,-0.98046875,-0.23828125
546,0.0,-0.98046875,-0.234375
547,0.00390625,-0.9765625,-0.234375
548,0.0078125,-0.98046875,-0.2265625
549,0.01171875,-0.96875,-0.2421875
550,0.00390625,-0.97265625,-0.25390625
551,0.00390625,-0.9765625,-0.23046875
552,0.01171875,-0.97265625,-0.2421875
553,0.0078125,-0.98046875,-0.25390625
554,0.00390625,-0.97265625,-0.234375
555,0.01171875,-0.98046875,-0.23828125
556,0.0078125,-0.98046875,-0.23828125
557,0.0078125,-0.9765625,-0.23046875
558,0.0,-0.98046875,-0.2421875
559,0.00390625,-0.9765625,-0.23828125
560,0.0,-1.0,-0.234375
561,0.00390625,-0.96875,-0.234375
562,0.01171875,-0.98828125,-0.23828125
563,0.01171875,-0.96484375,-0.25
564,0.0,-0.9765625,-0.2578125
565,0.0,-0.9609375,-0.24609375
566,0.00390625,-0.96875,-0.25390625
567,0.00390625,-0.96875,-0.24609375
568,0.00390625,-0.97265625,-0.25390625
569,0.0,-0.97265625,-0.265625
570,0.015625,-0.98046875,-0.2421875
571,0.0,-0.9921875,-0.2421875
572,0.00390625,-0.9921875,-0.25
573,0.0,-0.98046875,-0.24609375
574,0.00390625,-0.9765625,-0.23828125
575,0.0,-0.9765625,-0.24609375
576,0.0,-0.96484375,-0.24609375
577,0.01171875,-0.9765625,-0.24609375
578,0.0,-0.96875,-0.25
579,0.0,-0.9609375,-0.265625
580,0.00390625,-0.96875,-0.2421875
581,0.0,-0.96875,-0.2578125
582,0.015625,-0.96875,-0.25390625
583,0.00390625,-0.96484375,-0.25390625
584,0.0078125,-0.96484375,-0.26171875
585,0.00390625,-0.96875,-0.24609375
586,0.0078125,-0.9765625,-0.2421875
587,0.0,-0.9765625,-0.2421875
588,0.00390625,-0.9765625,-0.24609375
589,0.01171875,-0.98046875,-0.26171875
590,0.00390625,-0.9765625,-0.2421875
591,0.00390625,-0.9765625,-0.2421875
592,0.00390625,-0.97265625,-0.25
593,0.00390625,-0.96875,-0.2578125
594,0.0,-0.9765625,-0.25
595,0.0078125,-0.96875,-0.24609375
596,0.0078125,-0.97265625,-0.2578125
597,0.00390625,-0.97265625,-0.25390625
598,0.00390625,-0.9765625,-0.25
599,0.01171875,-0.9765625,-0.26953125
600,0.00390625,-0.9765625,-0.26171875
601,0.0078125,-0.98046875,-0.25
602,0.0,-0.98046875,-0.24609375
603,0.0,-0.97265625,-0.25
604,0.00390625,-0.984375,-0.24609375
605,0.0,-0.9765625,-0.2578125
606,0.01953125,-0.9765625,-0.25
607,0.00390625,-0.97265625,-0.24609375
608,0.01171875,-0.98046875,-0.26953125
609,0.0078125,-0.97265625,-0.26171875
610,0.01171875,-0.98046875,-0.27734375
611,0.0,-0.96875,-0.2734375
612,0.015625,-0.984375,-0.265625
613,0.01171875,-0.96875,-0.26171875
614,0.01171875,-0.97265625,-0.2578125
615,0.0078125,-0.97265625,-0.2734375
616,0.0078125,-0.9765625,-0.26171875
617,0.0,-0.96875,-0.24609375
618,0.0078125,-0.9765625,-0.25390625
619,0.0,-0.97265625,-0.2578125
620,0.00390625,-0.96875,-0.26953125
621,0.0,-0.96484375,-0.2578125
622,0.0078125,-0.98046875,-0.2578125
623,0.00390625,-0.98046875,-0.26171875
624,0.00390625,-0.96875,-0.265625
625,0.00390625,-0.96875,-0.29296875
626,0.0078125,-0.97265625,-0.26171875
627,0.00390625,-0.96875,-0.26171875
628,0.00390625,-0.97265625,-0.25
629,0.00390625,-0.96484375,-0.265625
630,0.00390625,-0.96484375,-0.2578125
631,0.01171875,-0.9765625,-0.26171875
632,0.00390625,-0.97265625,-0.2578125
633,0.01953125,-0.98046875,-0.26171875
634,0.0,-0.96875,-0.26171875
635,0.0078125,-0.96484375,-0.26171875
636,0.0078125,-0.97265625,-0.24609375
637,0.0078125,-0.9765625,-0.265625
638,0.00390625,-0.96875,-0.265625
639,0.0078125,-0.97265625,-0.25390625
640,0.0,-0.96875,-0.26171875
641,0.0078125,-0.97265625,-0.265625
642,0.0078125,-0.9765625,-0.25
643,0.00390625,-0.98046875,-0.26953125
644,0.01171875,-0.96875,-0.25390625
645,0.0078125,-0.96875,-0.27734375
646,0.00390625,-0.96875,-0.26171875
647,0.0234375,-0.96484375,-0.2734375
648,0.0,-0.97265625,-0.265625
649,0.00390625,-0.97265625,-0.26171875
650,0.0,-0.96875,-0.2578125
651,0.00390625,-0.96875,-0.265625
652,0.01171875,-0.96484375,-0.26953125
653,0.0,-0.96875,-0.26953125
654,0.00390625,-0.97265625,-0.28125
655,0.0078125,-0.98046875,-0.2734375
656,0.01171875,-0.97265625,-0.265625
657,0.015625,-0.9765625,-0.2578125
658,0.00390625,-0.97265625,-0.2578125
659,0.0078125,-0.96875,-0.2578125
660,0.00390625,-0.97265625,-0.265625
661,0.0078125,-0.9765625,-0.2578125
662,0.015625,-0.96484375,-0.25390625
663,0.00390625,-0.9609375,-0.2734375
664,0.00390625,-0.9765625,-0.265625
665,0.0078125,-0.96875,-0.2578125
666,0.00390625,-0.984375,-0.265625
667,0.0078125,-0.96875,-0.28125
668,0.01953125,-0.9765625,-0.25390625
669,0.0,-0.96484375,-0.265625
670,0.00390625,-0.96875,-0.2578125
671,0.0,-0.96484375,-0.265625
672,0.0,-0.96875,-0.26953125
673,0.0078125,-0.98046875,-0.2734375
674,0.00390625,-0.96875,-0.265625
675,0.015625,-0.97265625,-0.26953125
676,0.0,-0.9765625,-0.2421875
677,0.0078125,-0.98046875,-0.25390625
678,0.00390625,-0.9765625,-0.2578125
679,0.00390625,-0.97265625,-0.26171875
680,0.0078125,-0.96875,-0.25390625
681,0.01171875,-0.97265625,-0.2734375
682,0.00390625,-0.96875,-0.26953125
683,0.015625,-0.96875,-0.25
684,0.00390625,-0.96875,-0.25
685,0.015625,-0.96875,-0.26171875
686,0.0234375,-0.97265625,-0.2578125
687,0.0078125,-0.97265625,-0.25
688,0.015625,-0.96484375,-0.2421875
689,0.0078125,-0.96875,-0.265625
690,0.0078125,-0.96875,-0.25390625
691,-0.00390625,-0.9453125,-0.30078125
692,0.01171875,-0.98046875,-0.26171875
693,0.0,-0.97265625,-0.26953125
694,0.00390625,-0.96875,-0.25390625
695,0.00390625,-0.984375,-0.26171875
696,0.0078125,-0.97265625,-0.26171875
697,0.00390625,-0.98046875,-0.26953125
698,0.01171875,-0.98046875,-0.2734375
699,0.0,-0.9765625,-0.2578125
700,0.00390625,-0.9765625,-0.24609375
701,0.0078125,-0.97265625,-0.2421875
702,0.0078125,-0.98046875,-0.265625
703,0.00390625,-0.96875,-0.25390625
704,0.0078125,-0.98046875,-0.2578125
705,0.0,-0.97265625,-0.2578125
706,0.01171875,-0.96875,-0.2578125
707,0.015625,-0.96875,-0.25
708,0.0,-0.96484375,-0.25390625
709,0.01953125,-0.96875,-0.24609375
710,0.00390625,-0.9765625,-0.2421875
711,0.00390625,-0.96875,-0.26953125
712,0.0078125,-0.96875,-0.25
713,0.0234375,-0.9375,-0.26171875
714,0.015625,-0.97265625,-0.25
715,0.0078125,-0.97265625,-0.26171875
716,0.00390625,-0.97265625,-0.26171875
717,0.00390625,-0.96875,-0.265625
718,0.015625,-0.9765625,-0.265625
719,0.0,-0.97265625,-0.25
720,0.015625,-0.98046875,-0.234375
721,0.0078125,-0.97265625,-0.26953125
722,0.00390625,-0.97265625,-0.26171875
723,0.0078125,-0.98046875,-0.25
724,0.00390625,-0.9765625,-0.27734375
725,0.00390625,-0.96875,-0.26953125
726,0.0,-0.9765625,-0.26171875
727,0.00390625,-0.96484375,-0.2734375
728,0.0078125,-0.9765625,-0.25390625
729,0.00390625,-0.97265625,-0.26171875
730,0.0,-0.96875,-0.2734375
731,0.00390625,-0.96875,-0.2734375
732,0.01171875,-0.9765625,-0.26171875
733,0.0,-0.96875,-0.28125
734,0.00390625,-0.97265625,-0.26171875
735,0.0,-0.96875,-0.2578125
736,0.0078125,-0.98046875,-0.25
737,0.00390625,-0.96875,-0.2578125
738,0.00390625,-0.96484375,-0.26171875
739,0.00390625,-0.97265625,-0.25390625
740,0.00390625,-0.96875,-0.265625
741,0.0,-0.9765625,-0.26953125
742,0.01171875,-0.9765625,-0.24609375
743,0.0078125,-0.9765625,-0.26171875
744,0.0,-0.98046875,-0.265625
745,0.00390625,-0.96875,-0.2421875
746,0.0078125,-0.98046875,-0.2578125
747,0.0,-0.97265625,-0.26171875
748,0.0078125,-0.98046875,-0.26171875
749,0.0078125,-0.96875,-0.26953125
750,0.0,-0.9765625,-0.26953125
751,0.0078125,-0.9765625,-0.25
752,0.0,-0.96875,-0.265625
753,0.0078125,-0.9765625,-0.265625
754,0.0,-0.97265625,-0.26171875
755,0.0078125,-0.97265625,-0.26171875
756,0.0078125,-0.9609375,-0.27734375
757,0.0,-0.9765625,-0.265625
758,0.00390625,-0.96875,-0.26171875
759,0.0078125,-0.9765625,-0.26171875
760,0.00390625,-0.984375,-0.265625
761,0.00390625,-0.97265625,-0.25
762,0.01171875,-0.96875,-0.25390625
763,0.0078125,-0.9765625,-0.26171875
764,0.00390625,-0.97265625,-0.2734375
765,0.00390625,-0.96875,-0.2734375
766,0.00390625,-0.96875,-0.25
767,0.0,-0.97265625,-0.26171875
768,0.00390625,-0.9765625,-0.2578125
769,0.00390625,-0.9609375,-0.2734375
770,0.00390625,-0.9765625,-0.265625
771,0.0,-0.97265625,-0.25390625
772,0.01171875,-0.98828125,-0.25
773,0.00390625,-0.97265625,-0.26171875
774,0.00390625,-0.98046875,-0.26171875
775,0.00390625,-0.97265625,-0.25390625
776,-0.00390625,-0.97265625,-0.2578125
777,0.0,-0.97265625,-0.25390625
778,-0.00390625,-0.96875,-0.26953125
779,0.0078125,-0.9765625,-0.25390625
780,0.0,-0.97265625,-0.25390625
781,0.00390625,-0.96875,-0.265625
782,0.0,-0.97265625,-0.25
783,0.0,-0.9609375,-0.26953125
784,0.00390625,-0.97265625,-0.24609375
785,0.00390625,-0.96875,-0.2578125
786,0.0,-0.96484375,-0.25
787,0.0,-0.96875,-0.25
788,0.0,-0.97265625,-0.2578125
789,0.0,-0.96484375,-0.265625
790,0.00390625,-0.97265625,-0.25
791,0.00390625,-0.9765625,-0.26171875
792,0.0,-0.984375,-0.2734375
793,0.0,-0.96484375,-0.26171875
794,0.0,-0.98046875,-0.2421875
795,0.00390625,-0.97265625,-0.25390625
796,0.0,-0.9765625,-0.2578125
797,-0.00390625,-0.96875,-0.265625
798,0.0,-0.96484375,-0.2734375
799,-0.0078125,-0.97265625,-0.25390625
800,0.00390625,-0.96875,-0.2578125
801,0.0,-0.97265625,-0.25
802,0.00390625,-0.97265625,-0.25390625
803,0.0,-0.96875,-0.2578125
804,0.0,-0.96875,-0.25
805,-0.00390625,-0.9765625,-0.25390625
806,0.0,-0.98046875,-0.2421875
807,-0.00390625,-0.9765625,-0.24609375
808,0.0,-0.98046875,-0.25390625
809,-0.00390625,-0.98046875,-0.25
810,0.0,-0.984375,-0.2578125
811,0.0,-0.984375,-0.25
812,0.0,-0.97265625,-0.2578125
813,0.0,-0.96484375,-0.265625
814,0.0,-0.96484375,-0.2578125
815,0.0,-0.98046875,-0.26171875
816,0.0,-0.97265625,-0.25390625
817,0.0,-0.98046875,-0.24609375
818,-0.00390625,-0.96484375,-0.265625
819,0.0,-0.9765625,-0.2578125
820,-0.00390625,-0.98046875,-0.2421875
821,0.0,-0.98828125,-0.25390625
822,-0.0078125,-1.0,-0.2578125
823,-0.0078125,-0.97265625,-0.2578125
824,-0.015625,-0.96875,-0.26171875
825,-0.00390625,-0.9765625,-0.25390625
826,-0.015625,-0.97265625,-0.265625
827,-0.01171875,-0.9765625,-0.23828125
828,-0.01953125,-0.96875,-0.2734375
829,-0.015625,-0.98828125,-0.265625
830,-0.00390625,-0.98046875,-0.25390625
831,-0.015625,-0.98046875,-0.26171875
832,-0.00390625,-0.97265625,-0.25
833,-0.0234375,-0.98046875,-0.2578125
834,-0.0234375,-0.9765625,-0.25390625
835,-0.015625,-0.98046875,-0.24609375
836,-0.01953125,-0.984375,-0.25
837,-0.00390625,-0.98046875,-0.265625
838,-0.0234375,-0.96875,-0.24609375
839,-0.015625,-0.96875,-0.25
840,-0.0234375,-0.97265625,-0.25
841,-0.01953125,-0.96875,-0.2734375
842,-0.0078125,-0.98046875,-0.2421875
843,-0.0078125,-0.96875,-0.2734375
844,-0.03125,-0.97265625,-0.2578125
845,-0.015625,-0.97265625,-0.23828125
846,-0.0234375,-0.9609375,-0.2421875
847,-0.01953125,-0.96875,-0.23828125
848,-0.0234375,-0.96484375,-0.25390625
849,-0.02734375,-0.96875,-0.25
850,-0.01171875,-0.9765625,-0.23046875
851,-0.02734375,-0.9765625,-0.234375
852,-0.02734375,-0.984375,-0.24609375
853,-0.03515625,-0.96484375,-0.24609375
854,-0.01953125,-0.9765625,-0.25390625
855,-0.01953125,-0.98046875,-0.23828125
856,-0.02734375,-0.9765625,-0.25
857,-0.03515625,-0.98828125,-0.25390625
858,-0.0234375,-0.9765625,-0.25
859,-0.0234375,-0.9765625,-0.25390625
860,-0.03125,-0.96875,-0.26171875
861,-0.01171875,-0.9921875,-0.25
862,-0.01953125,-0.98046875,-0.24609375
863,-0.00390625,-0.9765625,-0.2421875
864,-0.02734375,-0.97265625,-0.25
865,-0.015625,-0.98828125,-0.25
866,-0.0078125,-0.97265625,-0.23828125
867,-0.01171875,-0.97265625,-0.24609375
868,-0.01171875,-0.9765625,-0.2578125
869,-0.01953125,-0.9765625,-0.2578125
870,-0.01953125,-0.96875,-0.23828125
871,-0.0234375,-0.98046875,-0.234375
872,-0.0078125,-0.98046875,-0.23828125
873,-0.015625,-0.984375,-0.25
874,-0.0234375,-0.97265625,-0.234375
875,-0.015625,-0.98046875,-0.234375
876,-0.01171875,-0.98046875,-0.25
877,-0.00390625,-0.98046875,-0.2421875
878,-0.01953125,-0.98828125,-0.23828125
879,-0.01953125,-0.98046875,-0.25390625
880,-0.0078125,-0.98828125,-0.25390625
881,-0.0078125,-0.98828125,-0.2421875
882,-0.01171875,-0.9765625,-0.24609375
883,-0.01953125,-0.9765625,-0.234375
884,-0.01953125,-0.98046875,-0.23046875
885,-0.0078125,-0.98046875,-0.23046875
886,-0.0234375,-0.98046875,-0.23046875
887,-0.0234375,-0.96484375,-0.21875
888,-0.0078125,-0.96875,-0.2265625
889,-0.01953125,-0.97265625,-0.2421875
890,-0.03515625,-0.96875,-0.23828125
891,-0.0234375,-0.97265625,-0.23046875
892,-0.015625,-0.97265625,-0.2109375
893,-0.01953125,-0.96484375,-0.2265625
894,-0.01171875,-0.96875,-0.2265625
895,-0.01953125,-0.9765625,-0.22265625
896,-0.03515625,-0.96484375,-0.2265625
897,-0.01953125,-0.96875,-0.23828125
898,-0.01953125,-0.98046875,-0.23828125
899,-0.0234375,-0.97265625,-0.23046875
900,-0.0234375,-0.96875,-0.23828125
901,-0.0234375,-0.98046875,-0.234375
902,-0.0078125,-0.96875,-0.23046875
903,-0.0078125,-0.96875,-0.23828125
904,-0.01171875,-0.9765625,-0.2421875
905,-0.015625,-0.96875,-0.234375
906,-0.01953125,-0.96484375,-0.2421875
907,-0.015625,-0.9765625,-0.23046875
908,-0.02734375,-0.96875,-0.23828125
909,-0.02734375,-0.94921875,-0.2421875
910,-0.01953125,-0.9765625,-0.25390625
911,-0.02734375,-0.96875,-0.234375
912,-0.015625,-0.98046875,-0.234375
913,-0.01953125,-0.97265625,-0.23046875
914,-0.01953125,-0.97265625,-0.23046875
915,-0.0234375,-0.97265625,-0.25390625
916,-0.01953125,-0.9765625,-0.23828125
917,-0.03125,-0.9765625,-0.24609375
918,-0.02734375,-0.96875,-0.23046875
919,-0.01171875,-0.97265625,-0.25
920,-0.0234375,-0.96875,-0.234375
921,-0.02734375,-0.9765625,-0.22265625
922,-0.0234375,-0.96875,-0.234375
923,-0.0234375,-0.97265625,-0.234375
924,-0.01953125,-0.9765625,-0.23046875
925,-0.03125,-0.97265625,-0.23046875
926,-0.0234375,-0.97265625,-0.23828125
927,-0.01171875,-0.97265625,-0.2265625
928,-0.015625,-0.97265625,-0.2421875
929,-0.015625,-0.96875,-0.24609375
930,0.0078125,-0.96484375,-0.25390625
931,0.0,-0.96875,-0.25
932,-0.015625,-0.96484375,-0.2578125
933,-0.015625,-0.96484375,-0.2421875
934,0.0,-0.97265625,-0.23828125
935,0.00390625,-0.96484375,-0.234375
936,0.0,-0.96875,-0.23828125
937,0.00390625,-0.96484375,-0.23828125
938,0.0078125,-0.96484375,-0.24609375
939,0.01171875,-0.96875,-0.2578125
940,0.015625,-0.96484375,-0.26171875
941,0.01953125,-0.96875,-0.2734375
942,0.01171875,-0.94921875,-0.27734375
943,0.01953125,-0.94921875,-0.26171875
944,0.0390625,-0.953125,-0.25390625
945,0.03125,-0.953125,-0.25
946,0.04296875,-0.953125,-0.23828125
947,0.0546875,-0.94921875,-0.23046875
948,0.05859375,-0.953125,-0.2265625
949,0.0546875,-0.9453125,-0.23828125
950,0.0703125,-0.94140625,-0.25390625
951,0.0625,-0.9453125,-0.2734375
952,0.06640625,-0.94140625,-0.28515625
953,0.0625,-0.94140625,-0.2890625
954,0.078125,-0.9453125,-0.296875
955,0.0859375,-0.953125,-0.296875
956,0.08984375,-0.96875,-0.2734375
957,0.08984375,-0.96875,-0.2578125
958,0.08203125,-0.9921875,-0.2421875
959,0.08203125,-1.0078125,-0.23828125
960,0.08203125,-1.0234375,-0.22265625
961,0.08203125,-1.046875,-0.19921875
962,0.0625,-1.04296875,-0.19140625
963,0.0625,-1.05859375,-0.20703125
964,0.05859375,-1.07421875,-0.19140625
965,0.06640625,-1.06640625,-0.19921875
966,0.06640625,-1.08984375,-0.19140625
967,0.078125,-1.078125,-0.21875
968,0.06640625,-1.08203125,-0.2109375
969,0.08203125,-1.1015625,-0.20703125
970,0.07421875,-1.09375,-0.21484375
971,0.07421875,-1.09375,-0.19140625
972,0.08203125,-1.09765625,-0.1875
973,0.08203125,-1.078125,-0.203125
974,0.09765625,-1.11328125,-0.1796875
975,0.109375,-1.0703125,-0.21484375
976,0.10546875,-1.0625,-0.20703125
977,0.12109375,-1.0390625,-0.21484375
978,0.13671875,-1.0390625,-0.23046875
979,0.15234375,-1.03515625,-0.23046875
980,0.1640625,-1.03125,-0.23828125
981,0.14453125,-1.015625,-0.22265625
982,0.16015625,-1.02734375,-0.22265625
983,0.1484375,-1.01953125,-0.21484375
984,0.15234375,-1.0234375,-0.19921875
985,0.1484375,-1.02734375,-0.21484375
986,0.15625,-1.0,-0.20703125
987,0.15234375,-0.984375,-0.19921875
988,0.16015625,-0.98828125,-0.20703125
989,0.14453125,-0.9609375,-0.1796875
990,0.1484375,-0.9453125,-0.19921875
991,0.15234375,-0.9296875,-0.1796875
992,0.15625,-0.90625,-0.16796875
993,0.15625,-0.90234375,-0.15625
994,0.14453125,-0.8828125,-0.15234375
995,0.140625,-0.88671875,-0.14453125
996,0.1171875,-0.859375,-0.13671875
997,0.10546875,-0.8515625,-0.13671875
998,0.08984375,-0.85546875,-0.13671875
999,0.08984375,-0.84765625,-0.14453125
1000,0.0703125,-0.84765625,-0.14453125
1001,0.0390625,-0.85546875,-0.15234375
1002,0.03125,-0.86328125,-0.1640625
1003,0.0234375,-0.8671875,-0.16015625
1004,0.01171875,-0.88671875,-0.15234375
1005,0.0,-0.9140625,-0.16015625
1006,-0.0078125,-0.92578125,-0.16796875
1007,-0.00390625,-0.953125,-0.171875
1008,0.0,-0.96484375,-0.19140625
1009,-0.01171875,-0.96875,-0.1875
1010,-0.0078125,-0.98046875,-0.19921875
1011,-0.02734375,-0.9921875,-0.203125
1012,-0.0390625,-0.98828125,-0.1953125
1013,-0.03125,-1.01953125,-0.21484375
1014,-0.06640625,-1.01953125,-0.20703125
1015,-0.0625,-1.02734375,-0.1953125
1016,-0.05859375,-1.03125,-0.17578125
1017,-0.08203125,-1.05859375,-0.19921875
1018,-0.0625,-1.0546875,-0.18359375
1019,-0.0625,-1.06640625,-0.19140625
1020,-0.0703125,-1.0390625,-0.1953125
1021,-0.05859375,-1.05859375,-0.1953125
1022,-0.04296875,-1.05078125,-0.18359375
1023,-0.0390625,-1.04296875,-0.1953125
1024,-0.0234375,-1.03125,-0.171875
1025,0.00390625,-1.01953125,-0.1875
1026,0.0546875,-1.015625,-0.19140625
1027,0.08984375,-1.015625,-0.17578125
1028,0.13671875,-1.0078125,-0.2109375
1029,0.18359375,-0.9921875,-0.22265625
1030,0.23046875,-0.984375,-0.2421875
1031,0.26171875,-0.96875,-0.26171875
1032,0.3046875,-0.9609375,-0.265625
1033,0.3203125,-0.95703125,-0.27734375
1034,0.359375,-0.96484375,-0.2734375
1035,0.36328125,-0.9609375,-0.27734375
1036,0.3828125,-0.96875,-0.2734375
1037,0.37890625,-0.97265625,-0.265625
1038,0.3359375,-0.96875,-0.2421875
1039,0.31640625,-0.98046875,-0.23046875
1040,0.265625,-0.98828125,-0.21875
1041,0.23828125,-0.98046875,-0.2109375
1042,0.171875,-0.984375,-0.2109375
1043,0.125,-0.98046875,-0.19140625
1044,0.0625,-0.9765625,-0.203125
1045,0.01953125,-0.98046875,-0.2109375
1046,-0.02734375,-0.953125,-0.2109375
1047,-0.07421875,-0.9453125,-0.23828125
1048,-0.109375,-0.9140625,-0.2578125
1049,-0.1328125,-0.89453125,-0.26953125
1050,-0.16796875,-0.87109375,-0.296875
1051,-0.17578125,-0.85546875,-0.328125
1052,-0.1953125,-0.828125,-0.359375
1053,-0.19921875,-0.81640625,-0.36328125
1054,-0.19921875,-0.796875,-0.39453125
1055,-0.18359375,-0.7890625,-0.39453125
1056,-0.17578125,-0.765625,-0.40625
1057,-0.171875,-0.75390625,-0.41796875
1058,-0.15625,-0.75390625,-0.4296875
1059,-0.13671875,-0.75,-0.43359375
1060,-0.11328125,-0.78515625,-0.42578125
1061,-0.078125,-0.8046875,-0.41796875
1062,-0.06640625,-0.82421875,-0.40625
1063,-0.05078125,-0.85546875,-0.40234375
1064,-0.01171875,-0.890625,-0.39453125
1065,0.00390625,-0.92578125,-0.37109375
1066,0.0078125,-0.96484375,-0.3515625
1067,0.015625,-1.0234375,-0.33984375
1068,0.00390625,-1.0703125,-0.32421875
1069,0.0,-1.125,-0.32421875
1070,-0.01171875,-1.1953125,-0.3046875
1071,-0.02734375,-1.25,-0.28125
1072,-0.06640625,-1.30078125,-0.2890625
1073,-0.09765625,-1.3359375,-0.2890625
1074,-0.125,-1.3515625,-0.29296875
1075,-0.14453125,-1.359375,-0.30078125
1076,-0.1796875,-1.34375,-0.3125
1077,-0.1875,-1.32421875,-0.296875
1078,-0.1875,-1.2890625,-0.27734375
1079,-0.17578125,-1.25,-0.2578125
1080,-0.15625,-1.21875,-0.22265625
1081,-0.1171875,-1.17578125,-0.20703125
1082,-0.10546875,-1.1484375,-0.17578125
1083,-0.07421875,-1.0859375,-0.171875
1084,-0.0390625,-1.0546875,-0.1640625
1085,-0.01953125,-1.01171875,-0.140625
1086,-0.0078125,-0.96875,-0.12890625
1087,0.00390625,-0.94921875,-0.13671875
1088,-0.00390625,-0.91015625,-0.14453125
1089,0.0,-0.88671875,-0.16796875
1090,0.0,-0.87109375,-0.15625
1091,0.00390625,-0.85546875,-0.1796875
1092,0.0,-0.84375,-0.203125
1093,0.0078125,-0.859375,-0.23046875
1094,-0.0078125,-0.85546875,-0.25
1095,0.00390625,-0.89453125,-0.2578125
1096,0.01171875,-0.9609375,-0.2578125
1097,0.015625,-1.03125,-0.2421875
1098,0.0,-1.07421875,-0.2421875
1099,-0.0234375,-1.09375,-0.2421875
1100,-0.06640625,-1.1015625,-0.23828125
1101,-0.10546875,-1.10546875,-0.25
1102,-0.11328125,-1.09375,-0.25
1103,-0.1328125,-1.08984375,-0.24609375
1104,-0.1328125,-1.07421875,-0.265625
1105,-0.13671875,-1.06640625,-0.27734375
1106,-0.15234375,-1.08203125,-0.27734375
1107,-0.1640625,-1.10546875,-0.265625
1108,-0.17578125,-1.12109375,-0.2421875
1109,-0.1875,-1.1328125,-0.2421875
1110,-0.1953125,-1.15625,-0.21875
1111,-0.22265625,-1.14453125,-0.23046875
1112,-0.2421875,-1.15234375,-0.2109375
1113,-0.28125,-1.140625,-0.2109375
1114,-0.3125,-1.11328125,-0.21484375
1115,-0.3515625,-1.0703125,-0.20703125
1116,-0.37890625,-1.01953125,-0.21875
1117,-0.3984375,-0.96875,-0.21484375
1118,-0.40625,-0.94140625,-0.2265625
1119,-0.3828125,-0.8828125,-0.2109375
1120,-0.35546875,-0.8515625,-0.16796875
1121,-0.32421875,-0.84765625,-0.16796875
1122,-0.3046875,-0.83984375,-0.1484375
1123,-0.24609375,-0.82421875,-0.14453125
1124,-0.1640625,-0.8203125,-0.1484375
1125,-0.10546875,-0.83984375,-0.1328125
1126,-0.05859375,-0.79296875,-0.14453125
1127,0.0,-0.80078125,-0.15234375
1128,0.07421875,-0.79296875,-0.19140625
1129,0.0859375,-0.78125,-0.17578125
1130,0.10546875,-0.7734375,-0.1640625
1131,0.1015625,-0.7734375,-0.15625
1132,0.11328125,-0.78125,-0.15234375
1133,0.1171875,-0.7890625,-0.15625
1134,0.09765625,-0.8046875,-0.16015625
1135,0.0859375,-0.82421875,-0.13671875
1136,0.05859375,-0.8515625,-0.1484375
1137,0.01953125,-0.87890625,-0.1328125
1138,-0.01953125,-0.8984375,-0.14453125
1139,-0.03515625,-0.9140625,-0.140625
1140,-0.0703125,-0.92578125,-0.1640625
1141,-0.10546875,-0.95703125,-0.1640625
1142,-0.125,-0.9765625,-0.1875
1143,-0.1484375,-0.98828125,-0.19140625
1144,-0.1796875,-1.02734375,-0.2109375
1145,-0.18359375,-1.0390625,-0.20703125
1146,-0.19140625,-1.046875,-0.20703125
1147,-0.22265625,-1.06640625,-0.21484375
1148,-0.17578125,-1.078125,-0.1875
1149,-0.16796875,-1.06640625,-0.171875
1150,-0.17578125,-1.0234375,-0.16796875
1151,-0.17578125,-0.98828125,-0.15625
1152,-0.18359375,-0.96484375,-0.15625
1153,-0.1875,-0.95703125,-0.14453125
1154,-0.1875,-0.953125,-0.14453125
1155,-0.1875,-0.94921875,-0.13671875
1156,-0.1953125,-0.94921875,-0.125
1157,-0.1953125,-0.9453125,-0.12890625
1158,-0.19140625,-0.953125,-0.125
1159,-0.203125,-0.94140625,-0.109375
1160,-0.20703125,-0.93359375,-0.11328125
1161,-0.2265625,-0.9296875,-0.109375
1162,-0.23046875,-0.92578125,-0.09765625
1163,-0.23828125,-0.921875,-0.125
1164,-0.24609375,-0.92578125,-0.09765625
1165,-0.24609375,-0.92578125,-0.13671875
1166,-0.26953125,-0.921875,-0.10546875
1167,-0.26171875,-0.9453125,-0.11328125
1168,-0.26171875,-0.96484375,-0.13671875
1169,-0.25390625,-0.984375,-0.12890625
1170,-0.24609375,-0.98828125,-0.1328125
1171,-0.24609375,-0.984375,-0.13671875
1172,-0.2265625,-0.9921875,-0.1171875
1173,-0.20703125,-0.97265625,-0.1171875
1174,-0.23046875,-0.93359375,-0.10546875
1175,-0.234375,-0.92578125,-0.09375
1176,-0.2421875,-0.875,-0.10546875
1177,-0.2578125,-0.86328125,-0.109375
1178,-0.26171875,-0.87109375,-0.1171875
1179,-0.265625,-0.89453125,-0.1015625
1180,-0.25,-0.89453125,-0.0859375
1181,-0.23828125,-0.921875,-0.10546875
1182,-0.2265625,-0.90625,-0.11328125
1183,-0.19140625,-0.91796875,-0.12109375
1184,-0.1875,-0.9140625,-0.1328125
1185,-0.171875,-0.91015625,-0.12890625
1186,-0.19140625,-0.8828125,-0.125
1187,-0.203125,-0.88671875,-0.125
1188,-0.21484375,-0.875,-0.1328125
1189,-0.24609375,-0.8671875,-0.1015625
1190,-0.24609375,-0.8671875,-0.09765625
1191,-0.2578125,-0.87890625,-0.078125
1192,-0.2890625,-0.875,-0.078125
1193,-0.29296875,-0.90234375,-0.07421875
1194,-0.3125,-0.90234375,-0.07421875
1195,-0.32421875,-0.89453125,-0.078125
1196,-0.32421875,-0.91015625,-0.078125
1197,-0.33203125,-0.90234375,-0.078125
1198,-0.33984375,-0.8984375,-0.078125
1199,-0.33984375,-0.890625,-0.09375
1200,-0.3515625,-0.8828125,-0.07421875
1201,-0.33984375,-0.890625,-0.08984375
1202,-0.33203125,-0.88671875,-0.078125
1203,-0.31640625,-0.87109375,-0.078125
1204,-0.30859375,-0.84375,-0.07421875
1205,-0.30078125,-0.85546875,-0.10546875
1206,-0.296875,-0.828125,-0.13671875
1207,-0.27734375,-0.82421875,-0.14453125
1208,-0.2578125,-0.80859375,-0.1640625
1209,-0.26171875,-0.80859375,-0.1640625
1210,-0.2578125,-0.8046875,-0.19140625
1211,-0.265625,-0.83203125,-0.171875
1212,-0.25390625,-0.86328125,-0.1875
1213,-0.28515625,-0.91015625,-0.1640625
1214,-0.30859375,-0.94140625,-0.1640625
1215,-0.31640625,-0.94921875,-0.16796875
1216,-0.359375,-0.9453125,-0.15625
1217,-0.38671875,-0.94921875,-0.171875
1218,-0.4375,-0.96484375,-0.1640625
1219,-0.4921875,-0.9609375,-0.17578125
1220,-0.54296875,-0.96875,-0.1953125
1221,-0.578125,-0.95703125,-0.21484375
1222,-0.625,-0.94140625,-0.25
1223,-0.66796875,-0.89453125,-0.28125
1224,-0.70703125,-0.82421875,-0.31640625
1225,-0.765625,-0.765625,-0.40234375
1226,-0.77734375,-0.72265625,-0.4609375
1227,-0.71875,-0.71484375,-0.5
1228,-0.53515625,-0.80859375,-0.45703125
1229,-0.35546875,-0.95703125,-0.3828125
1230,-0.26953125,-1.08984375,-0.30859375
1231,-0.21875,-1.2109375,-0.28515625
1232,-0.15625,-1.3046875,-0.29296875
1233,-0.125,-1.31640625,-0.33203125
1234,-0.13671875,-1.28515625,-0.37109375
1235,-0.1328125,-1.25,-0.421875
1236,-0.1484375,-1.21875,-0.43359375
1237,-0.171875,-1.171875,-0.42578125
1238,-0.17578125,-1.1484375,-0.37890625
1239,-0.203125,-1.1015625,-0.328125
1240,-0.2109375,-1.06640625,-0.29296875
1241,-0.25,-1.01171875,-0.25390625
1242,-0.28125,-0.9296875,-0.2265625
1243,-0.32421875,-0.87890625,-0.21484375
1244,-0.34765625,-0.81640625,-0.24609375
1245,-0.37890625,-0.7734375,-0.26953125
1246,-0.41015625,-0.75390625,-0.26953125
1247,-0.41796875,-0.7578125,-0.30859375
1248,-0.453125,-0.7578125,-0.328125
1249,-0.48828125,-0.7734375,-0.3359375
1250,-0.5,-0.78125,-0.34375
1251,-0.50390625,-0.796875,-0.3359375
1252,-0.5234375,-0.8046875,-0.328125
1253,-0.5390625,-0.8203125,-0.32421875
1254,-0.54296875,-0.84375,-0.3125
1255,-0.53515625,-0.8515625,-0.30078125
1256,-0.52734375,-0.84765625,-0.28125
1257,-0.5,-0.84375,-0.26171875
1258,-0.484375,-0.828125,-0.296875
1259,-0.46484375,-0.8203125,-0.27734375
1260,-0.45703125,-0.796875,-0.265625
1261,-0.43359375,-0.7890625,-0.26171875
1262,-0.38671875,-0.78515625,-0.28125
1263,-0.35546875,-0.77734375,-0.2890625
1264,-0.32421875,-0.7734375,-0.3203125
1265,-0.30078125,-0.7890625,-0.3359375
1266,-0.29296875,-0.78125,-0.3671875
1267,-0.27734375,-0.7890625,-0.39453125
1268,-0.30078125,-0.7734375,-0.41796875
1269,-0.3203125,-0.76171875,-0.44921875
1270,-0.34765625,-0.734375,-0.46484375
1271,-0.375,-0.71875,-0.4609375
1272,-0.39453125,-0.69921875,-0.44921875
1273,-0.40625,-0.68359375,-0.42578125
1274,-0.39453125,-0.67578125,-0.41015625
1275,-0.40234375,-0.67578125,-0.359375
1276,-0.5078125,-0.6796875,-0.32421875
1277,-0.54296875,-0.70703125,-0.2734375
1278,-0.546875,-0.72265625,-0.27734375
1279,-0.66015625,-0.69921875,-0.2890625
1280,-0.65234375,-0.703125,-0.29296875
1281,-0.62890625,-0.6953125,-0.3046875
1282,-0.60546875,-0.69140625,-0.3125
1283,-0.6015625,-0.7109375,-0.31640625
1284,-0.6171875,-0.7109375,-0.32421875
1285,-0.5390625,-0.71875,-0.33984375
1286,-0.484375,-0.73046875,-0.3515625
1287,-0.44921875,-0.7265625,-0.3515625
1288,-0.41796875,-0.74609375,-0.3671875
1289,-0.38671875,-0.73828125,-0.38671875
1290,-0.359375,-0.7421875,-0.37109375
1291,-0.33203125,-0.73828125,-0.375
1292,-0.3203125,-0.7109375,-0.37109375
1293,-0.30078125,-0.69140625,-0.3828125
1294,-0.29296875,-0.65234375,-0.38671875
1295,-0.2890625,-0.62109375,-0.3984375
1296,-0.296875,-0.6015625,-0.41796875
1297,-0.33984375,-0.578125,-0.4609375
1298,-0.3671875,-0.5703125,-0.48828125
1299,-0.39453125,-0.58203125,-0.48828125
1300,-0.4609375,-0.60546875,-0.54296875
1301,-0.50390625,-0.640625,-0.56640625
1302,-0.53515625,-0.69140625,-0.5703125
1303,-0.609375,-0.7265625,-0.59765625
1304,-0.65234375,-0.79296875,-0.625
1305,-0.671875,-0.8515625,-0.62890625
1306,-0.68359375,-0.87109375,-0.6328125
1307,-0.6796875,-0.9140625,-0.59765625
1308,-0.66015625,-0.9296875,-0.58203125
1309,-0.640625,-0.9375,-0.5546875
1310,-0.5859375,-0.953125,-0.515625
1311,-0.58203125,-0.9296875,-0.47265625
1312,-0.5625,-0.90625,-0.44921875
1313,-0.53125,-0.8671875,-0.41796875
1314,-0.5078125,-0.84375,-0.38671875
1315,-0.48828125,-0.82421875,-0.37890625
1316,-0.46484375,-0.828125,-0.33984375
1317,-0.453125,-0.80859375,-0.328125
1318,-0.4296875,-0.79296875,-0.328125
1319,-0.421875,-0.78125,-0.3359375
1320,-0.40625,-0.76171875,-0.33203125
1321,-0.36328125,-0.7421875,-0.328125
1322,-0.33984375,-0.7265625,-0.3359375
1323,-0.30859375,-0.72265625,-0.34765625
1324,-0.26171875,-0.72265625,-0.37109375
1325,-0.24609375,-0.72265625,-0.3828125
1326,-0.21875,-0.7109375,-0.40625
1327,-0.203125,-0.71875,-0.41015625
1328,-0.19921875,-0.71484375,-0.4375
1329,-0.21875,-0.71875,-0.46875
1330,-0.25,-0.72265625,-0.484375
1331,-0.265625,-0.72265625,-0.5
1332,-0.21875,-0.73828125,-0.51953125
1333,-0.21484375,-0.73046875,-0.5390625
1334,-0.35546875,-0.73828125,-0.54296875
1335,-0.5078125,-0.7421875,-0.5390625
1336,-0.5078125,-0.73828125,-0.546875
1337,-0.5859375,-0.7421875,-0.546875
1338,-0.5703125,-0.75,-0.546875
1339,-0.6484375,-0.734375,-0.53125
1340,-0.60546875,-0.73828125,-0.55078125
1341,-0.578125,-0.75,-0.54296875
1342,-0.5546875,-0.76171875,-0.51171875
1343,-0.55859375,-0.75,-0.53515625
1344,-0.53125,-0.75,-0.52734375
1345,-0.5234375,-0.7578125,-0.5234375
1346,-0.5078125,-0.74609375,-0.515625
1347,-0.5390625,-0.734375,-0.51953125
1348,-0.4921875,-0.7265625,-0.49609375
1349,-0.48828125,-0.71484375,-0.484375
1350,-0.47265625,-0.71875,-0.4609375
1351,-0.48046875,-0.71875,-0.4765625
1352,-0.453125,-0.71875,-0.48046875
1353,-0.46875,-0.71484375,-0.46875
1354,-0.44140625,-0.71875,-0.46875
1355,-0.4375,-0.734375,-0.4375
1356,-0.41796875,-0.734375,-0.44140625
1357,-0.4140625,-0.7421875,-0.4140625
1358,-0.3984375,-0.72265625,-0.390625
1359,-0.375,-0.72265625,-0.3671875
1360,-0.359375,-0.7265625,-0.33203125
1361,-0.3359375,-0.7109375,-0.3359375
1362,-0.2890625,-0.71875,-0.328125
1363,-0.2734375,-0.73046875,-0.34375
1364,-0.26171875,-0.7421875,-0.34375
1365,-0.26171875,-0.76171875,-0.390625
1366,-0.265625,-0.78125,-0.4140625
1367,-0.265625,-0.7890625,-0.4375
1368,-0.27734375,-0.80859375,-0.47265625
1369,-0.30078125,-0.80859375,-0.51171875
1370,-0.32421875,-0.82421875,-0.50390625
1371,-0.33203125,-0.83984375,-0.50390625
1372,-0.33984375,-0.8359375,-0.51171875
1373,-0.33203125,-0.83984375,-0.48828125
1374,-0.31640625,-0.83984375,-0.49609375
1375,-0.33203125,-0.8203125,-0.50390625
1376,-0.3125,-0.82421875,-0.49609375
1377,-0.3125,-0.81640625,-0.5
1378,-0.30078125,-0.8125,-0.48828125
1379,-0.29296875,-0.82421875,-0.51171875
1380,-0.30078125,-0.8203125,-0.51953125
1381,-0.3046875,-0.8203125,-0.53125
1382,-0.32421875,-0.828125,-0.515625
1383,-0.3359375,-0.84375,-0.55078125
1384,-0.3359375,-0.87109375,-0.546875
1385,-0.33984375,-0.875,-0.5546875
1386,-0.33203125,-0.86328125,-0.5703125
1387,-0.2890625,-0.87109375,-0.56640625
1388,-0.27734375,-0.8671875,-0.5625
1389,-0.2734375,-0.8671875,-0.55859375
1390,-0.26171875,-0.87109375,-0.53515625
1391,-0.25390625,-0.8671875,-0.5078125
1392,-0.24609375,-0.9140625,-0.48046875
1393,-0.26171875,-0.93359375,-0.46875
1394,-0.25390625,-0.9609375,-0.44921875
1395,-0.2421875,-0.95703125,-0.46875
1396,-0.2421875,-0.9296875,-0.46484375
1397,-0.26171875,-0.921875,-0.4609375
1398,-0.2578125,-0.8984375,-0.46875
1399,-0.2578125,-0.90234375,-0.48046875
1400,-0.27734375,-0.921875,-0.5
1401,-0.28515625,-0.89453125,-0.51171875
1402,-0.26953125,-0.90234375,-0.52734375
1403,-0.25390625,-0.89453125,-0.52734375
1404,-0.234375,-0.91015625,-0.49609375
1405,-0.24609375,-0.9140625,-0.4921875
1406,-0.25,-0.91796875,-0.46875
1407,-0.25,-0.94921875,-0.4375
1408,-0.234375,-0.9609375,-0.3359375
1409,-0.2421875,-0.95703125,-0.37890625
1410,-0.21484375,-0.9765625,-0.36328125
1411,-0.1953125,-0.984375,-0.3671875
1412,-0.17578125,-1.0,-0.3671875
1413,-0.15625,-1.02734375,-0.37109375
1414,-0.16015625,-1.046875,-0.39453125
1415,-0.140625,-1.05859375,-0.41796875
1416,-0.11328125,-1.0859375,-0.42578125
1417,-0.1015625,-1.09375,-0.45703125
1418,-0.07421875,-1.09375,-0.453125
1419,-0.0859375,-1.10546875,-0.45703125
1420,-0.07421875,-1.109375,-0.453125
1421,-0.0625,-1.12109375,-0.43359375
1422,-0.05859375,-1.125,-0.4140625
1423,-0.0625,-1.11328125,-0.375
1424,-0.07421875,-1.1015625,-0.359375
1425,-0.09765625,-1.09765625,-0.328125
1426,-0.1171875,-1.140625,-0.31640625
1427,-0.12109375,-1.1171875,-0.3125
1428,-0.13671875,-1.125,-0.29296875
1429,-0.14453125,-1.11328125,-0.28515625
1430,-0.140625,-1.08984375,-0.28125
1431,-0.13671875,-1.05859375,-0.2890625
1432,-0.12109375,-1.03515625,-0.2890625
1433,-0.12109375,-1.03125,-0.28125
1434,-0.078125,-1.02734375,-0.28125
1435,-0.0546875,-1.01171875,-0.29296875
1436,-0.02734375,-1.03515625,-0.296875
1437,0.0,-1.05859375,-0.3125
1438,0.0,-1.0546875,-0.31640625
1439,0.015625,-1.0546875,-0.2890625
1440,0.015625,-1.05078125,-0.3046875
1441,0.01171875,-1.0546875,-0.30859375
1442,0.01171875,-1.05859375,-0.28515625
1443,0.015625,-1.0546875,-0.26171875
1444,0.0,-1.046875,-0.234375
1445,0.0078125,-1.0546875,-0.23828125
1446,0.01953125,-1.05078125,-0.23828125
1447,0.03515625,-1.05859375,-0.23828125
1448,0.05078125,-1.0703125,-0.23046875
1449,0.08203125,-1.0625,-0.25
1450,0.0859375,-1.046875,-0.234375
1451,0.10546875,-1.04296875,-0.22265625
1452,0.12890625,-1.0234375,-0.234375
1453,0.15625,-1.0078125,-0.23046875
1454,0.18359375,-0.9921875,-0.20703125
1455,0.19921875,-0.98046875,-0.21875
1456,0.22265625,-0.9921875,-0.21484375
1457,0.23046875,-0.97265625,-0.18359375
1458,0.23828125,-0.97265625,-0.1796875
1459,0.234375,-0.98046875,-0.15625
1460,0.234375,-0.96875,-0.14453125
1461,0.21484375,-0.96875,-0.140625
1462,0.2265625,-0.97265625,-0.12890625
1463,0.1875,-0.9765625,-0.12109375
1464,0.203125,-0.98828125,-0.1171875
1465,0.1953125,-0.9765625,-0.1015625
1466,0.203125,-0.98046875,-0.08203125
1467,0.21484375,-0.9765625,-0.07421875
1468,0.23046875,-0.97265625,-0.0625
1469,0.23828125,-0.9609375,-0.03515625
1470,0.22265625,-0.9375,-0.02734375
1471,0.21875,-0.91796875,0.00390625
1472,0.2265625,-0.90234375,-0.02734375
1473,0.23828125,-0.87890625,0.0078125
1474,0.22265625,-0.86328125,0.02734375
1475,0.2265625,-0.875,0.05078125
1476,0.19140625,-0.89453125,0.05078125
1477,0.1875,-0.9296875,0.0859375
1478,0.15625,-0.96875,0.08984375
1479,0.1015625,-0.9765625,0.08984375
1480,0.0703125,-1.01171875,0.10546875
1481,0.04296875,-1.03515625,0.09375
1482,0.0234375,-1.0390625,0.0859375
1483,-0.00390625,-1.0390625,0.078125
1484,-0.02734375,-1.03515625,0.06640625
1485,-0.02734375,-1.05078125,0.0625
1486,-0.02734375,-1.05078125,0.0546875
1487,-0.05078125,-1.03515625,0.05078125
1488,-0.05078125,-1.03125,0.05859375
1489,-0.03515625,-1.03515625,0.08984375
1490,-0.0390625,-1.01953125,0.08984375
1491,-0.05859375,-1.0078125,0.109375
1492,-0.0390625,-1.01171875,0.1171875
1493,-0.04296875,-1.00390625,0.11328125
1494,-0.05078125,-1.0390625,0.09765625
1495,-0.03125,-1.05078125,0.09375
1496,-0.01953125,-1.046875,0.1015625
1497,0.0,-1.03515625,0.109375
1498,0.00390625,-1.02734375,0.125
1499,0.00390625,-1.0078125,0.11328125
1500,0.00390625,-1.0,0.125
1501,0.0,-0.9921875,0.1484375
1502,0.01171875,-1.0078125,0.1640625
1503,0.01171875,-1.0,0.171875
1504,0.01171875,-0.9921875,0.1796875
1505,0.0078125,-1.01171875,0.18359375
1506,0.0,-1.00390625,0.171875
1507,0.00390625,-1.0,0.18359375
1508,0.0,-0.99609375,0.171875
1509,0.0078125,-1.00390625,0.14453125
1510,0.00390625,-0.984375,0.15625
1511,0.00390625,-0.98828125,0.15625
1512,0.01171875,-0.96484375,0.16015625
1513,0.01171875,-0.95703125,0.14453125
1514,0.00390625,-0.94140625,0.16015625
1515,-0.00390625,-0.9296875,0.171875
1516,-0.01953125,-0.90625,0.171875
1517,-0.02734375,-0.8984375,0.1875
1518,-0.04296875,-0.90234375,0.21875
1519,-0.0625,-0.88671875,0.2421875
1520,-0.06640625,-0.9140625,0.25
1521,-0.078125,-0.91796875,0.26171875
1522,-0.06640625,-0.921875,0.25
1523,-0.0625,-0.9375,0.25
1524,-0.0625,-0.93359375,0.265625
1525,-0.0390625,-0.953125,0.26171875
1526,-0.03125,-0.93359375,0.2734375
1527,-0.0234375,-0.90625,0.26953125
1528,-0.04296875,-0.88671875,0.29296875
1529,-0.03515625,-0.87109375,0.3203125
1530,-0.01953125,-0.8671875,0.33203125
1531,-0.03125,-0.8671875,0.32421875
1532,-0.03125,-0.8828125,0.33203125
1533,0.0,-0.88671875,0.32421875
1534,0.0078125,-0.89453125,0.34375
1535,0.01953125,-0.90625,0.3359375
1536,0.03515625,-0.92578125,0.3671875
1537,0.05859375,-0.9375,0.32421875
1538,0.08203125,-0.93359375,0.3203125
1539,0.09765625,-0.95703125,0.3046875
1540,0.1171875,-0.96484375,0.30078125
1541,0.1328125,-0.984375,0.296875
1542,0.12890625,-0.984375,0.2890625
1543,0.16015625,-1.01171875,0.28515625
1544,0.16015625,-1.00390625,0.29296875
1545,0.14453125,-1.0,0.2890625
1546,0.140625,-1.00390625,0.27734375
1547,0.15234375,-1.00390625,0.2734375
1548,0.14453125,-0.99609375,0.2734375
1549,0.15625,-1.01171875,0.25390625
1550,0.1484375,-1.0078125,0.24609375
1551,0.15625,-0.99609375,0.234375
1552,0.16015625,-0.98828125,0.26171875
1553,0.17578125,-1.00390625,0.25390625
1554,0.1796875,-0.98828125,0.26171875
1555,0.18359375,-0.97265625,0.26171875
1556,0.171875,-0.96484375,0.26953125
1557,0.18359375,-0.96875,0.27734375
1558,0.1875,-0.9453125,0.265625
1559,0.17578125,-0.93359375,0.28125
1560,0.1484375,-0.9140625,0.265625
1561,0.15625,-0.9296875,0.26953125
1562,0.1484375,-0.91796875,0.2578125
1563,0.15234375,-0.92578125,0.25390625
1564,0.14453125,-0.9375,0.25
1565,0.125,-0.94140625,0.25
1566,0.125,-0.96875,0.23828125
1567,0.12890625,-0.97265625,0.234375
1568,0.10546875,-0.98828125,0.21484375
1569,0.09765625,-0.99609375,0.234375
1570,0.08984375,-1.0234375,0.2421875
1571,0.08203125,-1.01171875,0.25390625
1572,0.0703125,-0.9921875,0.26953125
1573,0.08203125,-0.96875,0.26171875
1574,0.02734375,-0.91015625,0.28515625
1575,0.05859375,-0.890625,0.28515625
1576,-0.02734375,-0.859375,0.28125
1577,-0.01171875,-0.83203125,0.28125
1578,-0.015625,-0.8515625,0.29296875
1579,-0.01953125,-0.87109375,0.296875
1580,0.00390625,-0.88671875,0.31640625
1581,-0.046875,-0.890625,0.30859375
1582,-0.0625,-0.88671875,0.328125
1583,-0.0625,-0.88671875,0.328125
1584,-0.05078125,-0.89453125,0.328125
1585,-0.0703125,-0.89453125,0.3203125
1586,-0.08203125,-0.89453125,0.30859375
1587,-0.07421875,-0.9296875,0.3359375
1588,-0.11328125,-0.9375,0.3203125
1589,-0.08203125,-0.96875,0.3203125
1590,-0.0546875,-0.99609375,0.328125
1591,-0.03125,-0.99609375,0.32421875
1592,0.0,-1.01171875,0.30859375
1593,0.015625,-1.0,0.33203125
1594,0.0234375,-0.99609375,0.33203125
1595,0.0234375,-0.98828125,0.328125
1596,0.015625,-0.984375,0.3359375
1597,0.015625,-0.984375,0.328125
1598,0.17578125,-1.015625,0.33203125
1599,0.0703125,-1.0,0.359375
1600,0.0,-0.98046875,0.359375
1601,-0.03515625,-0.94921875,0.3671875
1602,-0.01953125,-0.96875,0.39453125
1603,-0.0234375,-0.94921875,0.40625
1604,-0.015625,-0.93359375,0.390625
1605,0.01171875,-0.9375,0.39453125
1606,0.04296875,-0.91796875,0.3828125
1607,0.01171875,-0.9140625,0.37109375
1608,-0.015625,-0.90625,0.36328125
1609,0.0234375,-0.93359375,0.3671875
1610,0.02734375,-0.9453125,0.34765625
1611,0.0,-0.91796875,0.3359375
1612,-0.0390625,-0.91796875,0.34375
1613,-0.05859375,-0.921875,0.34765625
1614,-0.01171875,-0.94140625,0.3359375
1615,-0.0546875,-0.9296875,0.3359375
1616,-0.046875,-0.9375,0.35546875
1617,-0.01953125,-0.96875,0.36328125
1618,0.046875,-0.9609375,0.36328125
1619,0.08203125,-0.95703125,0.3515625
1620,0.0234375,-0.9375,0.33203125
1621,0.046875,-0.94921875,0.29296875
1622,0.08203125,-0.9609375,0.28125
1623,-0.08203125,-0.9453125,0.27734375
1624,-0.0390625,-0.96875,0.28515625
1625,-0.04296875,-0.953125,0.28125
1626,-0.07421875,-0.93359375,0.26171875
1627,0.01171875,-0.9375,0.24609375
1628,0.03515625,-0.8984375,0.23828125
1629,0.0,-0.87109375,0.2265625
1630,-0.08984375,-0.8359375,0.21484375
1631,-0.04296875,-0.8515625,0.2265625
1632,-0.0234375,-0.86328125,0.21875
1633,0.0078125,-0.87109375,0.22265625
1634,0.046875,-0.90234375,0.23046875
1635,0.04296875,-0.8984375,0.23046875
1636,-0.0234375,-0.91015625,0.24609375
1637,-0.08984375,-0.91015625,0.25
1638,-0.05859375,-0.9140625,0.27734375
1639,-0.0234375,-0.93359375,0.2734375
1640,-0.0234375,-0.953125,0.31640625
1641,0.0,-0.953125,0.328125
1642,-0.0078125,-0.94921875,0.3359375
1643,-0.02734375,-0.9296875,0.31640625
1644,-0.03515625,-0.9296875,0.35546875
1645,-0.0703125,-0.91015625,0.35546875
1646,-0.09765625,-0.90625,0.3515625
1647,-0.06640625,-0.921875,0.3828125
1648,-0.05859375,-0.90625,0.36328125
1649,-0.02734375,-0.9140625,0.3828125
1650,-0.078125,-0.90625,0.390625
1651,-0.08203125,-0.90625,0.39453125
1652,-0.0859375,-0.88671875,0.4140625
1653,-0.03515625,-0.9140625,0.40625
1654,-0.0234375,-0.90234375,0.4140625
1655,0.0,-0.9140625,0.39453125
1656,0.00390625,-0.9140625,0.39453125
1657,0.00390625,-0.921875,0.390625
1658,-0.015625,-0.93359375,0.38671875
1659,-0.02734375,-0.9453125,0.3984375
1660,-0.04296875,-0.94921875,0.38671875
1661,-0.04296875,-0.9375,0.3984375
1662,0.0,-0.95703125,0.38671875
1663,0.0390625,-0.96484375,0.390625
1664,-0.03515625,-0.91796875,0.38671875
1665,-0.06640625,-0.9140625,0.39453125
1666,-0.046875,-0.921875,0.37890625
1667,0.01171875,-0.93359375,0.39453125
1668,0.0625,-0.96484375,0.3671875
1669,0.078125,-0.96875,0.3671875
1670,0.015625,-0.94140625,0.33203125
1671,0.0234375,-0.96484375,0.33203125
1672,0.0390625,-0.9140625,0.3671875
1673,0.03125,-0.9609375,0.34765625
1674,0.015625,-0.9453125,0.3359375
1675,-0.0234375,-0.91796875,0.359375
1676,0.0,-0.91796875,0.3671875
1677,-0.00390625,-0.9453125,0.390625
1678,-0.05859375,-0.921875,0.37109375
1679,-0.05859375,-0.94921875,0.34765625
1680,-0.08984375,-0.9296875,0.37890625
1681,-0.11328125,-0.95703125,0.3671875
1682,-0.21875,-0.92578125,0.375
1683,-0.203125,-0.94921875,0.375
1684,-0.125,-0.95703125,0.3515625
1685,-0.125,-0.9375,0.33203125
1686,-0.15625,-0.91796875,0.3359375
1687,-0.23046875,-0.875,0.328125
1688,-0.18359375,-0.92578125,0.37109375
1689,-0.140625,-0.98828125,0.3671875
1690,-0.125,-1.01171875,0.35546875
1691,-0.08203125,-0.94921875,0.33984375
1692,-0.0234375,-0.87109375,0.3203125
1693,0.00390625,-0.80859375,0.27734375
1694,0.03125,-0.8359375,0.29296875
1695,-0.015625,-0.9140625,0.29296875
1696,-0.03125,-0.96484375,0.32421875
1697,0.01953125,-1.01171875,0.35546875
1698,0.01953125,-1.01171875,0.375
1699,-0.02734375,-0.95703125,0.359375
1700,0.0,-0.9453125,0.390625
1701,0.00390625,-0.92578125,0.39453125
1702,-0.06640625,-0.88671875,0.3984375
1703,-0.0859375,-0.8671875,0.40234375
1704,-0.07421875,-0.88671875,0.42578125
1705,-0.0859375,-0.89453125,0.421875
1706,0.0,-0.921875,0.421875
1707,0.0703125,-0.9296875,0.421875
1708,0.0,-0.87890625,0.3984375
1709,-0.1328125,-0.8515625,0.41796875
1710,-0.1171875,-0.8515625,0.45703125
1711,-0.0390625,-0.86328125,0.4453125
1712,-0.05859375,-0.8203125,0.41796875
1713,-0.0546875,-0.8125,0.4375
1714,-0.04296875,-0.8046875,0.43359375
1715,-0.01953125,-0.81640625,0.44140625
1716,-0.00390625,-0.8203125,0.42578125
1717,0.0,-0.828125,0.42578125
1718,0.0,-0.82421875,0.43359375
1719,0.01171875,-0.828125,0.4296875
1720,0.00390625,-0.81640625,0.44921875
1721,0.0,-0.80859375,0.453125
1722,0.01953125,-0.8046875,0.453125
1723,0.03515625,-0.796875,0.45703125
1724,0.046875,-0.7890625,0.45703125
1725,0.03125,-0.7890625,0.4375
1726,0.046875,-0.80859375,0.4375
1727,0.05859375,-0.82421875,0.4296875
1728,0.06640625,-0.85546875,0.41015625
1729,0.06640625,-0.88671875,0.41796875
1730,0.08984375,-0.91015625,0.40234375
1731,0.08984375,-0.9296875,0.38671875
1732,0.10546875,-0.953125,0.38671875
1733,0.1171875,-0.95703125,0.37890625
1734,0.12890625,-0.96484375,0.37890625
1735,0.1484375,-0.95703125,0.37890625
1736,0.15234375,-0.9609375,0.37890625
1737,0.15625,-0.94140625,0.3984375
1738,0.15625,-0.9296875,0.39453125
1739,0.16796875,-0.9140625,0.421875
1740,0.1640625,-0.9140625,0.4140625
1741,0.1484375,-0.91015625,0.44140625
1742,0.14453125,-0.91796875,0.46484375
1743,0.1328125,-0.90625,0.4609375
1744,0.12890625,-0.90625,0.44921875
1745,0.125,-0.890625,0.45703125
1746,0.12890625,-0.8828125,0.46875
1747,0.125,-0.890625,0.4609375
1748,0.12890625,-0.88671875,0.4453125
1749,0.1328125,-0.87890625,0.453125
1750,0.1328125,-0.875,0.45703125
1751,0.140625,-0.890625,0.46875
1752,0.140625,-0.8828125,0.46875
1753,0.1328125,-0.890625,0.44140625
1754,0.109375,-0.87109375,0.44921875
1755,0.12109375,-0.91015625,0.453125
1756,0.12109375,-0.90625,0.453125
1757,0.11328125,-0.91796875,0.44921875
1758,0.1171875,-0.9296875,0.4453125
1759,0.11328125,-0.94140625,0.4453125
1760,0.09375,-0.921875,0.43359375
1761,0.09765625,-0.921875,0.44140625
1762,0.1015625,-0.92578125,0.421875
1763,0.0859375,-0.91015625,0.43359375
1764,0.09375,-0.91015625,0.4140625
1765,0.07421875,-0.890625,0.42578125
1766,0.0703125,-0.90625,0.4140625
1767,0.06640625,-0.890625,0.4140625
1768,0.05859375,-0.90234375,0.41796875
1769,0.05859375,-0.890625,0.4140625
1770,0.046875,-0.9140625,0.41796875
1771,0.0390625,-0.90234375,0.4140625
1772,0.04296875,-0.9140625,0.40625
1773,0.03125,-0.91796875,0.41015625
1774,0.0234375,-0.8984375,0.3984375
1775,0.02734375,-0.8984375,0.3984375
1776,0.01171875,-0.87890625,0.39453125
1777,0.0078125,-0.890625,0.390625
1778,0.015625,-0.88671875,0.36328125
1779,0.0,-0.87890625,0.375
1780,0.01953125,-0.890625,0.3671875
1781,0.00390625,-0.8828125,0.37890625
1782,0.01171875,-0.90234375,0.375
1783,0.00390625,-0.90625,0.37109375
1784,0.015625,-0.93359375,0.375
1785,0.015625,-0.92578125,0.375
1786,0.01171875,-0.91796875,0.359375
1787,0.0078125,-0.90625,0.390625
1788,0.00390625,-0.9140625,0.3828125
1789,0.01953125,-0.91015625,0.37890625
1790,0.01953125,-0.90625,0.37890625
1791,0.0390625,-0.90625,0.3671875
1792,0.0390625,-0.89453125,0.39453125
1793,0.046875,-0.8984375,0.390625
1794,0.046875,-0.88671875,0.375
1795,0.04296875,-0.88671875,0.39453125
1796,0.0390625,-0.87890625,0.40625
1797,0.015625,-0.87890625,0.40625
1798,0.02734375,-0.890625,0.39453125
1799,0.0390625,-0.90234375,0.41796875
1800,0.015625,-0.89453125,0.40234375
1801,0.01171875,-0.8828125,0.40234375
1802,0.01171875,-0.89453125,0.40625
1803,0.00390625,-0.87890625,0.40234375
1804,0.00390625,-0.8828125,0.40625
1805,-0.01171875,-0.87890625,0.421875
1806,-0.046875,-0.87890625,0.4140625
1807,-0.02734375,-0.890625,0.42578125
1808,0.00390625,-0.90234375,0.421875
1809,0.0,-0.8984375,0.4140625
1810,-0.00390625,-0.88671875,0.42578125
1811,-0.01171875,-0.8828125,0.4375
1812,0.0,-0.90234375,0.421875
1813,-0.0625,-0.87890625,0.4140625
1814,-0.01953125,-0.89453125,0.4296875
1815,0.0234375,-0.90234375,0.42578125
1816,0.0390625,-0.8984375,0.43359375
1817,0.0390625,-0.890625,0.42578125
1818,0.0234375,-0.87890625,0.4375
1819,0.01953125,-0.89453125,0.44921875
1820,0.05078125,-0.88671875,0.44140625
1821,0.0546875,-0.87890625,0.43359375
1822,0.0625,-0.88671875,0.4375
1823,0.0625,-0.875,0.44921875
1824,0.05859375,-0.87109375,0.44140625
1825,0.078125,-0.87890625,0.44140625
1826,0.109375,-0.8828125,0.4453125
1827,0.10546875,-0.890625,0.44921875
1828,0.09765625,-0.87109375,0.4375
1829,0.1328125,-0.88671875,0.453125
1830,0.109375,-0.88671875,0.44140625
1831,0.10546875,-0.87109375,0.4296875
1832,0.10546875,-0.8671875,0.42578125
1833,0.1015625,-0.8671875,0.4296875
1834,0.11328125,-0.85546875,0.4375
1835,0.12890625,-0.87890625,0.4375
1836,0.1171875,-0.875,0.4609375
1837,0.13671875,-0.86328125,0.453125
1838,0.125,-0.86328125,0.4609375
1839,0.1171875,-0.85546875,0.46875
1840,0.12890625,-0.83984375,0.46484375
1841,0.12890625,-0.84765625,0.453125
1842,0.12109375,-0.8515625,0.46875
1843,0.13671875,-0.84765625,0.46484375
1844,0.1328125,-0.8515625,0.47265625
1845,0.1171875,-0.859375,0.4609375
1846,0.12890625,-0.859375,0.4765625
1847,0.125,-0.859375,0.46875
1848,0.1328125,-0.85546875,0.46484375
1849,0.13671875,-0.85546875,0.453125
1850,0.140625,-0.84765625,0.44140625
1851,0.140625,-0.84765625,0.47265625
1852,0.12890625,-0.8359375,0.44921875
1853,0.1171875,-0.83203125,0.44921875
1854,0.1171875,-0.83203125,0.4296875
1855,0.12109375,-0.84375,0.421875
1856,0.125,-0.82421875,0.4140625
1857,0.1328125,-0.828125,0.41015625
1858,0.13671875,-0.84375,0.39453125
1859,0.1328125,-0.84375,0.40625
1860,0.13671875,-0.83203125,0.37890625
1861,0.14453125,-0.8515625,0.390625
1862,0.140625,-0.83984375,0.40234375
1863,0.14453125,-0.8359375,0.4140625
1864,0.13671875,-0.83203125,0.421875
1865,0.140625,-0.8359375,0.43359375
1866,0.125,-0.84375,0.4375
1867,0.125,-0.84765625,0.47265625
1868,0.1171875,-0.859375,0.48828125
1869,0.12890625,-0.88671875,0.4921875
1870,0.109375,-0.88671875,0.48046875
1871,0.12109375,-0.90625,0.4765625
1872,0.125,-0.89453125,0.45703125
1873,0.1328125,-0.9140625,0.43359375
1874,0.1171875,-0.91015625,0.421875
1875,0.1171875,-0.91015625,0.41796875
1876,0.1171875,-0.91796875,0.421875
1877,0.1171875,-0.91796875,0.421875
1878,0.08203125,-0.91015625,0.4140625
1879,0.078125,-0.90625,0.43359375
1880,0.078125,-0.91015625,0.4453125
1881,0.078125,-0.90234375,0.44140625
1882,0.0703125,-0.9140625,0.4609375
1883,0.07421875,-0.89453125,0.4453125
1884,0.0625,-0.91015625,0.4609375
1885,0.07421875,-0.91015625,0.44140625
1886,0.05859375,-0.89453125,0.46875
1887,0.0546875,-0.8828125,0.45703125
1888,0.06640625,-0.89453125,0.4609375
1889,0.06640625,-0.890625,0.46875
1890,0.06640625,-0.86328125,0.48046875
1891,0.07421875,-0.890625,0.46875
1892,0.0859375,-0.88671875,0.4765625
1893,0.05859375,-0.87109375,0.46875
1894,0.046875,-0.875,0.47265625
1895,0.046875,-0.88671875,0.4453125
1896,0.07421875,-0.890625,0.43359375
1897,0.0703125,-0.89453125,0.41796875
1898,0.0859375,-0.88671875,0.4140625
1899,0.10546875,-0.8984375,0.41796875
1900,0.1015625,-0.90234375,0.42578125
1901,0.09765625,-0.87890625,0.421875
1902,0.08984375,-0.89453125,0.421875
1903,0.10546875,-0.8828125,0.421875
1904,0.09765625,-0.8828125,0.42578125
1905,0.078125,-0.890625,0.42578125
1906,0.27734375,-0.92578125,0.41015625
1907,0.03125,-0.8671875,0.40234375
1908,-0.01953125,-0.890625,0.42578125
1909,-0.015625,-0.92578125,0.41796875
1910,0.0234375,-0.9453125,0.41015625
1911,0.01171875,-0.953125,0.3828125
1912,0.02734375,-0.95703125,0.37890625
1913,0.0234375,-0.96484375,0.36328125
1914,0.03125,-0.94921875,0.35546875
1915,0.0234375,-0.94921875,0.34765625
1916,0.03125,-0.9296875,0.33203125
1917,0.04296875,-0.94921875,0.33984375
1918,0.03515625,-0.9375,0.32421875
1919,0.02734375,-0.9375,0.3125
1920,0.03125,-0.9375,0.29296875
1921,0.02734375,-0.92578125,0.31640625
1922,0.0234375,-0.921875,0.30859375
1923,0.015625,-0.921875,0.296875
1924,0.01953125,-0.90234375,0.3203125
1925,0.03125,-0.8984375,0.30078125
1926,0.01953125,-0.91015625,0.31640625
1927,0.01171875,-0.91015625,0.3515625
1928,0.01171875,-0.90625,0.34375
1929,0.015625,-0.91796875,0.33984375
1930,0.01953125,-0.92578125,0.33203125
1931,0.01171875,-0.91796875,0.3515625
1932,0.0234375,-0.92578125,0.3515625
1933,0.01171875,-0.921875,0.35546875
1934,0.01953125,-0.9296875,0.3671875
1935,0.0,-0.92578125,0.359375
1936,0.0078125,-0.921875,0.3671875
1937,0.015625,-0.9296875,0.35546875
1938,0.01171875,-0.9140625,0.359375
1939,0.015625,-0.91015625,0.375
1940,0.01953125,-0.91015625,0.390625
1941,0.03125,-0.90625,0.39453125
1942,0.03515625,-0.90625,0.40234375
1943,0.046875,-0.90234375,0.40625
1944,0.05859375,-0.90625,0.41015625
1945,0.046875,-0.90625,0.421875
1946,0.05859375,-0.89453125,0.421875
1947,0.0625,-0.890625,0.41796875
1948,0.0703125,-0.890625,0.41015625
1949,0.0625,-0.88671875,0.42578125
1950,0.06640625,-0.91015625,0.44140625
1951,0.0625,-0.88671875,0.4296875
1952,0.06640625,-0.8828125,0.42578125
1953,0.07421875,-0.8984375,0.42578125
1954,0.07421875,-0.90625,0.421875
1955,0.0703125,-0.91015625,0.43359375
1956,0.07421875,-0.91796875,0.41796875
1957,0.07421875,-0.90625,0.42578125
1958,0.078125,-0.9140625,0.4296875
1959,0.09375,-0.91796875,0.42578125
1960,0.09765625,-0.91015625,0.40625
1961,0.0859375,-0.8984375,0.41796875
1962,0.09375,-0.8984375,0.421875
1963,0.10546875,-0.8984375,0.43359375
1964,0.09765625,-0.8828125,0.41796875
1965,0.1015625,-0.88671875,0.41796875
1966,0.09765625,-0.89453125,0.42578125
1967,0.09375,-0.89453125,0.421875
1968,0.09375,-0.890625,0.42578125
1969,0.11328125,-0.87890625,0.41796875
1970,0.09765625,-0.88671875,0.40625
1971,0.109375,-0.88671875,0.41015625
1972,0.1171875,-0.8828125,0.4140625
1973,0.13671875,-0.89453125,0.4140625
1974,0.12109375,-0.8828125,0.41796875
1975,0.1171875,-0.8828125,0.41796875
1976,0.125,-0.89453125,0.41015625
1977,0.11328125,-0.89453125,0.4140625
1978,0.11328125,-0.8828125,0.4140625
1979,0.11328125,-0.890625,0.40625
1980,0.1171875,-0.8984375,0.40234375
1981,0.1171875,-0.90234375,0.40234375
1982,0.10546875,-0.90234375,0.3984375
1983,0.10546875,-0.87890625,0.37890625
1984,0.09765625,-0.87109375,0.3828125
1985,0.1015625,-0.890625,0.39453125
1986,0.09765625,-0.8828125,0.3828125
1987,0.0859375,-0.890625,0.38671875
1988,0.0859375,-0.87890625,0.3984375
1989,0.09375,-0.8828125,0.40234375
1990,0.0859375,-0.89453125,0.40234375
1991,0.05859375,-0.875,0.41015625
1992,-0.10546875,-0.85546875,0.4140625
1993,0.10546875,-0.9140625,0.4375
1994,0.140625,-0.90625,0.390625
1995,0.13671875,-0.88671875,0.40625
1996,0.125,-0.890625,0.421875
1997,0.09375,-0.88671875,0.4140625
1998,0.08203125,-0.89453125,0.41796875
1999,0.07421875,-0.8828125,0.41015625
2000,0.08203125,-0.8984375,0.42578125
2001,0.078125,-0.87890625,0.41796875
2002,0.06640625,-0.88671875,0.41796875
2003,0.0703125,-0.87890625,0.4296875
2004,0.07421875,-0.88671875,0.4140625
2005,0.06640625,-0.87890625,0.41015625
2006,0.06640625,-0.875,0.421875
2007,0.0546875,-0.87109375,0.41796875
2008,0.05859375,-0.87109375,0.42578125
2009,0.05859375,-0.87109375,0.421875
2010,0.0546875,-0.8671875,0.4296875
2011,0.0625,-0.87890625,0.42578125
2012,0.07421875,-0.87890625,0.4296875
2013,0.06640625,-0.87890625,0.421875
2014,0.08984375,-0.88671875,0.44140625
2015,0.06640625,-0.89453125,0.390625
2016,0.07421875,-0.8984375,0.4296875
2017,0.08203125,-0.8984375,0.41796875
2018,0.07421875,-0.8984375,0.4375
2019,0.07421875,-0.91015625,0.421875
2020,0.08203125,-0.90234375,0.41796875
2021,0.08203125,-0.90234375,0.4140625
2022,0.09375,-0.890625,0.4140625
2023,0.078125,-0.8984375,0.41015625
2024,0.0859375,-0.89453125,0.421875
2025,0.08984375,-0.8984375,0.41796875
2026,0.08984375,-0.890625,0.42578125
2027,0.0859375,-0.89453125,0.41796875
2028,0.08203125,-0.87890625,0.4140625
2029,0.08984375,-0.88671875,0.41796875
2030,0.08203125,-0.89453125,0.421875
2031,0.08203125,-0.88671875,0.42578125
2032,0.0859375,-0.88671875,0.41796875
2033,0.07421875,-0.87890625,0.41796875
2034,0.0859375,-0.88671875,0.42578125
2035,0.0859375,-0.890625,0.421875
2036,0.0859375,-0.89453125,0.421875
2037,0.0625,-0.88671875,0.41015625
2038,0.0703125,-0.88671875,0.41796875
2039,0.07421875,-0.88671875,0.41796875
2040,0.0859375,-0.8828125,0.41796875
2041,0.08203125,-0.8828125,0.4140625
2042,0.0859375,-0.890625,0.41015625
2043,0.07421875,-0.890625,0.4140625
2044,0.06640625,-0.8828125,0.4296875
2045,0.0703125,-0.87890625,0.4140625
2046,0.0859375,-0.890625,0.41796875
2047,0.07421875,-0.8984375,0.40625
2048,0.0703125,-0.890625,0.40625
2049,0.078125,-0.87890625,0.40625
2050,0.07421875,-0.890625,0.40625
2051,0.08203125,-0.89453125,0.3984375
2052,0.0703125,-0.890625,0.421875
2053,0.07421875,-0.890625,0.41796875
2054,0.078125,-0.88671875,0.41015625
2055,0.0859375,-0.890625,0.421875
2056,0.0859375,-0.88671875,0.421875
2057,0.09375,-0.89453125,0.41796875
2058,0.0859375,-0.8828125,0.42578125
2059,0.08203125,-0.8828125,0.42578125
2060,0.0859375,-0.8828125,0.4296875
2061,0.1015625,-0.89453125,0.43359375
2062,0.0859375,-0.88671875,0.41796875
2063,0.08203125,-0.8828125,0.421875
2064,0.09375,-0.88671875,0.42578125
2065,0.08203125,-0.8828125,0.4296875
2066,-0.22265625,-0.7734375,0.421875
2067,0.0859375,-0.9296875,0.453125
2068,0.1875,-0.90234375,0.40234375
2069,0.18359375,-0.87890625,0.41796875
2070,0.15625,-0.8828125,0.42578125
2071,0.1328125,-0.88671875,0.4296875
2072,0.1328125,-0.88671875,0.42578125
2073,0.1328125,-0.87890625,0.421875
2074,0.12109375,-0.8828125,0.4296875
2075,0.11328125,-0.87890625,0.43359375
2076,0.09765625,-0.875,0.421875
2077,0.1015625,-0.890625,0.421875
2078,0.0859375,-0.875,0.421875
2079,0.0859375,-0.87890625,0.4296875
2080,0.08203125,-0.8828125,0.42578125
2081,0.08984375,-0.859375,0.4296875
2082,0.08984375,-0.87890625,0.4296875
2083,0.08984375,-0.87890625,0.42578125
2084,0.0859375,-0.88671875,0.41796875
2085,0.09375,-0.88671875,0.4296875
2086,0.07421875,-0.88671875,0.41015625
2087,0.0859375,-0.88671875,0.42578125
2088,0.078125,-0.890625,0.42578125
2089,0.08984375,-0.8828125,0.40625
2090,0.09375,-0.87890625,0.43359375
2091,0.08203125,-0.890625,0.4140625
2092,0.08203125,-0.890625,0.4140625
2093,0.08984375,-0.890625,0.42578125
2094,0.07421875,-0.8828125,0.42578125
2095,0.0703125,-0.87890625,0.421875
2096,0.078125,-0.88671875,0.421875
2097,0.0859375,-0.890625,0.4296875
2098,0.07421875,-0.88671875,0.41015625
2099,0.0859375,-0.87890625,0.41796875
2100,0.07421875,-0.88671875,0.41796875
2101,0.08984375,-0.88671875,0.421875
2102,0.078125,-0.87890625,0.421875
2103,0.08984375,-0.87890625,0.39453125
2104,0.078125,-0.88671875,0.41796875
2105,0.09375,-0.8828125,0.4140625
2106,0.08984375,-0.88671875,0.42578125
2107,0.0859375,-0.8828125,0.41796875
2108,0.08203125,-0.87109375,0.42578125
2109,0.09375,-0.88671875,0.42578125
2110,0.0859375,-0.88671875,0.421875
2111,0.08984375,-0.8828125,0.42578125
2112,0.1015625,-0.90234375,0.41796875
2113,0.09375,-0.88671875,0.4140625
2114,0.0859375,-0.890625,0.41796875
2115,0.08984375,-0.890625,0.41796875
2116,0.09765625,-0.890625,0.41796875
2117,0.09765625,-0.91015625,0.41015625
2118,0.0859375,-0.89453125,0.40234375
2119,0.09375,-0.90234375,0.40234375
2120,0.09375,-0.890625,0.40625
2121,0.09375,-0.88671875,0.421875
2122,0.09765625,-0.890625,0.41015625
2123,0.09765625,-0.890625,0.41796875
2124,0.10546875,-0.89453125,0.41015625
2125,0.09375,-0.88671875,0.421875
2126,0.08984375,-0.8828125,0.4296875
2127,0.0859375,-0.875,0.41796875
2128,0.1015625,-0.875,0.421875
2129,0.08984375,-0.87109375,0.41796875
2130,0.09375,-0.87109375,0.421875
2131,0.1015625,-0.875,0.4296875
2132,0.08984375,-0.87109375,0.43359375
2133,0.09765625,-0.87109375,0.4375
2134,0.09765625,-0.8671875,0.4296875
2135,0.08984375,-0.87890625,0.43359375
2136,0.09375,-0.8828125,0.42578125
2137,0.08203125,-0.87890625,0.4140625
2138,0.0859375,-0.87890625,0.4375
2139,0.09375,-0.87890625,0.42578125
2140,0.08984375,-0.8828125,0.42578125
2141,0.0859375,-0.875,0.4296875
2142,0.0859375,-0.88671875,0.4296875
2143,0.09375,-0.89453125,0.42578125
2144,0.08203125,-0.875,0.4296875
2145,0.08984375,-0.8828125,0.4296875
2146,0.08203125,-0.89453125,0.4296875
2147,0.08984375,-0.875,0.4296875
2148,0.0859375,-0.8828125,0.44921875
2149,0.0859375,-0.890625,0.43359375
2150,0.09375,-0.8828125,0.44140625
2151,0.09765625,-0.88671875,0.41796875
2152,0.09375,-0.8828125,0.44140625
2153,0.1015625,-0.8828125,0.44140625
2154,0.09375,-0.88671875,0.4375
2155,0.08203125,-0.875,0.421875
2156,0.08203125,-0.875,0.43359375
2157,0.09375,-0.8828125,0.43359375
2158,0.09375,-0.8828125,0.4296875
2159,0.09375,-0.890625,0.43359375
2160,0.0859375,-0.8671875,0.43359375
2161,0.09375,-0.8828125,0.42578125
2162,0.07421875,-0.86328125,0.44140625
2163,-0.06640625,-0.85546875,0.43359375
2164,0.0625,-0.88671875,0.4375
2165,0.13671875,-0.890625,0.44140625
2166,0.14453125,-0.875,0.4296875
2167,0.13671875,-0.87890625,0.4453125
2168,0.12109375,-0.875,0.453125
2169,0.1015625,-0.875,0.4453125
2170,0.08203125,-0.8671875,0.44140625
2171,0.08984375,-0.875,0.44921875
2172,0.09765625,-0.87890625,0.4296875
2173,0.09375,-0.87109375,0.4296875
2174,0.09375,-0.87109375,0.4453125
2175,0.0859375,-0.87109375,0.4375
2176,0.09375,-0.88671875,0.4375
2177,0.08984375,-0.8828125,0.4375
2178,0.09375,-0.85546875,0.4296875
2179,0.0859375,-0.875,0.44140625
2180,0.0859375,-0.87109375,0.4296875
2181,0.10546875,-0.8671875,0.43359375
2182,0.1015625,-0.87890625,0.4296875
2183,0.0859375,-0.875,0.44140625
2184,0.0859375,-0.875,0.421875
2185,0.0859375,-0.87109375,0.4375
2186,0.09375,-0.86328125,0.4375
2187,0.1015625,-0.875,0.42578125
2188,0.09375,-0.875,0.43359375
2189,0.09375,-0.875,0.4453125
2190,0.0859375,-0.875,0.4453125
2191,0.09375,-0.87109375,0.421875
2192,0.09375,-0.859375,0.44140625
2193,0.09375,-0.87890625,0.44921875
2194,0.09765625,-0.8671875,0.44140625
2195,0.09375,-0.859375,0.44140625
2196,0.1015625,-0.8671875,0.44921875
2197,0.1015625,-0.85546875,0.44140625
2198,0.09375,-0.8671875,0.4609375
2199,0.1015625,-0.8671875,0.4453125
2200,0.09765625,-0.8671875,0.4453125
2201,0.10546875,-0.8671875,0.453125
2202,0.09765625,-0.8671875,0.4453125
2203,0.09765625,-0.86328125,0.4453125
2204,0.1015625,-0.86328125,0.4375
2205,0.1015625,-0.87109375,0.44921875
2206,0.10546875,-0.875,0.43359375
2207,0.08984375,-0.87109375,0.45703125
2208,0.09375,-0.86328125,0.46484375
2209,0.09765625,-0.87890625,0.4296875
2210,0.0859375,-0.85546875,0.453125
2211,0.11328125,-0.88671875,0.44921875
2212,0.0859375,-0.859375,0.4375
2213,0.08984375,-0.8671875,0.453125
2214,0.09375,-0.875,0.46484375
2215,0.10546875,-0.87109375,0.44921875
2216,0.109375,-0.875,0.44140625
2217,0.08984375,-0.87109375,0.4453125
2218,0.0859375,-0.86328125,0.44921875
2219,0.09375,-0.875,0.45703125
2220,0.09375,-0.87109375,0.44140625
2221,0.10546875,-0.88671875,0.44140625
2222,0.09765625,-0.8828125,0.4453125
2223,0.09375,-0.8671875,0.453125
2224,0.0859375,-0.8671875,0.44140625
2225,0.09765625,-0.8671875,0.453125
2226,0.09375,-0.87109375,0.4453125
2227,0.0859375,-0.85546875,0.44140625
2228,0.08984375,-0.86328125,0.43359375
2229,0.08984375,-0.87109375,0.4453125
2230,0.1015625,-0.87109375,0.45703125
2231,0.08984375,-0.859375,0.4453125
2232,0.08984375,-0.87109375,0.45703125
2233,0.06640625,-0.86328125,0.44921875
2234,0.07421875,-0.86328125,0.453125
2235,0.08984375,-0.8671875,0.44921875
2236,0.09375,-0.87109375,0.453125
2237,0.08984375,-0.8671875,0.453125
2238,0.09765625,-0.87109375,0.453125
2239,0.08984375,-0.8671875,0.45703125
2240,0.09375,-0.87109375,0.44921875
2241,0.09375,-0.87109375,0.4375
2242,0.08984375,-0.8671875,0.44140625
2243,0.1015625,-0.86328125,0.453125
2244,0.09765625,-0.87109375,0.45703125
2245,0.09375,-0.87109375,0.44921875
2246,0.109375,-0.87109375,0.453125
2247,0.1015625,-0.87109375,0.453125
2248,0.1015625,-0.87109375,0.44921875
2249,0.10546875,-0.859375,0.46484375
2250,0.09375,-0.875,0.4609375
2251,0.08984375,-0.85546875,0.45703125
2252,0.08984375,-0.87109375,0.4609375
2253,0.1015625,-0.875,0.4609375
2254,0.109375,-0.87890625,0.44921875
2255,0.10546875,-0.87109375,0.44921875
2256,0.09375,-0.859375,0.45703125
2257,0.09765625,-0.875,0.4453125
2258,0.09375,-0.8828125,0.453125
2259,0.10546875,-0.8671875,0.4453125
2260,0.09765625,-0.86328125,0.4453125
2261,0.11328125,-0.875,0.4453125
2262,0.1015625,-0.87109375,0.4453125
2263,0.10546875,-0.86328125,0.4453125
2264,0.09375,-0.85546875,0.4375
2265,0.10546875,-0.859375,0.44921875
2266,0.10546875,-0.87109375,0.44921875
2267,0.09375,-0.8515625,0.453125
2268,0.09765625,-0.8515625,0.4609375
2269,0.09765625,-0.8515625,0.45703125
2270,0.09375,-0.8515625,0.4609375
2271,0.08984375,-0.84765625,0.45703125
2272,0.09375,-0.8515625,0.4609375
2273,0.09765625,-0.85546875,0.4609375
2274,0.08984375,-0.86328125,0.46484375
2275,0.09765625,-0.85546875,0.4609375
2276,0.09765625,-0.85546875,0.46484375
2277,0.0625,-0.859375,0.4765625
2278,0.0859375,-0.84765625,0.453125
2279,0.08203125,-0.8515625,0.453125
2280,0.0859375,-0.859375,0.453125
2281,0.09765625,-0.859375,0.45703125
2282,0.09765625,-0.8671875,0.4453125
2283,0.10546875,-0.8671875,0.453125
2284,0.0859375,-0.84765625,0.46484375
2285,0.09765625,-0.859375,0.453125
2286,0.1015625,-0.86328125,0.47265625
2287,0.08984375,-0.8515625,0.44921875
2288,0.1015625,-0.87109375,0.46484375
2289,0.1015625,-0.8671875,0.45703125
2290,0.1015625,-0.86328125,0.45703125
2291,0.09765625,-0.8671875,0.4453125
2292,0.08203125,-0.859375,0.4453125
2293,0.0859375,-0.87109375,0.453125
2294,0.08984375,-0.859375,0.453125
2295,0.09765625,-0.86328125,0.453125
2296,0.09375,-0.86328125,0.46484375
2297,0.09375,-0.86328125,0.44921875
2298,0.0859375,-0.8671875,0.47265625
2299,0.06640625,-0.86328125,0.44140625
2300,0.1015625,-0.87109375,0.45703125
2301,0.1015625,-0.85546875,0.46875
2302,0.08203125,-0.86328125,0.44921875
2303,0.10546875,-0.8515625,0.44921875
2304,0.08984375,-0.85546875,0.4765625
2305,0.10546875,-0.859375,0.4609375
2306,0.09765625,-0.8671875,0.47265625
2307,0.08984375,-0.8671875,0.46484375
2308,0.1015625,-0.8515625,0.46484375
2309,0.09765625,-0.8671875,0.46875
2310,0.09375,-0.86328125,0.47265625
2311,0.109375,-0.875,0.46484375
2312,0.09375,-0.859375,0.4609375
2313,0.10546875,-0.86328125,0.45703125
2314,0.1015625,-0.85546875,0.45703125
2315,0.09765625,-0.859375,0.46484375
2316,0.1015625,-0.86328125,0.4609375
2317,0.10546875,-0.87109375,0.45703125
2318,0.08984375,-0.859375,0.45703125
2319,0.1015625,-0.859375,0.45703125
2320,0.09765625,-0.859375,0.4765625
2321,0.10546875,-0.875,0.453125
2322,0.1015625,-0.859375,0.4609375
2323,0.1015625,-0.85546875,0.4609375
2324,0.10546875,-0.859375,0.46484375
2325,0.10546875,-0.8671875,0.46484375
2326,0.1015625,-0.8515625,0.453125
2327,0.09765625,-0.85546875,0.4609375
2328,0.1015625,-0.8515625,0.4765625
2329,0.09765625,-0.859375,0.4609375
2330,0.1015625,-0.859375,0.45703125
2331,0.09765625,-0.8515625,0.4609375
2332,0.1015625,-0.86328125,0.46875
2333,0.10546875,-0.8515625,0.45703125
2334,0.1015625,-0.859375,0.45703125
2335,0.09375,-0.86328125,0.46484375
2336,0.10546875,-0.85546875,0.4609375
2337,0.10546875,-0.85546875,0.4609375
2338,0.09765625,-0.87109375,0.453125
2339,0.109375,-0.86328125,0.4765625
2340,0.109375,-0.859375,0.46484375
2341,0.09765625,-0.859375,0.4609375
2342,0.109375,-0.86328125,0.46875
2343,0.1015625,-0.86328125,0.453125
2344,0.09375,-0.87890625,0.4453125
2345,0.10546875,-0.83984375,0.453125
2346,0.10546875,-0.85546875,0.4609375
2347,0.109375,-0.859375,0.453125
2348,0.09375,-0.8671875,0.46484375
2349,0.08203125,-0.85546875,0.46484375
2350,0.08984375,-0.85546875,0.46875
2351,0.09765625,-0.85546875,0.44921875
2352,0.09375,-0.87109375,0.4453125
2353,0.09765625,-0.87109375,0.44921875
2354,0.1015625,-0.85546875,0.4453125
2355,0.10546875,-0.8671875,0.453125
2356,0.09375,-0.859375,0.46875
2357,0.0859375,-0.85546875,0.45703125
2358,0.09765625,-0.859375,0.44921875
2359,0.1015625,-0.859375,0.4609375
2360,0.10546875,-0.87109375,0.45703125
2361,0.09375,-0.8671875,0.47265625
2362,0.08984375,-0.84375,0.45703125
2363,0.09375,-0.8515625,0.46484375
2364,0.12109375,-0.84765625,0.4921875
2365,0.09765625,-0.859375,0.44921875
2366,0.10546875,-0.85546875,0.453125
2367,0.0859375,-0.86328125,0.47265625
2368,0.09765625,-0.86328125,0.453125
2369,0.08984375,-0.859375,0.4609375
2370,0.08984375,-0.86328125,0.44921875
2371,0.09375,-0.859375,0.45703125
2372,0.09765625,-0.8671875,0.453125
2373,0.08984375,-0.85546875,0.46484375
2374,0.09375,-0.8515625,0.43359375
2375,0.09375,-0.8515625,0.48046875
2376,0.09375,-0.86328125,0.46484375
2377,0.09375,-0.86328125,0.44921875
2378,0.1015625,-0.875,0.46875
2379,0.09765625,-0.87109375,0.4609375
2380,0.09375,-0.859375,0.4609375
2381,0.1015625,-0.86328125,0.45703125
2382,0.1015625,-0.859375,0.45703125
2383,0.09375,-0.85546875,0.4453125
2384,0.09765625,-0.859375,0.4609375
2385,0.0859375,-0.86328125,0.46484375
2386,0.10546875,-0.87109375,0.4453125
2387,0.1015625,-0.86328125,0.46875
2388,0.10546875,-0.8671875,0.46875
2389,0.09375,-0.87109375,0.45703125
2390,0.10546875,-0.85546875,0.47265625
2391,0.1015625,-0.85546875,0.4765625
2392,0.109375,-0.8515625,0.45703125
2393,0.10546875,-0.859375,0.46875
2394,0.08203125,-0.84765625,0.45703125
2395,0.1015625,-0.8671875,0.4609375
2396,0.10546875,-0.8671875,0.46875
2397,0.0859375,-0.8671875,0.44921875
2398,0.0859375,-0.85546875,0.45703125
2399,0.09765625,-0.859375,0.45703125
2400,0.1015625,-0.8515625,0.4609375
2401,0.10546875,-0.859375,0.45703125
2402,0.1015625,-0.86328125,0.453125
2403,0.08984375,-0.85546875,0.44140625
2404,0.09375,-0.8515625,0.44921875
2405,0.1015625,-0.86328125,0.4609375
2406,0.09765625,-0.859375,0.46484375
2407,0.07421875,-0.859375,0.484375
2408,0.09765625,-0.859375,0.4609375
2409,0.08984375,-0.85546875,0.45703125
2410,0.1015625,-0.85546875,0.45703125
2411,0.10546875,-0.84765625,0.46875
2412,0.09765625,-0.84765625,0.453125
2413,0.08984375,-0.86328125,0.47265625
2414,0.09765625,-0.8515625,0.46875
2415,0.09375,-0.86328125,0.46484375
2416,0.1015625,-0.86328125,0.453125
2417,0.0859375,-0.859375,0.453125
2418,0.08984375,-0.8671875,0.453125
2419,0.09765625,-0.8671875,0.4765625
2420,0.08984375,-0.859375,0.4609375
2421,0.10546875,-0.87109375,0.46484375
2422,0.09765625,-0.87890625,0.45703125
2423,0.09375,-0.87890625,0.453125
2424,0.09765625,-0.8671875,0.4453125
2425,0.1015625,-0.875,0.4375
2426,0.09765625,-0.859375,0.4375
2427,0.09375,-0.859375,0.4453125
2428,0.1015625,-0.87109375,0.4453125
2429,0.1015625,-0.85546875,0.46484375
2430,0.07421875,-0.86328125,0.45703125
2431,0.08203125,-0.8671875,0.484375
2432,0.109375,-0.84765625,0.44140625
2433,0.09765625,-0.84765625,0.4609375
2434,0.1015625,-0.85546875,0.47265625
2435,0.09765625,-0.8515625,0.46875
2436,0.12109375,-0.85546875,0.484375
2437,0.12109375,-0.828125,0.49609375
2438,0.1015625,-0.8359375,0.47265625
2439,0.109375,-0.86328125,0.46875
2440,0.08984375,-0.859375,0.484375
2441,0.08984375,-0.8515625,0.46875
2442,0.1015625,-0.85546875,0.46484375
2443,0.1015625,-0.8515625,0.45703125
2444,0.08984375,-0.859375,0.50390625
2445,0.0703125,-0.875,0.48046875
2446,0.09765625,-0.828125,0.48828125
2447,0.11328125,-0.83984375,0.48046875
2448,0.0546875,-0.86328125,0.48046875
2449,0.1640625,-0.8671875,0.45703125
2450,0.06640625,-0.84375,0.44140625
2451,0.1015625,-0.85546875,0.5078125
2452,0.10546875,-0.86328125,0.46875
2453,0.0703125,-0.8671875,0.46484375
2454,0.1015625,-0.87890625,0.4453125
2455,0.09765625,-0.83984375,0.45703125
2456,0.1015625,-0.84765625,0.46484375
2457,0.1015625,-0.84765625,0.45703125
2458,0.09765625,-0.85546875,0.44921875
2459,0.1328125,-0.91015625,0.50390625
2460,0.08984375,-0.9140625,0.47265625
2461,0.09765625,-0.81640625,0.47265625
2462,0.140625,-0.84765625,0.46875
2463,0.07421875,-0.85546875,0.4140625
2464,0.109375,-0.86328125,0.4921875
2465,0.0703125,-0.87890625,0.4765625
2466,0.09375,-0.8515625,0.453125
2467,0.10546875,-0.85546875,0.4609375
2468,0.09375,-0.84765625,0.41015625
2469,0.078125,-0.859375,0.5
2470,0.08984375,-0.84375,0.46484375
2471,0.09765625,-0.84765625,0.484375
2472,0.1015625,-0.85546875,0.4765625
2473,0.09375,-0.86328125,0.4765625
2474,0.08203125,-0.89453125,0.453125
2475,0.1171875,-0.7734375,0.453125
2476,0.08984375,-0.8125,0.39453125
2477,0.109375,-0.87890625,0.44921875
2478,0.0703125,-0.8515625,0.50390625
2479,0.15234375,-0.8515625,0.5
2480,0.09375,-0.87109375,0.49609375
2481,0.12109375,-0.8515625,0.5234375
2482,0.09765625,-0.8046875,0.45703125
2483,0.0859375,-0.8671875,0.453125
2484,0.12109375,-0.8359375,0.453125
2485,0.109375,-0.859375,0.47265625
2486,0.09375,-0.84765625,0.47265625
2487,0.09375,-0.8515625,0.46484375
2488,0.109375,-0.84765625,0.46875
2489,0.109375,-0.83984375,0.484375
2490,0.078125,-0.81640625,0.55078125
2491,0.1171875,-0.8359375,0.484375
2492,0.109375,-0.875,0.421875
2493,0.140625,-0.859375,0.47265625
2494,0.1015625,-0.85546875,0.44140625
2495,0.1015625,-0.8671875,0.4609375
2496,0.0859375,-0.859375,0.42578125
2497,0.08984375,-0.83203125,0.5078125
2498,0.125,-0.92578125,0.515625
2499,0.12109375,-0.87890625,0.40625
2500,0.0859375,-0.84765625,0.45703125
2501,0.09765625,-0.84765625,0.47265625
2502,0.09765625,-0.8515625,0.46875
2503,0.1015625,-0.85546875,0.45703125
2504,0.109375,-0.8515625,0.47265625
2505,0.12890625,-0.84765625,0.49609375
2506,0.1015625,-0.8515625,0.53515625
2507,0.078125,-0.84375,0.44921875
2508,0.0859375,-0.87890625,0.46484375
2509,0.07421875,-0.890625,0.47265625
2510,0.09375,-0.8828125,0.4921875
2511,0.07421875,-0.83984375,0.44921875
2512,0.09765625,-0.859375,0.47265625
2513,0.078125,-0.83984375,0.43359375
2514,0.109375,-0.828125,0.453125
2515,0.10546875,-0.8515625,0.453125
2516,0.08984375,-0.85546875,0.46875
2517,0.10546875,-0.8515625,0.46484375
2518,0.09765625,-0.859375,0.47265625
2519,0.10546875,-0.83203125,0.453125
2520,0.1015625,-0.8515625,0.45703125
2521,0.1015625,-0.87109375,0.453125
2522,0.1015625,-0.890625,0.51953125
2523,0.09765625,-0.83984375,0.47265625
2524,0.09765625,-0.875,0.515625
2525,0.11328125,-0.83984375,0.4765625
2526,0.11328125,-0.86328125,0.4609375
2527,0.0859375,-0.859375,0.46875
2528,0.10546875,-0.85546875,0.47265625
2529,0.09765625,-0.85546875,0.4765625
2530,0.08984375,-0.84765625,0.46875
2531,0.1015625,-0.859375,0.4609375
2532,0.10546875,-0.85546875,0.46875
2533,0.09765625,-0.84765625,0.46875
2534,0.109375,-0.84765625,0.44140625
2535,0.11328125,-0.859375,0.48046875
2536,0.08984375,-0.85546875,0.4609375
2537,0.1015625,-0.86328125,0.45703125
2538,0.0859375,-0.85546875,0.46484375
2539,0.08984375,-0.85546875,0.46875
2540,0.10546875,-0.859375,0.46484375
2541,0.10546875,-0.87109375,0.4765625
2542,0.09765625,-0.8515625,0.47265625
2543,0.1171875,-0.859375,0.484375
2544,0.09375,-0.859375,0.47265625
2545,0.09375,-0.84375,0.46875
2546,0.109375,-0.859375,0.47265625
2547,0.1015625,-0.8515625,0.46484375
2548,0.109375,-0.86328125,0.45703125
2549,0.1015625,-0.86328125,0.453125
2550,0.1015625,-0.859375,0.4609375
2551,0.10546875,-0.8671875,0.453125
2552,0.08984375,-0.85546875,0.45703125
2553,0.09765625,-0.8671875,0.4609375
2554,0.09765625,-0.87109375,0.453125
2555,0.09765625,-0.86328125,0.453125
2556,0.09765625,-0.859375,0.453125
2557,0.109375,-0.859375,0.46484375
2558,0.0859375,-0.859375,0.4609375
2559,0.09765625,-0.85546875,0.453125
2560,0.0859375,-0.86328125,0.46484375
2561,0.09765625,-0.87109375,0.453125
2562,0.10546875,-0.859375,0.45703125
2563,0.09375,-0.859375,0.4609375
2564,0.1015625,-0.86328125,0.4453125
2565,0.09375,-0.859375,0.47265625
2566,0.09375,-0.859375,0.44921875
2567,0.08984375,-0.86328125,0.453125
2568,0.09765625,-0.86328125,0.46484375
2569,0.09375,-0.859375,0.46875
2570,0.109375,-0.8828125,0.45703125
2571,0.1015625,-0.85546875,0.44140625
2572,0.08984375,-0.875,0.45703125
2573,0.09765625,-0.859375,0.45703125
2574,0.09765625,-0.8671875,0.46875
2575,0.1015625,-0.8671875,0.45703125
2576,0.09375,-0.86328125,0.45703125
2577,0.09375,-0.859375,0.4609375
2578,0.09375,-0.859375,0.4609375
2579,0.09375,-0.86328125,0.45703125
2580,0.09765625,-0.85546875,0.453125
2581,0.0859375,-0.859375,0.4609375
2582,0.10546875,-0.8515625,0.45703125
2583,0.10546875,-0.86328125,0.453125
2584,0.10546875,-0.85546875,0.45703125
2585,0.0859375,-0.8515625,0.453125
2586,0.09765625,-0.8671875,0.46484375
2587,0.1015625,-0.86328125,0.46875
2588,0.1015625,-0.86328125,0.4609375
2589,0.09375,-0.86328125,0.4609375
2590,0.10546875,-0.875,0.453125
2591,0.10546875,-0.87109375,0.44140625
2592,0.109375,-0.87890625,0.44921875
2593,0.11328125,-0.8828125,0.45703125
2594,0.08984375,-0.88671875,0.45703125
2595,0.09765625,-0.87109375,0.44921875
2596,0.1015625,-0.875,0.4453125
2597,0.08984375,-0.87109375,0.44140625
2598,0.09765625,-0.875,0.4296875
2599,0.09765625,-0.87109375,0.44140625
2600,0.10546875,-0.8671875,0.43359375
2601,0.09765625,-0.86328125,0.4453125
2602,0.09375,-0.8671875,0.4453125
2603,0.09765625,-0.859375,0.4453125
2604,0.10546875,-0.86328125,0.453125
2605,0.10546875,-0.859375,0.453125
2606,0.09765625,-0.859375,0.4453125
2607,0.10546875,-0.85546875,0.44921875
2608,0.1015625,-0.85546875,0.44921875
2609,0.10546875,-0.859375,0.453125
2610,0.10546875,-0.87109375,0.45703125
2611,0.1015625,-0.8671875,0.44921875
2612,0.1015625,-0.8671875,0.47265625
2613,0.109375,-0.86328125,0.4453125
2614,0.109375,-0.86328125,0.4375
2615,0.109375,-0.8671875,0.453125
2616,0.1015625,-0.875,0.45703125
2617,0.1015625,-0.86328125,0.4609375
2618,0.09765625,-0.86328125,0.4453125
2619,0.09765625,-0.8671875,0.44921875
2620,0.09765625,-0.8515625,0.4453125
2621,0.10546875,-0.859375,0.4453125
2622,0.1015625,-0.86328125,0.4296875
2623,0.09765625,-0.859375,0.44921875
2624,0.09765625,-0.87109375,0.4453125
2625,0.1171875,-0.86328125,0.42578125
2626,0.09765625,-0.87109375,0.4375
2627,0.08984375,-0.8671875,0.453125
2628,0.09765625,-0.86328125,0.44140625
2629,0.09765625,-0.87890625,0.44140625
2630,0.09765625,-0.8671875,0.44921875
2631,0.08984375,-0.875,0.42578125
2632,0.09375,-0.87109375,0.4375
2633,0.08203125,-0.87109375,0.43359375
2634,0.09375,-0.8671875,0.44140625
2635,0.08984375,-0.87109375,0.44921875
2636,0.1015625,-0.87890625,0.4296875
2637,0.08984375,-0.87109375,0.4296875
2638,0.1015625,-0.8671875,0.43359375
2639,0.1015625,-0.87109375,0.453125
2640,0.09765625,-0.87109375,0.4296875
2641,0.10546875,-0.875,0.44921875
2642,0.09375,-0.875,0.4375
2643,0.1015625,-0.890625,0.453125
2644,0.109375,-0.875,0.4453125
2645,0.10546875,-0.875,0.4296875
2646,0.08984375,-0.875,0.43359375
2647,0.1015625,-0.8671875,0.453125
2648,0.09765625,-0.890625,0.44140625
2649,0.09765625,-0.88671875,0.44921875
2650,0.1015625,-0.875,0.43359375
2651,0.1015625,-0.87109375,0.45703125
2652,0.09765625,-0.87890625,0.43359375
2653,0.10546875,-0.875,0.45703125
2654,0.10546875,-0.875,0.44921875
2655,0.09375,-0.87109375,0.44140625
2656,0.08984375,-0.87109375,0.43359375
2657,0.10546875,-0.8671875,0.4296875
2658,0.1015625,-0.87109375,0.453125
2659,0.10546875,-0.875,0.44140625
2660,0.09765625,-0.875,0.43359375
2661,0.10546875,-0.875,0.42578125
2662,0.1015625,-0.875,0.421875
2663,0.1015625,-0.875,0.43359375
2664,0.10546875,-0.88671875,0.42578125
2665,0.10546875,-0.875,0.4375
2666,0.08984375,-0.87890625,0.44140625
2667,0.08984375,-0.875,0.4296875
2668,0.1015625,-0.87890625,0.421875
2669,0.10546875,-0.8828125,0.421875
2670,0.09375,-0.87109375,0.43359375
2671,0.1015625,-0.87890625,0.42578125
2672,0.09765625,-0.87109375,0.43359375
2673,0.1015625,-0.87890625,0.4296875
2674,0.109375,-0.8828125,0.43359375
2675,0.09375,-0.8828125,0.44140625
2676,0.08984375,-0.87890625,0.42578125
2677,0.09765625,-0.88671875,0.4296875
2678,0.10546875,-0.875,0.42578125
2679,0.1015625,-0.875,0.421875
2680,0.109375,-0.87109375,0.42578125
2681,0.09765625,-0.8828125,0.4375
2682,0.10546875,-0.87890625,0.42578125
2683,0.09765625,-0.87109375,0.41796875
2684,0.10546875,-0.87890625,0.42578125
2685,0.10546875,-0.8671875,0.4296875
2686,0.09375,-0.89453125,0.4296875
2687,0.09765625,-0.8828125,0.4296875
2688,0.09765625,-0.890625,0.421875
2689,0.109375,-0.88671875,0.4296875
2690,0.08984375,-0.875,0.42578125
2691,0.078125,-0.91015625,0.421875
2692,0.08984375,-0.87109375,0.421875
2693,0.0859375,-0.87109375,0.421875
2694,0.09375,-0.859375,0.43359375
2695,0.109375,-0.87890625,0.4296875
2696,0.09375,-0.86328125,0.4296875
2697,0.1015625,-0.87109375,0.421875
2698,0.0859375,-0.87109375,0.4296875
2699,0.11328125,-0.890625,0.4296875
2700,0.09375,-0.87890625,0.44140625
2701,0.09765625,-0.87890625,0.421875
2702,0.10546875,-0.87890625,0.42578125
2703,0.1015625,-0.87109375,0.421875
2704,0.10546875,-0.875,0.43359375
2705,0.109375,-0.87890625,0.4375
2706,0.1015625,-0.87890625,0.43359375
2707,0.09375,-0.8828125,0.43359375
2708,0.10546875,-0.88671875,0.4296875
2709,0.08984375,-0.875,0.4375
2710,0.09375,-0.87890625,0.42578125
2711,0.09375,-0.87890625,0.4375
2712,0.09765625,-0.8828125,0.421875
2713,0.109375,-0.89453125,0.4296875
2714,0.09765625,-0.8828125,0.41796875
2715,0.09375,-0.87890625,0.4296875
2716,0.10546875,-0.890625,0.44140625
2717,0.09375,-0.8828125,0.4296875
2718,0.10546875,-0.87890625,0.42578125
2719,0.09765625,-0.8828125,0.42578125
2720,0.1015625,-0.88671875,0.4375
2721,0.08984375,-0.8828125,0.4296875
2722,0.09765625,-0.87890625,0.4296875
2723,0.09765625,-0.89453125,0.42578125
2724,0.109375,-0.890625,0.421875
2725,0.09375,-0.87109375,0.42578125
2726,0.09765625,-0.875,0.421875
2727,0.09765625,-0.87890625,0.42578125
2728,0.09765625,-0.8671875,0.421875
2729,0.09765625,-0.87890625,0.43359375
2730,0.09375,-0.87109375,0.43359375
2731,0.1015625,-0.87109375,0.42578125
2732,0.10546875,-0.87890625,0.42578125
2733,0.09765625,-0.87890625,0.4296875
2734,0.1015625,-0.87109375,0.421875
2735,0.10546875,-0.87109375,0.4140625
2736,0.09375,-0.87109375,0.42578125
2737,0.109375,-0.87109375,0.421875
2738,0.09765625,-0.8828125,0.4296875
2739,0.08984375,-0.87109375,0.4453125
2740,0.09765625,-0.8828125,0.4375
2741,0.10546875,-0.875,0.43359375
2742,0.0859375,-0.90234375,0.42578125
2743,0.09375,-0.87890625,0.44140625
2744,0.1015625,-0.88671875,0.43359375
2745,0.09375,-0.87890625,0.43359375
2746,0.10546875,-0.88671875,0.4375
2747,0.08984375,-0.8828125,0.43359375
2748,0.08984375,-0.87890625,0.4375
2749,0.10546875,-0.8984375,0.421875
2750,0.10546875,-0.88671875,0.4296875
2751,0.10546875,-0.89453125,0.4296875
2752,0.09765625,-0.890625,0.4296875
2753,0.09765625,-0.890625,0.4296875
2754,0.09375,-0.875,0.42578125
2755,0.09375,-0.875,0.421875
2756,0.1015625,-0.8671875,0.421875
2757,0.08984375,-0.8828125,0.421875
2758,0.1015625,-0.88671875,0.4140625
2759,0.1015625,-0.890625,0.41796875
2760,0.10546875,-0.89453125,0.42578125
2761,0.109375,-0.90625,0.421875
2762,0.109375,-0.921875,0.4140625
2763,0.11328125,-0.91796875,0.41796875
2764,0.1171875,-0.92578125,0.43359375
2765,0.1171875,-0.9375,0.43359375
2766,0.109375,-0.96484375,0.4296875
2767,0.10546875,-0.984375,0.4375
2768,0.08984375,-0.99609375,0.46484375
2769,0.08984375,-0.9921875,0.45703125
2770,0.0859375,-0.96875,0.5
2771,0.0859375,-0.91796875,0.50390625
2772,0.08984375,-0.84765625,0.53125
2773,0.09765625,-0.80859375,0.53125
2774,0.1015625,-0.75390625,0.53125
2775,0.1171875,-0.72265625,0.5078125
2776,0.10546875,-0.73046875,0.484375
2777,0.1171875,-0.73046875,0.46484375
2778,0.1171875,-0.734375,0.44921875
2779,0.11328125,-0.7421875,0.4765625
2780,0.09765625,-0.734375,0.4765625
2781,0.08203125,-0.734375,0.49609375
2782,0.0703125,-0.73046875,0.515625
2783,0.0546875,-0.734375,0.51953125
2784,0.0546875,-0.74609375,0.48828125
2785,0.05078125,-0.765625,0.51171875
2786,0.05859375,-0.7734375,0.5234375
2787,0.06640625,-0.7734375,0.51171875
2788,0.078125,-0.8046875,0.5234375
2789,0.06640625,-0.80859375,0.5
2790,0.0703125,-0.8046875,0.51953125
2791,0.08984375,-0.81640625,0.51171875
2792,0.08203125,-0.828125,0.5
2793,0.078125,-0.82421875,0.51171875
2794,0.0703125,-0.8203125,0.51171875
2795,0.078125,-0.83203125,0.52734375
2796,0.07421875,-0.82421875,0.5234375
2797,0.078125,-0.83203125,0.55078125
2798,0.07421875,-0.82421875,0.54296875
2799,0.0859375,-0.82421875,0.5625
2800,0.0703125,-0.8125,0.55859375
2801,0.078125,-0.81640625,0.5546875
2802,0.08203125,-0.8203125,0.55078125
2803,0.07421875,-0.8125,0.5390625
2804,0.0703125,-0.81640625,0.546875
2805,0.07421875,-0.80078125,0.54296875
2806,0.0859375,-0.8125,0.53515625
2807,0.07421875,-0.8125,0.5390625
2808,0.08984375,-0.8125,0.5390625
2809,0.0859375,-0.796875,0.54296875
2810,0.08203125,-0.80078125,0.5390625
2811,0.09375,-0.7890625,0.53515625
2812,0.08984375,-0.80078125,0.546875
2813,0.09375,-0.796875,0.5390625
2814,0.08984375,-0.79296875,0.53125
2815,0.09375,-0.80859375,0.5390625
2816,0.09765625,-0.796875,0.53125
2817,0.0859375,-0.80859375,0.53515625
2818,0.08984375,-0.8046875,0.5390625
2819,0.1015625,-0.81640625,0.53515625
2820,0.08203125,-0.81640625,0.546875
2821,0.08984375,-0.828125,0.546875
2822,0.08984375,-0.81640625,0.53125
2823,0.08984375,-0.8203125,0.5390625
2824,0.09765625,-0.81640625,0.52734375
2825,0.09765625,-0.81640625,0.53125
2826,0.08203125,-0.8125,0.52734375
2827,0.08984375,-0.81640625,0.5390625
2828,0.09375,-0.8125,0.53515625
2829,0.0859375,-0.81640625,0.5390625
2830,0.1015625,-0.8046875,0.52734375
2831,0.08984375,-0.80859375,0.54296875
2832,0.09375,-0.80078125,0.54296875
2833,0.09765625,-0.81640625,0.5390625
2834,0.09375,-0.8203125,0.54296875
2835,0.1015625,-0.80859375,0.51953125
2836,0.09375,-0.80859375,0.5390625
2837,0.0859375,-0.8203125,0.5234375
2838,0.08984375,-0.8125,0.5234375
2839,0.1015625,-0.8203125,0.51953125
2840,0.1015625,-0.82421875,0.5234375
2841,0.08984375,-0.82421875,0.515625
2842,0.08984375,-0.82421875,0.51171875
2843,0.08984375,-0.83203125,0.5078125
2844,0.08984375,-0.8203125,0.51171875
2845,0.0859375,-0.8203125,0.51953125
2846,0.08984375,-0.83203125,0.52734375
2847,0.08203125,-0.82421875,0.5234375
2848,0.09375,-0.82421875,0.51953125
2849,0.09375,-0.8359375,0.51171875
2850,0.08984375,-0.828125,0.51171875
2851,0.08203125,-0.828125,0.53515625
2852,0.08984375,-0.82421875,0.5234375
2853,0.08984375,-0.828125,0.53515625
2854,0.08984375,-0.8359375,0.5234375
2855,0.1015625,-0.8359375,0.515625
2856,0.09375,-0.83203125,0.51953125
2857,0.1015625,-0.82421875,0.51953125
2858,0.08984375,-0.83984375,0.515625
2859,0.0859375,-0.83203125,0.51171875
2860,0.09375,-0.828125,0.51953125
2861,0.08984375,-0.81640625,0.51171875
2862,0.09375,-0.8359375,0.515625
2863,0.09375,-0.84375,0.515625
2864,0.1015625,-0.796875,0.52734375
2865,0.08984375,-0.8125,0.5234375
2866,0.09375,-0.83203125,0.51953125
2867,0.08984375,-0.828125,0.50390625
2868,0.08984375,-0.8203125,0.515625
2869,0.09375,-0.8203125,0.515625
2870,0.0859375,-0.82421875,0.515625
2871,0.09375,-0.82421875,0.515625
2872,0.09765625,-0.83203125,0.5078125
2873,0.08984375,-0.82421875,0.50390625
2874,0.1015625,-0.84765625,0.5
2875,0.10546875,-0.8359375,0.51953125
2876,0.09765625,-0.8359375,0.50390625
2877,0.1015625,-0.83203125,0.49609375
2878,0.09375,-0.828125,0.5078125
2879,0.10546875,-0.83984375,0.5078125
2880,0.08984375,-0.83984375,0.4921875
2881,0.09765625,-0.83203125,0.5
2882,0.1015625,-0.83203125,0.5
2883,0.0859375,-0.82421875,0.5
2884,0.1015625,-0.828125,0.4921875
2885,0.09375,-0.828125,0.5
2886,0.1015625,-0.828125,0.50390625
2887,0.09765625,-0.8203125,0.51171875
2888,0.09375,-0.828125,0.4921875
2889,0.09375,-0.83203125,0.48828125
2890,0.0859375,-0.828125,0.4921875
2891,0.09375,-0.8359375,0.50390625
2892,0.08984375,-0.83203125,0.5078125
2893,0.08203125,-0.82421875,0.50390625
2894,0.08984375,-0.83203125,0.50390625
2895,0.08984375,-0.84765625,0.50390625
2896,0.1015625,-0.84375,0.50390625
2897,0.08984375,-0.84765625,0.50390625
2898,0.10546875,-0.859375,0.5078125
2899,0.08984375,-0.8515625,0.50390625
2900,0.078125,-0.8515625,0.50390625
2901,0.08984375,-0.84765625,0.4921875
2902,0.078125,-0.84375,0.484375
2903,0.09375,-0.85546875,0.49609375
2904,0.1015625,-0.84765625,0.48046875
2905,0.08984375,-0.84375,0.48828125
2906,0.08984375,-0.8359375,0.4921875
2907,0.0859375,-0.8359375,0.484375
2908,0.08984375,-0.82421875,0.48828125
2909,0.09765625,-0.8359375,0.51171875
2910,0.0859375,-0.83203125,0.49609375
2911,0.09375,-0.828125,0.50390625
2912,0.10546875,-0.82421875,0.515625
2913,0.09375,-0.828125,0.4921875
2914,0.12109375,-0.828125,0.484375
2915,0.09375,-0.82421875,0.5
2916,0.1015625,-0.81640625,0.4921875
2917,0.10546875,-0.83203125,0.5
2918,0.10546875,-0.83984375,0.51171875
2919,0.109375,-0.828125,0.48828125
2920,0.1015625,-0.83984375,0.49609375
2921,0.09765625,-0.83984375,0.4921875
2922,0.10546875,-0.84375,0.4921875
2923,0.10546875,-0.84765625,0.5
2924,0.10546875,-0.84375,0.50390625
2925,0.10546875,-0.8515625,0.50390625
2926,0.10546875,-0.8515625,0.5
2927,0.1015625,-0.84375,0.5078125
2928,0.08984375,-0.84765625,0.49609375
2929,0.09765625,-0.83984375,0.48828125
2930,0.08984375,-0.828125,0.484375
2931,0.10546875,-0.8515625,0.50390625
2932,0.09375,-0.84765625,0.50390625
2933,0.09765625,-0.83984375,0.4921875
2934,0.08984375,-0.84765625,0.48828125
2935,0.0859375,-0.8359375,0.49609375
2936,0.09765625,-0.85546875,0.484375
2937,0.1015625,-0.8359375,0.48046875
2938,0.09765625,-0.83984375,0.48046875
2939,0.09375,-0.859375,0.4765625
2940,0.0859375,-0.8359375,0.4609375
2941,0.08984375,-0.84375,0.4765625
2942,0.08984375,-0.84375,0.48046875
2943,0.09375,-0.83984375,0.4765625
2944,0.08203125,-0.84765625,0.453125
2945,0.09375,-0.84375,0.46484375
2946,0.09765625,-0.84765625,0.4921875
2947,0.09375,-0.83984375,0.48828125
2948,0.08984375,-0.84375,0.47265625
2949,0.08984375,-0.84765625,0.4921875
2950,0.09765625,-0.828125,0.484375
2951,0.08984375,-0.8359375,0.46875
2952,0.078125,-0.83203125,0.48046875
2953,0.1015625,-0.85546875,0.46484375
2954,0.109375,-0.8515625,0.4765625
2955,0.09765625,-0.85546875,0.4609375
2956,0.09765625,-0.85546875,0.46484375
2957,0.09765625,-0.859375,0.46875
2958,0.09765625,-0.85546875,0.453125
2959,0.09765625,-0.859375,0.44921875
2960,0.109375,-0.85546875,0.4609375
2961,0.10546875,-0.86328125,0.46875
2962,0.08984375,-0.84765625,0.46484375
2963,0.09765625,-0.85546875,0.4765625
2964,0.11328125,-0.87109375,0.484375
2965,0.109375,-0.85546875,0.4765625
2966,0.1015625,-0.86328125,0.47265625
2967,0.09765625,-0.859375,0.46875
2968,0.10546875,-0.87109375,0.453125
2969,0.09765625,-0.859375,0.46875
2970,0.09375,-0.8515625,0.4765625
2971,0.08984375,-0.8515625,0.46875
2972,0.1015625,-0.86328125,0.453125
2973,0.109375,-0.85546875,0.46875
2974,0.08984375,-0.8671875,0.4609375
2975,0.09375,-0.859375,0.4765625
2976,0.09765625,-0.859375,0.4765625
2977,0.09375,-0.85546875,0.4609375
2978,0.08984375,-0.85546875,0.47265625
2979,0.09765625,-0.85546875,0.4765625
2980,0.09765625,-0.84375,0.45703125
2981,0.1015625,-0.84765625,0.47265625
2982,0.09765625,-0.86328125,0.4453125
2983,0.09375,-0.84765625,0.46484375
2984,0.1015625,-0.85546875,0.453125
2985,0.10546875,-0.85546875,0.46484375
2986,0.1015625,-0.86328125,0.44921875
2987,0.09375,-0.8515625,0.46875
2988,0.10546875,-0.8671875,0.453125
2989,0.09375,-0.859375,0.453125
2990,0.08984375,-0.85546875,0.45703125
2991,0.0859375,-0.86328125,0.44921875
2992,0.078125,-0.83984375,0.453125
2993,0.109375,-0.859375,0.46875
2994,0.1015625,-0.8515625,0.4453125
2995,0.11328125,-0.8515625,0.453125
2996,0.08984375,-0.85546875,0.4609375
2997,0.08984375,-0.85546875,0.45703125
2998,0.08984375,-0.859375,0.453125
2999,0.109375,-0.859375,0.46484375
3000,0.10546875,-0.8515625,0.453125
3001,0.09765625,-0.859375,0.4375
3002,0.10546875,-0.87109375,0.453125
3003,0.09765625,-0.87109375,0.453125
3004,0.1015625,-0.859375,0.45703125
3005,0.09765625,-0.87109375,0.46484375
3006,0.09375,-0.86328125,0.4609375
3007,0.09765625,-0.86328125,0.45703125
3008,0.1015625,-0.8671875,0.45703125
3009,0.09375,-0.86328125,0.46484375
3010,0.1015625,-0.86328125,0.46484375
3011,0.1015625,-0.8671875,0.45703125
3012,0.09375,-0.85546875,0.4609375
3013,0.08984375,-0.859375,0.45703125
3014,0.0859375,-0.8671875,0.46484375
3015,0.09765625,-0.8515625,0.46875
3016,0.10546875,-0.8671875,0.46484375
3017,0.09375,-0.84765625,0.453125
3018,0.1171875,-0.8671875,0.46875
3019,0.1015625,-0.8671875,0.44921875
3020,0.09765625,-0.87109375,0.44140625
3021,0.1015625,-0.875,0.45703125
3022,0.109375,-0.8671875,0.4609375
3023,0.09375,-0.86328125,0.46484375
3024,0.09375,-0.86328125,0.46875
3025,0.1015625,-0.87109375,0.44921875
3026,0.1015625,-0.85546875,0.4453125
3027,0.109375,-0.86328125,0.4609375
3028,0.1015625,-0.84765625,0.45703125
3029,0.11328125,-0.87890625,0.44921875
3030,0.10546875,-0.8671875,0.44140625
3031,0.09765625,-0.8671875,0.43359375
3032,0.10546875,-0.87109375,0.4453125
3033,0.09765625,-0.86328125,0.4375
3034,0.10546875,-0.8828125,0.44140625
3035,0.08984375,-0.8671875,0.45703125
3036,0.09375,-0.875,0.4453125
3037,0.09375,-0.859375,0.44140625
3038,0.10546875,-0.86328125,0.4453125
3039,0.0859375,-0.8515625,0.47265625
3040,0.10546875,-0.859375,0.44140625
3041,0.09765625,-0.84765625,0.44140625
3042,0.0859375,-0.85546875,0.453125
3043,0.09765625,-0.86328125,0.43359375
3044,0.109375,-0.86328125,0.44140625
3045,0.08984375,-0.8671875,0.453125
3046,0.1015625,-0.8828125,0.4609375
3047,0.109375,-0.890625,0.4453125
3048,0.109375,-0.875,0.45703125
3049,0.10546875,-0.87890625,0.4453125
3050,0.10546875,-0.88671875,0.45703125
3051,0.10546875,-0.875,0.46484375
3052,0.10546875,-0.88671875,0.44140625
3053,0.10546875,-0.8828125,0.4453125
3054,0.09765625,-0.875,0.4296875
3055,0.109375,-0.8828125,0.43359375
3056,0.09765625,-0.875,0.4296875
3057,0.1015625,-0.8671875,0.4375
3058,0.09765625,-0.8671875,0.4296875
3059,0.10546875,-0.8671875,0.44140625
3060,0.1015625,-0.8671875,0.4296875
3061,0.109375,-0.87109375,0.41796875
3062,0.1015625,-0.87109375,0.43359375
3063,0.08984375,-0.86328125,0.44921875
3064,0.1015625,-0.859375,0.4609375
3065,0.109375,-0.875,0.44140625
3066,0.09765625,-0.85546875,0.44921875
3067,0.10546875,-0.87109375,0.44140625
3068,0.08984375,-0.86328125,0.4453125
3069,0.09765625,-0.87890625,0.4453125
3070,0.10546875,-0.85546875,0.45703125
3071,0.10546875,-0.8671875,0.44140625
3072,0.10546875,-0.859375,0.4453125
3073,0.09765625,-0.87109375,0.453125
3074,0.09765625,-0.8671875,0.4375
3075,0.08984375,-0.8671875,0.4453125
3076,0.09375,-0.87109375,0.45703125
3077,0.1015625,-0.859375,0.43359375
3078,0.09765625,-0.8671875,0.44921875
3079,0.1015625,-0.87109375,0.4453125
3080,0.1015625,-0.85546875,0.44140625
3081,0.10546875,-0.87109375,0.4453125
3082,0.09375,-0.859375,0.44921875
3083,0.0703125,-0.86328125,0.453125
3084,0.10546875,-0.87890625,0.4453125
3085,0.109375,-0.8671875,0.4453125
3086,0.09765625,-0.8671875,0.45703125
3087,0.09375,-0.875,0.44921875
3088,0.11328125,-0.8671875,0.45703125
3089,0.1015625,-0.87109375,0.453125
3090,0.10546875,-0.87109375,0.46484375
3091,0.1015625,-0.8671875,0.45703125
3092,0.10546875,-0.8671875,0.44921875
3093,0.1015625,-0.8671875,0.44140625
3094,0.09765625,-0.86328125,0.453125
3095,0.10546875,-0.85546875,0.453125
3096,0.09375,-0.875,0.4375
3097,0.09765625,-0.859375,0.44921875
3098,0.1015625,-0.8671875,0.4609375
3099,0.1015625,-0.86328125,0.44921875
3100,0.109375,-0.8671875,0.44921875
3101,0.09765625,-0.875,0.4453125
3102,0.10546875,-0.8671875,0.45703125
3103,0.10546875,-0.87109375,0.4453125
3104,0.11328125,-0.8671875,0.42578125
3105,0.08984375,-0.8671875,0.4375
3106,0.109375,-0.87890625,0.4453125
3107,0.11328125,-0.87109375,0.4296875
3108,0.11328125,-0.87109375,0.44140625
3109,0.09765625,-0.875,0.453125
3110,0.10546875,-0.86328125,0.44921875
3111,0.09765625,-0.87890625,0.453125
3112,0.1015625,-0.86328125,0.44921875
3113,0.10546875,-0.859375,0.44921875
3114,0.1015625,-0.859375,0.44140625
3115,0.109375,-0.86328125,0.44140625
3116,0.1171875,-0.8671875,0.4453125
3117,0.0859375,-0.859375,0.4453125
3118,0.09765625,-0.86328125,0.4453125
3119,0.1015625,-0.859375,0.4453125
3120,0.10546875,-0.875,0.44921875
3121,0.0859375,-0.86328125,0.44921875
3122,0.09375,-0.8671875,0.453125
3123,0.109375,-0.8671875,0.45703125
3124,0.1015625,-0.86328125,0.44140625
3125,0.1015625,-0.875,0.453125
3126,0.1015625,-0.859375,0.453125
3127,0.109375,-0.8671875,0.44921875
3128,0.10546875,-0.8671875,0.46875
3129,0.09765625,-0.87109375,0.4609375
3130,0.109375,-0.8671875,0.4609375
3131,0.09375,-0.86328125,0.44921875
3132,0.09765625,-0.85546875,0.4375
3133,0.11328125,-0.875,0.4609375
3134,0.10546875,-0.85546875,0.45703125
3135,0.09765625,-0.8671875,0.43359375
3136,0.11328125,-0.86328125,0.46875
3137,0.1015625,-0.875,0.44921875
3138,0.10546875,-0.859375,0.46484375
3139,0.1015625,-0.859375,0.44921875
3140,0.10546875,-0.875,0.46484375
3141,0.09765625,-0.8671875,0.46484375
3142,0.0859375,-0.8671875,0.44140625
3143,0.10546875,-0.87109375,0.4453125
3144,0.10546875,-0.87890625,0.44140625
3145,0.09765625,-0.85546875,0.4609375
3146,0.1015625,-0.85546875,0.44140625
3147,0.1015625,-0.859375,0.44921875
3148,0.109375,-0.828125,0.453125
3149,0.09765625,-0.859375,0.47265625
3150,0.09765625,-0.859375,0.46484375
3151,0.10546875,-0.859375,0.4609375
3152,0.1015625,-0.85546875,0.46484375
3153,0.109375,-0.85546875,0.453125
3154,0.10546875,-0.85546875,0.44140625
3155,0.109375,-0.85546875,0.4453125
3156,0.10546875,-0.8671875,0.453125
3157,0.10546875,-0.8671875,0.45703125
3158,0.10546875,-0.86328125,0.4609375
3159,0.09375,-0.86328125,0.46484375
3160,0.09765625,-0.8671875,0.46484375
3161,0.09765625,-0.87109375,0.4453125
3162,0.1015625,-0.8671875,0.44921875
3163,0.10546875,-0.8671875,0.453125
3164,0.09765625,-0.85546875,0.45703125
3165,0.08984375,-0.85546875,0.453125
3166,0.10546875,-0.859375,0.47265625
3167,0.10546875,-0.86328125,0.4609375
3168,0.1015625,-0.86328125,0.46875
3169,0.11328125,-0.875,0.44921875
3170,0.09375,-0.859375,0.45703125
3171,0.09765625,-0.859375,0.45703125
3172,0.10546875,-0.86328125,0.453125
3173,0.09765625,-0.85546875,0.45703125
3174,0.09765625,-0.85546875,0.44921875
3175,0.1015625,-0.86328125,0.4609375
3176,0.08984375,-0.859375,0.453125
3177,0.09765625,-0.86328125,0.44921875
3178,0.1015625,-0.859375,0.4609375
3179,0.1015625,-0.859375,0.46875
3180,0.09765625,-0.8515625,0.46484375
3181,0.109375,-0.85546875,0.46484375
3182,0.10546875,-0.86328125,0.4609375
3183,0.1015625,-0.86328125,0.45703125
3184,0.1015625,-0.86328125,0.46875
3185,0.09375,-0.875,0.44921875
3186,0.1015625,-0.87109375,0.4609375
3187,0.109375,-0.8828125,0.45703125
3188,0.10546875,-0.87109375,0.4453125
3189,0.08984375,-0.875,0.453125
3190,0.1015625,-0.87109375,0.453125
3191,0.1015625,-0.8828125,0.453125
3192,0.10546875,-0.8671875,0.4453125
3193,0.11328125,-0.87890625,0.4453125
3194,0.1015625,-0.859375,0.44921875
3195,0.09375,-0.85546875,0.453125
3196,0.08984375,-0.859375,0.44140625
3197,0.09765625,-0.84765625,0.4609375
3198,0.10546875,-0.859375,0.4453125
3199,0.09765625,-0.85546875,0.44921875
3200,0.109375,-0.86328125,0.44921875
3201,0.1015625,-0.859375,0.46484375
3202,0.11328125,-0.84375,0.45703125
3203,0.10546875,-0.8515625,0.46875
3204,0.1015625,-0.84765625,0.46875
3205,0.109375,-0.85546875,0.4609375
3206,0.09765625,-0.84375,0.47265625
3207,0.09765625,-0.83984375,0.46484375
3208,0.109375,-0.85546875,0.4609375
3209,0.10546875,-0.84765625,0.47265625
3210,0.10546875,-0.8515625,0.46484375
3211,0.1015625,-0.8515625,0.46484375
3212,0.1171875,-0.84765625,0.453125
3213,0.10546875,-0.8515625,0.47265625
3214,0.09375,-0.8359375,0.47265625
3215,0.09765625,-0.859375,0.46484375
3216,0.1015625,-0.8515625,0.48828125
3217,0.09375,-0.8515625,0.4765625
3218,0.11328125,-0.8515625,0.47265625
3219,0.09765625,-0.859375,0.48046875
3220,0.08203125,-0.8515625,0.45703125
3221,0.1015625,-0.85546875,0.47265625
3222,0.09765625,-0.84765625,0.46875
3223,0.09765625,-0.8515625,0.46875
3224,0.09765625,-0.85546875,0.46484375
3225,0.09765625,-0.8515625,0.4609375
3226,0.08984375,-0.859375,0.4765625
3227,0.09375,-0.8515625,0.47265625
3228,0.09765625,-0.85546875,0.47265625
3229,0.10546875,-0.85546875,0.46875
3230,0.10546875,-0.859375,0.47265625
3231,0.109375,-0.84375,0.484375
3232,0.1015625,-0.84765625,0.46875
3233,0.10546875,-0.84375,0.4609375
3234,0.10546875,-0.85546875,0.48046875
3235,0.08984375,-0.84765625,0.45703125
3236,0.10546875,-0.85546875,0.46484375
3237,0.1015625,-0.859375,0.47265625
3238,0.09375,-0.84375,0.45703125
3239,0.1015625,-0.84765625,0.46484375
3240,0.10546875,-0.86328125,0.46484375
3241,0.09765625,-0.85546875,0.46875
3242,0.09765625,-0.85546875,0.4765625
3243,0.09765625,-0.859375,0.4453125
3244,0.09765625,-0.859375,0.47265625
3245,0.10546875,-0.859375,0.44921875
3246,0.0859375,-0.86328125,0.45703125
3247,0.09765625,-0.859375,0.44921875
3248,0.10546875,-0.859375,0.46484375
3249,0.09765625,-0.859375,0.453125
3250,0.09765625,-0.8515625,0.46875
3251,0.09765625,-0.8515625,0.45703125
3252,0.10546875,-0.859375,0.47265625
3253,0.10546875,-0.85546875,0.47265625
3254,0.10546875,-0.84765625,0.46484375
3255,0.10546875,-0.859375,0.4609375
3256,0.10546875,-0.8671875,0.47265625
3257,0.10546875,-0.8359375,0.4609375
3258,0.09765625,-0.85546875,0.46875
3259,0.1015625,-0.85546875,0.46875
3260,0.1015625,-0.859375,0.47265625
3261,0.1015625,-0.85546875,0.46484375
3262,0.1015625,-0.85546875,0.46875
3263,0.09765625,-0.859375,0.46875
3264,0.1015625,-0.84765625,0.46875
3265,0.10546875,-0.84765625,0.45703125
3266,0.109375,-0.8515625,0.4765625
3267,0.09765625,-0.8515625,0.46484375
3268,0.1015625,-0.84765625,0.4765625
3269,0.09765625,-0.84375,0.47265625
3270,0.1015625,-0.85546875,0.47265625
3271,0.109375,-0.86328125,0.47265625
3272,0.109375,-0.8515625,0.48046875
3273,0.11328125,-0.85546875,0.484375
3274,0.1015625,-0.8515625,0.47265625
3275,0.10546875,-0.84765625,0.47265625
3276,0.09375,-0.85546875,0.46484375
3277,0.1015625,-0.8515625,0.4765625
3278,0.09375,-0.85546875,0.484375
3279,0.109375,-0.83984375,0.45703125
3280,0.09375,-0.84765625,0.46484375
3281,0.1015625,-0.85546875,0.46875
3282,0.08984375,-0.85546875,0.47265625
3283,0.09765625,-0.8515625,0.46484375
3284,0.1015625,-0.8515625,0.4765625
3285,0.11328125,-0.8515625,0.4609375
3286,0.1015625,-0.85546875,0.46484375
3287,0.1015625,-0.86328125,0.47265625
3288,0.09375,-0.8515625,0.46484375
3289,0.1171875,-0.859375,0.46875
3290,0.09765625,-0.859375,0.46875
3291,0.1015625,-0.85546875,0.46875
3292,0.109375,-0.85546875,0.46484375
3293,0.09765625,-0.84765625,0.46484375
3294,0.09765625,-0.8515625,0.48828125
3295,0.1015625,-0.8515625,0.453125
3296,0.109375,-0.85546875,0.48046875
3297,0.09765625,-0.8515625,0.47265625
3298,0.09375,-0.84765625,0.48046875
3299,0.109375,-0.859375,0.46484375
3300,0.09765625,-0.8515625,0.46484375
3301,0.10546875,-0.8671875,0.46875
3302,0.1015625,-0.8515625,0.4609375
3303,0.1015625,-0.84375,0.453125
3304,0.09375,-0.84765625,0.4765625
3305,0.1015625,-0.85546875,0.46875
3306,0.09375,-0.8359375,0.47265625
3307,0.1015625,-0.85546875,0.4765625
3308,0.11328125,-0.8515625,0.47265625
3309,0.1015625,-0.86328125,0.46875
3310,0.109375,-0.85546875,0.4609375
3311,0.1015625,-0.85546875,0.46875
3312,0.109375,-0.83203125,0.46875
3313,0.1015625,-0.85546875,0.46484375
3314,0.10546875,-0.84375,0.48046875
3315,0.10546875,-0.859375,0.45703125
