,accelerometerAccelerationX(G),accelerometerAccelerationY(G),accelerometerAccelerationZ(G)
0,0.0234375,-0.94921875,0.10546875
1,0.0390625,-0.9453125,0.08984375
2,0.02734375,-0.953125,0.07421875
3,0.02734375,-0.9453125,0.06640625
4,0.0078125,-0.953125,0.0859375
5,0.01171875,-0.94140625,0.10546875
6,0.02734375,-0.94921875,0.09375
7,0.01171875,-0.94921875,0.07421875
8,0.015625,-0.94140625,0.09765625
9,0.01171875,-0.95703125,0.09375
10,0.03125,-0.95703125,0.078125
11,0.0234375,-0.94921875,0.08203125
12,0.01953125,-0.95703125,0.1015625
13,0.02734375,-0.953125,0.09765625
14,0.0078125,-0.93359375,0.078125
15,0.00390625,-0.98046875,0.078125
16,0.01953125,-0.95703125,0.0703125
17,0.0234375,-0.953125,0.078125
18,0.03125,-0.9609375,0.08984375
19,0.0234375,-0.95703125,0.109375
20,0.02734375,-0.9609375,0.08203125
21,0.0234375,-0.953125,0.078125
22,0.0234375,-0.953125,0.08984375
23,0.02734375,-0.9609375,0.09375
24,0.01953125,-0.94921875,0.08203125
25,0.0390625,-0.953125,0.07421875
26,0.0078125,-0.9375,0.07421875
27,0.015625,-0.9609375,0.08203125
28,0.02734375,-0.95703125,0.0859375
29,0.015625,-0.953125,0.09765625
30,0.01953125,-0.95703125,0.08203125
31,0.015625,-0.95703125,0.078125
32,0.015625,-0.953125,0.078125
33,0.02734375,-0.96484375,0.08203125
34,0.015625,-0.94921875,0.07421875
35,0.015625,-0.94921875,0.07421875
36,0.015625,-0.95703125,0.08984375
37,0.01953125,-0.92578125,0.08984375
38,0.0234375,-0.953125,0.078125
39,0.0234375,-0.95703125,0.0859375
40,0.02734375,-0.953125,0.078125
41,0.01953125,-0.953125,0.0859375
42,0.03125,-0.953125,0.0703125
43,0.0078125,-0.9453125,0.0703125
44,0.0390625,-0.96484375,0.0859375
45,0.03125,-0.953125,0.09765625
46,0.0078125,-0.953125,0.0703125
47,0.00390625,-0.953125,0.08203125
48,0.03125,-0.9609375,0.06640625
49,0.02734375,-0.94921875,0.0859375
50,0.015625,-0.94921875,0.08984375
51,0.015625,-0.9609375,0.08984375
52,0.01171875,-0.95703125,0.08203125
53,0.01953125,-0.95703125,0.07421875
54,0.015625,-0.9453125,0.09375
55,0.01953125,-0.953125,0.09375
56,0.01953125,-0.95703125,0.08984375
57,0.02734375,-0.94921875,0.08203125
58,0.03515625,-0.94921875,0.078125
59,0.01953125,-0.9140625,0.07421875
60,0.02734375,-0.953125,0.07421875
61,0.03515625,-0.95703125,0.07421875
62,0.0234375,-0.95703125,0.06640625
63,0.03515625,-0.94921875,0.0625
64,0.0234375,-0.9609375,0.07421875
65,0.015625,-0.953125,0.0859375
66,0.03125,-0.9609375,0.078125
67,0.01171875,-0.953125,0.09375
68,0.0078125,-0.953125,0.0703125
69,0.02734375,-0.953125,0.0625
70,0.0,-0.94140625,0.1015625
71,0.0234375,-0.94921875,0.078125
72,0.0234375,-0.94921875,0.09375
73,0.0234375,-0.953125,0.07421875
74,0.015625,-0.953125,0.0859375
75,0.0234375,-0.95703125,0.07421875
76,0.01953125,-0.953125,0.07421875
77,0.0234375,-0.95703125,0.0703125
78,0.015625,-0.953125,0.07421875
79,0.03125,-0.95703125,0.0859375
80,0.015625,-0.94921875,0.0859375
81,0.03125,-0.94140625,0.109375
82,0.015625,-0.94921875,0.08984375
83,0.0078125,-0.9453125,0.07421875
84,0.01171875,-0.95703125,0.08203125
85,0.0234375,-0.953125,0.06640625
86,0.015625,-0.95703125,0.06640625
87,0.01953125,-0.96484375,0.08203125
88,0.01171875,-0.953125,0.0703125
89,0.0234375,-0.9609375,0.08984375
90,0.0234375,-0.96484375,0.0859375
91,0.01953125,-0.9453125,0.078125
92,0.0078125,-0.953125,0.08984375
93,0.02734375,-0.95703125,0.1015625
94,0.01171875,-0.95703125,0.07421875
95,0.0078125,-0.953125,0.078125
96,0.02734375,-0.953125,0.0859375
97,0.01953125,-0.95703125,0.07421875
98,0.0234375,-0.953125,0.078125
99,0.02734375,-0.94921875,0.07421875
100,0.0078125,-0.94921875,0.0859375
101,0.0,-0.94921875,0.08203125
102,0.0234375,-0.97265625,0.07421875
103,0.01171875,-0.9453125,0.0703125
104,0.01171875,-0.95703125,0.078125
105,0.015625,-0.95703125,0.06640625
106,0.0,-0.95703125,0.08203125
107,0.00390625,-0.953125,0.08203125
108,0.0,-0.953125,0.06640625
109,0.01171875,-0.953125,0.078125
110,0.00390625,-0.9453125,0.0625
111,0.01953125,-0.94921875,0.08984375
112,0.02734375,-0.97265625,0.0859375
113,0.0390625,-0.96875,0.0703125
114,-0.00390625,-0.953125,0.0703125
115,0.01171875,-0.94921875,0.078125
116,0.01171875,-0.94921875,0.0625
117,0.0,-0.94921875,0.0703125
118,0.01953125,-0.953125,0.06640625
119,0.0078125,-0.94921875,0.0703125
120,0.015625,-0.9609375,0.0546875
121,0.0078125,-0.953125,0.0625
122,0.01953125,-0.9609375,0.078125
123,0.015625,-0.96484375,0.06640625
124,-0.00390625,-0.94921875,0.0703125
125,0.0,-0.94921875,0.08203125
126,0.0,-0.94921875,0.078125
127,0.015625,-0.953125,0.07421875
128,0.015625,-0.953125,0.08203125
129,0.0078125,-0.953125,0.0859375
130,0.0,-0.9453125,0.0703125
131,0.015625,-0.953125,0.06640625
132,0.01171875,-0.95703125,0.0703125
133,0.01171875,-0.9609375,0.06640625
134,0.015625,-0.94921875,0.05859375
135,0.0078125,-0.95703125,0.0859375
136,0.00390625,-0.9609375,0.08203125
137,0.0078125,-0.94921875,0.07421875
138,0.01953125,-0.96484375,0.06640625
139,0.00390625,-0.953125,0.06640625
140,0.0078125,-0.953125,0.05859375
141,0.0078125,-0.96484375,0.07421875
142,0.0078125,-0.9609375,0.07421875
143,0.015625,-0.94921875,0.078125
144,0.01953125,-0.96484375,0.05859375
145,0.01171875,-0.97265625,0.05859375
146,0.01171875,-0.953125,0.0625
147,0.01953125,-0.9609375,0.0703125
148,0.01171875,-0.95703125,0.078125
149,0.0078125,-0.96484375,0.06640625
150,0.00390625,-0.95703125,0.07421875
151,0.0078125,-0.953125,0.05859375
152,0.0078125,-0.95703125,0.05859375
153,0.01953125,-0.96484375,0.0625
154,0.015625,-0.953125,0.0703125
155,0.015625,-0.95703125,0.0703125
156,0.01171875,-0.953125,0.078125
157,0.0234375,-0.9296875,0.0546875
158,0.00390625,-0.9609375,0.0546875
159,0.0,-0.95703125,0.0546875
160,0.01171875,-0.9609375,0.05859375
161,0.00390625,-0.953125,0.0625
162,0.01171875,-0.95703125,0.06640625
163,0.015625,-0.9609375,0.06640625
164,0.0234375,-0.94921875,0.06640625
165,0.01171875,-0.953125,0.078125
166,0.015625,-0.95703125,0.07421875
167,0.01953125,-0.953125,0.07421875
168,0.00390625,-0.94921875,0.05859375
169,0.01953125,-0.95703125,0.0703125
170,0.01171875,-0.953125,0.06640625
171,0.02734375,-0.95703125,0.0625
172,0.0078125,-0.953125,0.05859375
173,0.0234375,-0.95703125,0.07421875
174,0.015625,-0.94921875,0.06640625
175,0.015625,-0.94140625,0.0625
176,0.02734375,-0.94921875,0.0546875
177,0.01953125,-0.953125,0.078125
178,0.015625,-0.96484375,0.078125
179,0.03125,-0.94921875,0.0546875
180,0.01171875,-0.9609375,0.0703125
181,0.01953125,-0.953125,0.0703125
182,0.0234375,-0.95703125,0.0625
183,0.0234375,-0.953125,0.0625
184,0.03515625,-0.97265625,0.05859375
185,0.01953125,-0.9609375,0.0546875
186,0.0234375,-0.95703125,0.05859375
187,0.0234375,-0.9609375,0.05859375
188,0.0234375,-0.96875,0.0703125
189,0.03125,-0.9609375,0.05859375
190,0.01171875,-0.97265625,0.07421875
191,0.0234375,-0.96875,0.05859375
192,0.0234375,-0.97265625,0.06640625
193,0.00390625,-0.96484375,0.05859375
194,0.02734375,-0.9609375,0.0546875
195,0.02734375,-0.95703125,0.0625
196,0.015625,-0.95703125,0.07421875
197,0.01953125,-0.953125,0.06640625
198,0.01953125,-0.94921875,0.0546875
199,0.03125,-0.94921875,0.078125
200,0.0234375,-0.95703125,0.06640625
201,0.01953125,-0.95703125,0.09765625
202,0.0234375,-0.95703125,0.0546875
203,0.015625,-0.953125,0.0546875
204,0.0234375,-0.96484375,0.05078125
205,0.015625,-0.95703125,0.05859375
206,0.01953125,-0.97265625,0.0546875
207,0.0234375,-0.95703125,0.0625
208,0.0234375,-0.95703125,0.0625
209,0.01171875,-0.95703125,0.06640625
210,0.00390625,-0.94921875,0.06640625
211,0.03125,-0.9609375,0.078125
212,0.015625,-0.95703125,0.078125
213,0.02734375,-0.94921875,0.07421875
214,0.03125,-0.953125,0.06640625
215,0.0234375,-0.9453125,0.0625
216,0.02734375,-0.95703125,0.0625
217,0.02734375,-0.94921875,0.0703125
218,0.0234375,-0.953125,0.05859375
219,0.01953125,-0.953125,0.06640625
220,0.00390625,-0.95703125,0.0625
221,0.0078125,-0.9453125,0.078125
222,-0.015625,-0.93359375,0.078125
223,0.01953125,-0.953125,0.06640625
224,0.01953125,-0.953125,0.0625
225,0.01171875,-0.9453125,0.0703125
226,0.01171875,-0.9453125,0.0625
227,0.015625,-0.95703125,0.0703125
228,0.0234375,-0.9609375,0.05078125
229,0.00390625,-0.9453125,0.05859375
230,0.015625,-0.96484375,0.0625
231,0.02734375,-0.953125,0.0859375
232,0.015625,-0.94921875,0.05859375
233,0.03125,-0.9296875,0.078125
234,0.0234375,-0.95703125,0.0703125
235,0.015625,-0.953125,0.0546875
236,0.015625,-0.95703125,0.06640625
237,0.01953125,-0.9609375,0.0546875
238,0.01953125,-0.9609375,0.06640625
239,0.0234375,-0.96484375,0.0625
240,0.03125,-0.96484375,0.05859375
241,0.0234375,-0.9609375,0.0546875
242,0.0078125,-0.9609375,0.0546875
243,0.01953125,-0.95703125,0.0546875
244,0.0,-0.96484375,0.05078125
245,0.01171875,-0.953125,0.0546875
246,0.01953125,-0.9609375,0.0546875
247,0.0234375,-0.96875,0.05859375
248,0.01953125,-0.95703125,0.05859375
249,0.015625,-0.9609375,0.0546875
250,0.01953125,-0.96875,0.0625
251,0.01171875,-0.9609375,0.0703125
252,0.0078125,-0.95703125,0.05078125
253,0.0078125,-0.96484375,0.0546875
254,0.015625,-0.953125,0.06640625
255,0.0234375,-0.9765625,0.046875
256,0.015625,-0.9453125,0.0625
257,0.01171875,-0.953125,0.05859375
258,0.015625,-0.953125,0.06640625
259,0.01171875,-0.95703125,0.0546875
260,0.01953125,-0.953125,0.06640625
261,0.0234375,-0.95703125,0.05078125
262,0.015625,-0.9609375,0.0625
263,0.015625,-0.9609375,0.06640625
264,0.01171875,-0.95703125,0.0625
265,-0.00390625,-0.9609375,0.0625
266,0.01953125,-0.96484375,0.0625
267,0.01953125,-0.96484375,0.0703125
268,0.01953125,-0.96484375,0.0625
269,0.0078125,-0.95703125,0.0546875
270,0.01171875,-0.96484375,0.0625
271,0.0078125,-0.9609375,0.05859375
272,0.0078125,-0.9609375,0.0546875
273,0.01953125,-0.95703125,0.0625
274,0.01171875,-0.953125,0.0625
275,0.0234375,-0.96875,0.06640625
276,0.0,-0.9609375,0.0546875
277,0.00390625,-0.96875,0.05859375
278,0.02734375,-0.98046875,0.05078125
279,0.0234375,-0.9765625,0.04296875
280,0.0390625,-0.97265625,0.05078125
281,0.02734375,-0.96875,0.0625
282,0.0390625,-0.984375,0.05078125
283,0.03125,-0.97265625,0.06640625
284,0.02734375,-0.97265625,0.05078125
285,0.04296875,-0.96875,0.0390625
286,0.0390625,-0.98046875,0.05078125
287,0.0390625,-0.9765625,0.05859375
288,0.03515625,-0.96875,0.07421875
289,0.0390625,-0.984375,0.04296875
290,0.04296875,-0.984375,0.02734375
291,0.046875,-1.0,0.03125
292,0.0390625,-0.99609375,0.0390625
293,0.0390625,-1.015625,0.0234375
294,0.03515625,-1.0078125,0.00390625
295,0.0390625,-1.01171875,0.0234375
296,0.04296875,-1.0234375,0.01953125
297,0.0390625,-1.015625,-0.01171875
298,0.03515625,-0.98828125,-0.01953125
299,0.01171875,-0.9921875,-0.0078125
300,0.03515625,-0.99609375,-0.01953125
301,0.046875,-0.98828125,-0.0390625
302,0.0390625,-0.984375,-0.0390625
303,0.03515625,-0.98046875,-0.03125
304,0.0390625,-0.96875,-0.04296875
305,0.05078125,-0.9609375,-0.04296875
306,0.04296875,-0.9375,-0.0546875
307,0.03125,-0.921875,-0.05078125
308,0.03515625,-0.90234375,-0.05078125
309,0.03125,-0.85546875,-0.09375
310,0.0234375,-0.82421875,-0.10546875
311,0.01953125,-0.78515625,-0.12890625
312,0.0234375,-0.75390625,-0.140625
313,0.01953125,-0.70703125,-0.19140625
314,0.01171875,-0.6640625,-0.2265625
315,0.015625,-0.60546875,-0.25
316,0.015625,-0.56640625,-0.2734375
317,0.03125,-0.5,-0.3359375
318,0.02734375,-0.42578125,-0.375
319,0.03125,-0.359375,-0.41015625
320,0.0234375,-0.27734375,-0.4453125
321,0.015625,-0.203125,-0.453125
322,-0.0234375,-0.11328125,-0.44921875
323,-0.0625,-0.01171875,-0.421875
324,-0.11328125,0.08203125,-0.3984375
325,-0.1796875,0.19140625,-0.3671875
326,-0.23828125,0.26171875,-0.32421875
327,-0.3046875,0.3203125,-0.28515625
328,-0.34375,0.31640625,-0.26171875
329,-0.375,0.29296875,-0.21484375
330,-0.35546875,0.21484375,-0.18359375
331,-0.31640625,0.1015625,-0.12109375
332,-0.23046875,-0.02734375,-0.08203125
333,-0.1328125,-0.17578125,-0.03125
334,-0.0546875,-0.28125,0.0078125
335,0.02734375,-0.39453125,0.03515625
336,0.06640625,-0.45703125,0.046875
337,0.13671875,-0.5390625,0.046875
338,0.203125,-0.5859375,0.0234375
339,0.26171875,-0.609375,-0.0390625
340,0.3046875,-0.58984375,-0.0859375
341,0.328125,-0.578125,-0.15234375
342,0.33984375,-0.5625,-0.20703125
343,0.37109375,-0.515625,-0.2890625
344,0.3515625,-0.46484375,-0.3515625
345,0.30859375,-0.421875,-0.41015625
346,0.26171875,-0.35546875,-0.421875
347,0.22265625,-0.3125,-0.41796875
348,0.18359375,-0.265625,-0.4140625
349,0.13671875,-0.23046875,-0.375
350,0.08984375,-0.2421875,-0.30859375
351,0.0546875,-0.24609375,-0.2734375
352,0.01953125,-0.2890625,-0.2265625
353,-0.015625,-0.33203125,-0.19140625
354,-0.046875,-0.37890625,-0.16796875
355,-0.05078125,-0.44921875,-0.12890625
356,-0.07421875,-0.4921875,-0.15625
357,-0.1171875,-0.56640625,-0.12890625
358,-0.1328125,-0.671875,-0.125
359,-0.15234375,-0.75,-0.10546875
360,-0.13671875,-0.8203125,-0.203125
361,-0.171875,-0.8671875,-0.203125
362,-0.1875,-0.92578125,-0.2421875
363,-0.24609375,-0.98828125,-0.33203125
364,-0.28125,-1.02734375,-0.45703125
365,-0.23046875,-1.07421875,-0.50390625
366,-0.20703125,-1.12109375,-0.54296875
367,-0.1484375,-1.19140625,-0.5390625
368,-0.07421875,-1.234375,-0.5078125
369,-0.02734375,-1.328125,-0.453125
370,0.0234375,-1.40625,-0.37109375
371,0.02734375,-1.45703125,-0.296875
372,0.05078125,-1.484375,-0.2734375
373,0.125,-1.5390625,-0.234375
374,0.1796875,-1.53515625,-0.24609375
375,0.17578125,-1.55859375,-0.234375
376,0.18359375,-1.54296875,-0.26171875
377,0.16015625,-1.50390625,-0.35546875
378,0.15625,-1.484375,-0.3828125
379,0.1484375,-1.4296875,-0.43359375
380,0.13671875,-1.41796875,-0.47265625
381,0.06640625,-1.32421875,-0.5
382,0.03515625,-1.28515625,-0.5
383,0.03515625,-1.26171875,-0.52734375
384,0.015625,-1.26171875,-0.515625
385,0.03515625,-1.28515625,-0.4921875
386,-0.015625,-1.3046875,-0.49609375
387,-0.05078125,-1.36328125,-0.453125
388,-0.0703125,-1.4296875,-0.42578125
389,-0.07421875,-1.5078125,-0.390625
390,-0.1015625,-1.55078125,-0.35546875
391,-0.08203125,-1.6015625,-0.31640625
392,-0.140625,-1.625,-0.3046875
393,-0.125,-1.625,-0.3125
394,-0.0859375,-1.58203125,-0.34375
395,-0.05078125,-1.52734375,-0.328125
396,-0.015625,-1.49609375,-0.41015625
397,-0.015625,-1.4609375,-0.4296875
398,0.04296875,-1.4453125,-0.46484375
399,0.0703125,-1.4140625,-0.5
400,0.0625,-1.38671875,-0.5078125
401,0.0625,-1.38671875,-0.52734375
402,0.05859375,-1.39453125,-0.5078125
403,0.046875,-1.42578125,-0.51953125
404,0.0546875,-1.4375,-0.49609375
405,0.06640625,-1.46484375,-0.484375
406,0.0390625,-1.43359375,-0.484375
407,0.03515625,-1.48046875,-0.46484375
408,-0.0078125,-1.44921875,-0.43359375
409,-0.05859375,-1.44921875,-0.42578125
410,-0.046875,-1.41015625,-0.43359375
411,-0.0703125,-1.37109375,-0.4375
412,-0.07421875,-1.3125,-0.42578125
413,-0.09375,-1.26953125,-0.4296875
414,-0.09375,-1.2421875,-0.4375
415,-0.08984375,-1.2265625,-0.4140625
416,-0.078125,-1.2109375,-0.421875
417,-0.08203125,-1.19921875,-0.38671875
418,-0.07421875,-1.1953125,-0.37109375
419,-0.05078125,-1.18359375,-0.34765625
420,-0.0390625,-1.18359375,-0.3359375
421,-0.03125,-1.18359375,-0.3046875
422,-0.015625,-1.2109375,-0.28515625
423,-0.00390625,-1.2421875,-0.25390625
424,-0.046875,-1.36328125,-0.20703125
425,-0.04296875,-1.5,-0.19921875
426,-0.05859375,-1.65625,-0.171875
427,0.00390625,-1.7734375,-0.21484375
428,-0.05078125,-1.91796875,-0.30078125
429,-0.0703125,-2.05859375,-0.43359375
430,-0.0859375,-2.21484375,-0.53515625
431,-0.078125,-2.32421875,-0.6484375
432,-0.12109375,-2.42578125,-0.6953125
433,-0.1328125,-2.375,-0.70703125
434,-0.12890625,-2.1484375,-0.59375
435,-0.09765625,-1.84375,-0.453125
436,-0.0859375,-1.55078125,-0.35546875
437,-0.0859375,-1.2421875,-0.23828125
438,-0.09375,-0.9375,-0.1171875
439,-0.109375,-0.68359375,-0.015625
440,-0.1015625,-0.50390625,0.0390625
441,-0.078125,-0.38671875,0.078125
442,-0.05859375,-0.32421875,0.078125
443,-0.06640625,-0.33984375,0.07421875
444,-0.0546875,-0.40234375,0.0625
445,-0.03125,-0.4765625,0.0703125
446,-0.0078125,-0.546875,0.05078125
447,0.0078125,-0.6328125,0.04296875
448,0.0234375,-0.6953125,0.06640625
449,0.04296875,-0.72265625,0.09765625
450,0.015625,-0.75390625,0.1328125
451,0.0234375,-0.765625,0.171875
452,-0.00390625,-0.76953125,0.1875
453,-0.03515625,-0.76953125,0.19921875
454,-0.046875,-0.80078125,0.1875
455,-0.03515625,-0.8359375,0.16796875
456,-0.0546875,-0.88671875,0.14453125
457,-0.0546875,-0.9609375,0.1328125
458,-0.05859375,-1.01171875,0.14453125
459,-0.05859375,-1.07421875,0.171875
460,-0.05859375,-1.1171875,0.13671875
461,-0.0625,-1.16796875,0.140625
462,-0.05859375,-1.203125,0.12109375
463,-0.06640625,-1.2109375,0.0859375
464,-0.046875,-1.22265625,0.078125
465,-0.0390625,-1.20703125,0.05859375
466,-0.0390625,-1.18359375,0.015625
467,-0.03125,-1.12890625,-0.00390625
468,-0.02734375,-1.05859375,0.0078125
469,-0.02734375,-0.99609375,0.0234375
470,-0.03125,-0.9296875,0.01953125
471,-0.0234375,-0.88671875,0.05078125
472,-0.01953125,-0.828125,0.07421875
473,-0.01171875,-0.80078125,0.08203125
474,-0.01171875,-0.78125,0.06640625
475,0.0078125,-0.78125,0.0859375
476,0.0,-0.7734375,0.0859375
477,0.01171875,-0.796875,0.07421875
478,0.01953125,-0.828125,0.09765625
479,0.01953125,-0.86328125,0.07421875
480,0.0078125,-0.88671875,0.109375
481,0.0234375,-0.921875,0.1171875
482,-0.00390625,-0.94140625,0.12109375
483,0.0,-0.96484375,0.1328125
484,-0.01171875,-0.97265625,0.15234375
485,-0.0234375,-0.96484375,0.171875
486,-0.03515625,-0.953125,0.1796875
487,-0.04296875,-0.953125,0.17578125
488,-0.03515625,-0.9296875,0.1796875
489,-0.05078125,-0.90625,0.1875
490,-0.03515625,-0.890625,0.18359375
491,-0.03515625,-0.8828125,0.171875
492,-0.03515625,-0.890625,0.16796875
493,-0.01171875,-0.88671875,0.1875
494,-0.01171875,-0.8828125,0.16796875
495,-0.01953125,-0.88671875,0.171875
496,-0.01171875,-0.8671875,0.15625
497,0.0,-0.890625,0.1640625
498,0.00390625,-0.89453125,0.1640625
499,0.00390625,-0.9140625,0.16015625
500,0.01171875,-0.9140625,0.14453125
501,-0.0078125,-0.90234375,0.14453125
502,-0.00390625,-0.90625,0.16015625
503,0.00390625,-0.921875,0.15234375
504,0.0,-0.92578125,0.1328125
505,-0.0078125,-0.93359375,0.12890625
506,-0.0078125,-0.9375,0.1328125
507,-0.01953125,-0.94140625,0.11328125
508,-0.0234375,-0.94140625,0.1328125
509,-0.015625,-0.9453125,0.1171875
510,-0.01953125,-0.95703125,0.11328125
511,-0.00390625,-0.953125,0.109375
512,-0.0078125,-0.94921875,0.109375
513,-0.015625,-0.953125,0.1015625
514,-0.0234375,-0.921875,0.09765625
515,-0.0078125,-0.9375,0.125
516,-0.01953125,-0.9375,0.125
517,-0.015625,-0.94140625,0.1328125
518,-0.01171875,-0.9453125,0.125
519,-0.00390625,-0.9375,0.1328125
520,-0.01171875,-0.92578125,0.1328125
521,-0.00390625,-0.921875,0.1484375
522,-0.015625,-0.90625,0.13671875
523,-0.00390625,-0.91796875,0.1484375
524,-0.02734375,-0.9140625,0.140625
525,-0.0078125,-0.9140625,0.125
526,0.00390625,-0.92578125,0.1328125
527,-0.00390625,-0.921875,0.12890625
528,-0.00390625,-0.91796875,0.13671875
529,0.0,-0.921875,0.11328125
530,0.01171875,-0.92578125,0.140625
531,0.01171875,-0.9296875,0.13671875
532,0.015625,-0.93359375,0.13671875
533,0.00390625,-0.92578125,0.12890625
534,0.0078125,-0.9375,0.125
535,0.00390625,-0.9296875,0.1171875
536,0.0078125,-0.94140625,0.12890625
537,0.00390625,-0.94140625,0.12109375
538,0.0078125,-0.93359375,0.125
539,-0.00390625,-0.93359375,0.11328125
540,-0.0078125,-0.94140625,0.1328125
541,-0.0078125,-0.94140625,0.125
542,-0.00390625,-0.94921875,0.12109375
543,-0.01953125,-0.9453125,0.125
544,-0.0234375,-0.9453125,0.10546875
545,-0.0078125,-0.94140625,0.11328125
546,0.0,-0.93359375,0.11328125
547,0.0,-0.94140625,0.1328125
548,-0.01171875,-0.94140625,0.1328125
549,-0.00390625,-0.9453125,0.1328125
550,0.00390625,-0.9375,0.140625
551,0.00390625,-0.953125,0.12890625
552,0.0,-0.95703125,0.140625
553,0.01171875,-0.94921875,0.1328125
554,-0.00390625,-0.94140625,0.14453125
555,0.00390625,-0.95703125,0.140625
556,-0.01171875,-0.94921875,0.1328125
557,-0.015625,-0.94921875,0.12890625
558,0.00390625,-0.953125,0.1328125
559,-0.01171875,-0.9375,0.14453125
560,-0.0078125,-0.9453125,0.1328125
561,-0.0078125,-0.9453125,0.140625
562,0.0,-0.9609375,0.140625
563,-0.015625,-0.94921875,0.14453125
564,-0.015625,-0.94140625,0.15234375
565,-0.015625,-0.9453125,0.1328125
566,-0.01953125,-0.953125,0.125
567,-0.01953125,-0.94921875,0.125
568,-0.0078125,-0.97265625,0.12109375
569,-0.01953125,-0.94921875,0.125
570,0.0,-0.953125,0.11328125
571,0.0,-0.95703125,0.11328125
572,-0.0078125,-0.94921875,0.11328125
573,-0.015625,-0.9453125,0.1171875
574,0.0,-0.9453125,0.10546875
575,-0.00390625,-0.95703125,0.10546875
576,-0.0078125,-0.953125,0.11328125
577,0.00390625,-0.94140625,0.0859375
578,-0.01953125,-0.94140625,0.10546875
579,0.0,-0.93359375,0.125
580,-0.01953125,-0.94140625,0.10546875
581,-0.01171875,-0.94140625,0.12109375
582,0.0,-0.953125,0.11328125
583,-0.00390625,-0.9453125,0.1171875
584,-0.0078125,-0.94921875,0.125
585,-0.00390625,-0.94921875,0.125
586,-0.0078125,-0.94140625,0.12109375
587,-0.00390625,-0.94921875,0.12109375
588,-0.00390625,-0.95703125,0.11328125
589,-0.0078125,-0.953125,0.1328125
590,0.0,-0.953125,0.10546875
591,-0.0078125,-0.95703125,0.1171875
592,-0.015625,-0.95703125,0.1171875
593,-0.00390625,-0.953125,0.1015625
594,0.0,-0.94921875,0.1171875
595,0.0,-0.953125,0.10546875
596,-0.00390625,-0.94921875,0.109375
597,0.0,-0.94921875,0.1015625
598,0.0,-0.9609375,0.109375
599,-0.0078125,-0.953125,0.109375
600,-0.00390625,-0.9453125,0.11328125
601,0.00390625,-0.94921875,0.12109375
602,-0.015625,-0.94921875,0.11328125
603,-0.01171875,-0.94921875,0.08984375
604,0.0,-0.953125,0.109375
605,0.0,-0.953125,0.10546875
606,-0.0078125,-0.9453125,0.109375
607,-0.00390625,-0.95703125,0.109375
608,-0.0078125,-0.953125,0.09765625
609,-0.01171875,-0.95703125,0.10546875
610,-0.00390625,-0.94921875,0.109375
611,-0.00390625,-0.94921875,0.10546875
612,-0.015625,-0.95703125,0.09765625
613,-0.00390625,-0.953125,0.10546875
614,-0.0078125,-0.953125,0.10546875
615,-0.0078125,-0.953125,0.11328125
616,0.0078125,-0.9609375,0.109375
617,-0.00390625,-0.95703125,0.1171875
618,-0.00390625,-0.953125,0.11328125
619,-0.01953125,-0.953125,0.109375
620,0.00390625,-0.95703125,0.10546875
621,0.0078125,-0.9609375,0.11328125
622,-0.01171875,-0.94921875,0.10546875
623,-0.0078125,-0.97265625,0.13671875
624,-0.015625,-0.953125,0.12890625
625,-0.0078125,-0.94921875,0.12109375
626,-0.0078125,-0.9453125,0.109375
627,-0.0078125,-0.953125,0.1171875
628,-0.015625,-0.9453125,0.125
629,-0.015625,-0.94921875,0.125
630,0.00390625,-0.953125,0.1171875
631,-0.015625,-0.94921875,0.08984375
632,-0.015625,-0.93359375,0.125
633,0.015625,-0.953125,0.1171875
634,-0.01171875,-0.94140625,0.12109375
635,-0.00390625,-0.94921875,0.10546875
636,-0.00390625,-0.94921875,0.125
637,-0.00390625,-0.94921875,0.12890625
638,-0.00390625,-0.953125,0.12109375
639,0.0,-0.953125,0.1171875
640,-0.01953125,-0.94921875,0.12890625
641,0.00390625,-0.94921875,0.11328125
642,-0.015625,-0.953125,0.12890625
643,-0.00390625,-0.953125,0.12890625
644,0.01171875,-0.91015625,0.12109375
645,-0.01953125,-0.953125,0.125
646,-0.01171875,-0.95703125,0.12890625
647,0.0,-0.953125,0.1328125
648,0.00390625,-0.94921875,0.12109375
649,0.0,-0.94140625,0.125
650,-0.015625,-0.94921875,0.12109375
651,-0.00390625,-0.9453125,0.1171875
652,-0.00390625,-0.9375,0.11328125
653,0.0,-0.94140625,0.1328125
654,-0.015625,-0.9375,0.1171875
655,0.00390625,-0.94921875,0.140625
656,-0.015625,-0.9375,0.13671875
657,-0.01953125,-0.93359375,0.1328125
658,-0.0078125,-0.94921875,0.13671875
659,-0.0078125,-0.94921875,0.1484375
660,0.0,-0.94921875,0.14453125
661,-0.0078125,-0.9453125,0.1484375
662,-0.01953125,-0.9453125,0.1171875
663,-0.0078125,-0.9453125,0.14453125
664,0.00390625,-0.953125,0.14453125
665,0.01171875,-0.94921875,0.15625
666,-0.01171875,-0.953125,0.11328125
667,-0.01171875,-0.9375,0.15234375
668,0.00390625,-0.9453125,0.1484375
669,-0.00390625,-0.94921875,0.1328125
670,-0.0078125,-0.9453125,0.140625
671,-0.00390625,-0.9375,0.140625
672,-0.015625,-0.9375,0.1328125
673,-0.00390625,-0.94921875,0.140625
674,-0.00390625,-0.94921875,0.14453125
675,0.0,-0.94921875,0.12109375
676,0.0,-0.94140625,0.140625
677,-0.00390625,-0.94140625,0.16796875
678,-0.00390625,-0.94140625,0.16015625
679,-0.01953125,-0.93359375,0.140625
680,-0.00390625,-0.9453125,0.1328125
681,-0.0078125,-0.9375,0.140625
682,-0.01171875,-0.93359375,0.13671875
683,-0.0078125,-0.9453125,0.125
684,0.00390625,-0.9453125,0.1484375
685,-0.01171875,-0.94921875,0.14453125
686,-0.0078125,-0.9453125,0.1328125
687,-0.00390625,-0.94921875,0.1484375
688,-0.0078125,-0.92578125,0.1640625
689,-0.0078125,-0.9453125,0.125
690,-0.01171875,-0.94140625,0.14453125
691,-0.01171875,-0.9375,0.1328125
692,-0.00390625,-0.9375,0.14453125
693,-0.01171875,-0.9296875,0.13671875
694,-0.00390625,-0.94140625,0.12890625
695,0.0,-0.93359375,0.14453125
696,0.0,-0.94140625,0.140625
697,-0.01171875,-0.9296875,0.15625
698,-0.01953125,-0.93359375,0.15625
699,0.0078125,-0.9453125,0.15625
700,-0.015625,-0.9296875,0.1484375
701,0.0,-0.93359375,0.1484375
702,-0.00390625,-0.93359375,0.1484375
703,-0.015625,-0.9375,0.14453125
704,-0.01171875,-0.93359375,0.1484375
705,-0.01953125,-0.94921875,0.1484375
706,-0.0234375,-0.93359375,0.15625
707,-0.01171875,-0.9296875,0.171875
708,0.0,-0.93359375,0.14453125
709,-0.02734375,-0.9453125,0.15234375
710,-0.01171875,-0.9453125,0.1875
711,-0.00390625,-0.93359375,0.16015625
712,0.0,-0.9375,0.171875
713,-0.01953125,-0.94140625,0.14453125
714,-0.015625,-0.92578125,0.1484375
715,-0.01171875,-0.93359375,0.1484375
716,-0.01171875,-0.9296875,0.16015625
717,-0.01171875,-0.94140625,0.14453125
718,-0.03515625,-0.92578125,0.1484375
719,-0.00390625,-0.9453125,0.16015625
720,-0.0078125,-0.9375,0.15625
721,-0.01171875,-0.91015625,0.171875
722,-0.0078125,-0.9296875,0.16796875
723,-0.01953125,-0.9296875,0.16015625
724,-0.00390625,-0.94140625,0.16015625
725,0.00390625,-0.94140625,0.171875
726,0.0,-0.93359375,0.15625
727,0.00390625,-0.94921875,0.15234375
728,-0.01171875,-0.94140625,0.15234375
729,0.0,-0.9375,0.171875
730,-0.01953125,-0.9453125,0.1484375
731,-0.00390625,-0.93359375,0.16015625
732,-0.04296875,-0.94921875,0.15625
733,-0.00390625,-0.94921875,0.171875
734,-0.00390625,-0.9375,0.15625
735,-0.01171875,-0.9375,0.15234375
736,-0.01171875,-0.94140625,0.1484375
737,-0.0078125,-0.953125,0.15625
738,-0.0078125,-0.9453125,0.16796875
739,-0.03125,-0.94140625,0.15625
740,-0.01953125,-0.94140625,0.15625
741,-0.01953125,-0.9296875,0.171875
742,-0.01171875,-0.94140625,0.16796875
743,-0.01171875,-0.9375,0.171875
744,-0.01171875,-0.9453125,0.17578125
745,-0.0078125,-0.94921875,0.1796875
746,-0.0078125,-0.94921875,0.15234375
747,-0.01171875,-0.9453125,0.16796875
748,-0.015625,-0.9296875,0.14453125
749,-0.01171875,-0.91796875,0.1640625
750,-0.00390625,-0.93359375,0.16015625
751,-0.00390625,-0.92578125,0.15234375
752,-0.01953125,-0.93359375,0.15234375
753,-0.00390625,-0.93359375,0.18359375
754,-0.01171875,-0.9140625,0.16015625
755,0.0,-0.92578125,0.1640625
756,-0.01953125,-0.92578125,0.1796875
757,-0.00390625,-0.921875,0.16796875
758,-0.01171875,-0.921875,0.171875
759,-0.01171875,-0.93359375,0.16796875
760,-0.0078125,-0.9375,0.1875
761,-0.015625,-0.921875,0.1640625
762,-0.0078125,-0.9296875,0.171875
763,0.0078125,-0.9296875,0.14453125
764,-0.00390625,-0.9375,0.19921875
765,0.00390625,-0.94140625,0.171875
766,-0.015625,-0.9296875,0.1796875
767,-0.015625,-0.94140625,0.17578125
768,-0.0078125,-0.9296875,0.171875
769,-0.0078125,-0.9375,0.18359375
770,-0.00390625,-0.9296875,0.171875
771,-0.015625,-0.93359375,0.171875
772,-0.0078125,-0.92578125,0.1796875
773,-0.0078125,-0.93359375,0.16015625
774,-0.01171875,-0.9296875,0.1640625
775,-0.01171875,-0.921875,0.1796875
776,-0.00390625,-0.9296875,0.17578125
777,-0.0078125,-0.9296875,0.16015625
778,0.0,-0.921875,0.1640625
779,-0.015625,-0.9296875,0.16796875
780,-0.00390625,-0.93359375,0.1796875
781,0.0,-0.93359375,0.16796875
782,-0.01171875,-0.921875,0.1796875
783,-0.01171875,-0.921875,0.17578125
784,-0.0234375,-0.91796875,0.1796875
785,-0.015625,-0.92578125,0.1640625
786,-0.03125,-0.94921875,0.15625
787,-0.0078125,-0.94140625,0.1796875
788,-0.015625,-0.94140625,0.171875
789,-0.0078125,-0.94140625,0.16015625
790,-0.01171875,-0.93359375,0.16796875
791,-0.01171875,-0.94140625,0.1640625
792,-0.0078125,-0.94921875,0.15625
793,-0.01171875,-0.94921875,0.16015625
794,-0.015625,-0.9375,0.16015625
795,-0.01171875,-0.92578125,0.1640625
796,-0.01953125,-0.92578125,0.19140625
797,-0.0390625,-0.9296875,0.16796875
798,-0.015625,-0.93359375,0.1640625
799,-0.01171875,-0.94140625,0.17578125
800,-0.01171875,-0.9375,0.16015625
801,-0.0078125,-0.9375,0.1640625
802,-0.015625,-0.9453125,0.16796875
803,-0.0234375,-0.93359375,0.16796875
804,-0.01171875,-0.93359375,0.171875
805,-0.03125,-0.93359375,0.15625
806,-0.015625,-0.92578125,0.1796875
807,-0.02734375,-0.9296875,0.16796875
808,-0.01171875,-0.921875,0.17578125
809,-0.0078125,-0.9375,0.19140625
810,0.0,-0.9375,0.19140625
811,0.0,-0.9375,0.1796875
812,-0.0078125,-0.9375,0.1953125
813,-0.0078125,-0.9375,0.171875
814,0.00390625,-0.9375,0.1796875
815,-0.00390625,-0.92578125,0.1953125
816,0.0,-0.93359375,0.20703125
817,-0.00390625,-0.9296875,0.21484375
818,-0.00390625,-0.91796875,0.22265625
819,0.0,-0.94140625,0.25
820,-0.015625,-0.9375,0.23046875
821,-0.01171875,-0.92578125,0.265625
822,0.01171875,-0.91796875,0.28125
823,0.02734375,-0.90625,0.2890625
824,0.0,-0.90625,0.296875
825,-0.01953125,-0.89453125,0.3046875
826,-0.02734375,-0.85546875,0.328125
827,-0.02734375,-0.8046875,0.29296875
828,-0.01953125,-0.75,0.2421875
829,-0.01953125,-0.68359375,0.1875
830,0.0078125,-0.625,0.11328125
831,-0.01171875,-0.5703125,0.046875
832,-0.0078125,-0.55859375,0.01171875
833,-0.00390625,-0.5703125,-0.03515625
834,-0.015625,-0.61328125,-0.04296875
835,-0.03125,-0.67578125,-0.06640625
836,-0.015625,-0.765625,-0.0703125
837,-0.0234375,-0.82421875,-0.08984375
838,-0.01171875,-0.921875,-0.0859375
839,-0.01953125,-1.0,-0.06640625
840,0.0,-1.04296875,-0.0703125
841,-0.02734375,-1.109375,-0.07421875
842,-0.0078125,-1.12890625,-0.0546875
843,0.01953125,-1.16796875,-0.03515625
844,0.0078125,-1.171875,-0.02734375
845,0.01953125,-1.171875,-0.03125
846,0.01171875,-1.16796875,-0.01953125
847,0.0078125,-1.15625,-0.02734375
848,0.03125,-1.16015625,-0.06640625
849,0.0078125,-1.14453125,-0.10546875
850,-0.01953125,-1.12890625,-0.13671875
851,-0.01953125,-1.0703125,-0.1484375
852,-0.03125,-1.0703125,-0.19140625
853,-0.0390625,-1.015625,-0.19921875
854,-0.06640625,-0.98828125,-0.19921875
855,-0.06640625,-0.9609375,-0.19140625
856,-0.07421875,-0.9453125,-0.19921875
857,-0.06640625,-0.91796875,-0.1953125
858,-0.0625,-0.9140625,-0.19921875
859,-0.0703125,-0.8984375,-0.19140625
860,-0.05078125,-0.91796875,-0.19140625
861,-0.0390625,-0.90234375,-0.18359375
862,-0.0390625,-0.9296875,-0.14453125
863,-0.03125,-0.921875,-0.12890625
864,-0.015625,-0.9375,-0.08203125
865,-0.0234375,-0.92578125,-0.03515625
866,-0.0390625,-0.890625,0.04296875
867,-0.0390625,-0.84765625,0.03515625
868,-0.01171875,-0.79296875,0.046875
869,-0.03125,-0.7265625,0.0234375
870,-0.04296875,-0.68359375,0.01171875
871,-0.0234375,-0.67578125,-0.02734375
872,-0.10546875,-0.640625,-0.0703125
873,-0.0703125,-0.6640625,-0.1796875
874,-0.05078125,-0.65234375,-0.2265625
875,0.0234375,-0.72265625,-0.27734375
876,0.07421875,-0.8671875,-0.265625
877,0.0859375,-1.03125,-0.26171875
878,0.109375,-1.2421875,-0.23828125
879,0.08203125,-1.45703125,-0.26171875
880,0.109375,-1.63671875,-0.27734375
881,0.08984375,-1.77734375,-0.30859375
882,0.08203125,-1.87890625,-0.2734375
883,0.10546875,-1.89453125,-0.2109375
884,0.0703125,-1.80859375,-0.17578125
885,0.046875,-1.75,-0.109375
886,0.00390625,-1.69140625,-0.04296875
887,-0.08203125,-1.55078125,-0.04296875
888,-0.1015625,-1.45703125,-0.1015625
889,-0.18359375,-1.3984375,-0.15234375
890,-0.16796875,-1.3984375,-0.22265625
891,-0.20703125,-1.44140625,-0.31640625
892,-0.17578125,-1.48828125,-0.3515625
893,-0.15234375,-1.58984375,-0.39453125
894,-0.1171875,-1.6640625,-0.390625
895,-0.05859375,-1.69921875,-0.43359375
896,-0.046875,-1.72265625,-0.453125
897,-0.00390625,-1.71875,-0.49609375
898,0.015625,-1.68359375,-0.53125
899,0.05859375,-1.62890625,-0.5625
900,0.08203125,-1.5546875,-0.58203125
901,0.0859375,-1.5,-0.55859375
902,0.07421875,-1.484375,-0.5625
903,0.06640625,-1.49609375,-0.546875
904,0.0625,-1.4765625,-0.546875
905,0.05078125,-1.46484375,-0.51953125
906,0.0390625,-1.49609375,-0.53125
907,0.01953125,-1.5234375,-0.55078125
908,0.00390625,-1.5390625,-0.5703125
909,0.125,-1.5703125,-0.56640625
910,0.015625,-1.58984375,-0.61328125
911,-0.03125,-1.5234375,-0.61328125
912,-0.046875,-1.4609375,-0.62109375
913,-0.08984375,-1.41015625,-0.6640625
914,-0.00390625,-1.42578125,-0.671875
915,-0.02734375,-1.4375,-0.65234375
916,0.0078125,-1.375,-0.65234375
917,-0.05078125,-1.34765625,-0.65234375
918,-0.10546875,-1.37109375,-0.640625
919,-0.0859375,-1.375,-0.6328125
920,0.0078125,-1.4296875,-0.62890625
921,-0.0390625,-1.4375,-0.59375
922,-0.08203125,-1.42578125,-0.58203125
923,-0.0625,-1.4375,-0.5625
924,-0.08203125,-1.4453125,-0.55859375
925,-0.046875,-1.44921875,-0.56640625
926,-0.07421875,-1.4609375,-0.51953125
927,-0.046875,-1.48828125,-0.5
928,-0.07421875,-1.50390625,-0.50390625
929,-0.078125,-1.5,-0.5234375
930,-0.0703125,-1.48046875,-0.4921875
931,-0.078125,-1.45703125,-0.4921875
932,-0.07421875,-1.41796875,-0.4921875
933,-0.08203125,-1.37890625,-0.48046875
934,-0.08984375,-1.33203125,-0.47265625
935,-0.08203125,-1.27734375,-0.45703125
936,-0.0859375,-1.1875,-0.453125
937,-0.08203125,-1.171875,-0.46875
938,-0.078125,-1.08984375,-0.45703125
939,-0.08984375,-1.02734375,-0.45703125
940,-0.078125,-0.96875,-0.46484375
941,-0.08203125,-0.92578125,-0.4765625
942,-0.07421875,-0.8671875,-0.47265625
943,-0.06640625,-0.82421875,-0.44140625
944,-0.05859375,-0.77734375,-0.42578125
945,-0.0625,-0.7265625,-0.4375
946,-0.05859375,-0.703125,-0.42578125
947,-0.046875,-0.6875,-0.4140625
948,-0.03125,-0.6640625,-0.390625
949,0.0,-0.6484375,-0.38671875
950,-0.00390625,-0.62109375,-0.36328125
951,0.01953125,-0.6328125,-0.3515625
952,0.03515625,-0.62890625,-0.3515625
953,0.03515625,-0.625,-0.34375
954,0.03125,-0.625,-0.3203125
955,0.04296875,-0.640625,-0.30078125
956,0.03515625,-0.63671875,-0.28515625
957,0.046875,-0.625,-0.2578125
958,0.046875,-0.609375,-0.26171875
959,0.05859375,-0.609375,-0.26171875
960,0.05859375,-0.56640625,-0.2734375
961,0.05859375,-0.55078125,-0.265625
962,0.05859375,-0.5234375,-0.265625
963,0.02734375,-0.48046875,-0.28515625
964,0.015625,-0.44921875,-0.296875
965,0.04296875,-0.4296875,-0.3125
966,0.0234375,-0.375,-0.3125
967,0.0234375,-0.34765625,-0.3359375
968,0.0234375,-0.33203125,-0.33984375
969,0.0,-0.29296875,-0.359375
970,-0.00390625,-0.2734375,-0.3359375
971,-0.01171875,-0.25,-0.31640625
972,-0.015625,-0.234375,-0.33203125
973,-0.03515625,-0.23046875,-0.3359375
974,-0.0234375,-0.22265625,-0.3125
975,-0.0546875,-0.21875,-0.34375
976,-0.05859375,-0.2109375,-0.328125
977,-0.08203125,-0.18359375,-0.34765625
978,-0.05078125,-0.203125,-0.39453125
979,-0.06640625,-0.19140625,-0.34375
980,-0.05859375,-0.2109375,-0.33203125
981,-0.04296875,-0.23828125,-0.32421875
982,-0.01171875,-0.25,-0.30078125
983,0.00390625,-0.28125,-0.3046875
984,0.0390625,-0.31640625,-0.2890625
985,0.05859375,-0.3359375,-0.26953125
986,0.0703125,-0.328125,-0.2890625
987,0.08984375,-0.3359375,-0.29296875
988,0.0859375,-0.328125,-0.33203125
989,0.09765625,-0.328125,-0.31640625
990,0.078125,-0.31640625,-0.33984375
991,0.08203125,-0.3359375,-0.375
992,0.0546875,-0.32421875,-0.37890625
993,0.03515625,-0.33984375,-0.3671875
994,0.0390625,-0.34765625,-0.37890625
995,0.02734375,-0.36328125,-0.38671875
996,0.0078125,-0.3984375,-0.39453125
997,-0.015625,-0.40625,-0.41015625
998,-0.04296875,-0.4765625,-0.41015625
999,-0.0625,-0.49609375,-0.40234375
1000,-0.08203125,-0.5390625,-0.37890625
1001,-0.0859375,-0.58984375,-0.38671875
1002,-0.08984375,-0.6328125,-0.38671875
1003,-0.08203125,-0.69921875,-0.36328125
1004,-0.05859375,-0.74609375,-0.37890625
1005,-0.05078125,-0.80859375,-0.33984375
1006,-0.0546875,-0.859375,-0.30859375
1007,-0.04296875,-0.94140625,-0.2890625
1008,-0.02734375,-0.99609375,-0.2578125
1009,-0.01171875,-1.0546875,-0.25390625
1010,0.015625,-1.1171875,-0.24609375
1011,0.0390625,-1.1875,-0.2578125
1012,0.0546875,-1.21484375,-0.26171875
1013,0.078125,-1.25390625,-0.2734375
1014,0.08984375,-1.27734375,-0.28125
1015,0.11328125,-1.28515625,-0.2578125
1016,0.10546875,-1.25390625,-0.25390625
1017,0.0859375,-1.203125,-0.23046875
1018,0.0625,-1.16015625,-0.21484375
1019,0.04296875,-1.09375,-0.19140625
1020,0.02734375,-1.01171875,-0.18359375
1021,0.0078125,-0.94140625,-0.1875
1022,-0.01171875,-0.8828125,-0.171875
1023,-0.03125,-0.81640625,-0.1484375
1024,-0.0234375,-0.76171875,-0.12890625
1025,-0.0390625,-0.7421875,-0.140625
1026,-0.03125,-0.7265625,-0.12890625
1027,-0.046875,-0.7109375,-0.125
1028,-0.04296875,-0.71875,-0.13671875
1029,-0.04296875,-0.74609375,-0.14453125
1030,-0.0234375,-0.79296875,-0.1484375
1031,-0.015625,-0.82421875,-0.1484375
1032,-0.01171875,-0.89453125,-0.171875
1033,0.00390625,-0.9375,-0.1796875
1034,0.0,-0.96875,-0.16796875
1035,0.0234375,-1.0546875,-0.1796875
1036,0.0234375,-1.10546875,-0.15625
1037,0.01953125,-1.140625,-0.16796875
1038,0.01171875,-1.15234375,-0.14453125
1039,0.01171875,-1.1484375,-0.14453125
1040,0.00390625,-1.1171875,-0.13671875
1041,0.01953125,-1.09765625,-0.16015625
1042,0.03515625,-1.08203125,-0.16015625
1043,0.01953125,-1.046875,-0.14453125
1044,0.01171875,-1.03515625,-0.1484375
1045,0.00390625,-1.0,-0.15625
1046,0.00390625,-0.96875,-0.140625
1047,0.00390625,-0.95703125,-0.15234375
1048,-0.00390625,-0.94921875,-0.1328125
1049,-0.015625,-0.9375,-0.125
1050,-0.00390625,-0.92578125,-0.1015625
1051,-0.01171875,-0.921875,-0.09765625
1052,-0.0078125,-0.93359375,-0.09765625
1053,0.01171875,-0.94140625,-0.078125
1054,0.03125,-0.94140625,-0.07421875
1055,0.02734375,-0.9609375,-0.11328125
1056,0.04296875,-0.9609375,-0.1171875
1057,0.0546875,-0.953125,-0.12109375
1058,0.07421875,-0.95703125,-0.12109375
1059,0.0625,-0.94921875,-0.12109375
1060,0.0703125,-0.94921875,-0.09765625
1061,0.05859375,-0.9453125,-0.08984375
1062,0.07421875,-0.953125,-0.0859375
1063,0.05859375,-0.95703125,-0.09765625
1064,0.05078125,-0.96484375,-0.0703125
1065,0.0546875,-0.984375,-0.0546875
1066,0.04296875,-0.9765625,-0.0703125
1067,0.0234375,-1.00390625,-0.046875
1068,0.0078125,-0.98828125,-0.05859375
1069,0.0,-0.98828125,-0.046875
1070,-0.015625,-0.97265625,-0.05078125
1071,-0.01171875,-0.96484375,-0.05078125
1072,-0.015625,-0.953125,-0.05078125
1073,-0.03515625,-0.9453125,-0.0625
1074,-0.0234375,-0.93359375,-0.0546875
1075,-0.02734375,-0.93359375,-0.0703125
1076,-0.0078125,-0.9453125,-0.06640625
1077,-0.015625,-0.9296875,-0.0546875
1078,-0.0078125,-0.95703125,-0.05859375
1079,-0.00390625,-0.96875,-0.0703125
1080,0.00390625,-0.98828125,-0.07421875
1081,-0.00390625,-0.98828125,-0.0546875
1082,0.00390625,-0.98828125,-0.08203125
1083,0.00390625,-0.96875,-0.078125
1084,0.0234375,-0.96875,-0.078125
1085,0.01953125,-0.953125,-0.08984375
1086,0.0390625,-0.953125,-0.1015625
1087,0.046875,-0.95703125,-0.1015625
1088,0.046875,-0.9453125,-0.09375
1089,0.05078125,-0.95703125,-0.07421875
1090,0.0390625,-0.953125,-0.0859375
1091,0.03515625,-0.96484375,-0.0703125
1092,0.04296875,-0.96484375,-0.06640625
1093,0.02734375,-0.9765625,-0.0546875
1094,0.03125,-0.96875,-0.05859375
1095,0.01171875,-0.96875,-0.0625
1096,0.0234375,-0.9765625,-0.05078125
1097,0.01171875,-0.96875,-0.04296875
1098,0.0078125,-0.9765625,-0.046875
1099,0.0,-0.98046875,-0.078125
1100,0.0078125,-0.984375,-0.046875
1101,-0.00390625,-0.96875,-0.046875
1102,-0.00390625,-0.98046875,-0.0390625
1103,-0.00390625,-0.9765625,-0.0390625
1104,-0.01171875,-0.96484375,-0.04296875
1105,-0.01171875,-0.97265625,-0.04296875
1106,-0.01953125,-0.95703125,-0.0390625
1107,-0.00390625,-0.9609375,-0.05859375
1108,-0.0078125,-0.9453125,-0.046875
1109,-0.0078125,-0.953125,-0.0546875
1110,0.0,-0.9609375,-0.0390625
1111,-0.01171875,-0.9453125,-0.05078125
1112,-0.01953125,-0.94921875,-0.03125
1113,-0.015625,-0.953125,-0.03125
1114,-0.00390625,-0.95703125,-0.03125
1115,-0.01171875,-0.96484375,-0.03515625
1116,-0.01953125,-0.95703125,-0.03125
1117,-0.01953125,-0.953125,-0.03515625
1118,-0.0078125,-0.96484375,-0.046875
1119,-0.01953125,-0.96875,-0.03515625
1120,-0.015625,-0.96875,-0.02734375
1121,0.0,-0.96875,-0.0625
1122,-0.01171875,-0.96875,-0.05078125
1123,-0.01171875,-0.96875,-0.04296875
1124,0.0078125,-0.98046875,-0.0546875
1125,0.0,-0.9765625,-0.02734375
1126,0.0,-0.98046875,-0.0390625
1127,-0.00390625,-0.97265625,-0.0234375
1128,0.01171875,-0.96875,-0.04296875
1129,0.01171875,-0.98046875,-0.03125
1130,0.00390625,-0.97265625,-0.01953125
1131,0.01171875,-0.97265625,-0.0703125
1132,0.0,-0.9765625,-0.0234375
1133,-0.01171875,-0.96875,-0.0390625
1134,0.0,-0.96875,-0.0234375
1135,-0.0078125,-0.96484375,-0.01953125
1136,-0.00390625,-0.96484375,-0.0234375
1137,-0.02734375,-0.94921875,-0.02734375
1138,-0.0078125,-0.96484375,-0.0234375
1139,-0.01953125,-0.9453125,-0.015625
1140,-0.01171875,-0.95703125,-0.02734375
1141,-0.0234375,-0.95703125,-0.0234375
1142,0.0234375,-0.96484375,-0.04296875
1143,-0.0078125,-0.9609375,-0.02734375
1144,-0.01953125,-0.953125,-0.046875
1145,-0.0234375,-0.95703125,-0.01953125
1146,0.0,-0.96484375,-0.02734375
1147,-0.01953125,-0.96875,-0.046875
1148,-0.0078125,-0.96484375,-0.02734375
1149,-0.01171875,-0.96875,-0.0234375
1150,0.0078125,-0.98046875,-0.0234375
1151,-0.01953125,-0.96484375,-0.01171875
1152,-0.0078125,-0.984375,-0.01953125
1153,0.00390625,-0.95703125,0.03515625
1154,0.01171875,-0.96875,-0.03515625
1155,0.0,-0.98046875,-0.046875
1156,-0.00390625,-0.9765625,-0.0546875
1157,-0.0078125,-0.9921875,-0.04296875
1158,-0.01953125,-0.98046875,-0.03515625
1159,-0.01953125,-0.98828125,-0.03515625
1160,-0.015625,-0.98046875,-0.02734375
1161,-0.04296875,-0.98828125,-0.04296875
1162,-0.05859375,-0.9765625,-0.05859375
1163,-0.05859375,-0.96875,-0.0546875
1164,-0.0625,-0.97265625,-0.04296875
1165,-0.0546875,-0.9921875,-0.05859375
1166,-0.05859375,-0.98046875,-0.04296875
1167,-0.04296875,-0.97265625,-0.01953125
1168,-0.03125,-0.96484375,-0.03125
1169,-0.015625,-0.96875,-0.046875
1170,0.0,-0.95703125,-0.05078125
1171,-0.0078125,-0.9609375,-0.07421875
1172,0.0078125,-0.97265625,-0.0859375
1173,0.07421875,-0.97265625,-0.09765625
1174,0.125,-0.9609375,-0.0703125
1175,0.12890625,-0.96484375,-0.04296875
1176,0.11328125,-0.98046875,-0.0546875
1177,0.1015625,-1.0,-0.046875
1178,0.08203125,-1.01953125,-0.03515625
1179,0.0859375,-1.0234375,-0.01953125
1180,0.08203125,-1.0234375,0.0
1181,0.05859375,-1.0,0.00390625
1182,0.03515625,-0.98828125,-0.01171875
1183,0.0078125,-0.9921875,-0.02734375
1184,0.0234375,-0.984375,-0.03125
1185,-0.015625,-0.9609375,-0.046875
1186,-0.015625,-0.95703125,-0.0390625
1187,0.00390625,-0.953125,-0.05078125
1188,-0.01171875,-0.94921875,-0.05078125
1189,-0.03125,-0.9453125,-0.0546875
1190,-0.01953125,-0.96484375,-0.04296875
1191,-0.02734375,-0.9609375,-0.04296875
1192,-0.01171875,-0.96484375,-0.0234375
1193,-0.02734375,-0.96484375,-0.01171875
1194,-0.01171875,-0.96484375,-0.015625
1195,-0.0078125,-0.984375,-0.015625
1196,-0.01171875,-0.96875,-0.0234375
1197,-0.01953125,-0.9609375,-0.02734375
1198,0.0,-0.97265625,-0.04296875
1199,0.0078125,-0.96484375,-0.02734375
1200,0.0,-0.96484375,-0.03515625
1201,0.01953125,-0.96875,-0.0234375
1202,0.02734375,-0.98046875,-0.0234375
1203,0.01953125,-0.9765625,-0.0234375
1204,0.015625,-0.97265625,-0.03125
1205,0.0078125,-0.98046875,-0.046875
1206,0.01171875,-0.98046875,-0.02734375
1207,0.0234375,-0.98828125,-0.046875
1208,0.01953125,-0.98046875,-0.03125
1209,0.015625,-0.98046875,-0.046875
1210,0.0234375,-0.984375,-0.0390625
1211,0.0234375,-0.99609375,-0.04296875
1212,0.015625,-0.98828125,-0.046875
1213,0.0078125,-0.984375,-0.05859375
1214,0.01171875,-0.98046875,-0.04296875
1215,0.015625,-0.9921875,-0.05859375
1216,0.015625,-0.98828125,-0.046875
1217,0.01171875,-0.984375,-0.046875
1218,0.015625,-0.9921875,-0.03515625
1219,0.0078125,-0.9921875,-0.05859375
1220,0.01171875,-1.0078125,-0.0625
1221,0.00390625,-0.99609375,-0.04296875
1222,-0.00390625,-0.984375,-0.03515625
1223,-0.00390625,-0.984375,-0.03125
1224,-0.00390625,-0.98046875,-0.01953125
1225,-0.0078125,-0.99609375,-0.04296875
1226,-0.015625,-0.9765625,-0.01953125
1227,-0.00390625,-0.9765625,-0.01953125
1228,-0.0078125,-0.984375,-0.04296875
1229,0.02734375,-0.9765625,-0.0546875
1230,0.0,-0.98046875,-0.0390625
1231,-0.01171875,-0.98046875,-0.04296875
1232,-0.0078125,-0.98046875,-0.02734375
1233,-0.0078125,-0.9765625,-0.03515625
1234,0.01171875,-0.97265625,-0.03515625
1235,0.0,-0.96875,-0.0234375
1236,-0.00390625,-0.9609375,-0.03125
1237,0.01171875,-0.96484375,-0.0234375
1238,0.01171875,-0.95703125,-0.01953125
1239,0.0078125,-0.95703125,-0.02734375
1240,0.01171875,-0.96484375,-0.0390625
1241,0.0078125,-0.9609375,-0.03125
1242,0.0078125,-0.96484375,-0.015625
1243,0.01953125,-0.96875,-0.0234375
1244,0.01953125,-0.95703125,-0.015625
1245,0.0078125,-0.953125,-0.02734375
1246,0.0078125,-0.9609375,-0.03125
1247,0.01171875,-0.96484375,-0.02734375
1248,0.00390625,-0.9453125,-0.00390625
1249,0.01171875,-0.95703125,-0.015625
1250,0.0078125,-0.94921875,-0.01171875
1251,0.03125,-0.953125,-0.03515625
1252,0.00390625,-0.94921875,-0.01171875
1253,0.0234375,-0.96484375,-0.0234375
1254,-0.0078125,-0.9609375,-0.0234375
1255,0.0078125,-0.96875,-0.03515625
1256,-0.0078125,-0.96484375,-0.03125
1257,0.0,-0.96875,-0.0390625
1258,0.0,-0.95703125,-0.01171875
1259,0.0,-0.96875,-0.02734375
1260,-0.0078125,-0.96875,-0.015625
1261,-0.01171875,-0.95703125,-0.03515625
1262,-0.01171875,-0.9609375,-0.02734375
1263,-0.01171875,-0.95703125,-0.0234375
1264,-0.00390625,-0.97265625,-0.01953125
1265,-0.01171875,-0.97265625,-0.01953125
1266,-0.01171875,-0.9609375,-0.015625
1267,-0.00390625,-0.9765625,-0.02734375
1268,-0.0078125,-0.9609375,0.0
1269,-0.00390625,-0.98046875,-0.01953125
1270,-0.00390625,-0.96875,0.00390625
1271,0.00390625,-0.97265625,-0.0078125
1272,-0.01953125,-0.97265625,0.0
1273,-0.03125,-0.9765625,-0.02734375
1274,-0.01953125,-0.9765625,-0.00390625
1275,-0.0078125,-0.97265625,-0.01171875
1276,-0.01171875,-0.96484375,-0.0078125
1277,0.0,-0.97265625,-0.00390625
1278,0.0,-0.98828125,0.0
1279,-0.0078125,-0.98046875,-0.01171875
1280,-0.00390625,-0.97265625,0.0
1281,-0.02734375,-0.9765625,-0.01953125
1282,-0.01953125,-0.96875,0.0
1283,-0.0234375,-0.96875,0.0078125
1284,-0.03515625,-0.96484375,0.03515625
1285,-0.03515625,-0.97265625,0.0078125
1286,-0.0234375,-0.95703125,0.0
1287,-0.02734375,-0.95703125,-0.015625
1288,-0.03515625,-0.953125,-0.0078125
1289,-0.03515625,-0.95703125,0.0078125
1290,-0.03125,-0.953125,-0.00390625
1291,-0.03515625,-0.95703125,-0.01171875
1292,-0.01171875,-0.94140625,-0.03125
1293,-0.01953125,-0.9609375,-0.00390625
1294,-0.015625,-0.9453125,-0.01171875
1295,-0.00390625,-0.953125,0.0078125
1296,-0.0078125,-0.953125,0.0078125
1297,0.0078125,-0.953125,0.0
1298,-0.00390625,-0.953125,0.0
1299,-0.00390625,-0.95703125,0.01171875
1300,0.0,-0.95703125,-0.00390625
1301,-0.00390625,-0.96484375,0.0
1302,0.0,-0.9765625,-0.015625
1303,0.0,-0.96484375,0.0234375
1304,-0.0078125,-0.96875,-0.01953125
1305,0.00390625,-0.9609375,-0.01171875
1306,0.03125,-0.98046875,-0.0390625
1307,-0.0078125,-0.95703125,-0.01171875
1308,-0.00390625,-0.953125,-0.0234375
1309,-0.00390625,-0.95703125,-0.00390625
1310,0.0,-0.96484375,-0.01953125
1311,0.0,-0.96484375,0.0
1312,-0.0078125,-0.9609375,-0.00390625
1313,0.0078125,-0.953125,0.0078125
1314,0.0078125,-0.96484375,0.0078125
1315,0.01171875,-0.96484375,0.01171875
1316,-0.0078125,-0.96875,0.0
1317,0.01171875,-0.9765625,-0.015625
1318,0.01171875,-0.96875,0.0
1319,0.015625,-0.9765625,0.01171875
1320,0.0078125,-0.96484375,0.00390625
1321,0.0,-0.9609375,-0.015625
1322,0.00390625,-0.95703125,0.00390625
1323,0.01953125,-0.9609375,-0.0078125
1324,-0.0078125,-0.94921875,-0.01953125
1325,0.0,-0.9609375,-0.01953125
1326,0.00390625,-0.96484375,-0.01171875
1327,0.0078125,-0.97265625,0.0078125
1328,0.0078125,-0.96484375,0.0
1329,0.00390625,-0.96484375,0.00390625
1330,0.0078125,-0.96875,-0.0078125
1331,0.0078125,-0.95703125,0.0
1332,-0.0078125,-0.9609375,-0.015625
1333,-0.0078125,-0.9609375,-0.00390625
1334,0.00390625,-0.9765625,-0.00390625
1335,0.0078125,-0.96484375,-0.015625
1336,0.0,-0.9609375,-0.01953125
1337,0.00390625,-0.98046875,-0.01171875
1338,0.00390625,-0.97265625,0.0
1339,0.01171875,-0.97265625,-0.0078125
1340,-0.00390625,-0.96484375,-0.00390625
1341,0.00390625,-0.97265625,-0.00390625
1342,0.0078125,-0.96484375,0.0078125
1343,0.0078125,-0.96484375,-0.0078125
1344,0.01953125,-0.96875,0.0
1345,0.015625,-0.96484375,0.0078125
1346,0.0078125,-0.96484375,0.0078125
1347,0.01171875,-0.9765625,-0.0078125
1348,-0.0078125,-0.97265625,-0.015625
1349,0.01171875,-0.9765625,0.03125
1350,0.0078125,-0.97265625,0.00390625
1351,0.01171875,-0.96875,-0.0078125
1352,0.01171875,-0.96484375,0.00390625
1353,0.0078125,-0.96875,0.0
1354,0.015625,-0.97265625,-0.0078125
1355,0.015625,-0.96484375,0.00390625
1356,0.0078125,-0.9765625,0.01171875
1357,0.01171875,-0.9765625,-0.00390625
1358,0.015625,-0.98046875,-0.0078125
1359,0.00390625,-0.96484375,0.0078125
1360,0.015625,-0.96484375,0.00390625
1361,0.0,-0.953125,-0.00390625
1362,0.00390625,-0.96484375,0.00390625
1363,0.00390625,-0.96875,0.00390625
1364,0.01171875,-0.9609375,-0.00390625
1365,0.00390625,-0.96484375,-0.015625
1366,-0.00390625,-0.953125,-0.01171875
1367,0.0,-0.96484375,0.01171875
1368,0.01171875,-0.9609375,0.00390625
1369,0.00390625,-0.96484375,0.01953125
1370,0.0,-0.96875,-0.00390625
1371,0.0078125,-0.9765625,-0.01171875
1372,0.0078125,-0.96484375,0.01953125
1373,-0.0078125,-0.9609375,0.015625
1374,0.00390625,-0.9609375,0.015625
1375,-0.00390625,-0.97265625,0.0
1376,0.0078125,-0.97265625,0.02734375
1377,-0.00390625,-0.9609375,0.015625
1378,-0.01171875,-0.953125,0.01171875
1379,0.0,-0.96484375,0.01953125
1380,0.00390625,-0.95703125,0.01171875
1381,0.0078125,-0.95703125,0.0234375
1382,0.0,-0.9609375,0.015625
1383,0.00390625,-0.96484375,0.0078125
1384,0.0,-0.96484375,0.0078125
1385,0.015625,-0.96484375,0.0
1386,0.0,-0.9609375,0.0234375
1387,-0.00390625,-0.9609375,0.01953125
1388,-0.00390625,-0.96875,0.0
1389,-0.00390625,-0.97265625,0.00390625
1390,0.0078125,-0.96875,0.0078125
1391,0.0,-0.96484375,-0.00390625
1392,-0.00390625,-0.953125,-0.015625
1393,0.0,-0.9609375,0.01953125
1394,0.00390625,-0.96875,0.00390625
1395,-0.00390625,-0.9609375,0.00390625
1396,0.00390625,-0.9609375,0.02734375
1397,-0.00390625,-0.95703125,0.0
1398,0.00390625,-0.9609375,0.01953125
1399,0.0,-0.96484375,0.01171875
1400,0.0,-0.96484375,0.01953125
1401,0.00390625,-0.96875,0.02734375
1402,0.0078125,-0.96875,0.01953125
1403,-0.00390625,-0.94921875,0.02734375
1404,0.01171875,-0.98046875,0.0078125
1405,0.00390625,-0.9765625,0.0234375
1406,-0.0078125,-0.9765625,0.0234375
1407,-0.00390625,-0.96875,0.015625
1408,0.00390625,-0.9765625,0.01953125
1409,0.0,-0.96875,0.03125
1410,-0.00390625,-0.96875,0.0078125
1411,0.00390625,-0.96875,0.02734375
1412,-0.00390625,-0.96875,0.00390625
1413,-0.00390625,-0.95703125,0.01171875
1414,-0.0078125,-0.953125,0.01953125
1415,-0.0078125,-0.9609375,-0.00390625
1416,-0.01171875,-0.96875,0.0234375
1417,0.0,-0.95703125,0.02734375
1418,-0.0078125,-0.96484375,0.03515625
1419,-0.01171875,-0.96875,0.01953125
1420,-0.0078125,-0.95703125,0.0234375
1421,-0.0078125,-0.95703125,0.02734375
1422,-0.01171875,-0.97265625,0.01171875
1423,-0.015625,-0.9609375,-0.00390625
1424,-0.01953125,-0.96484375,0.03515625
1425,-0.0078125,-0.96484375,0.0234375
1426,-0.01171875,-0.9765625,0.015625
1427,-0.01171875,-0.9609375,0.0234375
1428,-0.01171875,-0.96875,0.02734375
1429,-0.00390625,-0.96875,0.01953125
1430,-0.00390625,-0.97265625,0.0390625
1431,0.0,-0.9609375,0.01171875
1432,-0.01171875,-0.96484375,0.03125
1433,0.0,-0.9609375,0.03125
1434,-0.015625,-0.96484375,0.01953125
1435,-0.00390625,-0.96484375,0.0234375
1436,0.0078125,-0.953125,0.03515625
1437,-0.00390625,-0.96875,0.01171875
1438,0.01171875,-0.96484375,0.03515625
1439,0.0,-0.9609375,0.01953125
1440,0.0078125,-0.97265625,0.03125
1441,0.0078125,-0.9609375,0.01171875
1442,0.01171875,-0.9609375,0.02734375
1443,0.0078125,-0.95703125,0.01171875
1444,0.00390625,-0.9609375,0.015625
1445,0.0,-0.96875,0.02734375
1446,-0.0078125,-0.9609375,0.00390625
1447,0.0078125,-0.96875,0.03125
1448,-0.0078125,-0.9609375,0.01171875
1449,0.00390625,-0.96875,0.02734375
1450,-0.00390625,-0.9609375,0.03515625
1451,-0.00390625,-0.953125,0.03125
1452,0.0,-0.95703125,0.01953125
1453,-0.00390625,-0.96484375,0.0234375
1454,-0.00390625,-0.9609375,0.03125
1455,-0.0078125,-0.95703125,0.04296875
1456,-0.01171875,-0.9609375,0.01171875
1457,0.00390625,-0.96484375,0.03515625
1458,-0.03125,-0.9609375,0.03515625
1459,-0.00390625,-0.95703125,0.02734375
1460,0.0,-0.9609375,0.03125
1461,-0.00390625,-0.94921875,0.01953125
1462,-0.0078125,-0.953125,0.0078125
1463,0.01171875,-0.95703125,0.0078125
1464,-0.00390625,-0.95703125,0.015625
1465,0.00390625,-0.95703125,0.02734375
1466,0.0,-0.9609375,0.03125
1467,-0.00390625,-0.953125,0.01171875
1468,-0.01953125,-0.953125,0.01953125
1469,0.01171875,-0.984375,0.015625
1470,-0.01171875,-0.96484375,0.01953125
1471,0.0,-0.9609375,0.015625
1472,0.0078125,-0.9765625,0.0234375
1473,-0.00390625,-0.96484375,0.01953125
1474,0.0078125,-0.9765625,0.015625
1475,0.00390625,-0.97265625,0.0234375
1476,-0.00390625,-0.96875,0.0
1477,0.0,-0.9609375,0.02734375
1478,-0.0078125,-0.9609375,0.0078125
1479,0.00390625,-0.94921875,0.00390625
1480,0.00390625,-0.9453125,-0.00390625
1481,0.0078125,-0.9609375,0.02734375
1482,0.01171875,-0.96484375,0.00390625
1483,-0.0078125,-0.9609375,0.01171875
1484,-0.00390625,-0.96484375,0.00390625
1485,-0.0078125,-0.96875,0.02734375
1486,-0.00390625,-0.9609375,0.03515625
1487,-0.0078125,-0.97265625,0.01171875
1488,-0.01171875,-0.9609375,0.0
1489,-0.00390625,-0.9609375,0.015625
1490,-0.00390625,-0.97265625,0.01171875
1491,0.01171875,-0.96484375,0.0
1492,0.0078125,-0.9609375,0.0078125
1493,-0.01171875,-0.95703125,0.01953125
1494,-0.0078125,-0.9609375,0.01171875
1495,-0.00390625,-0.95703125,0.02734375
1496,-0.01171875,-0.9609375,0.0078125
1497,0.0,-0.95703125,0.01953125
1498,0.0,-0.9609375,0.01953125
1499,-0.00390625,-0.9609375,0.015625
1500,-0.015625,-0.96875,0.0078125
1501,-0.01171875,-0.95703125,0.0390625
1502,-0.00390625,-0.95703125,0.03515625
1503,-0.0078125,-0.953125,0.01171875
1504,0.00390625,-0.95703125,0.0234375
1505,0.0,-0.9609375,0.01953125
1506,0.0,-0.96875,0.01171875
1507,-0.00390625,-0.95703125,0.015625
1508,-0.01171875,-0.95703125,0.0078125
1509,0.00390625,-0.9609375,0.01171875
1510,-0.00390625,-0.96484375,0.04296875
1511,-0.01171875,-0.96484375,0.03125
1512,-0.00390625,-0.96484375,0.03125
1513,0.00390625,-0.984375,0.03515625
1514,0.0,-0.9609375,0.01953125
1515,-0.0078125,-0.95703125,0.0
1516,-0.015625,-0.95703125,0.04296875
1517,-0.00390625,-0.953125,0.015625
1518,0.0,-0.97265625,0.02734375
1519,-0.0078125,-0.9609375,0.01953125
1520,-0.015625,-0.96484375,0.03515625
1521,-0.00390625,-0.95703125,0.02734375
1522,-0.00390625,-0.96484375,0.0390625
1523,0.0,-0.94921875,0.01953125
1524,0.0078125,-0.96484375,-0.00390625
1525,-0.0078125,-0.9609375,0.0234375
1526,-0.00390625,-0.9609375,0.01953125
1527,0.00390625,-0.9609375,0.0234375
1528,0.0,-0.9609375,0.015625
1529,0.0,-0.95703125,0.0234375
1530,-0.00390625,-0.96484375,-0.00390625
1531,0.0078125,-0.96484375,0.01953125
1532,0.0,-0.9609375,0.01171875
1533,-0.00390625,-0.97265625,0.0390625
1534,0.01171875,-0.9609375,0.0234375
1535,-0.0078125,-0.9765625,0.015625
1536,-0.01171875,-0.96484375,0.0390625
1537,-0.01171875,-0.96875,0.015625
1538,-0.00390625,-0.96484375,0.01953125
1539,-0.01171875,-0.97265625,0.01171875
1540,-0.015625,-0.97265625,0.03515625
1541,0.01171875,-0.96484375,0.02734375
1542,-0.0078125,-0.95703125,0.01171875
1543,-0.0234375,-0.95703125,0.02734375
1544,-0.01171875,-0.96875,0.01171875
1545,-0.015625,-0.96484375,0.0234375
1546,-0.0078125,-0.96484375,0.0078125
1547,0.00390625,-0.9765625,0.01171875
1548,-0.00390625,-0.9609375,0.04296875
1549,-0.0078125,-0.95703125,0.01953125
1550,0.0,-0.95703125,0.01171875
1551,-0.01171875,-0.95703125,0.01953125
1552,0.0078125,-0.953125,-0.0078125
1553,-0.0078125,-0.9609375,0.01953125
1554,-0.01171875,-0.953125,0.01171875
1555,-0.00390625,-0.97265625,0.015625
1556,-0.01953125,-0.96484375,0.03515625
1557,-0.0078125,-0.96484375,0.02734375
1558,-0.015625,-0.9609375,0.0234375
1559,0.01171875,-0.9765625,0.0390625
1560,-0.00390625,-0.96484375,0.015625
1561,-0.0078125,-0.96484375,0.0234375
1562,-0.0078125,-0.96875,0.0234375
1563,-0.015625,-0.96484375,0.03515625
1564,-0.0078125,-0.95703125,0.01953125
1565,-0.0078125,-0.96875,0.01171875
1566,0.0078125,-0.96875,0.03515625
1567,-0.01171875,-0.9609375,0.0234375
1568,-0.01171875,-0.96875,0.01171875
1569,-0.00390625,-0.96875,0.02734375
1570,0.0,-0.9609375,0.015625
1571,-0.01171875,-0.953125,0.01171875
1572,-0.0078125,-0.9609375,0.0078125
1573,0.00390625,-0.9609375,0.015625
1574,-0.0078125,-0.95703125,0.0234375
1575,0.0,-0.9609375,0.02734375
1576,0.0,-0.9609375,0.0078125
1577,-0.0078125,-0.94921875,0.03125
1578,0.0,-0.96875,0.01171875
1579,-0.0078125,-0.953125,0.02734375
1580,-0.00390625,-0.95703125,0.0234375
1581,-0.015625,-0.95703125,0.01953125
1582,-0.01171875,-0.95703125,0.03515625
1583,-0.01171875,-0.953125,0.01953125
1584,0.00390625,-0.95703125,0.01171875
1585,0.0078125,-0.95703125,0.015625
1586,-0.01171875,-0.96484375,0.02734375
1587,-0.00390625,-0.95703125,0.01953125
1588,-0.00390625,-0.96484375,0.02734375
1589,-0.015625,-0.953125,0.01953125
1590,-0.01171875,-0.95703125,0.015625
1591,0.0,-0.9609375,0.0234375
1592,-0.01171875,-0.96484375,0.015625
1593,-0.0078125,-0.9765625,0.0234375
1594,-0.00390625,-0.96875,0.0
1595,0.0,-0.96875,0.01953125
1596,-0.00390625,-0.96875,0.0
1597,-0.00390625,-0.953125,0.01953125
1598,-0.01953125,-0.96875,0.015625
1599,-0.02734375,-0.9609375,0.01953125
1600,0.01171875,-0.96875,0.01953125
1601,-0.01171875,-0.95703125,0.015625
1602,-0.01171875,-0.96484375,0.0234375
1603,-0.0078125,-0.9609375,0.01171875
1604,-0.015625,-0.95703125,0.04296875
1605,0.0,-0.96484375,0.02734375
1606,-0.0078125,-0.96484375,0.01953125
1607,-0.0078125,-0.95703125,0.01953125
1608,-0.00390625,-0.96875,0.01953125
1609,-0.015625,-0.96484375,0.0234375
1610,-0.01953125,-0.9609375,0.0078125
1611,0.00390625,-0.96875,0.015625
1612,-0.00390625,-0.96875,0.03125
1613,-0.015625,-0.96484375,0.015625
1614,-0.01171875,-0.97265625,0.015625
1615,-0.0078125,-0.96875,0.04296875
1616,-0.0078125,-0.9609375,0.02734375
1617,-0.0078125,-0.97265625,0.01953125
1618,0.0078125,-0.95703125,0.015625
1619,-0.01171875,-0.95703125,0.01953125
1620,0.0078125,-0.9609375,0.0234375
1621,-0.00390625,-0.96875,0.01171875
1622,-0.00390625,-0.95703125,0.0078125
1623,-0.01171875,-0.96875,0.015625
1624,-0.01171875,-0.96484375,0.0
1625,0.0,-0.9765625,0.015625
1626,-0.0078125,-0.97265625,0.01171875
1627,-0.01171875,-0.96484375,0.00390625
1628,0.00390625,-0.9765625,0.01953125
1629,0.00390625,-0.984375,0.015625
1630,-0.0078125,-0.96484375,0.03125
1631,0.00390625,-0.95703125,0.02734375
1632,-0.0078125,-0.96875,-0.00390625
1633,0.0,-0.96875,0.015625
1634,-0.00390625,-0.96484375,0.0234375
1635,-0.015625,-0.97265625,0.01171875
1636,-0.01171875,-0.97265625,0.02734375
1637,0.00390625,-0.97265625,0.01953125
1638,0.01171875,-0.9765625,0.02734375
1639,-0.0078125,-0.97265625,0.0078125
1640,-0.0078125,-0.97265625,0.02734375
1641,-0.015625,-0.9609375,0.0078125
1642,0.0,-0.953125,0.03125
1643,-0.0078125,-0.96484375,0.01953125
1644,0.0,-0.95703125,0.015625
1645,0.0,-0.96484375,0.015625
1646,-0.00390625,-0.953125,0.0234375
1647,0.0,-0.95703125,0.0078125
1648,0.01171875,-0.96484375,0.01171875
1649,-0.00390625,-0.96484375,0.01171875
1650,0.0078125,-0.9609375,0.01171875
1651,-0.00390625,-0.9453125,0.0234375
1652,0.0,-0.96875,0.01171875
1653,0.00390625,-0.96484375,0.03515625
1654,-0.0078125,-0.95703125,0.05859375
1655,-0.0078125,-0.95703125,0.03125
1656,-0.0078125,-0.95703125,0.015625
1657,-0.00390625,-0.9609375,0.03515625
1658,0.0078125,-0.96875,0.0234375
1659,0.01171875,-0.96484375,0.03125
1660,0.00390625,-0.95703125,0.0234375
1661,0.015625,-0.96484375,0.01953125
1662,0.01171875,-0.97265625,0.03125
1663,0.01171875,-0.97265625,0.01171875
1664,0.01953125,-0.96875,0.01171875
1665,0.01171875,-0.9765625,0.01953125
1666,0.0078125,-0.95703125,0.015625
1667,0.01171875,-0.96484375,0.01171875
1668,-0.00390625,-0.9609375,0.0234375
1669,0.00390625,-0.9609375,0.01953125
1670,-0.00390625,-0.9609375,0.015625
1671,0.01171875,-0.97265625,0.01171875
1672,0.0078125,-0.9609375,0.0390625
1673,0.015625,-0.97265625,0.0078125
1674,-0.0078125,-0.95703125,0.01953125
1675,0.0,-0.96875,0.0078125
1676,-0.01171875,-0.97265625,0.00390625
1677,0.0,-0.95703125,0.0234375
1678,0.0078125,-0.95703125,0.015625
1679,0.00390625,-0.96875,0.03515625
1680,0.0,-0.96875,0.015625
1681,-0.0078125,-0.9609375,0.02734375
1682,-0.00390625,-0.9609375,0.03125
1683,0.00390625,-0.9609375,0.01953125
1684,-0.0078125,-0.953125,0.01953125
1685,0.00390625,-0.96484375,0.00390625
1686,-0.01171875,-0.95703125,0.02734375
1687,0.01171875,-0.9375,-0.0078125
1688,0.0,-0.96484375,0.01171875
1689,0.0,-0.9609375,0.00390625
1690,0.0078125,-0.9609375,0.01953125
1691,-0.0078125,-0.953125,0.03125
1692,-0.00390625,-0.953125,0.02734375
1693,0.01171875,-0.96484375,0.01953125
1694,0.0078125,-0.96484375,0.01171875
1695,-0.00390625,-0.96484375,0.03515625
1696,0.01171875,-0.94921875,0.0234375
1697,0.0,-0.95703125,0.01171875
1698,-0.01171875,-0.96875,0.0390625
1699,-0.0078125,-0.9609375,0.015625
1700,0.00390625,-0.9609375,0.03515625
1701,-0.00390625,-0.96484375,0.02734375
1702,0.00390625,-0.96875,0.03125
1703,0.0078125,-0.96484375,0.0234375
1704,-0.00390625,-0.9609375,0.0078125
1705,0.00390625,-0.98046875,0.0234375
1706,0.0,-0.9609375,0.0234375
1707,0.0,-0.95703125,0.015625
1708,-0.00390625,-0.95703125,0.01171875
1709,-0.00390625,-0.984375,0.046875
1710,-0.015625,-0.96875,0.03125
1711,-0.01171875,-0.96875,0.0390625
1712,-0.01171875,-0.96484375,0.0234375
1713,-0.00390625,-0.96484375,0.03125
1714,-0.00390625,-0.9609375,0.015625
1715,0.0,-0.96484375,0.0234375
1716,-0.0078125,-0.953125,0.03125
1717,-0.00390625,-0.97265625,0.0
1718,-0.01171875,-0.95703125,0.02734375
1719,-0.01171875,-0.9609375,0.015625
1720,-0.0390625,-0.98046875,0.01953125
1721,0.00390625,-0.96875,0.046875
1722,-0.00390625,-0.9609375,0.02734375
1723,-0.0078125,-0.9609375,0.02734375
1724,0.00390625,-0.96484375,0.03515625
1725,0.00390625,-0.96484375,0.0390625
1726,0.0078125,-0.96484375,0.03515625
1727,0.0,-0.953125,0.03125
1728,0.0,-0.96484375,0.01171875
1729,-0.00390625,-0.95703125,0.015625
1730,-0.00390625,-0.95703125,0.02734375
1731,0.0,-0.953125,0.01953125
1732,-0.01171875,-0.953125,0.01953125
1733,-0.0078125,-0.94921875,0.01171875
1734,0.00390625,-0.953125,0.015625
1735,0.0,-0.953125,0.0078125
1736,-0.00390625,-0.953125,0.015625
1737,0.01171875,-0.9609375,-0.00390625
1738,0.00390625,-0.9765625,0.00390625
1739,-0.00390625,-0.9765625,0.0
1740,0.0,-0.96875,0.01171875
1741,-0.00390625,-0.98046875,-0.01171875
1742,-0.01171875,-0.9921875,0.01953125
1743,0.0,-0.99609375,0.01171875
1744,0.0,-0.98828125,0.0
1745,-0.0078125,-0.9921875,0.00390625
1746,-0.00390625,-0.984375,-0.00390625
1747,-0.00390625,-0.98046875,0.00390625
1748,0.0,-0.9921875,-0.00390625
1749,0.00390625,-0.96875,0.01953125
1750,-0.00390625,-0.98046875,0.00390625
1751,0.015625,-0.98828125,0.00390625
1752,0.00390625,-0.984375,-0.03125
1753,-0.0078125,-1.0,0.0078125
1754,-0.00390625,-0.984375,0.0
1755,-0.00390625,-0.9921875,-0.01171875
1756,0.0,-0.9921875,-0.00390625
1757,0.0078125,-0.98046875,-0.01953125
1758,-0.00390625,-0.96875,-0.01171875
1759,-0.0078125,-0.97265625,-0.01171875
1760,-0.015625,-0.96484375,-0.00390625
1761,-0.00390625,-0.9765625,-0.01953125
1762,0.0078125,-0.98046875,-0.015625
1763,0.01953125,-0.98828125,-0.0234375
1764,0.0078125,-0.97265625,-0.01953125
1765,0.0,-0.97265625,-0.0078125
1766,0.01171875,-0.96875,0.0078125
1767,0.0078125,-0.96484375,0.0
1768,-0.0078125,-0.96484375,0.0078125
1769,-0.00390625,-0.96484375,0.00390625
1770,0.0078125,-0.97265625,0.00390625
1771,0.0078125,-0.98046875,0.02734375
1772,-0.015625,-0.96484375,0.015625
1773,0.00390625,-0.97265625,0.01953125
1774,0.015625,-0.9609375,-0.00390625
1775,0.0078125,-0.96484375,0.01953125
1776,0.01171875,-0.96875,0.015625
1777,0.0078125,-0.9609375,0.015625
1778,0.0,-0.96484375,0.01953125
1779,0.0078125,-0.9765625,0.0078125
1780,0.01171875,-0.9765625,0.01953125
1781,0.015625,-0.96484375,0.015625
1782,0.00390625,-0.9765625,0.0234375
1783,0.0,-0.98046875,0.0234375
1784,-0.0078125,-0.99609375,0.015625
1785,-0.01171875,-1.01953125,0.05078125
1786,-0.00390625,-0.98828125,0.03125
1787,-0.01171875,-0.99609375,0.046875
1788,-0.01953125,-0.9921875,0.04296875
1789,-0.015625,-0.98828125,0.03125
1790,-0.03125,-0.984375,0.02734375
1791,-0.0234375,-0.96875,0.02734375
1792,-0.0234375,-0.96875,0.02734375
1793,-0.02734375,-0.97265625,0.046875
1794,-0.03125,-0.95703125,0.03515625
1795,-0.04296875,-0.953125,0.05078125
1796,-0.03125,-0.953125,0.0390625
1797,-0.03125,-0.953125,0.04296875
1798,-0.02734375,-0.95703125,0.03515625
1799,-0.0234375,-0.94921875,0.05078125
1800,-0.01953125,-0.9453125,0.046875
1801,-0.01953125,-0.953125,0.046875
1802,-0.01171875,-0.953125,0.0703125
1803,-0.00390625,-0.9375,0.0625
1804,-0.015625,-0.9453125,0.05859375
1805,-0.01171875,-0.95703125,0.0703125
1806,-0.0078125,-0.94921875,0.05859375
1807,-0.02734375,-0.94140625,0.11328125
1808,-0.01171875,-0.953125,0.078125
1809,-0.0078125,-0.9609375,0.08984375
1810,-0.01171875,-0.953125,0.0703125
1811,-0.0078125,-0.9453125,0.09375
1812,-0.0078125,-0.9453125,0.08203125
1813,-0.00390625,-0.94140625,0.0859375
1814,-0.0078125,-0.93359375,0.07421875
1815,-0.01953125,-0.9140625,0.078125
1816,-0.0078125,-0.921875,0.08984375
1817,-0.01171875,-0.92578125,0.1171875
1818,-0.00390625,-0.91015625,0.0859375
1819,0.00390625,-0.9140625,0.08984375
1820,0.0,-0.91796875,0.109375
1821,0.00390625,-0.9140625,0.1015625
1822,0.01171875,-0.92578125,0.12109375
1823,0.0078125,-0.921875,0.09765625
1824,0.01171875,-0.9296875,0.11328125
1825,0.00390625,-0.921875,0.140625
1826,0.01171875,-0.93359375,0.1171875
1827,0.0078125,-0.9375,0.11328125
1828,0.0234375,-0.9453125,0.14453125
1829,0.01171875,-0.94921875,0.12109375
1830,0.01953125,-0.94921875,0.12890625
1831,0.0234375,-0.94921875,0.109375
1832,0.01953125,-0.94140625,0.1328125
1833,0.0234375,-0.94140625,0.12890625
1834,0.01953125,-0.9296875,0.12890625
1835,0.0234375,-0.92578125,0.15234375
1836,0.01953125,-0.93359375,0.1484375
1837,0.01953125,-0.92578125,0.140625
1838,0.01953125,-0.91796875,0.140625
1839,0.01171875,-0.9375,0.13671875
1840,0.0,-0.92578125,0.16015625
1841,0.01171875,-0.9453125,0.1640625
1842,0.0078125,-0.93359375,0.16015625
1843,0.0078125,-0.93359375,0.1640625
1844,0.0078125,-0.9375,0.16015625
1845,0.015625,-0.9375,0.14453125
1846,0.0078125,-0.9453125,0.140625
1847,0.015625,-0.94140625,0.13671875
1848,0.0234375,-0.9296875,0.13671875
1849,0.0234375,-0.94140625,0.12109375
1850,0.00390625,-0.9453125,0.11328125
1851,0.0078125,-0.94140625,0.15625
1852,0.01171875,-0.94921875,0.13671875
1853,0.015625,-0.94921875,0.1328125
1854,0.01171875,-0.94921875,0.15625
1855,0.02734375,-0.94140625,0.1484375
1856,0.0078125,-0.9296875,0.16015625
1857,0.0234375,-0.9296875,0.1640625
1858,0.01171875,-0.93359375,0.12890625
1859,0.00390625,-0.93359375,0.140625
1860,0.015625,-0.9375,0.140625
1861,0.00390625,-0.94921875,0.14453125
1862,0.0078125,-0.953125,0.1484375
1863,-0.00390625,-0.953125,0.1640625
1864,0.0078125,-0.9453125,0.15625
1865,0.015625,-0.94921875,0.15625
1866,0.01171875,-0.94921875,0.15625
1867,0.01953125,-0.9375,0.1640625
1868,0.015625,-0.94140625,0.15234375
1869,0.0078125,-0.93359375,0.16015625
1870,0.00390625,-0.94140625,0.15625
1871,-0.00390625,-0.9296875,0.16015625
1872,0.015625,-0.91796875,0.11328125
1873,0.0,-0.91796875,0.1484375
1874,0.0,-0.921875,0.16015625
1875,0.0078125,-0.9296875,0.1640625
1876,0.0078125,-0.921875,0.16796875
1877,0.0078125,-0.921875,0.1796875
1878,0.015625,-0.9296875,0.140625
1879,0.0078125,-0.9296875,0.15234375
1880,0.00390625,-0.9296875,0.16015625
1881,0.015625,-0.9375,0.15625
1882,0.02734375,-0.94140625,0.140625
1883,-0.0078125,-0.9765625,0.1484375
1884,0.01171875,-0.9453125,0.15625
1885,0.01171875,-0.94140625,0.15625
1886,0.0078125,-0.94140625,0.16015625
1887,0.00390625,-0.94921875,0.1484375
1888,0.01171875,-0.9453125,0.1484375
1889,0.0078125,-0.93359375,0.15625
1890,0.0078125,-0.93359375,0.16015625
1891,0.015625,-0.94140625,0.171875
1892,0.015625,-0.9375,0.15234375
1893,0.0078125,-0.94140625,0.140625
1894,-0.01171875,-0.9375,0.1484375
1895,0.0078125,-0.94140625,0.16015625
1896,0.0078125,-0.9375,0.140625
1897,0.0078125,-0.9375,0.140625
1898,0.00390625,-0.94140625,0.15234375
1899,0.0078125,-0.92578125,0.16015625
1900,0.0078125,-0.93359375,0.15234375
1901,0.01171875,-0.9296875,0.15625
1902,0.00390625,-0.9375,0.15625
1903,0.0,-0.9375,0.1484375
1904,0.0078125,-0.9375,0.15234375
1905,0.01953125,-0.96484375,0.13671875
1906,0.0,-0.93359375,0.16015625
1907,0.01171875,-0.9375,0.15625
1908,0.01953125,-0.9453125,0.1484375
1909,0.01953125,-0.94140625,0.140625
1910,0.01171875,-0.9296875,0.14453125
1911,0.0078125,-0.9453125,0.15625
1912,0.00390625,-0.94140625,0.12109375
1913,0.0078125,-0.94140625,0.16796875
1914,0.0,-0.93359375,0.140625
1915,0.0078125,-0.94140625,0.14453125
1916,-0.03125,-0.92578125,0.1640625
1917,0.0,-0.92578125,0.16015625
1918,0.00390625,-0.9296875,0.1484375
1919,0.0,-0.93359375,0.15234375
1920,0.015625,-0.93359375,0.140625
1921,0.015625,-0.9375,0.140625
1922,0.00390625,-0.92578125,0.1484375
1923,0.00390625,-0.9375,0.140625
1924,0.01953125,-0.93359375,0.1640625
1925,0.0078125,-0.9375,0.140625
1926,0.015625,-0.94140625,0.17578125
1927,0.03125,-0.95703125,0.13671875
1928,0.015625,-0.94140625,0.16796875
1929,0.01953125,-0.94140625,0.140625
1930,0.01171875,-0.93359375,0.13671875
1931,0.01171875,-0.9375,0.1640625
1932,0.00390625,-0.9453125,0.15234375
1933,0.00390625,-0.9375,0.14453125
1934,0.015625,-0.94140625,0.16796875
1935,-0.00390625,-0.92578125,0.1484375
1936,0.01953125,-0.9453125,0.140625
1937,0.0078125,-0.9375,0.1640625
1938,0.00390625,-0.94140625,0.1484375
1939,0.00390625,-0.93359375,0.12109375
1940,0.01953125,-0.94921875,0.1484375
1941,0.00390625,-0.93359375,0.140625
1942,0.00390625,-0.94921875,0.140625
1943,0.0078125,-0.9453125,0.14453125
1944,0.015625,-0.953125,0.125
1945,0.00390625,-0.953125,0.1328125
1946,0.0,-0.9375,0.14453125
1947,0.015625,-0.9453125,0.140625
1948,0.0234375,-0.9453125,0.125
1949,-0.01171875,-0.9375,0.14453125
1950,0.0078125,-0.953125,0.140625
1951,0.0,-0.9453125,0.1328125
1952,0.0078125,-0.94140625,0.13671875
1953,0.0,-0.94140625,0.14453125
1954,0.01171875,-0.953125,0.1328125
1955,0.0078125,-0.94921875,0.1328125
1956,0.0,-0.94140625,0.140625
1957,0.01171875,-0.9375,0.14453125
1958,0.00390625,-0.9453125,0.14453125
1959,0.01171875,-0.9453125,0.125
1960,0.0078125,-0.94921875,0.140625
1961,0.0078125,-0.94921875,0.14453125
1962,0.01171875,-0.953125,0.15625
1963,0.0,-0.94140625,0.1328125
1964,0.0078125,-0.9453125,0.125
1965,0.00390625,-0.9375,0.13671875
1966,0.01171875,-0.9375,0.1640625
1967,0.0078125,-0.94140625,0.140625
1968,0.0,-0.9453125,0.1171875
1969,0.0,-0.9375,0.125
1970,0.0,-0.9375,0.140625
1971,0.01171875,-0.9453125,0.13671875
1972,0.01171875,-0.9453125,0.13671875
1973,0.015625,-0.94921875,0.1484375
1974,0.00390625,-0.953125,0.1328125
1975,0.01171875,-0.9453125,0.140625
1976,0.0078125,-0.9453125,0.1328125
1977,0.01953125,-0.94921875,0.1484375
1978,-0.00390625,-0.9375,0.14453125
1979,0.0078125,-0.9453125,0.15625
1980,0.00390625,-0.94140625,0.12109375
1981,0.0,-0.97265625,0.125
1982,0.01953125,-0.9453125,0.140625
1983,0.0,-0.9453125,0.12890625
1984,0.0,-0.9453125,0.125
1985,-0.00390625,-0.9453125,0.13671875
1986,-0.00390625,-0.94921875,0.12890625
1987,0.00390625,-0.9375,0.1328125
1988,0.0,-0.9453125,0.14453125
1989,0.01171875,-0.9453125,0.14453125
1990,-0.00390625,-0.9453125,0.125
1991,0.00390625,-0.94140625,0.125
1992,0.015625,-0.94921875,0.125
1993,0.01171875,-0.9453125,0.1328125
1994,0.0078125,-0.9375,0.1328125
1995,0.015625,-0.94140625,0.13671875
1996,0.00390625,-0.93359375,0.13671875
1997,0.01171875,-0.93359375,0.12890625
1998,0.015625,-0.9375,0.125
1999,0.01953125,-0.93359375,0.13671875
2000,0.01171875,-0.9453125,0.15625
2001,-0.00390625,-0.9453125,0.13671875
2002,0.0,-0.9453125,0.125
2003,-0.0078125,-0.9375,0.1484375
2004,-0.00390625,-0.9453125,0.13671875
2005,0.01171875,-0.94921875,0.13671875
2006,0.0078125,-0.9453125,0.1328125
2007,0.01953125,-0.953125,0.1484375
2008,0.0078125,-0.9453125,0.12109375
2009,0.01171875,-0.9375,0.12890625
2010,-0.00390625,-0.93359375,0.1328125
2011,0.0078125,-0.9453125,0.1328125
2012,0.0234375,-0.9375,0.15234375
2013,0.00390625,-0.94921875,0.11328125
2014,0.01171875,-0.9375,0.1171875
2015,0.00390625,-0.94140625,0.13671875
2016,0.015625,-0.94921875,0.12109375
2017,0.0078125,-0.94140625,0.140625
2018,0.00390625,-0.94140625,0.1328125
2019,0.0,-0.9453125,0.140625
2020,0.01171875,-0.94921875,0.1328125
2021,0.0078125,-0.94140625,0.12109375
2022,0.00390625,-0.9296875,0.15234375
2023,0.0078125,-0.9453125,0.13671875
2024,0.01171875,-0.94140625,0.109375
2025,0.00390625,-0.953125,0.14453125
2026,0.0078125,-0.93359375,0.125
2027,0.00390625,-0.94140625,0.14453125
2028,0.0078125,-0.94921875,0.125
2029,0.01171875,-0.953125,0.13671875
2030,0.0078125,-0.94140625,0.14453125
2031,0.01171875,-0.94921875,0.12109375
2032,0.00390625,-0.9453125,0.12890625
2033,0.01171875,-0.953125,0.14453125
2034,0.00390625,-0.94921875,0.1328125
2035,0.00390625,-0.953125,0.13671875
2036,0.00390625,-0.94921875,0.1484375
2037,0.0078125,-0.953125,0.11328125
2038,0.0078125,-0.94921875,0.1171875
2039,0.0,-0.94921875,0.12890625
2040,-0.00390625,-0.94140625,0.12890625
2041,0.00390625,-0.9453125,0.125
2042,-0.00390625,-0.94921875,0.12890625
2043,0.00390625,-0.94921875,0.1328125
2044,0.00390625,-0.9453125,0.1328125
2045,0.0078125,-0.94140625,0.12109375
2046,0.0,-0.9453125,0.1484375
2047,-0.00390625,-0.9375,0.125
2048,0.0,-0.9375,0.13671875
2049,0.015625,-0.94921875,0.13671875
2050,0.0,-0.94921875,0.12890625
2051,0.00390625,-0.9375,0.14453125
2052,0.0078125,-0.9453125,0.1171875
2053,-0.00390625,-0.94140625,0.125
2054,0.0078125,-0.9453125,0.13671875
2055,-0.0078125,-0.9296875,0.125
2056,-0.00390625,-0.95703125,0.1171875
2057,-0.0078125,-0.9453125,0.12890625
2058,0.0078125,-0.9453125,0.140625
2059,-0.01171875,-0.94140625,0.1328125
2060,0.0078125,-0.9375,0.1171875
2061,-0.00390625,-0.9375,0.1328125
2062,0.00390625,-0.9453125,0.1484375
2063,-0.0078125,-0.93359375,0.12109375
2064,0.00390625,-0.94140625,0.1328125
2065,0.0,-0.94140625,0.1328125
2066,0.00390625,-0.9453125,0.11328125
2067,0.0078125,-0.94921875,0.125
2068,0.0,-0.94921875,0.12890625
2069,0.0,-0.94921875,0.14453125
2070,0.0,-0.953125,0.1484375
2071,-0.00390625,-0.94140625,0.1328125
2072,0.00390625,-0.9453125,0.1484375
2073,0.00390625,-0.953125,0.1484375
2074,0.0,-0.94921875,0.125
2075,0.0078125,-0.9453125,0.1328125
2076,0.00390625,-0.94140625,0.1328125
2077,0.0,-0.94140625,0.12109375
2078,0.015625,-0.9375,0.13671875
2079,0.0078125,-0.953125,0.14453125
2080,0.0,-0.9453125,0.140625
2081,-0.00390625,-0.9375,0.125
2082,0.01171875,-0.94140625,0.13671875
2083,0.0078125,-0.9453125,0.1328125
2084,0.0078125,-0.9375,0.1328125
2085,-0.0078125,-0.9375,0.13671875
2086,0.0,-0.94140625,0.1171875
2087,0.0078125,-0.953125,0.12890625
2088,0.01171875,-0.9453125,0.140625
2089,0.015625,-0.94921875,0.14453125
2090,0.0078125,-0.953125,0.140625
2091,-0.00390625,-0.94140625,0.13671875
2092,0.0,-0.94140625,0.12890625
2093,0.01953125,-0.953125,0.1171875
2094,-0.0078125,-0.9375,0.13671875
2095,0.0,-0.9453125,0.12890625
2096,0.01953125,-0.94921875,0.1484375
2097,0.015625,-0.9375,0.12890625
2098,0.0078125,-0.95703125,0.12890625
2099,-0.0078125,-0.94140625,0.140625
2100,0.0078125,-0.96484375,0.12109375
2101,0.0,-0.9765625,0.171875
2102,0.00390625,-0.94921875,0.12890625
2103,0.0078125,-0.94140625,0.12890625
2104,0.015625,-0.9453125,0.1484375
2105,0.00390625,-0.9375,0.1328125
2106,0.01171875,-0.94140625,0.1171875
2107,0.00390625,-0.94140625,0.140625
2108,0.01171875,-0.9453125,0.125
2109,0.01953125,-0.9453125,0.14453125
2110,-0.01171875,-0.94140625,0.13671875
2111,-0.0234375,-0.94140625,0.12890625
2112,0.0078125,-0.953125,0.14453125
2113,0.01171875,-0.9453125,0.125
2114,0.00390625,-0.94921875,0.125
2115,0.0078125,-0.94921875,0.13671875
2116,0.0078125,-0.9453125,0.13671875
2117,0.01171875,-0.9453125,0.13671875
2118,0.01171875,-0.953125,0.13671875
2119,0.015625,-0.9453125,0.12890625
2120,0.0078125,-0.9296875,0.1328125
2121,-0.00390625,-0.94140625,0.12890625
2122,0.0078125,-0.94140625,0.1484375
2123,-0.00390625,-0.96484375,0.125
2124,0.015625,-0.94921875,0.1328125
2125,0.015625,-0.9453125,0.1328125
2126,0.00390625,-0.953125,0.13671875
2127,0.0,-0.94921875,0.13671875
2128,0.0078125,-0.94140625,0.1328125
2129,0.015625,-0.9453125,0.11328125
2130,0.00390625,-0.94921875,0.13671875
2131,0.01171875,-0.94140625,0.14453125
2132,0.015625,-0.9453125,0.13671875
2133,0.01171875,-0.94921875,0.12890625
2134,0.0078125,-0.94140625,0.1484375
2135,0.0,-0.9375,0.125
2136,0.0,-0.93359375,0.1328125
2137,0.0,-0.953125,0.140625
2138,0.0,-0.94921875,0.1328125
2139,0.0078125,-0.94921875,0.1328125
2140,-0.00390625,-0.9375,0.12890625
2141,0.01171875,-0.9453125,0.125
2142,0.00390625,-0.94921875,0.109375
2143,-0.01171875,-0.94921875,0.14453125
2144,-0.0078125,-0.9375,0.12890625
2145,-0.015625,-0.9375,0.1171875
2146,0.015625,-0.953125,0.11328125
2147,0.0,-0.94921875,0.125
2148,0.00390625,-0.9453125,0.12890625
2149,0.00390625,-0.94921875,0.12890625
2150,0.00390625,-0.94140625,0.14453125
2151,-0.00390625,-0.94921875,0.12109375
2152,-0.00390625,-0.94921875,0.12890625
2153,0.0,-0.9453125,0.13671875
2154,0.0078125,-0.94921875,0.12890625
2155,-0.00390625,-0.9453125,0.1328125
2156,0.0,-0.94921875,0.1171875
2157,0.0078125,-0.9453125,0.12890625
2158,0.01171875,-0.94921875,0.12890625
2159,-0.00390625,-0.94921875,0.12890625
2160,-0.00390625,-0.9453125,0.12890625
2161,0.01953125,-0.953125,0.13671875
2162,0.0078125,-0.95703125,0.1328125
2163,-0.0078125,-0.9375,0.125
2164,-0.0078125,-0.94140625,0.1171875
2165,-0.00390625,-0.92578125,0.125
2166,0.0234375,-0.94140625,0.1484375
2167,0.01171875,-0.9453125,0.1171875
2168,0.0078125,-0.94140625,0.12890625
2169,0.01171875,-0.9453125,0.11328125
2170,-0.00390625,-0.93359375,0.125
2171,-0.00390625,-0.9453125,0.125
2172,0.01171875,-0.94140625,0.13671875
2173,0.00390625,-0.9453125,0.1328125
2174,0.01171875,-0.9453125,0.14453125
2175,-0.0078125,-0.94921875,0.12890625
2176,0.0078125,-0.9453125,0.12109375
2177,0.0,-0.94140625,0.1171875
2178,0.00390625,-0.9453125,0.13671875
2179,0.01171875,-0.953125,0.12890625
2180,0.00390625,-0.94921875,0.12109375
2181,0.0,-0.953125,0.12890625
2182,0.0078125,-0.9453125,0.140625
2183,0.00390625,-0.9453125,0.125
2184,0.015625,-0.9453125,0.140625
2185,0.00390625,-0.94921875,0.1328125
2186,0.01171875,-0.94921875,0.125
2187,0.0078125,-0.94921875,0.1328125
2188,0.0234375,-0.9453125,0.140625
2189,0.0078125,-0.94140625,0.1484375
2190,0.0078125,-0.9453125,0.1328125
2191,0.01171875,-0.94140625,0.125
2192,0.0078125,-0.94140625,0.13671875
2193,0.01171875,-0.94921875,0.125
2194,-0.00390625,-0.9375,0.12890625
2195,0.0,-0.9375,0.1328125
2196,0.01953125,-0.953125,0.12109375
2197,0.0,-0.94140625,0.125
2198,-0.01171875,-0.9453125,0.12890625
2199,0.01953125,-0.9453125,0.12890625
2200,0.0078125,-0.94140625,0.12890625
2201,0.0078125,-0.9453125,0.13671875
2202,0.0,-0.94921875,0.140625
2203,0.00390625,-0.9453125,0.12890625
2204,0.01171875,-0.94140625,0.125
2205,0.0,-0.9453125,0.12109375
2206,0.0,-0.94921875,0.11328125
2207,0.0,-0.953125,0.15234375
2208,0.0,-0.94921875,0.14453125
2209,0.01953125,-0.94140625,0.1328125
2210,0.0,-0.94140625,0.1171875
2211,0.0,-0.953125,0.1171875
2212,0.00390625,-0.94921875,0.12109375
2213,0.0078125,-0.94921875,0.1171875
2214,0.00390625,-0.94921875,0.1328125
2215,0.0078125,-0.93359375,0.1328125
2216,0.0078125,-0.9453125,0.13671875
2217,0.02734375,-0.94140625,0.140625
2218,0.0078125,-0.93359375,0.1171875
2219,0.0078125,-0.92578125,0.12109375
2220,0.01171875,-0.93359375,0.1328125
2221,0.0,-0.9296875,0.12890625
2222,0.0,-0.9375,0.125
2223,0.0078125,-0.94140625,0.1328125
2224,0.0078125,-0.94921875,0.12109375
2225,0.015625,-0.94921875,0.12890625
2226,-0.00390625,-0.9453125,0.13671875
2227,-0.00390625,-0.9375,0.125
2228,0.015625,-0.953125,0.15234375
2229,0.0,-0.94921875,0.125
2230,0.01171875,-0.94921875,0.1484375
2231,0.0,-0.94140625,0.11328125
2232,0.00390625,-0.94921875,0.14453125
2233,0.01171875,-0.953125,0.1328125
2234,0.01953125,-0.94921875,0.14453125
2235,0.0078125,-0.9453125,0.12109375
2236,0.01171875,-0.94140625,0.1171875
2237,0.015625,-0.9453125,0.125
2238,0.015625,-0.9453125,0.1171875
2239,0.015625,-0.94921875,0.12109375
2240,0.0078125,-0.94140625,0.125
2241,0.0078125,-0.94921875,0.1328125
2242,0.01171875,-0.9453125,0.140625
2243,0.0,-0.94921875,0.1328125
2244,0.00390625,-0.9453125,0.12890625
2245,0.00390625,-0.9453125,0.12890625
2246,0.00390625,-0.953125,0.12890625
2247,0.00390625,-0.94921875,0.125
2248,-0.00390625,-0.94921875,0.12890625
2249,0.01171875,-0.94140625,0.1484375
2250,0.01171875,-0.94140625,0.1171875
2251,0.0,-0.9453125,0.12109375
2252,0.03125,-0.9375,0.1328125
2253,0.00390625,-0.94921875,0.12890625
2254,0.00390625,-0.9375,0.12890625
2255,0.01171875,-0.9453125,0.125
2256,0.0,-0.9453125,0.12109375
2257,0.00390625,-0.9453125,0.13671875
2258,0.0,-0.93359375,0.13671875
2259,0.00390625,-0.94921875,0.12109375
2260,0.00390625,-0.92578125,0.1171875
2261,-0.0078125,-0.9453125,0.12109375
2262,0.0078125,-0.94921875,0.12109375
2263,0.0078125,-0.93359375,0.1328125
2264,0.0078125,-0.9453125,0.13671875
2265,0.0078125,-0.9375,0.10546875
2266,0.0,-0.953125,0.1328125
2267,0.0078125,-0.94140625,0.12890625
2268,0.00390625,-0.9453125,0.1328125
2269,0.0,-0.94140625,0.125
2270,0.0,-0.94140625,0.13671875
2271,0.00390625,-0.9296875,0.1328125
2272,-0.01171875,-0.9296875,0.1484375
2273,0.015625,-0.953125,0.12890625
2274,-0.01171875,-0.94140625,0.13671875
2275,0.0078125,-0.953125,0.1328125
2276,0.00390625,-0.9453125,0.1171875
2277,0.01171875,-0.94140625,0.140625
2278,-0.0078125,-0.93359375,0.12109375
2279,0.00390625,-0.9453125,0.12109375
2280,-0.0078125,-0.94921875,0.12890625
2281,0.0078125,-0.9453125,0.125
2282,0.015625,-0.94921875,0.125
2283,0.01171875,-0.94921875,0.125
2284,0.0078125,-0.94140625,0.13671875
2285,0.0,-0.94140625,0.125
2286,0.00390625,-0.96484375,0.140625
2287,0.0,-0.9375,0.13671875
2288,0.00390625,-0.94140625,0.125
2289,0.01171875,-0.9453125,0.140625
2290,-0.00390625,-0.9375,0.1328125
2291,0.0,-0.9375,0.1328125
2292,0.0078125,-0.9453125,0.1328125
2293,0.0078125,-0.94140625,0.1171875
2294,0.015625,-0.953125,0.12109375
2295,0.01171875,-0.9453125,0.12109375
2296,0.0078125,-0.9296875,0.125
2297,0.01953125,-0.9375,0.1328125
2298,0.0078125,-0.94140625,0.1328125
2299,0.0078125,-0.94140625,0.13671875
2300,0.00390625,-0.94921875,0.140625
2301,0.0078125,-0.9375,0.1328125
2302,0.015625,-0.94921875,0.1328125
2303,0.00390625,-0.94921875,0.12109375
2304,0.0,-0.93359375,0.14453125
2305,0.0,-0.9453125,0.12890625
2306,0.0078125,-0.9453125,0.13671875
2307,0.00390625,-0.94921875,0.12109375
2308,0.015625,-0.94921875,0.1484375
2309,0.01171875,-0.94921875,0.125
2310,0.00390625,-0.94921875,0.125
2311,0.00390625,-0.9453125,0.1328125
2312,0.00390625,-0.94921875,0.1171875
2313,0.00390625,-0.94140625,0.13671875
2314,0.01171875,-0.94921875,0.12890625
2315,0.0078125,-0.9453125,0.125
2316,0.01953125,-0.94921875,0.12109375
2317,0.0,-0.9375,0.1328125
2318,0.0078125,-0.94140625,0.140625
2319,-0.015625,-0.94140625,0.14453125
2320,0.015625,-0.94921875,0.12109375
2321,0.01171875,-0.94921875,0.14453125
2322,0.0,-0.953125,0.125
2323,0.00390625,-0.94921875,0.12890625
2324,0.0078125,-0.953125,0.1328125
2325,0.015625,-0.9453125,0.13671875
2326,0.015625,-0.93359375,0.12890625
2327,0.00390625,-0.9375,0.12109375
2328,0.015625,-0.94140625,0.12109375
2329,0.015625,-0.93359375,0.13671875
2330,0.03515625,-0.953125,0.1171875
2331,0.01953125,-0.9375,0.11328125
2332,0.0,-0.9453125,0.12109375
2333,0.0,-0.94921875,0.13671875
2334,0.0,-0.953125,0.14453125
2335,0.00390625,-0.94921875,0.140625
2336,0.01171875,-0.953125,0.1328125
2337,0.0078125,-0.94140625,0.125
2338,0.0078125,-0.94921875,0.1328125
2339,0.015625,-0.94921875,0.12109375
2340,0.015625,-0.94140625,0.125
2341,-0.01953125,-0.9453125,0.14453125
2342,0.015625,-0.953125,0.12109375
2343,0.01171875,-0.94921875,0.1328125
2344,0.01171875,-0.94140625,0.12109375
2345,0.0078125,-0.9453125,0.12890625
2346,0.01171875,-0.94921875,0.12109375
2347,0.0078125,-0.9375,0.1171875
2348,0.01953125,-0.953125,0.11328125
2349,0.0078125,-0.94140625,0.12109375
2350,0.01171875,-0.9453125,0.1171875
2351,0.01953125,-0.94921875,0.140625
2352,-0.00390625,-0.9453125,0.1328125
2353,0.0078125,-0.94921875,0.11328125
2354,0.00390625,-0.94921875,0.1328125
2355,0.01171875,-0.94921875,0.125
2356,0.0078125,-0.953125,0.12109375
2357,0.0078125,-0.9453125,0.125
2358,0.00390625,-0.94140625,0.1328125
2359,0.0,-0.9296875,0.1328125
2360,0.0078125,-0.9453125,0.11328125
2361,0.0078125,-0.95703125,0.12890625
2362,-0.01171875,-0.9375,0.08984375
2363,0.01171875,-0.953125,0.12890625
2364,0.015625,-0.94921875,0.12109375
2365,0.0078125,-0.94921875,0.13671875
2366,0.015625,-0.953125,0.125
2367,0.0,-0.9375,0.12890625
2368,0.00390625,-0.9453125,0.12890625
2369,0.0234375,-0.9453125,0.12109375
2370,0.015625,-0.9375,0.125
2371,0.00390625,-0.94921875,0.10546875
2372,0.015625,-0.9296875,0.1171875
2373,0.00390625,-0.9375,0.125
2374,0.015625,-0.94921875,0.125
2375,0.0078125,-0.9375,0.125
2376,0.0078125,-0.9375,0.125
2377,0.01171875,-0.94921875,0.1171875
2378,0.0078125,-0.94140625,0.12890625
2379,0.01953125,-0.94921875,0.1328125
2380,0.01171875,-0.94140625,0.140625
2381,0.01171875,-0.9453125,0.1328125
2382,-0.0078125,-0.9453125,0.13671875
2383,0.0,-0.953125,0.125
2384,0.015625,-0.9375,0.140625
2385,0.00390625,-0.9453125,0.1328125
2386,0.015625,-0.9375,0.125
2387,0.0,-0.9375,0.1171875
2388,0.0,-0.94921875,0.125
2389,0.00390625,-0.9453125,0.13671875
2390,0.01171875,-0.94921875,0.109375
2391,-0.00390625,-0.9453125,0.1328125
2392,0.015625,-0.93359375,0.140625
2393,0.00390625,-0.9296875,0.1328125
2394,0.01171875,-0.953125,0.1328125
2395,0.01953125,-0.94140625,0.140625
2396,0.0078125,-0.953125,0.109375
2397,-0.01171875,-0.94140625,0.109375
2398,0.00390625,-0.9453125,0.12890625
2399,0.02734375,-0.94921875,0.1328125
