,accelerometerAccelerationX(G),accelerometerAccelerationY(G),accelerometerAccelerationZ(G)
0,0.0546875,-0.953125,0.09375
1,0.0390625,-0.953125,0.09375
2,0.04296875,-0.94921875,0.09375
3,0.04296875,-0.9453125,0.109375
4,0.03125,-0.953125,0.10546875
5,0.046875,-0.94921875,0.11328125
6,0.0390625,-0.95703125,0.08203125
7,0.0390625,-0.94921875,0.1015625
8,0.04296875,-0.953125,0.109375
9,0.04296875,-0.9453125,0.109375
10,0.0546875,-0.953125,0.0859375
11,0.05078125,-0.953125,0.0859375
12,0.0390625,-0.94921875,0.09765625
13,0.03125,-0.9453125,0.10546875
14,0.04296875,-0.94921875,0.0703125
15,0.046875,-0.95703125,0.09765625
16,0.04296875,-0.953125,0.09375
17,0.0390625,-0.94921875,0.1015625
18,0.0390625,-0.94921875,0.1015625
19,0.0390625,-0.9453125,0.08984375
20,0.04296875,-0.94921875,0.08984375
21,0.0546875,-0.953125,0.10546875
22,0.0546875,-0.953125,0.08984375
23,0.05078125,-0.953125,0.08984375
24,0.046875,-0.9453125,0.10546875
25,0.046875,-0.953125,0.1015625
26,0.0546875,-0.953125,0.09765625
27,0.0390625,-0.95703125,0.09765625
28,0.05078125,-0.94921875,0.09375
29,0.046875,-0.94140625,0.09765625
30,0.046875,-0.953125,0.1015625
31,0.046875,-0.953125,0.0859375
32,0.04296875,-0.94921875,0.09765625
33,0.0546875,-0.95703125,0.1015625
34,0.0390625,-0.95703125,0.09765625
35,0.03515625,-0.953125,0.10546875
36,0.05078125,-0.953125,0.09375
37,0.04296875,-0.9375,0.11328125
38,0.05859375,-0.953125,0.0859375
39,0.046875,-0.953125,0.0859375
40,0.04296875,-0.953125,0.109375
41,0.03515625,-0.94140625,0.09375
42,0.046875,-0.953125,0.1015625
43,0.046875,-0.94921875,0.09375
44,0.04296875,-0.94921875,0.09375
45,0.05078125,-0.953125,0.1171875
46,0.04296875,-0.953125,0.09375
47,0.046875,-0.94921875,0.10546875
48,0.0625,-0.95703125,0.1015625
49,0.05078125,-0.9453125,0.1015625
50,0.04296875,-0.953125,0.10546875
51,0.0390625,-0.94921875,0.12109375
52,0.0390625,-0.9453125,0.10546875
53,0.0390625,-0.94921875,0.1015625
54,0.0390625,-0.9453125,0.1171875
55,0.04296875,-0.94140625,0.1171875
56,0.046875,-0.94921875,0.09375
57,0.04296875,-0.94140625,0.1015625
58,0.03515625,-0.95703125,0.10546875
59,0.04296875,-0.953125,0.09765625
60,0.0390625,-0.953125,0.10546875
61,0.04296875,-0.94921875,0.09765625
62,0.0234375,-0.9375,0.1015625
63,0.0390625,-0.953125,0.0859375
64,0.0390625,-0.94140625,0.1015625
65,0.0390625,-0.95703125,0.11328125
66,0.0390625,-0.9375,0.1171875
67,0.02734375,-0.94140625,0.09375
68,0.03515625,-0.94921875,0.10546875
69,0.05078125,-0.94140625,0.1015625
70,0.046875,-0.94921875,0.09765625
71,0.05078125,-0.953125,0.1015625
72,0.03515625,-0.953125,0.09375
73,0.0390625,-0.94921875,0.11328125
74,0.03125,-0.94921875,0.1015625
75,0.03515625,-0.953125,0.10546875
76,0.0390625,-0.9453125,0.1171875
77,0.05078125,-0.95703125,0.1015625
78,0.046875,-0.94921875,0.08203125
79,0.05078125,-0.953125,0.12109375
80,0.0390625,-0.94140625,0.11328125
81,0.04296875,-0.93359375,0.15234375
82,0.04296875,-0.953125,0.09765625
83,0.0390625,-0.94140625,0.10546875
84,0.03515625,-0.9375,0.1015625
85,0.03125,-0.9453125,0.1015625
86,0.0390625,-0.9453125,0.109375
87,0.046875,-0.953125,0.109375
88,0.04296875,-0.9453125,0.1171875
89,0.0390625,-0.9375,0.11328125
90,0.0390625,-0.9453125,0.11328125
91,0.03515625,-0.953125,0.10546875
92,0.02734375,-0.94921875,0.09375
93,0.03515625,-0.95703125,0.09765625
94,0.04296875,-0.953125,0.109375
95,0.05078125,-0.94921875,0.09765625
96,0.03515625,-0.9453125,0.10546875
97,0.03125,-0.953125,0.09765625
98,0.04296875,-0.94921875,0.11328125
99,0.04296875,-0.95703125,0.11328125
100,0.03515625,-0.9453125,0.12109375
101,0.03125,-0.9453125,0.10546875
102,0.0390625,-0.94921875,0.12890625
103,0.046875,-0.93359375,0.125
104,0.03515625,-0.94921875,0.11328125
105,0.03515625,-0.94921875,0.1171875
106,0.03125,-0.94921875,0.09375
107,0.03125,-0.94921875,0.109375
108,0.03515625,-0.94921875,0.10546875
109,0.0234375,-0.9453125,0.1171875
110,0.046875,-0.94921875,0.10546875
111,0.03125,-0.94921875,0.10546875
112,0.02734375,-0.95703125,0.11328125
113,0.04296875,-0.94921875,0.1015625
114,0.02734375,-0.94921875,0.109375
115,0.03125,-0.95703125,0.10546875
116,0.0390625,-0.95703125,0.11328125
117,0.0390625,-0.953125,0.11328125
118,0.0234375,-0.95703125,0.12890625
119,0.03125,-0.953125,0.109375
120,0.02734375,-0.953125,0.109375
121,0.015625,-0.94921875,0.10546875
122,0.03125,-0.953125,0.1328125
123,0.01953125,-0.9453125,0.12890625
124,0.015625,-0.94921875,0.1015625
125,0.03125,-0.95703125,0.11328125
126,0.03125,-0.95703125,0.140625
127,0.03125,-0.95703125,0.11328125
128,0.03125,-0.953125,0.11328125
129,0.03125,-0.95703125,0.125
130,0.01953125,-0.953125,0.1171875
131,0.03515625,-0.953125,0.11328125
132,0.03125,-0.94921875,0.10546875
133,0.04296875,-0.953125,0.109375
134,0.0390625,-0.94921875,0.11328125
135,0.00390625,-0.9609375,0.09375
136,0.02734375,-0.94921875,0.1171875
137,0.02734375,-0.94921875,0.1171875
138,0.03515625,-0.94921875,0.12109375
139,0.03515625,-0.9453125,0.11328125
140,0.03515625,-0.94921875,0.12890625
141,0.02734375,-0.94921875,0.125
142,0.03515625,-0.953125,0.11328125
143,0.046875,-0.9453125,0.13671875
144,0.0390625,-0.9453125,0.1015625
145,0.03125,-0.9453125,0.1015625
146,0.046875,-0.95703125,0.09765625
147,0.02734375,-0.9453125,0.10546875
148,0.03125,-0.9453125,0.1328125
149,0.03515625,-0.953125,0.1015625
150,0.03515625,-0.953125,0.11328125
151,0.03515625,-0.953125,0.125
152,0.03125,-0.94921875,0.125
153,0.01953125,-0.94921875,0.0859375
154,0.0234375,-0.953125,0.11328125
155,0.01953125,-0.94140625,0.11328125
156,0.01953125,-0.94921875,0.08984375
157,0.01171875,-0.93359375,0.11328125
158,0.0234375,-0.9453125,0.10546875
159,0.03515625,-0.94921875,0.10546875
160,0.0390625,-0.9453125,0.109375
161,0.03125,-0.9375,0.10546875
162,0.03515625,-0.9453125,0.12109375
163,0.0390625,-0.9453125,0.1171875
164,0.0390625,-0.953125,0.1171875
165,0.0390625,-0.9453125,0.11328125
166,0.03125,-0.953125,0.11328125
167,0.03515625,-0.953125,0.109375
168,0.0234375,-0.94921875,0.16015625
169,0.02734375,-0.95703125,0.1171875
170,0.02734375,-0.9609375,0.12109375
171,0.01953125,-0.94921875,0.1328125
172,0.02734375,-0.95703125,0.125
173,0.015625,-0.94921875,0.1328125
174,0.0078125,-0.953125,0.12890625
175,0.0234375,-0.95703125,0.1171875
176,0.0078125,-0.953125,0.12890625
177,0.00390625,-0.94921875,0.125
178,0.01171875,-0.953125,0.1328125
179,0.00390625,-0.9609375,0.1328125
180,-0.01171875,-0.9453125,0.12890625
181,-0.0078125,-0.94140625,0.14453125
182,-0.0078125,-0.94921875,0.14453125
183,-0.01171875,-0.9453125,0.13671875
184,-0.01171875,-0.9375,0.12109375
185,-0.015625,-0.9453125,0.14453125
186,-0.015625,-0.953125,0.14453125
187,-0.03515625,-0.94921875,0.14453125
188,-0.02734375,-0.94921875,0.1484375
189,-0.0234375,-0.9375,0.1640625
190,-0.0234375,-0.94140625,0.171875
191,-0.02734375,-0.953125,0.1484375
192,-0.03515625,-0.9453125,0.16015625
193,-0.03125,-0.94140625,0.15234375
194,-0.03125,-0.94921875,0.1484375
195,-0.03515625,-0.94140625,0.15625
196,-0.02734375,-0.93359375,0.15234375
197,-0.04296875,-0.921875,0.1484375
198,-0.03125,-0.92578125,0.15234375
199,-0.05078125,-0.92578125,0.140625
200,-0.04296875,-0.921875,0.15625
201,-0.03125,-0.9296875,0.16015625
202,-0.0546875,-0.921875,0.15234375
203,-0.0546875,-0.92578125,0.14453125
204,-0.0546875,-0.93359375,0.13671875
205,-0.06640625,-0.9296875,0.16796875
206,-0.0703125,-0.94140625,0.15625
207,-0.0625,-0.9375,0.16015625
208,-0.0625,-0.9453125,0.171875
209,-0.0703125,-0.9453125,0.15625
210,-0.05859375,-0.94921875,0.1640625
211,-0.0703125,-0.94140625,0.140625
212,-0.07421875,-0.94140625,0.16796875
213,-0.06640625,-0.94140625,0.15625
214,-0.078125,-0.93359375,0.1640625
215,-0.07421875,-0.9375,0.171875
216,-0.078125,-0.92578125,0.17578125
217,-0.0703125,-0.92578125,0.16796875
218,-0.078125,-0.93359375,0.1796875
219,-0.07421875,-0.92578125,0.171875
220,-0.078125,-0.91796875,0.171875
221,-0.078125,-0.921875,0.1796875
222,-0.0625,-0.92578125,0.17578125
223,-0.078125,-0.91015625,0.16796875
224,-0.078125,-0.9140625,0.15625
225,-0.0859375,-0.91015625,0.16796875
226,-0.0859375,-0.921875,0.1640625
227,-0.09765625,-0.90625,0.171875
228,-0.10546875,-0.9140625,0.1640625
229,-0.09765625,-0.93359375,0.1640625
230,-0.09765625,-0.92578125,0.18359375
231,-0.08984375,-0.9296875,0.1796875
232,-0.11328125,-0.9296875,0.17578125
233,-0.10546875,-0.921875,0.19140625
234,-0.11328125,-0.93359375,0.171875
235,-0.109375,-0.921875,0.1796875
236,-0.12109375,-0.92578125,0.171875
237,-0.12109375,-0.91796875,0.19140625
238,-0.11328125,-0.921875,0.1796875
239,-0.11328125,-0.9296875,0.17578125
240,-0.125,-0.92578125,0.1796875
241,-0.125,-0.91796875,0.17578125
242,-0.12890625,-0.9140625,0.18359375
243,-0.11328125,-0.91796875,0.16796875
244,-0.11328125,-0.92578125,0.1484375
245,-0.125,-0.91796875,0.171875
246,-0.1171875,-0.91796875,0.17578125
247,-0.1171875,-0.921875,0.1875
248,-0.109375,-0.92578125,0.18359375
249,-0.12109375,-0.92578125,0.1640625
250,-0.12109375,-0.92578125,0.203125
251,-0.12890625,-0.9140625,0.17578125
252,-0.13671875,-0.91796875,0.171875
253,-0.1328125,-0.91796875,0.16796875
254,-0.140625,-0.93359375,0.16796875
255,-0.12109375,-0.93359375,0.2109375
256,-0.140625,-0.921875,0.1640625
257,-0.1328125,-0.91796875,0.17578125
258,-0.14453125,-0.92578125,0.19140625
259,-0.14453125,-0.91796875,0.1640625
260,-0.14453125,-0.92578125,0.18359375
261,-0.14453125,-0.91015625,0.16796875
262,-0.13671875,-0.91796875,0.1640625
263,-0.1328125,-0.921875,0.1640625
264,-0.140625,-0.93359375,0.18359375
265,-0.14453125,-0.9296875,0.1796875
266,-0.15625,-0.90234375,0.18359375
267,-0.1484375,-0.92578125,0.1796875
268,-0.15234375,-0.92578125,0.17578125
269,-0.15234375,-0.9296875,0.1484375
270,-0.15625,-0.921875,0.16796875
271,-0.14453125,-0.92578125,0.18359375
272,-0.1484375,-0.92578125,0.1640625
273,-0.16015625,-0.92578125,0.1640625
274,-0.16796875,-0.9140625,0.1640625
275,-0.16015625,-0.91796875,0.16796875
276,-0.15625,-0.91796875,0.16796875
277,-0.15234375,-0.93359375,0.14453125
278,-0.16796875,-0.9296875,0.18359375
279,-0.1484375,-0.9296875,0.19140625
280,-0.16015625,-0.92578125,0.17578125
281,-0.16796875,-0.91015625,0.15625
282,-0.1484375,-0.9140625,0.16796875
283,-0.15625,-0.9140625,0.16796875
284,-0.171875,-0.92578125,0.15234375
285,-0.171875,-0.90625,0.1796875
286,-0.16796875,-0.921875,0.15234375
287,-0.1796875,-0.91796875,0.1875
288,-0.1796875,-0.90625,0.1875
289,-0.17578125,-0.91796875,0.1640625
290,-0.171875,-0.90625,0.16015625
291,-0.1796875,-0.92578125,0.17578125
292,-0.18359375,-0.91796875,0.1796875
293,-0.1796875,-0.92578125,0.18359375
294,-0.171875,-0.921875,0.1875
295,-0.19921875,-0.91796875,0.17578125
296,-0.171875,-0.91796875,0.171875
297,-0.18359375,-0.93359375,0.171875
298,-0.1875,-0.92578125,0.16796875
299,-0.17578125,-0.9140625,0.1640625
300,-0.1796875,-0.92578125,0.18359375
301,-0.19140625,-0.921875,0.1875
302,-0.19140625,-0.91796875,0.1875
303,-0.1953125,-0.91796875,0.1875
304,-0.19140625,-0.93359375,0.17578125
305,-0.19140625,-0.91796875,0.17578125
306,-0.203125,-0.9296875,0.18359375
307,-0.1953125,-0.9140625,0.1796875
308,-0.20703125,-0.9140625,0.1796875
309,-0.203125,-0.91796875,0.19140625
310,-0.2109375,-0.88671875,0.16796875
311,-0.19921875,-0.91015625,0.18359375
312,-0.203125,-0.91796875,0.16015625
313,-0.20703125,-0.90625,0.1875
314,-0.2109375,-0.90625,0.19140625
315,-0.1953125,-0.91796875,0.1953125
316,-0.2265625,-0.890625,0.19140625
317,-0.21484375,-0.90234375,0.1796875
318,-0.21484375,-0.90234375,0.1796875
319,-0.2109375,-0.90234375,0.1640625
320,-0.23828125,-0.89453125,0.16796875
321,-0.23046875,-0.89453125,0.1875
322,-0.23046875,-0.8984375,0.17578125
323,-0.23046875,-0.890625,0.1953125
324,-0.234375,-0.90625,0.1796875
325,-0.2265625,-0.8984375,0.18359375
326,-0.2265625,-0.90234375,0.1875
327,-0.2265625,-0.91796875,0.1953125
328,-0.2265625,-0.89453125,0.1953125
329,-0.234375,-0.9140625,0.19140625
330,-0.24609375,-0.90234375,0.1875
331,-0.234375,-0.90625,0.1875
332,-0.23828125,-0.91015625,0.1875
333,-0.234375,-0.91015625,0.19140625
334,-0.25,-0.8984375,0.18359375
335,-0.265625,-0.89453125,0.171875
336,-0.26953125,-0.90234375,0.18359375
337,-0.2578125,-0.8984375,0.1875
338,-0.2734375,-0.89453125,0.1640625
339,-0.2734375,-0.89453125,0.19921875
340,-0.2734375,-0.8984375,0.1953125
341,-0.28125,-0.9140625,0.17578125
342,-0.25390625,-0.89453125,0.19140625
343,-0.296875,-0.90234375,0.1640625
344,-0.3046875,-0.8984375,0.1875
345,-0.3046875,-0.890625,0.1875
346,-0.29296875,-0.890625,0.17578125
347,-0.29296875,-0.89453125,0.1875
348,-0.296875,-0.89453125,0.18359375
349,-0.30078125,-0.890625,0.19140625
350,-0.3125,-0.87890625,0.19140625
351,-0.30859375,-0.890625,0.18359375
352,-0.3125,-0.890625,0.1953125
353,-0.328125,-0.8828125,0.18359375
354,-0.33203125,-0.88671875,0.16796875
355,-0.328125,-0.8828125,0.1875
356,-0.3359375,-0.8671875,0.1875
357,-0.33203125,-0.8671875,0.18359375
358,-0.33203125,-0.85546875,0.1953125
359,-0.33203125,-0.8515625,0.21484375
360,-0.33984375,-0.84375,0.203125
361,-0.328125,-0.8515625,0.20703125
362,-0.3359375,-0.85546875,0.2109375
363,-0.34375,-0.86328125,0.2109375
364,-0.34765625,-0.87109375,0.21484375
365,-0.33984375,-0.8359375,0.2265625
366,-0.34765625,-0.83984375,0.21484375
367,-0.3515625,-0.8515625,0.2265625
368,-0.34765625,-0.8359375,0.2109375
369,-0.36328125,-0.84375,0.22265625
370,-0.3828125,-0.8359375,0.2109375
371,-0.36328125,-0.83203125,0.2109375
372,-0.375,-0.83203125,0.203125
373,-0.3671875,-0.8359375,0.20703125
374,-0.38671875,-0.83203125,0.20703125
375,-0.39453125,-0.8125,0.22265625
376,-0.38671875,-0.82421875,0.21875
377,-0.38671875,-0.8125,0.21484375
378,-0.390625,-0.828125,0.2109375
379,-0.390625,-0.81640625,0.22265625
380,-0.40234375,-0.828125,0.23046875
381,-0.3984375,-0.8125,0.21875
382,-0.4140625,-0.81640625,0.21484375
383,-0.40234375,-0.82421875,0.22265625
384,-0.39453125,-0.8203125,0.2265625
385,-0.38671875,-0.828125,0.2109375
386,-0.38671875,-0.828125,0.25
387,-0.39453125,-0.83203125,0.20703125
388,-0.390625,-0.828125,0.21484375
389,-0.3984375,-0.82421875,0.21484375
390,-0.39453125,-0.81640625,0.2109375
391,-0.40625,-0.80859375,0.2109375
392,-0.3828125,-0.8203125,0.2109375
393,-0.390625,-0.8125,0.19921875
394,-0.39453125,-0.80859375,0.2265625
395,-0.37890625,-0.81640625,0.203125
396,-0.38671875,-0.80078125,0.2109375
397,-0.3828125,-0.7890625,0.20703125
398,-0.3984375,-0.8125,0.17578125
399,-0.41015625,-0.8125,0.203125
400,-0.41796875,-0.8125,0.18359375
401,-0.421875,-0.8046875,0.1953125
402,-0.42578125,-0.8125,0.20703125
403,-0.44140625,-0.8046875,0.203125
404,-0.4375,-0.8203125,0.1953125
405,-0.4453125,-0.81640625,0.1953125
406,-0.421875,-0.80859375,0.2109375
407,-0.4296875,-0.82421875,0.2265625
408,-0.41015625,-0.8203125,0.21875
409,-0.4453125,-0.8125,0.23046875
410,-0.4296875,-0.82421875,0.23828125
411,-0.44140625,-0.82421875,0.234375
412,-0.4453125,-0.81640625,0.234375
413,-0.4453125,-0.83203125,0.2421875
414,-0.44140625,-0.79296875,0.2265625
415,-0.44921875,-0.796875,0.203125
416,-0.453125,-0.796875,0.2421875
417,-0.46484375,-0.77734375,0.234375
418,-0.453125,-0.79296875,0.234375
419,-0.46484375,-0.77734375,0.234375
420,-0.47265625,-0.765625,0.22265625
421,-0.45703125,-0.77734375,0.2421875
422,-0.46484375,-0.78515625,0.2421875
423,-0.46484375,-0.7890625,0.25
424,-0.46875,-0.76953125,0.234375
425,-0.484375,-0.75,0.22265625
426,-0.48046875,-0.75390625,0.2109375
427,-0.49609375,-0.76171875,0.20703125
428,-0.5,-0.734375,0.1953125
429,-0.4921875,-0.7421875,0.17578125
430,-0.4921875,-0.75390625,0.21484375
431,-0.5,-0.78125,0.21484375
432,-0.4921875,-0.7734375,0.20703125
433,-0.5078125,-0.78515625,0.21875
434,-0.51953125,-0.78125,0.20703125
435,-0.5078125,-0.765625,0.2265625
436,-0.51171875,-0.76953125,0.1953125
437,-0.51953125,-0.7734375,0.19921875
438,-0.5234375,-0.76953125,0.1875
439,-0.51953125,-0.7890625,0.18359375
440,-0.55078125,-0.7734375,0.16015625
441,-0.54296875,-0.78125,0.17578125
442,-0.5390625,-0.79296875,0.18359375
443,-0.55078125,-0.77734375,0.19140625
444,-0.57421875,-0.77734375,0.19140625
445,-0.578125,-0.7890625,0.1875
446,-0.58203125,-0.77734375,0.171875
447,-0.59375,-0.76953125,0.17578125
448,-0.59375,-0.7890625,0.16796875
449,-0.60546875,-0.77734375,0.16796875
450,-0.59375,-0.75,0.16015625
451,-0.59765625,-0.76171875,0.16796875
452,-0.6015625,-0.74609375,0.15625
453,-0.59765625,-0.76171875,0.15625
454,-0.59375,-0.75390625,0.1484375
455,-0.59765625,-0.75,0.15234375
456,-0.5859375,-0.76171875,0.125
457,-0.5859375,-0.75390625,0.15625
458,-0.58203125,-0.76953125,0.13671875
459,-0.58203125,-0.75390625,0.140625
460,-0.57421875,-0.76953125,0.140625
461,-0.57421875,-0.7578125,0.1484375
462,-0.55078125,-0.765625,0.13671875
463,-0.5625,-0.78125,0.140625
464,-0.5703125,-0.7734375,0.140625
465,-0.5625,-0.7578125,0.14453125
466,-0.56640625,-0.75390625,0.1484375
467,-0.56640625,-0.7421875,0.15234375
468,-0.5703125,-0.73828125,0.1484375
469,-0.5703125,-0.73046875,0.15234375
470,-0.5703125,-0.734375,0.16796875
471,-0.5546875,-0.71875,0.1484375
472,-0.58984375,-0.7265625,0.14453125
473,-0.57421875,-0.73828125,0.1484375
474,-0.5703125,-0.73046875,0.16796875
475,-0.5703125,-0.734375,0.15625
476,-0.5703125,-0.734375,0.16796875
477,-0.56640625,-0.73046875,0.16796875
478,-0.56640625,-0.7421875,0.18359375
479,-0.5625,-0.75,0.1796875
480,-0.5625,-0.7421875,0.18359375
481,-0.5546875,-0.73828125,0.171875
482,-0.56640625,-0.73046875,0.171875
483,-0.58203125,-0.7421875,0.17578125
484,-0.54296875,-0.72265625,0.18359375
485,-0.55078125,-0.734375,0.1953125
486,-0.55859375,-0.734375,0.19140625
487,-0.55859375,-0.734375,0.19140625
488,-0.56640625,-0.734375,0.19140625
489,-0.55859375,-0.74609375,0.19921875
490,-0.5546875,-0.75,0.1875
491,-0.56640625,-0.73828125,0.203125
492,-0.5625,-0.73828125,0.203125
493,-0.57421875,-0.74609375,0.1953125
494,-0.57421875,-0.734375,0.1953125
495,-0.59765625,-0.734375,0.21484375
496,-0.578125,-0.734375,0.203125
497,-0.578125,-0.71875,0.19140625
498,-0.5859375,-0.73046875,0.1875
499,-0.59375,-0.71484375,0.1875
500,-0.6015625,-0.71484375,0.1875
501,-0.59765625,-0.71484375,0.1640625
502,-0.6171875,-0.7109375,0.1875
503,-0.62890625,-0.70703125,0.1640625
504,-0.625,-0.71484375,0.16796875
505,-0.6171875,-0.73828125,0.1953125
506,-0.6328125,-0.73046875,0.16796875
507,-0.62890625,-0.71484375,0.171875
508,-0.62109375,-0.70703125,0.16015625
509,-0.61328125,-0.7109375,0.171875
510,-0.625,-0.70703125,0.15625
511,-0.625,-0.703125,0.14453125
512,-0.61328125,-0.7109375,0.1484375
513,-0.62890625,-0.703125,0.15234375
514,-0.62109375,-0.7109375,0.15234375
515,-0.62890625,-0.69921875,0.13671875
516,-0.640625,-0.703125,0.15625
517,-0.6484375,-0.703125,0.1484375
518,-0.6328125,-0.7109375,0.140625
519,-0.64453125,-0.6953125,0.15625
520,-0.640625,-0.69140625,0.140625
521,-0.640625,-0.6953125,0.125
522,-0.65625,-0.67578125,0.1328125
523,-0.65625,-0.671875,0.1328125
524,-0.66015625,-0.68359375,0.10546875
525,-0.671875,-0.671875,0.12890625
526,-0.66796875,-0.68359375,0.109375
527,-0.66796875,-0.68359375,0.10546875
528,-0.6875,-0.68359375,0.09765625
529,-0.6796875,-0.6953125,0.10546875
530,-0.6875,-0.69140625,0.1015625
531,-0.69140625,-0.6875,0.09375
532,-0.6875,-0.67578125,0.109375
533,-0.69140625,-0.69140625,0.11328125
534,-0.6875,-0.68359375,0.1015625
535,-0.69140625,-0.66796875,0.1015625
536,-0.69140625,-0.6796875,0.12109375
537,-0.6875,-0.6796875,0.12109375
538,-0.69921875,-0.6796875,0.1328125
539,-0.7109375,-0.67578125,0.10546875
540,-0.69921875,-0.69140625,0.10546875
541,-0.703125,-0.69921875,0.10546875
542,-0.6953125,-0.68359375,0.09765625
543,-0.69921875,-0.6796875,0.08984375
544,-0.69140625,-0.68359375,0.1015625
545,-0.69921875,-0.671875,0.08984375
546,-0.71484375,-0.66015625,0.078125
547,-0.70703125,-0.65625,0.05859375
548,-0.72265625,-0.66796875,0.0625
549,-0.703125,-0.65234375,0.0703125
550,-0.73046875,-0.66015625,0.08203125
551,-0.72265625,-0.65625,0.0625
552,-0.73046875,-0.640625,0.0703125
553,-0.73046875,-0.6484375,0.0703125
554,-0.73046875,-0.66015625,0.07421875
555,-0.71875,-0.65625,0.0625
556,-0.734375,-0.65234375,0.078125
557,-0.72265625,-0.66796875,0.0625
558,-0.7109375,-0.66796875,0.06640625
559,-0.71875,-0.65234375,0.0703125
560,-0.71484375,-0.6484375,0.0703125
561,-0.73046875,-0.66015625,0.05078125
562,-0.72265625,-0.66015625,0.046875
563,-0.72265625,-0.65625,0.0546875
564,-0.72265625,-0.65234375,0.05859375
565,-0.7109375,-0.671875,0.05078125
566,-0.703125,-0.68359375,0.05078125
567,-0.703125,-0.703125,0.0625
568,-0.70703125,-0.70703125,0.05078125
569,-0.7265625,-0.70703125,0.0625
570,-0.7265625,-0.703125,0.06640625
571,-0.734375,-0.6953125,0.05859375
572,-0.7578125,-0.69921875,0.0546875
573,-0.76171875,-0.6796875,0.0546875
574,-0.78125,-0.65625,0.0390625
575,-0.79296875,-0.62890625,0.0234375
576,-0.796875,-0.6171875,0.04296875
577,-0.80078125,-0.59375,0.0390625
578,-0.80859375,-0.58203125,0.0234375
579,-0.79296875,-0.58984375,0.0
580,-0.8046875,-0.5703125,0.01953125
581,-0.80078125,-0.5703125,0.0
582,-0.7890625,-0.578125,0.01171875
583,-0.77734375,-0.5703125,0.0
584,-0.78125,-0.58203125,0.015625
585,-0.78515625,-0.5859375,0.02734375
586,-0.78515625,-0.58203125,0.0078125
587,-0.77734375,-0.59765625,0.03125
588,-0.78125,-0.60546875,0.01953125
589,-0.78125,-0.6015625,0.02734375
590,-0.79296875,-0.6015625,0.0234375
591,-0.77734375,-0.61328125,0.0078125
592,-0.78125,-0.62109375,0.01171875
593,-0.76171875,-0.62109375,0.03125
594,-0.7890625,-0.60546875,0.03515625
595,-0.78515625,-0.625,0.03125
596,-0.78125,-0.609375,0.01953125
597,-0.78515625,-0.61328125,0.00390625
598,-0.80078125,-0.609375,0.00390625
599,-0.79296875,-0.6171875,0.00390625
600,-0.79296875,-0.6015625,0.0
601,-0.80078125,-0.5859375,-0.01953125
602,-0.79296875,-0.60546875,-0.01171875
603,-0.8046875,-0.58203125,-0.0078125
604,-0.8125,-0.59765625,-0.0234375
605,-0.81640625,-0.5859375,-0.00390625
606,-0.80078125,-0.5859375,-0.0078125
607,-0.796875,-0.5859375,-0.015625
608,-0.80078125,-0.56640625,-0.01171875
609,-0.8046875,-0.5703125,-0.01171875
610,-0.80859375,-0.5703125,-0.015625
611,-0.7890625,-0.5703125,-0.00390625
612,-0.8125,-0.5703125,-0.015625
613,-0.8125,-0.5703125,-0.015625
614,-0.82421875,-0.56640625,0.0
615,-0.80859375,-0.5859375,-0.01171875
616,-0.8203125,-0.58203125,-0.01171875
617,-0.8125,-0.578125,-0.01171875
618,-0.8203125,-0.5703125,-0.01171875
619,-0.8203125,-0.5859375,-0.01953125
620,-0.8203125,-0.56640625,-0.01953125
621,-0.8203125,-0.57421875,-0.0234375
622,-0.828125,-0.546875,-0.03515625
623,-0.82421875,-0.57421875,-0.02734375
624,-0.83203125,-0.53515625,-0.01171875
625,-0.8359375,-0.546875,-0.04296875
626,-0.828125,-0.546875,-0.015625
627,-0.83984375,-0.55078125,-0.03515625
628,-0.83203125,-0.54296875,-0.03515625
629,-0.828125,-0.5390625,-0.046875
630,-0.83203125,-0.54296875,-0.03515625
631,-0.83203125,-0.53125,-0.03515625
632,-0.83984375,-0.5390625,-0.02734375
633,-0.83203125,-0.51953125,-0.0390625
634,-0.83984375,-0.53125,-0.0390625
635,-0.82421875,-0.51953125,-0.046875
636,-0.82421875,-0.51171875,-0.02734375
637,-0.84765625,-0.51171875,-0.02734375
638,-0.8359375,-0.5078125,-0.046875
639,-0.83984375,-0.50390625,-0.0546875
640,-0.84765625,-0.50390625,-0.0546875
641,-0.84375,-0.515625,-0.05078125
642,-0.84375,-0.52734375,-0.05078125
643,-0.8359375,-0.52734375,-0.07421875
644,-0.8515625,-0.5234375,-0.0625
645,-0.84375,-0.5078125,-0.0546875
646,-0.8359375,-0.5234375,-0.0546875
647,-0.8359375,-0.515625,-0.08203125
648,-0.8515625,-0.484375,-0.08984375
649,-0.83984375,-0.48828125,-0.1015625
650,-0.84765625,-0.48046875,-0.1171875
651,-0.8359375,-0.48046875,-0.140625
652,-0.8359375,-0.47265625,-0.1484375
653,-0.8359375,-0.44921875,-0.15234375
654,-0.84375,-0.4453125,-0.1796875
655,-0.85546875,-0.44140625,-0.15625
656,-0.85546875,-0.4296875,-0.171875
657,-0.85546875,-0.4375,-0.19140625
658,-0.87109375,-0.43359375,-0.1875
659,-0.8828125,-0.43359375,-0.17578125
660,-0.90625,-0.4375,-0.1796875
661,-0.92578125,-0.4296875,-0.1484375
662,-0.92578125,-0.43359375,-0.17578125
663,-0.9375,-0.4296875,-0.13671875
664,-0.953125,-0.4296875,-0.1484375
665,-0.96875,-0.421875,-0.125
666,-0.98046875,-0.4140625,-0.1171875
667,-1.01171875,-0.41796875,-0.109375
668,-0.98828125,-0.421875,-0.09375
669,-1.0,-0.421875,-0.109375
670,-0.98046875,-0.4375,-0.109375
671,-0.98828125,-0.42578125,-0.1171875
672,-0.97265625,-0.44140625,-0.12109375
673,-0.953125,-0.44140625,-0.12109375
674,-0.93359375,-0.453125,-0.125
675,-0.9296875,-0.4453125,-0.12890625
676,-0.91015625,-0.43359375,-0.1328125
677,-0.88671875,-0.44140625,-0.14453125
678,-0.890625,-0.42578125,-0.1640625
679,-0.89453125,-0.40625,-0.16015625
680,-0.8984375,-0.44921875,-0.1640625
681,-0.89453125,-0.484375,-0.16796875
682,-0.91796875,-0.4921875,-0.15625
683,-0.91796875,-0.48046875,-0.1640625
684,-0.9453125,-0.45703125,-0.14453125
685,-0.93359375,-0.4375,-0.140625
686,-0.92578125,-0.42578125,-0.16015625
687,-0.94140625,-0.39453125,-0.1484375
688,-0.9453125,-0.390625,-0.14453125
689,-0.94921875,-0.359375,-0.140625
690,-0.94140625,-0.33203125,-0.1640625
691,-0.9609375,-0.3125,-0.171875
692,-0.95703125,-0.3125,-0.16796875
693,-0.96875,-0.3125,-0.1640625
694,-0.96484375,-0.3203125,-0.16015625
695,-0.98046875,-0.34375,-0.15625
696,-0.9765625,-0.3671875,-0.1875
697,-0.96875,-0.3984375,-0.16015625
698,-0.95703125,-0.4140625,-0.17578125
699,-0.953125,-0.4296875,-0.171875
700,-0.94921875,-0.43359375,-0.14453125
701,-0.94140625,-0.4296875,-0.15234375
702,-0.94140625,-0.421875,-0.16015625
703,-0.94140625,-0.42578125,-0.15234375
704,-0.9375,-0.421875,-0.15234375
705,-0.93359375,-0.390625,-0.16796875
706,-0.94921875,-0.3828125,-0.140625
707,-0.9453125,-0.359375,-0.140625
708,-0.94140625,-0.34765625,-0.16015625
709,-0.94140625,-0.3203125,-0.1484375
710,-0.953125,-0.3046875,-0.1640625
711,-0.9453125,-0.3125,-0.16015625
712,-0.95703125,-0.31640625,-0.15234375
713,-0.96484375,-0.296875,-0.1796875
714,-1.00390625,-0.30859375,-0.1796875
715,-0.9765625,-0.3125,-0.171875
716,-0.98046875,-0.31640625,-0.140625
717,-0.99609375,-0.30859375,-0.16796875
718,-0.984375,-0.3125,-0.12890625
719,-1.0,-0.30078125,-0.14453125
720,-0.99609375,-0.30078125,-0.14453125
721,-0.99609375,-0.30078125,-0.12109375
722,-0.984375,-0.28515625,-0.12109375
723,-0.98828125,-0.30859375,-0.12890625
724,-0.98828125,-0.28515625,-0.12890625
725,-0.98828125,-0.2890625,-0.11328125
726,-0.97265625,-0.296875,-0.12890625
727,-0.98828125,-0.30078125,-0.14453125
728,-0.984375,-0.29296875,-0.1484375
729,-0.9921875,-0.29296875,-0.1484375
730,-0.99609375,-0.29296875,-0.16015625
731,-0.9921875,-0.2890625,-0.16015625
732,-1.00390625,-0.30078125,-0.16015625
733,-0.9765625,-0.27734375,-0.16015625
734,-0.9609375,-0.3125,-0.17578125
735,-0.9921875,-0.28515625,-0.14453125
736,-0.99609375,-0.28125,-0.14453125
737,-0.9921875,-0.28125,-0.16015625
738,-0.9921875,-0.2734375,-0.15625
739,-0.984375,-0.2734375,-0.15625
740,-0.984375,-0.27734375,-0.1640625
741,-0.98046875,-0.26953125,-0.1640625
742,-0.984375,-0.26953125,-0.16015625
743,-0.9765625,-0.2734375,-0.1640625
744,-0.9609375,-0.28515625,-0.16796875
745,-0.9453125,-0.30078125,-0.1171875
746,-0.984375,-0.28515625,-0.140625
747,-0.96875,-0.27734375,-0.1484375
748,-0.98828125,-0.26171875,-0.140625
749,-1.00390625,-0.25,-0.140625
750,-1.00390625,-0.24609375,-0.140625
751,-1.01171875,-0.24609375,-0.140625
752,-1.00390625,-0.26953125,-0.14453125
753,-1.02734375,-0.2578125,-0.12109375
754,-1.02734375,-0.24609375,-0.140625
755,-1.015625,-0.25390625,-0.140625
756,-1.00390625,-0.25390625,-0.1484375
757,-0.99609375,-0.2734375,-0.1484375
758,-0.99609375,-0.265625,-0.15625
759,-0.984375,-0.25,-0.140625
760,-0.98046875,-0.25,-0.16015625
761,-0.98046875,-0.23046875,-0.1328125
762,-0.9765625,-0.2109375,-0.13671875
763,-0.984375,-0.21875,-0.13671875
764,-0.98046875,-0.2109375,-0.11328125
765,-0.98828125,-0.203125,-0.08984375
766,-0.98046875,-0.203125,-0.125
767,-1.0078125,-0.203125,-0.1328125
768,-0.98828125,-0.20703125,-0.1015625
769,-0.984375,-0.20703125,-0.08984375
770,-0.9921875,-0.19921875,-0.11328125
771,-0.984375,-0.1953125,-0.10546875
772,-0.98828125,-0.203125,-0.10546875
773,-0.984375,-0.19921875,-0.10546875
774,-0.984375,-0.19140625,-0.09765625
775,-0.98046875,-0.19921875,-0.109375
776,-0.99609375,-0.19140625,-0.10546875
777,-1.0,-0.17578125,-0.12109375
778,-1.01953125,-0.203125,-0.1171875
779,-1.00390625,-0.18359375,-0.1015625
780,-1.0078125,-0.1640625,-0.1015625
781,-1.015625,-0.1640625,-0.09375
782,-1.015625,-0.171875,-0.09375
783,-1.015625,-0.171875,-0.09765625
784,-1.01953125,-0.1640625,-0.109375
785,-1.01953125,-0.16796875,-0.10546875
786,-1.0,-0.1875,-0.10546875
787,-1.01953125,-0.1875,-0.1015625
788,-1.01171875,-0.1875,-0.09765625
789,-1.02734375,-0.203125,-0.109375
790,-1.01171875,-0.19921875,-0.10546875
791,-1.0234375,-0.1953125,-0.09765625
792,-1.00390625,-0.1875,-0.12109375
793,-1.01171875,-0.19140625,-0.109375
794,-1.00390625,-0.1875,-0.1171875
795,-1.00390625,-0.19921875,-0.10546875
796,-1.01171875,-0.19921875,-0.109375
797,-0.99609375,-0.20703125,-0.10546875
798,-1.0078125,-0.2109375,-0.11328125
799,-1.03125,-0.203125,-0.10546875
800,-0.9921875,-0.2109375,-0.12109375
801,-0.98828125,-0.20703125,-0.09765625
802,-0.9921875,-0.20703125,-0.109375
803,-0.99609375,-0.20703125,-0.0859375
804,-1.0,-0.203125,-0.078125
805,-1.00390625,-0.1953125,-0.0703125
806,-1.0,-0.19140625,-0.08203125
807,-0.9921875,-0.19921875,-0.0703125
808,-1.015625,-0.1953125,-0.0625
809,-1.0,-0.1953125,-0.05078125
810,-1.01953125,-0.20703125,-0.05859375
811,-1.015625,-0.1953125,-0.04296875
812,-1.015625,-0.19140625,-0.046875
813,-1.01171875,-0.203125,-0.05078125
814,-1.00390625,-0.203125,-0.05078125
815,-1.01171875,-0.1953125,-0.05078125
816,-1.00390625,-0.18359375,-0.0625
817,-1.0,-0.1953125,-0.0546875
818,-1.015625,-0.17578125,-0.0625
819,-1.00390625,-0.171875,-0.078125
820,-1.0234375,-0.15234375,-0.0859375
821,-1.015625,-0.140625,-0.0625
822,-1.0078125,-0.15234375,-0.07421875
823,-1.01171875,-0.15234375,-0.05859375
824,-1.015625,-0.125,-0.0625
825,-1.0234375,-0.12890625,-0.03515625
826,-1.02734375,-0.12890625,-0.046875
827,-1.03125,-0.12890625,-0.0234375
828,-1.0234375,-0.1328125,-0.01953125
829,-1.015625,-0.13671875,-0.0390625
830,-1.015625,-0.1484375,-0.0234375
831,-1.0,-0.140625,-0.015625
832,-1.00390625,-0.1484375,-0.03515625
833,-1.0078125,-0.14453125,-0.03515625
834,-1.0,-0.140625,-0.03125
835,-1.0,-0.1328125,-0.04296875
836,-1.0,-0.12890625,-0.06640625
837,-1.00390625,-0.12109375,-0.05078125
838,-1.0,-0.10546875,-0.0390625
839,-0.9921875,-0.1171875,-0.05078125
840,-1.00390625,-0.1171875,-0.05078125
841,-0.99609375,-0.11328125,-0.02734375
842,-0.99609375,-0.1171875,-0.01953125
843,-1.0078125,-0.11328125,-0.015625
844,-1.02734375,-0.11328125,-0.0078125
845,-1.02734375,-0.12890625,0.0
846,-1.03125,-0.12890625,-0.00390625
847,-1.05078125,-0.109375,0.0
848,-1.046875,-0.1171875,-0.01171875
849,-1.0546875,-0.1171875,-0.03125
850,-1.07421875,-0.10546875,0.0
851,-1.08203125,-0.1015625,-0.01953125
852,-1.08203125,-0.10546875,-0.00390625
853,-1.0625,-0.10546875,0.0
854,-1.07421875,-0.0859375,-0.0078125
855,-1.07421875,-0.1015625,-0.0078125
856,-1.06640625,-0.1171875,0.01171875
857,-1.07421875,-0.109375,0.00390625
858,-1.07421875,-0.09375,0.0234375
859,-1.0625,-0.09765625,0.01953125
860,-1.0546875,-0.078125,0.046875
861,-1.06640625,-0.08203125,0.03125
862,-1.05078125,-0.05859375,0.05078125
863,-1.05859375,-0.07421875,0.04296875
864,-1.01953125,-0.0625,0.05078125
865,-1.01171875,-0.046875,0.0546875
866,-1.0078125,-0.0546875,0.06640625
867,-0.9921875,-0.05078125,0.078125
868,-0.984375,-0.0703125,0.08984375
869,-0.98046875,-0.06640625,0.08984375
870,-0.9765625,-0.0703125,0.0859375
871,-0.9609375,-0.07421875,0.08203125
872,-0.96484375,-0.08203125,0.0625
873,-0.96875,-0.08203125,0.05859375
874,-0.97265625,-0.046875,0.0546875
875,-0.97265625,-0.08984375,0.0625
876,-0.9765625,-0.0859375,0.05859375
877,-1.0,-0.09375,0.0625
878,-1.0,-0.078125,0.08203125
879,-1.015625,-0.0859375,0.08984375
880,-1.0078125,-0.08984375,0.1015625
881,-1.01171875,-0.08203125,0.08984375
882,-1.0,-0.08203125,0.10546875
883,-1.0078125,-0.10546875,0.09375
884,-1.01953125,-0.109375,0.09765625
885,-0.99609375,-0.1015625,0.0859375
886,-1.015625,-0.12890625,0.1015625
887,-1.01171875,-0.14453125,0.09375
888,-1.00390625,-0.13671875,0.109375
889,-0.9921875,-0.14453125,0.09765625
890,-0.984375,-0.140625,0.109375
891,-0.9765625,-0.12109375,0.125
892,-0.9765625,-0.1171875,0.13671875
893,-0.96875,-0.109375,0.12109375
894,-0.9609375,-0.12890625,0.12890625
895,-0.96484375,-0.12890625,0.109375
896,-0.96875,-0.1015625,0.140625
897,-0.96484375,-0.1328125,0.12890625
898,-0.96875,-0.12890625,0.13671875
899,-0.96875,-0.12890625,0.140625
900,-0.96875,-0.140625,0.1328125
901,-0.96875,-0.1484375,0.15234375
902,-0.9765625,-0.140625,0.1484375
903,-0.9765625,-0.14453125,0.14453125
904,-0.98046875,-0.1484375,0.14453125
905,-0.96484375,-0.1484375,0.13671875
906,-0.96484375,-0.1484375,0.140625
907,-0.9609375,-0.1328125,0.12890625
908,-0.96484375,-0.12109375,0.12109375
909,-0.96484375,-0.125,0.1328125
910,-0.9765625,-0.109375,0.125
911,-0.9765625,-0.10546875,0.12890625
912,-0.97265625,-0.1015625,0.125
913,-0.98828125,-0.1015625,0.109375
914,-0.9921875,-0.09375,0.11328125
915,-0.9921875,-0.109375,0.125
916,-0.98828125,-0.09375,0.1015625
917,-1.0,-0.109375,0.11328125
918,-1.015625,-0.11328125,0.10546875
919,-1.0,-0.125,0.109375
920,-1.0078125,-0.125,0.10546875
921,-1.0234375,-0.125,0.1171875
922,-1.015625,-0.13671875,0.109375
923,-0.99609375,-0.1484375,0.12109375
924,-1.00390625,-0.1328125,0.12109375
925,-1.00390625,-0.14453125,0.125
926,-0.9921875,-0.15234375,0.125
927,-0.98046875,-0.14453125,0.125
928,-0.99609375,-0.14453125,0.12109375
929,-0.9765625,-0.14453125,0.13671875
930,-0.96875,-0.125,0.14453125
931,-0.9765625,-0.125,0.13671875
932,-0.9765625,-0.12109375,0.140625
933,-0.99609375,-0.13671875,0.12890625
934,-0.99609375,-0.125,0.12109375
935,-0.98828125,-0.125,0.125
936,-1.0,-0.1328125,0.12890625
937,-0.99609375,-0.12109375,0.12890625
938,-0.99609375,-0.12109375,0.1328125
939,-0.98828125,-0.10546875,0.13671875
940,-0.9765625,-0.13671875,0.15234375
941,-0.97265625,-0.14453125,0.14453125
942,-0.96875,-0.14453125,0.1484375
943,-0.953125,-0.1484375,0.15234375
944,-0.953125,-0.140625,0.140625
945,-0.97265625,-0.14453125,0.15234375
946,-0.9453125,-0.13671875,0.1484375
947,-0.96875,-0.125,0.1484375
948,-0.95703125,-0.13671875,0.15234375
949,-0.984375,-0.125,0.125
950,-0.98046875,-0.12109375,0.1484375
951,-0.99609375,-0.10546875,0.125
952,-0.984375,-0.12109375,0.125
953,-0.99609375,-0.1171875,0.140625
954,-0.9921875,-0.1171875,0.1484375
955,-0.984375,-0.12890625,0.140625
956,-0.99609375,-0.125,0.1484375
957,-0.98046875,-0.1328125,0.16015625
958,-0.984375,-0.12890625,0.16015625
959,-0.98046875,-0.14453125,0.15234375
960,-0.98046875,-0.1328125,0.1640625
961,-0.96875,-0.11328125,0.16796875
962,-0.984375,-0.1328125,0.16796875
963,-0.984375,-0.1328125,0.140625
964,-0.97265625,-0.13671875,0.1640625
965,-0.98046875,-0.12890625,0.16796875
966,-0.9765625,-0.12890625,0.16015625
967,-0.97265625,-0.13671875,0.16796875
968,-0.96484375,-0.1328125,0.140625
969,-0.9609375,-0.12890625,0.1484375
970,-0.98046875,-0.11328125,0.16015625
971,-0.95703125,-0.12109375,0.16796875
972,-0.9453125,-0.11328125,0.17578125
973,-0.9765625,-0.1171875,0.16796875
974,-0.97265625,-0.1171875,0.16015625
975,-0.984375,-0.11328125,0.15625
976,-0.9765625,-0.11328125,0.1484375
977,-0.984375,-0.109375,0.1484375
978,-0.9765625,-0.109375,0.1640625
979,-0.98046875,-0.1171875,0.16015625
980,-0.9921875,-0.1171875,0.16015625
981,-0.97265625,-0.125,0.14453125
982,-0.984375,-0.11328125,0.15234375
983,-0.9921875,-0.1171875,0.140625
984,-0.9765625,-0.1328125,0.15234375
985,-0.96875,-0.12109375,0.14453125
986,-0.9765625,-0.12890625,0.15234375
987,-0.97265625,-0.1328125,0.1484375
988,-0.9765625,-0.125,0.140625
989,-0.984375,-0.125,0.140625
990,-0.96875,-0.125,0.14453125
991,-0.98046875,-0.125,0.13671875
992,-0.9765625,-0.1171875,0.14453125
993,-0.984375,-0.11328125,0.140625
994,-0.984375,-0.1328125,0.12890625
995,-0.984375,-0.125,0.14453125
996,-0.98046875,-0.140625,0.15234375
997,-0.984375,-0.14453125,0.14453125
998,-0.99609375,-0.13671875,0.13671875
999,-0.97265625,-0.140625,0.15234375
1000,-0.9765625,-0.15234375,0.15234375
1001,-0.984375,-0.13671875,0.15625
1002,-0.98828125,-0.16015625,0.1484375
1003,-0.984375,-0.14453125,0.13671875
1004,-0.98828125,-0.125,0.1328125
1005,-0.98828125,-0.12890625,0.13671875
1006,-0.9921875,-0.12890625,0.1484375
1007,-1.00390625,-0.12109375,0.13671875
1008,-0.99609375,-0.12109375,0.12890625
1009,-1.00390625,-0.125,0.13671875
1010,-0.98046875,-0.140625,0.15234375
1011,-0.984375,-0.1328125,0.16796875
1012,-0.984375,-0.1484375,0.15625
1013,-0.9765625,-0.15234375,0.15625
1014,-0.96875,-0.1796875,0.171875
1015,-0.9921875,-0.16796875,0.1875
1016,-0.9453125,-0.1796875,0.1796875
1017,-0.94921875,-0.1640625,0.1875
1018,-0.94140625,-0.16015625,0.18359375
1019,-0.94140625,-0.16015625,0.19140625
1020,-0.9609375,-0.14453125,0.1875
1021,-0.97265625,-0.1484375,0.1875
1022,-0.984375,-0.1328125,0.1953125
1023,-0.97265625,-0.13671875,0.18359375
1024,-0.9765625,-0.13671875,0.1796875
1025,-0.96875,-0.125,0.1875
1026,-0.95703125,-0.11328125,0.2109375
1027,-0.95703125,-0.125,0.1953125
1028,-0.94921875,-0.1171875,0.1875
1029,-0.9375,-0.1171875,0.1953125
1030,-0.9453125,-0.1015625,0.19921875
1031,-0.9375,-0.1171875,0.1953125
1032,-0.9609375,-0.09375,0.19921875
1033,-0.953125,-0.09375,0.18359375
1034,-0.953125,-0.11328125,0.19140625
1035,-0.9609375,-0.12109375,0.18359375
1036,-0.97265625,-0.1171875,0.15625
1037,-0.9921875,-0.12109375,0.15234375
1038,-0.96484375,-0.125,0.1640625
1039,-0.96484375,-0.140625,0.1640625
1040,-0.97265625,-0.14453125,0.1640625
1041,-0.96875,-0.14453125,0.171875
1042,-0.96875,-0.1328125,0.17578125
1043,-0.95703125,-0.15625,0.1640625
1044,-0.9609375,-0.15234375,0.171875
1045,-0.96875,-0.140625,0.16796875
1046,-0.98046875,-0.140625,0.16015625
1047,-0.9609375,-0.13671875,0.15625
1048,-0.96875,-0.15234375,0.1640625
1049,-0.96484375,-0.12109375,0.15234375
1050,-0.97265625,-0.1171875,0.16015625
1051,-0.97265625,-0.125,0.16796875
1052,-0.97265625,-0.1171875,0.17578125
1053,-0.96875,-0.12109375,0.18359375
1054,-0.97265625,-0.10546875,0.18359375
1055,-0.96875,-0.1015625,0.1796875
1056,-0.953125,-0.1171875,0.1640625
1057,-0.96484375,-0.109375,0.171875
1058,-0.96484375,-0.109375,0.15625
1059,-1.0234375,-0.08203125,0.1484375
1060,-0.98046875,-0.10546875,0.13671875
1061,-0.99609375,-0.10546875,0.12109375
1062,-1.0,-0.10546875,0.125
1063,-0.98828125,-0.11328125,0.1484375
1064,-1.0,-0.1015625,0.12109375
1065,-0.9921875,-0.10546875,0.12890625
1066,-0.984375,-0.08984375,0.109375
1067,-0.9921875,-0.1015625,0.12890625
1068,-0.97265625,-0.109375,0.12890625
1069,-0.96875,-0.1015625,0.140625
1070,-0.9609375,-0.09765625,0.140625
1071,-0.97265625,-0.08984375,0.125
1072,-0.96875,-0.1015625,0.12890625
1073,-0.9609375,-0.09765625,0.125
1074,-0.96875,-0.09375,0.11328125
1075,-0.984375,-0.0859375,0.12109375
1076,-0.98828125,-0.08984375,0.10546875
1077,-1.0,-0.08984375,0.1015625
1078,-1.00390625,-0.1015625,0.09375
1079,-1.0234375,-0.09765625,0.09375
1080,-1.0390625,-0.1015625,0.09765625
1081,-1.03515625,-0.11328125,0.0859375
1082,-1.0625,-0.11328125,0.07421875
1083,-1.0625,-0.125,0.078125
1084,-1.0703125,-0.1328125,0.0859375
1085,-1.0546875,-0.140625,0.09765625
1086,-1.05078125,-0.1328125,0.1015625
1087,-1.05078125,-0.125,0.08984375
1088,-1.01953125,-0.1171875,0.1015625
1089,-1.0078125,-0.1171875,0.1171875
1090,-0.9921875,-0.1171875,0.109375
1091,-1.02734375,-0.11328125,0.1171875
1092,-0.984375,-0.12109375,0.09765625
1093,-0.9765625,-0.109375,0.10546875
1094,-0.97265625,-0.10546875,0.1015625
1095,-0.98828125,-0.0859375,0.08984375
1096,-0.984375,-0.09765625,0.08984375
1097,-0.98046875,-0.08203125,0.1015625
1098,-0.984375,-0.08203125,0.08984375
1099,-0.98828125,-0.09375,0.109375
1100,-0.984375,-0.1015625,0.1015625
1101,-0.9765625,-0.1015625,0.11328125
1102,-0.99609375,-0.11328125,0.09765625
1103,-0.99609375,-0.08203125,0.09375
1104,-0.9921875,-0.0859375,0.10546875
1105,-0.99609375,-0.08203125,0.1015625
1106,-0.984375,-0.1015625,0.09375
1107,-0.99609375,-0.1015625,0.11328125
1108,-1.0078125,-0.09765625,0.1171875
1109,-1.0078125,-0.08984375,0.109375
1110,-1.015625,-0.08203125,0.125
1111,-1.0078125,-0.0859375,0.12109375
1112,-1.01171875,-0.08203125,0.09375
1113,-1.00390625,-0.0546875,0.09765625
1114,-1.0,-0.08984375,0.09765625
1115,-1.00390625,-0.0859375,0.0859375
1116,-1.0078125,-0.09375,0.109375
1117,-1.0,-0.09375,0.0859375
1118,-1.00390625,-0.08984375,0.08984375
1119,-1.01953125,-0.08984375,0.09765625
1120,-1.00390625,-0.09765625,0.09375
1121,-1.015625,-0.0859375,0.08984375
1122,-1.01953125,-0.078125,0.0859375
1123,-1.0078125,-0.09375,0.08203125
1124,-0.98828125,-0.08984375,0.11328125
1125,-1.01171875,-0.08984375,0.1015625
1126,-1.0,-0.08203125,0.0859375
1127,-1.01171875,-0.07421875,0.1015625
1128,-1.0078125,-0.07421875,0.078125
1129,-1.00390625,-0.0859375,0.08984375
1130,-1.0,-0.08203125,0.109375
1131,-1.00390625,-0.08203125,0.08203125
1132,-1.015625,-0.0703125,0.11328125
1133,-1.01171875,-0.078125,0.109375
1134,-1.00390625,-0.07421875,0.10546875
1135,-1.01171875,-0.08203125,0.12109375
1136,-1.01171875,-0.07421875,0.1015625
1137,-1.01171875,-0.078125,0.1015625
1138,-1.015625,-0.07421875,0.1015625
1139,-1.0078125,-0.07421875,0.109375
1140,-1.00390625,-0.08203125,0.109375
1141,-1.0078125,-0.07421875,0.10546875
1142,-1.00390625,-0.07421875,0.11328125
1143,-1.01171875,-0.08203125,0.10546875
1144,-1.0078125,-0.08203125,0.11328125
1145,-1.00390625,-0.06640625,0.12890625
1146,-1.00390625,-0.08203125,0.10546875
1147,-1.0,-0.078125,0.109375
1148,-1.0,-0.08203125,0.09375
1149,-1.00390625,-0.08984375,0.12109375
1150,-1.00390625,-0.08984375,0.10546875
1151,-1.0078125,-0.08984375,0.10546875
1152,-1.00390625,-0.08984375,0.10546875
1153,-0.9921875,-0.11328125,0.12109375
1154,-0.9921875,-0.0859375,0.12109375
1155,-0.9921875,-0.1015625,0.12890625
1156,-0.9921875,-0.125,0.12109375
1157,-0.98828125,-0.1015625,0.125
1158,-1.00390625,-0.09765625,0.13671875
1159,-0.99609375,-0.10546875,0.140625
1160,-0.984375,-0.10546875,0.12890625
1161,-0.984375,-0.09765625,0.1328125
1162,-0.984375,-0.10546875,0.12890625
1163,-0.98828125,-0.09765625,0.125
1164,-0.9921875,-0.1015625,0.12109375
1165,-0.98828125,-0.09765625,0.109375
1166,-0.984375,-0.1015625,0.1015625
1167,-0.984375,-0.09765625,0.10546875
1168,-0.984375,-0.08984375,0.09765625
1169,-0.98828125,-0.08984375,0.1171875
1170,-1.00390625,-0.07421875,0.09765625
1171,-0.9921875,-0.0859375,0.09375
1172,-0.99609375,-0.08984375,0.1015625
1173,-0.9921875,-0.08984375,0.09765625
1174,-0.9921875,-0.078125,0.11328125
1175,-1.00390625,-0.078125,0.1015625
1176,-0.98828125,-0.08984375,0.09375
1177,-1.01953125,-0.08203125,0.09765625
1178,-1.01171875,-0.09375,0.10546875
1179,-1.0,-0.0859375,0.109375
1180,-1.0078125,-0.0859375,0.10546875
1181,-0.99609375,-0.09765625,0.1015625
1182,-1.0078125,-0.08984375,0.1171875
1183,-1.00390625,-0.08203125,0.11328125
1184,-1.0078125,-0.08203125,0.12109375
1185,-1.0078125,-0.0859375,0.125
1186,-1.0,-0.078125,0.11328125
1187,-0.9921875,-0.078125,0.10546875
1188,-1.0,-0.0703125,0.12109375
1189,-0.9921875,-0.0859375,0.11328125
1190,-1.0,-0.078125,0.109375
1191,-0.99609375,-0.078125,0.08984375
1192,-0.9921875,-0.07421875,0.109375
1193,-0.9921875,-0.078125,0.12890625
1194,-0.99609375,-0.0859375,0.11328125
1195,-0.99609375,-0.08203125,0.1171875
1196,-1.0,-0.078125,0.1171875
1197,-0.984375,-0.07421875,0.12890625
1198,-0.99609375,-0.078125,0.109375
1199,-1.0,-0.0859375,0.1171875
1200,-1.00390625,-0.078125,0.12109375
1201,-0.9921875,-0.0703125,0.125
1202,-1.0,-0.078125,0.12109375
1203,-1.0,-0.08203125,0.12109375
1204,-0.9921875,-0.0859375,0.1171875
1205,-1.00390625,-0.08984375,0.10546875
1206,-1.00390625,-0.07421875,0.109375
1207,-0.98828125,-0.09765625,0.1171875
1208,-1.00390625,-0.09375,0.11328125
1209,-0.99609375,-0.078125,0.12890625
1210,-0.99609375,-0.08984375,0.12890625
1211,-0.9921875,-0.08984375,0.125
1212,-0.984375,-0.08203125,0.125
1213,-0.99609375,-0.078125,0.13671875
1214,-1.0,-0.078125,0.125
1215,-0.99609375,-0.0859375,0.1328125
1216,-0.99609375,-0.08203125,0.1328125
1217,-0.98828125,-0.0703125,0.14453125
1218,-0.98828125,-0.08203125,0.12890625
1219,-0.9921875,-0.07421875,0.13671875
1220,-0.98046875,-0.08203125,0.1328125
1221,-0.984375,-0.078125,0.12890625
1222,-0.9921875,-0.0703125,0.15234375
1223,-0.98046875,-0.0859375,0.13671875
1224,-0.98828125,-0.0703125,0.1328125
1225,-0.9921875,-0.078125,0.125
1226,-0.98046875,-0.08203125,0.125
1227,-0.984375,-0.08984375,0.13671875
1228,-0.99609375,-0.07421875,0.11328125
1229,-0.99609375,-0.07421875,0.140625
1230,-0.984375,-0.0859375,0.13671875
1231,-0.98046875,-0.0859375,0.125
1232,-0.9765625,-0.08984375,0.12890625
1233,-1.0,-0.08203125,0.14453125
1234,-0.98828125,-0.0859375,0.12890625
1235,-0.984375,-0.08984375,0.1328125
1236,-0.98046875,-0.0859375,0.12890625
1237,-0.984375,-0.078125,0.1171875
1238,-0.99609375,-0.078125,0.1484375
1239,-0.98828125,-0.08984375,0.1171875
1240,-0.98828125,-0.0859375,0.12890625
1241,-0.98828125,-0.09375,0.12890625
1242,-0.98046875,-0.0859375,0.16015625
1243,-0.9765625,-0.08203125,0.1328125
1244,-0.98828125,-0.078125,0.13671875
1245,-0.984375,-0.07421875,0.15234375
1246,-0.98828125,-0.0859375,0.140625
1247,-0.98046875,-0.07421875,0.1328125
1248,-0.98046875,-0.0703125,0.1328125
1249,-0.9921875,-0.0703125,0.140625
1250,-0.99609375,-0.078125,0.13671875
1251,-0.98828125,-0.0625,0.14453125
1252,-1.00390625,-0.06640625,0.12109375
1253,-1.0,-0.06640625,0.125
1254,-0.99609375,-0.0859375,0.125
1255,-1.01171875,-0.07421875,0.109375
1256,-1.0078125,-0.06640625,0.12890625
1257,-1.00390625,-0.0625,0.1328125
1258,-1.0,-0.07421875,0.1328125
1259,-0.99609375,-0.0703125,0.1328125
1260,-1.0,-0.0703125,0.125
1261,-1.01171875,-0.06640625,0.12890625
1262,-0.9921875,-0.078125,0.140625
1263,-1.01953125,-0.0625,0.12109375
1264,-0.99609375,-0.078125,0.1328125
1265,-0.99609375,-0.0859375,0.15625
1266,-1.00390625,-0.0859375,0.125
1267,-1.0,-0.078125,0.1328125
1268,-0.98828125,-0.07421875,0.12890625
1269,-0.98046875,-0.08203125,0.125
1270,-0.9921875,-0.0859375,0.12109375
1271,-0.9921875,-0.0859375,0.14453125
1272,-0.98828125,-0.08984375,0.12109375
1273,-0.98828125,-0.08984375,0.13671875
1274,-0.984375,-0.0859375,0.14453125
1275,-1.0,-0.078125,0.1171875
1276,-0.98046875,-0.08203125,0.14453125
1277,-0.98046875,-0.0859375,0.13671875
1278,-0.98828125,-0.0859375,0.13671875
1279,-0.96484375,-0.1015625,0.14453125
1280,-0.98828125,-0.08984375,0.15234375
1281,-0.98828125,-0.0859375,0.14453125
1282,-1.0,-0.0859375,0.1484375
1283,-1.00390625,-0.08984375,0.12890625
1284,-0.9921875,-0.0859375,0.140625
1285,-0.99609375,-0.08984375,0.12890625
1286,-0.9765625,-0.08984375,0.140625
1287,-0.99609375,-0.07421875,0.125
1288,-0.984375,-0.07421875,0.1328125
1289,-0.98828125,-0.0703125,0.13671875
1290,-0.98828125,-0.0625,0.1484375
1291,-0.9921875,-0.06640625,0.1328125
1292,-1.0,-0.078125,0.140625
1293,-0.98828125,-0.0859375,0.1328125
1294,-0.98828125,-0.07421875,0.140625
1295,-0.98046875,-0.0703125,0.14453125
1296,-0.984375,-0.078125,0.13671875
1297,-1.0,-0.078125,0.1328125
1298,-1.0,-0.078125,0.14453125
1299,-0.99609375,-0.0703125,0.13671875
1300,-1.00390625,-0.0625,0.12890625
1301,-1.00390625,-0.078125,0.12109375
1302,-0.99609375,-0.078125,0.1328125
1303,-1.0,-0.07421875,0.1328125
1304,-0.984375,-0.07421875,0.1328125
1305,-0.99609375,-0.08203125,0.12109375
1306,-1.01171875,-0.0703125,0.1484375
1307,-0.9765625,-0.078125,0.1328125
1308,-1.00390625,-0.08984375,0.12109375
1309,-1.00390625,-0.06640625,0.14453125
1310,-1.0,-0.078125,0.14453125
1311,-0.9921875,-0.08203125,0.13671875
1312,-0.9921875,-0.07421875,0.12890625
1313,-0.984375,-0.07421875,0.13671875
1314,-0.984375,-0.0703125,0.1328125
1315,-0.984375,-0.0859375,0.140625
1316,-0.9921875,-0.078125,0.15234375
1317,-1.01171875,-0.0859375,0.1328125
1318,-0.984375,-0.08203125,0.140625
1319,-0.98828125,-0.078125,0.15234375
1320,-0.98046875,-0.0859375,0.1484375
1321,-0.98828125,-0.08203125,0.140625
1322,-0.96875,-0.07421875,0.12890625
1323,-0.9921875,-0.07421875,0.12890625
1324,-0.98828125,-0.07421875,0.140625
1325,-0.99609375,-0.08203125,0.12890625
1326,-0.98828125,-0.0859375,0.14453125
1327,-0.98046875,-0.0859375,0.13671875
1328,-0.98828125,-0.078125,0.12890625
1329,-0.98828125,-0.0859375,0.12890625
1330,-1.00390625,-0.0859375,0.12890625
1331,-0.9921875,-0.08203125,0.140625
1332,-0.98828125,-0.0859375,0.12890625
1333,-0.99609375,-0.0859375,0.15625
1334,-1.0,-0.0859375,0.1171875
1335,-0.9921875,-0.0859375,0.13671875
1336,-0.98828125,-0.0859375,0.1328125
1337,-0.99609375,-0.1015625,0.1328125
1338,-1.0078125,-0.08203125,0.13671875
1339,-0.99609375,-0.078125,0.12890625
1340,-0.9921875,-0.078125,0.125
1341,-0.98046875,-0.0859375,0.14453125
1342,-0.99609375,-0.078125,0.15625
1343,-0.98828125,-0.0703125,0.13671875
1344,-0.98828125,-0.078125,0.1484375
1345,-1.0,-0.07421875,0.14453125
1346,-0.984375,-0.08203125,0.14453125
1347,-0.98046875,-0.0859375,0.12890625
1348,-0.9765625,-0.09375,0.12890625
1349,-0.98046875,-0.078125,0.140625
1350,-0.96484375,-0.0859375,0.1171875
1351,-0.984375,-0.06640625,0.1328125
1352,-0.98046875,-0.07421875,0.13671875
1353,-0.9921875,-0.078125,0.140625
1354,-0.98046875,-0.0859375,0.13671875
1355,-0.99609375,-0.078125,0.12109375
1356,-0.984375,-0.0859375,0.1484375
1357,-0.984375,-0.0703125,0.1328125
1358,-0.984375,-0.078125,0.1328125
1359,-0.98828125,-0.08203125,0.1328125
1360,-0.984375,-0.07421875,0.140625
1361,-0.9921875,-0.07421875,0.15234375
1362,-1.015625,-0.08984375,0.12890625
1363,-0.99609375,-0.07421875,0.140625
1364,-0.98828125,-0.0859375,0.14453125
1365,-0.9921875,-0.078125,0.1484375
1366,-0.98828125,-0.08984375,0.140625
1367,-0.98828125,-0.0859375,0.14453125
1368,-0.9921875,-0.09375,0.140625
1369,-0.98828125,-0.08203125,0.14453125
1370,-0.98828125,-0.08203125,0.1328125
1371,-0.9921875,-0.08203125,0.15625
1372,-1.0,-0.06640625,0.14453125
1373,-0.9921875,-0.07421875,0.1171875
1374,-0.99609375,-0.08203125,0.13671875
1375,-0.98046875,-0.0859375,0.140625
1376,-0.984375,-0.07421875,0.15234375
1377,-0.98046875,-0.0859375,0.1328125
1378,-0.9921875,-0.08203125,0.1328125
1379,-0.98046875,-0.09375,0.13671875
1380,-0.9921875,-0.078125,0.14453125
1381,-0.9921875,-0.0859375,0.140625
1382,-0.98046875,-0.08203125,0.14453125
1383,-0.9921875,-0.078125,0.15234375
1384,-0.99609375,-0.078125,0.1328125
1385,-0.9921875,-0.08203125,0.15234375
1386,-0.9921875,-0.08203125,0.15234375
1387,-0.98828125,-0.08203125,0.13671875
1388,-0.98046875,-0.0859375,0.1171875
1389,-0.98828125,-0.0859375,0.15234375
1390,-0.98046875,-0.08203125,0.1328125
1391,-0.98828125,-0.078125,0.12890625
1392,-0.98828125,-0.0859375,0.1328125
1393,-1.0,-0.07421875,0.1328125
1394,-0.99609375,-0.078125,0.1328125
1395,-0.99609375,-0.07421875,0.15234375
1396,-0.9921875,-0.0703125,0.15234375
1397,-0.99609375,-0.078125,0.14453125
1398,-0.99609375,-0.08203125,0.1328125
1399,-0.98828125,-0.08203125,0.140625
1400,-0.98828125,-0.078125,0.125
1401,-0.984375,-0.078125,0.14453125
1402,-0.98828125,-0.08203125,0.13671875
1403,-0.98828125,-0.08203125,0.140625
1404,-0.9921875,-0.08984375,0.16015625
1405,-0.984375,-0.0859375,0.140625
1406,-0.97265625,-0.11328125,0.12109375
1407,-0.984375,-0.078125,0.1328125
1408,-0.98828125,-0.08203125,0.15234375
1409,-0.9921875,-0.07421875,0.13671875
1410,-0.984375,-0.07421875,0.1328125
1411,-1.0,-0.06640625,0.14453125
1412,-0.98046875,-0.07421875,0.1171875
1413,-1.00390625,-0.05859375,0.1328125
1414,-1.0,-0.08203125,0.140625
1415,-0.98046875,-0.07421875,0.140625
1416,-0.98828125,-0.05859375,0.16015625
1417,-0.99609375,-0.06640625,0.13671875
1418,-0.99609375,-0.078125,0.14453125
1419,-0.99609375,-0.08203125,0.140625
1420,-1.0,-0.078125,0.1328125
1421,-1.0,-0.07421875,0.15234375
1422,-0.99609375,-0.08203125,0.15625
1423,-0.9921875,-0.08984375,0.1484375
1424,-0.99609375,-0.09375,0.13671875
1425,-0.9921875,-0.09375,0.12890625
1426,-0.98046875,-0.09375,0.14453125
1427,-0.97265625,-0.09765625,0.1484375
1428,-1.0234375,-0.08203125,0.16015625
1429,-0.98046875,-0.0859375,0.1328125
1430,-0.9921875,-0.07421875,0.15625
1431,-1.0,-0.078125,0.1484375
1432,-0.984375,-0.08984375,0.1328125
1433,-0.984375,-0.078125,0.13671875
1434,-0.9921875,-0.07421875,0.1328125
1435,-0.98828125,-0.08203125,0.1484375
1436,-0.98828125,-0.078125,0.1328125
1437,-0.99609375,-0.0859375,0.13671875
1438,-1.0,-0.0625,0.12890625
1439,-0.96484375,-0.078125,0.17578125
1440,-0.9765625,-0.07421875,0.140625
1441,-0.984375,-0.09375,0.1484375
1442,-0.984375,-0.08203125,0.140625
1443,-0.98828125,-0.0703125,0.1484375
1444,-0.99609375,-0.07421875,0.1484375
1445,-0.984375,-0.08203125,0.12890625
1446,-0.99609375,-0.07421875,0.13671875
1447,-0.97265625,-0.08203125,0.14453125
1448,-0.9921875,-0.08203125,0.1328125
1449,-0.99609375,-0.0859375,0.15234375
1450,-0.96875,-0.13671875,0.14453125
1451,-0.98828125,-0.078125,0.15234375
1452,-0.99609375,-0.07421875,0.140625
1453,-0.99609375,-0.078125,0.12890625
1454,-0.98046875,-0.0859375,0.14453125
1455,-0.9921875,-0.078125,0.13671875
1456,-0.98828125,-0.09375,0.14453125
1457,-1.0,-0.078125,0.14453125
1458,-0.9921875,-0.0859375,0.13671875
1459,-0.984375,-0.09375,0.1328125
1460,-1.00390625,-0.06640625,0.13671875
1461,-0.97265625,-0.09765625,0.13671875
1462,-1.0,-0.08203125,0.140625
1463,-0.984375,-0.0703125,0.140625
1464,-0.984375,-0.078125,0.14453125
1465,-0.98828125,-0.08203125,0.13671875
1466,-0.984375,-0.078125,0.1328125
1467,-0.98828125,-0.07421875,0.13671875
1468,-0.98046875,-0.07421875,0.1328125
1469,-0.99609375,-0.078125,0.13671875
1470,-0.9921875,-0.08203125,0.15234375
1471,-0.984375,-0.078125,0.109375
1472,-0.98046875,-0.04296875,0.125
1473,-0.984375,-0.08203125,0.14453125
1474,-0.9921875,-0.08203125,0.1328125
1475,-0.9921875,-0.08203125,0.12890625
1476,-0.99609375,-0.08984375,0.13671875
1477,-0.98828125,-0.08203125,0.1328125
1478,-0.9921875,-0.08203125,0.1171875
1479,-0.99609375,-0.0859375,0.14453125
1480,-0.99609375,-0.09375,0.140625
1481,-0.99609375,-0.0703125,0.109375
1482,-0.98828125,-0.09765625,0.125
1483,-0.98046875,-0.0859375,0.14453125
1484,-0.98828125,-0.08203125,0.1328125
1485,-0.9765625,-0.0859375,0.1484375
1486,-0.98828125,-0.08203125,0.1328125
1487,-0.984375,-0.08203125,0.140625
1488,-1.00390625,-0.08203125,0.140625
1489,-0.98046875,-0.08203125,0.14453125
1490,-1.0,-0.08203125,0.1484375
1491,-0.98828125,-0.078125,0.1484375
1492,-0.98046875,-0.1015625,0.125
1493,-0.984375,-0.078125,0.15625
1494,-0.98828125,-0.078125,0.13671875
1495,-0.98828125,-0.0703125,0.14453125
1496,-0.9765625,-0.08203125,0.140625
1497,-0.984375,-0.08203125,0.140625
1498,-0.98046875,-0.08984375,0.14453125
1499,-0.97265625,-0.0859375,0.1484375
1500,-0.98046875,-0.09375,0.1484375
1501,-0.984375,-0.08203125,0.140625
1502,-0.9921875,-0.078125,0.140625
1503,-0.984375,-0.07421875,0.1171875
1504,-1.0,-0.08203125,0.140625
1505,-0.984375,-0.08203125,0.1484375
1506,-1.00390625,-0.078125,0.1484375
1507,-0.9765625,-0.08984375,0.1484375
1508,-0.99609375,-0.078125,0.14453125
1509,-0.984375,-0.078125,0.1484375
1510,-0.98828125,-0.078125,0.14453125
1511,-0.97265625,-0.078125,0.1328125
1512,-1.0,-0.078125,0.140625
1513,-1.0,-0.078125,0.140625
1514,-0.98828125,-0.09375,0.14453125
1515,-0.98828125,-0.0625,0.15625
1516,-0.98828125,-0.08984375,0.15234375
1517,-1.0,-0.08984375,0.15625
1518,-0.984375,-0.08203125,0.140625
1519,-0.9921875,-0.0859375,0.14453125
1520,-0.98828125,-0.08984375,0.1328125
1521,-0.984375,-0.078125,0.140625
1522,-0.98828125,-0.078125,0.15234375
1523,-0.9921875,-0.078125,0.15234375
1524,-0.99609375,-0.07421875,0.14453125
1525,-0.99609375,-0.08984375,0.1484375
1526,-0.97265625,-0.0859375,0.1328125
1527,-0.98046875,-0.0859375,0.15625
1528,-0.98828125,-0.08203125,0.140625
1529,-0.9921875,-0.078125,0.14453125
1530,-0.98828125,-0.078125,0.16796875
1531,-0.9921875,-0.08984375,0.140625
1532,-0.9921875,-0.07421875,0.14453125
1533,-0.984375,-0.0859375,0.1484375
1534,-0.99609375,-0.08203125,0.140625
1535,-0.9921875,-0.078125,0.15625
1536,-0.97265625,-0.09375,0.14453125
1537,-1.0,-0.0703125,0.140625
1538,-1.0,-0.07421875,0.1484375
1539,-0.984375,-0.07421875,0.1328125
1540,-0.99609375,-0.07421875,0.140625
1541,-0.9765625,-0.0703125,0.15625
1542,-0.99609375,-0.07421875,0.13671875
1543,-0.98828125,-0.07421875,0.14453125
1544,-0.99609375,-0.0859375,0.13671875
1545,-0.98828125,-0.06640625,0.12890625
1546,-0.9921875,-0.08984375,0.12890625
1547,-0.99609375,-0.0703125,0.14453125
1548,-0.9765625,-0.07421875,0.1328125
1549,-0.9921875,-0.0859375,0.12890625
1550,-0.99609375,-0.078125,0.13671875
1551,-0.9921875,-0.08203125,0.15234375
1552,-0.9921875,-0.0859375,0.15234375
1553,-0.98046875,-0.09765625,0.15625
1554,-0.9765625,-0.078125,0.1484375
1555,-0.984375,-0.08203125,0.1484375
1556,-0.98828125,-0.09375,0.140625
1557,-0.984375,-0.09375,0.140625
1558,-0.984375,-0.078125,0.15625
1559,-0.984375,-0.0703125,0.14453125
1560,-0.9921875,-0.078125,0.14453125
1561,-0.98828125,-0.0859375,0.125
1562,-0.98046875,-0.07421875,0.13671875
1563,-0.99609375,-0.0625,0.12109375
1564,-0.99609375,-0.0703125,0.1484375
1565,-1.0,-0.07421875,0.1484375
1566,-0.9921875,-0.0625,0.1328125
1567,-0.98828125,-0.078125,0.15234375
1568,-0.98046875,-0.078125,0.16015625
1569,-1.00390625,-0.078125,0.1640625
1570,-1.0078125,-0.0859375,0.16015625
1571,-0.99609375,-0.08203125,0.1640625
1572,-1.01171875,-0.0859375,0.14453125
1573,-1.0,-0.08984375,0.16015625
1574,-0.9921875,-0.08984375,0.15234375
1575,-0.99609375,-0.078125,0.1484375
1576,-0.984375,-0.08984375,0.16015625
1577,-0.99609375,-0.0703125,0.16015625
1578,-1.015625,-0.06640625,0.140625
1579,-0.99609375,-0.07421875,0.140625
1580,-0.9921875,-0.08984375,0.13671875
1581,-0.98828125,-0.07421875,0.15625
1582,-1.0,-0.08203125,0.1484375
1583,-0.98828125,-0.1015625,0.15234375
1584,-1.0078125,-0.08984375,0.1484375
1585,-1.00390625,-0.0859375,0.1484375
1586,-1.015625,-0.07421875,0.14453125
1587,-1.0078125,-0.07421875,0.12890625
1588,-0.98828125,-0.0703125,0.13671875
1589,-0.96484375,-0.0703125,0.12890625
1590,-0.95703125,-0.08984375,0.140625
1591,-0.96484375,-0.0859375,0.13671875
1592,-0.94921875,-0.0859375,0.14453125
1593,-0.97265625,-0.08203125,0.13671875
1594,-0.9765625,-0.1015625,0.12890625
1595,-0.984375,-0.0859375,0.12890625
1596,-0.98046875,-0.09765625,0.13671875
1597,-0.99609375,-0.10546875,0.12109375
1598,-0.99609375,-0.1171875,0.12890625
1599,-1.0,-0.12109375,0.13671875
1600,-1.00390625,-0.11328125,0.12109375
1601,-0.99609375,-0.109375,0.13671875
1602,-0.99609375,-0.09765625,0.14453125
1603,-1.0,-0.0859375,0.1328125
1604,-1.0078125,-0.09765625,0.12109375
1605,-1.0078125,-0.08984375,0.1015625
1606,-1.0078125,-0.08984375,0.1171875
1607,-1.00390625,-0.07421875,0.1171875
1608,-1.0078125,-0.0859375,0.09375
1609,-1.00390625,-0.0703125,0.09375
1610,-1.00390625,-0.0859375,0.09375
1611,-1.0078125,-0.08984375,0.1015625
1612,-1.00390625,-0.08203125,0.11328125
1613,-1.0,-0.09765625,0.1015625
1614,-1.0,-0.1015625,0.11328125
1615,-1.0,-0.10546875,0.109375
1616,-0.9921875,-0.09765625,0.12890625
1617,-0.99609375,-0.08203125,0.12890625
1618,-0.9921875,-0.09375,0.125
1619,-0.9765625,-0.1015625,0.1328125
1620,-0.9921875,-0.09375,0.14453125
1621,-0.96875,-0.1015625,0.140625
1622,-0.9765625,-0.09375,0.140625
1623,-0.98046875,-0.078125,0.1484375
1624,-0.97265625,-0.1015625,0.15625
1625,-0.9765625,-0.1015625,0.15625
1626,-0.98046875,-0.09375,0.14453125
1627,-0.9765625,-0.1015625,0.1484375
1628,-0.984375,-0.0859375,0.15234375
1629,-0.97265625,-0.10546875,0.14453125
1630,-0.984375,-0.0859375,0.1640625
1631,-0.9765625,-0.09765625,0.1640625
1632,-0.9765625,-0.1015625,0.1484375
1633,-0.98046875,-0.09375,0.1484375
1634,-0.96875,-0.09375,0.1640625
1635,-0.9609375,-0.10546875,0.171875
1636,-0.96875,-0.1015625,0.16796875
1637,-0.9765625,-0.0859375,0.16015625
1638,-0.98046875,-0.0859375,0.15234375
1639,-0.9765625,-0.0859375,0.16015625
1640,-0.9765625,-0.09375,0.16015625
1641,-0.97265625,-0.078125,0.15234375
1642,-0.96875,-0.08984375,0.15234375
1643,-0.96875,-0.07421875,0.17578125
1644,-0.97265625,-0.0703125,0.15234375
1645,-0.96484375,-0.06640625,0.15625
1646,-0.98046875,-0.05859375,0.1484375
1647,-0.98046875,-0.0703125,0.14453125
1648,-0.97265625,-0.078125,0.1484375
1649,-0.98046875,-0.08203125,0.1484375
1650,-0.98046875,-0.09765625,0.13671875
1651,-0.9921875,-0.10546875,0.13671875
1652,-0.96875,-0.1015625,0.14453125
1653,-0.98046875,-0.12109375,0.140625
1654,-0.96875,-0.13671875,0.15234375
1655,-0.984375,-0.12109375,0.14453125
1656,-0.97265625,-0.11328125,0.14453125
1657,-0.9921875,-0.10546875,0.140625
1658,-0.98046875,-0.11328125,0.140625
1659,-0.9765625,-0.11328125,0.1484375
1660,-0.98046875,-0.0859375,0.14453125
1661,-0.98046875,-0.078125,0.140625
1662,-0.98046875,-0.08203125,0.140625
1663,-1.00390625,-0.07421875,0.12109375
1664,-0.99609375,-0.078125,0.14453125
1665,-0.99609375,-0.08984375,0.140625
1666,-0.98828125,-0.1015625,0.12890625
1667,-1.0,-0.1015625,0.12109375
1668,-0.98046875,-0.13671875,0.12890625
1669,-0.98828125,-0.140625,0.13671875
1670,-0.984375,-0.13671875,0.1484375
1671,-0.984375,-0.15625,0.140625
1672,-0.984375,-0.16015625,0.140625
1673,-0.98828125,-0.13671875,0.140625
1674,-0.9765625,-0.14453125,0.140625
1675,-0.984375,-0.12109375,0.15234375
1676,-0.98828125,-0.12109375,0.125
1677,-1.0,-0.10546875,0.1328125
1678,-0.984375,-0.08984375,0.140625
1679,-1.0,-0.09375,0.1171875
1680,-1.00390625,-0.078125,0.09375
1681,-0.984375,-0.0859375,0.10546875
1682,-0.99609375,-0.08984375,0.125
1683,-0.9921875,-0.08203125,0.125
1684,-0.97265625,-0.07421875,0.1328125
1685,-0.99609375,-0.0703125,0.1328125
1686,-0.98828125,-0.078125,0.11328125
1687,-1.00390625,-0.08203125,0.13671875
1688,-1.0,-0.0859375,0.1171875
1689,-0.99609375,-0.11328125,0.109375
1690,-1.00390625,-0.125,0.10546875
1691,-1.0078125,-0.12890625,0.11328125
1692,-1.00390625,-0.13671875,0.1015625
1693,-0.9921875,-0.15234375,0.1171875
1694,-0.9921875,-0.140625,0.12109375
1695,-0.98828125,-0.13671875,0.109375
1696,-1.0078125,-0.11328125,0.109375
1697,-0.9921875,-0.11328125,0.12890625
1698,-1.00390625,-0.09765625,0.109375
1699,-1.0,-0.0859375,0.13671875
1700,-1.00390625,-0.09765625,0.10546875
1701,-1.01171875,-0.09375,0.10546875
1702,-1.00390625,-0.0859375,0.10546875
1703,-1.015625,-0.0703125,0.09765625
1704,-1.00390625,-0.078125,0.08984375
1705,-1.0078125,-0.0703125,0.08984375
1706,-1.00390625,-0.0859375,0.0859375
1707,-1.01171875,-0.09375,0.1015625
1708,-1.0,-0.109375,0.0859375
1709,-1.00390625,-0.12109375,0.09765625
1710,-0.984375,-0.12890625,0.09765625
1711,-0.9921875,-0.15625,0.0859375
1712,-0.9765625,-0.1484375,0.09765625
1713,-0.98046875,-0.16015625,0.1015625
1714,-0.98046875,-0.1484375,0.11328125
1715,-0.98046875,-0.140625,0.09375
1716,-0.9765625,-0.13671875,0.09765625
1717,-0.98046875,-0.14453125,0.09765625
1718,-0.9921875,-0.109375,0.08203125
1719,-0.9921875,-0.14453125,0.06640625
1720,-1.0,-0.11328125,0.0859375
1721,-0.98046875,-0.12890625,0.07421875
1722,-1.0078125,-0.10546875,0.08203125
1723,-0.9921875,-0.109375,0.078125
1724,-1.0,-0.10546875,0.08984375
1725,-1.0,-0.10546875,0.10546875
1726,-1.0078125,-0.109375,0.09375
1727,-1.0234375,-0.11328125,0.09375
1728,-1.01953125,-0.125,0.1015625
1729,-0.98828125,-0.140625,0.12109375
1730,-0.9765625,-0.1484375,0.12109375
1731,-0.9921875,-0.12890625,0.109375
1732,-0.98046875,-0.14453125,0.14453125
1733,-0.984375,-0.12890625,0.12109375
1734,-0.98828125,-0.12109375,0.1171875
1735,-0.97265625,-0.1328125,0.1171875
1736,-0.98046875,-0.125,0.140625
1737,-0.9765625,-0.12890625,0.1328125
1738,-0.97265625,-0.14453125,0.109375
1739,-0.98046875,-0.13671875,0.1171875
1740,-0.9609375,-0.1484375,0.1328125
1741,-0.953125,-0.14453125,0.125
1742,-0.953125,-0.13671875,0.11328125
1743,-0.95703125,-0.13671875,0.11328125
1744,-0.97265625,-0.140625,0.14453125
1745,-0.96875,-0.12890625,0.140625
1746,-0.98046875,-0.12109375,0.1328125
1747,-0.984375,-0.12109375,0.15234375
1748,-0.984375,-0.125,0.12890625
1749,-0.9921875,-0.1015625,0.1328125
1750,-0.9921875,-0.11328125,0.1328125
1751,-0.99609375,-0.11328125,0.125
1752,-1.0,-0.09375,0.125
1753,-0.9921875,-0.11328125,0.13671875
1754,-0.9921875,-0.12109375,0.12890625
1755,-1.0,-0.1015625,0.1015625
1756,-0.98046875,-0.1171875,0.13671875
1757,-0.98046875,-0.125,0.14453125
1758,-0.98828125,-0.125,0.140625
1759,-0.96875,-0.13671875,0.140625
1760,-0.98046875,-0.13671875,0.140625
1761,-0.98828125,-0.14453125,0.125
1762,-0.9921875,-0.13671875,0.125
1763,-1.0,-0.14453125,0.11328125
1764,-0.99609375,-0.14453125,0.11328125
1765,-1.0078125,-0.1484375,0.109375
1766,-0.99609375,-0.1328125,0.109375
1767,-0.99609375,-0.12109375,0.11328125
1768,-0.9921875,-0.109375,0.11328125
1769,-0.984375,-0.1171875,0.08984375
1770,-1.01171875,-0.09765625,0.1015625
1771,-0.99609375,-0.08984375,0.08984375
1772,-1.01171875,-0.0859375,0.1015625
1773,-1.0078125,-0.1015625,0.10546875
1774,-1.0,-0.10546875,0.1171875
1775,-0.9921875,-0.109375,0.0859375
1776,-1.02734375,-0.125,0.11328125
1777,-1.0,-0.1328125,0.0859375
1778,-0.99609375,-0.1484375,0.0859375
1779,-1.0,-0.140625,0.0859375
1780,-0.9921875,-0.140625,0.09765625
1781,-0.9921875,-0.1484375,0.09375
1782,-1.0,-0.1484375,0.09375
1783,-1.0,-0.140625,0.08984375
1784,-0.99609375,-0.1328125,0.11328125
1785,-1.0078125,-0.12890625,0.1015625
1786,-0.98828125,-0.125,0.08203125
1787,-0.97265625,-0.1171875,0.13671875
1788,-1.01171875,-0.12109375,0.08203125
1789,-1.0,-0.1171875,0.0703125
1790,-1.0078125,-0.125,0.07421875
1791,-1.00390625,-0.1328125,0.0625
1792,-1.0078125,-0.14453125,0.0703125
1793,-1.0078125,-0.14453125,0.0703125
1794,-1.01171875,-0.1328125,0.08984375
1795,-1.00390625,-0.125,0.1015625
1796,-1.0078125,-0.140625,0.078125
1797,-1.0,-0.12890625,0.10546875
1798,-1.01171875,-0.12109375,0.11328125
1799,-0.99609375,-0.11328125,0.09375
1800,-0.9921875,-0.109375,0.09765625
1801,-1.0,-0.11328125,0.0859375
1802,-0.99609375,-0.1015625,0.07421875
1803,-1.0,-0.1171875,0.05859375
1804,-0.99609375,-0.1484375,0.0703125
1805,-1.01953125,-0.16796875,0.06640625
1806,-1.00390625,-0.1875,0.0625
1807,-1.0,-0.18359375,0.07421875
1808,-0.99609375,-0.18359375,0.10546875
1809,-0.9921875,-0.16015625,0.0859375
1810,-0.984375,-0.1484375,0.09765625
1811,-0.96875,-0.12890625,0.09375
1812,-0.97265625,-0.109375,0.10546875
1813,-0.9765625,-0.09765625,0.10546875
1814,-0.984375,-0.08203125,0.09375
1815,-0.984375,-0.08203125,0.09375
1816,-0.9609375,-0.08203125,0.09765625
1817,-0.97265625,-0.07421875,0.1015625
1818,-0.984375,-0.08984375,0.09765625
1819,-0.98046875,-0.09765625,0.140625
1820,-0.97265625,-0.08984375,0.11328125
1821,-0.98046875,-0.08984375,0.10546875
1822,-0.96875,-0.109375,0.10546875
1823,-0.9921875,-0.11328125,0.08984375
1824,-0.99609375,-0.1171875,0.09765625
1825,-1.0,-0.12109375,0.08984375
1826,-1.01171875,-0.1328125,0.08984375
1827,-1.01171875,-0.13671875,0.1015625
1828,-1.015625,-0.140625,0.0859375
1829,-1.015625,-0.14453125,0.08203125
1830,-1.015625,-0.16015625,0.08203125
1831,-1.0078125,-0.15625,0.0703125
1832,-1.0,-0.1484375,0.0703125
1833,-0.984375,-0.13671875,0.0625
1834,-1.0078125,-0.1171875,0.0703125
1835,-1.0,-0.125,0.0625
1836,-1.00390625,-0.12109375,0.05078125
1837,-1.0,-0.140625,0.0703125
1838,-0.98828125,-0.125,0.0703125
1839,-0.97265625,-0.125,0.06640625
1840,-0.98046875,-0.12109375,0.06640625
1841,-0.97265625,-0.16015625,0.0703125
1842,-0.984375,-0.12890625,0.06640625
1843,-0.98046875,-0.13671875,0.0625
1844,-0.98046875,-0.15234375,0.06640625
1845,-0.9765625,-0.15234375,0.06640625
1846,-0.97265625,-0.16015625,0.0703125
1847,-0.98046875,-0.1640625,0.0625
1848,-0.98828125,-0.1640625,0.08984375
1849,-0.984375,-0.16796875,0.07421875
1850,-1.01171875,-0.15234375,0.09375
1851,-1.015625,-0.1484375,0.11328125
1852,-1.01953125,-0.1328125,0.1015625
1853,-1.05078125,-0.12109375,0.125
1854,-1.05078125,-0.1171875,0.109375
1855,-1.07421875,-0.0859375,0.09765625
1856,-1.06640625,-0.0859375,0.0703125
1857,-1.0625,-0.078125,0.03515625
1858,-1.0546875,-0.06640625,0.015625
1859,-1.04296875,-0.078125,-0.00390625
1860,-1.01953125,-0.08203125,-0.01953125
1861,-1.01953125,-0.08203125,-0.02734375
1862,-1.015625,-0.07421875,-0.046875
1863,-0.9765625,-0.078125,-0.015625
1864,-0.953125,-0.10546875,-0.01171875
1865,-0.9609375,-0.09375,0.0
1866,-0.95703125,-0.11328125,0.0234375
1867,-0.953125,-0.1328125,0.01953125
1868,-0.94140625,-0.1640625,0.02734375
1869,-0.9375,-0.171875,0.00390625
1870,-0.94140625,-0.171875,-0.0078125
1871,-0.95703125,-0.1796875,-0.015625
1872,-0.9765625,-0.18359375,-0.01953125
1873,-0.953125,-0.1875,-0.0078125
1874,-1.00390625,-0.17578125,0.0
1875,-1.01171875,-0.17578125,0.0
1876,-1.01953125,-0.171875,0.00390625
1877,-1.04296875,-0.16015625,0.00390625
1878,-1.046875,-0.16015625,0.00390625
1879,-1.05078125,-0.17578125,-0.00390625
1880,-1.05078125,-0.19140625,-0.02734375
1881,-1.05078125,-0.171875,-0.03515625
1882,-1.0390625,-0.1875,-0.05859375
1883,-1.03515625,-0.19921875,-0.06640625
1884,-1.0546875,-0.203125,-0.08203125
1885,-1.03125,-0.21484375,-0.08984375
1886,-1.03125,-0.2109375,-0.09765625
1887,-1.01953125,-0.20703125,-0.09765625
1888,-1.015625,-0.203125,-0.109375
1889,-1.00390625,-0.20703125,-0.08984375
1890,-0.984375,-0.203125,-0.09765625
1891,-1.0,-0.203125,-0.0859375
1892,-0.984375,-0.19921875,-0.0859375
1893,-0.99609375,-0.19140625,-0.0859375
1894,-0.97265625,-0.203125,-0.08984375
1895,-1.01953125,-0.19921875,-0.09375
1896,-0.9921875,-0.203125,-0.09765625
1897,-1.0,-0.19921875,-0.12109375
1898,-1.015625,-0.203125,-0.13671875
1899,-1.02734375,-0.2109375,-0.1328125
1900,-1.03515625,-0.21484375,-0.1328125
1901,-1.03515625,-0.2265625,-0.14453125
1902,-1.0390625,-0.23046875,-0.14453125
1903,-1.05078125,-0.21875,-0.16015625
1904,-1.05859375,-0.22265625,-0.15625
1905,-1.046875,-0.20703125,-0.1875
1906,-1.0390625,-0.21484375,-0.14453125
1907,-1.01953125,-0.21875,-0.140625
1908,-1.0234375,-0.21484375,-0.13671875
1909,-1.0234375,-0.2109375,-0.1171875
1910,-1.015625,-0.20703125,-0.1171875
1911,-1.015625,-0.2109375,-0.109375
1912,-0.9921875,-0.20703125,-0.11328125
1913,-1.0,-0.21484375,-0.12109375
1914,-0.99609375,-0.22265625,-0.1328125
1915,-0.98828125,-0.23828125,-0.12109375
1916,-0.9609375,-0.234375,-0.12890625
1917,-0.98828125,-0.25,-0.125
1918,-1.0,-0.2421875,-0.125
1919,-1.01953125,-0.25390625,-0.13671875
1920,-1.03515625,-0.24609375,-0.13671875
1921,-1.046875,-0.23828125,-0.1328125
1922,-1.05078125,-0.2421875,-0.125
1923,-1.0546875,-0.2421875,-0.13671875
1924,-1.046875,-0.21875,-0.12890625
1925,-1.05859375,-0.21484375,-0.109375
1926,-1.05078125,-0.21875,-0.09375
1927,-1.03125,-0.23046875,-0.109375
1928,-1.03515625,-0.23046875,-0.12109375
1929,-1.0234375,-0.23828125,-0.12109375
1930,-0.99609375,-0.25,-0.12109375
1931,-0.98046875,-0.2421875,-0.1015625
1932,-0.9765625,-0.25390625,-0.1171875
1933,-0.9453125,-0.27734375,-0.1328125
1934,-0.94921875,-0.28125,-0.140625
1935,-0.9453125,-0.29296875,-0.13671875
1936,-0.94140625,-0.2890625,-0.140625
1937,-0.94140625,-0.2890625,-0.1328125
1938,-0.9296875,-0.26171875,-0.140625
1939,-0.9453125,-0.26953125,-0.1328125
1940,-0.94921875,-0.27734375,-0.1171875
1941,-0.94921875,-0.27734375,-0.12890625
1942,-0.95703125,-0.28125,-0.11328125
1943,-0.984375,-0.26953125,-0.125
1944,-0.98046875,-0.2890625,-0.14453125
1945,-1.0,-0.30859375,-0.1484375
1946,-1.0078125,-0.31640625,-0.16015625
1947,-1.0,-0.328125,-0.17578125
1948,-1.00390625,-0.33203125,-0.1640625
1949,-0.9921875,-0.328125,-0.1484375
1950,-0.9921875,-0.328125,-0.18359375
1951,-0.984375,-0.3515625,-0.16796875
1952,-0.984375,-0.33984375,-0.15234375
1953,-0.9765625,-0.34375,-0.1796875
1954,-0.96875,-0.359375,-0.16796875
1955,-0.94140625,-0.36328125,-0.1796875
1956,-0.9296875,-0.36328125,-0.171875
1957,-0.91796875,-0.359375,-0.16796875
1958,-0.9375,-0.359375,-0.17578125
1959,-0.8984375,-0.37109375,-0.16796875
1960,-0.95703125,-0.3359375,-0.171875
1961,-0.94921875,-0.34375,-0.17578125
1962,-0.953125,-0.33203125,-0.18359375
1963,-0.9453125,-0.3515625,-0.1875
1964,-0.94140625,-0.3515625,-0.19140625
1965,-0.93359375,-0.37890625,-0.19921875
1966,-0.9296875,-0.37890625,-0.20703125
1967,-0.93359375,-0.375,-0.19140625
1968,-0.921875,-0.390625,-0.20703125
1969,-0.94140625,-0.38671875,-0.20703125
1970,-0.921875,-0.38671875,-0.21484375
1971,-0.9375,-0.39453125,-0.20703125
1972,-0.9140625,-0.40625,-0.19921875
1973,-0.91796875,-0.3828125,-0.1953125
1974,-0.90625,-0.40234375,-0.2109375
1975,-0.89453125,-0.40234375,-0.20703125
1976,-0.88671875,-0.4140625,-0.1953125
1977,-0.8828125,-0.421875,-0.1875
1978,-0.890625,-0.42578125,-0.1875
1979,-0.8828125,-0.4375,-0.1875
1980,-0.875,-0.45703125,-0.1875
1981,-0.8828125,-0.46875,-0.203125
1982,-0.88671875,-0.46484375,-0.1875
1983,-0.89453125,-0.46875,-0.17578125
1984,-0.90625,-0.484375,-0.18359375
1985,-0.9140625,-0.4921875,-0.19140625
1986,-0.91015625,-0.484375,-0.18359375
1987,-0.9140625,-0.484375,-0.1875
1988,-0.89453125,-0.484375,-0.1875
1989,-0.90625,-0.51171875,-0.1875
1990,-0.91796875,-0.4921875,-0.1875
1991,-0.91796875,-0.48828125,-0.19921875
1992,-0.8828125,-0.515625,-0.203125
1993,-0.90234375,-0.50390625,-0.19921875
1994,-0.8828125,-0.50390625,-0.1796875
1995,-0.87109375,-0.51953125,-0.171875
1996,-0.8671875,-0.51171875,-0.19140625
1997,-0.86328125,-0.51953125,-0.1875
1998,-0.83984375,-0.5390625,-0.18359375
1999,-0.8359375,-0.55078125,-0.171875
2000,-0.8125,-0.5625,-0.17578125
2001,-0.83203125,-0.55859375,-0.1640625
2002,-0.8125,-0.56640625,-0.16796875
2003,-0.78515625,-0.578125,-0.18359375
2004,-0.8046875,-0.56640625,-0.15625
2005,-0.8046875,-0.58203125,-0.15234375
2006,-0.796875,-0.578125,-0.13671875
2007,-0.796875,-0.58203125,-0.15625
2008,-0.7890625,-0.59375,-0.15234375
2009,-0.78515625,-0.58984375,-0.14453125
2010,-0.7734375,-0.60546875,-0.15234375
2011,-0.80078125,-0.60546875,-0.16015625
2012,-0.78515625,-0.609375,-0.14453125
2013,-0.76953125,-0.6015625,-0.1484375
2014,-0.78515625,-0.609375,-0.13671875
2015,-0.76171875,-0.62109375,-0.14453125
2016,-0.77734375,-0.62109375,-0.1484375
2017,-0.7578125,-0.62890625,-0.1328125
2018,-0.7734375,-0.640625,-0.14453125
2019,-0.765625,-0.65625,-0.140625
2020,-0.75,-0.66796875,-0.125
2021,-0.75390625,-0.65234375,-0.125
2022,-0.7421875,-0.68359375,-0.11328125
2023,-0.74609375,-0.6953125,-0.11328125
2024,-0.734375,-0.70703125,-0.125
2025,-0.71875,-0.71484375,-0.1484375
2026,-0.72265625,-0.72265625,-0.09375
2027,-0.71484375,-0.71875,-0.06640625
2028,-0.7109375,-0.73046875,-0.08203125
2029,-0.71484375,-0.734375,-0.078125
2030,-0.69921875,-0.73828125,-0.0625
2031,-0.71484375,-0.7265625,-0.0546875
2032,-0.7109375,-0.72265625,-0.06640625
2033,-0.71484375,-0.7265625,-0.05078125
2034,-0.7109375,-0.7265625,-0.0625
2035,-0.6953125,-0.7265625,-0.04296875
2036,-0.6953125,-0.70703125,-0.0625
2037,-0.71484375,-0.7109375,-0.03515625
2038,-0.6953125,-0.71875,-0.03515625
2039,-0.703125,-0.70703125,-0.04296875
2040,-0.70703125,-0.70703125,-0.03515625
2041,-0.6953125,-0.703125,-0.03125
2042,-0.67578125,-0.70703125,-0.01171875
2043,-0.68359375,-0.6953125,-0.0078125
2044,-0.6796875,-0.69140625,-0.00390625
2045,-0.68359375,-0.6953125,0.0
2046,-0.67578125,-0.7109375,0.015625
2047,-0.671875,-0.703125,0.03515625
2048,-0.66796875,-0.703125,-0.01171875
2049,-0.671875,-0.69921875,0.01171875
2050,-0.671875,-0.70703125,0.015625
2051,-0.6640625,-0.7265625,0.01171875
2052,-0.65625,-0.7421875,0.0078125
2053,-0.640625,-0.75,0.03125
2054,-0.63671875,-0.7578125,0.03515625
2055,-0.640625,-0.76171875,0.04296875
2056,-0.625,-0.7890625,0.0390625
2057,-0.63671875,-0.7734375,0.01171875
2058,-0.6171875,-0.80078125,0.046875
2059,-0.6015625,-0.8046875,0.02734375
2060,-0.59765625,-0.7890625,0.015625
2061,-0.578125,-0.796875,0.0390625
2062,-0.578125,-0.796875,0.015625
2063,-0.5625,-0.78515625,0.01953125
2064,-0.55859375,-0.78125,0.015625
2065,-0.54296875,-0.7578125,0.04296875
2066,-0.53515625,-0.77734375,0.03125
2067,-0.5078125,-0.765625,0.0546875
2068,-0.52734375,-0.76953125,0.0234375
2069,-0.4921875,-0.77734375,0.046875
2070,-0.46875,-0.7890625,0.05859375
2071,-0.46875,-0.78515625,0.046875
2072,-0.4765625,-0.80078125,0.05078125
2073,-0.47265625,-0.82421875,0.0625
2074,-0.484375,-0.83984375,0.0625
2075,-0.4921875,-0.83984375,0.07421875
2076,-0.4921875,-0.8828125,0.0703125
2077,-0.51953125,-0.8828125,0.06640625
2078,-0.5234375,-0.88671875,0.07421875
2079,-0.5078125,-0.90234375,0.06640625
2080,-0.5390625,-0.90234375,0.04296875
2081,-0.54296875,-0.87890625,0.04296875
2082,-0.54296875,-0.86328125,0.04296875
2083,-0.55859375,-0.84765625,0.046875
2084,-0.56640625,-0.81640625,0.046875
2085,-0.56640625,-0.8046875,0.03125
2086,-0.578125,-0.79296875,0.04296875
2087,-0.578125,-0.77734375,0.03125
2088,-0.58984375,-0.76953125,0.0390625
2089,-0.5859375,-0.765625,0.046875
2090,-0.6015625,-0.76953125,0.0390625
2091,-0.5859375,-0.7734375,0.02734375
2092,-0.58203125,-0.77734375,0.04296875
2093,-0.5859375,-0.77734375,0.04296875
2094,-0.578125,-0.78125,0.0390625
2095,-0.578125,-0.78125,0.0234375
2096,-0.5546875,-0.796875,0.02734375
2097,-0.53125,-0.7890625,0.05078125
2098,-0.5234375,-0.7734375,0.03515625
2099,-0.52734375,-0.7734375,0.0390625
2100,-0.5078125,-0.78125,0.03515625
2101,-0.5,-0.79296875,0.03125
2102,-0.4765625,-0.79296875,0.0390625
2103,-0.48828125,-0.81640625,0.0546875
2104,-0.4921875,-0.8203125,0.03515625
2105,-0.4921875,-0.828125,0.046875
2106,-0.49609375,-0.83203125,0.0390625
2107,-0.5,-0.83984375,0.046875
2108,-0.49609375,-0.84375,0.0625
2109,-0.48828125,-0.8515625,0.0546875
2110,-0.5,-0.86328125,0.07421875
2111,-0.49609375,-0.8671875,0.05859375
2112,-0.50390625,-0.87890625,0.05859375
2113,-0.48046875,-0.85546875,0.07421875
2114,-0.47265625,-0.859375,0.0625
2115,-0.484375,-0.8515625,0.0546875
2116,-0.484375,-0.84375,0.078125
2117,-0.48828125,-0.84765625,0.06640625
2118,-0.48828125,-0.8359375,0.0703125
2119,-0.48828125,-0.83203125,0.07421875
2120,-0.484375,-0.828125,0.0703125
2121,-0.48046875,-0.83984375,0.0703125
2122,-0.47265625,-0.8359375,0.0625
2123,-0.47265625,-0.828125,0.078125
2124,-0.484375,-0.8359375,0.07421875
2125,-0.47265625,-0.83203125,0.0703125
2126,-0.47265625,-0.828125,0.08203125
2127,-0.46875,-0.82421875,0.078125
2128,-0.46484375,-0.83203125,0.08203125
2129,-0.45703125,-0.828125,0.0703125
2130,-0.4609375,-0.8203125,0.08984375
2131,-0.46875,-0.83203125,0.078125
2132,-0.45703125,-0.82421875,0.08984375
2133,-0.4609375,-0.8515625,0.0859375
2134,-0.45703125,-0.82421875,0.07421875
2135,-0.46875,-0.84765625,0.08984375
2136,-0.4765625,-0.8359375,0.0859375
2137,-0.46875,-0.83984375,0.08984375
2138,-0.48046875,-0.84375,0.08203125
2139,-0.4765625,-0.84375,0.08984375
2140,-0.48046875,-0.8359375,0.08203125
2141,-0.4765625,-0.84375,0.09375
2142,-0.48046875,-0.83203125,0.08203125
2143,-0.4765625,-0.83203125,0.09765625
2144,-0.4765625,-0.83203125,0.08203125
2145,-0.44921875,-0.84375,0.10546875
2146,-0.46484375,-0.8359375,0.08203125
2147,-0.44140625,-0.83984375,0.08984375
2148,-0.44140625,-0.83984375,0.09375
2149,-0.43359375,-0.84765625,0.07421875
2150,-0.43359375,-0.83984375,0.08984375
2151,-0.42578125,-0.859375,0.0703125
2152,-0.42578125,-0.83984375,0.078125
2153,-0.40625,-0.8515625,0.06640625
2154,-0.40234375,-0.84765625,0.08984375
2155,-0.41015625,-0.859375,0.0859375
2156,-0.41796875,-0.8515625,0.06640625
2157,-0.421875,-0.859375,0.0703125
2158,-0.42578125,-0.85546875,0.08984375
2159,-0.40625,-0.859375,0.078125
2160,-0.40625,-0.85546875,0.07421875
2161,-0.4140625,-0.84375,0.0703125
2162,-0.3984375,-0.84375,0.0859375
2163,-0.390625,-0.8359375,0.0703125
2164,-0.37890625,-0.83203125,0.0859375
2165,-0.390625,-0.8515625,0.08203125
2166,-0.390625,-0.8359375,0.09375
2167,-0.3671875,-0.86328125,0.10546875
2168,-0.36328125,-0.8671875,0.09375
2169,-0.3671875,-0.87890625,0.10546875
2170,-0.36328125,-0.875,0.10546875
2171,-0.36328125,-0.8828125,0.125
2172,-0.35546875,-0.88671875,0.09375
2173,-0.35546875,-0.8828125,0.1015625
2174,-0.35546875,-0.86328125,0.10546875
2175,-0.3359375,-0.87109375,0.1171875
2176,-0.3359375,-0.859375,0.11328125
2177,-0.328125,-0.859375,0.16015625
2178,-0.328125,-0.8515625,0.125
2179,-0.328125,-0.85546875,0.1015625
2180,-0.33203125,-0.84765625,0.140625
2181,-0.3203125,-0.85546875,0.140625
2182,-0.32421875,-0.85546875,0.15234375
2183,-0.328125,-0.84765625,0.15625
2184,-0.34375,-0.86328125,0.13671875
2185,-0.3515625,-0.8515625,0.1484375
2186,-0.359375,-0.859375,0.15234375
2187,-0.3515625,-0.86328125,0.1484375
2188,-0.35546875,-0.83203125,0.17578125
2189,-0.375,-0.8515625,0.16015625
2190,-0.37890625,-0.84375,0.15234375
2191,-0.3828125,-0.8515625,0.1640625
2192,-0.3828125,-0.8515625,0.14453125
2193,-0.3828125,-0.85546875,0.13671875
2194,-0.36328125,-0.8671875,0.12109375
2195,-0.359375,-0.86328125,0.1171875
2196,-0.33984375,-0.86328125,0.12109375
2197,-0.34765625,-0.875,0.11328125
2198,-0.3203125,-0.890625,0.14453125
2199,-0.30859375,-0.87890625,0.13671875
2200,-0.265625,-0.921875,0.12109375
2201,-0.25390625,-0.92578125,0.13671875
2202,-0.2265625,-0.921875,0.1328125
2203,-0.23046875,-0.9140625,0.13671875
2204,-0.19921875,-0.9296875,0.16015625
2205,-0.1953125,-0.9375,0.12109375
2206,-0.19921875,-0.921875,0.16015625
2207,-0.19921875,-0.9375,0.15625
2208,-0.19921875,-0.921875,0.15234375
2209,-0.203125,-0.92578125,0.125
2210,-0.1953125,-0.91796875,0.125
2211,-0.20703125,-0.90625,0.12109375
2212,-0.20703125,-0.90234375,0.12109375
2213,-0.23046875,-0.8984375,0.125
2214,-0.21484375,-0.890625,0.12890625
2215,-0.22265625,-0.8984375,0.1015625
2216,-0.2265625,-0.90234375,0.11328125
2217,-0.22265625,-0.91015625,0.1171875
2218,-0.23828125,-0.8984375,0.125
2219,-0.22265625,-0.921875,0.12109375
2220,-0.2265625,-0.91015625,0.1484375
2221,-0.23046875,-0.90625,0.14453125
2222,-0.2109375,-0.9140625,0.14453125
2223,-0.20703125,-0.92578125,0.1484375
2224,-0.1953125,-0.92578125,0.14453125
2225,-0.1953125,-0.91796875,0.14453125
2226,-0.1953125,-0.9453125,0.1328125
2227,-0.203125,-0.9375,0.125
2228,-0.1796875,-0.94921875,0.109375
2229,-0.17578125,-0.94140625,0.12890625
2230,-0.16796875,-0.93359375,0.16015625
2231,-0.17578125,-0.9453125,0.1328125
2232,-0.18359375,-0.9296875,0.1171875
2233,-0.1328125,-0.9453125,0.12890625
2234,-0.12890625,-0.9453125,0.15625
2235,-0.1171875,-0.94921875,0.13671875
2236,-0.09765625,-0.9453125,0.1484375
2237,-0.08203125,-0.94140625,0.140625
2238,-0.078125,-0.9375,0.14453125
2239,-0.07421875,-0.9296875,0.109375
2240,-0.07421875,-0.9453125,0.12109375
2241,-0.0546875,-0.9375,0.13671875
2242,-0.0703125,-0.9453125,0.11328125
2243,-0.05859375,-0.9375,0.1171875
2244,-0.078125,-0.93359375,0.1015625
2245,-0.078125,-0.94921875,0.09765625
2246,-0.078125,-0.9453125,0.109375
2247,-0.08203125,-0.953125,0.09765625
2248,-0.078125,-0.9453125,0.1015625
2249,-0.078125,-0.94921875,0.11328125
2250,-0.09765625,-0.953125,0.09375
2251,-0.078125,-0.94921875,0.08984375
2252,-0.1015625,-0.96484375,0.09765625
2253,-0.08984375,-0.95703125,0.09375
2254,-0.05859375,-0.953125,0.07421875
2255,-0.078125,-0.95703125,0.09375
2256,-0.0703125,-0.9453125,0.0859375
2257,-0.0546875,-0.94921875,0.0859375
2258,-0.0390625,-0.95703125,0.0859375
2259,-0.05078125,-0.953125,0.1015625
2260,-0.0234375,-0.9609375,0.10546875
2261,-0.03125,-0.95703125,0.08203125
2262,-0.00390625,-0.98046875,0.09765625
2263,-0.00390625,-0.96875,0.1015625
2264,0.03125,-0.96875,0.1171875
2265,0.02734375,-0.96484375,0.10546875
2266,0.02734375,-0.97265625,0.09765625
2267,0.05078125,-0.97265625,0.09765625
2268,0.05859375,-0.984375,0.10546875
2269,0.0625,-0.96875,0.1171875
2270,0.07421875,-0.99609375,0.109375
2271,0.07421875,-0.98828125,0.1171875
2272,0.0703125,-0.984375,0.1171875
2273,0.06640625,-0.984375,0.12890625
2274,0.05859375,-0.984375,0.125
2275,0.04296875,-0.9765625,0.1484375
2276,0.0546875,-0.99609375,0.125
2277,0.046875,-0.98046875,0.1171875
2278,0.0390625,-0.98046875,0.12890625
2279,0.03515625,-0.98828125,0.13671875
2280,0.04296875,-0.98828125,0.11328125
2281,0.02734375,-0.96484375,0.12890625
2282,0.02734375,-0.96875,0.12890625
2283,0.0390625,-0.95703125,0.14453125
2284,0.02734375,-0.953125,0.12890625
2285,0.01953125,-0.953125,0.11328125
2286,0.01953125,-0.9453125,0.12109375
2287,0.03515625,-0.92578125,0.08984375
2288,0.0234375,-0.94140625,0.11328125
2289,0.03125,-0.9375,0.11328125
2290,0.03125,-0.9375,0.1171875
2291,0.03125,-0.93359375,0.109375
2292,0.0390625,-0.9375,0.1328125
2293,0.046875,-0.92578125,0.11328125
2294,0.0625,-0.921875,0.1328125
2295,0.06640625,-0.91796875,0.10546875
2296,0.0625,-0.93359375,0.1328125
2297,0.09765625,-0.9296875,0.13671875
2298,0.0703125,-0.94140625,0.125
2299,0.0859375,-0.9375,0.1171875
2300,0.1015625,-0.9375,0.12109375
2301,0.08984375,-0.93359375,0.1015625
2302,0.09765625,-0.93359375,0.09375
2303,0.11328125,-0.94140625,0.078125
2304,0.10546875,-0.94921875,0.09765625
2305,0.09375,-0.94140625,0.08984375
2306,0.11328125,-0.953125,0.09765625
2307,0.08203125,-0.94921875,0.1015625
2308,0.10546875,-0.93359375,0.08984375
2309,0.08984375,-0.953125,0.08984375
2310,0.09765625,-0.96875,0.0859375
2311,0.0859375,-0.953125,0.08203125
2312,0.07421875,-0.94921875,0.08203125
2313,0.0703125,-0.9453125,0.08203125
2314,0.0703125,-0.94921875,0.07421875
2315,0.07421875,-0.95703125,0.07421875
2316,0.078125,-0.94921875,0.09375
2317,0.07421875,-0.953125,0.05078125
2318,0.0625,-0.9453125,0.0625
2319,0.05078125,-0.9375,0.0703125
2320,0.0703125,-0.953125,0.06640625
2321,0.0546875,-0.94921875,0.05078125
2322,0.0546875,-0.94140625,0.05859375
2323,0.05859375,-0.9375,0.05859375
2324,0.06640625,-0.94921875,0.0546875
2325,0.0703125,-0.9375,0.046875
2326,0.0546875,-0.9375,0.05859375
2327,0.07421875,-0.93359375,0.04296875
2328,0.05078125,-0.9296875,0.05078125
2329,0.0625,-0.9375,0.0546875
2330,0.0703125,-0.9296875,0.046875
2331,0.078125,-0.9375,0.05859375
2332,0.06640625,-0.94140625,0.046875
2333,0.08203125,-0.94921875,0.0546875
2334,0.07421875,-0.9453125,0.05859375
2335,0.08203125,-0.953125,0.05078125
2336,0.08203125,-0.94921875,0.0625
2337,0.0859375,-0.953125,0.06640625
2338,0.0859375,-0.95703125,0.0546875
2339,0.08984375,-0.94921875,0.046875
2340,0.09375,-0.95703125,0.0625
2341,0.09375,-0.95703125,0.05078125
2342,0.09375,-0.953125,0.046875
2343,0.0859375,-0.95703125,0.046875
2344,0.0859375,-0.96484375,0.046875
2345,0.0859375,-0.953125,0.03515625
2346,0.0859375,-0.95703125,0.04296875
2347,0.08984375,-0.953125,0.05078125
2348,0.07421875,-0.95703125,0.04296875
2349,0.08203125,-0.97265625,0.05078125
2350,0.09765625,-0.98046875,0.05078125
2351,0.08984375,-0.96875,0.04296875
2352,0.12109375,-0.97265625,0.0546875
2353,0.1015625,-0.96484375,0.05078125
2354,0.09765625,-0.9609375,0.0390625
2355,0.09765625,-0.95703125,0.046875
2356,0.109375,-0.95703125,0.046875
2357,0.11328125,-0.95703125,0.046875
2358,0.109375,-0.953125,0.046875
2359,0.1015625,-0.94921875,0.0390625
2360,0.109375,-0.96484375,0.03125
2361,0.10546875,-0.96875,0.046875
2362,0.1015625,-0.9453125,0.04296875
2363,0.109375,-0.9609375,0.03515625
2364,0.11328125,-0.96484375,0.03125
2365,0.1015625,-0.9609375,0.05078125
2366,0.109375,-0.96484375,0.04296875
2367,0.12109375,-0.98828125,0.0390625
2368,0.1171875,-0.96875,0.0390625
2369,0.11328125,-0.97265625,0.03515625
2370,0.109375,-0.96484375,0.0234375
2371,0.109375,-0.9609375,0.04296875
2372,0.1015625,-0.9609375,0.03125
2373,0.12890625,-0.9609375,0.02734375
2374,0.10546875,-0.96875,0.015625
2375,0.09765625,-0.96484375,0.03515625
2376,0.10546875,-0.9609375,0.02734375
2377,0.09765625,-0.94921875,0.03125
2378,0.109375,-0.953125,0.04296875
2379,0.10546875,-0.953125,0.03515625
2380,0.09375,-0.94921875,0.0390625
2381,0.09375,-0.96484375,0.0234375
2382,0.09375,-0.953125,0.02734375
2383,0.1015625,-0.9453125,0.04296875
2384,0.08984375,-0.953125,0.04296875
2385,0.08984375,-0.94140625,0.0
2386,0.09765625,-0.953125,0.01953125
2387,0.0859375,-0.9453125,0.015625
2388,0.1015625,-0.96484375,0.01171875
2389,0.1015625,-0.95703125,0.02734375
2390,0.10546875,-0.94921875,0.01953125
2391,0.0859375,-0.95703125,0.015625
2392,0.09375,-0.9609375,0.01953125
2393,0.109375,-0.95703125,0.0078125
2394,0.09375,-0.95703125,0.03125
2395,0.10546875,-0.97265625,-0.0234375
2396,0.09765625,-0.9609375,0.0078125
2397,0.08984375,-0.96484375,0.0078125
2398,0.08984375,-0.97265625,0.0078125
2399,0.08984375,-0.96875,0.0
