,accelerometerAccelerationX(G),accelerometerAccelerationY(G),accelerometerAccelerationZ(G)
0,0.00390625,-0.97265625,-0.2421875
1,0.00390625,-0.97265625,-0.25
2,0.00390625,-0.96875,-0.234375
3,0.0,-0.96875,-0.2421875
4,0.0,-0.9765625,-0.25
5,0.015625,-0.9921875,-0.234375
6,0.0,-0.984375,-0.2578125
7,0.0,-0.97265625,-0.27734375
8,0.0078125,-0.98046875,-0.25
9,0.0078125,-0.97265625,-0.25
10,-0.0078125,-0.9765625,-0.26953125
11,0.0078125,-0.9765625,-0.25390625
12,0.0,-0.98046875,-0.25390625
13,0.00390625,-0.9765625,-0.2578125
14,0.0,-0.97265625,-0.25390625
15,0.00390625,-0.97265625,-0.26171875
16,0.0,-0.96875,-0.26171875
17,0.00390625,-0.97265625,-0.2578125
18,0.0,-0.96875,-0.265625
19,0.0,-0.9765625,-0.25
20,0.01171875,-0.96875,-0.26171875
21,0.0,-0.97265625,-0.25
22,0.0,-0.96875,-0.26171875
23,0.0,-0.96875,-0.25390625
24,0.0,-0.9765625,-0.25
25,0.01171875,-0.9765625,-0.2578125
26,0.01171875,-0.9765625,-0.27734375
27,-0.00390625,-0.96875,-0.26171875
28,0.0,-0.96875,-0.2734375
29,0.0,-0.96875,-0.265625
30,0.0078125,-0.984375,-0.25390625
31,0.0,-0.96875,-0.25390625
32,0.0,-0.9765625,-0.26171875
33,0.00390625,-0.984375,-0.27734375
34,0.0,-0.9765625,-0.25390625
35,-0.00390625,-0.98046875,-0.25390625
36,0.0,-0.96875,-0.2578125
37,0.00390625,-0.97265625,-0.2578125
38,0.0,-0.9765625,-0.26171875
39,0.0,-0.97265625,-0.265625
40,0.0,-0.984375,-0.25390625
41,0.0,-0.9765625,-0.25390625
42,0.0,-0.97265625,-0.25390625
43,0.0,-0.97265625,-0.2578125
44,0.0,-0.984375,-0.25390625
45,0.0,-0.9765625,-0.26171875
46,0.01171875,-0.984375,-0.26171875
47,0.0078125,-0.9765625,-0.2734375
48,0.00390625,-0.9765625,-0.2734375
49,0.00390625,-0.9765625,-0.265625
50,0.0,-0.98046875,-0.25390625
51,0.00390625,-0.9765625,-0.25390625
52,0.00390625,-0.984375,-0.2578125
53,0.0,-0.97265625,-0.26171875
54,-0.0078125,-0.98046875,-0.25390625
55,0.0,-0.97265625,-0.25390625
56,-0.00390625,-0.96484375,-0.2578125
57,0.0,-0.96875,-0.25
58,0.0,-0.98046875,-0.265625
59,-0.00390625,-0.98046875,-0.25
60,0.0,-0.96484375,-0.2578125
61,0.0,-0.9765625,-0.26953125
62,0.0,-0.96875,-0.265625
63,0.0,-0.97265625,-0.2421875
64,-0.00390625,-0.96875,-0.25390625
65,-0.00390625,-0.97265625,-0.2734375
66,0.00390625,-0.984375,-0.25390625
67,0.0,-0.9765625,-0.25390625
68,0.0,-0.98046875,-0.2578125
69,0.0,-0.98046875,-0.24609375
70,0.0078125,-0.9296875,-0.24609375
71,-0.00390625,-0.98046875,-0.25
72,0.0,-0.96875,-0.24609375
73,0.0,-0.96875,-0.25
74,0.00390625,-0.97265625,-0.23828125
75,0.0,-0.96484375,-0.2578125
76,-0.00390625,-0.96875,-0.24609375
77,0.00390625,-0.98046875,-0.2578125
78,0.0,-0.97265625,-0.25390625
79,0.0,-0.97265625,-0.25390625
80,0.00390625,-0.96875,-0.2421875
81,0.0,-0.98046875,-0.25
82,0.00390625,-0.98046875,-0.25
83,-0.0078125,-0.96875,-0.24609375
84,-0.015625,-0.97265625,-0.25
85,-0.00390625,-0.97265625,-0.25390625
86,0.0,-0.9921875,-0.26171875
87,0.0,-0.97265625,-0.25
88,0.0,-0.97265625,-0.25390625
89,-0.0078125,-0.984375,-0.2578125
90,0.0,-0.9765625,-0.23828125
91,0.0,-0.9765625,-0.25390625
92,-0.00390625,-0.97265625,-0.234375
93,0.0,-0.96875,-0.25390625
94,0.0,-0.984375,-0.2578125
95,0.00390625,-0.97265625,-0.26953125
96,0.00390625,-0.9765625,-0.26171875
97,0.00390625,-0.96875,-0.2578125
98,0.00390625,-0.97265625,-0.2578125
99,0.0,-0.96875,-0.26171875
100,0.00390625,-0.97265625,-0.265625
101,0.0,-0.96875,-0.25390625
102,-0.00390625,-0.9765625,-0.2578125
103,-0.0078125,-0.97265625,-0.2578125
104,0.0,-0.984375,-0.25390625
105,-0.00390625,-0.9765625,-0.265625
106,-0.01171875,-0.97265625,-0.265625
107,-0.015625,-0.97265625,-0.2578125
108,0.0,-0.9765625,-0.2578125
109,-0.01171875,-0.96875,-0.25390625
110,0.0,-0.98828125,-0.2734375
111,0.00390625,-0.96875,-0.25390625
112,0.0078125,-0.96875,-0.2421875
113,0.01171875,-0.9765625,-0.2421875
114,0.0078125,-0.9765625,-0.25
115,0.0078125,-0.96484375,-0.24609375
116,0.0,-0.97265625,-0.25
117,0.0,-0.96875,-0.2578125
118,0.00390625,-0.96875,-0.26171875
119,0.00390625,-0.96484375,-0.2578125
120,0.0,-0.9765625,-0.26953125
121,0.0,-0.96875,-0.25390625
122,0.00390625,-0.98046875,-0.2578125
123,0.0,-0.96875,-0.265625
124,0.0,-0.97265625,-0.265625
125,0.00390625,-0.96484375,-0.265625
126,0.00390625,-0.9765625,-0.26171875
127,0.0078125,-0.9765625,-0.26953125
128,0.00390625,-0.9765625,-0.265625
129,0.00390625,-0.97265625,-0.2421875
130,0.0,-0.97265625,-0.265625
131,0.0,-0.97265625,-0.26953125
132,-0.0078125,-0.96484375,-0.2734375
133,0.00390625,-0.96875,-0.2578125
134,0.00390625,-0.97265625,-0.24609375
135,0.00390625,-0.984375,-0.21484375
136,0.0,-0.98046875,-0.25390625
137,0.0,-0.984375,-0.24609375
138,0.0,-0.96875,-0.24609375
139,0.0,-0.96484375,-0.25
140,0.0,-0.98046875,-0.24609375
141,0.00390625,-0.9765625,-0.25
142,-0.0078125,-0.96875,-0.2578125
143,-0.0078125,-0.96484375,-0.26171875
144,0.01171875,-0.97265625,-0.265625
145,0.0,-0.9765625,-0.24609375
146,0.0,-0.96875,-0.25
147,0.0078125,-0.9765625,-0.25390625
148,0.0,-0.98046875,-0.25
149,0.0078125,-0.9765625,-0.26953125
150,0.0,-0.9765625,-0.25
151,-0.00390625,-0.9765625,-0.25390625
152,0.0,-0.9765625,-0.2421875
153,-0.0078125,-0.98046875,-0.25390625
154,-0.0078125,-0.984375,-0.2421875
155,0.00390625,-0.9765625,-0.2421875
156,-0.015625,-0.96875,-0.2421875
157,-0.00390625,-0.9609375,-0.25390625
158,0.0,-0.97265625,-0.2421875
159,-0.01171875,-0.96875,-0.25390625
160,-0.00390625,-0.9765625,-0.2578125
161,0.00390625,-0.9609375,-0.25
162,0.0078125,-0.98046875,-0.25390625
163,0.0078125,-0.9765625,-0.25
164,0.0,-0.984375,-0.24609375
165,0.00390625,-0.98046875,-0.2421875
166,0.00390625,-0.97265625,-0.23828125
167,0.00390625,-0.97265625,-0.25
168,0.00390625,-0.97265625,-0.24609375
169,0.00390625,-0.97265625,-0.265625
170,0.0,-0.96875,-0.25390625
171,0.01171875,-0.97265625,-0.2578125
172,0.00390625,-0.97265625,-0.24609375
173,0.00390625,-0.96875,-0.24609375
174,0.0,-0.96875,-0.2421875
175,0.00390625,-0.96875,-0.24609375
176,0.00390625,-0.97265625,-0.2578125
177,0.00390625,-0.97265625,-0.23828125
178,0.0078125,-0.984375,-0.24609375
179,0.03515625,-1.00390625,-0.21875
180,0.0,-0.98046875,-0.2421875
181,0.0078125,-0.98046875,-0.2578125
182,0.00390625,-0.98046875,-0.26953125
183,0.00390625,-0.98046875,-0.2578125
184,0.00390625,-0.98046875,-0.25390625
185,-0.0078125,-0.9765625,-0.26171875
186,0.0,-0.9765625,-0.2578125
187,0.00390625,-0.9765625,-0.265625
188,0.0078125,-0.98828125,-0.25390625
189,0.0,-0.9921875,-0.26171875
190,0.0,-0.98828125,-0.25390625
191,0.00390625,-0.97265625,-0.24609375
192,0.0,-0.96875,-0.2734375
193,0.0,-0.9609375,-0.2578125
194,-0.0078125,-0.96875,-0.24609375
195,0.0,-0.96484375,-0.26171875
196,-0.01171875,-0.9609375,-0.25
197,-0.01171875,-0.96875,-0.2421875
198,-0.015625,-0.9609375,-0.25
199,-0.015625,-0.97265625,-0.24609375
200,-0.0078125,-0.96875,-0.23828125
201,-0.0078125,-0.953125,-0.2421875
202,-0.01953125,-0.96875,-0.23046875
203,-0.015625,-0.97265625,-0.23828125
204,-0.01171875,-0.96875,-0.22265625
205,-0.0078125,-0.9765625,-0.234375
206,-0.01171875,-0.984375,-0.24609375
207,-0.01953125,-0.97265625,-0.234375
208,0.0,-0.984375,-0.24609375
209,-0.015625,-0.98046875,-0.2421875
210,-0.01171875,-0.984375,-0.2421875
211,-0.01171875,-0.99609375,-0.25
212,-0.01953125,-0.984375,-0.23828125
213,-0.01953125,-0.97265625,-0.23828125
214,-0.0078125,-0.97265625,-0.26953125
215,0.0,-0.96875,-0.265625
216,-0.0078125,-0.97265625,-0.25390625
217,0.0,-0.97265625,-0.265625
218,0.0,-0.9765625,-0.26171875
219,-0.0078125,-0.96875,-0.265625
220,0.0,-0.97265625,-0.2578125
221,0.0,-0.96875,-0.25
222,0.01171875,-0.9375,-0.29296875
223,0.0,-0.96875,-0.25390625
224,0.0,-0.96484375,-0.26953125
225,0.00390625,-0.96484375,-0.265625
226,0.01171875,-0.9609375,-0.2578125
227,0.0078125,-0.96484375,-0.2734375
228,0.0078125,-0.96875,-0.265625
229,0.00390625,-0.97265625,-0.265625
230,0.0,-0.97265625,-0.28515625
231,0.01171875,-0.97265625,-0.26953125
232,0.0078125,-0.97265625,-0.27734375
233,0.00390625,-0.96875,-0.2734375
234,0.015625,-0.96484375,-0.2734375
235,0.01171875,-0.9609375,-0.26953125
236,0.0,-0.96484375,-0.2734375
237,-0.0078125,-0.96875,-0.27734375
238,0.0,-0.9609375,-0.28125
239,0.0,-0.96875,-0.26953125
240,0.0078125,-0.97265625,-0.296875
241,0.0078125,-0.9609375,-0.28125
242,0.0078125,-0.97265625,-0.28515625
243,0.0,-0.96875,-0.28125
244,0.0,-0.96484375,-0.30859375
245,0.0,-0.97265625,-0.28515625
246,0.00390625,-0.97265625,-0.2890625
247,0.00390625,-0.96875,-0.27734375
248,0.00390625,-0.96875,-0.2890625
249,0.0078125,-0.98046875,-0.28515625
250,0.0,-0.97265625,-0.27734375
251,0.0,-0.96875,-0.27734375
252,-0.00390625,-0.96875,-0.26171875
253,0.00390625,-0.9765625,-0.296875
254,0.0,-0.9765625,-0.27734375
255,0.0,-0.9765625,-0.29296875
256,0.00390625,-0.97265625,-0.2734375
257,0.00390625,-0.97265625,-0.27734375
258,0.00390625,-0.97265625,-0.28515625
259,0.00390625,-0.96875,-0.28515625
260,0.0,-0.97265625,-0.28125
261,-0.0078125,-0.96484375,-0.26171875
262,0.0,-0.96875,-0.2734375
263,-0.00390625,-0.96484375,-0.27734375
264,0.0078125,-0.95703125,-0.29296875
265,0.0,-0.95703125,-0.30078125
266,0.03125,-0.93359375,-0.33203125
267,0.00390625,-0.953125,-0.30078125
268,0.01171875,-0.9453125,-0.27734375
269,0.0078125,-0.9453125,-0.28515625
270,0.0078125,-0.9453125,-0.2890625
271,0.00390625,-0.953125,-0.2890625
272,0.0,-0.96484375,-0.2734375
273,0.00390625,-0.96875,-0.26171875
274,0.00390625,-0.984375,-0.265625
275,0.01953125,-1.0,-0.26953125
276,0.0,-1.0,-0.26953125
277,0.01953125,-1.01171875,-0.26953125
278,0.0,-1.015625,-0.28125
279,0.015625,-1.03515625,-0.26953125
280,0.01953125,-1.03125,-0.2734375
281,0.01171875,-1.01171875,-0.25390625
282,0.01171875,-1.01171875,-0.25
283,0.00390625,-1.0,-0.2578125
284,0.0,-0.97265625,-0.24609375
285,0.0078125,-0.96875,-0.2578125
286,-0.00390625,-0.96875,-0.26171875
287,0.0,-0.953125,-0.2578125
288,-0.0078125,-0.953125,-0.2578125
289,0.0,-0.94140625,-0.25
290,0.0,-0.93359375,-0.24609375
291,0.0078125,-0.93359375,-0.2578125
292,0.0078125,-0.9375,-0.26953125
293,0.00390625,-0.9609375,-0.265625
294,0.0,-0.9609375,-0.26171875
295,-0.00390625,-0.9609375,-0.2578125
296,0.0,-0.96875,-0.26953125
297,-0.00390625,-0.97265625,-0.26953125
298,-0.01171875,-0.984375,-0.265625
299,-0.01171875,-0.98828125,-0.25
300,-0.01953125,-0.96875,-0.26953125
301,-0.0078125,-0.96484375,-0.2734375
302,-0.015625,-0.96484375,-0.26953125
303,-0.015625,-0.96875,-0.2734375
304,-0.00390625,-0.96875,-0.27734375
305,-0.00390625,-0.96875,-0.296875
306,-0.00390625,-0.97265625,-0.27734375
307,-0.0234375,-0.96875,-0.296875
308,-0.00390625,-0.9765625,-0.28125
309,0.0,-0.9609375,-0.30078125
310,0.0,-0.98046875,-0.296875
311,0.0,-0.96875,-0.29296875
312,0.00390625,-0.984375,-0.2890625
313,0.00390625,-0.98046875,-0.29296875
314,0.0078125,-0.98046875,-0.28515625
315,0.00390625,-0.97265625,-0.30078125
316,0.00390625,-0.96484375,-0.2890625
317,0.0,-0.9609375,-0.3046875
318,0.0,-0.953125,-0.296875
319,0.00390625,-0.9609375,-0.296875
320,0.00390625,-0.94140625,-0.296875
321,0.0,-0.94921875,-0.29296875
322,0.0,-0.94921875,-0.28515625
323,0.0,-0.9609375,-0.3046875
324,0.00390625,-0.95703125,-0.30859375
325,0.0,-0.9609375,-0.2890625
326,0.0,-0.96875,-0.3046875
327,0.0,-0.9765625,-0.296875
328,0.0,-0.97265625,-0.28125
329,0.0,-0.96484375,-0.30078125
330,0.00390625,-0.9765625,-0.28125
331,0.03515625,-0.9765625,-0.296875
332,0.00390625,-0.97265625,-0.2890625
333,0.0,-0.96875,-0.2890625
334,0.0078125,-0.9765625,-0.28515625
335,0.0,-0.96875,-0.29296875
336,0.00390625,-0.97265625,-0.2890625
337,0.00390625,-0.9765625,-0.28125
338,0.0078125,-0.97265625,-0.2890625
339,0.0,-0.96875,-0.30078125
340,0.00390625,-0.96875,-0.28515625
341,0.01171875,-0.97265625,-0.28515625
342,0.00390625,-0.96875,-0.29296875
343,0.0078125,-0.97265625,-0.28515625
344,0.01171875,-0.96875,-0.29296875
345,0.0078125,-0.9765625,-0.296875
346,0.0078125,-0.96484375,-0.296875
347,0.00390625,-0.96484375,-0.28125
348,0.0,-0.96875,-0.29296875
349,0.00390625,-0.96875,-0.30078125
350,0.0,-0.97265625,-0.296875
351,0.0,-0.9609375,-0.29296875
352,0.00390625,-0.9609375,-0.28515625
353,0.015625,-0.9453125,-0.25390625
354,0.00390625,-0.96875,-0.2890625
355,0.01171875,-0.96875,-0.29296875
356,0.00390625,-0.96875,-0.28515625
357,0.00390625,-0.9765625,-0.3046875
358,0.00390625,-0.97265625,-0.2890625
359,0.01171875,-0.96875,-0.30078125
360,0.01171875,-0.96875,-0.2890625
361,0.01171875,-0.9765625,-0.2890625
362,0.00390625,-0.96875,-0.296875
363,0.01953125,-0.96875,-0.28515625
364,0.01171875,-0.95703125,-0.30859375
365,0.0,-0.96484375,-0.29296875
366,0.00390625,-0.96875,-0.29296875
367,0.00390625,-0.96875,-0.3046875
368,-0.0078125,-0.9609375,-0.296875
369,0.0,-0.9609375,-0.28515625
370,0.01171875,-0.96875,-0.30078125
371,0.00390625,-0.97265625,-0.296875
372,0.01171875,-0.97265625,-0.28125
373,0.0078125,-0.95703125,-0.2890625
374,0.0,-0.9609375,-0.30078125
375,0.015625,-0.953125,-0.28125
376,0.00390625,-0.97265625,-0.2890625
377,0.0,-0.96484375,-0.29296875
378,0.00390625,-0.96875,-0.29296875
379,0.0,-0.9765625,-0.2890625
380,-0.00390625,-0.97265625,-0.2734375
381,0.0078125,-0.96875,-0.26171875
382,0.0,-0.97265625,-0.2734375
383,-0.01171875,-0.96484375,-0.27734375
384,0.0,-0.96484375,-0.265625
385,0.0,-0.9609375,-0.2734375
386,-0.0625,-0.9765625,-0.265625
387,0.0,-0.96875,-0.28515625
388,0.0,-0.96875,-0.26953125
389,0.0,-0.97265625,-0.29296875
390,0.0,-0.9765625,-0.28125
391,0.0,-0.98046875,-0.30078125
392,0.00390625,-0.9765625,-0.28125
393,0.0078125,-0.98828125,-0.27734375
394,0.0,-0.984375,-0.27734375
395,0.00390625,-0.9765625,-0.2734375
396,0.0,-0.98046875,-0.27734375
397,-0.015625,-0.94921875,-0.2578125
398,0.0,-0.96484375,-0.28125
399,0.0,-0.96875,-0.28515625
400,-0.0078125,-0.96484375,-0.28515625
401,-0.01171875,-0.95703125,-0.28125
402,0.0,-0.9609375,-0.2734375
403,-0.0078125,-0.95703125,-0.2890625
404,-0.00390625,-0.95703125,-0.26953125
405,-0.0078125,-0.9609375,-0.29296875
406,-0.00390625,-0.97265625,-0.2890625
407,0.00390625,-0.953125,-0.29296875
408,-0.0078125,-0.96484375,-0.28515625
409,0.0,-0.96875,-0.2734375
410,0.0,-0.97265625,-0.27734375
411,-0.00390625,-0.9765625,-0.28125
412,0.0,-0.98046875,-0.26953125
413,-0.00390625,-0.984375,-0.28125
414,0.0,-0.98046875,-0.26171875
415,0.0,-0.98046875,-0.26953125
416,0.0,-0.9765625,-0.27734375
417,0.0078125,-0.9765625,-0.28125
418,0.0,-0.984375,-0.29296875
419,0.01171875,-0.98046875,-0.26953125
420,0.0078125,-0.96875,-0.2734375
421,0.00390625,-0.96875,-0.2734375
422,0.00390625,-0.98046875,-0.26171875
423,0.0078125,-0.97265625,-0.26171875
424,0.01953125,-0.97265625,-0.28125
425,0.01171875,-0.95703125,-0.26171875
426,0.0078125,-0.9609375,-0.28125
427,0.0078125,-0.96875,-0.26171875
428,0.0,-0.96484375,-0.26953125
429,0.0,-0.96875,-0.25390625
430,0.0078125,-0.96484375,-0.25390625
431,0.00390625,-0.96875,-0.265625
432,0.00390625,-0.96875,-0.2734375
433,0.0078125,-0.96875,-0.265625
434,0.00390625,-0.96484375,-0.28125
435,0.00390625,-0.97265625,-0.2734375
436,-0.00390625,-0.96875,-0.2734375
437,-0.0078125,-0.96875,-0.2734375
438,0.0078125,-0.96875,-0.25390625
439,0.00390625,-0.96875,-0.265625
440,-0.01171875,-1.00390625,-0.28515625
441,0.0,-0.97265625,-0.2734375
442,0.0,-0.96875,-0.26953125
443,0.0,-0.9765625,-0.265625
444,0.00390625,-0.97265625,-0.27734375
445,0.0,-0.97265625,-0.26171875
446,0.0,-0.9765625,-0.26953125
447,0.0,-0.96875,-0.28125
448,0.0,-0.96484375,-0.28125
449,0.00390625,-0.96875,-0.2734375
450,0.0,-0.98046875,-0.26953125
451,0.0,-0.96875,-0.26171875
452,0.0,-0.96875,-0.265625
453,-0.00390625,-0.96484375,-0.25
454,0.0,-0.97265625,-0.26953125
455,0.00390625,-0.9765625,-0.2578125
456,0.0,-0.98046875,-0.265625
457,0.0,-0.97265625,-0.26953125
458,0.0,-0.96875,-0.265625
459,-0.00390625,-0.98046875,-0.2734375
460,0.0,-0.97265625,-0.265625
461,0.0,-0.97265625,-0.25390625
462,-0.015625,-0.98046875,-0.26171875
463,0.00390625,-0.9765625,-0.2578125
464,0.0,-0.97265625,-0.265625
465,0.00390625,-0.9765625,-0.26171875
466,-0.0078125,-0.96875,-0.25
467,0.00390625,-0.97265625,-0.265625
468,0.00390625,-0.9765625,-0.265625
469,0.00390625,-0.9765625,-0.2734375
470,0.0,-0.9765625,-0.2578125
471,0.0,-0.97265625,-0.25390625
472,0.0,-0.98046875,-0.2578125
473,0.0,-0.96875,-0.2578125
474,-0.01953125,-0.96484375,-0.26171875
475,-0.00390625,-0.9765625,-0.26171875
476,0.0,-0.96875,-0.26953125
477,0.0,-0.96875,-0.26953125
478,0.0,-0.9765625,-0.25390625
479,0.00390625,-0.96875,-0.265625
480,-0.00390625,-0.96875,-0.265625
481,-0.0078125,-0.9765625,-0.26953125
482,0.0,-0.9765625,-0.265625
483,0.0,-0.98046875,-0.26171875
484,0.03515625,-0.96484375,-0.26953125
485,0.0,-0.96875,-0.26953125
486,0.0,-0.9765625,-0.26171875
487,0.00390625,-0.97265625,-0.26171875
488,0.0,-0.96875,-0.265625
489,0.0,-0.9765625,-0.26171875
490,-0.00390625,-0.97265625,-0.265625
491,0.00390625,-0.97265625,-0.25390625
492,0.00390625,-0.96875,-0.27734375
493,-0.0078125,-0.9765625,-0.2734375
494,0.0,-0.97265625,-0.26953125
495,0.0,-0.9765625,-0.2734375
496,0.0,-0.9765625,-0.26953125
497,-0.00390625,-0.97265625,-0.27734375
498,0.0078125,-0.97265625,-0.26171875
499,0.00390625,-0.9609375,-0.24609375
500,0.00390625,-0.9765625,-0.27734375
501,0.0,-0.96875,-0.265625
502,0.0,-0.98046875,-0.26953125
503,0.0,-0.97265625,-0.265625
504,0.00390625,-0.97265625,-0.265625
505,0.0,-0.9765625,-0.26953125
506,0.01171875,-1.0,-0.2578125
507,0.0078125,-0.96875,-0.265625
508,-0.0078125,-0.96875,-0.26953125
509,-0.00390625,-0.96875,-0.265625
510,0.0,-0.9765625,-0.24609375
511,0.0,-0.97265625,-0.24609375
512,-0.0078125,-0.98046875,-0.2578125
513,0.0,-0.97265625,-0.25390625
514,0.0,-0.96875,-0.24609375
515,-0.00390625,-0.984375,-0.24609375
516,-0.00390625,-0.9765625,-0.2421875
517,-0.015625,-0.97265625,-0.25
518,0.0,-0.98046875,-0.234375
519,0.0,-0.96875,-0.23828125
520,-0.0078125,-0.98046875,-0.2421875
521,-0.00390625,-0.98046875,-0.25
522,0.0,-0.98046875,-0.25
523,0.0,-0.9765625,-0.2421875
524,0.00390625,-0.984375,-0.24609375
525,0.00390625,-0.96875,-0.23828125
526,0.00390625,-0.98828125,-0.25390625
527,0.00390625,-0.97265625,-0.25390625
528,0.0,-0.9765625,-0.2421875
529,0.0,-0.9765625,-0.2421875
530,0.0,-0.9765625,-0.25390625
531,-0.00390625,-0.97265625,-0.25
532,-0.00390625,-0.97265625,-0.25
533,-0.00390625,-0.97265625,-0.26171875
534,-0.015625,-0.97265625,-0.234375
535,0.0,-0.9765625,-0.2421875
536,-0.00390625,-0.9765625,-0.2578125
537,-0.01171875,-0.97265625,-0.25390625
538,-0.015625,-0.97265625,-0.25
539,-0.00390625,-0.96875,-0.23828125
540,-0.0078125,-0.96875,-0.25
541,0.0,-0.97265625,-0.26171875
542,-0.00390625,-0.9765625,-0.26171875
543,0.0,-0.9765625,-0.26171875
544,-0.00390625,-0.98046875,-0.2578125
545,-0.0078125,-0.97265625,-0.24609375
546,0.0,-0.97265625,-0.24609375
547,0.0,-0.96875,-0.26171875
548,0.0,-0.97265625,-0.25390625
549,0.01953125,-0.98046875,-0.265625
550,-0.0078125,-0.97265625,-0.265625
551,0.00390625,-0.97265625,-0.25
552,0.0,-0.97265625,-0.25
553,0.0,-0.9765625,-0.25390625
554,-0.00390625,-0.96875,-0.2578125
555,0.0,-0.96875,-0.25390625
556,-0.00390625,-0.96875,-0.24609375
557,0.0,-0.9765625,-0.265625
558,0.00390625,-0.97265625,-0.2578125
559,0.0,-0.96484375,-0.25390625
560,0.0,-0.96484375,-0.24609375
561,0.0,-0.96875,-0.2421875
562,0.0078125,-0.97265625,-0.24609375
563,0.00390625,-0.97265625,-0.24609375
564,0.00390625,-0.97265625,-0.25390625
565,0.00390625,-0.96875,-0.2578125
566,0.00390625,-0.96875,-0.25390625
567,0.0078125,-0.96875,-0.25390625
568,-0.00390625,-0.97265625,-0.2578125
569,-0.0078125,-0.97265625,-0.23828125
570,-0.00390625,-0.97265625,-0.24609375
571,0.0078125,-0.94921875,-0.26953125
572,0.0,-0.97265625,-0.265625
573,0.0,-0.97265625,-0.25390625
574,0.0,-0.984375,-0.26171875
575,0.0,-0.9765625,-0.265625
576,0.00390625,-0.9765625,-0.25390625
577,0.00390625,-0.96875,-0.2578125
578,0.0,-0.984375,-0.25
579,0.00390625,-0.98046875,-0.25390625
580,0.0,-0.97265625,-0.24609375
581,0.0,-0.97265625,-0.2421875
582,0.01171875,-0.984375,-0.24609375
583,0.0,-0.984375,-0.2578125
584,0.00390625,-0.98046875,-0.25
585,0.00390625,-0.97265625,-0.24609375
586,0.0,-0.98046875,-0.234375
587,0.00390625,-0.98046875,-0.265625
588,0.0,-0.9765625,-0.24609375
589,0.0,-0.9765625,-0.2421875
590,-0.01171875,-0.96875,-0.23828125
591,-0.00390625,-0.97265625,-0.234375
592,-0.00390625,-0.97265625,-0.25
593,0.0078125,-1.0,-0.2421875
594,0.0,-0.9765625,-0.25
595,0.0,-0.984375,-0.25390625
596,0.0,-0.98046875,-0.23828125
597,-0.0078125,-0.96484375,-0.2421875
598,-0.0078125,-0.984375,-0.23828125
599,0.0,-0.98046875,-0.23828125
600,-0.0078125,-0.984375,-0.25
601,0.0,-0.9765625,-0.25
602,-0.01171875,-0.984375,-0.2421875
603,0.00390625,-0.9765625,-0.25
604,-0.0078125,-0.98046875,-0.2421875
605,0.0,-0.9765625,-0.2421875
606,-0.0078125,-0.9765625,-0.23828125
607,0.00390625,-0.9765625,-0.26171875
608,0.0,-0.98046875,-0.23828125
609,0.0,-0.98046875,-0.24609375
610,-0.00390625,-0.96875,-0.24609375
611,-0.0078125,-0.9765625,-0.26171875
612,-0.0078125,-0.9765625,-0.25390625
613,-0.00390625,-0.9765625,-0.2421875
614,-0.00390625,-0.9609375,-0.28515625
615,-0.00390625,-0.98046875,-0.2578125
616,-0.00390625,-0.97265625,-0.25390625
617,0.0,-0.98046875,-0.25390625
618,0.0,-0.96875,-0.25390625
619,0.0,-0.98046875,-0.25390625
620,-0.01171875,-0.96875,-0.24609375
621,-0.00390625,-0.9765625,-0.2578125
622,0.0,-0.96875,-0.24609375
623,-0.00390625,-0.97265625,-0.2421875
624,0.0078125,-0.97265625,-0.25390625
625,0.0,-0.96875,-0.2578125
626,0.0,-0.96484375,-0.24609375
627,0.0,-0.9765625,-0.23828125
628,0.0,-0.98046875,-0.23828125
629,0.0078125,-0.9765625,-0.2421875
630,0.0,-0.96875,-0.25
631,0.0,-0.97265625,-0.25
632,0.0,-0.97265625,-0.25390625
633,0.0,-0.98046875,-0.2421875
634,0.0,-0.96875,-0.234375
635,0.00390625,-0.98046875,-0.2421875
636,0.03125,-0.96875,-0.234375
637,0.00390625,-0.9765625,-0.23828125
638,0.0,-0.99609375,-0.234375
639,0.00390625,-0.98046875,-0.23046875
640,0.0,-0.9765625,-0.22265625
641,-0.0078125,-0.98046875,-0.23046875
642,0.0,-0.98046875,-0.21875
643,0.0,-0.97265625,-0.23046875
644,0.0,-0.97265625,-0.21875
645,-0.0078125,-0.984375,-0.23046875
646,0.0,-0.9765625,-0.21875
647,-0.00390625,-1.00390625,-0.21875
648,-0.00390625,-0.98046875,-0.21875
649,0.0,-0.9921875,-0.21484375
650,-0.01171875,-0.98828125,-0.22265625
651,0.0,-0.98828125,-0.23046875
652,0.00390625,-1.0,-0.2109375
653,0.0,-0.984375,-0.2109375
654,0.0,-0.984375,-0.21484375
655,0.0,-0.97265625,-0.22265625
656,0.0,-0.984375,-0.22265625
657,0.0,-0.9765625,-0.22265625
658,-0.01171875,-0.953125,-0.234375
659,0.0,-0.96484375,-0.21875
660,0.0,-0.96484375,-0.21484375
661,0.0,-0.97265625,-0.21875
662,0.0,-0.96484375,-0.22265625
663,-0.01171875,-0.96484375,-0.22265625
664,-0.00390625,-0.96484375,-0.23828125
665,0.0,-0.96875,-0.21875
666,-0.00390625,-0.97265625,-0.234375
667,-0.00390625,-0.98046875,-0.23046875
668,-0.0078125,-0.98828125,-0.24609375
669,-0.0078125,-0.9921875,-0.25
670,0.0,-0.98828125,-0.2421875
671,-0.00390625,-0.9921875,-0.24609375
672,-0.015625,-0.98828125,-0.265625
673,0.0,-0.9921875,-0.22265625
674,0.00390625,-0.984375,-0.23828125
675,0.0,-0.99609375,-0.23828125
676,-0.00390625,-0.98828125,-0.25
677,-0.0078125,-0.9765625,-0.25390625
678,0.0078125,-1.0,-0.23046875
679,-0.0078125,-0.98046875,-0.2421875
680,0.0078125,-0.984375,-0.203125
681,-0.00390625,-0.96484375,-0.234375
682,0.0,-0.9765625,-0.25390625
683,0.0,-0.97265625,-0.23046875
684,0.00390625,-0.96875,-0.21875
685,0.0,-0.97265625,-0.2265625
686,-0.00390625,-0.97265625,-0.23046875
687,0.0,-0.97265625,-0.23828125
688,-0.00390625,-0.98046875,-0.24609375
689,-0.01171875,-0.97265625,-0.2265625
690,0.0,-0.9765625,-0.22265625
691,0.00390625,-0.984375,-0.23828125
692,0.0,-0.98046875,-0.2421875
693,0.0,-0.98046875,-0.23046875
694,0.00390625,-0.98828125,-0.21875
695,0.0,-0.98828125,-0.23046875
696,0.01171875,-0.9765625,-0.2265625
697,0.00390625,-0.98046875,-0.234375
698,0.0078125,-0.9765625,-0.234375
699,0.00390625,-0.984375,-0.23046875
700,0.0,-0.984375,-0.21875
701,0.00390625,-0.984375,-0.23828125
702,0.0,-0.97265625,-0.21875
703,0.0,-0.98046875,-0.23828125
704,0.00390625,-0.98828125,-0.23046875
705,0.0078125,-0.9765625,-0.2421875
706,0.0,-0.98046875,-0.21875
707,0.0078125,-0.96875,-0.2421875
708,0.0,-0.97265625,-0.234375
709,0.00390625,-0.97265625,-0.2421875
710,0.00390625,-0.98046875,-0.2421875
711,0.0,-0.9765625,-0.25
712,0.0,-0.9765625,-0.25
713,0.0,-0.9765625,-0.24609375
714,0.0,-0.984375,-0.24609375
715,0.0,-0.9921875,-0.2421875
716,0.0,-0.98828125,-0.25
717,0.0,-0.984375,-0.25390625
718,-0.00390625,-0.984375,-0.23828125
719,0.0,-0.98828125,-0.25
720,-0.0078125,-0.98046875,-0.25390625
721,-0.0078125,-0.98046875,-0.23828125
722,0.0,-0.9765625,-0.2265625
723,0.0,-0.96484375,-0.234375
724,-0.0078125,-0.97265625,-0.2421875
725,-0.0078125,-0.97265625,-0.23046875
726,0.0,-0.96875,-0.234375
727,-0.0078125,-0.984375,-0.2421875
728,0.0,-0.984375,-0.25390625
729,0.00390625,-0.9765625,-0.2421875
730,-0.00390625,-0.96875,-0.2265625
731,-0.0078125,-0.9765625,-0.23828125
732,0.00390625,-0.9765625,-0.24609375
733,-0.01171875,-0.98046875,-0.23828125
734,-0.01171875,-0.96875,-0.24609375
735,0.0,-0.97265625,-0.2421875
736,0.0,-0.98828125,-0.23046875
737,-0.00390625,-0.984375,-0.25390625
738,-0.00390625,-0.96484375,-0.234375
739,-0.0078125,-0.98046875,-0.23828125
740,0.0,-0.97265625,-0.23046875
741,-0.00390625,-0.97265625,-0.2421875
742,-0.0078125,-0.98046875,-0.25
743,0.0,-0.96875,-0.23828125
744,0.0,-0.97265625,-0.25390625
745,-0.01953125,-1.0,-0.21484375
746,0.0,-0.9765625,-0.24609375
747,-0.0078125,-0.96875,-0.23828125
748,-0.0078125,-0.96875,-0.24609375
749,0.0,-0.97265625,-0.24609375
750,0.00390625,-0.98046875,-0.25390625
751,-0.00390625,-0.97265625,-0.25390625
752,-0.00390625,-0.9765625,-0.25
753,-0.00390625,-0.98828125,-0.24609375
754,0.0,-0.9765625,-0.2578125
755,0.0,-0.9765625,-0.25
756,0.0,-0.9765625,-0.25390625
757,0.0,-0.9765625,-0.2421875
758,0.00390625,-0.98828125,-0.2578125
759,0.00390625,-0.98828125,-0.25
760,0.00390625,-0.9765625,-0.24609375
761,-0.00390625,-0.9765625,-0.24609375
762,0.0,-0.98046875,-0.24609375
763,0.0,-0.9765625,-0.24609375
764,0.0,-0.97265625,-0.26171875
765,0.0,-0.984375,-0.25
766,0.0,-0.97265625,-0.23828125
767,-0.015625,-0.9609375,-0.26171875
768,0.0,-0.97265625,-0.24609375
769,0.0,-0.97265625,-0.2578125
770,0.0,-0.97265625,-0.25
771,0.0,-0.9765625,-0.25
772,0.0,-0.96875,-0.2578125
773,0.00390625,-0.9765625,-0.25
774,0.0,-0.97265625,-0.25
775,-0.00390625,-0.96875,-0.26953125
776,0.0,-0.97265625,-0.25
777,0.0,-0.98046875,-0.25
778,-0.01171875,-0.96875,-0.2578125
779,-0.00390625,-0.96484375,-0.26953125
780,0.0,-0.97265625,-0.25
781,0.0,-0.98046875,-0.24609375
782,-0.00390625,-0.96875,-0.25390625
783,-0.00390625,-0.97265625,-0.23828125
784,-0.00390625,-0.98828125,-0.24609375
785,0.0,-0.97265625,-0.25390625
786,-0.015625,-0.96875,-0.234375
787,-0.00390625,-0.96484375,-0.25390625
788,-0.01171875,-0.97265625,-0.24609375
789,-0.00390625,-0.9765625,-0.2578125
790,-0.01953125,-0.9609375,-0.23046875
791,-0.00390625,-0.98046875,-0.2421875
792,-0.015625,-0.97265625,-0.2265625
793,-0.01953125,-0.98046875,-0.234375
794,-0.015625,-0.9921875,-0.25
795,0.0,-0.9921875,-0.2578125
796,-0.015625,-0.97265625,-0.24609375
797,0.00390625,-0.984375,-0.2421875
798,-0.00390625,-0.97265625,-0.25390625
799,-0.01171875,-0.96484375,-0.23828125
800,0.00390625,-0.97265625,-0.25
801,0.0,-0.9765625,-0.24609375
802,0.0,-0.96875,-0.2421875
803,-0.00390625,-0.96875,-0.2421875
804,-0.0078125,-0.96875,-0.26953125
805,-0.00390625,-0.97265625,-0.26953125
806,0.0,-0.96875,-0.26171875
807,0.0,-0.96484375,-0.2578125
808,-0.00390625,-0.96484375,-0.2578125
809,0.0,-0.97265625,-0.25
810,-0.01171875,-0.96875,-0.265625
811,0.00390625,-0.97265625,-0.2578125
812,-0.01171875,-0.96875,-0.25
813,-0.01171875,-0.97265625,-0.2578125
814,-0.00390625,-0.98046875,-0.26171875
815,0.0,-0.98046875,-0.28125
816,-0.00390625,-0.98046875,-0.2734375
817,-0.00390625,-0.98046875,-0.26953125
818,-0.0078125,-0.97265625,-0.27734375
819,-0.015625,-0.97265625,-0.26953125
820,0.00390625,-0.98046875,-0.28125
821,0.00390625,-0.9765625,-0.28125
822,0.00390625,-0.98046875,-0.26953125
823,0.00390625,-0.96875,-0.29296875
824,0.0078125,-0.984375,-0.27734375
825,0.00390625,-0.96875,-0.26953125
826,0.0078125,-0.98046875,-0.265625
827,0.0078125,-0.98046875,-0.265625
828,0.0,-0.97265625,-0.265625
829,0.01171875,-0.98046875,-0.265625
830,0.00390625,-0.9765625,-0.26953125
831,0.0078125,-0.97265625,-0.26953125
832,0.01953125,-0.984375,-0.265625
833,0.01171875,-0.96484375,-0.28125
834,0.0078125,-0.96484375,-0.26171875
835,0.00390625,-0.96875,-0.265625
836,0.0078125,-0.96875,-0.2578125
837,0.00390625,-0.97265625,-0.27734375
838,0.00390625,-0.9609375,-0.27734375
839,0.015625,-0.96875,-0.27734375
840,0.0,-0.96875,-0.28125
841,0.00390625,-0.96875,-0.25
842,0.00390625,-0.96875,-0.27734375
843,0.0078125,-0.9765625,-0.26171875
844,0.00390625,-0.97265625,-0.265625
845,0.00390625,-0.96875,-0.2734375
846,0.0,-0.96875,-0.27734375
847,0.0078125,-0.97265625,-0.27734375
848,0.0,-0.96875,-0.27734375
849,0.00390625,-0.96875,-0.2734375
850,0.0,-0.96484375,-0.2734375
851,0.01171875,-0.96875,-0.2734375
852,0.00390625,-0.98046875,-0.28515625
853,0.00390625,-0.96875,-0.27734375
854,0.03125,-0.96875,-0.27734375
855,0.0078125,-0.96875,-0.26953125
856,0.0,-0.97265625,-0.2734375
857,0.0,-0.97265625,-0.2734375
858,0.0,-0.96875,-0.2734375
859,0.0,-0.9609375,-0.2734375
860,0.0,-0.96875,-0.26171875
861,0.00390625,-0.96875,-0.28515625
862,0.0078125,-0.96875,-0.28515625
863,0.01171875,-0.97265625,-0.29296875
864,0.0,-0.97265625,-0.27734375
865,0.00390625,-0.96875,-0.28125
866,0.00390625,-0.96875,-0.28515625
867,-0.0078125,-0.96484375,-0.2734375
868,0.0,-0.97265625,-0.28125
869,0.0,-0.97265625,-0.265625
870,0.0,-0.97265625,-0.27734375
871,0.0,-0.97265625,-0.2890625
872,-0.00390625,-0.96875,-0.28125
873,0.0,-0.9765625,-0.28125
874,-0.00390625,-0.9765625,-0.28125
875,0.0,-0.97265625,-0.28125
876,-0.0078125,-0.98046875,-0.28515625
877,0.0,-0.9765625,-0.28515625
878,0.0,-0.9765625,-0.26953125
879,-0.00390625,-0.984375,-0.26953125
880,0.0,-0.98046875,-0.26171875
881,0.0,-0.984375,-0.2734375
882,0.0,-0.9765625,-0.2578125
883,0.00390625,-0.96875,-0.26171875
884,0.0,-0.98046875,-0.2734375
885,0.0,-0.9765625,-0.26171875
886,0.0,-0.98046875,-0.2734375
887,0.00390625,-0.96875,-0.27734375
888,-0.00390625,-0.9765625,-0.26171875
889,0.0,-0.97265625,-0.27734375
890,0.0,-0.98828125,-0.2578125
891,0.0,-0.97265625,-0.265625
892,0.0,-0.98046875,-0.265625
893,0.0,-0.9765625,-0.2578125
894,-0.00390625,-0.98828125,-0.265625
895,0.00390625,-0.97265625,-0.265625
896,0.0,-0.9765625,-0.265625
897,0.0,-0.96875,-0.265625
898,0.00390625,-0.97265625,-0.265625
899,-0.00390625,-0.97265625,-0.2734375
900,0.0,-0.96484375,-0.26953125
901,0.0,-0.96875,-0.26953125
902,0.0,-0.97265625,-0.25390625
903,0.0,-0.98046875,-0.2578125
904,0.0,-0.96875,-0.26953125
905,0.00390625,-0.96875,-0.26953125
906,0.0,-0.96875,-0.265625
907,-0.0078125,-0.97265625,-0.265625
908,0.00390625,-0.9765625,-0.27734375
909,0.0,-0.9765625,-0.2578125
910,-0.01171875,-0.97265625,-0.26171875
911,0.0,-0.9765625,-0.265625
912,-0.015625,-0.96875,-0.26171875
913,0.0,-0.97265625,-0.26171875
914,-0.01171875,-0.96875,-0.26953125
915,-0.0078125,-0.9765625,-0.26171875
916,0.0,-0.9765625,-0.26171875
917,-0.0078125,-0.96875,-0.25
918,-0.01171875,-0.98046875,-0.265625
919,0.00390625,-1.02734375,-0.23828125
920,-0.0078125,-0.9765625,-0.25
921,0.0,-0.98046875,-0.25
922,0.0,-0.9765625,-0.265625
923,-0.01171875,-0.98828125,-0.234375
924,-0.00390625,-0.98828125,-0.265625
925,0.0,-0.98046875,-0.24609375
926,-0.00390625,-1.00390625,-0.2421875
927,0.00390625,-0.99609375,-0.24609375
928,0.0,-1.0,-0.25
929,0.0,-0.984375,-0.23046875
930,0.0,-0.9921875,-0.24609375
931,0.0,-0.98046875,-0.23046875
932,0.0,-0.98046875,-0.2265625
933,0.00390625,-0.984375,-0.24609375
934,0.0,-0.984375,-0.21484375
935,0.00390625,-1.0,-0.21875
936,0.0,-0.99609375,-0.22265625
937,0.00390625,-0.984375,-0.2109375
938,-0.0078125,-1.0,-0.2109375
939,-0.0078125,-1.0,-0.20703125
940,-0.0078125,-1.0,-0.2109375
941,-0.03125,-0.97265625,-0.265625
942,0.0,-1.0,-0.21875
943,-0.00390625,-1.0,-0.21484375
944,-0.0078125,-0.99609375,-0.203125
945,-0.01171875,-1.0,-0.203125
946,-0.03125,-0.99609375,-0.17578125
947,-0.0234375,-0.984375,-0.20703125
948,-0.02734375,-1.00390625,-0.18359375
949,-0.01953125,-1.00390625,-0.19140625
950,-0.01171875,-1.0,-0.1953125
951,-0.02734375,-0.9921875,-0.19140625
952,-0.01953125,-0.99609375,-0.19140625
953,-0.0078125,-0.99609375,-0.16796875
954,-0.0234375,-1.01171875,-0.18359375
955,-0.01171875,-1.015625,-0.15625
956,-0.01171875,-1.00390625,-0.171875
957,-0.0078125,-1.015625,-0.1875
958,0.0,-1.0,-0.18359375
959,0.0,-1.0078125,-0.18359375
960,0.0,-1.0,-0.16796875
961,-0.0078125,-0.9921875,-0.17578125
962,-0.01171875,-1.00390625,-0.16796875
963,-0.00390625,-1.015625,-0.1796875
964,-0.0078125,-1.00390625,-0.16796875
965,-0.01953125,-0.99609375,-0.15234375
966,-0.0390625,-1.0,-0.1640625
967,-0.03125,-1.0,-0.16015625
968,-0.04296875,-1.0078125,-0.1640625
969,-0.05078125,-1.01171875,-0.15625
970,-0.046875,-1.0078125,-0.15234375
971,-0.05859375,-1.00390625,-0.1484375
972,-0.05078125,-1.00390625,-0.15625
973,-0.05859375,-0.99609375,-0.1484375
974,-0.0625,-0.99609375,-0.14453125
975,-0.0546875,-1.01171875,-0.15625
976,-0.0546875,-1.0078125,-0.140625
977,-0.0546875,-1.0078125,-0.12109375
978,-0.03125,-1.01953125,-0.12890625
979,-0.01171875,-1.015625,-0.1171875
980,-0.02734375,-1.01953125,-0.09375
981,0.0,-1.015625,-0.1015625
982,-0.0234375,-1.015625,-0.09765625
983,0.0,-0.99609375,-0.1171875
984,0.0,-0.98828125,-0.12109375
985,0.015625,-0.9609375,-0.1015625
986,0.0,-0.97265625,-0.12109375
987,-0.00390625,-0.98046875,-0.12890625
988,0.0,-0.98046875,-0.11328125
989,0.0,-0.98046875,-0.109375
990,0.0,-0.9765625,-0.10546875
991,-0.0078125,-0.9765625,-0.1015625
992,-0.00390625,-0.9921875,-0.08203125
993,-0.02734375,-0.9921875,-0.078125
994,-0.01953125,-0.9921875,-0.0703125
995,-0.03125,-1.01171875,-0.0703125
996,-0.0390625,-1.015625,-0.078125
997,-0.03125,-1.01953125,-0.06640625
998,-0.0390625,-1.03125,-0.0703125
999,-0.04296875,-1.02734375,-0.078125
1000,-0.0546875,-1.0078125,-0.05859375
1001,-0.0546875,-1.015625,-0.07421875
1002,-0.06640625,-1.015625,-0.0703125
1003,-0.05078125,-1.015625,-0.07421875
1004,-0.0625,-1.0078125,-0.07421875
1005,-0.05078125,-1.015625,-0.0703125
1006,-0.04296875,-0.9921875,-0.08203125
1007,-0.0390625,-1.0,-0.0703125
1008,-0.03515625,-0.9921875,-0.05859375
1009,-0.03515625,-0.984375,-0.0546875
1010,-0.03125,-0.9765625,-0.0546875
1011,-0.0234375,-0.9765625,-0.06640625
1012,-0.01953125,-0.9765625,-0.05078125
1013,-0.03515625,-0.96875,-0.06640625
1014,-0.0390625,-0.9609375,-0.046875
1015,-0.015625,-0.97265625,-0.0390625
1016,-0.03515625,-0.96875,-0.0390625
1017,-0.01953125,-0.984375,-0.04296875
1018,-0.0234375,-0.98828125,-0.03515625
1019,-0.015625,-0.9921875,-0.0390625
1020,-0.01171875,-0.99609375,-0.0390625
1021,-0.015625,-1.0078125,-0.03515625
1022,-0.01953125,-0.99609375,-0.015625
1023,-0.0390625,-1.01171875,0.0078125
1024,-0.01953125,-1.03125,0.015625
1025,-0.0390625,-1.03515625,0.015625
1026,-0.04296875,-1.0390625,0.0234375
1027,-0.05078125,-1.0234375,0.0078125
1028,-0.078125,-1.02734375,-0.01171875
1029,-0.05859375,-0.98828125,-0.02734375
1030,-0.0625,-1.0,-0.01171875
1031,-0.046875,-0.98828125,-0.0078125
1032,-0.05078125,-0.984375,-0.015625
1033,-0.0546875,-0.98828125,0.00390625
1034,-0.0546875,-0.98828125,0.04296875
1035,-0.05078125,-0.9921875,0.05078125
1036,-0.0625,-1.0,0.07421875
1037,-0.05859375,-0.99609375,0.078125
1038,-0.03125,-0.984375,0.0703125
1039,-0.02734375,-0.9765625,0.0625
1040,-0.0390625,-0.96875,0.078125
1041,-0.03515625,-0.96875,0.0703125
1042,-0.04296875,-0.95703125,0.0625
1043,-0.03125,-0.96484375,0.0546875
1044,-0.02734375,-0.94921875,0.0546875
1045,-0.04296875,-0.9609375,0.06640625
1046,-0.0390625,-0.96484375,0.078125
1047,-0.02734375,-1.0703125,0.12109375
1048,-0.08203125,-0.98046875,0.109375
1049,-0.0625,-0.97265625,0.11328125
1050,-0.0703125,-0.98828125,0.1171875
1051,-0.046875,-0.97265625,0.12109375
1052,-0.046875,-0.98828125,0.1328125
1053,-0.0390625,-0.98828125,0.140625
1054,-0.04296875,-0.98046875,0.1484375
1055,-0.046875,-0.95703125,0.15625
1056,-0.03515625,-0.97265625,0.15625
1057,-0.04296875,-0.96484375,0.15234375
1058,-0.0390625,-0.96875,0.16796875
1059,-0.03515625,-0.94921875,0.1484375
1060,-0.02734375,-0.94921875,0.125
1061,-0.0234375,-0.9609375,0.12890625
1062,-0.01171875,-0.9609375,0.15234375
1063,-0.0234375,-0.98046875,0.140625
1064,-0.0234375,-0.99609375,0.1484375
1065,-0.0390625,-0.98828125,0.15625
1066,-0.01953125,-0.9921875,0.16796875
1067,-0.02734375,-0.9921875,0.16796875
1068,-0.01171875,-1.00390625,0.16796875
1069,-0.015625,-1.01171875,0.17578125
1070,-0.046875,-0.99609375,0.1640625
1071,-0.0625,-0.953125,0.15625
1072,-0.04296875,-0.94140625,0.15625
1073,-0.0390625,-0.96875,0.16796875
1074,-0.03125,-0.97265625,0.19140625
1075,-0.0546875,-0.98828125,0.19921875
1076,-0.0703125,-1.01171875,0.1875
1077,-0.078125,-1.015625,0.19921875
1078,-0.0859375,-0.984375,0.2109375
1079,-0.09765625,-0.98046875,0.19140625
1080,-0.1015625,-0.984375,0.21875
1081,-0.1015625,-0.96875,0.21875
1082,-0.09765625,-0.953125,0.20703125
1083,-0.0703125,-0.9453125,0.21484375
1084,-0.0703125,-0.953125,0.22265625
1085,-0.0703125,-0.95703125,0.21875
1086,-0.06640625,-0.95703125,0.22265625
1087,-0.06640625,-0.96484375,0.24609375
1088,-0.0546875,-0.96875,0.23828125
1089,-0.06640625,-0.96484375,0.26171875
1090,-0.06640625,-0.94140625,0.23828125
1091,-0.07421875,-0.94140625,0.234375
1092,-0.0546875,-0.97265625,0.23828125
1093,-0.0703125,-0.9296875,0.19140625
1094,-0.0390625,-0.94140625,0.2578125
1095,-0.04296875,-0.9296875,0.2578125
1096,-0.04296875,-0.9453125,0.2734375
1097,-0.05859375,-0.9375,0.26953125
1098,-0.03515625,-0.96484375,0.27734375
1099,-0.05078125,-0.9609375,0.28125
1100,-0.0546875,-0.96875,0.27734375
1101,-0.05859375,-0.96484375,0.2734375
1102,-0.046875,-0.95703125,0.2734375
1103,-0.05078125,-0.9453125,0.27734375
1104,-0.03125,-0.95703125,0.26953125
1105,-0.015625,-0.94921875,0.29296875
1106,-0.015625,-0.953125,0.29296875
1107,-0.00390625,-0.953125,0.296875
1108,0.0,-0.9609375,0.2890625
1109,-0.0078125,-0.94140625,0.28515625
1110,0.0,-0.953125,0.296875
1111,0.00390625,-0.9453125,0.30078125
1112,0.0,-0.94921875,0.30078125
1113,-0.0078125,-0.94140625,0.3046875
1114,-0.015625,-0.9296875,0.3046875
1115,-0.01953125,-0.91015625,0.25390625
1116,-0.03515625,-0.94140625,0.28515625
1117,-0.046875,-0.94921875,0.296875
1118,-0.046875,-0.9453125,0.3046875
1119,-0.0625,-0.96484375,0.30859375
1120,-0.04296875,-0.9609375,0.296875
1121,-0.03515625,-0.96875,0.3125
1122,-0.02734375,-0.9609375,0.296875
1123,-0.046875,-0.95703125,0.31640625
1124,-0.03125,-0.95703125,0.3203125
1125,-0.03125,-0.94140625,0.296875
1126,-0.04296875,-0.9140625,0.2890625
1127,-0.05078125,-0.890625,0.31640625
1128,-0.05859375,-0.8984375,0.328125
1129,-0.0703125,-0.89453125,0.33203125
1130,-0.046875,-0.921875,0.31640625
1131,-0.0625,-0.90234375,0.31640625
1132,-0.06640625,-0.90625,0.3203125
1133,-0.07421875,-0.91015625,0.33203125
1134,-0.0546875,-0.91015625,0.3515625
1135,-0.0546875,-0.90625,0.35546875
1136,-0.0390625,-0.8984375,0.3359375
1137,-0.07421875,-0.9140625,0.32421875
1138,-0.046875,-0.890625,0.3203125
1139,-0.046875,-0.90234375,0.32421875
1140,-0.04296875,-0.91796875,0.359375
1141,-0.046875,-0.92578125,0.359375
1142,-0.0546875,-0.92578125,0.3359375
1143,-0.05859375,-0.9296875,0.33203125
1144,-0.04296875,-0.91796875,0.328125
1145,-0.0546875,-0.91796875,0.33984375
1146,-0.05078125,-0.90625,0.33984375
1147,-0.06640625,-0.90234375,0.3359375
1148,-0.06640625,-0.89453125,0.3359375
1149,-0.078125,-0.89453125,0.3359375
1150,-0.0703125,-0.89453125,0.3203125
1151,-0.06640625,-0.89453125,0.34765625
1152,-0.0625,-0.88671875,0.359375
1153,-0.0546875,-0.90234375,0.3671875
1154,-0.0390625,-0.875,0.359375
1155,-0.02734375,-0.875,0.35546875
1156,-0.046875,-0.86328125,0.35546875
1157,-0.04296875,-0.85546875,0.359375
1158,-0.0625,-0.8515625,0.375
1159,-0.05078125,-0.87109375,0.37109375
1160,-0.05078125,-0.87890625,0.375
1161,-0.0546875,-0.875,0.35546875
1162,-0.04296875,-0.84375,0.3203125
1163,-0.046875,-0.83203125,0.3515625
1164,-0.0390625,-0.83984375,0.33984375
1165,-0.0390625,-0.83203125,0.34375
1166,-0.04296875,-0.84765625,0.37109375
1167,-0.046875,-0.85546875,0.3671875
1168,-0.04296875,-0.86328125,0.40234375
1169,-0.0390625,-0.8515625,0.3671875
1170,-0.03515625,-0.83203125,0.375
1171,-0.04296875,-0.81640625,0.359375
1172,-0.0625,-0.7734375,0.3671875
1173,-0.04296875,-0.76953125,0.36328125
1174,-0.03125,-0.75,0.37890625
1175,-0.03125,-0.71875,0.3984375
1176,-0.046875,-0.7265625,0.38671875
1177,-0.015625,-0.7265625,0.38671875
1178,-0.046875,-0.734375,0.4140625
1179,-0.0625,-0.734375,0.4296875
1180,-0.046875,-0.74609375,0.4296875
1181,-0.0859375,-0.7578125,0.4296875
1182,-0.078125,-0.76171875,0.4296875
1183,-0.0625,-0.765625,0.4375
1184,-0.0703125,-0.77734375,0.4296875
1185,-0.06640625,-0.78125,0.42578125
1186,-0.09375,-0.7578125,0.41796875
1187,-0.1015625,-0.72265625,0.38671875
1188,-0.0859375,-0.69921875,0.37109375
1189,-0.078125,-0.66796875,0.37109375
1190,-0.09375,-0.66015625,0.38671875
1191,-0.078125,-0.63671875,0.421875
1192,-0.09375,-0.6328125,0.43359375
1193,-0.08984375,-0.62890625,0.4453125
1194,-0.0859375,-0.6171875,0.46484375
1195,-0.09375,-0.61328125,0.484375
1196,-0.10546875,-0.59375,0.4921875
1197,-0.09765625,-0.56640625,0.51171875
1198,-0.10546875,-0.55078125,0.53125
1199,-0.109375,-0.54296875,0.54296875
1200,-0.12890625,-0.53515625,0.546875
1201,-0.1328125,-0.53515625,0.5703125
1202,-0.125,-0.5546875,0.5546875
1203,-0.12890625,-0.5703125,0.56640625
1204,-0.1484375,-0.57421875,0.5625
1205,-0.1484375,-0.58203125,0.55859375
1206,-0.1328125,-0.55859375,0.55859375
1207,-0.12109375,-0.5546875,0.5859375
1208,-0.125,-0.53515625,0.55859375
1209,-0.125,-0.5078125,0.5625
1210,-0.10546875,-0.46875,0.5390625
1211,-0.10546875,-0.44921875,0.5546875
1212,-0.0859375,-0.43359375,0.58203125
1213,-0.0859375,-0.41796875,0.58984375
1214,-0.06640625,-0.3984375,0.5703125
1215,-0.07421875,-0.3671875,0.5546875
1216,-0.09375,-0.3203125,0.5703125
1217,-0.09375,-0.29296875,0.578125
1218,-0.08203125,-0.27734375,0.6015625
1219,-0.04296875,-0.28125,0.58984375
1220,-0.0390625,-0.2890625,0.56640625
1221,-0.04296875,-0.31640625,0.5390625
1222,-0.0625,-0.28515625,0.5546875
1223,-0.05859375,-0.265625,0.60546875
1224,-0.03125,-0.28515625,0.5625
1225,-0.0078125,-0.2734375,0.5078125
1226,0.0,-0.2890625,0.421875
1227,-0.0078125,-0.23828125,0.40625
1228,0.015625,-0.19921875,0.35546875
1229,-0.09765625,-0.19140625,0.30859375
1230,-0.09375,-0.2109375,0.3046875
1231,-0.03515625,-0.140625,0.25
1232,-0.01953125,-0.02734375,0.19921875
1233,0.01171875,-0.1015625,0.17578125
1234,0.05859375,-0.06640625,0.14453125
1235,0.08203125,-0.01953125,0.1328125
1236,0.09765625,0.01171875,0.08203125
1237,0.20703125,0.01171875,0.03125
1238,0.25,0.07421875,-0.00390625
1239,0.15234375,0.05859375,0.015625
1240,0.01171875,0.0390625,0.08203125
1241,-0.109375,-0.03125,0.140625
1242,-0.1484375,-0.15234375,0.171875
1243,-0.13671875,-0.22265625,0.16015625
1244,-0.12109375,-0.2109375,0.21484375
1245,-0.05859375,-0.2421875,0.2265625
1246,0.0,-0.265625,0.22265625
1247,0.08203125,-0.2578125,0.2421875
1248,0.13671875,-0.234375,0.3515625
1249,0.19140625,-0.29296875,0.4453125
1250,0.1796875,-0.28515625,0.51171875
1251,0.1640625,-0.20703125,0.5390625
1252,0.09375,-0.09765625,0.5546875
1253,-0.00390625,-0.05078125,0.5546875
1254,-0.1015625,-0.0390625,0.49609375
1255,-0.16015625,-0.03125,0.45703125
1256,-0.17578125,0.015625,0.4453125
1257,-0.296875,0.046875,0.45703125
1258,-0.359375,0.11328125,0.48828125
1259,-0.31640625,0.11328125,0.51171875
1260,-0.3984375,0.11328125,0.37109375
1261,-0.53125,0.109375,0.33203125
1262,-0.85546875,0.12890625,0.26171875
1263,-1.05078125,0.171875,0.30078125
1264,-1.10546875,0.1796875,0.4609375
1265,-0.90625,0.234375,0.59765625
1266,-0.44140625,0.3203125,0.765625
1267,-0.55859375,0.76953125,1.12109375
1268,-0.76953125,1.20703125,1.5703125
1269,-0.85546875,1.69140625,2.21875
1270,-0.7890625,2.2578125,2.8828125
1271,-1.0546875,2.85546875,3.50390625
1272,-1.4375,3.58984375,4.03515625
1273,-2.05859375,4.30859375,4.08203125
1274,-2.71484375,4.62109375,3.59765625
1275,-3.06640625,4.18359375,3.20703125
1276,-3.09375,3.09375,3.01953125
1277,-2.4765625,1.65625,2.625
1278,-1.6484375,0.171875,2.0
1279,-0.796875,-0.8046875,1.36328125
1280,-0.24609375,-0.9765625,1.1796875
1281,0.36328125,-0.8203125,1.234375
1282,0.9765625,-0.94140625,1.32421875
1283,1.20703125,-1.20703125,1.59375
1284,1.05078125,-1.40625,1.73828125
1285,0.703125,-1.46875,1.6875
1286,0.3515625,-1.4140625,1.5234375
1287,0.09765625,-1.21875,1.3125
1288,-0.2109375,-0.9375,1.16796875
1289,-0.296875,-0.6796875,1.1171875
1290,-0.359375,-0.40234375,1.125
1291,-0.37109375,-0.078125,1.09765625
1292,-0.26953125,0.26171875,1.10546875
1293,-0.30078125,0.53515625,1.1484375
1294,-0.34375,0.734375,1.26953125
1295,-0.27734375,0.79296875,1.2890625
1296,-0.3359375,0.796875,1.2578125
1297,-0.40234375,0.72265625,1.19921875
1298,-0.40625,0.55859375,1.1015625
1299,-0.44921875,0.359375,1.0390625
1300,-0.48046875,0.18359375,1.0078125
1301,-0.4765625,0.0625,0.96875
1302,-0.46484375,-0.02734375,0.96875
1303,-0.5703125,-0.07421875,0.97265625
1304,-0.5859375,-0.14453125,0.9921875
1305,-0.5859375,-0.16015625,0.96484375
1306,-0.51953125,-0.17578125,0.93359375
1307,-0.5,-0.12109375,0.84375
1308,-0.52734375,-0.0390625,0.80859375
1309,-0.5546875,0.01953125,0.79296875
1310,-0.546875,0.02734375,0.8671875
1311,-0.5234375,0.046875,0.87890625
1312,-0.4765625,0.046875,0.8984375
1313,-0.4296875,0.03125,0.87890625
1314,-0.37890625,0.03515625,0.875
1315,-0.33203125,0.02734375,0.85546875
1316,-0.2734375,-0.02734375,0.84765625
1317,-0.23046875,-0.06640625,0.83203125
1318,-0.2109375,-0.12109375,0.88671875
1319,-0.19140625,-0.1796875,0.92578125
1320,-0.09375,-0.29296875,0.8359375
1321,-0.12890625,-0.37890625,0.578125
1322,-0.21875,-0.40625,0.5703125
1323,-0.3046875,-0.31640625,0.71875
1324,-0.359375,-0.21875,0.8671875
1325,-0.3828125,-0.11328125,0.9921875
1326,-0.37109375,-0.015625,1.09765625
1327,-0.3125,0.0078125,1.15234375
1328,-0.26171875,-0.02734375,1.1328125
1329,-0.28515625,-0.05078125,1.0390625
1330,-0.2890625,-0.1015625,0.9375
1331,-0.28515625,-0.19140625,0.87109375
1332,-0.2578125,-0.24609375,0.83203125
1333,-0.3203125,-0.3203125,0.79296875
1334,-0.32421875,-0.3671875,0.7734375
1335,-0.31640625,-0.41796875,0.77734375
1336,-0.32421875,-0.4375,0.7890625
1337,-0.34375,-0.44921875,0.79296875
1338,-0.3359375,-0.44921875,0.80078125
1339,-0.34765625,-0.421875,0.828125
1340,-0.36328125,-0.3984375,0.859375
1341,-0.37109375,-0.359375,0.85546875
1342,-0.390625,-0.33984375,0.88671875
1343,-0.38671875,-0.30078125,0.90625
1344,-0.36328125,-0.2734375,0.91015625
1345,-0.33984375,-0.25390625,0.9296875
1346,-0.35546875,-0.234375,0.90625
1347,-0.3671875,-0.23828125,0.90234375
1348,-0.3515625,-0.2578125,0.91796875
1349,-0.3515625,-0.28125,0.8984375
1350,-0.375,-0.27734375,0.8828125
1351,-0.375,-0.3125,0.87890625
1352,-0.37109375,-0.32421875,0.87109375
1353,-0.36328125,-0.33984375,0.84375
1354,-0.34375,-0.31640625,0.87109375
1355,-0.37109375,-0.3125,0.85546875
1356,-0.34375,-0.2890625,0.87890625
1357,-0.34375,-0.2578125,0.87109375
1358,-0.33203125,-0.25,0.90625
1359,-0.33984375,-0.265625,0.90234375
1360,-0.34375,-0.25390625,0.90234375
1361,-0.3515625,-0.25390625,0.88671875
1362,-0.3515625,-0.2421875,0.84765625
1363,-0.34765625,-0.234375,0.859375
1364,-0.33984375,-0.23828125,0.8359375
1365,-0.32421875,-0.2265625,0.85546875
1366,-0.33984375,-0.234375,0.8359375
1367,-0.31640625,-0.22265625,0.81640625
1368,-0.29296875,-0.22265625,0.8046875
1369,-0.28125,-0.21484375,0.8125
1370,-0.2890625,-0.203125,0.80078125
1371,-0.2734375,-0.19921875,0.7890625
1372,-0.27734375,-0.1953125,0.79296875
1373,-0.27734375,-0.19140625,0.80078125
1374,-0.28125,-0.20703125,0.80078125
1375,-0.2734375,-0.16796875,0.80078125
1376,-0.29296875,-0.20703125,0.8125
1377,-0.3203125,-0.1875,0.828125
1378,-0.3203125,-0.1875,0.8203125
1379,-0.33203125,-0.18359375,0.84765625
1380,-0.35546875,-0.17578125,0.83984375
1381,-0.37109375,-0.19140625,0.86328125
1382,-0.3671875,-0.18359375,0.875
1383,-0.37109375,-0.203125,0.875
1384,-0.390625,-0.18359375,0.890625
1385,-0.38671875,-0.1875,0.89453125
1386,-0.41015625,-0.18359375,0.91015625
1387,-0.42578125,-0.18359375,0.91015625
1388,-0.44140625,-0.1796875,0.91015625
1389,-0.44140625,-0.16015625,0.9140625
1390,-0.45703125,-0.15625,0.921875
1391,-0.44140625,-0.16796875,0.921875
1392,-0.4453125,-0.16015625,0.91796875
1393,-0.44140625,-0.1640625,0.9296875
1394,-0.4453125,-0.15234375,0.9296875
1395,-0.4375,-0.15625,0.93359375
1396,-0.4375,-0.1640625,0.921875
1397,-0.40625,-0.15625,0.91796875
1398,-0.4296875,-0.1640625,0.9375
1399,-0.4140625,-0.19140625,0.93359375
1400,-0.41796875,-0.1640625,0.9140625
1401,-0.40625,-0.1484375,0.90625
1402,-0.40625,-0.15234375,0.90625
1403,-0.39453125,-0.14453125,0.90234375
1404,-0.375,-0.16015625,0.90625
1405,-0.37109375,-0.1484375,0.8984375
1406,-0.34375,-0.1484375,0.90234375
1407,-0.3515625,-0.12890625,0.88671875
1408,-0.33203125,-0.15625,0.8828125
1409,-0.33203125,-0.1484375,0.87890625
1410,-0.3203125,-0.16015625,0.88671875
1411,-0.3125,-0.1640625,0.875
1412,-0.3046875,-0.16796875,0.87109375
1413,-0.3046875,-0.171875,0.87890625
1414,-0.30078125,-0.1875,0.86328125
1415,-0.30859375,-0.1875,0.87109375
1416,-0.30078125,-0.1796875,0.87109375
1417,-0.296875,-0.1796875,0.875
1418,-0.29296875,-0.171875,0.875
1419,-0.29296875,-0.171875,0.859375
1420,-0.2890625,-0.1796875,0.8828125
1421,-0.30078125,-0.171875,0.8828125
1422,-0.29296875,-0.1875,0.87890625
1423,-0.3046875,-0.1953125,0.890625
1424,-0.296875,-0.203125,0.8828125
1425,-0.29296875,-0.19921875,0.90234375
1426,-0.30078125,-0.21484375,0.89453125
1427,-0.30078125,-0.22265625,0.89453125
1428,-0.296875,-0.21875,0.8828125
1429,-0.296875,-0.2265625,0.89453125
1430,-0.296875,-0.23046875,0.89453125
1431,-0.30859375,-0.23046875,0.89453125
1432,-0.30078125,-0.2265625,0.91015625
1433,-0.30859375,-0.23046875,0.921875
1434,-0.3203125,-0.22265625,0.8984375
1435,-0.328125,-0.21875,0.890625
1436,-0.32421875,-0.2109375,0.8984375
1437,-0.33203125,-0.19921875,0.8984375
1438,-0.3203125,-0.19921875,0.89453125
1439,-0.32421875,-0.1953125,0.8984375
1440,-0.328125,-0.19140625,0.890625
1441,-0.3203125,-0.15234375,0.890625
1442,-0.328125,-0.171875,0.88671875
1443,-0.3359375,-0.17578125,0.890625
1444,-0.33984375,-0.18359375,0.875
1445,-0.34765625,-0.171875,0.8828125
1446,-0.3359375,-0.17578125,0.8828125
1447,-0.34765625,-0.17578125,0.890625
1448,-0.3515625,-0.171875,0.890625
1449,-0.34375,-0.16015625,0.890625
1450,-0.33984375,-0.1640625,0.8828125
1451,-0.33984375,-0.16015625,0.89453125
1452,-0.34765625,-0.16796875,0.8828125
1453,-0.3359375,-0.1796875,0.875
1454,-0.3359375,-0.1875,0.87890625
1455,-0.32421875,-0.17578125,0.890625
1456,-0.34375,-0.171875,0.89453125
1457,-0.33203125,-0.1640625,0.8828125
1458,-0.33203125,-0.1640625,0.875
1459,-0.33203125,-0.16796875,0.87890625
1460,-0.33984375,-0.171875,0.890625
1461,-0.34765625,-0.1640625,0.875
1462,-0.328125,-0.18359375,0.88671875
1463,-0.3203125,-0.15234375,0.87890625
1464,-0.33203125,-0.19140625,0.88671875
1465,-0.34765625,-0.1796875,0.88671875
1466,-0.3203125,-0.19140625,0.87109375
1467,-0.33203125,-0.1875,0.87890625
1468,-0.33984375,-0.1796875,0.890625
1469,-0.328125,-0.1875,0.90234375
1470,-0.3359375,-0.171875,0.8828125
1471,-0.33984375,-0.19140625,0.8984375
1472,-0.34375,-0.18359375,0.90234375
1473,-0.33984375,-0.1796875,0.90625
1474,-0.3359375,-0.171875,0.90625
1475,-0.3359375,-0.1796875,0.9140625
1476,-0.34765625,-0.18359375,0.890625
1477,-0.34375,-0.17578125,0.8984375
1478,-0.34765625,-0.171875,0.90234375
1479,-0.33984375,-0.171875,0.890625
1480,-0.33984375,-0.1796875,0.8828125
1481,-0.3359375,-0.1796875,0.90234375
1482,-0.33984375,-0.18359375,0.88671875
1483,-0.34375,-0.1796875,0.88671875
1484,-0.37109375,-0.1796875,0.88671875
1485,-0.3359375,-0.19140625,0.88671875
1486,-0.34375,-0.17578125,0.88671875
1487,-0.34765625,-0.17578125,0.87890625
1488,-0.33203125,-0.1875,0.89453125
1489,-0.33984375,-0.171875,0.890625
1490,-0.32421875,-0.1796875,0.90234375
1491,-0.33203125,-0.18359375,0.875
1492,-0.33203125,-0.171875,0.8828125
1493,-0.3359375,-0.1640625,0.8828125
1494,-0.34375,-0.171875,0.88671875
1495,-0.33984375,-0.17578125,0.90234375
1496,-0.33203125,-0.18359375,0.890625
1497,-0.34375,-0.16796875,0.87890625
1498,-0.32421875,-0.1796875,0.87890625
1499,-0.33203125,-0.18359375,0.85546875
1500,-0.33203125,-0.17578125,0.86328125
1501,-0.33203125,-0.1796875,0.875
1502,-0.31640625,-0.17578125,0.8828125
1503,-0.33203125,-0.1796875,0.87890625
1504,-0.33984375,-0.171875,0.8828125
1505,-0.328125,-0.19140625,0.90234375
1506,-0.3515625,-0.18359375,0.84375
1507,-0.328125,-0.171875,0.9140625
1508,-0.33984375,-0.1875,0.90234375
1509,-0.33984375,-0.18359375,0.90625
1510,-0.32421875,-0.1875,0.89453125
1511,-0.34375,-0.17578125,0.91796875
1512,-0.34765625,-0.17578125,0.90234375
1513,-0.33984375,-0.1796875,0.89453125
1514,-0.33203125,-0.18359375,0.89453125
1515,-0.359375,-0.1796875,0.91796875
1516,-0.34375,-0.19140625,0.90234375
1517,-0.34765625,-0.1953125,0.90234375
1518,-0.34765625,-0.1875,0.87890625
1519,-0.35546875,-0.1953125,0.89453125
1520,-0.35546875,-0.19921875,0.88671875
1521,-0.34375,-0.203125,0.875
1522,-0.36328125,-0.19140625,0.88671875
1523,-0.36328125,-0.18359375,0.875
1524,-0.35546875,-0.19140625,0.88671875
1525,-0.359375,-0.1953125,0.8828125
1526,-0.359375,-0.19140625,0.87890625
1527,-0.35546875,-0.19140625,0.8828125
1528,-0.35546875,-0.21875,0.859375
1529,-0.35546875,-0.203125,0.8671875
1530,-0.3671875,-0.19140625,0.87109375
1531,-0.3671875,-0.19140625,0.8828125
1532,-0.359375,-0.19140625,0.8671875
1533,-0.3671875,-0.1875,0.87890625
1534,-0.359375,-0.1953125,0.87109375
1535,-0.359375,-0.19921875,0.86328125
1536,-0.36328125,-0.1875,0.88671875
1537,-0.359375,-0.1953125,0.859375
1538,-0.3515625,-0.19921875,0.875
1539,-0.34765625,-0.1953125,0.859375
1540,-0.3671875,-0.1875,0.8671875
1541,-0.34375,-0.1953125,0.87109375
1542,-0.3515625,-0.1875,0.875
1543,-0.3515625,-0.20703125,0.87109375
1544,-0.34765625,-0.18359375,0.87890625
1545,-0.33984375,-0.19140625,0.875
1546,-0.3515625,-0.18359375,0.8828125
1547,-0.33203125,-0.1953125,0.87890625
1548,-0.33984375,-0.203125,0.88671875
1549,-0.3359375,-0.1953125,0.8828125
1550,-0.34375,-0.24609375,0.8828125
1551,-0.33203125,-0.2109375,0.88671875
1552,-0.34765625,-0.1953125,0.890625
1553,-0.3515625,-0.20703125,0.8828125
1554,-0.3515625,-0.1953125,0.88671875
1555,-0.33203125,-0.2109375,0.87890625
1556,-0.3515625,-0.2109375,0.88671875
1557,-0.359375,-0.2109375,0.875
1558,-0.33984375,-0.21484375,0.88671875
1559,-0.3359375,-0.21875,0.88671875
1560,-0.34375,-0.2109375,0.890625
1561,-0.34375,-0.2109375,0.88671875
1562,-0.3515625,-0.20703125,0.88671875
1563,-0.34375,-0.2109375,0.87890625
1564,-0.3515625,-0.203125,0.8671875
1565,-0.34765625,-0.2109375,0.8515625
1566,-0.34375,-0.21484375,0.86328125
1567,-0.34375,-0.21484375,0.8671875
1568,-0.34375,-0.20703125,0.87109375
1569,-0.35546875,-0.1953125,0.85546875
1570,-0.3515625,-0.19921875,0.86328125
1571,-0.3671875,-0.203125,0.87109375
1572,-0.35546875,-0.2109375,0.87890625
1573,-0.3515625,-0.2109375,0.87890625
1574,-0.33984375,-0.203125,0.87109375
1575,-0.35546875,-0.1953125,0.87890625
1576,-0.34765625,-0.1875,0.875
1577,-0.36328125,-0.18359375,0.87890625
1578,-0.36328125,-0.19140625,0.87109375
1579,-0.35546875,-0.20703125,0.88671875
1580,-0.359375,-0.19140625,0.87890625
1581,-0.36328125,-0.203125,0.8828125
1582,-0.36328125,-0.20703125,0.8671875
1583,-0.35546875,-0.2109375,0.890625
1584,-0.37109375,-0.20703125,0.88671875
1585,-0.37109375,-0.19921875,0.890625
1586,-0.36328125,-0.203125,0.88671875
1587,-0.3671875,-0.20703125,0.875
1588,-0.359375,-0.203125,0.86328125
1589,-0.3671875,-0.203125,0.8671875
1590,-0.375,-0.203125,0.890625
1591,-0.359375,-0.19921875,0.87890625
1592,-0.36328125,-0.21484375,0.87890625
1593,-0.37109375,-0.1953125,0.8828125
1594,-0.36328125,-0.2109375,0.8671875
1595,-0.36328125,-0.21484375,0.8671875
1596,-0.3671875,-0.2109375,0.86328125
1597,-0.35546875,-0.20703125,0.875
1598,-0.3671875,-0.2109375,0.8515625
1599,-0.359375,-0.2109375,0.87890625
1600,-0.3671875,-0.2109375,0.875
1601,-0.35546875,-0.21875,0.87109375
1602,-0.36328125,-0.2109375,0.859375
1603,-0.34765625,-0.21875,0.8671875
1604,-0.359375,-0.20703125,0.87109375
1605,-0.33984375,-0.21875,0.85546875
1606,-0.3359375,-0.21875,0.875
1607,-0.3515625,-0.21875,0.8828125
1608,-0.34375,-0.21875,0.8828125
1609,-0.359375,-0.22265625,0.87890625
1610,-0.359375,-0.2265625,0.8671875
1611,-0.35546875,-0.21484375,0.875
1612,-0.36328125,-0.21875,0.8671875
1613,-0.34375,-0.2265625,0.86328125
1614,-0.34375,-0.21484375,0.84765625
1615,-0.36328125,-0.25390625,0.87890625
1616,-0.34765625,-0.2109375,0.8671875
1617,-0.34375,-0.22265625,0.86328125
1618,-0.359375,-0.23046875,0.859375
1619,-0.36328125,-0.23046875,0.86328125
1620,-0.359375,-0.21875,0.85546875
1621,-0.36328125,-0.21875,0.87109375
1622,-0.359375,-0.22265625,0.8671875
1623,-0.37109375,-0.22265625,0.8671875
1624,-0.37109375,-0.2265625,0.85546875
1625,-0.36328125,-0.21875,0.8671875
1626,-0.37109375,-0.22265625,0.86328125
1627,-0.375,-0.21875,0.86328125
1628,-0.36328125,-0.21484375,0.86328125
1629,-0.3671875,-0.21875,0.859375
1630,-0.36328125,-0.21875,0.875
1631,-0.36328125,-0.21875,0.87890625
1632,-0.3671875,-0.22265625,0.8671875
1633,-0.3671875,-0.2265625,0.859375
1634,-0.359375,-0.21875,0.8828125
1635,-0.359375,-0.21875,0.8671875
1636,-0.37109375,-0.21875,0.86328125
1637,-0.375,-0.2109375,0.890625
1638,-0.36328125,-0.21484375,0.87109375
1639,-0.37109375,-0.21484375,0.8671875
1640,-0.3671875,-0.21875,0.87109375
1641,-0.36328125,-0.21875,0.859375
1642,-0.37109375,-0.21484375,0.86328125
1643,-0.3515625,-0.21484375,0.87109375
1644,-0.36328125,-0.21875,0.8671875
1645,-0.37109375,-0.21875,0.8671875
1646,-0.36328125,-0.22265625,0.8671875
1647,-0.36328125,-0.22265625,0.85546875
1648,-0.375,-0.21484375,0.86328125
1649,-0.35546875,-0.21875,0.86328125
1650,-0.35546875,-0.22265625,0.875
1651,-0.359375,-0.21484375,0.85546875
1652,-0.35546875,-0.21484375,0.86328125
1653,-0.36328125,-0.2265625,0.86328125
1654,-0.359375,-0.21875,0.84375
1655,-0.359375,-0.21875,0.84375
1656,-0.3671875,-0.21875,0.859375
1657,-0.3671875,-0.22265625,0.859375
1658,-0.3671875,-0.21875,0.87109375
1659,-0.34765625,-0.22265625,0.87109375
1660,-0.3671875,-0.21875,0.86328125
1661,-0.359375,-0.22265625,0.87109375
1662,-0.359375,-0.22265625,0.859375
1663,-0.359375,-0.21875,0.8671875
1664,-0.34375,-0.2265625,0.875
1665,-0.3515625,-0.22265625,0.86328125
1666,-0.36328125,-0.22265625,0.8671875
1667,-0.34375,-0.23046875,0.875
1668,-0.35546875,-0.22265625,0.8828125
1669,-0.35546875,-0.22265625,0.87890625
1670,-0.3671875,-0.20703125,0.87109375
1671,-0.3671875,-0.21875,0.87890625
1672,-0.35546875,-0.21484375,0.875
1673,-0.359375,-0.2109375,0.87109375
1674,-0.35546875,-0.21484375,0.86328125
1675,-0.359375,-0.2265625,0.875
1676,-0.3515625,-0.22265625,0.859375
1677,-0.3515625,-0.21484375,0.87890625
1678,-0.359375,-0.22265625,0.8515625
1679,-0.359375,-0.22265625,0.8671875
1680,-0.34765625,-0.2109375,0.828125
1681,-0.359375,-0.22265625,0.85546875
1682,-0.36328125,-0.21875,0.86328125
1683,-0.359375,-0.21484375,0.85546875
1684,-0.3671875,-0.21484375,0.86328125
1685,-0.36328125,-0.22265625,0.83984375
1686,-0.36328125,-0.22265625,0.87109375
1687,-0.3671875,-0.22265625,0.875
1688,-0.3671875,-0.2265625,0.8515625
1689,-0.37109375,-0.21875,0.8671875
1690,-0.36328125,-0.21484375,0.85546875
1691,-0.3515625,-0.1796875,0.87109375
1692,-0.37890625,-0.2109375,0.86328125
1693,-0.36328125,-0.2109375,0.87890625
1694,-0.36328125,-0.20703125,0.87890625
1695,-0.36328125,-0.19140625,0.875
1696,-0.37109375,-0.21875,0.87890625
1697,-0.375,-0.203125,0.88671875
1698,-0.3671875,-0.2109375,0.87890625
1699,-0.36328125,-0.20703125,0.8671875
1700,-0.36328125,-0.21484375,0.88671875
1701,-0.36328125,-0.2109375,0.859375
1702,-0.33203125,-0.19921875,0.87109375
1703,-0.359375,-0.29296875,0.87890625
1704,-0.3671875,-0.1953125,0.87109375
1705,-0.34375,-0.203125,0.86328125
1706,-0.37109375,-0.2109375,0.8671875
1707,-0.3515625,-0.20703125,0.87109375
1708,-0.359375,-0.2109375,0.859375
1709,-0.3515625,-0.203125,0.84765625
1710,-0.3515625,-0.203125,0.8671875
1711,-0.35546875,-0.23046875,0.8515625
1712,-0.36328125,-0.25390625,0.94140625
1713,-0.3515625,-0.2109375,0.875
1714,-0.3515625,-0.20703125,0.87109375
1715,-0.3515625,-0.19921875,0.86328125
1716,-0.35546875,-0.2109375,0.87109375
1717,-0.3515625,-0.2109375,0.89453125
1718,-0.375,-0.2109375,0.859375
1719,-0.3828125,-0.17578125,0.8359375
1720,-0.35546875,-0.23828125,0.796875
1721,-0.39453125,-0.19140625,0.87890625
1722,-0.37890625,-0.171875,0.9140625
1723,-0.35546875,-0.21484375,0.859375
1724,-0.3671875,-0.1875,0.91796875
1725,-0.34375,-0.16015625,0.88671875
1726,-0.36328125,-0.26171875,0.8828125
1727,-0.3515625,-0.1484375,0.87109375
1728,-0.37890625,-0.20703125,0.87109375
1729,-0.359375,-0.203125,0.87109375
1730,-0.35546875,-0.203125,0.8828125
1731,-0.3671875,-0.203125,0.8828125
1732,-0.3046875,-0.1796875,0.88671875
1733,-0.34375,-0.1796875,0.8828125
1734,-0.375,-0.20703125,0.9140625
1735,-0.33984375,-0.21875,0.8515625
1736,-0.36328125,-0.23828125,0.859375
1737,-0.3671875,-0.2109375,0.859375
1738,-0.3046875,-0.17578125,0.890625
1739,-0.33203125,-0.20703125,0.90234375
1740,-0.34765625,-0.22265625,0.85546875
1741,-0.35546875,-0.20703125,0.86328125
1742,-0.328125,-0.15625,0.88671875
1743,-0.35546875,-0.1640625,0.890625
1744,-0.359375,-0.2109375,0.8671875
1745,-0.359375,-0.1953125,0.8828125
1746,-0.359375,-0.203125,0.87109375
1747,-0.359375,-0.19921875,0.87890625
1748,-0.359375,-0.1875,0.890625
1749,-0.33203125,-0.20703125,0.83203125
1750,-0.375,-0.1953125,0.88671875
1751,-0.37890625,-0.203125,0.875
1752,-0.3515625,-0.19921875,0.890625
1753,-0.35546875,-0.171875,0.8515625
1754,-0.3359375,-0.1953125,0.86328125
1755,-0.3828125,-0.1953125,0.87890625
1756,-0.3671875,-0.19140625,0.89453125
1757,-0.37109375,-0.16015625,0.8671875
1758,-0.390625,-0.21875,0.89453125
1759,-0.34765625,-0.19140625,0.84765625
1760,-0.35546875,-0.1796875,0.890625
1761,-0.35546875,-0.1796875,0.8671875
1762,-0.3515625,-0.19140625,0.8984375
1763,-0.35546875,-0.18359375,0.8984375
1764,-0.3671875,-0.203125,0.890625
1765,-0.34765625,-0.17578125,0.859375
1766,-0.40625,-0.20703125,0.94140625
1767,-0.3359375,-0.1875,0.85546875
1768,-0.34765625,-0.15625,0.88671875
1769,-0.2734375,-0.18359375,0.8984375
1770,-0.39453125,-0.18359375,0.87890625
1771,-0.33984375,-0.19921875,0.87890625
1772,-0.38671875,-0.21484375,0.94921875
1773,-0.328125,-0.18359375,0.85546875
1774,-0.3125,-0.18359375,0.890625
1775,-0.3515625,-0.1875,0.875
1776,-0.35546875,-0.19140625,0.87890625
1777,-0.3515625,-0.1953125,0.87109375
1778,-0.36328125,-0.1796875,0.875
1779,-0.36328125,-0.21875,0.81640625
1780,-0.33984375,-0.234375,0.91015625
1781,-0.34375,-0.22265625,0.84765625
1782,-0.375,-0.19921875,0.8984375
1783,-0.35546875,-0.19921875,0.87109375
1784,-0.37109375,-0.16796875,0.84765625
1785,-0.375,-0.1875,0.89453125
1786,-0.359375,-0.171875,0.83203125
1787,-0.36328125,-0.1953125,0.875
1788,-0.38671875,-0.19921875,0.88671875
1789,-0.359375,-0.171875,0.85546875
1790,-0.359375,-0.1875,0.87109375
1791,-0.36328125,-0.1796875,0.87109375
1792,-0.36328125,-0.19140625,0.87890625
1793,-0.3671875,-0.1953125,0.88671875
1794,-0.3984375,-0.171875,0.84375
1795,-0.34765625,-0.19921875,0.85546875
1796,-0.3671875,-0.1875,0.88671875
1797,-0.3515625,-0.1953125,0.8828125
1798,-0.34765625,-0.17578125,0.875
1799,-0.359375,-0.203125,0.86328125
1800,-0.35546875,-0.203125,0.86328125
1801,-0.34765625,-0.203125,0.8828125
1802,-0.3671875,-0.19140625,0.875
1803,-0.375,-0.14453125,0.90234375
1804,-0.34765625,-0.2109375,0.875
1805,-0.36328125,-0.19921875,0.875
1806,-0.35546875,-0.1953125,0.890625
1807,-0.35546875,-0.20703125,0.8828125
1808,-0.359375,-0.140625,0.8046875
1809,-0.359375,-0.203125,0.875
1810,-0.35546875,-0.18359375,0.875
1811,-0.36328125,-0.19921875,0.875
1812,-0.359375,-0.19921875,0.87890625
1813,-0.33984375,-0.19921875,0.8828125
1814,-0.3671875,-0.18359375,0.8828125
1815,-0.35546875,-0.19921875,0.8828125
1816,-0.3515625,-0.1875,0.87890625
1817,-0.37109375,-0.19140625,0.87109375
1818,-0.359375,-0.1875,0.875
1819,-0.35546875,-0.1875,0.87890625
1820,-0.3515625,-0.18359375,0.890625
1821,-0.359375,-0.19140625,0.88671875
1822,-0.3671875,-0.20703125,0.8671875
1823,-0.35546875,-0.18359375,0.89453125
1824,-0.36328125,-0.1953125,0.88671875
1825,-0.359375,-0.1953125,0.89453125
1826,-0.35546875,-0.1875,0.890625
1827,-0.359375,-0.1875,0.87890625
1828,-0.36328125,-0.1953125,0.8671875
1829,-0.35546875,-0.1875,0.88671875
1830,-0.359375,-0.1953125,0.87890625
1831,-0.34765625,-0.1796875,0.86328125
1832,-0.34375,-0.18359375,0.875
1833,-0.3671875,-0.1796875,0.85546875
1834,-0.359375,-0.19140625,0.88671875
1835,-0.359375,-0.17578125,0.87890625
1836,-0.3515625,-0.19140625,0.87890625
1837,-0.36328125,-0.1796875,0.87109375
1838,-0.34375,-0.19140625,0.87890625
1839,-0.36328125,-0.1875,0.88671875
1840,-0.34765625,-0.1875,0.87890625
1841,-0.359375,-0.19140625,0.87890625
1842,-0.3515625,-0.1796875,0.8671875
1843,-0.375,-0.1953125,0.8828125
1844,-0.35546875,-0.1875,0.87890625
1845,-0.359375,-0.1796875,0.87109375
1846,-0.3671875,-0.19140625,0.8671875
1847,-0.35546875,-0.19140625,0.87890625
1848,-0.35546875,-0.19140625,0.8671875
1849,-0.34765625,-0.1875,0.8828125
1850,-0.36328125,-0.1875,0.8671875
1851,-0.3515625,-0.19921875,0.88671875
1852,-0.3515625,-0.1953125,0.87890625
1853,-0.359375,-0.17578125,0.8828125
1854,-0.34765625,-0.18359375,0.86328125
1855,-0.3671875,-0.20703125,0.89453125
1856,-0.36328125,-0.1875,0.875
1857,-0.35546875,-0.18359375,0.87890625
1858,-0.36328125,-0.19140625,0.8671875
1859,-0.35546875,-0.19140625,0.87109375
1860,-0.359375,-0.18359375,0.88671875
1861,-0.36328125,-0.1796875,0.87890625
1862,-0.3515625,-0.19140625,0.890625
1863,-0.3671875,-0.19140625,0.87890625
1864,-0.34765625,-0.1953125,0.87890625
1865,-0.3515625,-0.1875,0.88671875
1866,-0.36328125,-0.18359375,0.87109375
1867,-0.3515625,-0.1953125,0.8828125
1868,-0.35546875,-0.1875,0.88671875
1869,-0.34765625,-0.1953125,0.87890625
1870,-0.3515625,-0.1875,0.89453125
1871,-0.34765625,-0.1953125,0.88671875
1872,-0.35546875,-0.1953125,0.87890625
1873,-0.36328125,-0.18359375,0.890625
1874,-0.36328125,-0.1875,0.875
1875,-0.34765625,-0.1953125,0.8828125
1876,-0.33984375,-0.19921875,0.890625
1877,-0.3515625,-0.18359375,0.890625
1878,-0.34765625,-0.19921875,0.87890625
1879,-0.3515625,-0.18359375,0.875
1880,-0.36328125,-0.1796875,0.8828125
1881,-0.3515625,-0.19140625,0.8828125
1882,-0.34375,-0.19140625,0.890625
1883,-0.3515625,-0.1953125,0.90234375
1884,-0.3515625,-0.1875,0.875
1885,-0.36328125,-0.1875,0.87890625
1886,-0.3515625,-0.18359375,0.890625
1887,-0.35546875,-0.1953125,0.890625
1888,-0.3515625,-0.1953125,0.87890625
1889,-0.34375,-0.1953125,0.8828125
1890,-0.35546875,-0.1875,0.87109375
1891,-0.34765625,-0.19140625,0.87890625
1892,-0.359375,-0.18359375,0.875
1893,-0.34375,-0.19140625,0.87890625
1894,-0.359375,-0.19921875,0.8828125
1895,-0.35546875,-0.19140625,0.87890625
1896,-0.3515625,-0.19140625,0.8828125
1897,-0.3515625,-0.203125,0.875
1898,-0.3515625,-0.21484375,0.90234375
1899,-0.3515625,-0.203125,0.875
1900,-0.35546875,-0.1875,0.87109375
1901,-0.359375,-0.1953125,0.88671875
1902,-0.3515625,-0.203125,0.875
1903,-0.37109375,-0.1953125,0.875
1904,-0.359375,-0.19921875,0.875
1905,-0.34765625,-0.19921875,0.8828125
1906,-0.36328125,-0.1875,0.86328125
1907,-0.36328125,-0.19140625,0.87109375
1908,-0.3671875,-0.1875,0.875
1909,-0.35546875,-0.203125,0.87890625
1910,-0.3515625,-0.20703125,0.87109375
1911,-0.3671875,-0.19921875,0.8671875
1912,-0.37109375,-0.203125,0.8828125
1913,-0.3671875,-0.20703125,0.859375
1914,-0.359375,-0.20703125,0.859375
1915,-0.34765625,-0.21875,0.86328125
1916,-0.359375,-0.2109375,0.875
1917,-0.37890625,-0.2109375,0.87890625
1918,-0.3671875,-0.19921875,0.875
1919,-0.37109375,-0.20703125,0.875
1920,-0.3359375,-0.22265625,0.90625
1921,-0.37109375,-0.21484375,0.90234375
1922,-0.37109375,-0.21484375,0.86328125
1923,-0.3671875,-0.2109375,0.8828125
1924,-0.36328125,-0.21875,0.87890625
1925,-0.35546875,-0.21484375,0.890625
1926,-0.3515625,-0.21484375,0.86328125
1927,-0.36328125,-0.20703125,0.87109375
1928,-0.3671875,-0.203125,0.8515625
1929,-0.359375,-0.20703125,0.85546875
1930,-0.36328125,-0.20703125,0.859375
1931,-0.3515625,-0.203125,0.8515625
1932,-0.359375,-0.20703125,0.85546875
1933,-0.36328125,-0.19921875,0.8671875
1934,-0.35546875,-0.19921875,0.8671875
1935,-0.3515625,-0.19921875,0.87109375
1936,-0.3515625,-0.203125,0.86328125
1937,-0.3671875,-0.19140625,0.86328125
1938,-0.35546875,-0.1953125,0.87890625
1939,-0.359375,-0.203125,0.87109375
1940,-0.35546875,-0.203125,0.85546875
1941,-0.34765625,-0.20703125,0.8828125
1942,-0.359375,-0.2109375,0.86328125
1943,-0.35546875,-0.20703125,0.88671875
1944,-0.35546875,-0.2109375,0.890625
1945,-0.35546875,-0.19921875,0.87109375
1946,-0.359375,-0.21875,0.8515625
1947,-0.359375,-0.203125,0.87109375
1948,-0.35546875,-0.21484375,0.87890625
1949,-0.36328125,-0.20703125,0.875
1950,-0.35546875,-0.2109375,0.87109375
1951,-0.35546875,-0.21875,0.87890625
1952,-0.37109375,-0.20703125,0.86328125
1953,-0.37109375,-0.21484375,0.875
1954,-0.359375,-0.21875,0.87890625
1955,-0.359375,-0.19921875,0.84765625
1956,-0.359375,-0.22265625,0.87109375
1957,-0.3671875,-0.2109375,0.85546875
1958,-0.3671875,-0.21875,0.8671875
1959,-0.37890625,-0.21484375,0.87109375
1960,-0.36328125,-0.21875,0.87890625
1961,-0.3828125,-0.2109375,0.859375
1962,-0.36328125,-0.2109375,0.86328125
1963,-0.3671875,-0.2109375,0.87109375
1964,-0.3828125,-0.25,0.92578125
1965,-0.3671875,-0.21875,0.87109375
1966,-0.3671875,-0.20703125,0.86328125
1967,-0.36328125,-0.20703125,0.85546875
1968,-0.359375,-0.21875,0.86328125
1969,-0.36328125,-0.21875,0.8671875
1970,-0.3671875,-0.21484375,0.859375
1971,-0.359375,-0.21875,0.86328125
1972,-0.37109375,-0.2109375,0.86328125
1973,-0.35546875,-0.21484375,0.86328125
1974,-0.36328125,-0.21875,0.86328125
1975,-0.36328125,-0.21875,0.8671875
1976,-0.3515625,-0.2265625,0.859375
1977,-0.35546875,-0.21875,0.859375
1978,-0.33984375,-0.2421875,0.8671875
1979,-0.3359375,-0.23046875,0.87109375
1980,-0.359375,-0.2265625,0.859375
1981,-0.359375,-0.234375,0.8515625
1982,-0.359375,-0.23046875,0.85546875
1983,-0.34765625,-0.22265625,0.8671875
1984,-0.3515625,-0.21484375,0.85546875
1985,-0.36328125,-0.21875,0.85546875
1986,-0.359375,-0.22265625,0.86328125
1987,-0.359375,-0.22265625,0.86328125
1988,-0.3671875,-0.21484375,0.8671875
1989,-0.37109375,-0.21484375,0.86328125
1990,-0.36328125,-0.22265625,0.86328125
1991,-0.36328125,-0.21875,0.86328125
1992,-0.35546875,-0.234375,0.859375
1993,-0.3671875,-0.21875,0.85546875
1994,-0.359375,-0.23046875,0.859375
1995,-0.3671875,-0.2265625,0.87109375
1996,-0.36328125,-0.21875,0.875
1997,-0.3671875,-0.22265625,0.859375
1998,-0.3671875,-0.20703125,0.86328125
1999,-0.3671875,-0.21875,0.87109375
2000,-0.37109375,-0.21484375,0.87890625
2001,-0.375,-0.21484375,0.86328125
2002,-0.375,-0.21875,0.8671875
2003,-0.359375,-0.22265625,0.87890625
2004,-0.37109375,-0.21484375,0.8671875
2005,-0.36328125,-0.21875,0.875
2006,-0.37109375,-0.21484375,0.890625
2007,-0.37890625,-0.21484375,0.90234375
2008,-0.35546875,-0.2265625,0.875
2009,-0.37109375,-0.21875,0.8671875
2010,-0.3671875,-0.21875,0.87890625
2011,-0.37109375,-0.2265625,0.87890625
2012,-0.37109375,-0.22265625,0.875
2013,-0.3671875,-0.22265625,0.86328125
2014,-0.37109375,-0.22265625,0.86328125
2015,-0.3671875,-0.21875,0.87109375
2016,-0.37890625,-0.22265625,0.8671875
2017,-0.3671875,-0.22265625,0.87109375
2018,-0.375,-0.23046875,0.8671875
2019,-0.36328125,-0.2265625,0.85546875
2020,-0.359375,-0.2265625,0.85546875
2021,-0.36328125,-0.2265625,0.85546875
2022,-0.3671875,-0.21875,0.87109375
2023,-0.37109375,-0.2265625,0.84765625
2024,-0.375,-0.21875,0.8671875
2025,-0.35546875,-0.22265625,0.87109375
2026,-0.35546875,-0.21484375,0.84765625
2027,-0.36328125,-0.2265625,0.87109375
2028,-0.3671875,-0.2265625,0.86328125
2029,-0.359375,-0.25,0.8828125
2030,-0.359375,-0.2265625,0.8515625
2031,-0.3671875,-0.2265625,0.8515625
2032,-0.359375,-0.23046875,0.85546875
2033,-0.3671875,-0.23046875,0.859375
2034,-0.359375,-0.2265625,0.85546875
2035,-0.3671875,-0.23828125,0.85546875
2036,-0.3515625,-0.23828125,0.85546875
2037,-0.3671875,-0.234375,0.859375
2038,-0.3671875,-0.22265625,0.8515625
2039,-0.35546875,-0.23046875,0.86328125
2040,-0.37890625,-0.21875,0.85546875
2041,-0.359375,-0.234375,0.84765625
2042,-0.35546875,-0.23046875,0.859375
2043,-0.359375,-0.2265625,0.85546875
2044,-0.35546875,-0.23828125,0.859375
2045,-0.36328125,-0.23046875,0.84765625
2046,-0.359375,-0.23046875,0.84765625
2047,-0.3671875,-0.23046875,0.8515625
2048,-0.3671875,-0.22265625,0.84765625
2049,-0.359375,-0.23828125,0.859375
2050,-0.3671875,-0.21875,0.85546875
2051,-0.3671875,-0.20703125,0.89453125
2052,-0.3671875,-0.21875,0.8671875
2053,-0.37109375,-0.21875,0.8671875
2054,-0.3671875,-0.21875,0.859375
2055,-0.375,-0.21875,0.87109375
2056,-0.36328125,-0.22265625,0.86328125
2057,-0.36328125,-0.22265625,0.86328125
2058,-0.375,-0.22265625,0.8671875
2059,-0.37109375,-0.20703125,0.859375
2060,-0.3671875,-0.22265625,0.85546875
2061,-0.359375,-0.2265625,0.86328125
2062,-0.35546875,-0.2265625,0.8671875
2063,-0.3671875,-0.22265625,0.875
2064,-0.375,-0.22265625,0.86328125
2065,-0.37109375,-0.2265625,0.86328125
2066,-0.3671875,-0.22265625,0.87109375
2067,-0.3671875,-0.21875,0.875
2068,-0.3671875,-0.2265625,0.84375
2069,-0.3515625,-0.23046875,0.875
2070,-0.359375,-0.22265625,0.859375
2071,-0.3671875,-0.21875,0.859375
2072,-0.3671875,-0.21875,0.87890625
2073,-0.33984375,-0.19921875,0.87890625
2074,-0.359375,-0.21484375,0.859375
2075,-0.375,-0.21484375,0.875
2076,-0.36328125,-0.20703125,0.875
2077,-0.359375,-0.2109375,0.87890625
2078,-0.359375,-0.21875,0.8828125
2079,-0.359375,-0.22265625,0.86328125
2080,-0.3515625,-0.21875,0.875
2081,-0.35546875,-0.2109375,0.87109375
2082,-0.34375,-0.21484375,0.8515625
2083,-0.3515625,-0.21875,0.8671875
2084,-0.37109375,-0.21484375,0.8671875
2085,-0.35546875,-0.21484375,0.8671875
2086,-0.37109375,-0.21484375,0.8671875
2087,-0.359375,-0.21484375,0.86328125
2088,-0.359375,-0.21484375,0.86328125
2089,-0.37109375,-0.22265625,0.87890625
2090,-0.36328125,-0.203125,0.859375
2091,-0.375,-0.21484375,0.87890625
2092,-0.36328125,-0.21484375,0.875
2093,-0.3671875,-0.2109375,0.875
2094,-0.390625,-0.21875,0.89453125
2095,-0.36328125,-0.21875,0.8828125
2096,-0.3671875,-0.21484375,0.8671875
2097,-0.37109375,-0.21484375,0.85546875
2098,-0.359375,-0.21875,0.85546875
2099,-0.36328125,-0.2109375,0.85546875
2100,-0.35546875,-0.21484375,0.8671875
2101,-0.359375,-0.21875,0.87109375
2102,-0.36328125,-0.2109375,0.859375
2103,-0.37109375,-0.20703125,0.8671875
2104,-0.3515625,-0.21875,0.875
2105,-0.36328125,-0.1953125,0.859375
2106,-0.35546875,-0.203125,0.875
2107,-0.35546875,-0.20703125,0.8671875
2108,-0.359375,-0.19921875,0.87890625
2109,-0.36328125,-0.203125,0.87109375
2110,-0.3671875,-0.1875,0.8671875
2111,-0.37109375,-0.1953125,0.88671875
2112,-0.35546875,-0.1953125,0.86328125
2113,-0.36328125,-0.19140625,0.8828125
2114,-0.36328125,-0.203125,0.875
2115,-0.34765625,-0.2109375,0.875
2116,-0.35546875,-0.2109375,0.8671875
2117,-0.359375,-0.19921875,0.875
2118,-0.34765625,-0.2109375,0.890625
2119,-0.35546875,-0.203125,0.8828125
2120,-0.359375,-0.19921875,0.87890625
2121,-0.36328125,-0.1953125,0.875
2122,-0.35546875,-0.21484375,0.8671875
2123,-0.3515625,-0.21484375,0.89453125
2124,-0.36328125,-0.2109375,0.890625
2125,-0.359375,-0.21484375,0.875
2126,-0.35546875,-0.2109375,0.87890625
2127,-0.36328125,-0.20703125,0.875
2128,-0.35546875,-0.2109375,0.87890625
2129,-0.359375,-0.203125,0.8671875
2130,-0.3515625,-0.20703125,0.87890625
2131,-0.359375,-0.203125,0.87890625
2132,-0.359375,-0.20703125,0.86328125
2133,-0.35546875,-0.20703125,0.87109375
2134,-0.34765625,-0.20703125,0.8671875
2135,-0.36328125,-0.19140625,0.8671875
2136,-0.3671875,-0.1953125,0.87890625
2137,-0.3515625,-0.20703125,0.86328125
2138,-0.33984375,-0.1796875,0.88671875
2139,-0.36328125,-0.19140625,0.85546875
2140,-0.35546875,-0.203125,0.8671875
2141,-0.3359375,-0.19921875,0.859375
2142,-0.3515625,-0.1953125,0.8671875
2143,-0.3515625,-0.19921875,0.88671875
2144,-0.35546875,-0.19921875,0.88671875
2145,-0.3671875,-0.2109375,0.8828125
2146,-0.3515625,-0.20703125,0.8828125
2147,-0.3515625,-0.20703125,0.87890625
2148,-0.3671875,-0.20703125,0.890625
2149,-0.36328125,-0.21875,0.87109375
2150,-0.35546875,-0.20703125,0.8671875
2151,-0.35546875,-0.2109375,0.859375
2152,-0.35546875,-0.19921875,0.875
2153,-0.36328125,-0.203125,0.875
2154,-0.3671875,-0.203125,0.8671875
2155,-0.359375,-0.19921875,0.875
2156,-0.359375,-0.19921875,0.87109375
2157,-0.359375,-0.19921875,0.859375
2158,-0.3671875,-0.18359375,0.8671875
2159,-0.37109375,-0.1796875,0.87109375
2160,-0.37890625,-0.2265625,0.86328125
2161,-0.34765625,-0.1875,0.8671875
2162,-0.359375,-0.19140625,0.87890625
2163,-0.359375,-0.19140625,0.87890625
2164,-0.359375,-0.18359375,0.87109375
2165,-0.35546875,-0.1953125,0.8828125
2166,-0.359375,-0.19921875,0.8828125
2167,-0.3671875,-0.1953125,0.859375
2168,-0.34765625,-0.1953125,0.87890625
2169,-0.37109375,-0.19140625,0.890625
2170,-0.34765625,-0.1953125,0.8671875
2171,-0.35546875,-0.19921875,0.890625
2172,-0.35546875,-0.1875,0.8828125
2173,-0.3515625,-0.1953125,0.859375
2174,-0.359375,-0.18359375,0.8828125
2175,-0.35546875,-0.1953125,0.890625
2176,-0.35546875,-0.19140625,0.875
2177,-0.3515625,-0.19140625,0.88671875
2178,-0.34765625,-0.203125,0.890625
2179,-0.359375,-0.1875,0.89453125
2180,-0.35546875,-0.1953125,0.87109375
2181,-0.35546875,-0.18359375,0.85546875
2182,-0.3359375,-0.19140625,0.8828125
2183,-0.36328125,-0.1875,0.86328125
2184,-0.36328125,-0.1953125,0.8671875
2185,-0.35546875,-0.1953125,0.8828125
2186,-0.359375,-0.19140625,0.875
2187,-0.359375,-0.171875,0.875
2188,-0.36328125,-0.18359375,0.89453125
2189,-0.34765625,-0.1796875,0.8828125
2190,-0.35546875,-0.19140625,0.8671875
2191,-0.3515625,-0.18359375,0.8828125
2192,-0.34765625,-0.1875,0.875
2193,-0.35546875,-0.1875,0.875
2194,-0.3515625,-0.18359375,0.87890625
2195,-0.35546875,-0.1796875,0.88671875
2196,-0.3515625,-0.1953125,0.87890625
2197,-0.35546875,-0.18359375,0.89453125
2198,-0.3515625,-0.1875,0.88671875
2199,-0.35546875,-0.1953125,0.87109375
2200,-0.36328125,-0.19140625,0.8828125
2201,-0.3515625,-0.18359375,0.90625
2202,-0.34765625,-0.1953125,0.87890625
2203,-0.3359375,-0.1953125,0.8984375
2204,-0.35546875,-0.1875,0.88671875
2205,-0.3515625,-0.19140625,0.890625
2206,-0.34765625,-0.1953125,0.87109375
2207,-0.359375,-0.203125,0.89453125
2208,-0.359375,-0.1796875,0.88671875
2209,-0.359375,-0.18359375,0.8828125
2210,-0.34765625,-0.1953125,0.87109375
2211,-0.359375,-0.203125,0.88671875
2212,-0.35546875,-0.20703125,0.8828125
2213,-0.359375,-0.1875,0.875
2214,-0.3515625,-0.19140625,0.88671875
2215,-0.3515625,-0.17578125,0.87109375
2216,-0.3671875,-0.1875,0.87109375
2217,-0.3515625,-0.1796875,0.87890625
2218,-0.35546875,-0.19140625,0.87890625
2219,-0.359375,-0.1796875,0.8671875
2220,-0.3515625,-0.19921875,0.8515625
2221,-0.34765625,-0.19140625,0.87109375
2222,-0.359375,-0.19140625,0.8828125
2223,-0.36328125,-0.19140625,0.87890625
2224,-0.35546875,-0.1875,0.88671875
2225,-0.3515625,-0.19140625,0.87890625
2226,-0.359375,-0.1953125,0.890625
2227,-0.3515625,-0.203125,0.88671875
2228,-0.359375,-0.19140625,0.87890625
2229,-0.35546875,-0.19140625,0.86328125
2230,-0.359375,-0.19140625,0.88671875
2231,-0.3515625,-0.19140625,0.87109375
2232,-0.3515625,-0.1953125,0.88671875
2233,-0.34375,-0.1875,0.8828125
2234,-0.3359375,-0.1875,0.89453125
2235,-0.3515625,-0.1875,0.875
2236,-0.35546875,-0.1953125,0.87890625
2237,-0.34375,-0.19140625,0.87109375
2238,-0.34765625,-0.19921875,0.87109375
2239,-0.3515625,-0.1953125,0.88671875
2240,-0.3515625,-0.18359375,0.87890625
2241,-0.36328125,-0.1875,0.87109375
2242,-0.33984375,-0.19140625,0.859375
2243,-0.3515625,-0.19140625,0.87890625
2244,-0.359375,-0.18359375,0.87109375
2245,-0.3671875,-0.1796875,0.87109375
2246,-0.34765625,-0.1875,0.88671875
2247,-0.35546875,-0.19921875,0.859375
2248,-0.35546875,-0.1796875,0.875
2249,-0.34375,-0.19140625,0.8828125
2250,-0.34765625,-0.1953125,0.87890625
2251,-0.34765625,-0.18359375,0.88671875
2252,-0.35546875,-0.18359375,0.88671875
2253,-0.35546875,-0.17578125,0.875
2254,-0.35546875,-0.19921875,0.87890625
2255,-0.36328125,-0.17578125,0.87890625
2256,-0.3515625,-0.1796875,0.875
2257,-0.36328125,-0.17578125,0.88671875
2258,-0.35546875,-0.171875,0.875
2259,-0.3515625,-0.17578125,0.890625
2260,-0.3671875,-0.171875,0.8984375
2261,-0.359375,-0.1796875,0.890625
2262,-0.359375,-0.1640625,0.89453125
2263,-0.3515625,-0.19140625,0.88671875
2264,-0.34765625,-0.1953125,0.875
2265,-0.34375,-0.19921875,0.8984375
2266,-0.3515625,-0.1953125,0.90234375
2267,-0.359375,-0.19921875,0.89453125
2268,-0.36328125,-0.1953125,0.90625
2269,-0.3515625,-0.1484375,0.89453125
2270,-0.3671875,-0.18359375,0.87890625
2271,-0.36328125,-0.171875,0.890625
2272,-0.34765625,-0.171875,0.87890625
2273,-0.359375,-0.1796875,0.8671875
2274,-0.33984375,-0.171875,0.875
2275,-0.3515625,-0.1796875,0.87109375
2276,-0.359375,-0.1875,0.875
2277,-0.35546875,-0.17578125,0.87109375
2278,-0.35546875,-0.17578125,0.87109375
2279,-0.34375,-0.17578125,0.87890625
2280,-0.3515625,-0.171875,0.859375
2281,-0.34765625,-0.171875,0.87109375
2282,-0.34765625,-0.1875,0.87890625
2283,-0.34765625,-0.18359375,0.8828125
2284,-0.36328125,-0.1875,0.8984375
2285,-0.359375,-0.171875,0.89453125
2286,-0.3515625,-0.19921875,0.88671875
2287,-0.36328125,-0.1796875,0.8828125
2288,-0.34765625,-0.17578125,0.890625
2289,-0.36328125,-0.1796875,0.88671875
2290,-0.36328125,-0.19140625,0.8671875
2291,-0.3671875,-0.1875,0.87890625
2292,-0.34375,-0.17578125,0.890625
2293,-0.34765625,-0.18359375,0.88671875
2294,-0.35546875,-0.1875,0.88671875
2295,-0.35546875,-0.171875,0.890625
2296,-0.359375,-0.18359375,0.87890625
2297,-0.3515625,-0.19140625,0.88671875
2298,-0.34765625,-0.1875,0.88671875
2299,-0.34765625,-0.1796875,0.87890625
2300,-0.3515625,-0.171875,0.8984375
2301,-0.34375,-0.1796875,0.87109375
2302,-0.35546875,-0.1796875,0.8828125
2303,-0.34375,-0.17578125,0.8984375
2304,-0.3515625,-0.17578125,0.88671875
2305,-0.35546875,-0.1875,0.88671875
2306,-0.35546875,-0.18359375,0.8828125
2307,-0.359375,-0.17578125,0.875
2308,-0.3515625,-0.17578125,0.8984375
2309,-0.34765625,-0.1796875,0.87890625
2310,-0.34375,-0.1796875,0.88671875
2311,-0.359375,-0.16796875,0.875
2312,-0.359375,-0.203125,0.86328125
2313,-0.3515625,-0.18359375,0.87890625
2314,-0.3515625,-0.18359375,0.8828125
2315,-0.34375,-0.171875,0.87890625
2316,-0.35546875,-0.18359375,0.88671875
2317,-0.33984375,-0.1953125,0.88671875
2318,-0.34765625,-0.171875,0.87890625
2319,-0.35546875,-0.1875,0.90234375
2320,-0.359375,-0.19921875,0.890625
2321,-0.34765625,-0.1953125,0.86328125
2322,-0.34765625,-0.20703125,0.88671875
2323,-0.35546875,-0.2109375,0.87890625
2324,-0.359375,-0.20703125,0.87890625
2325,-0.34765625,-0.2109375,0.88671875
2326,-0.35546875,-0.19921875,0.86328125
2327,-0.3515625,-0.203125,0.875
2328,-0.35546875,-0.19921875,0.85546875
2329,-0.359375,-0.19140625,0.875
2330,-0.36328125,-0.1875,0.8671875
2331,-0.3515625,-0.19140625,0.875
2332,-0.36328125,-0.19921875,0.86328125
2333,-0.3671875,-0.1875,0.875
2334,-0.359375,-0.19140625,0.87890625
2335,-0.36328125,-0.19140625,0.875
2336,-0.35546875,-0.1953125,0.875
2337,-0.35546875,-0.203125,0.8671875
2338,-0.37109375,-0.19140625,0.86328125
2339,-0.37109375,-0.203125,0.87890625
2340,-0.37109375,-0.203125,0.8828125
2341,-0.375,-0.19921875,0.8671875
2342,-0.37109375,-0.1953125,0.87890625
2343,-0.3671875,-0.19140625,0.8828125
2344,-0.359375,-0.203125,0.86328125
2345,-0.375,-0.19921875,0.87109375
2346,-0.3671875,-0.20703125,0.875
2347,-0.36328125,-0.19921875,0.8828125
2348,-0.359375,-0.20703125,0.86328125
2349,-0.34765625,-0.20703125,0.87109375
2350,-0.359375,-0.19921875,0.875
2351,-0.3671875,-0.20703125,0.8828125
2352,-0.359375,-0.2109375,0.87890625
2353,-0.3515625,-0.20703125,0.89453125
2354,-0.3671875,-0.20703125,0.87890625
2355,-0.3515625,-0.20703125,0.8671875
2356,-0.37890625,-0.203125,0.859375
2357,-0.36328125,-0.19921875,0.87109375
2358,-0.3515625,-0.203125,0.8828125
2359,-0.35546875,-0.2109375,0.87890625
2360,-0.34765625,-0.19921875,0.87890625
2361,-0.36328125,-0.19921875,0.8828125
2362,-0.37109375,-0.19921875,0.8671875
2363,-0.3359375,-0.203125,0.8828125
2364,-0.35546875,-0.1953125,0.87890625
2365,-0.34375,-0.203125,0.875
2366,-0.34765625,-0.2109375,0.87890625
2367,-0.35546875,-0.21875,0.87890625
2368,-0.3515625,-0.2109375,0.87109375
2369,-0.3515625,-0.20703125,0.86328125
2370,-0.3515625,-0.203125,0.87109375
2371,-0.3515625,-0.203125,0.86328125
2372,-0.3671875,-0.20703125,0.87109375
2373,-0.359375,-0.2109375,0.8671875
2374,-0.3515625,-0.21484375,0.86328125
2375,-0.359375,-0.2109375,0.8671875
2376,-0.36328125,-0.2109375,0.86328125
2377,-0.37109375,-0.22265625,0.86328125
2378,-0.35546875,-0.22265625,0.875
2379,-0.36328125,-0.203125,0.859375
2380,-0.37890625,-0.203125,0.86328125
2381,-0.3671875,-0.21484375,0.87109375
2382,-0.36328125,-0.21484375,0.8671875
2383,-0.3671875,-0.20703125,0.87109375
2384,-0.375,-0.2109375,0.86328125
2385,-0.3671875,-0.21484375,0.87890625
2386,-0.3515625,-0.2109375,0.86328125
2387,-0.36328125,-0.203125,0.87109375
2388,-0.38671875,-0.20703125,0.8671875
2389,-0.36328125,-0.21484375,0.87109375
2390,-0.3671875,-0.21484375,0.8671875
2391,-0.37109375,-0.2109375,0.8671875
2392,-0.37109375,-0.21875,0.8671875
2393,-0.37109375,-0.21484375,0.8671875
2394,-0.375,-0.21875,0.8671875
2395,-0.37109375,-0.2109375,0.87890625
2396,-0.3671875,-0.2109375,0.859375
2397,-0.37109375,-0.21484375,0.87890625
2398,-0.375,-0.21484375,0.859375
2399,-0.31640625,-0.23828125,0.87890625
2400,-0.36328125,-0.21484375,0.88671875
2401,-0.3671875,-0.21875,0.87109375
2402,-0.3515625,-0.2109375,0.8828125
2403,-0.36328125,-0.21875,0.859375
2404,-0.36328125,-0.21875,0.85546875
2405,-0.35546875,-0.22265625,0.8671875
2406,-0.35546875,-0.21875,0.86328125
2407,-0.37890625,-0.2109375,0.84375
2408,-0.34765625,-0.21484375,0.85546875
2409,-0.359375,-0.21875,0.875
2410,-0.3671875,-0.20703125,0.875
2411,-0.3671875,-0.21875,0.8671875
2412,-0.37109375,-0.21875,0.859375
2413,-0.36328125,-0.21875,0.87109375
2414,-0.36328125,-0.21875,0.875
2415,-0.3671875,-0.21875,0.890625
2416,-0.37109375,-0.21875,0.8671875
2417,-0.359375,-0.22265625,0.859375
2418,-0.36328125,-0.21875,0.86328125
2419,-0.359375,-0.22265625,0.87109375
2420,-0.3671875,-0.21484375,0.8671875
2421,-0.3515625,-0.21875,0.85546875
2422,-0.3671875,-0.20703125,0.86328125
2423,-0.359375,-0.2109375,0.859375
2424,-0.3671875,-0.22265625,0.8671875
2425,-0.3671875,-0.22265625,0.8671875
2426,-0.37109375,-0.21875,0.87109375
2427,-0.37109375,-0.2109375,0.85546875
2428,-0.3671875,-0.21875,0.8671875
2429,-0.37109375,-0.22265625,0.86328125
2430,-0.375,-0.22265625,0.859375
2431,-0.359375,-0.22265625,0.87109375
2432,-0.3671875,-0.21875,0.86328125
2433,-0.37109375,-0.22265625,0.8671875
2434,-0.37890625,-0.21484375,0.86328125
2435,-0.36328125,-0.21875,0.84765625
2436,-0.35546875,-0.2265625,0.859375
2437,-0.35546875,-0.23046875,0.86328125
2438,-0.37109375,-0.21875,0.859375
2439,-0.359375,-0.22265625,0.85546875
2440,-0.3671875,-0.20703125,0.86328125
2441,-0.37109375,-0.21875,0.86328125
2442,-0.3671875,-0.21484375,0.8671875
2443,-0.38671875,-0.21484375,0.87890625
2444,-0.359375,-0.23046875,0.87109375
2445,-0.37109375,-0.2109375,0.8671875
2446,-0.36328125,-0.22265625,0.86328125
2447,-0.375,-0.2265625,0.859375
2448,-0.3671875,-0.22265625,0.8515625
2449,-0.37109375,-0.22265625,0.859375
2450,-0.37109375,-0.21875,0.875
2451,-0.37109375,-0.22265625,0.8515625
2452,-0.3671875,-0.2265625,0.85546875
2453,-0.359375,-0.234375,0.8671875
2454,-0.359375,-0.2421875,0.87109375
2455,-0.3671875,-0.23046875,0.859375
2456,-0.36328125,-0.22265625,0.86328125
2457,-0.359375,-0.234375,0.87890625
2458,-0.37890625,-0.22265625,0.87109375
2459,-0.36328125,-0.2265625,0.859375
2460,-0.36328125,-0.2265625,0.8671875
2461,-0.37890625,-0.2265625,0.8515625
2462,-0.375,-0.2265625,0.859375
2463,-0.37109375,-0.2265625,0.83984375
2464,-0.3671875,-0.22265625,0.8515625
2465,-0.37109375,-0.19140625,0.83984375
2466,-0.36328125,-0.22265625,0.83984375
2467,-0.3671875,-0.21484375,0.85546875
2468,-0.3671875,-0.21484375,0.85546875
2469,-0.35546875,-0.22265625,0.859375
2470,-0.359375,-0.21484375,0.85546875
2471,-0.3671875,-0.21875,0.86328125
2472,-0.35546875,-0.21484375,0.875
2473,-0.37109375,-0.21875,0.86328125
2474,-0.34765625,-0.21875,0.87890625
2475,-0.37109375,-0.21484375,0.8671875
2476,-0.36328125,-0.22265625,0.875
2477,-0.37109375,-0.20703125,0.875
2478,-0.3671875,-0.21484375,0.8671875
2479,-0.375,-0.21875,0.88671875
2480,-0.37109375,-0.22265625,0.8671875
2481,-0.359375,-0.22265625,0.87109375
2482,-0.3671875,-0.21875,0.859375
2483,-0.359375,-0.22265625,0.86328125
2484,-0.37109375,-0.21875,0.86328125
2485,-0.3671875,-0.2265625,0.87109375
2486,-0.37109375,-0.21875,0.8671875
2487,-0.34375,-0.203125,0.81640625
2488,-0.37109375,-0.21875,0.859375
2489,-0.3671875,-0.21875,0.87109375
2490,-0.37890625,-0.21875,0.859375
2491,-0.3671875,-0.21484375,0.859375
2492,-0.35546875,-0.22265625,0.87890625
2493,-0.375,-0.21875,0.859375
2494,-0.36328125,-0.22265625,0.85546875
2495,-0.375,-0.21484375,0.8671875
2496,-0.37109375,-0.21875,0.8671875
2497,-0.36328125,-0.2265625,0.875
2498,-0.3828125,-0.22265625,0.86328125
2499,-0.3671875,-0.21875,0.86328125
2500,-0.37890625,-0.22265625,0.86328125
2501,-0.37109375,-0.2265625,0.85546875
2502,-0.3671875,-0.21875,0.859375
2503,-0.375,-0.21875,0.8671875
2504,-0.375,-0.21875,0.87109375
2505,-0.37890625,-0.21875,0.86328125
2506,-0.3671875,-0.21875,0.859375
2507,-0.3671875,-0.21875,0.859375
2508,-0.375,-0.203125,0.85546875
2509,-0.37109375,-0.21875,0.87109375
2510,-0.36328125,-0.22265625,0.890625
2511,-0.36328125,-0.21875,0.88671875
2512,-0.3671875,-0.21875,0.859375
2513,-0.35546875,-0.23828125,0.8671875
2514,-0.3671875,-0.23046875,0.8671875
2515,-0.359375,-0.23828125,0.8671875
2516,-0.36328125,-0.23046875,0.86328125
2517,-0.3671875,-0.23828125,0.8671875
2518,-0.36328125,-0.234375,0.8515625
2519,-0.3671875,-0.22265625,0.8515625
2520,-0.3671875,-0.2265625,0.8515625
2521,-0.3671875,-0.22265625,0.859375
2522,-0.3671875,-0.21875,0.859375
2523,-0.359375,-0.23828125,0.859375
2524,-0.359375,-0.22265625,0.8671875
2525,-0.36328125,-0.2109375,0.84765625
2526,-0.3671875,-0.20703125,0.86328125
2527,-0.375,-0.22265625,0.85546875
2528,-0.37109375,-0.21484375,0.8671875
2529,-0.375,-0.21875,0.875
2530,-0.375,-0.203125,0.87109375
2531,-0.37890625,-0.22265625,0.875
2532,-0.37890625,-0.21484375,0.86328125
2533,-0.37890625,-0.21875,0.875
2534,-0.359375,-0.21484375,0.87109375
2535,-0.3671875,-0.2265625,0.86328125
2536,-0.36328125,-0.22265625,0.859375
2537,-0.36328125,-0.21875,0.8671875
2538,-0.3671875,-0.21875,0.87109375
2539,-0.36328125,-0.2265625,0.859375
2540,-0.36328125,-0.2265625,0.8671875
2541,-0.37109375,-0.23046875,0.859375
2542,-0.3671875,-0.2265625,0.87109375
2543,-0.37109375,-0.21875,0.86328125
2544,-0.359375,-0.22265625,0.86328125
2545,-0.3515625,-0.21484375,0.8671875
2546,-0.36328125,-0.21484375,0.859375
2547,-0.37890625,-0.21484375,0.8671875
2548,-0.359375,-0.21875,0.875
2549,-0.36328125,-0.21484375,0.8671875
2550,-0.37109375,-0.2109375,0.8671875
2551,-0.36328125,-0.21875,0.86328125
2552,-0.3671875,-0.21875,0.8515625
2553,-0.36328125,-0.22265625,0.8671875
2554,-0.359375,-0.21875,0.859375
2555,-0.3671875,-0.2265625,0.85546875
2556,-0.37109375,-0.21875,0.8671875
2557,-0.37109375,-0.21484375,0.86328125
2558,-0.37109375,-0.21484375,0.87109375
2559,-0.37109375,-0.21875,0.86328125
2560,-0.37109375,-0.21875,0.8515625
2561,-0.3671875,-0.21484375,0.86328125
2562,-0.3671875,-0.21484375,0.85546875
2563,-0.35546875,-0.23046875,0.859375
2564,-0.37109375,-0.21484375,0.86328125
2565,-0.37890625,-0.21875,0.859375
2566,-0.375,-0.21875,0.859375
2567,-0.37109375,-0.22265625,0.87109375
2568,-0.3671875,-0.22265625,0.86328125
2569,-0.359375,-0.22265625,0.859375
2570,-0.3671875,-0.22265625,0.875
2571,-0.375,-0.21875,0.859375
2572,-0.37109375,-0.21484375,0.8671875
2573,-0.375,-0.2109375,0.87109375
2574,-0.37109375,-0.19140625,0.875
2575,-0.37109375,-0.21484375,0.87890625
2576,-0.3671875,-0.22265625,0.87109375
2577,-0.37890625,-0.21875,0.859375
2578,-0.359375,-0.22265625,0.859375
2579,-0.37109375,-0.21484375,0.8671875
2580,-0.35546875,-0.21484375,0.859375
2581,-0.36328125,-0.21875,0.875
2582,-0.36328125,-0.21484375,0.8671875
2583,-0.37109375,-0.203125,0.88671875
2584,-0.359375,-0.2265625,0.85546875
2585,-0.35546875,-0.21484375,0.8671875
2586,-0.36328125,-0.2109375,0.86328125
2587,-0.37890625,-0.20703125,0.86328125
2588,-0.3671875,-0.21875,0.86328125
2589,-0.36328125,-0.21484375,0.8671875
2590,-0.3671875,-0.2109375,0.87890625
2591,-0.36328125,-0.21484375,0.86328125
2592,-0.359375,-0.20703125,0.875
2593,-0.359375,-0.20703125,0.87890625
2594,-0.35546875,-0.19921875,0.87109375
2595,-0.36328125,-0.20703125,0.88671875
2596,-0.3828125,-0.19921875,0.87109375
2597,-0.37890625,-0.2109375,0.87890625
2598,-0.359375,-0.21484375,0.86328125
2599,-0.359375,-0.21875,0.875
2600,-0.359375,-0.21875,0.87109375
2601,-0.375,-0.21484375,0.875
2602,-0.359375,-0.20703125,0.8828125
2603,-0.37109375,-0.21484375,0.86328125
2604,-0.3671875,-0.21484375,0.8671875
2605,-0.359375,-0.21484375,0.8671875
2606,-0.37109375,-0.20703125,0.8671875
2607,-0.359375,-0.21875,0.87109375
2608,-0.36328125,-0.21484375,0.87109375
2609,-0.359375,-0.21484375,0.875
2610,-0.37109375,-0.203125,0.86328125
2611,-0.359375,-0.21875,0.875
2612,-0.3671875,-0.203125,0.86328125
2613,-0.36328125,-0.21484375,0.87890625
2614,-0.35546875,-0.21484375,0.875
2615,-0.35546875,-0.21875,0.87109375
2616,-0.37109375,-0.21875,0.8515625
2617,-0.3515625,-0.19140625,0.8984375
2618,-0.37109375,-0.21484375,0.875
2619,-0.36328125,-0.21875,0.859375
2620,-0.3671875,-0.21875,0.8671875
2621,-0.36328125,-0.21484375,0.86328125
2622,-0.37109375,-0.2109375,0.859375
2623,-0.3671875,-0.21875,0.87109375
2624,-0.3515625,-0.203125,0.86328125
2625,-0.359375,-0.21875,0.8671875
2626,-0.37109375,-0.21875,0.8671875
2627,-0.36328125,-0.21484375,0.875
2628,-0.3671875,-0.21484375,0.8515625
2629,-0.3671875,-0.21484375,0.87890625
2630,-0.359375,-0.21875,0.85546875
2631,-0.36328125,-0.21484375,0.859375
2632,-0.37109375,-0.21484375,0.8671875
2633,-0.36328125,-0.20703125,0.859375
2634,-0.36328125,-0.2109375,0.8671875
2635,-0.37109375,-0.2109375,0.85546875
2636,-0.37109375,-0.2109375,0.87109375
2637,-0.37109375,-0.2109375,0.87890625
2638,-0.35546875,-0.20703125,0.87109375
2639,-0.359375,-0.2421875,0.859375
2640,-0.3671875,-0.21484375,0.875
2641,-0.359375,-0.21484375,0.87890625
2642,-0.36328125,-0.2109375,0.87109375
2643,-0.36328125,-0.21875,0.87890625
2644,-0.359375,-0.2109375,0.86328125
2645,-0.359375,-0.21875,0.859375
2646,-0.3671875,-0.21484375,0.8671875
2647,-0.36328125,-0.19921875,0.85546875
2648,-0.3671875,-0.203125,0.83203125
2649,-0.37109375,-0.203125,0.84765625
2650,-0.37109375,-0.20703125,0.8515625
2651,-0.359375,-0.203125,0.8515625
2652,-0.3671875,-0.20703125,0.8671875
2653,-0.3671875,-0.20703125,0.86328125
2654,-0.359375,-0.19921875,0.875
2655,-0.35546875,-0.1875,0.87109375
2656,-0.3671875,-0.17578125,0.859375
2657,-0.359375,-0.20703125,0.859375
2658,-0.3671875,-0.18359375,0.875
2659,-0.359375,-0.19921875,0.86328125
2660,-0.36328125,-0.1953125,0.87890625
2661,-0.359375,-0.203125,0.91796875
2662,-0.3671875,-0.20703125,0.87109375
2663,-0.37109375,-0.203125,0.88671875
2664,-0.37109375,-0.1875,0.87890625
2665,-0.3671875,-0.203125,0.87890625
2666,-0.35546875,-0.20703125,0.8828125
2667,-0.35546875,-0.203125,0.87890625
2668,-0.36328125,-0.2109375,0.88671875
2669,-0.35546875,-0.19140625,0.87109375
2670,-0.3671875,-0.20703125,0.86328125
2671,-0.3671875,-0.19140625,0.875
2672,-0.3515625,-0.21484375,0.87109375
2673,-0.37109375,-0.19921875,0.87109375
2674,-0.3671875,-0.1953125,0.86328125
2675,-0.35546875,-0.203125,0.875
2676,-0.3671875,-0.203125,0.8671875
2677,-0.359375,-0.19140625,0.87890625
2678,-0.3671875,-0.18359375,0.8671875
2679,-0.3671875,-0.19140625,0.87109375
2680,-0.3671875,-0.1875,0.87890625
2681,-0.359375,-0.1953125,0.87890625
2682,-0.3671875,-0.19140625,0.85546875
2683,-0.3515625,-0.1953125,0.82421875
2684,-0.36328125,-0.19140625,0.8671875
2685,-0.3671875,-0.1953125,0.8828125
2686,-0.3671875,-0.19140625,0.87109375
2687,-0.35546875,-0.203125,0.87109375
2688,-0.359375,-0.19140625,0.87890625
2689,-0.35546875,-0.19140625,0.8828125
2690,-0.359375,-0.19921875,0.87109375
2691,-0.359375,-0.1796875,0.87109375
2692,-0.3515625,-0.19140625,0.8828125
2693,-0.359375,-0.1953125,0.87890625
2694,-0.36328125,-0.19140625,0.875
2695,-0.36328125,-0.19140625,0.875
2696,-0.359375,-0.203125,0.875
2697,-0.359375,-0.203125,0.8828125
2698,-0.36328125,-0.20703125,0.875
2699,-0.359375,-0.20703125,0.87890625
2700,-0.3671875,-0.19921875,0.8828125
2701,-0.36328125,-0.20703125,0.8828125
2702,-0.359375,-0.20703125,0.8671875
2703,-0.36328125,-0.1953125,0.875
2704,-0.359375,-0.1875,0.88671875
2705,-0.359375,-0.1953125,0.87890625
2706,-0.35546875,-0.19921875,0.8828125
2707,-0.3671875,-0.18359375,0.87109375
2708,-0.3515625,-0.19921875,0.875
2709,-0.359375,-0.1953125,0.87890625
2710,-0.3671875,-0.18359375,0.875
2711,-0.36328125,-0.17578125,0.859375
2712,-0.3671875,-0.18359375,0.86328125
2713,-0.35546875,-0.1953125,0.87890625
2714,-0.359375,-0.1796875,0.8828125
2715,-0.36328125,-0.1796875,0.87109375
2716,-0.359375,-0.1875,0.859375
2717,-0.359375,-0.1796875,0.875
2718,-0.36328125,-0.1796875,0.88671875
2719,-0.359375,-0.18359375,0.87109375
2720,-0.35546875,-0.1796875,0.875
2721,-0.35546875,-0.1875,0.87890625
2722,-0.3515625,-0.16796875,0.875
2723,-0.359375,-0.19140625,0.87890625
2724,-0.35546875,-0.1875,0.87109375
2725,-0.3671875,-0.1953125,0.87109375
2726,-0.35546875,-0.1953125,0.8984375
2727,-0.3671875,-0.18359375,0.88671875
2728,-0.3671875,-0.18359375,0.88671875
2729,-0.36328125,-0.18359375,0.88671875
2730,-0.359375,-0.1953125,0.8828125
2731,-0.36328125,-0.17578125,0.8984375
2732,-0.3671875,-0.1796875,0.88671875
2733,-0.34765625,-0.19140625,0.890625
2734,-0.359375,-0.1796875,0.87890625
2735,-0.3671875,-0.18359375,0.8828125
2736,-0.3515625,-0.18359375,0.8671875
2737,-0.34765625,-0.18359375,0.87890625
2738,-0.35546875,-0.1875,0.88671875
2739,-0.359375,-0.18359375,0.8828125
2740,-0.3515625,-0.1875,0.87890625
2741,-0.36328125,-0.18359375,0.890625
2742,-0.359375,-0.18359375,0.8984375
2743,-0.359375,-0.1796875,0.875
2744,-0.359375,-0.18359375,0.875
2745,-0.36328125,-0.1875,0.87109375
2746,-0.3515625,-0.18359375,0.8671875
2747,-0.35546875,-0.1875,0.8671875
2748,-0.3515625,-0.16015625,0.90234375
2749,-0.36328125,-0.19140625,0.8671875
2750,-0.3671875,-0.1875,0.875
2751,-0.3671875,-0.18359375,0.88671875
2752,-0.35546875,-0.1875,0.87890625
2753,-0.36328125,-0.16796875,0.87109375
2754,-0.359375,-0.19140625,0.87890625
2755,-0.359375,-0.18359375,0.8828125
2756,-0.359375,-0.18359375,0.8828125
2757,-0.36328125,-0.1875,0.8828125
2758,-0.359375,-0.171875,0.87890625
2759,-0.36328125,-0.16796875,0.8828125
2760,-0.3515625,-0.1796875,0.875
2761,-0.359375,-0.17578125,0.88671875
2762,-0.35546875,-0.1875,0.875
2763,-0.3515625,-0.171875,0.89453125
2764,-0.35546875,-0.16796875,0.87890625
2765,-0.3515625,-0.171875,0.8828125
2766,-0.359375,-0.171875,0.87109375
2767,-0.3515625,-0.16796875,0.87890625
2768,-0.35546875,-0.16796875,0.8828125
2769,-0.35546875,-0.1796875,0.87890625
2770,-0.359375,-0.17578125,0.89453125
2771,-0.35546875,-0.171875,0.88671875
2772,-0.35546875,-0.1640625,0.890625
2773,-0.3515625,-0.18359375,0.88671875
2774,-0.3515625,-0.16796875,0.90234375
2775,-0.35546875,-0.1875,0.8671875
2776,-0.3515625,-0.171875,0.88671875
2777,-0.3671875,-0.1640625,0.88671875
2778,-0.3515625,-0.1796875,0.875
2779,-0.36328125,-0.17578125,0.87890625
2780,-0.36328125,-0.18359375,0.875
2781,-0.36328125,-0.18359375,0.890625
2782,-0.35546875,-0.171875,0.87890625
2783,-0.359375,-0.16796875,0.8984375
2784,-0.34375,-0.1953125,0.8828125
2785,-0.3671875,-0.16796875,0.875
2786,-0.3515625,-0.18359375,0.88671875
2787,-0.3515625,-0.18359375,0.890625
2788,-0.34765625,-0.18359375,0.890625
2789,-0.3515625,-0.1640625,0.890625
2790,-0.359375,-0.16796875,0.8828125
2791,-0.35546875,-0.18359375,0.87890625
2792,-0.3515625,-0.15625,0.890625
2793,-0.35546875,-0.16796875,0.859375
2794,-0.35546875,-0.171875,0.890625
2795,-0.3515625,-0.1640625,0.87890625
2796,-0.34375,-0.17578125,0.87109375
2797,-0.359375,-0.171875,0.8828125
2798,-0.35546875,-0.1796875,0.8828125
2799,-0.36328125,-0.16796875,0.890625
2800,-0.359375,-0.1640625,0.88671875
2801,-0.3515625,-0.171875,0.8828125
2802,-0.359375,-0.17578125,0.890625
2803,-0.3515625,-0.17578125,0.890625
2804,-0.359375,-0.1796875,0.8984375
2805,-0.33984375,-0.19140625,0.875
2806,-0.36328125,-0.16796875,0.88671875
2807,-0.36328125,-0.16015625,0.87890625
2808,-0.3515625,-0.16796875,0.88671875
2809,-0.3515625,-0.17578125,0.875
2810,-0.36328125,-0.171875,0.890625
2811,-0.35546875,-0.16796875,0.8828125
2812,-0.359375,-0.1796875,0.88671875
2813,-0.3203125,-0.140625,0.84375
2814,-0.359375,-0.17578125,0.87890625
2815,-0.35546875,-0.1796875,0.890625
2816,-0.3515625,-0.16015625,0.87890625
2817,-0.359375,-0.17578125,0.8828125
2818,-0.35546875,-0.16796875,0.890625
2819,-0.359375,-0.18359375,0.87890625
2820,-0.3515625,-0.1796875,0.875
2821,-0.34375,-0.1796875,0.8828125
2822,-0.3515625,-0.17578125,0.87109375
2823,-0.34765625,-0.171875,0.87109375
2824,-0.35546875,-0.171875,0.88671875
2825,-0.34765625,-0.1796875,0.875
2826,-0.34375,-0.171875,0.875
2827,-0.36328125,-0.1640625,0.890625
2828,-0.34375,-0.1796875,0.8828125
2829,-0.34375,-0.1640625,0.89453125
2830,-0.35546875,-0.1640625,0.87890625
2831,-0.34765625,-0.171875,0.89453125
2832,-0.34375,-0.16796875,0.8828125
2833,-0.3515625,-0.1640625,0.87890625
2834,-0.3515625,-0.15625,0.875
2835,-0.34765625,-0.1953125,0.890625
2836,-0.359375,-0.171875,0.8828125
2837,-0.36328125,-0.16796875,0.88671875
2838,-0.359375,-0.16796875,0.8828125
2839,-0.3515625,-0.1640625,0.89453125
2840,-0.3515625,-0.171875,0.890625
2841,-0.3515625,-0.15625,0.8828125
2842,-0.3515625,-0.16015625,0.88671875
2843,-0.3515625,-0.1640625,0.8828125
2844,-0.35546875,-0.17578125,0.88671875
2845,-0.34765625,-0.171875,0.890625
2846,-0.36328125,-0.17578125,0.89453125
2847,-0.35546875,-0.171875,0.8984375
2848,-0.34765625,-0.171875,0.90625
2849,-0.34375,-0.17578125,0.8828125
2850,-0.3515625,-0.17578125,0.875
2851,-0.3515625,-0.16796875,0.8828125
2852,-0.3515625,-0.1640625,0.8828125
2853,-0.35546875,-0.17578125,0.87109375
2854,-0.36328125,-0.1640625,0.87109375
2855,-0.35546875,-0.16015625,0.87890625
2856,-0.3515625,-0.17578125,0.87890625
2857,-0.3515625,-0.15625,0.90625
2858,-0.34765625,-0.17578125,0.87890625
2859,-0.3515625,-0.171875,0.87890625
2860,-0.35546875,-0.1796875,0.87890625
2861,-0.3515625,-0.17578125,0.8828125
2862,-0.34765625,-0.1796875,0.88671875
2863,-0.36328125,-0.171875,0.87890625
2864,-0.34375,-0.17578125,0.87109375
2865,-0.34765625,-0.16796875,0.875
2866,-0.3515625,-0.15625,0.89453125
2867,-0.34375,-0.16796875,0.890625
2868,-0.3515625,-0.16796875,0.890625
2869,-0.35546875,-0.16796875,0.875
2870,-0.3515625,-0.1796875,0.88671875
2871,-0.35546875,-0.171875,0.88671875
2872,-0.3515625,-0.17578125,0.8828125
2873,-0.3515625,-0.17578125,0.890625
2874,-0.35546875,-0.171875,0.8828125
2875,-0.3515625,-0.18359375,0.88671875
2876,-0.3671875,-0.17578125,0.8671875
2877,-0.35546875,-0.16796875,0.87890625
2878,-0.35546875,-0.16796875,0.8671875
2879,-0.375,-0.171875,0.84375
2880,-0.35546875,-0.17578125,0.875
2881,-0.3515625,-0.1796875,0.87890625
2882,-0.3515625,-0.17578125,0.8828125
2883,-0.36328125,-0.18359375,0.890625
2884,-0.3671875,-0.1796875,0.88671875
2885,-0.35546875,-0.19140625,0.88671875
2886,-0.35546875,-0.19140625,0.8828125
2887,-0.34765625,-0.19140625,0.89453125
2888,-0.359375,-0.1953125,0.890625
2889,-0.3671875,-0.1796875,0.86328125
2890,-0.36328125,-0.18359375,0.859375
2891,-0.36328125,-0.1796875,0.875
2892,-0.3671875,-0.16796875,0.8671875
2893,-0.3515625,-0.171875,0.87109375
2894,-0.35546875,-0.1796875,0.86328125
2895,-0.36328125,-0.17578125,0.87890625
2896,-0.34765625,-0.17578125,0.87890625
2897,-0.35546875,-0.1796875,0.88671875
2898,-0.36328125,-0.171875,0.87890625
2899,-0.359375,-0.15625,0.8828125
2900,-0.32421875,-0.140625,0.859375
2901,-0.359375,-0.1640625,0.875
2902,-0.34765625,-0.17578125,0.875
2903,-0.36328125,-0.16796875,0.87890625
2904,-0.35546875,-0.16796875,0.8828125
2905,-0.35546875,-0.171875,0.8828125
2906,-0.359375,-0.1796875,0.89453125
2907,-0.3671875,-0.17578125,0.8828125
2908,-0.359375,-0.171875,0.87890625
2909,-0.36328125,-0.17578125,0.88671875
2910,-0.359375,-0.1953125,0.8828125
2911,-0.36328125,-0.1796875,0.87890625
2912,-0.3671875,-0.1875,0.8828125
2913,-0.359375,-0.17578125,0.88671875
2914,-0.3671875,-0.17578125,0.89453125
2915,-0.35546875,-0.1875,0.89453125
2916,-0.359375,-0.1875,0.8671875
2917,-0.35546875,-0.19921875,0.88671875
2918,-0.35546875,-0.19140625,0.87109375
2919,-0.36328125,-0.19921875,0.87109375
2920,-0.359375,-0.1796875,0.8828125
2921,-0.3671875,-0.19140625,0.87890625
2922,-0.36328125,-0.1953125,0.84375
2923,-0.359375,-0.1875,0.88671875
2924,-0.375,-0.19140625,0.875
2925,-0.3671875,-0.1953125,0.88671875
2926,-0.375,-0.1875,0.8828125
2927,-0.35546875,-0.19140625,0.87109375
2928,-0.36328125,-0.18359375,0.87890625
2929,-0.36328125,-0.19140625,0.8828125
2930,-0.3515625,-0.1953125,0.88671875
2931,-0.3671875,-0.1953125,0.8671875
2932,-0.3671875,-0.19140625,0.87109375
2933,-0.359375,-0.1796875,0.86328125
2934,-0.359375,-0.19140625,0.890625
2935,-0.35546875,-0.1875,0.87890625
2936,-0.3515625,-0.19140625,0.87109375
2937,-0.359375,-0.19140625,0.87109375
2938,-0.36328125,-0.203125,0.8671875
2939,-0.3515625,-0.19921875,0.8828125
2940,-0.35546875,-0.20703125,0.88671875
2941,-0.3671875,-0.1953125,0.8671875
2942,-0.3671875,-0.20703125,0.87109375
2943,-0.37109375,-0.203125,0.875
2944,-0.32421875,-0.19140625,0.875
2945,-0.37109375,-0.21875,0.875
2946,-0.3671875,-0.21484375,0.8671875
2947,-0.359375,-0.20703125,0.87109375
2948,-0.359375,-0.2109375,0.86328125
2949,-0.3671875,-0.20703125,0.8515625
2950,-0.359375,-0.203125,0.86328125
2951,-0.36328125,-0.20703125,0.86328125
2952,-0.359375,-0.19921875,0.87890625
2953,-0.375,-0.19921875,0.87109375
2954,-0.359375,-0.18359375,0.8828125
2955,-0.37890625,-0.19140625,0.859375
2956,-0.34765625,-0.19921875,0.87109375
2957,-0.359375,-0.203125,0.87109375
2958,-0.359375,-0.203125,0.875
2959,-0.359375,-0.19921875,0.8828125
2960,-0.35546875,-0.203125,0.890625
2961,-0.375,-0.19921875,0.8828125
2962,-0.375,-0.19921875,0.87109375
2963,-0.359375,-0.19921875,0.875
2964,-0.3671875,-0.203125,0.87109375
2965,-0.36328125,-0.2109375,0.875
2966,-0.3515625,-0.21484375,0.87109375
2967,-0.359375,-0.2109375,0.86328125
2968,-0.359375,-0.20703125,0.87109375
2969,-0.359375,-0.22265625,0.8671875
2970,-0.35546875,-0.19921875,0.87109375
2971,-0.37109375,-0.1953125,0.859375
2972,-0.36328125,-0.203125,0.88671875
2973,-0.375,-0.19921875,0.87109375
2974,-0.35546875,-0.19921875,0.8671875
2975,-0.3671875,-0.203125,0.86328125
2976,-0.3671875,-0.21484375,0.8828125
2977,-0.359375,-0.2109375,0.87890625
2978,-0.34765625,-0.2109375,0.8828125
2979,-0.37109375,-0.20703125,0.8828125
2980,-0.36328125,-0.2109375,0.86328125
2981,-0.359375,-0.21875,0.8828125
2982,-0.359375,-0.22265625,0.89453125
2983,-0.36328125,-0.21875,0.8671875
2984,-0.34765625,-0.22265625,0.875
2985,-0.36328125,-0.20703125,0.875
2986,-0.36328125,-0.20703125,0.87890625
2987,-0.359375,-0.2109375,0.8671875
2988,-0.3515625,-0.21484375,0.8984375
2989,-0.36328125,-0.20703125,0.859375
2990,-0.359375,-0.21484375,0.875
2991,-0.37890625,-0.21484375,0.859375
2992,-0.37109375,-0.20703125,0.85546875
2993,-0.36328125,-0.21484375,0.85546875
2994,-0.3671875,-0.21484375,0.87109375
2995,-0.37109375,-0.20703125,0.8515625
2996,-0.37890625,-0.21875,0.87109375
2997,-0.375,-0.2109375,0.86328125
2998,-0.36328125,-0.2109375,0.859375
2999,-0.3671875,-0.21484375,0.85546875
