,accelerometerAccelerationX(G),accelerometerAccelerationY(G),accelerometerAccelerationZ(G)
0,27.733333333333334,-537.6,-134.4
1,32.0,-535.4666666666667,-128.0
2,32.0,-524.8,-134.4
3,23.466666666666665,-529.0666666666666,-134.4
4,36.266666666666666,-531.2,-130.13333333333333
5,27.733333333333334,-522.6666666666666,-132.26666666666665
6,21.333333333333332,-526.9333333333333,-123.73333333333333
7,25.6,-526.9333333333333,-110.93333333333334
8,17.066666666666666,-518.4,-119.46666666666667
9,19.2,-522.6666666666666,-108.8
10,19.2,-522.6666666666666,-113.06666666666666
11,17.066666666666666,-522.6666666666666,-119.46666666666667
12,25.6,-526.9333333333333,-117.33333333333333
13,21.333333333333332,-524.8,-121.6
14,27.733333333333334,-524.8,-121.6
15,32.0,-516.2666666666667,-138.66666666666666
16,17.066666666666666,-529.0666666666666,-113.06666666666666
17,27.733333333333334,-531.2,-119.46666666666667
18,27.733333333333334,-531.2,-119.46666666666667
19,25.6,-539.7333333333333,-117.33333333333333
20,25.6,-537.6,-110.93333333333334
21,23.466666666666665,-535.4666666666667,-123.73333333333333
22,23.466666666666665,-533.3333333333334,-123.73333333333333
23,12.8,-535.4666666666667,-117.33333333333333
24,14.933333333333334,-544.0,-121.6
25,27.733333333333334,-539.7333333333333,-125.86666666666666
26,27.733333333333334,-546.1333333333333,-106.66666666666667
27,25.6,-535.4666666666667,-130.13333333333333
28,36.266666666666666,-541.8666666666667,-132.26666666666665
29,19.2,-535.4666666666667,-132.26666666666665
30,19.2,-533.3333333333334,-123.73333333333333
31,23.466666666666665,-537.6,-130.13333333333333
32,25.6,-537.6,-130.13333333333333
33,23.466666666666665,-533.3333333333334,-117.33333333333333
34,23.466666666666665,-531.2,-125.86666666666666
35,29.866666666666667,-533.3333333333334,-117.33333333333333
36,36.266666666666666,-541.8666666666667,-123.73333333333333
37,4.266666666666667,-529.0666666666666,-83.2
38,21.333333333333332,-531.2,-117.33333333333333
39,32.0,-529.0666666666666,-125.86666666666666
40,23.466666666666665,-533.3333333333334,-119.46666666666667
41,25.6,-526.9333333333333,-121.6
42,21.333333333333332,-533.3333333333334,-119.46666666666667
43,29.866666666666667,-531.2,-108.8
44,23.466666666666665,-539.7333333333333,-110.93333333333334
45,17.066666666666666,-524.8,-121.6
46,25.6,-526.9333333333333,-117.33333333333333
47,32.0,-520.5333333333333,-106.66666666666667
48,-8.533333333333333,-514.1333333333333,-130.13333333333333
49,21.333333333333332,-535.4666666666667,-115.2
50,27.733333333333334,-529.0666666666666,-119.46666666666667
51,25.6,-531.2,-117.33333333333333
52,19.2,-524.8,-119.46666666666667
53,27.733333333333334,-535.4666666666667,-117.33333333333333
54,14.933333333333334,-531.2,-108.8
55,36.266666666666666,-537.6,-113.06666666666666
56,14.933333333333334,-535.4666666666667,-100.26666666666667
57,17.066666666666666,-524.8,-115.2
58,21.333333333333332,-524.8,-100.26666666666667
59,17.066666666666666,-524.8,-110.93333333333334
60,21.333333333333332,-526.9333333333333,-113.06666666666666
61,27.733333333333334,-531.2,-121.6
62,27.733333333333334,-526.9333333333333,-121.6
63,32.0,-531.2,-108.8
64,25.6,-529.0666666666666,-117.33333333333333
65,34.13333333333333,-533.3333333333334,-106.66666666666667
66,29.866666666666667,-529.0666666666666,-115.2
67,27.733333333333334,-535.4666666666667,-115.2
68,38.4,-535.4666666666667,-108.8
69,29.866666666666667,-531.2,-115.2
70,57.6,-529.0666666666666,-151.46666666666667
71,29.866666666666667,-533.3333333333334,-115.2
72,25.6,-531.2,-128.0
73,29.866666666666667,-531.2,-121.6
74,32.0,-535.4666666666667,-110.93333333333334
75,29.866666666666667,-526.9333333333333,-121.6
76,32.0,-531.2,-106.66666666666667
77,23.466666666666665,-533.3333333333334,-108.8
78,27.733333333333334,-529.0666666666666,-115.2
79,29.866666666666667,-529.0666666666666,-102.4
80,32.0,-531.2,-115.2
81,29.866666666666667,-520.5333333333333,-110.93333333333334
82,32.0,-535.4666666666667,-117.33333333333333
83,29.866666666666667,-535.4666666666667,-110.93333333333334
84,36.266666666666666,-533.3333333333334,-110.93333333333334
85,29.866666666666667,-533.3333333333334,-115.2
86,36.266666666666666,-533.3333333333334,-113.06666666666666
87,34.13333333333333,-526.9333333333333,-113.06666666666666
88,42.666666666666664,-526.9333333333333,-117.33333333333333
89,38.4,-539.7333333333333,-123.73333333333333
90,29.866666666666667,-533.3333333333334,-117.33333333333333
91,36.266666666666666,-537.6,-115.2
92,38.4,-531.2,-125.86666666666666
93,34.13333333333333,-529.0666666666666,-115.2
94,27.733333333333334,-529.0666666666666,-113.06666666666666
95,27.733333333333334,-529.0666666666666,-110.93333333333334
96,29.866666666666667,-531.2,-115.2
97,25.6,-524.8,-110.93333333333334
98,32.0,-531.2,-108.8
99,27.733333333333334,-535.4666666666667,-117.33333333333333
100,34.13333333333333,-529.0666666666666,-117.33333333333333
101,25.6,-524.8,-113.06666666666666
102,23.466666666666665,-537.6,-123.73333333333333
103,10.666666666666666,-544.0,-98.13333333333333
104,25.6,-529.0666666666666,-108.8
105,27.733333333333334,-531.2,-117.33333333333333
106,27.733333333333334,-531.2,-108.8
107,32.0,-535.4666666666667,-125.86666666666666
108,21.333333333333332,-529.0666666666666,-113.06666666666666
109,25.6,-524.8,-108.8
110,25.6,-537.6,-115.2
111,19.2,-533.3333333333334,-117.33333333333333
112,21.333333333333332,-531.2,-117.33333333333333
113,23.466666666666665,-524.8,-123.73333333333333
114,14.933333333333334,-533.3333333333334,-113.06666666666666
115,25.6,-533.3333333333334,-106.66666666666667
116,21.333333333333332,-535.4666666666667,-119.46666666666667
117,23.466666666666665,-533.3333333333334,-110.93333333333334
118,21.333333333333332,-531.2,-110.93333333333334
119,19.2,-533.3333333333334,-117.33333333333333
120,19.2,-526.9333333333333,-115.2
121,21.333333333333332,-533.3333333333334,-115.2
122,23.466666666666665,-535.4666666666667,-115.2
123,23.466666666666665,-531.2,-140.8
124,8.533333333333333,-531.2,-113.06666666666666
125,25.6,-531.2,-115.2
126,23.466666666666665,-535.4666666666667,-121.6
127,25.6,-533.3333333333334,-113.06666666666666
128,19.2,-531.2,-125.86666666666666
129,23.466666666666665,-533.3333333333334,-130.13333333333333
130,27.733333333333334,-531.2,-117.33333333333333
131,21.333333333333332,-533.3333333333334,-125.86666666666666
132,27.733333333333334,-535.4666666666667,-106.66666666666667
133,29.866666666666667,-533.3333333333334,-119.46666666666667
134,27.733333333333334,-531.2,-130.13333333333333
135,29.866666666666667,-520.5333333333333,-136.53333333333333
136,25.6,-526.9333333333333,-119.46666666666667
137,25.6,-533.3333333333334,-119.46666666666667
138,23.466666666666665,-531.2,-123.73333333333333
139,27.733333333333334,-533.3333333333334,-123.73333333333333
140,27.733333333333334,-531.2,-117.33333333333333
141,27.733333333333334,-531.2,-125.86666666666666
142,21.333333333333332,-539.7333333333333,-117.33333333333333
143,32.0,-526.9333333333333,-123.73333333333333
144,27.733333333333334,-529.0666666666666,-119.46666666666667
145,27.733333333333334,-529.0666666666666,-121.6
146,10.666666666666666,-529.0666666666666,-130.13333333333333
147,29.866666666666667,-529.0666666666666,-125.86666666666666
148,27.733333333333334,-529.0666666666666,-117.33333333333333
149,32.0,-533.3333333333334,-119.46666666666667
150,32.0,-533.3333333333334,-130.13333333333333
151,32.0,-531.2,-121.6
152,32.0,-520.5333333333333,-121.6
153,36.266666666666666,-520.5333333333333,-125.86666666666666
154,29.866666666666667,-522.6666666666666,-117.33333333333333
155,27.733333333333334,-518.4,-110.93333333333334
156,34.13333333333333,-526.9333333333333,-123.73333333333333
157,40.53333333333333,-529.0666666666666,-102.4
158,36.266666666666666,-535.4666666666667,-117.33333333333333
159,36.266666666666666,-531.2,-123.73333333333333
160,36.266666666666666,-529.0666666666666,-121.6
161,40.53333333333333,-531.2,-119.46666666666667
162,38.4,-531.2,-123.73333333333333
163,38.4,-533.3333333333334,-119.46666666666667
164,34.13333333333333,-531.2,-125.86666666666666
165,32.0,-531.2,-119.46666666666667
166,38.4,-526.9333333333333,-123.73333333333333
167,29.866666666666667,-524.8,-121.6
168,61.86666666666667,-505.59999999999997,-140.8
169,36.266666666666666,-524.8,-125.86666666666666
170,40.53333333333333,-526.9333333333333,-125.86666666666666
171,34.13333333333333,-524.8,-130.13333333333333
172,34.13333333333333,-526.9333333333333,-123.73333333333333
173,38.4,-526.9333333333333,-121.6
174,38.4,-526.9333333333333,-121.6
175,34.13333333333333,-526.9333333333333,-117.33333333333333
176,36.266666666666666,-531.2,-128.0
177,36.266666666666666,-539.7333333333333,-125.86666666666666
178,25.6,-541.8666666666667,-117.33333333333333
179,14.933333333333334,-524.8,-130.13333333333333
180,36.266666666666666,-537.6,-115.2
181,34.13333333333333,-539.7333333333333,-125.86666666666666
182,34.13333333333333,-537.6,-121.6
183,36.266666666666666,-535.4666666666667,-121.6
184,40.53333333333333,-535.4666666666667,-117.33333333333333
185,40.53333333333333,-535.4666666666667,-132.26666666666665
186,34.13333333333333,-531.2,-119.46666666666667
187,36.266666666666666,-529.0666666666666,-121.6
188,34.13333333333333,-529.0666666666666,-121.6
189,40.53333333333333,-529.0666666666666,-117.33333333333333
190,21.333333333333332,-533.3333333333334,-102.4
191,38.4,-522.6666666666666,-123.73333333333333
192,42.666666666666664,-524.8,-115.2
193,38.4,-524.8,-123.73333333333333
194,44.8,-526.9333333333333,-119.46666666666667
195,40.53333333333333,-524.8,-115.2
196,40.53333333333333,-526.9333333333333,-113.06666666666666
197,42.666666666666664,-518.4,-121.6
198,44.8,-526.9333333333333,-108.8
199,42.666666666666664,-522.6666666666666,-123.73333333333333
200,42.666666666666664,-524.8,-113.06666666666666
201,38.4,-524.8,-132.26666666666665
202,38.4,-522.6666666666666,-123.73333333333333
203,36.266666666666666,-531.2,-117.33333333333333
204,36.266666666666666,-529.0666666666666,-119.46666666666667
205,34.13333333333333,-531.2,-123.73333333333333
206,36.266666666666666,-533.3333333333334,-125.86666666666666
207,32.0,-531.2,-121.6
208,38.4,-537.6,-125.86666666666666
209,36.266666666666666,-539.7333333333333,-136.53333333333333
210,34.13333333333333,-535.4666666666667,-134.4
211,46.93333333333333,-531.2,-138.66666666666666
212,29.866666666666667,-535.4666666666667,-140.8
213,29.866666666666667,-533.3333333333334,-140.8
214,34.13333333333333,-535.4666666666667,-138.66666666666666
215,27.733333333333334,-531.2,-147.2
216,19.2,-529.0666666666666,-138.66666666666666
217,21.333333333333332,-526.9333333333333,-132.26666666666665
218,34.13333333333333,-520.5333333333333,-134.4
219,25.6,-529.0666666666666,-134.4
220,32.0,-524.8,-134.4
221,8.533333333333333,-529.0666666666666,-140.8
222,10.666666666666666,-524.8,-162.13333333333333
223,32.0,-533.3333333333334,-132.26666666666665
224,27.733333333333334,-524.8,-125.86666666666666
225,27.733333333333334,-518.4,-138.66666666666666
226,36.266666666666666,-524.8,-136.53333333333333
227,34.13333333333333,-524.8,-136.53333333333333
228,34.13333333333333,-524.8,-132.26666666666665
229,34.13333333333333,-524.8,-132.26666666666665
230,34.13333333333333,-516.2666666666667,-134.4
231,38.4,-526.9333333333333,-130.13333333333333
232,40.53333333333333,-529.0666666666666,-138.66666666666666
233,40.53333333333333,-537.6,-130.13333333333333
234,42.666666666666664,-522.6666666666666,-138.66666666666666
235,42.666666666666664,-529.0666666666666,-140.8
236,44.8,-526.9333333333333,-134.4
237,46.93333333333333,-526.9333333333333,-134.4
238,46.93333333333333,-522.6666666666666,-132.26666666666665
239,44.8,-526.9333333333333,-138.66666666666666
240,51.2,-533.3333333333334,-125.86666666666666
241,42.666666666666664,-524.8,-132.26666666666665
242,42.666666666666664,-507.73333333333335,-142.93333333333334
243,53.333333333333336,-529.0666666666666,-132.26666666666665
244,46.93333333333333,-529.0666666666666,-104.53333333333333
245,49.06666666666666,-522.6666666666666,-142.93333333333334
246,46.93333333333333,-520.5333333333333,-140.8
247,55.46666666666667,-522.6666666666666,-140.8
248,44.8,-524.8,-142.93333333333334
249,51.2,-524.8,-136.53333333333333
250,49.06666666666666,-524.8,-142.93333333333334
251,51.2,-529.0666666666666,-142.93333333333334
252,53.333333333333336,-531.2,-142.93333333333334
253,51.2,-533.3333333333334,-130.13333333333333
254,57.6,-531.2,-145.06666666666666
255,72.53333333333333,-535.4666666666667,-142.93333333333334
256,61.86666666666667,-533.3333333333334,-145.06666666666666
257,59.733333333333334,-529.0666666666666,-147.2
258,57.6,-529.0666666666666,-142.93333333333334
259,66.13333333333333,-529.0666666666666,-149.33333333333334
260,70.4,-524.8,-145.06666666666666
261,66.13333333333333,-524.8,-147.2
262,74.66666666666667,-518.4,-151.46666666666667
263,70.4,-522.6666666666666,-147.2
264,78.93333333333334,-518.4,-153.6
265,78.93333333333334,-514.1333333333333,-138.66666666666666
266,87.46666666666667,-529.0666666666666,-160.0
267,89.6,-520.5333333333333,-147.2
268,74.66666666666667,-520.5333333333333,-147.2
269,76.8,-520.5333333333333,-151.46666666666667
270,78.93333333333334,-518.4,-149.33333333333334
271,85.33333333333333,-516.2666666666667,-147.2
272,81.06666666666666,-514.1333333333333,-149.33333333333334
273,81.06666666666666,-516.2666666666667,-151.46666666666667
274,87.46666666666667,-514.1333333333333,-153.6
275,87.46666666666667,-507.73333333333335,-153.6
276,93.86666666666666,-505.59999999999997,-136.53333333333333
277,89.6,-499.2,-181.33333333333334
278,87.46666666666667,-505.59999999999997,-149.33333333333334
279,87.46666666666667,-507.73333333333335,-145.06666666666666
280,91.73333333333333,-499.2,-151.46666666666667
281,98.13333333333333,-482.1333333333333,-162.13333333333333
282,91.73333333333333,-516.2666666666667,-147.2
283,98.13333333333333,-520.5333333333333,-147.2
284,93.86666666666666,-512.0,-160.0
285,100.26666666666667,-512.0,-151.46666666666667
286,91.73333333333333,-503.46666666666664,-162.13333333333333
287,98.13333333333333,-509.8666666666667,-160.0
288,98.13333333333333,-503.46666666666664,-113.06666666666666
289,102.4,-520.5333333333333,-149.33333333333334
290,102.4,-533.3333333333334,-155.73333333333332
291,100.26666666666667,-533.3333333333334,-155.73333333333332
292,102.4,-529.0666666666666,-160.0
293,102.4,-524.8,-164.26666666666665
294,102.4,-533.3333333333334,-166.4
295,104.53333333333333,-539.7333333333333,-162.13333333333333
296,91.73333333333333,-537.6,-155.73333333333332
297,98.13333333333333,-544.0,-155.73333333333332
298,96.0,-535.4666666666667,-168.53333333333333
299,85.33333333333333,-529.0666666666666,-172.8
300,89.6,-546.1333333333333,-162.13333333333333
301,85.33333333333333,-546.1333333333333,-164.26666666666665
302,83.2,-546.1333333333333,-174.93333333333334
303,76.8,-544.0,-174.93333333333334
304,72.53333333333333,-544.0,-179.2
305,74.66666666666667,-537.6,-181.33333333333334
306,57.6,-535.4666666666667,-189.86666666666667
307,36.266666666666666,-537.6,-194.13333333333333
308,46.93333333333333,-522.6666666666666,-200.53333333333333
309,29.866666666666667,-531.2,-183.46666666666667
310,23.466666666666665,-529.0666666666666,-174.93333333333334
311,6.4,-529.0666666666666,-187.73333333333332
312,-4.266666666666667,-531.2,-189.86666666666667
313,-12.8,-526.9333333333333,-194.13333333333333
314,-32.0,-522.6666666666666,-183.46666666666667
315,-32.0,-524.8,-183.46666666666667
316,-34.13333333333333,-522.6666666666666,-179.2
317,-49.06666666666666,-526.9333333333333,-181.33333333333334
318,-53.333333333333336,-522.6666666666666,-181.33333333333334
319,-70.4,-524.8,-174.93333333333334
320,-59.733333333333334,-526.9333333333333,-174.93333333333334
321,-81.06666666666666,-522.6666666666666,-177.06666666666666
322,-78.93333333333334,-522.6666666666666,-181.33333333333334
323,-96.0,-531.2,-181.33333333333334
324,-104.53333333333333,-522.6666666666666,-185.6
325,-104.53333333333333,-522.6666666666666,-185.6
326,-113.06666666666666,-522.6666666666666,-200.53333333333333
327,-106.66666666666667,-512.0,-217.6
328,-115.2,-507.73333333333335,-215.46666666666667
329,-106.66666666666667,-503.46666666666664,-217.6
330,-98.13333333333333,-501.3333333333333,-221.86666666666667
331,-115.2,-486.4,-217.6
332,-98.13333333333333,-503.46666666666664,-213.33333333333334
333,-106.66666666666667,-509.8666666666667,-209.06666666666666
334,-104.53333333333333,-514.1333333333333,-189.86666666666667
335,-110.93333333333334,-509.8666666666667,-183.46666666666667
336,-102.4,-522.6666666666666,-192.0
337,-102.4,-524.8,-183.46666666666667
338,-104.53333333333333,-518.4,-170.66666666666666
339,-96.0,-533.3333333333334,-170.66666666666666
340,-106.66666666666667,-522.6666666666666,-170.66666666666666
341,-87.46666666666667,-531.2,-166.4
342,-100.26666666666667,-505.59999999999997,-177.06666666666666
343,-76.8,-524.8,-160.0
344,-76.8,-533.3333333333334,-170.66666666666666
345,-70.4,-524.8,-172.8
346,-66.13333333333333,-531.2,-177.06666666666666
347,-64.0,-531.2,-185.6
348,-55.46666666666667,-537.6,-187.73333333333332
349,-44.8,-533.3333333333334,-185.6
350,-38.4,-539.7333333333333,-187.73333333333332
351,-34.13333333333333,-544.0,-198.4
352,-34.13333333333333,-544.0,-196.26666666666665
353,-32.0,-550.4,-185.6
354,-14.933333333333334,-556.8,-194.13333333333333
355,-23.466666666666665,-552.5333333333333,-196.26666666666665
356,-19.2,-552.5333333333333,-200.53333333333333
357,-19.2,-552.5333333333333,-209.06666666666666
358,-21.333333333333332,-561.0666666666666,-194.13333333333333
359,-17.066666666666666,-548.2666666666667,-196.26666666666665
360,-19.2,-548.2666666666667,-198.4
361,-19.2,-546.1333333333333,-196.26666666666665
362,-29.866666666666667,-541.8666666666667,-194.13333333333333
363,-32.0,-544.0,-192.0
364,-70.4,-539.7333333333333,-172.8
365,-25.6,-522.6666666666666,-215.46666666666667
366,-34.13333333333333,-531.2,-174.93333333333334
367,-44.8,-526.9333333333333,-168.53333333333333
368,-44.8,-520.5333333333333,-174.93333333333334
369,-55.46666666666667,-529.0666666666666,-172.8
370,-49.06666666666666,-531.2,-168.53333333333333
371,-42.666666666666664,-526.9333333333333,-160.0
372,-53.333333333333336,-529.0666666666666,-151.46666666666667
373,-55.46666666666667,-533.3333333333334,-155.73333333333332
374,-53.333333333333336,-531.2,-151.46666666666667
375,-49.06666666666666,-539.7333333333333,-125.86666666666666
376,-49.06666666666666,-529.0666666666666,-142.93333333333334
377,-44.8,-522.6666666666666,-151.46666666666667
378,-64.0,-505.59999999999997,-149.33333333333334
379,-51.2,-501.3333333333333,-149.33333333333334
380,-44.8,-492.8,-140.8
381,-44.8,-494.93333333333334,-140.8
382,-46.93333333333333,-486.4,-140.8
383,-51.2,-482.1333333333333,-142.93333333333334
384,-72.53333333333333,-471.46666666666664,-155.73333333333332
385,-46.93333333333333,-484.26666666666665,-142.93333333333334
386,-83.2,-469.3333333333333,-192.0
387,-61.86666666666667,-492.8,-147.2
388,-66.13333333333333,-482.1333333333333,-147.2
389,-53.333333333333336,-503.46666666666664,-145.06666666666666
390,-59.733333333333334,-505.59999999999997,-153.6
391,-68.26666666666667,-505.59999999999997,-151.46666666666667
392,-57.6,-512.0,-160.0
393,-83.2,-509.8666666666667,-160.0
394,-61.86666666666667,-520.5333333333333,-166.4
395,-68.26666666666667,-512.0,-177.06666666666666
396,-66.13333333333333,-522.6666666666666,-189.86666666666667
397,-78.93333333333334,-518.4,-189.86666666666667
398,-87.46666666666667,-520.5333333333333,-204.8
399,-83.2,-524.8,-206.93333333333334
400,-91.73333333333333,-526.9333333333333,-215.46666666666667
401,-87.46666666666667,-531.2,-209.06666666666666
402,-89.6,-529.0666666666666,-215.46666666666667
403,-98.13333333333333,-518.4,-209.06666666666666
404,-100.26666666666667,-522.6666666666666,-217.6
405,-104.53333333333333,-518.4,-209.06666666666666
406,-117.33333333333333,-514.1333333333333,-202.66666666666666
407,-108.8,-520.5333333333333,-211.2
408,-91.73333333333333,-522.6666666666666,-181.33333333333334
409,-115.2,-497.06666666666666,-206.93333333333334
410,-108.8,-501.3333333333333,-198.4
411,-115.2,-497.06666666666666,-194.13333333333333
412,-115.2,-488.5333333333333,-196.26666666666665
413,-119.46666666666667,-482.1333333333333,-194.13333333333333
414,-117.33333333333333,-482.1333333333333,-200.53333333333333
415,-119.46666666666667,-480.0,-189.86666666666667
416,-119.46666666666667,-467.2,-194.13333333333333
417,-113.06666666666666,-460.8,-198.4
418,-121.6,-460.8,-183.46666666666667
419,-93.86666666666666,-443.73333333333335,-213.33333333333334
420,-130.13333333333333,-492.8,-183.46666666666667
421,-128.0,-469.3333333333333,-189.86666666666667
422,-132.26666666666665,-465.06666666666666,-185.6
423,-130.13333333333333,-473.59999999999997,-181.33333333333334
424,-132.26666666666665,-477.8666666666667,-181.33333333333334
425,-136.53333333333333,-477.8666666666667,-187.73333333333332
426,-140.8,-480.0,-177.06666666666666
427,-134.4,-484.26666666666665,-192.0
428,-134.4,-486.4,-196.26666666666665
429,-157.86666666666667,-488.5333333333333,-164.26666666666665
430,-130.13333333333333,-480.0,-204.8
431,-125.86666666666666,-490.6666666666667,-202.66666666666666
432,-128.0,-486.4,-211.2
433,-138.66666666666666,-482.1333333333333,-204.8
434,-121.6,-499.2,-202.66666666666666
435,-119.46666666666667,-492.8,-206.93333333333334
436,-121.6,-494.93333333333334,-202.66666666666666
437,-125.86666666666666,-497.06666666666666,-204.8
438,-115.2,-514.1333333333333,-211.2
439,-110.93333333333334,-509.8666666666667,-206.93333333333334
440,-164.26666666666665,-475.73333333333335,-206.93333333333334
441,-108.8,-497.06666666666666,-213.33333333333334
442,-104.53333333333333,-494.93333333333334,-211.2
443,-110.93333333333334,-497.06666666666666,-211.2
444,-106.66666666666667,-497.06666666666666,-202.66666666666666
445,-100.26666666666667,-492.8,-206.93333333333334
446,-96.0,-484.26666666666665,-211.2
447,-98.13333333333333,-484.26666666666665,-204.8
448,-83.2,-490.6666666666667,-213.33333333333334
449,-87.46666666666667,-482.1333333333333,-213.33333333333334
450,-78.93333333333334,-475.73333333333335,-200.53333333333333
451,-83.2,-499.2,-204.8
452,-74.66666666666667,-484.26666666666665,-202.66666666666666
453,-76.8,-482.1333333333333,-202.66666666666666
454,-78.93333333333334,-480.0,-202.66666666666666
455,-91.73333333333333,-475.73333333333335,-209.06666666666666
456,-89.6,-475.73333333333335,-202.66666666666666
457,-91.73333333333333,-471.46666666666664,-230.4
458,-98.13333333333333,-475.73333333333335,-236.79999999999998
459,-108.8,-482.1333333333333,-234.66666666666666
460,-117.33333333333333,-494.93333333333334,-247.46666666666667
461,-117.33333333333333,-490.6666666666667,-264.5333333333333
462,-153.6,-494.93333333333334,-260.26666666666665
463,-132.26666666666665,-509.8666666666667,-275.2
464,-130.13333333333333,-516.2666666666667,-292.26666666666665
465,-125.86666666666666,-524.8,-298.6666666666667
466,-106.66666666666667,-533.3333333333334,-300.8
467,-91.73333333333333,-539.7333333333333,-294.4
468,-76.8,-546.1333333333333,-302.93333333333334
469,-57.6,-563.2,-302.93333333333334
470,-40.53333333333333,-563.2,-292.26666666666665
471,-44.8,-569.6,-283.73333333333335
472,-34.13333333333333,-552.5333333333333,-300.8
473,-32.0,-554.6666666666666,-290.1333333333333
474,-42.666666666666664,-544.0,-275.2
475,-46.93333333333333,-529.0666666666666,-281.6
476,-57.6,-518.4,-273.06666666666666
477,-46.93333333333333,-514.1333333333333,-270.93333333333334
478,-49.06666666666666,-505.59999999999997,-275.2
479,-46.93333333333333,-507.73333333333335,-266.6666666666667
480,-51.2,-503.46666666666664,-253.86666666666667
481,-40.53333333333333,-503.46666666666664,-249.6
482,-42.666666666666664,-505.59999999999997,-238.93333333333334
483,-34.13333333333333,-499.2,-236.79999999999998
484,-34.13333333333333,-507.73333333333335,-211.2
485,-34.13333333333333,-488.5333333333333,-232.53333333333333
486,-34.13333333333333,-486.4,-228.26666666666665
487,-34.13333333333333,-484.26666666666665,-232.53333333333333
488,-38.4,-475.73333333333335,-224.0
489,-36.266666666666666,-471.46666666666664,-226.13333333333333
490,-38.4,-467.2,-236.79999999999998
491,-36.266666666666666,-465.06666666666666,-236.79999999999998
492,-38.4,-458.6666666666667,-247.46666666666667
493,-44.8,-462.93333333333334,-245.33333333333334
494,-40.53333333333333,-473.59999999999997,-251.73333333333332
495,-57.6,-494.93333333333334,-241.06666666666666
496,-57.6,-505.59999999999997,-266.6666666666667
497,-51.2,-526.9333333333333,-270.93333333333334
498,-53.333333333333336,-535.4666666666667,-270.93333333333334
499,-49.06666666666666,-544.0,-279.46666666666664
500,-44.8,-546.1333333333333,-279.46666666666664
501,-40.53333333333333,-546.1333333333333,-285.8666666666667
502,-38.4,-541.8666666666667,-302.93333333333334
503,-34.13333333333333,-541.8666666666667,-307.2
504,-27.733333333333334,-539.7333333333333,-315.73333333333335
505,-66.13333333333333,-524.8,-305.06666666666666
506,-32.0,-524.8,-328.5333333333333
507,-32.0,-526.9333333333333,-320.0
508,-32.0,-524.8,-307.2
509,-34.13333333333333,-512.0,-309.3333333333333
510,-40.53333333333333,-505.59999999999997,-305.06666666666666
511,-34.13333333333333,-499.2,-298.6666666666667
512,-44.8,-497.06666666666666,-296.5333333333333
513,-40.53333333333333,-497.06666666666666,-288.0
514,-46.93333333333333,-490.6666666666667,-279.46666666666664
515,-40.53333333333333,-492.8,-266.6666666666667
516,-29.866666666666667,-488.5333333333333,-256.0
517,-49.06666666666666,-492.8,-264.5333333333333
518,-49.06666666666666,-488.5333333333333,-260.26666666666665
519,-44.8,-482.1333333333333,-256.0
520,-38.4,-473.59999999999997,-264.5333333333333
521,-38.4,-469.3333333333333,-275.2
522,-29.866666666666667,-460.8,-277.3333333333333
523,-27.733333333333334,-450.1333333333333,-281.6
524,-23.466666666666665,-454.4,-283.73333333333335
525,-23.466666666666665,-450.1333333333333,-285.8666666666667
526,-29.866666666666667,-452.26666666666665,-292.26666666666665
527,-6.4,-456.5333333333333,-298.6666666666667
528,-29.866666666666667,-458.6666666666667,-305.06666666666666
529,-34.13333333333333,-462.93333333333334,-311.46666666666664
530,-34.13333333333333,-480.0,-313.6
531,-40.53333333333333,-480.0,-317.8666666666667
532,-40.53333333333333,-486.4,-315.73333333333335
533,-53.333333333333336,-490.6666666666667,-332.8
534,-51.2,-490.6666666666667,-337.06666666666666
535,-40.53333333333333,-484.26666666666665,-356.26666666666665
536,-27.733333333333334,-465.06666666666666,-373.3333333333333
537,-25.6,-450.1333333333333,-379.73333333333335
538,-19.2,-437.3333333333333,-409.6
539,2.1333333333333333,-418.1333333333333,-405.3333333333333
540,6.4,-413.8666666666667,-416.0
541,17.066666666666666,-416.0,-420.26666666666665
542,2.1333333333333333,-407.46666666666664,-416.0
543,4.266666666666667,-411.73333333333335,-426.6666666666667
544,-14.933333333333334,-413.8666666666667,-411.73333333333335
545,-29.866666666666667,-426.6666666666667,-405.3333333333333
546,-36.266666666666666,-430.93333333333334,-401.06666666666666
547,-49.06666666666666,-433.06666666666666,-394.6666666666667
548,-55.46666666666667,-439.46666666666664,-396.8
549,-70.4,-430.93333333333334,-377.6
550,-68.26666666666667,-441.59999999999997,-392.5333333333333
551,-72.53333333333333,-433.06666666666666,-379.73333333333335
552,-66.13333333333333,-418.1333333333333,-386.1333333333333
553,-51.2,-411.73333333333335,-384.0
554,-34.13333333333333,-403.2,-386.1333333333333
555,-23.466666666666665,-398.93333333333334,-392.5333333333333
556,-10.666666666666666,-381.8666666666667,-396.8
557,10.666666666666666,-379.73333333333335,-396.8
558,8.533333333333333,-386.1333333333333,-403.2
559,12.8,-381.8666666666667,-416.0
560,2.1333333333333333,-375.46666666666664,-411.73333333333335
561,10.666666666666666,-398.93333333333334,-407.46666666666664
562,10.666666666666666,-403.2,-396.8
563,10.666666666666666,-405.3333333333333,-388.26666666666665
564,10.666666666666666,-409.6,-375.46666666666664
565,2.1333333333333333,-418.1333333333333,-362.6666666666667
566,-4.266666666666667,-422.4,-345.6
567,-6.4,-430.93333333333334,-328.5333333333333
568,-21.333333333333332,-426.6666666666667,-315.73333333333335
569,-23.466666666666665,-430.93333333333334,-298.6666666666667
570,-32.0,-420.26666666666665,-292.26666666666665
571,-57.6,-418.1333333333333,-298.6666666666667
572,-44.8,-409.6,-275.2
573,-55.46666666666667,-409.6,-285.8666666666667
574,-57.6,-394.6666666666667,-281.6
575,-66.13333333333333,-379.73333333333335,-285.8666666666667
576,-74.66666666666667,-377.6,-283.73333333333335
577,-85.33333333333333,-362.6666666666667,-279.46666666666664
578,-93.86666666666666,-362.6666666666667,-277.3333333333333
579,-98.13333333333333,-347.73333333333335,-268.8
580,-89.6,-330.6666666666667,-275.2
581,-81.06666666666666,-324.26666666666665,-258.1333333333333
582,-44.8,-362.6666666666667,-224.0
583,-17.066666666666666,-320.0,-226.13333333333333
584,-8.533333333333333,-334.93333333333334,-213.33333333333334
585,-14.933333333333334,-347.73333333333335,-189.86666666666667
586,-8.533333333333333,-375.46666666666664,-174.93333333333334
587,6.4,-409.6,-149.33333333333334
588,23.466666666666665,-435.2,-130.13333333333333
589,34.13333333333333,-435.2,-125.86666666666666
590,42.666666666666664,-441.59999999999997,-153.6
591,42.666666666666664,-439.46666666666664,-162.13333333333333
592,27.733333333333334,-450.1333333333333,-185.6
593,0.0,-445.8666666666667,-187.73333333333332
594,19.2,-462.93333333333334,-230.4
595,17.066666666666666,-469.3333333333333,-245.33333333333334
596,23.466666666666665,-482.1333333333333,-264.5333333333333
597,23.466666666666665,-503.46666666666664,-285.8666666666667
598,19.2,-529.0666666666666,-313.6
599,23.466666666666665,-541.8666666666667,-328.5333333333333
600,23.466666666666665,-567.4666666666667,-341.3333333333333
601,19.2,-593.0666666666666,-373.3333333333333
602,19.2,-627.2,-381.8666666666667
603,10.666666666666666,-633.6,-405.3333333333333
604,19.2,-635.7333333333333,-450.1333333333333
605,0.0,-665.6,-424.5333333333333
606,-4.266666666666667,-674.1333333333333,-439.46666666666664
607,-14.933333333333334,-680.5333333333333,-456.5333333333333
608,-6.4,-674.1333333333333,-456.5333333333333
609,-2.1333333333333333,-667.7333333333333,-458.6666666666667
610,6.4,-665.6,-460.8
611,0.0,-650.6666666666666,-435.2
612,-10.666666666666666,-631.4666666666667,-416.0
613,-17.066666666666666,-633.6,-420.26666666666665
614,-25.6,-622.9333333333333,-396.8
615,-29.866666666666667,-625.0666666666666,-398.93333333333334
616,-49.06666666666666,-620.8,-377.6
617,-55.46666666666667,-614.4,-371.2
618,-72.53333333333333,-614.4,-341.3333333333333
619,-89.6,-593.0666666666666,-313.6
620,-106.66666666666667,-573.8666666666667,-309.3333333333333
621,-115.2,-546.1333333333333,-290.1333333333333
622,-119.46666666666667,-516.2666666666667,-302.93333333333334
623,-113.06666666666666,-477.8666666666667,-309.3333333333333
624,-102.4,-452.26666666666665,-320.0
625,-123.73333333333333,-430.93333333333334,-328.5333333333333
626,-113.06666666666666,-424.5333333333333,-311.46666666666664
627,-104.53333333333333,-420.26666666666665,-326.4
628,-100.26666666666667,-420.26666666666665,-322.1333333333333
629,-100.26666666666667,-416.0,-328.5333333333333
630,-93.86666666666666,-420.26666666666665,-322.1333333333333
631,-87.46666666666667,-428.8,-334.93333333333334
632,-59.733333333333334,-456.5333333333333,-337.06666666666666
633,-66.13333333333333,-458.6666666666667,-343.46666666666664
634,-57.6,-477.8666666666667,-337.06666666666666
635,-51.2,-482.1333333333333,-341.3333333333333
636,-27.733333333333334,-484.26666666666665,-369.06666666666666
637,-44.8,-492.8,-349.8666666666667
638,-34.13333333333333,-497.06666666666666,-356.26666666666665
639,-21.333333333333332,-505.59999999999997,-362.6666666666667
640,-23.466666666666665,-503.46666666666664,-371.2
641,-12.8,-503.46666666666664,-377.6
642,-8.533333333333333,-503.46666666666664,-377.6
643,-8.533333333333333,-509.8666666666667,-388.26666666666665
644,-4.266666666666667,-512.0,-394.6666666666667
645,0.0,-507.73333333333335,-392.5333333333333
646,17.066666666666666,-520.5333333333333,-377.6
647,-8.533333333333333,-505.59999999999997,-392.5333333333333
648,-8.533333333333333,-505.59999999999997,-390.4
649,-10.666666666666666,-497.06666666666666,-390.4
650,-6.4,-507.73333333333335,-381.8666666666667
651,-12.8,-507.73333333333335,-371.2
652,-12.8,-509.8666666666667,-362.6666666666667
653,-12.8,-503.46666666666664,-352.0
654,-8.533333333333333,-505.59999999999997,-349.8666666666667
655,-19.2,-492.8,-339.2
656,-14.933333333333334,-486.4,-330.6666666666667
657,-4.266666666666667,-480.0,-352.0
658,-8.533333333333333,-465.06666666666666,-322.1333333333333
659,-8.533333333333333,-462.93333333333334,-307.2
660,0.0,-456.5333333333333,-298.6666666666667
661,6.4,-448.0,-294.4
662,19.2,-428.8,-285.8666666666667
663,38.4,-435.2,-281.6
664,38.4,-422.4,-290.1333333333333
665,61.86666666666667,-420.26666666666665,-270.93333333333334
666,70.4,-426.6666666666667,-260.26666666666665
667,74.66666666666667,-428.8,-253.86666666666667
668,102.4,-430.93333333333334,-238.93333333333334
669,87.46666666666667,-439.46666666666664,-243.2
670,98.13333333333333,-439.46666666666664,-230.4
671,98.13333333333333,-439.46666666666664,-219.73333333333332
672,98.13333333333333,-437.3333333333333,-228.26666666666665
673,100.26666666666667,-452.26666666666665,-232.53333333333333
674,91.73333333333333,-452.26666666666665,-226.13333333333333
675,91.73333333333333,-456.5333333333333,-238.93333333333334
676,100.26666666666667,-450.1333333333333,-241.06666666666666
677,96.0,-460.8,-251.73333333333332
678,78.93333333333334,-448.0,-253.86666666666667
679,55.46666666666667,-454.4,-285.8666666666667
680,64.0,-458.6666666666667,-275.2
681,55.46666666666667,-456.5333333333333,-281.6
682,51.2,-465.06666666666666,-283.73333333333335
683,42.666666666666664,-475.73333333333335,-292.26666666666665
684,42.666666666666664,-480.0,-300.8
685,29.866666666666667,-486.4,-298.6666666666667
686,27.733333333333334,-484.26666666666665,-296.5333333333333
687,23.466666666666665,-501.3333333333333,-294.4
688,29.866666666666667,-501.3333333333333,-294.4
689,29.866666666666667,-520.5333333333333,-288.0
690,10.666666666666666,-541.8666666666667,-258.1333333333333
691,23.466666666666665,-535.4666666666667,-283.73333333333335
692,32.0,-544.0,-281.6
693,29.866666666666667,-539.7333333333333,-275.2
694,36.266666666666666,-535.4666666666667,-273.06666666666666
695,40.53333333333333,-522.6666666666666,-273.06666666666666
696,44.8,-509.8666666666667,-275.2
697,55.46666666666667,-497.06666666666666,-279.46666666666664
698,59.733333333333334,-486.4,-283.73333333333335
699,64.0,-482.1333333333333,-273.06666666666666
700,70.4,-471.46666666666664,-277.3333333333333
701,72.53333333333333,-454.4,-270.93333333333334
702,85.33333333333333,-450.1333333333333,-268.8
703,83.2,-441.59999999999997,-266.6666666666667
704,93.86666666666666,-433.06666666666666,-262.4
705,96.0,-422.4,-253.86666666666667
706,104.53333333333333,-439.46666666666664,-251.73333333333332
707,104.53333333333333,-441.59999999999997,-247.46666666666667
708,108.8,-437.3333333333333,-241.06666666666666
709,106.66666666666667,-450.1333333333333,-238.93333333333334
710,110.93333333333334,-448.0,-217.6
711,115.2,-424.5333333333333,-230.4
712,108.8,-437.3333333333333,-219.73333333333332
713,136.53333333333333,-396.8,-264.5333333333333
714,125.86666666666666,-418.1333333333333,-243.2
715,132.26666666666665,-409.6,-241.06666666666666
716,128.0,-407.46666666666664,-238.93333333333334
717,123.73333333333333,-407.46666666666664,-241.06666666666666
718,132.26666666666665,-405.3333333333333,-251.73333333333332
719,128.0,-411.73333333333335,-238.93333333333334
720,121.6,-411.73333333333335,-258.1333333333333
721,117.33333333333333,-418.1333333333333,-256.0
722,113.06666666666666,-401.06666666666666,-262.4
723,72.53333333333333,-411.73333333333335,-245.33333333333334
724,100.26666666666667,-411.73333333333335,-268.8
725,102.4,-411.73333333333335,-268.8
726,81.06666666666666,-413.8666666666667,-268.8
727,76.8,-411.73333333333335,-270.93333333333334
728,72.53333333333333,-416.0,-253.86666666666667
729,66.13333333333333,-420.26666666666665,-256.0
730,70.4,-418.1333333333333,-262.4
731,64.0,-413.8666666666667,-258.1333333333333
732,61.86666666666667,-416.0,-247.46666666666667
733,55.46666666666667,-418.1333333333333,-241.06666666666666
734,53.333333333333336,-422.4,-243.2
735,59.733333333333334,-430.93333333333334,-245.33333333333334
736,53.333333333333336,-418.1333333333333,-238.93333333333334
737,61.86666666666667,-420.26666666666665,-232.53333333333333
738,74.66666666666667,-411.73333333333335,-238.93333333333334
739,72.53333333333333,-413.8666666666667,-238.93333333333334
740,70.4,-418.1333333333333,-241.06666666666666
741,76.8,-413.8666666666667,-236.79999999999998
742,89.6,-413.8666666666667,-236.79999999999998
743,98.13333333333333,-413.8666666666667,-241.06666666666666
744,85.33333333333333,-418.1333333333333,-238.93333333333334
745,100.26666666666667,-416.0,-249.6
746,104.53333333333333,-420.26666666666665,-234.66666666666666
747,106.66666666666667,-422.4,-258.1333333333333
748,115.2,-424.5333333333333,-258.1333333333333
749,110.93333333333334,-430.93333333333334,-260.26666666666665
750,113.06666666666666,-433.06666666666666,-256.0
751,113.06666666666666,-430.93333333333334,-262.4
752,117.33333333333333,-448.0,-260.26666666666665
753,108.8,-439.46666666666664,-275.2
754,113.06666666666666,-441.59999999999997,-270.93333333333334
755,108.8,-450.1333333333333,-281.6
756,104.53333333333333,-454.4,-285.8666666666667
757,100.26666666666667,-454.4,-281.6
758,93.86666666666666,-458.6666666666667,-285.8666666666667
759,100.26666666666667,-460.8,-283.73333333333335
760,85.33333333333333,-460.8,-281.6
761,83.2,-467.2,-283.73333333333335
762,72.53333333333333,-473.59999999999997,-283.73333333333335
763,85.33333333333333,-473.59999999999997,-285.8666666666667
764,76.8,-467.2,-283.73333333333335
765,78.93333333333334,-467.2,-290.1333333333333
766,51.2,-490.6666666666667,-266.6666666666667
767,78.93333333333334,-482.1333333333333,-283.73333333333335
768,81.06666666666666,-482.1333333333333,-275.2
769,83.2,-475.73333333333335,-277.3333333333333
770,81.06666666666666,-477.8666666666667,-279.46666666666664
771,78.93333333333334,-473.59999999999997,-277.3333333333333
772,85.33333333333333,-480.0,-275.2
773,89.6,-471.46666666666664,-281.6
774,85.33333333333333,-467.2,-277.3333333333333
775,70.4,-473.59999999999997,-279.46666666666664
776,72.53333333333333,-467.2,-275.2
777,83.2,-488.5333333333333,-266.6666666666667
778,76.8,-465.06666666666666,-279.46666666666664
779,85.33333333333333,-465.06666666666666,-279.46666666666664
780,81.06666666666666,-465.06666666666666,-281.6
781,83.2,-467.2,-288.0
782,78.93333333333334,-462.93333333333334,-283.73333333333335
783,76.8,-454.4,-294.4
784,72.53333333333333,-450.1333333333333,-292.26666666666665
785,81.06666666666666,-456.5333333333333,-294.4
786,74.66666666666667,-452.26666666666665,-302.93333333333334
787,74.66666666666667,-467.2,-298.6666666666667
788,110.93333333333334,-509.8666666666667,-277.3333333333333
789,78.93333333333334,-486.4,-300.8
790,74.66666666666667,-499.2,-292.26666666666665
791,78.93333333333334,-509.8666666666667,-290.1333333333333
792,76.8,-503.46666666666664,-290.1333333333333
793,78.93333333333334,-507.73333333333335,-294.4
794,74.66666666666667,-497.06666666666666,-294.4
795,74.66666666666667,-501.3333333333333,-277.3333333333333
796,85.33333333333333,-484.26666666666665,-281.6
797,96.0,-488.5333333333333,-285.8666666666667
798,96.0,-480.0,-288.0
799,81.06666666666666,-448.0,-288.0
800,102.4,-467.2,-294.4
801,102.4,-469.3333333333333,-283.73333333333335
802,104.53333333333333,-480.0,-292.26666666666665
803,102.4,-480.0,-296.5333333333333
804,100.26666666666667,-486.4,-294.4
805,93.86666666666666,-490.6666666666667,-283.73333333333335
806,87.46666666666667,-499.2,-285.8666666666667
807,93.86666666666666,-497.06666666666666,-283.73333333333335
808,98.13333333333333,-499.2,-288.0
809,83.2,-497.06666666666666,-288.0
810,100.26666666666667,-518.4,-247.46666666666667
811,72.53333333333333,-507.73333333333335,-292.26666666666665
812,66.13333333333333,-507.73333333333335,-285.8666666666667
813,64.0,-505.59999999999997,-288.0
814,59.733333333333334,-512.0,-292.26666666666665
815,57.6,-514.1333333333333,-305.06666666666666
816,49.06666666666666,-524.8,-302.93333333333334
817,42.666666666666664,-537.6,-302.93333333333334
818,40.53333333333333,-539.7333333333333,-302.93333333333334
819,29.866666666666667,-541.8666666666667,-322.1333333333333
820,29.866666666666667,-539.7333333333333,-330.6666666666667
821,23.466666666666665,-546.1333333333333,-305.06666666666666
822,66.13333333333333,-533.3333333333334,-347.73333333333335
823,49.06666666666666,-529.0666666666666,-356.26666666666665
824,49.06666666666666,-529.0666666666666,-371.2
825,51.2,-537.6,-373.3333333333333
826,68.26666666666667,-531.2,-384.0
827,87.46666666666667,-529.0666666666666,-381.8666666666667
828,83.2,-526.9333333333333,-396.8
829,87.46666666666667,-529.0666666666666,-392.5333333333333
830,78.93333333333334,-518.4,-403.2
831,85.33333333333333,-518.4,-413.8666666666667
832,78.93333333333334,-509.8666666666667,-403.2
833,74.66666666666667,-486.4,-409.6
834,66.13333333333333,-480.0,-418.1333333333333
835,61.86666666666667,-480.0,-422.4
836,53.333333333333336,-473.59999999999997,-416.0
837,38.4,-467.2,-428.8
838,42.666666666666664,-467.2,-426.6666666666667
839,25.6,-467.2,-418.1333333333333
840,70.4,-492.8,-411.73333333333335
841,38.4,-467.2,-411.73333333333335
842,34.13333333333333,-484.26666666666665,-381.8666666666667
843,17.066666666666666,-469.3333333333333,-409.6
844,-8.533333333333333,-458.6666666666667,-403.2
845,-10.666666666666666,-458.6666666666667,-401.06666666666666
846,-21.333333333333332,-454.4,-394.6666666666667
847,-32.0,-443.73333333333335,-396.8
848,-34.13333333333333,-448.0,-388.26666666666665
849,-29.866666666666667,-437.3333333333333,-390.4
850,-23.466666666666665,-443.73333333333335,-381.8666666666667
851,0.0,-439.46666666666664,-381.8666666666667
852,10.666666666666666,-430.93333333333334,-375.46666666666664
853,23.466666666666665,-409.6,-377.6
854,8.533333333333333,-433.06666666666666,-377.6
855,8.533333333333333,-430.93333333333334,-362.6666666666667
856,8.533333333333333,-435.2,-358.4
857,4.266666666666667,-424.5333333333333,-358.4
858,8.533333333333333,-426.6666666666667,-366.93333333333334
859,6.4,-426.6666666666667,-364.8
860,8.533333333333333,-426.6666666666667,-362.6666666666667
861,17.066666666666666,-428.8,-369.06666666666666
862,19.2,-428.8,-364.8
863,-4.266666666666667,-437.3333333333333,-366.93333333333334
864,32.0,-424.5333333333333,-352.0
865,12.8,-430.93333333333334,-371.2
866,14.933333333333334,-426.6666666666667,-364.8
867,14.933333333333334,-426.6666666666667,-366.93333333333334
868,17.066666666666666,-433.06666666666666,-366.93333333333334
869,8.533333333333333,-430.93333333333334,-364.8
870,8.533333333333333,-428.8,-358.4
871,4.266666666666667,-428.8,-373.3333333333333
872,0.0,-430.93333333333334,-366.93333333333334
873,-4.266666666666667,-428.8,-369.06666666666666
874,0.0,-424.5333333333333,-349.8666666666667
875,-10.666666666666666,-448.0,-347.73333333333335
876,-14.933333333333334,-435.2,-349.8666666666667
877,-14.933333333333334,-448.0,-352.0
878,-19.2,-450.1333333333333,-334.93333333333334
879,-23.466666666666665,-456.5333333333333,-337.06666666666666
880,-27.733333333333334,-462.93333333333334,-332.8
881,-32.0,-460.8,-337.06666666666666
882,-23.466666666666665,-456.5333333333333,-332.8
883,-29.866666666666667,-471.46666666666664,-330.6666666666667
884,-29.866666666666667,-462.93333333333334,-332.8
885,-25.6,-469.3333333333333,-320.0
886,-27.733333333333334,-471.46666666666664,-320.0
887,-19.2,-460.8,-326.4
888,-21.333333333333332,-458.6666666666667,-317.8666666666667
889,-17.066666666666666,-462.93333333333334,-317.8666666666667
890,-21.333333333333332,-460.8,-322.1333333333333
891,-4.266666666666667,-469.3333333333333,-313.6
892,-2.1333333333333333,-467.2,-313.6
893,0.0,-475.73333333333335,-309.3333333333333
894,0.0,-469.3333333333333,-307.2
895,6.4,-473.59999999999997,-296.5333333333333
896,0.0,-482.1333333333333,-300.8
897,8.533333333333333,-503.46666666666664,-288.0
898,0.0,-488.5333333333333,-298.6666666666667
899,-4.266666666666667,-492.8,-288.0
900,-2.1333333333333333,-497.06666666666666,-294.4
901,0.0,-497.06666666666666,-300.8
902,-10.666666666666666,-499.2,-288.0
903,-12.8,-501.3333333333333,-298.6666666666667
904,-8.533333333333333,-499.2,-298.6666666666667
905,-6.4,-499.2,-285.8666666666667
906,-19.2,-505.59999999999997,-302.93333333333334
907,-8.533333333333333,-501.3333333333333,-279.46666666666664
908,-8.533333333333333,-480.0,-302.93333333333334
909,-25.6,-494.93333333333334,-288.0
910,-19.2,-490.6666666666667,-290.1333333333333
911,-23.466666666666665,-488.5333333333333,-294.4
912,-25.6,-480.0,-285.8666666666667
913,-21.333333333333332,-480.0,-281.6
914,-25.6,-471.46666666666664,-277.3333333333333
915,-21.333333333333332,-471.46666666666664,-275.2
916,-25.6,-460.8,-279.46666666666664
917,-25.6,-467.2,-281.6
918,-23.466666666666665,-458.6666666666667,-281.6
919,-21.333333333333332,-450.1333333333333,-279.46666666666664
920,-29.866666666666667,-452.26666666666665,-266.6666666666667
921,-29.866666666666667,-448.0,-268.8
922,-32.0,-445.8666666666667,-260.26666666666665
923,-34.13333333333333,-443.73333333333335,-258.1333333333333
924,-36.266666666666666,-443.73333333333335,-251.73333333333332
925,-42.666666666666664,-448.0,-260.26666666666665
926,-36.266666666666666,-433.06666666666666,-264.5333333333333
927,-51.2,-441.59999999999997,-247.46666666666667
928,-55.46666666666667,-424.5333333333333,-258.1333333333333
929,-66.13333333333333,-441.59999999999997,-253.86666666666667
930,-55.46666666666667,-456.5333333333333,-247.46666666666667
931,-55.46666666666667,-435.2,-251.73333333333332
932,-66.13333333333333,-433.06666666666666,-264.5333333333333
933,-66.13333333333333,-430.93333333333334,-249.6
934,-59.733333333333334,-428.8,-245.33333333333334
935,-51.2,-428.8,-256.0
936,-53.333333333333336,-437.3333333333333,-247.46666666666667
937,-53.333333333333336,-435.2,-253.86666666666667
938,-55.46666666666667,-424.5333333333333,-256.0
939,-44.8,-424.5333333333333,-262.4
940,-66.13333333333333,-409.6,-268.8
941,-42.666666666666664,-411.73333333333335,-273.06666666666666
942,-51.2,-407.46666666666664,-264.5333333333333
943,-53.333333333333336,-411.73333333333335,-256.0
944,-59.733333333333334,-407.46666666666664,-262.4
945,-61.86666666666667,-409.6,-258.1333333333333
946,-72.53333333333333,-403.2,-256.0
947,-83.2,-398.93333333333334,-253.86666666666667
948,-91.73333333333333,-396.8,-253.86666666666667
949,-83.2,-392.5333333333333,-251.73333333333332
950,-102.4,-392.5333333333333,-251.73333333333332
951,-115.2,-377.6,-264.5333333333333
952,-106.66666666666667,-392.5333333333333,-256.0
953,-104.53333333333333,-388.26666666666665,-258.1333333333333
954,-108.8,-392.5333333333333,-260.26666666666665
955,-108.8,-392.5333333333333,-258.1333333333333
956,-110.93333333333334,-401.06666666666666,-258.1333333333333
957,-108.8,-396.8,-256.0
958,-108.8,-407.46666666666664,-258.1333333333333
959,-110.93333333333334,-409.6,-258.1333333333333
960,-113.06666666666666,-413.8666666666667,-262.4
961,-106.66666666666667,-413.8666666666667,-270.93333333333334
962,-123.73333333333333,-422.4,-251.73333333333332
963,-119.46666666666667,-428.8,-270.93333333333334
964,-125.86666666666666,-430.93333333333334,-268.8
965,-128.0,-439.46666666666664,-266.6666666666667
966,-128.0,-445.8666666666667,-264.5333333333333
967,-132.26666666666665,-450.1333333333333,-270.93333333333334
968,-140.8,-452.26666666666665,-270.93333333333334
969,-132.26666666666665,-460.8,-275.2
970,-130.13333333333333,-458.6666666666667,-277.3333333333333
971,-136.53333333333333,-462.93333333333334,-277.3333333333333
972,-132.26666666666665,-471.46666666666664,-264.5333333333333
973,-145.06666666666666,-469.3333333333333,-245.33333333333334
974,-136.53333333333333,-465.06666666666666,-268.8
975,-138.66666666666666,-467.2,-270.93333333333334
976,-136.53333333333333,-465.06666666666666,-268.8
977,-134.4,-460.8,-253.86666666666667
978,-130.13333333333333,-462.93333333333334,-258.1333333333333
979,-132.26666666666665,-456.5333333333333,-262.4
980,-134.4,-456.5333333333333,-251.73333333333332
981,-123.73333333333333,-460.8,-260.26666666666665
982,-125.86666666666666,-462.93333333333334,-256.0
983,-128.0,-456.5333333333333,-253.86666666666667
984,-138.66666666666666,-460.8,-258.1333333333333
985,-113.06666666666666,-454.4,-238.93333333333334
986,-117.33333333333333,-465.06666666666666,-238.93333333333334
987,-113.06666666666666,-462.93333333333334,-232.53333333333333
988,-115.2,-460.8,-221.86666666666667
989,-115.2,-456.5333333333333,-238.93333333333334
990,-119.46666666666667,-456.5333333333333,-228.26666666666665
991,-115.2,-456.5333333333333,-230.4
992,-104.53333333333333,-454.4,-247.46666666666667
993,-102.4,-452.26666666666665,-241.06666666666666
994,-108.8,-465.06666666666666,-256.0
995,-100.26666666666667,-456.5333333333333,-247.46666666666667
996,-93.86666666666666,-454.4,-266.6666666666667
997,-87.46666666666667,-452.26666666666665,-268.8
998,-93.86666666666666,-460.8,-270.93333333333334
999,-83.2,-454.4,-285.8666666666667
1000,-87.46666666666667,-458.6666666666667,-292.26666666666665
1001,-78.93333333333334,-462.93333333333334,-294.4
1002,-76.8,-473.59999999999997,-292.26666666666665
1003,-83.2,-494.93333333333334,-298.6666666666667
1004,-76.8,-505.59999999999997,-294.4
1005,-85.33333333333333,-516.2666666666667,-281.6
1006,-98.13333333333333,-516.2666666666667,-264.5333333333333
1007,-91.73333333333333,-535.4666666666667,-292.26666666666665
1008,-96.0,-535.4666666666667,-281.6
1009,-102.4,-533.3333333333334,-290.1333333333333
1010,-104.53333333333333,-539.7333333333333,-294.4
1011,-104.53333333333333,-529.0666666666666,-296.5333333333333
1012,-102.4,-524.8,-313.6
1013,-102.4,-531.2,-317.8666666666667
1014,-96.0,-544.0,-302.93333333333334
1015,-104.53333333333333,-546.1333333333333,-324.26666666666665
1016,-96.0,-539.7333333333333,-328.5333333333333
1017,-91.73333333333333,-576.0,-315.73333333333335
1018,-98.13333333333333,-554.6666666666666,-330.6666666666667
1019,-98.13333333333333,-571.7333333333333,-341.3333333333333
1020,-98.13333333333333,-578.1333333333333,-339.2
1021,-102.4,-584.5333333333333,-356.26666666666665
1022,-96.0,-603.7333333333333,-362.6666666666667
1023,-89.6,-616.5333333333333,-377.6
1024,-104.53333333333333,-640.0,-386.1333333333333
1025,-91.73333333333333,-627.2,-403.2
1026,-98.13333333333333,-618.6666666666666,-413.8666666666667
1027,-100.26666666666667,-618.6666666666666,-424.5333333333333
1028,-81.06666666666666,-610.1333333333333,-467.2
1029,-70.4,-590.9333333333333,-458.6666666666667
1030,-72.53333333333333,-582.4,-467.2
1031,-59.733333333333334,-582.4,-477.8666666666667
1032,-44.8,-571.7333333333333,-480.0
1033,-29.866666666666667,-563.2,-475.73333333333335
1034,-6.4,-550.4,-490.6666666666667
1035,14.933333333333334,-539.7333333333333,-484.26666666666665
1036,29.866666666666667,-529.0666666666666,-488.5333333333333
1037,38.4,-518.4,-469.3333333333333
1038,40.53333333333333,-490.6666666666667,-475.73333333333335
1039,49.06666666666666,-486.4,-460.8
1040,44.8,-480.0,-456.5333333333333
1041,61.86666666666667,-480.0,-433.06666666666666
1042,57.6,-450.1333333333333,-426.6666666666667
1043,51.2,-441.59999999999997,-424.5333333333333
1044,-19.2,-428.8,-422.4
1045,6.4,-443.73333333333335,-411.73333333333335
1046,81.06666666666666,-441.59999999999997,-390.4
1047,91.73333333333333,-435.2,-401.06666666666666
1048,85.33333333333333,-411.73333333333335,-405.3333333333333
1049,53.333333333333336,-413.8666666666667,-437.3333333333333
1050,102.4,-390.4,-416.0
1051,57.6,-439.46666666666664,-360.5333333333333
1052,66.13333333333333,-433.06666666666666,-388.26666666666665
1053,57.6,-426.6666666666667,-379.73333333333335
1054,61.86666666666667,-433.06666666666666,-386.1333333333333
1055,59.733333333333334,-435.2,-371.2
1056,53.333333333333336,-441.59999999999997,-375.46666666666664
1057,49.06666666666666,-424.5333333333333,-386.1333333333333
1058,55.46666666666667,-433.06666666666666,-369.06666666666666
1059,55.46666666666667,-439.46666666666664,-366.93333333333334
1060,38.4,-439.46666666666664,-354.1333333333333
1061,53.333333333333336,-435.2,-341.3333333333333
1062,66.13333333333333,-437.3333333333333,-362.6666666666667
1063,59.733333333333334,-430.93333333333334,-369.06666666666666
1064,66.13333333333333,-439.46666666666664,-356.26666666666665
1065,59.733333333333334,-443.73333333333335,-362.6666666666667
1066,59.733333333333334,-443.73333333333335,-362.6666666666667
1067,55.46666666666667,-458.6666666666667,-354.1333333333333
1068,53.333333333333336,-456.5333333333333,-354.1333333333333
1069,40.53333333333333,-458.6666666666667,-364.8
1070,44.8,-456.5333333333333,-349.8666666666667
1071,27.733333333333334,-469.3333333333333,-337.06666666666666
1072,38.4,-454.4,-347.73333333333335
1073,40.53333333333333,-458.6666666666667,-347.73333333333335
1074,36.266666666666666,-456.5333333333333,-345.6
1075,36.266666666666666,-450.1333333333333,-345.6
1076,36.266666666666666,-445.8666666666667,-343.46666666666664
1077,44.8,-448.0,-337.06666666666666
1078,46.93333333333333,-445.8666666666667,-332.8
1079,57.6,-435.2,-328.5333333333333
1080,61.86666666666667,-437.3333333333333,-339.2
1081,64.0,-441.59999999999997,-315.73333333333335
1082,78.93333333333334,-437.3333333333333,-309.3333333333333
1083,78.93333333333334,-437.3333333333333,-305.06666666666666
1084,85.33333333333333,-439.46666666666664,-313.6
1085,96.0,-430.93333333333334,-292.26666666666665
1086,96.0,-422.4,-298.6666666666667
1087,98.13333333333333,-418.1333333333333,-298.6666666666667
1088,100.26666666666667,-411.73333333333335,-298.6666666666667
1089,100.26666666666667,-403.2,-305.06666666666666
1090,98.13333333333333,-403.2,-307.2
1091,87.46666666666667,-398.93333333333334,-296.5333333333333
1092,98.13333333333333,-398.93333333333334,-311.46666666666664
1093,96.0,-401.06666666666666,-279.46666666666664
1094,85.33333333333333,-394.6666666666667,-288.0
1095,83.2,-386.1333333333333,-292.26666666666665
1096,87.46666666666667,-392.5333333333333,-292.26666666666665
1097,78.93333333333334,-390.4,-283.73333333333335
1098,85.33333333333333,-384.0,-288.0
1099,81.06666666666666,-384.0,-288.0
1100,81.06666666666666,-381.8666666666667,-281.6
1101,91.73333333333333,-386.1333333333333,-288.0
1102,83.2,-392.5333333333333,-285.8666666666667
1103,70.4,-398.93333333333334,-277.3333333333333
1104,76.8,-392.5333333333333,-264.5333333333333
1105,83.2,-390.4,-292.26666666666665
1106,81.06666666666666,-394.6666666666667,-296.5333333333333
1107,70.4,-384.0,-294.4
1108,72.53333333333333,-386.1333333333333,-296.5333333333333
1109,72.53333333333333,-386.1333333333333,-305.06666666666666
1110,76.8,-398.93333333333334,-302.93333333333334
1111,74.66666666666667,-403.2,-302.93333333333334
1112,78.93333333333334,-405.3333333333333,-298.6666666666667
1113,70.4,-403.2,-300.8
1114,59.733333333333334,-407.46666666666664,-311.46666666666664
1115,76.8,-409.6,-300.8
1116,70.4,-409.6,-305.06666666666666
1117,61.86666666666667,-407.46666666666664,-298.6666666666667
1118,66.13333333333333,-413.8666666666667,-290.1333333333333
1119,57.6,-409.6,-296.5333333333333
1120,57.6,-407.46666666666664,-307.2
1121,70.4,-401.06666666666666,-305.06666666666666
1122,64.0,-407.46666666666664,-300.8
1123,61.86666666666667,-398.93333333333334,-292.26666666666665
1124,61.86666666666667,-396.8,-290.1333333333333
1125,83.2,-403.2,-275.2
1126,68.26666666666667,-396.8,-288.0
1127,59.733333333333334,-388.26666666666665,-281.6
1128,66.13333333333333,-390.4,-277.3333333333333
1129,66.13333333333333,-388.26666666666665,-281.6
1130,68.26666666666667,-392.5333333333333,-273.06666666666666
1131,76.8,-392.5333333333333,-270.93333333333334
1132,76.8,-386.1333333333333,-277.3333333333333
1133,93.86666666666666,-379.73333333333335,-273.06666666666666
1134,87.46666666666667,-379.73333333333335,-277.3333333333333
1135,89.6,-384.0,-262.4
1136,91.73333333333333,-377.6,-270.93333333333334
1137,102.4,-386.1333333333333,-264.5333333333333
1138,102.4,-381.8666666666667,-266.6666666666667
1139,110.93333333333334,-381.8666666666667,-273.06666666666666
1140,104.53333333333333,-381.8666666666667,-277.3333333333333
1141,110.93333333333334,-384.0,-290.1333333333333
1142,110.93333333333334,-384.0,-292.26666666666665
1143,110.93333333333334,-386.1333333333333,-288.0
1144,104.53333333333333,-386.1333333333333,-281.6
1145,104.53333333333333,-384.0,-292.26666666666665
1146,100.26666666666667,-388.26666666666665,-285.8666666666667
1147,125.86666666666666,-377.6,-326.4
1148,104.53333333333333,-403.2,-294.4
1149,108.8,-407.46666666666664,-302.93333333333334
1150,110.93333333333334,-411.73333333333335,-298.6666666666667
1151,115.2,-420.26666666666665,-302.93333333333334
1152,123.73333333333333,-430.93333333333334,-290.1333333333333
1153,121.6,-426.6666666666667,-294.4
1154,128.0,-422.4,-298.6666666666667
1155,125.86666666666666,-433.06666666666666,-300.8
1156,121.6,-443.73333333333335,-300.8
1157,119.46666666666667,-448.0,-288.0
1158,117.33333333333333,-452.26666666666665,-328.5333333333333
1159,106.66666666666667,-441.59999999999997,-307.2
1160,104.53333333333333,-450.1333333333333,-298.6666666666667
1161,98.13333333333333,-443.73333333333335,-305.06666666666666
1162,96.0,-456.5333333333333,-317.8666666666667
1163,93.86666666666666,-448.0,-302.93333333333334
1164,96.0,-462.93333333333334,-311.46666666666664
1165,89.6,-465.06666666666666,-302.93333333333334
1166,81.06666666666666,-465.06666666666666,-305.06666666666666
1167,78.93333333333334,-465.06666666666666,-305.06666666666666
1168,76.8,-469.3333333333333,-305.06666666666666
1169,49.06666666666666,-458.6666666666667,-292.26666666666665
1170,76.8,-465.06666666666666,-298.6666666666667
1171,83.2,-458.6666666666667,-302.93333333333334
1172,87.46666666666667,-469.3333333333333,-298.6666666666667
1173,78.93333333333334,-458.6666666666667,-296.5333333333333
1174,74.66666666666667,-456.5333333333333,-296.5333333333333
1175,74.66666666666667,-445.8666666666667,-298.6666666666667
1176,74.66666666666667,-439.46666666666664,-296.5333333333333
1177,70.4,-428.8,-305.06666666666666
1178,76.8,-430.93333333333334,-315.73333333333335
1179,85.33333333333333,-418.1333333333333,-296.5333333333333
1180,68.26666666666667,-407.46666666666664,-339.2
1181,104.53333333333333,-416.0,-330.6666666666667
1182,98.13333333333333,-422.4,-341.3333333333333
1183,100.26666666666667,-426.6666666666667,-332.8
1184,102.4,-454.4,-337.06666666666666
1185,89.6,-471.46666666666664,-339.2
1186,85.33333333333333,-499.2,-339.2
1187,78.93333333333334,-524.8,-345.6
1188,78.93333333333334,-533.3333333333334,-347.73333333333335
1189,70.4,-544.0,-360.5333333333333
1190,70.4,-556.8,-371.2
1191,68.26666666666667,-544.0,-388.26666666666665
1192,66.13333333333333,-539.7333333333333,-401.06666666666666
1193,64.0,-512.0,-411.73333333333335
1194,70.4,-492.8,-428.8
1195,81.06666666666666,-482.1333333333333,-426.6666666666667
1196,93.86666666666666,-480.0,-426.6666666666667
1197,100.26666666666667,-477.8666666666667,-422.4
1198,102.4,-492.8,-424.5333333333333
1199,104.53333333333333,-503.46666666666664,-426.6666666666667
1200,100.26666666666667,-509.8666666666667,-424.5333333333333
1201,98.13333333333333,-516.2666666666667,-426.6666666666667
1202,85.33333333333333,-520.5333333333333,-452.26666666666665
1203,68.26666666666667,-544.0,-430.93333333333334
1204,53.333333333333336,-522.6666666666666,-439.46666666666664
1205,40.53333333333333,-533.3333333333334,-441.59999999999997
1206,40.53333333333333,-539.7333333333333,-443.73333333333335
1207,40.53333333333333,-531.2,-441.59999999999997
1208,40.53333333333333,-505.59999999999997,-450.1333333333333
1209,40.53333333333333,-484.26666666666665,-456.5333333333333
1210,42.666666666666664,-471.46666666666664,-454.4
1211,36.266666666666666,-467.2,-450.1333333333333
1212,32.0,-443.73333333333335,-448.0
1213,6.4,-450.1333333333333,-439.46666666666664
1214,14.933333333333334,-435.2,-456.5333333333333
1215,-10.666666666666666,-435.2,-458.6666666666667
1216,-10.666666666666666,-430.93333333333334,-445.8666666666667
1217,-12.8,-445.8666666666667,-430.93333333333334
1218,-23.466666666666665,-448.0,-426.6666666666667
1219,-25.6,-454.4,-420.26666666666665
1220,-23.466666666666665,-456.5333333333333,-420.26666666666665
1221,-27.733333333333334,-458.6666666666667,-418.1333333333333
1222,-21.333333333333332,-452.26666666666665,-409.6
1223,-23.466666666666665,-426.6666666666667,-443.73333333333335
1224,-27.733333333333334,-443.73333333333335,-411.73333333333335
1225,-23.466666666666665,-441.59999999999997,-411.73333333333335
1226,-17.066666666666666,-435.2,-416.0
1227,-8.533333333333333,-435.2,-416.0
1228,-6.4,-433.06666666666666,-411.73333333333335
1229,-2.1333333333333333,-430.93333333333334,-420.26666666666665
1230,2.1333333333333333,-428.8,-428.8
1231,19.2,-437.3333333333333,-428.8
1232,14.933333333333334,-428.8,-422.4
1233,21.333333333333332,-439.46666666666664,-426.6666666666667
1234,34.13333333333333,-456.5333333333333,-413.8666666666667
1235,6.4,-437.3333333333333,-418.1333333333333
1236,8.533333333333333,-450.1333333333333,-409.6
1237,14.933333333333334,-450.1333333333333,-409.6
1238,10.666666666666666,-448.0,-396.8
1239,6.4,-452.26666666666665,-409.6
1240,2.1333333333333333,-448.0,-405.3333333333333
1241,0.0,-448.0,-398.93333333333334
1242,-4.266666666666667,-443.73333333333335,-398.93333333333334
1243,-2.1333333333333333,-439.46666666666664,-396.8
1244,-4.266666666666667,-439.46666666666664,-396.8
1245,-21.333333333333332,-445.8666666666667,-356.26666666666665
1246,-8.533333333333333,-433.06666666666666,-384.0
1247,-14.933333333333334,-430.93333333333334,-384.0
1248,-14.933333333333334,-430.93333333333334,-364.8
1249,-17.066666666666666,-435.2,-375.46666666666664
1250,-19.2,-426.6666666666667,-358.4
1251,-19.2,-430.93333333333334,-352.0
1252,-23.466666666666665,-430.93333333333334,-356.26666666666665
1253,-32.0,-424.5333333333333,-347.73333333333335
1254,-25.6,-435.2,-345.6
1255,-12.8,-426.6666666666667,-337.06666666666666
1256,-21.333333333333332,-422.4,-360.5333333333333
1257,-23.466666666666665,-433.06666666666666,-324.26666666666665
1258,-21.333333333333332,-430.93333333333334,-315.73333333333335
1259,-23.466666666666665,-428.8,-313.6
1260,-25.6,-422.4,-311.46666666666664
1261,-27.733333333333334,-424.5333333333333,-298.6666666666667
1262,-25.6,-416.0,-290.1333333333333
1263,-25.6,-418.1333333333333,-294.4
1264,-27.733333333333334,-418.1333333333333,-296.5333333333333
1265,-21.333333333333332,-413.8666666666667,-288.0
1266,-25.6,-413.8666666666667,-288.0
1267,-14.933333333333334,-435.2,-277.3333333333333
1268,-19.2,-405.3333333333333,-283.73333333333335
1269,-12.8,-409.6,-292.26666666666665
1270,-10.666666666666666,-411.73333333333335,-285.8666666666667
1271,-17.066666666666666,-416.0,-285.8666666666667
1272,-8.533333333333333,-422.4,-277.3333333333333
1273,-8.533333333333333,-428.8,-279.46666666666664
1274,-8.533333333333333,-430.93333333333334,-281.6
1275,-10.666666666666666,-435.2,-283.73333333333335
1276,-21.333333333333332,-428.8,-288.0
1277,-27.733333333333334,-439.46666666666664,-283.73333333333335
1278,-12.8,-454.4,-281.6
1279,-34.13333333333333,-441.59999999999997,-281.6
1280,-34.13333333333333,-445.8666666666667,-283.73333333333335
1281,-34.13333333333333,-448.0,-275.2
1282,-46.93333333333333,-448.0,-281.6
1283,-40.53333333333333,-454.4,-288.0
1284,-44.8,-450.1333333333333,-277.3333333333333
1285,-42.666666666666664,-452.26666666666665,-277.3333333333333
1286,-49.06666666666666,-456.5333333333333,-277.3333333333333
1287,-49.06666666666666,-458.6666666666667,-279.46666666666664
1288,-57.6,-450.1333333333333,-275.2
1289,-42.666666666666664,-465.06666666666666,-281.6
1290,-38.4,-458.6666666666667,-285.8666666666667
1291,-34.13333333333333,-460.8,-285.8666666666667
1292,-34.13333333333333,-462.93333333333334,-283.73333333333335
1293,-36.266666666666666,-458.6666666666667,-281.6
1294,-34.13333333333333,-462.93333333333334,-285.8666666666667
1295,-34.13333333333333,-456.5333333333333,-279.46666666666664
1296,-42.666666666666664,-458.6666666666667,-273.06666666666666
1297,-29.866666666666667,-445.8666666666667,-275.2
1298,-29.866666666666667,-448.0,-285.8666666666667
1299,-34.13333333333333,-441.59999999999997,-279.46666666666664
1300,-40.53333333333333,-445.8666666666667,-258.1333333333333
1301,-42.666666666666664,-420.26666666666665,-266.6666666666667
1302,-44.8,-416.0,-266.6666666666667
1303,-46.93333333333333,-416.0,-262.4
1304,-49.06666666666666,-411.73333333333335,-264.5333333333333
1305,-49.06666666666666,-413.8666666666667,-258.1333333333333
1306,-55.46666666666667,-416.0,-258.1333333333333
1307,-64.0,-407.46666666666664,-253.86666666666667
1308,-66.13333333333333,-416.0,-251.73333333333332
1309,-66.13333333333333,-411.73333333333335,-256.0
1310,-57.6,-413.8666666666667,-258.1333333333333
1311,-74.66666666666667,-418.1333333333333,-243.2
1312,-78.93333333333334,-405.3333333333333,-251.73333333333332
1313,-87.46666666666667,-409.6,-258.1333333333333
1314,-89.6,-407.46666666666664,-253.86666666666667
1315,-100.26666666666667,-403.2,-253.86666666666667
1316,-98.13333333333333,-409.6,-247.46666666666667
1317,-100.26666666666667,-405.3333333333333,-258.1333333333333
1318,-113.06666666666666,-398.93333333333334,-262.4
1319,-108.8,-409.6,-260.26666666666665
1320,-113.06666666666666,-405.3333333333333,-253.86666666666667
1321,-110.93333333333334,-407.46666666666664,-302.93333333333334
1322,-113.06666666666666,-413.8666666666667,-270.93333333333334
1323,-119.46666666666667,-418.1333333333333,-270.93333333333334
1324,-119.46666666666667,-413.8666666666667,-268.8
1325,-108.8,-418.1333333333333,-273.06666666666666
1326,-115.2,-418.1333333333333,-275.2
1327,-113.06666666666666,-416.0,-279.46666666666664
1328,-110.93333333333334,-428.8,-288.0
1329,-106.66666666666667,-416.0,-288.0
1330,-113.06666666666666,-424.5333333333333,-290.1333333333333
1331,-121.6,-424.5333333333333,-288.0
1332,-132.26666666666665,-407.46666666666664,-309.3333333333333
1333,-128.0,-428.8,-285.8666666666667
1334,-128.0,-426.6666666666667,-292.26666666666665
1335,-130.13333333333333,-426.6666666666667,-281.6
1336,-138.66666666666666,-430.93333333333334,-288.0
1337,-145.06666666666666,-428.8,-285.8666666666667
1338,-140.8,-426.6666666666667,-285.8666666666667
1339,-142.93333333333334,-426.6666666666667,-281.6
1340,-149.33333333333334,-439.46666666666664,-275.2
1341,-142.93333333333334,-426.6666666666667,-279.46666666666664
1342,-136.53333333333333,-433.06666666666666,-275.2
1343,-136.53333333333333,-443.73333333333335,-262.4
1344,-128.0,-437.3333333333333,-273.06666666666666
1345,-125.86666666666666,-437.3333333333333,-275.2
1346,-123.73333333333333,-452.26666666666665,-273.06666666666666
1347,-119.46666666666667,-441.59999999999997,-262.4
1348,-125.86666666666666,-443.73333333333335,-264.5333333333333
1349,-119.46666666666667,-445.8666666666667,-275.2
1350,-98.13333333333333,-450.1333333333333,-277.3333333333333
1351,-106.66666666666667,-445.8666666666667,-266.6666666666667
1352,-106.66666666666667,-441.59999999999997,-275.2
1353,-108.8,-454.4,-277.3333333333333
1354,-89.6,-452.26666666666665,-285.8666666666667
1355,-98.13333333333333,-462.93333333333334,-275.2
1356,-98.13333333333333,-460.8,-275.2
1357,-96.0,-471.46666666666664,-279.46666666666664
1358,-96.0,-473.59999999999997,-290.1333333333333
1359,-100.26666666666667,-469.3333333333333,-285.8666666666667
1360,-102.4,-473.59999999999997,-290.1333333333333
1361,-91.73333333333333,-475.73333333333335,-290.1333333333333
1362,-98.13333333333333,-477.8666666666667,-300.8
1363,-91.73333333333333,-475.73333333333335,-305.06666666666666
1364,-87.46666666666667,-465.06666666666666,-311.46666666666664
1365,-98.13333333333333,-460.8,-315.73333333333335
1366,-87.46666666666667,-488.5333333333333,-309.3333333333333
1367,-87.46666666666667,-486.4,-309.3333333333333
1368,-93.86666666666666,-488.5333333333333,-330.6666666666667
1369,-98.13333333333333,-482.1333333333333,-328.5333333333333
1370,-96.0,-484.26666666666665,-334.93333333333334
1371,-98.13333333333333,-490.6666666666667,-352.0
1372,-89.6,-490.6666666666667,-347.73333333333335
1373,-81.06666666666666,-512.0,-354.1333333333333
1374,-68.26666666666667,-531.2,-349.8666666666667
1375,-64.0,-550.4,-332.8
1376,-38.4,-561.0666666666666,-362.6666666666667
1377,-55.46666666666667,-571.7333333333333,-339.2
1378,-49.06666666666666,-588.8,-349.8666666666667
1379,-61.86666666666667,-588.8,-360.5333333333333
1380,-68.26666666666667,-593.0666666666666,-358.4
1381,-68.26666666666667,-588.8,-373.3333333333333
1382,-78.93333333333334,-588.8,-390.4
1383,-87.46666666666667,-593.0666666666666,-403.2
1384,-85.33333333333333,-582.4,-416.0
1385,-96.0,-586.6666666666666,-420.26666666666665
1386,-102.4,-578.1333333333333,-430.93333333333334
1387,-140.8,-580.2666666666667,-433.06666666666666
1388,-134.4,-561.0666666666666,-456.5333333333333
1389,-153.6,-558.9333333333333,-469.3333333333333
1390,-166.4,-552.5333333333333,-471.46666666666664
1391,-164.26666666666665,-558.9333333333333,-482.1333333333333
1392,-174.93333333333334,-563.2,-486.4
1393,-168.53333333333333,-565.3333333333334,-482.1333333333333
1394,-155.73333333333332,-576.0,-471.46666666666664
1395,-142.93333333333334,-571.7333333333333,-465.06666666666666
1396,-132.26666666666665,-561.0666666666666,-465.06666666666666
1397,-68.26666666666667,-535.4666666666667,-486.4
1398,-74.66666666666667,-529.0666666666666,-454.4
1399,-49.06666666666666,-516.2666666666667,-441.59999999999997
1400,-32.0,-503.46666666666664,-439.46666666666664
1401,-12.8,-471.46666666666664,-437.3333333333333
1402,2.1333333333333333,-458.6666666666667,-424.5333333333333
1403,8.533333333333333,-452.26666666666665,-420.26666666666665
1404,14.933333333333334,-437.3333333333333,-416.0
1405,23.466666666666665,-416.0,-411.73333333333335
1406,23.466666666666665,-409.6,-405.3333333333333
1407,38.4,-403.2,-398.93333333333334
1408,32.0,-379.73333333333335,-401.06666666666666
1409,2.1333333333333333,-381.8666666666667,-388.26666666666665
1410,42.666666666666664,-394.6666666666667,-373.3333333333333
1411,46.93333333333333,-390.4,-362.6666666666667
1412,42.666666666666664,-392.5333333333333,-373.3333333333333
1413,29.866666666666667,-390.4,-366.93333333333334
1414,27.733333333333334,-405.3333333333333,-369.06666666666666
1415,12.8,-413.8666666666667,-375.46666666666664
1416,4.266666666666667,-422.4,-360.5333333333333
1417,2.1333333333333333,-424.5333333333333,-356.26666666666665
1418,-4.266666666666667,-435.2,-375.46666666666664
1419,-29.866666666666667,-439.46666666666664,-330.6666666666667
1420,-14.933333333333334,-448.0,-360.5333333333333
1421,-19.2,-445.8666666666667,-362.6666666666667
1422,-12.8,-450.1333333333333,-364.8
1423,2.1333333333333333,-452.26666666666665,-366.93333333333334
1424,-4.266666666666667,-452.26666666666665,-356.26666666666665
1425,2.1333333333333333,-456.5333333333333,-356.26666666666665
1426,2.1333333333333333,-454.4,-343.46666666666664
1427,8.533333333333333,-467.2,-354.1333333333333
1428,6.4,-462.93333333333334,-347.73333333333335
1429,2.1333333333333333,-460.8,-341.3333333333333
1430,4.266666666666667,-480.0,-332.8
1431,4.266666666666667,-462.93333333333334,-339.2
1432,2.1333333333333333,-462.93333333333334,-339.2
1433,0.0,-460.8,-334.93333333333334
1434,6.4,-460.8,-337.06666666666666
1435,8.533333333333333,-456.5333333333333,-339.2
1436,10.666666666666666,-458.6666666666667,-339.2
1437,21.333333333333332,-458.6666666666667,-330.6666666666667
1438,32.0,-456.5333333333333,-332.8
1439,40.53333333333333,-460.8,-339.2
1440,29.866666666666667,-458.6666666666667,-324.26666666666665
1441,61.86666666666667,-465.06666666666666,-317.8666666666667
1442,42.666666666666664,-452.26666666666665,-313.6
1443,51.2,-456.5333333333333,-307.2
1444,55.46666666666667,-448.0,-305.06666666666666
1445,57.6,-450.1333333333333,-302.93333333333334
1446,64.0,-454.4,-285.8666666666667
1447,74.66666666666667,-456.5333333333333,-279.46666666666664
1448,64.0,-441.59999999999997,-283.73333333333335
1449,64.0,-435.2,-275.2
1450,70.4,-426.6666666666667,-281.6
1451,76.8,-416.0,-285.8666666666667
1452,66.13333333333333,-430.93333333333334,-260.26666666666665
1453,72.53333333333333,-403.2,-275.2
1454,72.53333333333333,-401.06666666666666,-275.2
1455,70.4,-392.5333333333333,-270.93333333333334
1456,76.8,-394.6666666666667,-277.3333333333333
1457,72.53333333333333,-388.26666666666665,-279.46666666666664
1458,68.26666666666667,-388.26666666666665,-270.93333333333334
1459,74.66666666666667,-388.26666666666665,-273.06666666666666
1460,64.0,-401.06666666666666,-281.6
1461,57.6,-390.4,-279.46666666666664
1462,64.0,-401.06666666666666,-273.06666666666666
1463,74.66666666666667,-398.93333333333334,-283.73333333333335
1464,51.2,-394.6666666666667,-290.1333333333333
1465,55.46666666666667,-394.6666666666667,-290.1333333333333
1466,55.46666666666667,-392.5333333333333,-292.26666666666665
1467,55.46666666666667,-386.1333333333333,-290.1333333333333
1468,53.333333333333336,-388.26666666666665,-296.5333333333333
1469,57.6,-394.6666666666667,-292.26666666666665
1470,51.2,-398.93333333333334,-294.4
1471,61.86666666666667,-403.2,-302.93333333333334
1472,59.733333333333334,-405.3333333333333,-290.1333333333333
1473,66.13333333333333,-407.46666666666664,-285.8666666666667
1474,42.666666666666664,-424.5333333333333,-313.6
1475,61.86666666666667,-407.46666666666664,-292.26666666666665
1476,68.26666666666667,-398.93333333333334,-302.93333333333334
1477,74.66666666666667,-405.3333333333333,-298.6666666666667
1478,72.53333333333333,-398.93333333333334,-300.8
1479,74.66666666666667,-398.93333333333334,-302.93333333333334
1480,74.66666666666667,-396.8,-294.4
1481,74.66666666666667,-401.06666666666666,-294.4
1482,76.8,-401.06666666666666,-300.8
1483,72.53333333333333,-405.3333333333333,-285.8666666666667
1484,74.66666666666667,-398.93333333333334,-311.46666666666664
1485,81.06666666666666,-396.8,-290.1333333333333
1486,87.46666666666667,-401.06666666666666,-288.0
1487,83.2,-392.5333333333333,-288.0
1488,85.33333333333333,-390.4,-275.2
1489,76.8,-384.0,-281.6
1490,85.33333333333333,-381.8666666666667,-277.3333333333333
1491,96.0,-373.3333333333333,-273.06666666666666
1492,81.06666666666666,-375.46666666666664,-270.93333333333334
1493,89.6,-373.3333333333333,-270.93333333333334
1494,89.6,-377.6,-262.4
1495,93.86666666666666,-358.4,-277.3333333333333
1496,91.73333333333333,-373.3333333333333,-266.6666666666667
1497,106.66666666666667,-381.8666666666667,-260.26666666666665
1498,102.4,-375.46666666666664,-260.26666666666665
1499,110.93333333333334,-381.8666666666667,-258.1333333333333
1500,110.93333333333334,-384.0,-266.6666666666667
1501,110.93333333333334,-386.1333333333333,-262.4
1502,117.33333333333333,-390.4,-262.4
1503,119.46666666666667,-398.93333333333334,-262.4
1504,110.93333333333334,-392.5333333333333,-258.1333333333333
1505,113.06666666666666,-392.5333333333333,-266.6666666666667
1506,117.33333333333333,-420.26666666666665,-281.6
1507,117.33333333333333,-403.2,-268.8
1508,115.2,-409.6,-268.8
1509,113.06666666666666,-409.6,-275.2
1510,108.8,-413.8666666666667,-273.06666666666666
1511,113.06666666666666,-418.1333333333333,-283.73333333333335
1512,110.93333333333334,-416.0,-279.46666666666664
1513,106.66666666666667,-426.6666666666667,-283.73333333333335
1514,104.53333333333333,-433.06666666666666,-283.73333333333335
1515,104.53333333333333,-443.73333333333335,-285.8666666666667
1516,100.26666666666667,-450.1333333333333,-283.73333333333335
1517,85.33333333333333,-435.2,-302.93333333333334
1518,96.0,-458.6666666666667,-288.0
1519,87.46666666666667,-458.6666666666667,-290.1333333333333
1520,87.46666666666667,-462.93333333333334,-288.0
1521,76.8,-465.06666666666666,-290.1333333333333
1522,81.06666666666666,-465.06666666666666,-288.0
1523,74.66666666666667,-462.93333333333334,-296.5333333333333
1524,70.4,-465.06666666666666,-290.1333333333333
1525,78.93333333333334,-452.26666666666665,-290.1333333333333
1526,87.46666666666667,-465.06666666666666,-296.5333333333333
1527,89.6,-454.4,-298.6666666666667
1528,72.53333333333333,-480.0,-275.2
1529,85.33333333333333,-452.26666666666665,-296.5333333333333
1530,87.46666666666667,-454.4,-305.06666666666666
1531,91.73333333333333,-454.4,-307.2
1532,96.0,-445.8666666666667,-322.1333333333333
1533,96.0,-450.1333333333333,-326.4
1534,102.4,-465.06666666666666,-324.26666666666665
1535,98.13333333333333,-473.59999999999997,-337.06666666666666
1536,102.4,-482.1333333333333,-337.06666666666666
1537,102.4,-488.5333333333333,-345.6
1538,100.26666666666667,-503.46666666666664,-345.6
1539,108.8,-497.06666666666666,-345.6
1540,89.6,-539.7333333333333,-349.8666666666667
1541,85.33333333333333,-548.2666666666667,-356.26666666666665
1542,78.93333333333334,-546.1333333333333,-356.26666666666665
1543,83.2,-556.8,-362.6666666666667
1544,70.4,-552.5333333333333,-375.46666666666664
1545,70.4,-550.4,-381.8666666666667
1546,70.4,-548.2666666666667,-381.8666666666667
1547,76.8,-550.4,-409.6
1548,74.66666666666667,-544.0,-409.6
1549,66.13333333333333,-539.7333333333333,-424.5333333333333
1550,115.2,-518.4,-428.8
1551,78.93333333333334,-526.9333333333333,-443.73333333333335
1552,74.66666666666667,-524.8,-456.5333333333333
1553,70.4,-531.2,-460.8
1554,76.8,-524.8,-480.0
1555,76.8,-522.6666666666666,-492.8
1556,78.93333333333334,-522.6666666666666,-490.6666666666667
1557,74.66666666666667,-524.8,-492.8
1558,81.06666666666666,-526.9333333333333,-503.46666666666664
1559,81.06666666666666,-537.6,-497.06666666666666
1560,74.66666666666667,-531.2,-494.93333333333334
1561,85.33333333333333,-531.2,-486.4
1562,64.0,-535.4666666666667,-460.8
1563,64.0,-529.0666666666666,-469.3333333333333
1564,64.0,-514.1333333333333,-458.6666666666667
1565,64.0,-497.06666666666666,-462.93333333333334
1566,49.06666666666666,-488.5333333333333,-458.6666666666667
1567,38.4,-484.26666666666665,-452.26666666666665
1568,23.466666666666665,-475.73333333333335,-435.2
1569,19.2,-445.8666666666667,-439.46666666666664
1570,12.8,-426.6666666666667,-439.46666666666664
1571,34.13333333333333,-413.8666666666667,-433.06666666666666
1572,-4.266666666666667,-411.73333333333335,-420.26666666666665
1573,-4.266666666666667,-418.1333333333333,-422.4
1574,-6.4,-413.8666666666667,-411.73333333333335
1575,-10.666666666666666,-413.8666666666667,-409.6
1576,-23.466666666666665,-411.73333333333335,-403.2
1577,-25.6,-413.8666666666667,-392.5333333333333
1578,-25.6,-416.0,-392.5333333333333
1579,-27.733333333333334,-418.1333333333333,-396.8
1580,-23.466666666666665,-418.1333333333333,-392.5333333333333
1581,-21.333333333333332,-424.5333333333333,-392.5333333333333
1582,10.666666666666666,-413.8666666666667,-403.2
1583,-8.533333333333333,-413.8666666666667,-398.93333333333334
1584,-10.666666666666666,-420.26666666666665,-392.5333333333333
1585,-2.1333333333333333,-420.26666666666665,-398.93333333333334
1586,2.1333333333333333,-418.1333333333333,-398.93333333333334
1587,4.266666666666667,-416.0,-396.8
1588,10.666666666666666,-424.5333333333333,-401.06666666666666
1589,14.933333333333334,-420.26666666666665,-390.4
1590,10.666666666666666,-422.4,-398.93333333333334
1591,10.666666666666666,-418.1333333333333,-396.8
1592,10.666666666666666,-418.1333333333333,-401.06666666666666
1593,29.866666666666667,-409.6,-418.1333333333333
1594,6.4,-420.26666666666665,-386.1333333333333
1595,4.266666666666667,-424.5333333333333,-379.73333333333335
1596,-8.533333333333333,-424.5333333333333,-379.73333333333335
1597,-10.666666666666666,-428.8,-377.6
1598,-21.333333333333332,-424.5333333333333,-381.8666666666667
1599,-27.733333333333334,-422.4,-379.73333333333335
1600,-34.13333333333333,-426.6666666666667,-360.5333333333333
1601,-34.13333333333333,-424.5333333333333,-362.6666666666667
1602,-32.0,-430.93333333333334,-369.06666666666666
1603,-32.0,-439.46666666666664,-369.06666666666666
1604,-51.2,-424.5333333333333,-362.6666666666667
1605,-53.333333333333336,-441.59999999999997,-352.0
1606,-42.666666666666664,-448.0,-341.3333333333333
1607,-42.666666666666664,-445.8666666666667,-328.5333333333333
1608,-42.666666666666664,-450.1333333333333,-320.0
1609,-38.4,-454.4,-315.73333333333335
1610,-36.266666666666666,-456.5333333333333,-311.46666666666664
1611,-42.666666666666664,-456.5333333333333,-307.2
1612,-34.13333333333333,-460.8,-281.6
1613,-38.4,-467.2,-290.1333333333333
1614,-46.93333333333333,-452.26666666666665,-288.0
1615,-76.8,-439.46666666666664,-292.26666666666665
1616,-38.4,-450.1333333333333,-292.26666666666665
1617,-34.13333333333333,-439.46666666666664,-283.73333333333335
1618,-34.13333333333333,-439.46666666666664,-285.8666666666667
1619,-32.0,-443.73333333333335,-281.6
1620,-38.4,-441.59999999999997,-290.1333333333333
1621,-38.4,-437.3333333333333,-281.6
1622,-36.266666666666666,-439.46666666666664,-294.4
1623,-34.13333333333333,-428.8,-285.8666666666667
1624,-42.666666666666664,-437.3333333333333,-283.73333333333335
1625,-49.06666666666666,-428.8,-285.8666666666667
1626,-42.666666666666664,-448.0,-264.5333333333333
1627,-44.8,-441.59999999999997,-288.0
1628,-53.333333333333336,-437.3333333333333,-290.1333333333333
1629,-59.733333333333334,-441.59999999999997,-283.73333333333335
1630,-59.733333333333334,-443.73333333333335,-288.0
1631,-57.6,-435.2,-281.6
1632,-49.06666666666666,-430.93333333333334,-294.4
1633,-55.46666666666667,-430.93333333333334,-300.8
1634,-57.6,-426.6666666666667,-283.73333333333335
1635,-51.2,-418.1333333333333,-279.46666666666664
1636,-55.46666666666667,-411.73333333333335,-281.6
1637,-29.866666666666667,-409.6,-305.06666666666666
1638,-46.93333333333333,-407.46666666666664,-288.0
1639,-53.333333333333336,-405.3333333333333,-288.0
1640,-49.06666666666666,-401.06666666666666,-283.73333333333335
1641,-53.333333333333336,-398.93333333333334,-279.46666666666664
1642,-57.6,-396.8,-277.3333333333333
1643,-61.86666666666667,-390.4,-288.0
1644,-64.0,-390.4,-281.6
1645,-59.733333333333334,-392.5333333333333,-281.6
1646,-55.46666666666667,-396.8,-283.73333333333335
1647,-51.2,-390.4,-275.2
1648,-70.4,-403.2,-266.6666666666667
1649,-76.8,-398.93333333333334,-270.93333333333334
1650,-76.8,-405.3333333333333,-270.93333333333334
1651,-91.73333333333333,-392.5333333333333,-268.8
1652,-100.26666666666667,-386.1333333333333,-268.8
1653,-85.33333333333333,-396.8,-277.3333333333333
1654,-85.33333333333333,-392.5333333333333,-279.46666666666664
1655,-98.13333333333333,-392.5333333333333,-292.26666666666665
1656,-96.0,-384.0,-296.5333333333333
1657,-110.93333333333334,-392.5333333333333,-281.6
1658,-102.4,-394.6666666666667,-281.6
1659,-119.46666666666667,-407.46666666666664,-264.5333333333333
1660,-119.46666666666667,-398.93333333333334,-292.26666666666665
1661,-121.6,-401.06666666666666,-288.0
1662,-121.6,-407.46666666666664,-288.0
1663,-119.46666666666667,-411.73333333333335,-288.0
1664,-125.86666666666666,-409.6,-290.1333333333333
1665,-125.86666666666666,-411.73333333333335,-290.1333333333333
1666,-121.6,-413.8666666666667,-290.1333333333333
1667,-115.2,-418.1333333333333,-292.26666666666665
1668,-119.46666666666667,-418.1333333333333,-281.6
1669,-108.8,-418.1333333333333,-288.0
1670,-151.46666666666667,-403.2,-290.1333333333333
1671,-113.06666666666666,-418.1333333333333,-298.6666666666667
1672,-110.93333333333334,-426.6666666666667,-288.0
1673,-115.2,-424.5333333333333,-292.26666666666665
1674,-117.33333333333333,-418.1333333333333,-290.1333333333333
1675,-125.86666666666666,-422.4,-292.26666666666665
1676,-121.6,-435.2,-298.6666666666667
1677,-128.0,-428.8,-283.73333333333335
1678,-130.13333333333333,-435.2,-277.3333333333333
1679,-123.73333333333333,-430.93333333333334,-283.73333333333335
1680,-125.86666666666666,-430.93333333333334,-277.3333333333333
1681,-89.6,-428.8,-221.86666666666667
1682,-128.0,-426.6666666666667,-285.8666666666667
1683,-123.73333333333333,-416.0,-275.2
1684,-119.46666666666667,-413.8666666666667,-264.5333333333333
1685,-121.6,-416.0,-264.5333333333333
1686,-117.33333333333333,-413.8666666666667,-264.5333333333333
1687,-123.73333333333333,-409.6,-262.4
1688,-119.46666666666667,-409.6,-262.4
1689,-128.0,-411.73333333333335,-251.73333333333332
1690,-125.86666666666666,-413.8666666666667,-256.0
1691,-110.93333333333334,-390.4,-273.06666666666666
1692,-128.0,-409.6,-256.0
1693,-115.2,-407.46666666666664,-264.5333333333333
1694,-113.06666666666666,-409.6,-264.5333333333333
1695,-104.53333333333333,-409.6,-264.5333333333333
1696,-104.53333333333333,-409.6,-256.0
1697,-89.6,-411.73333333333335,-262.4
1698,-85.33333333333333,-413.8666666666667,-262.4
1699,-74.66666666666667,-416.0,-253.86666666666667
1700,-76.8,-420.26666666666665,-262.4
1701,-70.4,-433.06666666666666,-268.8
1702,-102.4,-426.6666666666667,-253.86666666666667
1703,-81.06666666666666,-426.6666666666667,-288.0
1704,-76.8,-424.5333333333333,-296.5333333333333
1705,-85.33333333333333,-416.0,-315.73333333333335
1706,-91.73333333333333,-413.8666666666667,-343.46666666666664
1707,-98.13333333333333,-426.6666666666667,-364.8
1708,-115.2,-437.3333333333333,-377.6
1709,-125.86666666666666,-467.2,-384.0
1710,-130.13333333333333,-494.93333333333334,-390.4
1711,-108.8,-531.2,-386.1333333333333
1712,-85.33333333333333,-563.2,-373.3333333333333
1713,-70.4,-603.7333333333333,-371.2
1714,-53.333333333333336,-629.3333333333334,-390.4
1715,-34.13333333333333,-644.2666666666667,-401.06666666666666
1716,-29.866666666666667,-640.0,-416.0
1717,-21.333333333333332,-620.8,-445.8666666666667
1718,-14.933333333333334,-597.3333333333334,-458.6666666666667
1719,-27.733333333333334,-563.2,-494.93333333333334
1720,-21.333333333333332,-531.2,-505.59999999999997
1721,-40.53333333333333,-512.0,-520.5333333333333
1722,-49.06666666666666,-501.3333333333333,-509.8666666666667
1723,-74.66666666666667,-516.2666666666667,-507.73333333333335
1724,-104.53333333333333,-529.0666666666666,-499.2
1725,-104.53333333333333,-529.0666666666666,-503.46666666666664
1726,-108.8,-533.3333333333334,-497.06666666666666
1727,-108.8,-546.1333333333333,-482.1333333333333
1728,-104.53333333333333,-544.0,-471.46666666666664
1729,-102.4,-539.7333333333333,-462.93333333333334
1730,-108.8,-535.4666666666667,-454.4
1731,-98.13333333333333,-520.5333333333333,-435.2
1732,-89.6,-512.0,-428.8
1733,-76.8,-492.8,-430.93333333333334
1734,-70.4,-473.59999999999997,-416.0
1735,-57.6,-475.73333333333335,-401.06666666666666
1736,-53.333333333333336,-437.3333333333333,-411.73333333333335
1737,-46.93333333333333,-428.8,-409.6
1738,-34.13333333333333,-418.1333333333333,-409.6
1739,-23.466666666666665,-413.8666666666667,-398.93333333333334
1740,-17.066666666666666,-407.46666666666664,-409.6
1741,-6.4,-405.3333333333333,-407.46666666666664
1742,8.533333333333333,-401.06666666666666,-394.6666666666667
1743,14.933333333333334,-403.2,-405.3333333333333
1744,23.466666666666665,-398.93333333333334,-403.2
1745,42.666666666666664,-409.6,-401.06666666666666
1746,64.0,-403.2,-392.5333333333333
1747,57.6,-409.6,-401.06666666666666
1748,59.733333333333334,-413.8666666666667,-405.3333333333333
1749,64.0,-430.93333333333334,-409.6
1750,59.733333333333334,-439.46666666666664,-407.46666666666664
1751,55.46666666666667,-454.4,-405.3333333333333
1752,51.2,-450.1333333333333,-413.8666666666667
1753,49.06666666666666,-460.8,-409.6
1754,49.06666666666666,-462.93333333333334,-416.0
1755,38.4,-465.06666666666666,-424.5333333333333
1756,40.53333333333333,-475.73333333333335,-420.26666666666665
1757,23.466666666666665,-465.06666666666666,-426.6666666666667
1758,32.0,-454.4,-428.8
1759,29.866666666666667,-458.6666666666667,-433.06666666666666
1760,27.733333333333334,-448.0,-433.06666666666666
1761,21.333333333333332,-448.0,-439.46666666666664
1762,23.466666666666665,-445.8666666666667,-439.46666666666664
1763,12.8,-428.8,-422.4
1764,23.466666666666665,-452.26666666666665,-420.26666666666665
1765,19.2,-454.4,-422.4
1766,10.666666666666666,-454.4,-418.1333333333333
1767,8.533333333333333,-450.1333333333333,-418.1333333333333
1768,23.466666666666665,-460.8,-394.6666666666667
1769,14.933333333333334,-452.26666666666665,-386.1333333333333
1770,19.2,-454.4,-369.06666666666666
1771,23.466666666666665,-456.5333333333333,-358.4
1772,25.6,-458.6666666666667,-360.5333333333333
1773,27.733333333333334,-452.26666666666665,-352.0
1774,29.866666666666667,-448.0,-332.8
1775,29.866666666666667,-441.59999999999997,-343.46666666666664
1776,32.0,-439.46666666666664,-317.8666666666667
1777,34.13333333333333,-424.5333333333333,-320.0
1778,46.93333333333333,-445.8666666666667,-275.2
1779,46.93333333333333,-409.6,-294.4
1780,59.733333333333334,-409.6,-294.4
1781,46.93333333333333,-403.2,-288.0
1782,53.333333333333336,-401.06666666666666,-279.46666666666664
1783,57.6,-398.93333333333334,-279.46666666666664
1784,59.733333333333334,-390.4,-277.3333333333333
1785,59.733333333333334,-392.5333333333333,-275.2
1786,68.26666666666667,-390.4,-277.3333333333333
1787,57.6,-396.8,-266.6666666666667
1788,57.6,-392.5333333333333,-292.26666666666665
1789,46.93333333333333,-394.6666666666667,-234.66666666666666
1790,59.733333333333334,-398.93333333333334,-275.2
1791,53.333333333333336,-398.93333333333334,-277.3333333333333
1792,51.2,-396.8,-285.8666666666667
1793,53.333333333333336,-398.93333333333334,-273.06666666666666
1794,51.2,-396.8,-285.8666666666667
1795,53.333333333333336,-396.8,-277.3333333333333
1796,53.333333333333336,-403.2,-283.73333333333335
1797,61.86666666666667,-398.93333333333334,-285.8666666666667
1798,57.6,-407.46666666666664,-288.0
1799,59.733333333333334,-407.46666666666664,-277.3333333333333
1800,66.13333333333333,-405.3333333333333,-313.6
1801,64.0,-407.46666666666664,-294.4
1802,72.53333333333333,-407.46666666666664,-302.93333333333334
1803,68.26666666666667,-409.6,-302.93333333333334
1804,68.26666666666667,-409.6,-302.93333333333334
1805,72.53333333333333,-411.73333333333335,-300.8
1806,70.4,-420.26666666666665,-296.5333333333333
1807,61.86666666666667,-420.26666666666665,-307.2
1808,57.6,-426.6666666666667,-302.93333333333334
1809,68.26666666666667,-428.8,-307.2
1810,68.26666666666667,-424.5333333333333,-302.93333333333334
1811,87.46666666666667,-407.46666666666664,-328.5333333333333
1812,76.8,-420.26666666666665,-305.06666666666666
1813,68.26666666666667,-413.8666666666667,-309.3333333333333
1814,78.93333333333334,-409.6,-311.46666666666664
1815,76.8,-411.73333333333335,-311.46666666666664
1816,76.8,-407.46666666666664,-317.8666666666667
1817,85.33333333333333,-407.46666666666664,-313.6
1818,87.46666666666667,-407.46666666666664,-317.8666666666667
1819,87.46666666666667,-409.6,-311.46666666666664
1820,102.4,-407.46666666666664,-305.06666666666666
1821,98.13333333333333,-405.3333333333333,-305.06666666666666
1822,119.46666666666667,-375.46666666666664,-322.1333333333333
1823,104.53333333333333,-407.46666666666664,-298.6666666666667
1824,106.66666666666667,-409.6,-300.8
1825,104.53333333333333,-409.6,-300.8
1826,113.06666666666666,-413.8666666666667,-302.93333333333334
1827,110.93333333333334,-413.8666666666667,-298.6666666666667
1828,106.66666666666667,-416.0,-298.6666666666667
1829,115.2,-413.8666666666667,-300.8
1830,115.2,-413.8666666666667,-302.93333333333334
1831,106.66666666666667,-409.6,-305.06666666666666
1832,108.8,-405.3333333333333,-300.8
1833,108.8,-405.3333333333333,-292.26666666666665
1834,108.8,-409.6,-311.46666666666664
1835,108.8,-407.46666666666664,-300.8
1836,106.66666666666667,-403.2,-302.93333333333334
1837,104.53333333333333,-401.06666666666666,-300.8
1838,110.93333333333334,-403.2,-300.8
1839,100.26666666666667,-405.3333333333333,-300.8
1840,93.86666666666666,-409.6,-283.73333333333335
1841,89.6,-409.6,-285.8666666666667
1842,87.46666666666667,-411.73333333333335,-285.8666666666667
1843,83.2,-413.8666666666667,-279.46666666666664
1844,68.26666666666667,-439.46666666666664,-260.26666666666665
1845,89.6,-418.1333333333333,-279.46666666666664
1846,96.0,-416.0,-281.6
1847,96.0,-420.26666666666665,-275.2
1848,93.86666666666666,-411.73333333333335,-273.06666666666666
1849,102.4,-411.73333333333335,-277.3333333333333
1850,98.13333333333333,-413.8666666666667,-277.3333333333333
1851,104.53333333333333,-407.46666666666664,-275.2
1852,108.8,-407.46666666666664,-279.46666666666664
1853,104.53333333333333,-405.3333333333333,-273.06666666666666
1854,102.4,-405.3333333333333,-266.6666666666667
1855,104.53333333333333,-392.5333333333333,-294.4
1856,102.4,-394.6666666666667,-268.8
1857,104.53333333333333,-398.93333333333334,-270.93333333333334
1858,100.26666666666667,-401.06666666666666,-264.5333333333333
1859,98.13333333333333,-398.93333333333334,-270.93333333333334
1860,104.53333333333333,-409.6,-266.6666666666667
1861,100.26666666666667,-411.73333333333335,-266.6666666666667
1862,102.4,-413.8666666666667,-273.06666666666666
1863,104.53333333333333,-413.8666666666667,-270.93333333333334
1864,98.13333333333333,-430.93333333333334,-266.6666666666667
1865,102.4,-433.06666666666666,-264.5333333333333
1866,91.73333333333333,-435.2,-266.6666666666667
1867,87.46666666666667,-428.8,-277.3333333333333
1868,83.2,-439.46666666666664,-277.3333333333333
1869,78.93333333333334,-435.2,-277.3333333333333
1870,81.06666666666666,-433.06666666666666,-279.46666666666664
1871,87.46666666666667,-430.93333333333334,-277.3333333333333
1872,85.33333333333333,-439.46666666666664,-277.3333333333333
1873,83.2,-437.3333333333333,-281.6
1874,87.46666666666667,-439.46666666666664,-288.0
1875,96.0,-448.0,-285.8666666666667
1876,85.33333333333333,-458.6666666666667,-279.46666666666664
1877,100.26666666666667,-454.4,-288.0
1878,102.4,-465.06666666666666,-281.6
1879,102.4,-465.06666666666666,-294.4
1880,102.4,-462.93333333333334,-290.1333333333333
1881,110.93333333333334,-477.8666666666667,-294.4
1882,104.53333333333333,-460.8,-294.4
1883,117.33333333333333,-473.59999999999997,-296.5333333333333
1884,113.06666666666666,-477.8666666666667,-300.8
1885,110.93333333333334,-480.0,-292.26666666666665
1886,115.2,-477.8666666666667,-296.5333333333333
1887,96.0,-494.93333333333334,-283.73333333333335
1888,108.8,-486.4,-317.8666666666667
1889,113.06666666666666,-480.0,-313.6
1890,106.66666666666667,-480.0,-315.73333333333335
1891,121.6,-471.46666666666664,-337.06666666666666
1892,132.26666666666665,-462.93333333333334,-352.0
1893,136.53333333333333,-467.2,-366.93333333333334
1894,147.2,-471.46666666666664,-369.06666666666666
1895,153.6,-486.4,-371.2
1896,155.73333333333332,-503.46666666666664,-381.8666666666667
1897,166.4,-524.8,-375.46666666666664
1898,142.93333333333334,-531.2,-381.8666666666667
1899,136.53333333333333,-569.6,-375.46666666666664
1900,136.53333333333333,-603.7333333333333,-364.8
1901,132.26666666666665,-616.5333333333333,-377.6
1902,117.33333333333333,-620.8,-392.5333333333333
1903,104.53333333333333,-618.6666666666666,-403.2
1904,93.86666666666666,-614.4,-424.5333333333333
1905,85.33333333333333,-608.0,-430.93333333333334
1906,64.0,-586.6666666666666,-454.4
1907,70.4,-573.8666666666667,-473.59999999999997
1908,66.13333333333333,-561.0666666666666,-501.3333333333333
1909,53.333333333333336,-550.4,-505.59999999999997
1910,81.06666666666666,-550.4,-512.0
1911,87.46666666666667,-546.1333333333333,-499.2
1912,89.6,-554.6666666666666,-488.5333333333333
1913,89.6,-554.6666666666666,-488.5333333333333
1914,89.6,-556.8,-482.1333333333333
1915,83.2,-554.6666666666666,-458.6666666666667
1916,85.33333333333333,-537.6,-448.0
1917,66.13333333333333,-548.2666666666667,-435.2
1918,70.4,-544.0,-420.26666666666665
1919,64.0,-520.5333333333333,-441.59999999999997
1920,91.73333333333333,-486.4,-401.06666666666666
1921,59.733333333333334,-484.26666666666665,-411.73333333333335
1922,55.46666666666667,-467.2,-405.3333333333333
1923,46.93333333333333,-443.73333333333335,-409.6
1924,38.4,-424.5333333333333,-403.2
1925,29.866666666666667,-411.73333333333335,-398.93333333333334
1926,21.333333333333332,-405.3333333333333,-403.2
1927,12.8,-388.26666666666665,-403.2
1928,6.4,-379.73333333333335,-405.3333333333333
1929,8.533333333333333,-377.6,-390.4
1930,-2.1333333333333333,-379.73333333333335,-388.26666666666665
1931,-10.666666666666666,-354.1333333333333,-413.8666666666667
1932,-19.2,-390.4,-386.1333333333333
1933,-25.6,-396.8,-388.26666666666665
1934,-21.333333333333332,-407.46666666666664,-379.73333333333335
1935,-29.866666666666667,-413.8666666666667,-381.8666666666667
1936,-34.13333333333333,-416.0,-384.0
1937,-38.4,-411.73333333333335,-384.0
1938,-36.266666666666666,-413.8666666666667,-381.8666666666667
1939,-32.0,-416.0,-384.0
1940,-34.13333333333333,-422.4,-392.5333333333333
1941,-34.13333333333333,-433.06666666666666,-360.5333333333333
1942,-32.0,-422.4,-388.26666666666665
1943,-32.0,-416.0,-405.3333333333333
1944,-25.6,-418.1333333333333,-403.2
1945,-23.466666666666665,-416.0,-401.06666666666666
1946,-14.933333333333334,-424.5333333333333,-398.93333333333334
1947,-10.666666666666666,-418.1333333333333,-394.6666666666667
1948,-12.8,-433.06666666666666,-401.06666666666666
1949,-14.933333333333334,-420.26666666666665,-398.93333333333334
1950,-10.666666666666666,-422.4,-384.0
1951,-19.2,-413.8666666666667,-390.4
1952,-19.2,-430.93333333333334,-386.1333333333333
1953,-23.466666666666665,-413.8666666666667,-386.1333333333333
1954,-34.13333333333333,-413.8666666666667,-381.8666666666667
1955,-42.666666666666664,-411.73333333333335,-371.2
1956,-46.93333333333333,-411.73333333333335,-366.93333333333334
1957,-59.733333333333334,-413.8666666666667,-364.8
1958,-70.4,-413.8666666666667,-366.93333333333334
1959,-57.6,-420.26666666666665,-362.6666666666667
1960,-74.66666666666667,-422.4,-345.6
1961,-74.66666666666667,-413.8666666666667,-343.46666666666664
1962,-76.8,-422.4,-330.6666666666667
1963,-64.0,-407.46666666666664,-349.8666666666667
1964,-66.13333333333333,-428.8,-315.73333333333335
1965,-61.86666666666667,-428.8,-315.73333333333335
1966,-55.46666666666667,-428.8,-305.06666666666666
1967,-57.6,-420.26666666666665,-300.8
1968,-40.53333333333333,-420.26666666666665,-298.6666666666667
1969,-51.2,-420.26666666666665,-300.8
1970,-49.06666666666666,-422.4,-294.4
1971,-36.266666666666666,-411.73333333333335,-292.26666666666665
1972,-36.266666666666666,-411.73333333333335,-288.0
1973,-51.2,-422.4,-281.6
1974,-34.13333333333333,-413.8666666666667,-268.8
1975,-32.0,-411.73333333333335,-283.73333333333335
1976,-25.6,-416.0,-283.73333333333335
1977,-27.733333333333334,-418.1333333333333,-273.06666666666666
1978,-25.6,-422.4,-273.06666666666666
1979,-23.466666666666665,-426.6666666666667,-277.3333333333333
1980,-25.6,-428.8,-277.3333333333333
1981,-27.733333333333334,-428.8,-275.2
1982,-25.6,-435.2,-294.4
1983,-32.0,-441.59999999999997,-285.8666666666667
1984,-32.0,-443.73333333333335,-279.46666666666664
1985,-29.866666666666667,-454.4,-294.4
1986,-42.666666666666664,-445.8666666666667,-296.5333333333333
1987,-40.53333333333333,-452.26666666666665,-300.8
1988,-34.13333333333333,-460.8,-300.8
1989,-42.666666666666664,-458.6666666666667,-302.93333333333334
1990,-38.4,-462.93333333333334,-296.5333333333333
1991,-40.53333333333333,-467.2,-311.46666666666664
1992,-46.93333333333333,-469.3333333333333,-309.3333333333333
1993,-51.2,-467.2,-305.06666666666666
1994,-57.6,-465.06666666666666,-309.3333333333333
1995,-46.93333333333333,-467.2,-302.93333333333334
1996,-59.733333333333334,-443.73333333333335,-328.5333333333333
1997,-57.6,-462.93333333333334,-315.73333333333335
1998,-66.13333333333333,-454.4,-328.5333333333333
1999,-64.0,-452.26666666666665,-311.46666666666664
2000,-72.53333333333333,-435.2,-322.1333333333333
2001,-68.26666666666667,-430.93333333333334,-313.6
2002,-64.0,-433.06666666666666,-315.73333333333335
2003,-68.26666666666667,-424.5333333333333,-305.06666666666666
2004,-70.4,-420.26666666666665,-298.6666666666667
2005,-78.93333333333334,-407.46666666666664,-292.26666666666665
2006,-78.93333333333334,-407.46666666666664,-290.1333333333333
2007,-102.4,-418.1333333333333,-281.6
2008,-83.2,-409.6,-283.73333333333335
2009,-85.33333333333333,-407.46666666666664,-273.06666666666666
2010,-89.6,-405.3333333333333,-273.06666666666666
2011,-91.73333333333333,-403.2,-270.93333333333334
2012,-96.0,-392.5333333333333,-270.93333333333334
2013,-98.13333333333333,-396.8,-266.6666666666667
2014,-98.13333333333333,-394.6666666666667,-273.06666666666666
2015,-98.13333333333333,-384.0,-270.93333333333334
2016,-102.4,-373.3333333333333,-270.93333333333334
2017,-104.53333333333333,-379.73333333333335,-253.86666666666667
2018,-119.46666666666667,-360.5333333333333,-285.8666666666667
2019,-106.66666666666667,-377.6,-266.6666666666667
2020,-106.66666666666667,-369.06666666666666,-275.2
2021,-106.66666666666667,-375.46666666666664,-270.93333333333334
2022,-98.13333333333333,-386.1333333333333,-268.8
2023,-98.13333333333333,-392.5333333333333,-270.93333333333334
2024,-100.26666666666667,-394.6666666666667,-275.2
2025,-104.53333333333333,-405.3333333333333,-288.0
2026,-100.26666666666667,-405.3333333333333,-290.1333333333333
2027,-104.53333333333333,-409.6,-294.4
2028,-104.53333333333333,-413.8666666666667,-300.8
2029,-96.0,-433.06666666666666,-330.6666666666667
2030,-108.8,-426.6666666666667,-322.1333333333333
2031,-115.2,-420.26666666666665,-326.4
2032,-115.2,-420.26666666666665,-330.6666666666667
2033,-113.06666666666666,-428.8,-326.4
2034,-119.46666666666667,-418.1333333333333,-330.6666666666667
2035,-117.33333333333333,-416.0,-332.8
2036,-128.0,-424.5333333333333,-339.2
2037,-125.86666666666666,-418.1333333333333,-334.93333333333334
2038,-134.4,-422.4,-328.5333333333333
2039,-145.06666666666666,-426.6666666666667,-330.6666666666667
2040,-142.93333333333334,-420.26666666666665,-332.8
2041,-140.8,-426.6666666666667,-326.4
2042,-147.2,-426.6666666666667,-317.8666666666667
2043,-147.2,-420.26666666666665,-313.6
2044,-145.06666666666666,-424.5333333333333,-320.0
2045,-142.93333333333334,-420.26666666666665,-315.73333333333335
2046,-136.53333333333333,-409.6,-307.2
2047,-140.8,-411.73333333333335,-300.8
2048,-130.13333333333333,-411.73333333333335,-298.6666666666667
2049,-134.4,-411.73333333333335,-300.8
2050,-125.86666666666666,-411.73333333333335,-266.6666666666667
2051,-136.53333333333333,-411.73333333333335,-294.4
2052,-130.13333333333333,-418.1333333333333,-288.0
2053,-121.6,-424.5333333333333,-281.6
2054,-128.0,-416.0,-290.1333333333333
2055,-119.46666666666667,-422.4,-292.26666666666665
2056,-123.73333333333333,-422.4,-288.0
2057,-119.46666666666667,-422.4,-277.3333333333333
2058,-123.73333333333333,-422.4,-279.46666666666664
2059,-121.6,-424.5333333333333,-285.8666666666667
2060,-119.46666666666667,-422.4,-277.3333333333333
2061,-106.66666666666667,-398.93333333333334,-294.4
2062,-117.33333333333333,-418.1333333333333,-285.8666666666667
2063,-121.6,-418.1333333333333,-294.4
2064,-117.33333333333333,-420.26666666666665,-281.6
2065,-117.33333333333333,-422.4,-288.0
2066,-108.8,-420.26666666666665,-290.1333333333333
2067,-119.46666666666667,-437.3333333333333,-294.4
2068,-115.2,-430.93333333333334,-285.8666666666667
2069,-110.93333333333334,-435.2,-305.06666666666666
2070,-110.93333333333334,-430.93333333333334,-309.3333333333333
2071,-113.06666666666666,-441.59999999999997,-315.73333333333335
2072,-128.0,-435.2,-305.06666666666666
2073,-108.8,-424.5333333333333,-339.2
2074,-110.93333333333334,-424.5333333333333,-332.8
2075,-119.46666666666667,-426.6666666666667,-356.26666666666665
2076,-132.26666666666665,-430.93333333333334,-362.6666666666667
2077,-134.4,-430.93333333333334,-366.93333333333334
2078,-142.93333333333334,-443.73333333333335,-371.2
2079,-142.93333333333334,-454.4,-381.8666666666667
2080,-132.26666666666665,-480.0,-377.6
2081,-123.73333333333333,-492.8,-377.6
2082,-110.93333333333334,-503.46666666666664,-369.06666666666666
2083,-83.2,-516.2666666666667,-377.6
2084,-85.33333333333333,-535.4666666666667,-375.46666666666664
2085,-74.66666666666667,-539.7333333333333,-392.5333333333333
2086,-68.26666666666667,-544.0,-394.6666666666667
2087,-68.26666666666667,-550.4,-398.93333333333334
2088,-70.4,-552.5333333333333,-416.0
2089,-81.06666666666666,-550.4,-416.0
2090,-85.33333333333333,-546.1333333333333,-422.4
2091,-91.73333333333333,-533.3333333333334,-426.6666666666667
2092,-100.26666666666667,-526.9333333333333,-441.59999999999997
2093,-115.2,-518.4,-452.26666666666665
2094,-125.86666666666666,-503.46666666666664,-456.5333333333333
2095,-125.86666666666666,-494.93333333333334,-465.06666666666666
2096,-132.26666666666665,-494.93333333333334,-462.93333333333334
2097,-140.8,-488.5333333333333,-467.2
2098,-147.2,-482.1333333333333,-471.46666666666664
2099,-149.33333333333334,-475.73333333333335,-477.8666666666667
2100,-155.73333333333332,-473.59999999999997,-482.1333333333333
2101,-142.93333333333334,-475.73333333333335,-488.5333333333333
2102,-147.2,-475.73333333333335,-486.4
2103,-145.06666666666666,-473.59999999999997,-480.0
2104,-149.33333333333334,-486.4,-469.3333333333333
2105,-110.93333333333334,-462.93333333333334,-509.8666666666667
2106,-87.46666666666667,-486.4,-460.8
2107,-87.46666666666667,-482.1333333333333,-458.6666666666667
2108,-64.0,-475.73333333333335,-458.6666666666667
2109,-51.2,-465.06666666666666,-458.6666666666667
2110,-34.13333333333333,-452.26666666666665,-460.8
2111,-23.466666666666665,-445.8666666666667,-458.6666666666667
2112,-12.8,-433.06666666666666,-460.8
2113,0.0,-420.26666666666665,-462.93333333333334
2114,19.2,-416.0,-458.6666666666667
2115,23.466666666666665,-413.8666666666667,-465.06666666666666
2116,34.13333333333333,-401.06666666666666,-486.4
2117,34.13333333333333,-403.2,-469.3333333333333
2118,44.8,-407.46666666666664,-467.2
2119,46.93333333333333,-403.2,-465.06666666666666
2120,61.86666666666667,-405.3333333333333,-460.8
2121,61.86666666666667,-409.6,-462.93333333333334
2122,59.733333333333334,-401.06666666666666,-456.5333333333333
2123,66.13333333333333,-405.3333333333333,-450.1333333333333
2124,68.26666666666667,-413.8666666666667,-435.2
2125,68.26666666666667,-420.26666666666665,-435.2
2126,70.4,-416.0,-428.8
2127,81.06666666666666,-401.06666666666666,-441.59999999999997
2128,66.13333333333333,-426.6666666666667,-424.5333333333333
2129,64.0,-424.5333333333333,-426.6666666666667
2130,61.86666666666667,-426.6666666666667,-411.73333333333335
2131,61.86666666666667,-430.93333333333334,-411.73333333333335
2132,57.6,-426.6666666666667,-413.8666666666667
2133,57.6,-428.8,-403.2
2134,51.2,-418.1333333333333,-411.73333333333335
2135,59.733333333333334,-418.1333333333333,-413.8666666666667
2136,55.46666666666667,-413.8666666666667,-416.0
2137,57.6,-424.5333333333333,-403.2
2138,49.06666666666666,-409.6,-418.1333333333333
2139,42.666666666666664,-407.46666666666664,-418.1333333333333
2140,42.666666666666664,-407.46666666666664,-416.0
2141,40.53333333333333,-411.73333333333335,-409.6
2142,46.93333333333333,-422.4,-416.0
2143,38.4,-424.5333333333333,-403.2
2144,44.8,-435.2,-409.6
2145,40.53333333333333,-433.06666666666666,-403.2
2146,46.93333333333333,-437.3333333333333,-398.93333333333334
2147,53.333333333333336,-437.3333333333333,-405.3333333333333
2148,53.333333333333336,-439.46666666666664,-420.26666666666665
2149,53.333333333333336,-439.46666666666664,-396.8
2150,49.06666666666666,-443.73333333333335,-392.5333333333333
2151,57.6,-441.59999999999997,-394.6666666666667
2152,59.733333333333334,-441.59999999999997,-392.5333333333333
2153,61.86666666666667,-441.59999999999997,-386.1333333333333
2154,70.4,-445.8666666666667,-371.2
2155,66.13333333333333,-433.06666666666666,-375.46666666666664
2156,61.86666666666667,-430.93333333333334,-369.06666666666666
2157,68.26666666666667,-439.46666666666664,-360.5333333333333
2158,78.93333333333334,-424.5333333333333,-352.0
2159,70.4,-418.1333333333333,-366.93333333333334
2160,66.13333333333333,-437.3333333333333,-354.1333333333333
2161,83.2,-405.3333333333333,-356.26666666666665
2162,57.6,-403.2,-366.93333333333334
2163,102.4,-398.93333333333334,-373.3333333333333
2164,83.2,-409.6,-356.26666666666665
2165,78.93333333333334,-401.06666666666666,-309.3333333333333
2166,72.53333333333333,-388.26666666666665,-349.8666666666667
2167,72.53333333333333,-396.8,-366.93333333333334
2168,68.26666666666667,-364.8,-375.46666666666664
2169,81.06666666666666,-377.6,-324.26666666666665
2170,81.06666666666666,-386.1333333333333,-358.4
2171,70.4,-373.3333333333333,-354.1333333333333
2172,78.93333333333334,-377.6,-332.8
2173,72.53333333333333,-366.93333333333334,-356.26666666666665
2174,64.0,-390.4,-328.5333333333333
2175,123.73333333333333,-381.8666666666667,-362.6666666666667
2176,61.86666666666667,-381.8666666666667,-332.8
2177,72.53333333333333,-384.0,-337.06666666666666
2178,72.53333333333333,-384.0,-330.6666666666667
2179,81.06666666666666,-388.26666666666665,-322.1333333333333
2180,76.8,-377.6,-311.46666666666664
2181,87.46666666666667,-377.6,-322.1333333333333
2182,89.6,-369.06666666666666,-317.8666666666667
2183,89.6,-362.6666666666667,-311.46666666666664
2184,93.86666666666666,-360.5333333333333,-315.73333333333335
2185,100.26666666666667,-362.6666666666667,-324.26666666666665
2186,87.46666666666667,-343.46666666666664,-313.6
2187,87.46666666666667,-347.73333333333335,-320.0
2188,85.33333333333333,-352.0,-322.1333333333333
2189,85.33333333333333,-356.26666666666665,-317.8666666666667
2190,89.6,-349.8666666666667,-313.6
2191,91.73333333333333,-352.0,-320.0
2192,87.46666666666667,-358.4,-317.8666666666667
2193,87.46666666666667,-371.2,-311.46666666666664
2194,83.2,-369.06666666666666,-317.8666666666667
2195,89.6,-371.2,-311.46666666666664
2196,85.33333333333333,-362.6666666666667,-305.06666666666666
2197,91.73333333333333,-371.2,-309.3333333333333
2198,93.86666666666666,-366.93333333333334,-313.6
2199,91.73333333333333,-373.3333333333333,-300.8
2200,91.73333333333333,-369.06666666666666,-320.0
2201,89.6,-371.2,-313.6
2202,91.73333333333333,-366.93333333333334,-320.0
2203,98.13333333333333,-371.2,-356.26666666666665
2204,83.2,-369.06666666666666,-322.1333333333333
2205,72.53333333333333,-375.46666666666664,-328.5333333333333
2206,78.93333333333334,-381.8666666666667,-317.8666666666667
2207,64.0,-381.8666666666667,-326.4
2208,68.26666666666667,-384.0,-317.8666666666667
2209,66.13333333333333,-377.6,-313.6
2210,64.0,-384.0,-320.0
2211,61.86666666666667,-381.8666666666667,-317.8666666666667
2212,57.6,-388.26666666666665,-322.1333333333333
2213,55.46666666666667,-386.1333333333333,-315.73333333333335
2214,55.46666666666667,-373.3333333333333,-345.6
2215,59.733333333333334,-381.8666666666667,-317.8666666666667
2216,64.0,-390.4,-317.8666666666667
2217,59.733333333333334,-381.8666666666667,-311.46666666666664
2218,76.8,-386.1333333333333,-320.0
2219,68.26666666666667,-384.0,-322.1333333333333
2220,72.53333333333333,-388.26666666666665,-332.8
2221,74.66666666666667,-386.1333333333333,-326.4
2222,76.8,-388.26666666666665,-324.26666666666665
2223,85.33333333333333,-388.26666666666665,-326.4
2224,83.2,-392.5333333333333,-326.4
2225,96.0,-396.8,-290.1333333333333
2226,96.0,-386.1333333333333,-330.6666666666667
2227,98.13333333333333,-384.0,-328.5333333333333
2228,96.0,-375.46666666666664,-330.6666666666667
2229,98.13333333333333,-373.3333333333333,-328.5333333333333
2230,100.26666666666667,-377.6,-332.8
2231,93.86666666666666,-369.06666666666666,-328.5333333333333
2232,98.13333333333333,-375.46666666666664,-324.26666666666665
2233,102.4,-379.73333333333335,-330.6666666666667
2234,104.53333333333333,-379.73333333333335,-330.6666666666667
2235,102.4,-392.5333333333333,-328.5333333333333
2236,110.93333333333334,-411.73333333333335,-285.8666666666667
2237,104.53333333333333,-403.2,-334.93333333333334
2238,110.93333333333334,-409.6,-330.6666666666667
2239,115.2,-409.6,-337.06666666666666
2240,115.2,-411.73333333333335,-332.8
2241,119.46666666666667,-413.8666666666667,-339.2
2242,113.06666666666666,-411.73333333333335,-339.2
2243,123.73333333333333,-411.73333333333335,-345.6
2244,132.26666666666665,-416.0,-341.3333333333333
2245,125.86666666666666,-407.46666666666664,-352.0
2246,125.86666666666666,-407.46666666666664,-337.06666666666666
2247,123.73333333333333,-405.3333333333333,-349.8666666666667
2248,119.46666666666667,-407.46666666666664,-347.73333333333335
2249,115.2,-411.73333333333335,-354.1333333333333
2250,117.33333333333333,-418.1333333333333,-352.0
2251,106.66666666666667,-418.1333333333333,-343.46666666666664
2252,106.66666666666667,-411.73333333333335,-343.46666666666664
2253,102.4,-422.4,-343.46666666666664
2254,100.26666666666667,-422.4,-334.93333333333334
2255,104.53333333333333,-413.8666666666667,-334.93333333333334
2256,91.73333333333333,-418.1333333333333,-343.46666666666664
2257,87.46666666666667,-409.6,-354.1333333333333
2258,98.13333333333333,-409.6,-334.93333333333334
2259,91.73333333333333,-411.73333333333335,-337.06666666666666
2260,93.86666666666666,-403.2,-326.4
2261,110.93333333333334,-328.5333333333333,-343.46666666666664
2262,83.2,-433.06666666666666,-334.93333333333334
2263,70.4,-443.73333333333335,-309.3333333333333
2264,74.66666666666667,-420.26666666666665,-315.73333333333335
2265,87.46666666666667,-403.2,-317.8666666666667
2266,85.33333333333333,-413.8666666666667,-315.73333333333335
2267,87.46666666666667,-411.73333333333335,-313.6
2268,93.86666666666666,-401.06666666666666,-324.26666666666665
2269,89.6,-405.3333333333333,-320.0
2270,91.73333333333333,-409.6,-317.8666666666667
2271,93.86666666666666,-413.8666666666667,-322.1333333333333
2272,89.6,-409.6,-326.4
2273,96.0,-407.46666666666664,-328.5333333333333
2274,98.13333333333333,-407.46666666666664,-343.46666666666664
2275,110.93333333333334,-396.8,-347.73333333333335
2276,102.4,-401.06666666666666,-358.4
2277,121.6,-401.06666666666666,-349.8666666666667
2278,117.33333333333333,-407.46666666666664,-364.8
2279,110.93333333333334,-424.5333333333333,-311.46666666666664
2280,132.26666666666665,-409.6,-373.3333333333333
2281,145.06666666666666,-420.26666666666665,-373.3333333333333
2282,138.66666666666666,-424.5333333333333,-386.1333333333333
2283,138.66666666666666,-433.06666666666666,-384.0
2284,130.13333333333333,-443.73333333333335,-398.93333333333334
2285,121.6,-462.93333333333334,-403.2
2286,108.8,-477.8666666666667,-405.3333333333333
2287,102.4,-480.0,-422.4
2288,89.6,-490.6666666666667,-433.06666666666666
2289,96.0,-486.4,-433.06666666666666
2290,76.8,-471.46666666666664,-445.8666666666667
2291,78.93333333333334,-469.3333333333333,-454.4
2292,72.53333333333333,-462.93333333333334,-454.4
2293,74.66666666666667,-467.2,-462.93333333333334
2294,81.06666666666666,-469.3333333333333,-460.8
2295,85.33333333333333,-482.1333333333333,-465.06666666666666
2296,76.8,-482.1333333333333,-460.8
2297,76.8,-482.1333333333333,-467.2
2298,68.26666666666667,-484.26666666666665,-462.93333333333334
2299,53.333333333333336,-469.3333333333333,-473.59999999999997
2300,42.666666666666664,-469.3333333333333,-471.46666666666664
2301,27.733333333333334,-471.46666666666664,-448.0
2302,34.13333333333333,-448.0,-471.46666666666664
2303,29.866666666666667,-448.0,-475.73333333333335
2304,36.266666666666666,-439.46666666666664,-462.93333333333334
2305,40.53333333333333,-435.2,-462.93333333333334
2306,44.8,-424.5333333333333,-469.3333333333333
2307,53.333333333333336,-428.8,-475.73333333333335
2308,55.46666666666667,-411.73333333333335,-473.59999999999997
2309,66.13333333333333,-409.6,-467.2
2310,59.733333333333334,-413.8666666666667,-456.5333333333333
2311,66.13333333333333,-416.0,-475.73333333333335
2312,57.6,-409.6,-473.59999999999997
2313,19.2,-416.0,-460.8
2314,32.0,-439.46666666666664,-462.93333333333334
2315,29.866666666666667,-422.4,-492.8
2316,8.533333333333333,-420.26666666666665,-488.5333333333333
2317,-6.4,-424.5333333333333,-492.8
2318,-25.6,-426.6666666666667,-482.1333333333333
2319,-34.13333333333333,-428.8,-484.26666666666665
2320,-38.4,-433.06666666666666,-499.2
2321,-49.06666666666666,-428.8,-490.6666666666667
2322,-51.2,-422.4,-503.46666666666664
2323,-68.26666666666667,-422.4,-480.0
2324,-66.13333333333333,-420.26666666666665,-492.8
2325,-64.0,-416.0,-490.6666666666667
2326,-68.26666666666667,-416.0,-488.5333333333333
2327,-70.4,-411.73333333333335,-494.93333333333334
2328,-72.53333333333333,-407.46666666666664,-484.26666666666665
2329,-70.4,-407.46666666666664,-484.26666666666665
2330,-72.53333333333333,-405.3333333333333,-475.73333333333335
2331,-76.8,-403.2,-465.06666666666666
2332,-53.333333333333336,-405.3333333333333,-465.06666666666666
2333,-46.93333333333333,-394.6666666666667,-454.4
2334,-49.06666666666666,-401.06666666666666,-482.1333333333333
2335,-34.13333333333333,-394.6666666666667,-450.1333333333333
2336,-32.0,-394.6666666666667,-443.73333333333335
2337,-32.0,-388.26666666666665,-443.73333333333335
2338,-25.6,-394.6666666666667,-437.3333333333333
2339,-12.8,-392.5333333333333,-441.59999999999997
2340,-17.066666666666666,-384.0,-435.2
2341,-17.066666666666666,-390.4,-430.93333333333334
2342,-19.2,-386.1333333333333,-439.46666666666664
2343,-4.266666666666667,-388.26666666666665,-424.5333333333333
2344,-4.266666666666667,-398.93333333333334,-424.5333333333333
2345,-2.1333333333333333,-386.1333333333333,-430.93333333333334
2346,-4.266666666666667,-386.1333333333333,-422.4
2347,-4.266666666666667,-386.1333333333333,-424.5333333333333
2348,-2.1333333333333333,-384.0,-420.26666666666665
2349,-8.533333333333333,-379.73333333333335,-422.4
2350,-14.933333333333334,-377.6,-420.26666666666665
2351,-12.8,-381.8666666666667,-418.1333333333333
2352,-19.2,-377.6,-416.0
2353,-27.733333333333334,-375.46666666666664,-416.0
2354,-21.333333333333332,-375.46666666666664,-416.0
2355,-10.666666666666666,-388.26666666666665,-407.46666666666664
2356,-32.0,-388.26666666666665,-405.3333333333333
2357,-32.0,-394.6666666666667,-403.2
2358,-34.13333333333333,-398.93333333333334,-394.6666666666667
2359,-42.666666666666664,-396.8,-386.1333333333333
2360,-51.2,-407.46666666666664,-369.06666666666666
2361,-44.8,-405.3333333333333,-375.46666666666664
2362,-53.333333333333336,-413.8666666666667,-369.06666666666666
2363,-46.93333333333333,-403.2,-369.06666666666666
2364,-64.0,-409.6,-373.3333333333333
2365,-61.86666666666667,-409.6,-369.06666666666666
2366,-83.2,-411.73333333333335,-352.0
2367,-70.4,-398.93333333333334,-352.0
2368,-66.13333333333333,-398.93333333333334,-354.1333333333333
2369,-68.26666666666667,-405.3333333333333,-354.1333333333333
2370,-61.86666666666667,-401.06666666666666,-352.0
2371,-55.46666666666667,-401.06666666666666,-354.1333333333333
2372,-44.8,-403.2,-358.4
2373,-46.93333333333333,-396.8,-354.1333333333333
2374,-36.266666666666666,-396.8,-364.8
2375,-32.0,-409.6,-352.0
2376,-23.466666666666665,-405.3333333333333,-345.6
2377,-21.333333333333332,-422.4,-343.46666666666664
2378,-19.2,-416.0,-343.46666666666664
2379,-14.933333333333334,-418.1333333333333,-349.8666666666667
2380,-10.666666666666666,-420.26666666666665,-337.06666666666666
2381,-8.533333333333333,-420.26666666666665,-343.46666666666664
2382,0.0,-420.26666666666665,-339.2
2383,-2.1333333333333333,-420.26666666666665,-345.6
2384,-2.1333333333333333,-420.26666666666665,-347.73333333333335
2385,-2.1333333333333333,-416.0,-349.8666666666667
2386,-4.266666666666667,-409.6,-347.73333333333335
2387,0.0,-413.8666666666667,-343.46666666666664
2388,-2.1333333333333333,-409.6,-349.8666666666667
2389,6.4,-418.1333333333333,-339.2
2390,-10.666666666666666,-413.8666666666667,-337.06666666666666
2391,-12.8,-413.8666666666667,-326.4
2392,-17.066666666666666,-413.8666666666667,-337.06666666666666
