,accelerometerAccelerationX(G),accelerometerAccelerationY(G),accelerometerAccelerationZ(G)
0,32.0,-561.0666666666666,21.333333333333332
1,25.6,-556.8,23.466666666666665
2,23.466666666666665,-554.6666666666666,32.0
3,19.2,-550.4,23.466666666666665
4,25.6,-554.6666666666666,34.13333333333333
5,25.6,-552.5333333333333,29.866666666666667
6,25.6,-552.5333333333333,29.866666666666667
7,21.333333333333332,-548.2666666666667,27.733333333333334
8,25.6,-548.2666666666667,27.733333333333334
9,25.6,-550.4,25.6
10,25.6,-548.2666666666667,27.733333333333334
11,27.733333333333334,-548.2666666666667,29.866666666666667
12,38.4,-552.5333333333333,34.13333333333333
13,38.4,-548.2666666666667,32.0
14,38.4,-550.4,27.733333333333334
15,34.13333333333333,-544.0,32.0
16,32.0,-541.8666666666667,29.866666666666667
17,36.266666666666666,-546.1333333333333,29.866666666666667
18,38.4,-537.6,29.866666666666667
19,32.0,-537.6,34.13333333333333
20,42.666666666666664,-539.7333333333333,36.266666666666666
21,40.53333333333333,-539.7333333333333,34.13333333333333
22,46.93333333333333,-537.6,29.866666666666667
23,44.8,-535.4666666666667,29.866666666666667
24,42.666666666666664,-531.2,29.866666666666667
25,51.2,-529.0666666666666,32.0
26,49.06666666666666,-526.9333333333333,32.0
27,46.93333333333333,-531.2,44.8
28,57.6,-533.3333333333334,23.466666666666665
29,51.2,-533.3333333333334,42.666666666666664
30,57.6,-529.0666666666666,32.0
31,55.46666666666667,-544.0,29.866666666666667
32,57.6,-537.6,19.2
33,59.733333333333334,-533.3333333333334,23.466666666666665
34,61.86666666666667,-535.4666666666667,32.0
35,55.46666666666667,-535.4666666666667,23.466666666666665
36,57.6,-544.0,21.333333333333332
37,57.6,-537.6,23.466666666666665
38,61.86666666666667,-541.8666666666667,19.2
39,55.46666666666667,-544.0,17.066666666666666
40,55.46666666666667,-546.1333333333333,27.733333333333334
41,55.46666666666667,-546.1333333333333,29.866666666666667
42,61.86666666666667,-546.1333333333333,23.466666666666665
43,59.733333333333334,-544.0,25.6
44,55.46666666666667,-546.1333333333333,29.866666666666667
45,51.2,-546.1333333333333,21.333333333333332
46,51.2,-550.4,25.6
47,53.333333333333336,-550.4,27.733333333333334
48,46.93333333333333,-548.2666666666667,32.0
49,44.8,-552.5333333333333,23.466666666666665
50,49.06666666666666,-550.4,23.466666666666665
51,49.06666666666666,-546.1333333333333,17.066666666666666
52,55.46666666666667,-548.2666666666667,23.466666666666665
53,49.06666666666666,-539.7333333333333,34.13333333333333
54,42.666666666666664,-546.1333333333333,19.2
55,38.4,-546.1333333333333,14.933333333333334
56,42.666666666666664,-548.2666666666667,10.666666666666666
57,40.53333333333333,-548.2666666666667,12.8
58,29.866666666666667,-550.4,10.666666666666666
59,40.53333333333333,-563.2,12.8
60,38.4,-567.4666666666667,10.666666666666666
61,38.4,-565.3333333333334,2.1333333333333333
62,42.666666666666664,-576.0,6.4
63,40.53333333333333,-580.2666666666667,2.1333333333333333
64,42.666666666666664,-586.6666666666666,2.1333333333333333
65,34.13333333333333,-578.1333333333333,-2.1333333333333333
66,40.53333333333333,-584.5333333333333,0.0
67,29.866666666666667,-584.5333333333333,-6.4
68,25.6,-573.8666666666667,-8.533333333333333
69,14.933333333333334,-567.4666666666667,-14.933333333333334
70,8.533333333333333,-561.0666666666666,-21.333333333333332
71,6.4,-548.2666666666667,-34.13333333333333
72,-10.666666666666666,-546.1333333333333,-46.93333333333333
73,-12.8,-539.7333333333333,-51.2
74,-27.733333333333334,-526.9333333333333,-59.733333333333334
75,-38.4,-522.6666666666666,-59.733333333333334
76,-53.333333333333336,-507.73333333333335,-68.26666666666667
77,-72.53333333333333,-490.6666666666667,-66.13333333333333
78,-81.06666666666666,-480.0,-59.733333333333334
79,-91.73333333333333,-462.93333333333334,-57.6
80,-104.53333333333333,-454.4,-53.333333333333336
81,-106.66666666666667,-454.4,-34.13333333333333
82,-102.4,-448.0,-14.933333333333334
83,-100.26666666666667,-452.26666666666665,2.1333333333333333
84,-102.4,-460.8,10.666666666666666
85,-102.4,-467.2,25.6
86,-85.33333333333333,-473.59999999999997,42.666666666666664
87,-68.26666666666667,-480.0,55.46666666666667
88,-51.2,-494.93333333333334,61.86666666666667
89,-25.6,-518.4,59.733333333333334
90,-6.4,-537.6,70.4
91,2.1333333333333333,-563.2,74.66666666666667
92,29.866666666666667,-593.0666666666666,85.33333333333333
93,55.46666666666667,-620.8,104.53333333333333
94,85.33333333333333,-652.8,108.8
95,117.33333333333333,-672.0,130.13333333333333
96,138.66666666666666,-682.6666666666666,134.4
97,160.0,-693.3333333333334,140.8
98,170.66666666666666,-689.0666666666666,134.4
99,177.06666666666666,-682.6666666666666,115.2
100,183.46666666666667,-672.0,102.4
101,194.13333333333333,-654.9333333333333,81.06666666666666
102,185.6,-631.4666666666667,59.733333333333334
103,189.86666666666667,-616.5333333333333,44.8
104,183.46666666666667,-595.2,44.8
105,179.2,-580.2666666666667,23.466666666666665
106,168.53333333333333,-558.9333333333333,21.333333333333332
107,168.53333333333333,-539.7333333333333,10.666666666666666
108,160.0,-531.2,12.8
109,153.6,-501.3333333333333,8.533333333333333
110,145.06666666666666,-484.26666666666665,0.0
111,145.06666666666666,-460.8,-4.266666666666667
112,140.8,-452.26666666666665,-4.266666666666667
113,123.73333333333333,-428.8,-12.8
114,119.46666666666667,-422.4,-19.2
115,93.86666666666666,-424.5333333333333,-8.533333333333333
116,76.8,-420.26666666666665,-12.8
117,66.13333333333333,-420.26666666666665,-8.533333333333333
118,49.06666666666666,-435.2,-8.533333333333333
119,32.0,-445.8666666666667,8.533333333333333
120,14.933333333333334,-450.1333333333333,6.4
121,6.4,-462.93333333333334,2.1333333333333333
122,0.0,-477.8666666666667,0.0
123,-4.266666666666667,-492.8,-4.266666666666667
124,-10.666666666666666,-499.2,-17.066666666666666
125,-6.4,-512.0,-29.866666666666667
126,-2.1333333333333333,-529.0666666666666,-40.53333333333333
127,2.1333333333333333,-550.4,-61.86666666666667
128,10.666666666666666,-578.1333333333333,-68.26666666666667
129,17.066666666666666,-584.5333333333333,-61.86666666666667
130,27.733333333333334,-601.6,-68.26666666666667
131,44.8,-605.8666666666667,-70.4
132,64.0,-612.2666666666667,-72.53333333333333
133,76.8,-608.0,-70.4
134,91.73333333333333,-601.6,-83.2
135,93.86666666666666,-595.2,-89.6
136,87.46666666666667,-576.0,-78.93333333333334
137,83.2,-565.3333333333334,-68.26666666666667
138,74.66666666666667,-561.0666666666666,-70.4
139,55.46666666666667,-546.1333333333333,-59.733333333333334
140,38.4,-537.6,-64.0
141,21.333333333333332,-529.0666666666666,-64.0
142,6.4,-518.4,-87.46666666666667
143,-6.4,-507.73333333333335,-96.0
144,-23.466666666666665,-529.0666666666666,-83.2
145,-53.333333333333336,-520.5333333333333,-117.33333333333333
146,-78.93333333333334,-535.4666666666667,-113.06666666666666
147,-87.46666666666667,-550.4,-104.53333333333333
148,-68.26666666666667,-569.6,-78.93333333333334
149,-68.26666666666667,-588.8,-55.46666666666667
150,-36.266666666666666,-614.4,-29.866666666666667
151,-14.933333333333334,-625.0666666666666,-2.1333333333333333
152,10.666666666666666,-633.6,17.066666666666666
153,32.0,-637.8666666666667,38.4
154,64.0,-650.6666666666666,36.266666666666666
155,66.13333333333333,-652.8,44.8
156,104.53333333333333,-644.2666666666667,40.53333333333333
157,123.73333333333333,-654.9333333333333,23.466666666666665
158,140.8,-648.5333333333333,12.8
159,157.86666666666667,-652.8,0.0
160,166.4,-654.9333333333333,-4.266666666666667
161,174.93333333333334,-667.7333333333333,-12.8
162,166.4,-667.7333333333333,-23.466666666666665
163,164.26666666666665,-678.4,-19.2
164,157.86666666666667,-678.4,-10.666666666666666
165,147.2,-680.5333333333333,0.0
166,138.66666666666666,-674.1333333333333,2.1333333333333333
167,132.26666666666665,-669.8666666666667,12.8
168,119.46666666666667,-661.3333333333334,23.466666666666665
169,115.2,-644.2666666666667,17.066666666666666
170,100.26666666666667,-633.6,19.2
171,85.33333333333333,-610.1333333333333,21.333333333333332
172,78.93333333333334,-603.7333333333333,27.733333333333334
173,74.66666666666667,-586.6666666666666,17.066666666666666
174,59.733333333333334,-565.3333333333334,17.066666666666666
175,57.6,-552.5333333333333,17.066666666666666
176,59.733333333333334,-552.5333333333333,19.2
177,44.8,-546.1333333333333,23.466666666666665
178,44.8,-541.8666666666667,25.6
179,42.666666666666664,-535.4666666666667,29.866666666666667
180,42.666666666666664,-533.3333333333334,10.666666666666666
181,42.666666666666664,-526.9333333333333,12.8
182,38.4,-518.4,19.2
183,49.06666666666666,-507.73333333333335,6.4
184,53.333333333333336,-505.59999999999997,6.4
185,53.333333333333336,-503.46666666666664,10.666666666666666
186,64.0,-499.2,17.066666666666666
187,64.0,-499.2,19.2
188,76.8,-503.46666666666664,19.2
189,76.8,-501.3333333333333,12.8
190,81.06666666666666,-509.8666666666667,14.933333333333334
191,87.46666666666667,-509.8666666666667,12.8
192,93.86666666666666,-509.8666666666667,12.8
193,91.73333333333333,-518.4,17.066666666666666
194,108.8,-516.2666666666667,8.533333333333333
195,104.53333333333333,-518.4,10.666666666666666
196,113.06666666666666,-518.4,8.533333333333333
197,117.33333333333333,-524.8,6.4
198,113.06666666666666,-518.4,12.8
199,117.33333333333333,-512.0,10.666666666666666
200,123.73333333333333,-514.1333333333333,10.666666666666666
201,128.0,-512.0,19.2
202,125.86666666666666,-509.8666666666667,19.2
203,125.86666666666666,-503.46666666666664,8.533333333333333
204,128.0,-503.46666666666664,6.4
205,125.86666666666666,-499.2,6.4
206,130.13333333333333,-501.3333333333333,21.333333333333332
207,128.0,-494.93333333333334,6.4
208,119.46666666666667,-494.93333333333334,14.933333333333334
209,117.33333333333333,-492.8,12.8
210,117.33333333333333,-503.46666666666664,6.4
211,115.2,-503.46666666666664,21.333333333333332
212,113.06666666666666,-507.73333333333335,29.866666666666667
213,110.93333333333334,-507.73333333333335,27.733333333333334
214,110.93333333333334,-518.4,34.13333333333333
215,110.93333333333334,-518.4,36.266666666666666
216,110.93333333333334,-526.9333333333333,32.0
217,108.8,-522.6666666666666,42.666666666666664
218,108.8,-514.1333333333333,42.666666666666664
219,104.53333333333333,-514.1333333333333,40.53333333333333
220,113.06666666666666,-520.5333333333333,40.53333333333333
221,113.06666666666666,-520.5333333333333,36.266666666666666
222,119.46666666666667,-518.4,38.4
223,128.0,-524.8,34.13333333333333
224,130.13333333333333,-518.4,46.93333333333333
225,138.66666666666666,-518.4,42.666666666666664
226,136.53333333333333,-520.5333333333333,51.2
227,138.66666666666666,-526.9333333333333,46.93333333333333
228,140.8,-522.6666666666666,53.333333333333336
229,145.06666666666666,-524.8,57.6
230,142.93333333333334,-531.2,44.8
231,138.66666666666666,-531.2,38.4
232,142.93333333333334,-533.3333333333334,38.4
233,147.2,-546.1333333333333,29.866666666666667
234,153.6,-544.0,34.13333333333333
235,155.73333333333332,-552.5333333333333,40.53333333333333
236,157.86666666666667,-558.9333333333333,32.0
237,168.53333333333333,-567.4666666666667,36.266666666666666
238,162.13333333333333,-571.7333333333333,32.0
239,162.13333333333333,-576.0,36.266666666666666
240,162.13333333333333,-578.1333333333333,29.866666666666667
241,157.86666666666667,-584.5333333333333,34.13333333333333
242,132.26666666666665,-590.9333333333333,29.866666666666667
243,151.46666666666667,-590.9333333333333,27.733333333333334
244,145.06666666666666,-590.9333333333333,14.933333333333334
245,142.93333333333334,-593.0666666666666,2.1333333333333333
246,134.4,-597.3333333333334,6.4
247,142.93333333333334,-593.0666666666666,-4.266666666666667
248,155.73333333333332,-603.7333333333333,-19.2
249,166.4,-610.1333333333333,-14.933333333333334
250,172.8,-625.0666666666666,-25.6
251,168.53333333333333,-637.8666666666667,-34.13333333333333
252,172.8,-661.3333333333334,-34.13333333333333
253,172.8,-669.8666666666667,-27.733333333333334
254,174.93333333333334,-689.0666666666666,-29.866666666666667
255,164.26666666666665,-708.2666666666667,-27.733333333333334
256,164.26666666666665,-744.5333333333333,-21.333333333333332
257,164.26666666666665,-768.0,-12.8
258,153.6,-804.2666666666667,-23.466666666666665
259,149.33333333333334,-829.8666666666667,-14.933333333333334
260,138.66666666666666,-853.3333333333334,-6.4
261,132.26666666666665,-874.6666666666666,-19.2
262,132.26666666666665,-893.8666666666667,-27.733333333333334
263,123.73333333333333,-889.6,-40.53333333333333
264,132.26666666666665,-878.9333333333333,-55.46666666666667
265,130.13333333333333,-853.3333333333334,-87.46666666666667
266,123.73333333333333,-814.9333333333333,-104.53333333333333
267,113.06666666666666,-768.0,-132.26666666666665
268,110.93333333333334,-714.6666666666666,-140.8
269,104.53333333333333,-676.2666666666667,-160.0
270,113.06666666666666,-635.7333333333333,-160.0
271,119.46666666666667,-608.0,-155.73333333333332
272,125.86666666666666,-571.7333333333333,-162.13333333333333
273,121.6,-546.1333333333333,-155.73333333333332
274,117.33333333333333,-529.0666666666666,-153.6
275,110.93333333333334,-512.0,-149.33333333333334
276,115.2,-499.2,-157.86666666666667
277,108.8,-486.4,-162.13333333333333
278,115.2,-484.26666666666665,-170.66666666666666
279,110.93333333333334,-484.26666666666665,-183.46666666666667
280,98.13333333333333,-488.5333333333333,-196.26666666666665
281,87.46666666666667,-490.6666666666667,-209.06666666666666
282,83.2,-501.3333333333333,-213.33333333333334
283,72.53333333333333,-516.2666666666667,-221.86666666666667
284,64.0,-526.9333333333333,-238.93333333333334
285,42.666666666666664,-535.4666666666667,-245.33333333333334
286,25.6,-546.1333333333333,-253.86666666666667
287,21.333333333333332,-563.2,-258.1333333333333
288,12.8,-576.0,-258.1333333333333
289,8.533333333333333,-588.8,-245.33333333333334
290,0.0,-603.7333333333333,-230.4
291,0.0,-608.0,-219.73333333333332
292,-8.533333333333333,-612.2666666666667,-213.33333333333334
293,-17.066666666666666,-610.1333333333333,-206.93333333333334
294,-12.8,-608.0,-200.53333333333333
295,-10.666666666666666,-605.8666666666667,-189.86666666666667
296,-14.933333333333334,-597.3333333333334,-172.8
297,-17.066666666666666,-595.2,-183.46666666666667
298,-10.666666666666666,-595.2,-181.33333333333334
299,-12.8,-582.4,-179.2
300,0.0,-582.4,-185.6
301,-8.533333333333333,-580.2666666666667,-183.46666666666667
302,4.266666666666667,-567.4666666666667,-189.86666666666667
303,2.1333333333333333,-567.4666666666667,-179.2
304,6.4,-565.3333333333334,-174.93333333333334
305,0.0,-563.2,-162.13333333333333
306,2.1333333333333333,-561.0666666666666,-160.0
307,0.0,-554.6666666666666,-160.0
308,-2.1333333333333333,-554.6666666666666,-160.0
309,-2.1333333333333333,-541.8666666666667,-162.13333333333333
310,-2.1333333333333333,-537.6,-168.53333333333333
311,0.0,-533.3333333333334,-172.8
312,0.0,-531.2,-170.66666666666666
313,0.0,-522.6666666666666,-187.73333333333332
314,-2.1333333333333333,-514.1333333333333,-183.46666666666667
315,0.0,-518.4,-179.2
316,2.1333333333333333,-507.73333333333335,-187.73333333333332
317,6.4,-505.59999999999997,-174.93333333333334
318,6.4,-512.0,-172.8
319,8.533333333333333,-512.0,-168.53333333333333
320,6.4,-514.1333333333333,-170.66666666666666
321,4.266666666666667,-516.2666666666667,-160.0
322,10.666666666666666,-529.0666666666666,-157.86666666666667
323,0.0,-524.8,-153.6
324,4.266666666666667,-526.9333333333333,-151.46666666666667
325,4.266666666666667,-539.7333333333333,-142.93333333333334
326,2.1333333333333333,-544.0,-142.93333333333334
327,6.4,-544.0,-147.2
328,19.2,-520.5333333333333,-183.46666666666667
329,0.0,-548.2666666666667,-140.8
330,0.0,-544.0,-145.06666666666666
331,-10.666666666666666,-535.4666666666667,-138.66666666666666
332,-2.1333333333333333,-548.2666666666667,-136.53333333333333
333,-8.533333333333333,-541.8666666666667,-138.66666666666666
334,-12.8,-546.1333333333333,-138.66666666666666
335,-19.2,-541.8666666666667,-136.53333333333333
336,-12.8,-539.7333333333333,-136.53333333333333
337,-23.466666666666665,-541.8666666666667,-130.13333333333333
338,-29.866666666666667,-531.2,-134.4
339,-27.733333333333334,-526.9333333333333,-134.4
340,-32.0,-522.6666666666666,-123.73333333333333
341,-36.266666666666666,-524.8,-132.26666666666665
342,-36.266666666666666,-507.73333333333335,-123.73333333333333
343,-36.266666666666666,-501.3333333333333,-123.73333333333333
344,-42.666666666666664,-492.8,-128.0
345,-36.266666666666666,-490.6666666666667,-128.0
346,-36.266666666666666,-482.1333333333333,-113.06666666666666
347,-25.6,-480.0,-130.13333333333333
348,-19.2,-465.06666666666666,-130.13333333333333
349,-19.2,-458.6666666666667,-123.73333333333333
350,-12.8,-450.1333333333333,-121.6
351,-8.533333333333333,-441.59999999999997,-123.73333333333333
352,-10.666666666666666,-435.2,-117.33333333333333
353,-6.4,-439.46666666666664,-117.33333333333333
354,0.0,-433.06666666666666,-113.06666666666666
355,0.0,-424.5333333333333,-98.13333333333333
356,2.1333333333333333,-428.8,-96.0
357,2.1333333333333333,-426.6666666666667,-104.53333333333333
358,4.266666666666667,-424.5333333333333,-89.6
359,0.0,-426.6666666666667,-93.86666666666666
360,4.266666666666667,-435.2,-91.73333333333333
361,0.0,-433.06666666666666,-87.46666666666667
362,-2.1333333333333333,-445.8666666666667,-87.46666666666667
363,-4.266666666666667,-437.3333333333333,-91.73333333333333
364,-2.1333333333333333,-443.73333333333335,-87.46666666666667
365,-12.8,-445.8666666666667,-85.33333333333333
366,-12.8,-445.8666666666667,-85.33333333333333
367,-12.8,-456.5333333333333,-85.33333333333333
368,-23.466666666666665,-452.26666666666665,-89.6
369,-25.6,-458.6666666666667,-76.8
370,-32.0,-467.2,-91.73333333333333
371,-32.0,-469.3333333333333,-93.86666666666666
372,-32.0,-477.8666666666667,-100.26666666666667
373,-32.0,-480.0,-85.33333333333333
374,-36.266666666666666,-486.4,-76.8
375,-32.0,-494.93333333333334,-85.33333333333333
376,-29.866666666666667,-494.93333333333334,-85.33333333333333
377,-42.666666666666664,-505.59999999999997,-76.8
378,-25.6,-507.73333333333335,-85.33333333333333
379,-21.333333333333332,-518.4,-70.4
380,-14.933333333333334,-526.9333333333333,-68.26666666666667
381,-12.8,-520.5333333333333,-55.46666666666667
382,0.0,-524.8,-46.93333333333333
383,0.0,-520.5333333333333,-44.8
384,0.0,-526.9333333333333,-40.53333333333333
385,-2.1333333333333333,-526.9333333333333,-34.13333333333333
386,-12.8,-526.9333333333333,-17.066666666666666
387,-14.933333333333334,-529.0666666666666,-21.333333333333332
388,-10.666666666666666,-535.4666666666667,-21.333333333333332
389,-14.933333333333334,-539.7333333333333,-10.666666666666666
390,-19.2,-546.1333333333333,-10.666666666666666
391,-25.6,-554.6666666666666,-8.533333333333333
392,-32.0,-556.8,-8.533333333333333
393,-34.13333333333333,-571.7333333333333,-6.4
394,-32.0,-573.8666666666667,-8.533333333333333
395,-29.866666666666667,-588.8,0.0
396,-38.4,-601.6,4.266666666666667
397,-40.53333333333333,-608.0,6.4
398,-51.2,-620.8,0.0
399,-46.93333333333333,-627.2,8.533333333333333
400,-44.8,-640.0,10.666666666666666
401,-42.666666666666664,-650.6666666666666,10.666666666666666
402,-36.266666666666666,-654.9333333333333,14.933333333333334
403,-40.53333333333333,-659.2,4.266666666666667
404,-29.866666666666667,-657.0666666666666,0.0
405,-27.733333333333334,-665.6,-12.8
406,-36.266666666666666,-654.9333333333333,-12.8
407,-25.6,-657.0666666666666,-19.2
408,-27.733333333333334,-654.9333333333333,-23.466666666666665
409,-27.733333333333334,-657.0666666666666,-29.866666666666667
410,-34.13333333333333,-659.2,-23.466666666666665
411,-44.8,-661.3333333333334,-25.6
412,-49.06666666666666,-663.4666666666667,-17.066666666666666
413,-53.333333333333336,-665.6,-23.466666666666665
414,-49.06666666666666,-665.6,-19.2
415,-44.8,-672.0,-27.733333333333334
416,-40.53333333333333,-665.6,-40.53333333333333
417,-25.6,-667.7333333333333,-53.333333333333336
418,-29.866666666666667,-674.1333333333333,-78.93333333333334
419,-19.2,-676.2666666666667,-87.46666666666667
420,-2.1333333333333333,-680.5333333333333,-96.0
421,2.1333333333333333,-682.6666666666666,-102.4
422,0.0,-689.0666666666666,-96.0
423,0.0,-706.1333333333333,-91.73333333333333
424,0.0,-714.6666666666666,-91.73333333333333
425,10.666666666666666,-723.2,-104.53333333333333
426,-27.733333333333334,-744.5333333333333,-83.2
427,-46.93333333333333,-753.0666666666666,-98.13333333333333
428,-72.53333333333333,-746.6666666666666,-106.66666666666667
429,-74.66666666666667,-731.7333333333333,-128.0
430,-85.33333333333333,-723.2,-138.66666666666666
431,-93.86666666666666,-695.4666666666667,-151.46666666666667
432,-110.93333333333334,-680.5333333333333,-149.33333333333334
433,-117.33333333333333,-659.2,-157.86666666666667
434,-117.33333333333333,-631.4666666666667,-162.13333333333333
435,-106.66666666666667,-599.4666666666667,-149.33333333333334
436,-106.66666666666667,-569.6,-147.2
437,-93.86666666666666,-544.0,-162.13333333333333
438,-87.46666666666667,-524.8,-162.13333333333333
439,-78.93333333333334,-497.06666666666666,-183.46666666666667
440,-64.0,-488.5333333333333,-189.86666666666667
441,-53.333333333333336,-486.4,-209.06666666666666
442,-40.53333333333333,-484.26666666666665,-228.26666666666665
443,-29.866666666666667,-488.5333333333333,-230.4
444,-14.933333333333334,-501.3333333333333,-234.66666666666666
445,-10.666666666666666,-516.2666666666667,-241.06666666666666
446,2.1333333333333333,-539.7333333333333,-230.4
447,4.266666666666667,-558.9333333333333,-230.4
448,12.8,-580.2666666666667,-224.0
449,25.6,-605.8666666666667,-219.73333333333332
450,36.266666666666666,-625.0666666666666,-209.06666666666666
451,51.2,-633.6,-200.53333333333333
452,61.86666666666667,-644.2666666666667,-198.4
453,74.66666666666667,-648.5333333333333,-189.86666666666667
454,89.6,-648.5333333333333,-172.8
455,91.73333333333333,-646.4,-172.8
456,91.73333333333333,-635.7333333333333,-172.8
457,91.73333333333333,-631.4666666666667,-162.13333333333333
458,83.2,-614.4,-153.6
459,76.8,-605.8666666666667,-164.26666666666665
460,64.0,-595.2,-160.0
461,55.46666666666667,-580.2666666666667,-147.2
462,40.53333333333333,-565.3333333333334,-153.6
463,21.333333333333332,-550.4,-145.06666666666666
464,6.4,-546.1333333333333,-140.8
465,0.0,-537.6,-149.33333333333334
466,-14.933333333333334,-520.5333333333333,-142.93333333333334
467,-14.933333333333334,-518.4,-140.8
468,-27.733333333333334,-516.2666666666667,-145.06666666666666
469,-27.733333333333334,-505.59999999999997,-140.8
470,-29.866666666666667,-499.2,-138.66666666666666
471,-34.13333333333333,-490.6666666666667,-136.53333333333333
472,-14.933333333333334,-490.6666666666667,-121.6
473,-10.666666666666666,-492.8,-134.4
474,-12.8,-488.5333333333333,-132.26666666666665
475,-2.1333333333333333,-488.5333333333333,-138.66666666666666
476,2.1333333333333333,-490.6666666666667,-130.13333333333333
477,8.533333333333333,-488.5333333333333,-138.66666666666666
478,27.733333333333334,-492.8,-132.26666666666665
479,34.13333333333333,-492.8,-138.66666666666666
480,38.4,-490.6666666666667,-138.66666666666666
481,53.333333333333336,-499.2,-145.06666666666666
482,64.0,-503.46666666666664,-142.93333333333334
483,66.13333333333333,-499.2,-136.53333333333333
484,74.66666666666667,-503.46666666666664,-138.66666666666666
485,74.66666666666667,-492.8,-138.66666666666666
486,78.93333333333334,-488.5333333333333,-136.53333333333333
487,87.46666666666667,-494.93333333333334,-142.93333333333334
488,81.06666666666666,-484.26666666666665,-138.66666666666666
489,96.0,-482.1333333333333,-140.8
490,96.0,-477.8666666666667,-142.93333333333334
491,91.73333333333333,-480.0,-142.93333333333334
492,91.73333333333333,-475.73333333333335,-134.4
493,91.73333333333333,-480.0,-140.8
494,87.46666666666667,-473.59999999999997,-130.13333333333333
495,89.6,-477.8666666666667,-123.73333333333333
496,81.06666666666666,-477.8666666666667,-121.6
497,81.06666666666666,-475.73333333333335,-117.33333333333333
498,78.93333333333334,-477.8666666666667,-113.06666666666666
499,74.66666666666667,-477.8666666666667,-108.8
500,66.13333333333333,-475.73333333333335,-102.4
501,66.13333333333333,-471.46666666666664,-100.26666666666667
502,57.6,-469.3333333333333,-106.66666666666667
503,59.733333333333334,-467.2,-108.8
504,46.93333333333333,-454.4,-104.53333333333333
505,46.93333333333333,-448.0,-104.53333333333333
506,44.8,-448.0,-106.66666666666667
507,44.8,-448.0,-115.2
508,36.266666666666666,-443.73333333333335,-110.93333333333334
509,38.4,-428.8,-113.06666666666666
510,40.53333333333333,-428.8,-113.06666666666666
511,40.53333333333333,-433.06666666666666,-110.93333333333334
512,-4.266666666666667,-437.3333333333333,-104.53333333333333
513,36.266666666666666,-439.46666666666664,-115.2
514,42.666666666666664,-441.59999999999997,-119.46666666666667
515,51.2,-454.4,-115.2
516,51.2,-452.26666666666665,-100.26666666666667
517,64.0,-465.06666666666666,-93.86666666666666
518,66.13333333333333,-469.3333333333333,-100.26666666666667
519,81.06666666666666,-475.73333333333335,-91.73333333333333
520,83.2,-486.4,-104.53333333333333
521,89.6,-486.4,-85.33333333333333
522,81.06666666666666,-505.59999999999997,-66.13333333333333
523,102.4,-503.46666666666664,-89.6
524,106.66666666666667,-520.5333333333333,-98.13333333333333
525,106.66666666666667,-520.5333333333333,-91.73333333333333
526,115.2,-533.3333333333334,-76.8
527,115.2,-537.6,-81.06666666666666
528,115.2,-539.7333333333333,-74.66666666666667
529,117.33333333333333,-550.4,-78.93333333333334
530,117.33333333333333,-554.6666666666666,-76.8
531,125.86666666666666,-563.2,-72.53333333333333
532,125.86666666666666,-563.2,-74.66666666666667
533,125.86666666666666,-576.0,-55.46666666666667
534,130.13333333333333,-582.4,-59.733333333333334
535,115.2,-588.8,-55.46666666666667
536,110.93333333333334,-590.9333333333333,-55.46666666666667
537,108.8,-597.3333333333334,-49.06666666666666
538,100.26666666666667,-597.3333333333334,-49.06666666666666
539,104.53333333333333,-597.3333333333334,-40.53333333333333
540,102.4,-590.9333333333333,-40.53333333333333
541,102.4,-584.5333333333333,-36.266666666666666
542,89.6,-567.4666666666667,-40.53333333333333
543,100.26666666666667,-565.3333333333334,-46.93333333333333
544,96.0,-548.2666666666667,-44.8
545,87.46666666666667,-544.0,-49.06666666666666
546,93.86666666666666,-546.1333333333333,-57.6
547,83.2,-535.4666666666667,-49.06666666666666
548,85.33333333333333,-531.2,-51.2
549,83.2,-533.3333333333334,-46.93333333333333
550,89.6,-539.7333333333333,-57.6
551,98.13333333333333,-544.0,-59.733333333333334
552,98.13333333333333,-546.1333333333333,-49.06666666666666
553,104.53333333333333,-556.8,-49.06666666666666
554,98.13333333333333,-563.2,-46.93333333333333
555,96.0,-578.1333333333333,-32.0
556,104.53333333333333,-590.9333333333333,-36.266666666666666
557,100.26666666666667,-588.8,-51.2
558,96.0,-597.3333333333334,-49.06666666666666
559,100.26666666666667,-601.6,-70.4
560,96.0,-601.6,-76.8
561,108.8,-603.7333333333333,-91.73333333333333
562,104.53333333333333,-605.8666666666667,-104.53333333333333
563,100.26666666666667,-605.8666666666667,-134.4
564,104.53333333333333,-603.7333333333333,-142.93333333333334
565,106.66666666666667,-610.1333333333333,-160.0
566,100.26666666666667,-605.8666666666667,-172.8
567,110.93333333333334,-620.8,-177.06666666666666
568,106.66666666666667,-637.8666666666667,-164.26666666666665
569,102.4,-648.5333333333333,-160.0
570,108.8,-665.6,-170.66666666666666
571,104.53333333333333,-684.8,-151.46666666666667
572,100.26666666666667,-708.2666666666667,-153.6
573,96.0,-729.6,-145.06666666666666
574,87.46666666666667,-740.2666666666667,-151.46666666666667
575,76.8,-759.4666666666667,-151.46666666666667
576,74.66666666666667,-765.8666666666667,-160.0
577,74.66666666666667,-774.4,-172.8
578,72.53333333333333,-770.1333333333333,-181.33333333333334
579,72.53333333333333,-765.8666666666667,-181.33333333333334
580,78.93333333333334,-753.0666666666666,-189.86666666666667
581,72.53333333333333,-727.4666666666667,-192.0
582,76.8,-714.6666666666666,-183.46666666666667
583,74.66666666666667,-684.8,-183.46666666666667
584,76.8,-663.4666666666667,-187.73333333333332
585,78.93333333333334,-635.7333333333333,-181.33333333333334
586,83.2,-603.7333333333333,-181.33333333333334
587,87.46666666666667,-582.4,-174.93333333333334
588,89.6,-552.5333333333333,-181.33333333333334
589,98.13333333333333,-529.0666666666666,-179.2
590,93.86666666666666,-501.3333333333333,-187.73333333333332
591,106.66666666666667,-482.1333333333333,-177.06666666666666
592,108.8,-462.93333333333334,-192.0
593,115.2,-450.1333333333333,-198.4
594,119.46666666666667,-437.3333333333333,-198.4
595,119.46666666666667,-437.3333333333333,-217.6
596,121.6,-433.06666666666666,-211.2
597,117.33333333333333,-437.3333333333333,-221.86666666666667
598,115.2,-454.4,-230.4
599,110.93333333333334,-469.3333333333333,-234.66666666666666
600,102.4,-490.6666666666667,-234.66666666666666
601,85.33333333333333,-522.6666666666666,-241.06666666666666
602,85.33333333333333,-548.2666666666667,-236.79999999999998
603,70.4,-554.6666666666666,-243.2
604,64.0,-576.0,-236.79999999999998
605,57.6,-590.9333333333333,-230.4
606,57.6,-603.7333333333333,-230.4
607,53.333333333333336,-608.0,-232.53333333333333
608,46.93333333333333,-614.4,-230.4
609,34.13333333333333,-603.7333333333333,-247.46666666666667
610,32.0,-605.8666666666667,-241.06666666666666
611,34.13333333333333,-603.7333333333333,-241.06666666666666
612,25.6,-595.2,-247.46666666666667
613,27.733333333333334,-588.8,-245.33333333333334
614,23.466666666666665,-580.2666666666667,-232.53333333333333
615,14.933333333333334,-571.7333333333333,-230.4
616,29.866666666666667,-565.3333333333334,-241.06666666666666
617,29.866666666666667,-571.7333333333333,-224.0
618,27.733333333333334,-563.2,-226.13333333333333
619,32.0,-558.9333333333333,-226.13333333333333
620,40.53333333333333,-561.0666666666666,-221.86666666666667
621,40.53333333333333,-561.0666666666666,-224.0
622,51.2,-563.2,-213.33333333333334
623,53.333333333333336,-552.5333333333333,-213.33333333333334
624,55.46666666666667,-561.0666666666666,-224.0
625,59.733333333333334,-552.5333333333333,-211.2
626,61.86666666666667,-546.1333333333333,-213.33333333333334
627,66.13333333333333,-546.1333333333333,-217.6
628,70.4,-546.1333333333333,-221.86666666666667
629,64.0,-541.8666666666667,-217.6
630,55.46666666666667,-537.6,-213.33333333333334
631,55.46666666666667,-533.3333333333334,-215.46666666666667
632,46.93333333333333,-531.2,-217.6
633,34.13333333333333,-529.0666666666666,-204.8
634,29.866666666666667,-526.9333333333333,-211.2
635,29.866666666666667,-531.2,-206.93333333333334
636,14.933333333333334,-526.9333333333333,-206.93333333333334
637,6.4,-533.3333333333334,-206.93333333333334
638,0.0,-533.3333333333334,-198.4
639,-4.266666666666667,-526.9333333333333,-198.4
640,-12.8,-520.5333333333333,-200.53333333333333
641,-17.066666666666666,-526.9333333333333,-198.4
642,-19.2,-524.8,-200.53333333333333
643,-19.2,-520.5333333333333,-206.93333333333334
644,-29.866666666666667,-520.5333333333333,-192.0
645,-27.733333333333334,-516.2666666666667,-194.13333333333333
646,-34.13333333333333,-518.4,-189.86666666666667
647,-29.866666666666667,-507.73333333333335,-202.66666666666666
648,-32.0,-516.2666666666667,-189.86666666666667
649,-25.6,-509.8666666666667,-192.0
650,-27.733333333333334,-507.73333333333335,-181.33333333333334
651,-21.333333333333332,-509.8666666666667,-181.33333333333334
652,-19.2,-514.1333333333333,-183.46666666666667
653,-10.666666666666666,-518.4,-177.06666666666666
654,-4.266666666666667,-516.2666666666667,-179.2
655,-6.4,-518.4,-174.93333333333334
656,0.0,-514.1333333333333,-168.53333333333333
657,2.1333333333333333,-516.2666666666667,-166.4
658,4.266666666666667,-520.5333333333333,-168.53333333333333
659,10.666666666666666,-514.1333333333333,-160.0
660,17.066666666666666,-512.0,-168.53333333333333
661,12.8,-509.8666666666667,-162.13333333333333
662,12.8,-509.8666666666667,-162.13333333333333
663,21.333333333333332,-512.0,-160.0
664,21.333333333333332,-509.8666666666667,-164.26666666666665
665,21.333333333333332,-505.59999999999997,-151.46666666666667
666,17.066666666666666,-492.8,-160.0
667,21.333333333333332,-497.06666666666666,-157.86666666666667
668,19.2,-494.93333333333334,-157.86666666666667
669,21.333333333333332,-490.6666666666667,-157.86666666666667
670,19.2,-490.6666666666667,-149.33333333333334
671,23.466666666666665,-488.5333333333333,-149.33333333333334
672,25.6,-492.8,-142.93333333333334
673,14.933333333333334,-484.26666666666665,-149.33333333333334
674,12.8,-494.93333333333334,-140.8
675,8.533333333333333,-492.8,-145.06666666666666
676,12.8,-499.2,-134.4
677,6.4,-497.06666666666666,-134.4
678,17.066666666666666,-512.0,-128.0
679,6.4,-507.73333333333335,-123.73333333333333
680,6.4,-503.46666666666664,-119.46666666666667
681,4.266666666666667,-520.5333333333333,-119.46666666666667
682,2.1333333333333333,-516.2666666666667,-123.73333333333333
683,0.0,-514.1333333333333,-119.46666666666667
684,-4.266666666666667,-509.8666666666667,-123.73333333333333
685,-2.1333333333333333,-518.4,-115.2
686,2.1333333333333333,-514.1333333333333,-119.46666666666667
687,-4.266666666666667,-514.1333333333333,-121.6
688,-6.4,-512.0,-123.73333333333333
689,-8.533333333333333,-507.73333333333335,-113.06666666666666
690,-8.533333333333333,-512.0,-108.8
691,-19.2,-505.59999999999997,-108.8
692,-14.933333333333334,-514.1333333333333,-102.4
693,-12.8,-507.73333333333335,-100.26666666666667
694,-12.8,-512.0,-104.53333333333333
695,4.266666666666667,-512.0,-149.33333333333334
696,-6.4,-516.2666666666667,-96.0
697,-21.333333333333332,-512.0,-93.86666666666666
698,-17.066666666666666,-520.5333333333333,-87.46666666666667
699,-14.933333333333334,-518.4,-87.46666666666667
700,-14.933333333333334,-518.4,-81.06666666666666
701,-8.533333333333333,-518.4,-74.66666666666667
702,-14.933333333333334,-514.1333333333333,-83.2
703,-8.533333333333333,-516.2666666666667,-78.93333333333334
704,-10.666666666666666,-509.8666666666667,-74.66666666666667
705,-17.066666666666666,-507.73333333333335,-78.93333333333334
706,-25.6,-505.59999999999997,-53.333333333333336
707,-25.6,-494.93333333333334,-72.53333333333333
708,-21.333333333333332,-503.46666666666664,-68.26666666666667
709,-32.0,-492.8,-66.13333333333333
710,-32.0,-499.2,-64.0
711,-34.13333333333333,-499.2,-64.0
712,-38.4,-497.06666666666666,-61.86666666666667
713,-40.53333333333333,-507.73333333333335,-61.86666666666667
714,-46.93333333333333,-512.0,-61.86666666666667
715,-44.8,-531.2,-57.6
716,-51.2,-539.7333333333333,-64.0
717,-55.46666666666667,-541.8666666666667,-51.2
718,-51.2,-548.2666666666667,-42.666666666666664
719,-57.6,-550.4,-46.93333333333333
720,-55.46666666666667,-552.5333333333333,-38.4
721,-55.46666666666667,-563.2,-38.4
722,-53.333333333333336,-569.6,-25.6
723,-57.6,-558.9333333333333,-36.266666666666666
724,-57.6,-561.0666666666666,-32.0
725,-55.46666666666667,-558.9333333333333,-32.0
726,-55.46666666666667,-556.8,-29.866666666666667
727,-57.6,-550.4,-27.733333333333334
728,-53.333333333333336,-546.1333333333333,-32.0
729,-51.2,-541.8666666666667,-29.866666666666667
730,-46.93333333333333,-544.0,-38.4
731,-49.06666666666666,-544.0,-29.866666666666667
732,-51.2,-537.6,-34.13333333333333
733,-46.93333333333333,-548.2666666666667,-29.866666666666667
734,-51.2,-537.6,-29.866666666666667
735,-55.46666666666667,-546.1333333333333,-23.466666666666665
736,-57.6,-546.1333333333333,-25.6
737,-59.733333333333334,-548.2666666666667,-27.733333333333334
738,-61.86666666666667,-556.8,-23.466666666666665
739,-66.13333333333333,-567.4666666666667,-29.866666666666667
740,-81.06666666666666,-569.6,-27.733333333333334
741,-78.93333333333334,-584.5333333333333,-32.0
742,-87.46666666666667,-584.5333333333333,-40.53333333333333
743,-91.73333333333333,-597.3333333333334,-49.06666666666666
744,-98.13333333333333,-595.2,-44.8
745,-100.26666666666667,-605.8666666666667,-66.13333333333333
746,-104.53333333333333,-612.2666666666667,-83.2
747,-108.8,-610.1333333333333,-110.93333333333334
748,-100.26666666666667,-603.7333333333333,-140.8
749,-98.13333333333333,-603.7333333333333,-162.13333333333333
750,-89.6,-593.0666666666666,-177.06666666666666
751,-78.93333333333334,-599.4666666666667,-196.26666666666665
752,-66.13333333333333,-616.5333333333333,-192.0
753,-74.66666666666667,-631.4666666666667,-187.73333333333332
754,-72.53333333333333,-648.5333333333333,-179.2
755,-72.53333333333333,-669.8666666666667,-174.93333333333334
756,-81.06666666666666,-680.5333333333333,-170.66666666666666
757,-85.33333333333333,-686.9333333333333,-166.4
758,-87.46666666666667,-691.2,-170.66666666666666
759,-87.46666666666667,-682.6666666666666,-170.66666666666666
760,-76.8,-678.4,-168.53333333333333
761,-78.93333333333334,-657.0666666666666,-177.06666666666666
762,-76.8,-642.1333333333333,-172.8
763,-78.93333333333334,-629.3333333333334,-172.8
764,-72.53333333333333,-612.2666666666667,-172.8
765,-64.0,-601.6,-164.26666666666665
766,-59.733333333333334,-597.3333333333334,-160.0
767,-51.2,-595.2,-157.86666666666667
768,-51.2,-595.2,-153.6
769,-44.8,-597.3333333333334,-140.8
770,-42.666666666666664,-612.2666666666667,-153.6
771,-34.13333333333333,-622.9333333333333,-145.06666666666666
772,-36.266666666666666,-633.6,-153.6
773,-38.4,-648.5333333333333,-157.86666666666667
774,-21.333333333333332,-665.6,-155.73333333333332
775,-23.466666666666665,-669.8666666666667,-164.26666666666665
776,-19.2,-676.2666666666667,-168.53333333333333
777,-21.333333333333332,-669.8666666666667,-179.2
778,-8.533333333333333,-669.8666666666667,-185.6
779,-19.2,-657.0666666666666,-198.4
780,-10.666666666666666,-646.4,-209.06666666666666
781,-12.8,-633.6,-217.6
782,-8.533333333333333,-601.6,-275.2
783,-17.066666666666666,-610.1333333333333,-213.33333333333334
784,-19.2,-588.8,-213.33333333333334
785,-14.933333333333334,-578.1333333333333,-209.06666666666666
786,-19.2,-571.7333333333333,-206.93333333333334
787,-19.2,-561.0666666666666,-200.53333333333333
788,-14.933333333333334,-544.0,-198.4
789,-6.4,-544.0,-198.4
790,-6.4,-541.8666666666667,-189.86666666666667
791,-2.1333333333333333,-539.7333333333333,-198.4
792,0.0,-539.7333333333333,-211.2
793,10.666666666666666,-533.3333333333334,-192.0
794,23.466666666666665,-535.4666666666667,-200.53333333333333
795,27.733333333333334,-541.8666666666667,-200.53333333333333
796,38.4,-537.6,-202.66666666666666
797,36.266666666666666,-533.3333333333334,-196.26666666666665
798,49.06666666666666,-537.6,-209.06666666666666
799,53.333333333333336,-546.1333333333333,-206.93333333333334
800,59.733333333333334,-544.0,-213.33333333333334
801,59.733333333333334,-550.4,-215.46666666666667
802,59.733333333333334,-556.8,-211.2
803,53.333333333333336,-558.9333333333333,-226.13333333333333
804,59.733333333333334,-569.6,-221.86666666666667
805,53.333333333333336,-567.4666666666667,-224.0
806,57.6,-571.7333333333333,-221.86666666666667
807,40.53333333333333,-571.7333333333333,-221.86666666666667
808,40.53333333333333,-573.8666666666667,-226.13333333333333
809,38.4,-573.8666666666667,-215.46666666666667
810,29.866666666666667,-580.2666666666667,-219.73333333333332
811,23.466666666666665,-580.2666666666667,-209.06666666666666
812,21.333333333333332,-576.0,-211.2
813,6.4,-576.0,-200.53333333333333
814,8.533333333333333,-576.0,-202.66666666666666
815,4.266666666666667,-569.6,-198.4
816,4.266666666666667,-573.8666666666667,-185.6
817,2.1333333333333333,-576.0,-179.2
818,6.4,-561.0666666666666,-177.06666666666666
819,4.266666666666667,-558.9333333333333,-183.46666666666667
820,10.666666666666666,-563.2,-183.46666666666667
821,10.666666666666666,-550.4,-177.06666666666666
822,19.2,-550.4,-185.6
823,25.6,-554.6666666666666,-183.46666666666667
824,29.866666666666667,-548.2666666666667,-183.46666666666667
825,36.266666666666666,-544.0,-189.86666666666667
826,40.53333333333333,-541.8666666666667,-194.13333333333333
827,49.06666666666666,-544.0,-194.13333333333333
828,55.46666666666667,-535.4666666666667,-187.73333333333332
829,61.86666666666667,-535.4666666666667,-194.13333333333333
830,66.13333333333333,-541.8666666666667,-198.4
831,72.53333333333333,-537.6,-198.4
832,78.93333333333334,-537.6,-192.0
833,81.06666666666666,-537.6,-189.86666666666667
834,78.93333333333334,-529.0666666666666,-187.73333333333332
835,81.06666666666666,-524.8,-187.73333333333332
836,83.2,-522.6666666666666,-192.0
837,87.46666666666667,-524.8,-187.73333333333332
838,87.46666666666667,-516.2666666666667,-187.73333333333332
839,93.86666666666666,-529.0666666666666,-183.46666666666667
840,98.13333333333333,-533.3333333333334,-183.46666666666667
841,100.26666666666667,-529.0666666666666,-172.8
842,96.0,-531.2,-172.8
843,102.4,-526.9333333333333,-174.93333333333334
844,106.66666666666667,-529.0666666666666,-166.4
845,100.26666666666667,-522.6666666666666,-177.06666666666666
846,104.53333333333333,-522.6666666666666,-181.33333333333334
847,104.53333333333333,-524.8,-170.66666666666666
848,106.66666666666667,-520.5333333333333,-177.06666666666666
849,106.66666666666667,-526.9333333333333,-172.8
850,100.26666666666667,-524.8,-170.66666666666666
851,100.26666666666667,-520.5333333333333,-174.93333333333334
852,104.53333333333333,-520.5333333333333,-181.33333333333334
853,98.13333333333333,-516.2666666666667,-166.4
854,87.46666666666667,-509.8666666666667,-172.8
855,87.46666666666667,-507.73333333333335,-170.66666666666666
856,81.06666666666666,-512.0,-172.8
857,74.66666666666667,-505.59999999999997,-174.93333333333334
858,78.93333333333334,-501.3333333333333,-166.4
859,72.53333333333333,-499.2,-155.73333333333332
860,68.26666666666667,-499.2,-153.6
861,72.53333333333333,-492.8,-149.33333333333334
862,76.8,-494.93333333333334,-153.6
863,72.53333333333333,-490.6666666666667,-149.33333333333334
864,74.66666666666667,-486.4,-153.6
865,81.06666666666666,-486.4,-149.33333333333334
866,83.2,-477.8666666666667,-145.06666666666666
867,83.2,-486.4,-155.73333333333332
868,91.73333333333333,-486.4,-151.46666666666667
869,89.6,-486.4,-138.66666666666666
870,96.0,-488.5333333333333,-142.93333333333334
871,104.53333333333333,-484.26666666666665,-142.93333333333334
872,89.6,-486.4,-136.53333333333333
873,96.0,-484.26666666666665,-130.13333333333333
874,98.13333333333333,-488.5333333333333,-121.6
875,102.4,-482.1333333333333,-130.13333333333333
876,98.13333333333333,-488.5333333333333,-125.86666666666666
877,83.2,-484.26666666666665,-130.13333333333333
878,87.46666666666667,-488.5333333333333,-123.73333333333333
879,89.6,-469.3333333333333,-115.2
880,74.66666666666667,-486.4,-121.6
881,76.8,-484.26666666666665,-121.6
882,70.4,-492.8,-119.46666666666667
883,66.13333333333333,-503.46666666666664,-117.33333333333333
884,64.0,-503.46666666666664,-110.93333333333334
885,70.4,-512.0,-110.93333333333334
886,61.86666666666667,-514.1333333333333,-108.8
887,61.86666666666667,-522.6666666666666,-98.13333333333333
888,61.86666666666667,-524.8,-100.26666666666667
889,61.86666666666667,-529.0666666666666,-87.46666666666667
890,68.26666666666667,-533.3333333333334,-87.46666666666667
891,57.6,-522.6666666666666,-89.6
892,59.733333333333334,-526.9333333333333,-78.93333333333334
893,66.13333333333333,-529.0666666666666,-81.06666666666666
894,76.8,-531.2,-85.33333333333333
895,72.53333333333333,-539.7333333333333,-96.0
896,70.4,-531.2,-91.73333333333333
897,85.33333333333333,-533.3333333333334,-91.73333333333333
898,87.46666666666667,-539.7333333333333,-93.86666666666666
899,93.86666666666666,-541.8666666666667,-87.46666666666667
900,102.4,-541.8666666666667,-85.33333333333333
901,98.13333333333333,-539.7333333333333,-87.46666666666667
902,102.4,-546.1333333333333,-89.6
903,110.93333333333334,-550.4,-76.8
904,115.2,-554.6666666666666,-76.8
905,110.93333333333334,-552.5333333333333,-76.8
906,113.06666666666666,-550.4,-72.53333333333333
907,119.46666666666667,-561.0666666666666,-72.53333333333333
908,108.8,-550.4,-70.4
909,115.2,-548.2666666666667,-61.86666666666667
910,119.46666666666667,-546.1333333333333,-57.6
911,115.2,-548.2666666666667,-53.333333333333336
912,119.46666666666667,-541.8666666666667,-53.333333333333336
913,115.2,-531.2,-61.86666666666667
914,113.06666666666666,-526.9333333333333,-46.93333333333333
915,115.2,-522.6666666666666,-59.733333333333334
916,117.33333333333333,-514.1333333333333,-51.2
917,113.06666666666666,-514.1333333333333,-42.666666666666664
918,115.2,-507.73333333333335,-61.86666666666667
919,113.06666666666666,-499.2,-59.733333333333334
920,115.2,-509.8666666666667,-53.333333333333336
921,110.93333333333334,-503.46666666666664,-49.06666666666666
922,117.33333333333333,-505.59999999999997,-42.666666666666664
923,108.8,-490.6666666666667,-44.8
924,113.06666666666666,-499.2,-44.8
925,121.6,-497.06666666666666,-42.666666666666664
926,115.2,-497.06666666666666,-40.53333333333333
927,123.73333333333333,-499.2,-42.666666666666664
928,125.86666666666666,-501.3333333333333,-34.13333333333333
929,130.13333333333333,-501.3333333333333,-40.53333333333333
930,136.53333333333333,-505.59999999999997,-29.866666666666667
931,136.53333333333333,-516.2666666666667,-36.266666666666666
932,134.4,-516.2666666666667,-25.6
933,136.53333333333333,-518.4,-36.266666666666666
934,136.53333333333333,-529.0666666666666,-21.333333333333332
935,136.53333333333333,-524.8,-19.2
936,142.93333333333334,-533.3333333333334,-17.066666666666666
937,132.26666666666665,-529.0666666666666,-21.333333333333332
938,132.26666666666665,-535.4666666666667,-23.466666666666665
939,125.86666666666666,-537.6,-19.2
940,125.86666666666666,-544.0,-27.733333333333334
941,119.46666666666667,-548.2666666666667,-23.466666666666665
942,121.6,-541.8666666666667,-29.866666666666667
943,113.06666666666666,-541.8666666666667,-36.266666666666666
944,108.8,-546.1333333333333,-42.666666666666664
945,108.8,-548.2666666666667,-49.06666666666666
946,102.4,-546.1333333333333,-44.8
947,93.86666666666666,-544.0,-38.4
948,87.46666666666667,-552.5333333333333,-46.93333333333333
949,91.73333333333333,-552.5333333333333,-40.53333333333333
950,81.06666666666666,-552.5333333333333,-46.93333333333333
951,81.06666666666666,-556.8,-36.266666666666666
952,81.06666666666666,-558.9333333333333,-42.666666666666664
953,81.06666666666666,-558.9333333333333,-46.93333333333333
954,87.46666666666667,-561.0666666666666,-38.4
955,83.2,-563.2,-44.8
956,102.4,-567.4666666666667,-42.666666666666664
957,104.53333333333333,-563.2,-36.266666666666666
958,115.2,-567.4666666666667,-40.53333333333333
959,119.46666666666667,-565.3333333333334,-36.266666666666666
960,123.73333333333333,-569.6,-25.6
961,130.13333333333333,-565.3333333333334,-23.466666666666665
962,132.26666666666665,-561.0666666666666,-23.466666666666665
963,130.13333333333333,-556.8,-19.2
964,130.13333333333333,-558.9333333333333,-23.466666666666665
965,134.4,-558.9333333333333,-29.866666666666667
966,110.93333333333334,-531.2,-59.733333333333334
967,130.13333333333333,-554.6666666666666,-36.266666666666666
968,136.53333333333333,-563.2,-40.53333333333333
969,136.53333333333333,-563.2,-38.4
970,149.33333333333334,-569.6,-55.46666666666667
971,155.73333333333332,-584.5333333333333,-44.8
972,155.73333333333332,-590.9333333333333,-55.46666666666667
973,160.0,-599.4666666666667,-59.733333333333334
974,155.73333333333332,-599.4666666666667,-70.4
975,145.06666666666666,-616.5333333333333,-81.06666666666666
976,138.66666666666666,-633.6,-66.13333333333333
977,130.13333333333333,-644.2666666666667,-74.66666666666667
978,121.6,-654.9333333333333,-74.66666666666667
979,104.53333333333333,-659.2,-74.66666666666667
980,93.86666666666666,-674.1333333333333,-72.53333333333333
981,83.2,-669.8666666666667,-76.8
982,78.93333333333334,-663.4666666666667,-78.93333333333334
983,83.2,-667.7333333333333,-85.33333333333333
984,85.33333333333333,-663.4666666666667,-93.86666666666666
985,87.46666666666667,-654.9333333333333,-115.2
986,98.13333333333333,-661.3333333333334,-125.86666666666666
987,102.4,-663.4666666666667,-130.13333333333333
988,108.8,-659.2,-134.4
989,130.13333333333333,-667.7333333333333,-134.4
990,128.0,-667.7333333333333,-142.93333333333334
991,121.6,-669.8666666666667,-132.26666666666665
992,134.4,-680.5333333333333,-132.26666666666665
993,140.8,-680.5333333333333,-130.13333333333333
994,151.46666666666667,-686.9333333333333,-132.26666666666665
995,164.26666666666665,-691.2,-130.13333333333333
996,164.26666666666665,-686.9333333333333,-125.86666666666666
997,174.93333333333334,-701.8666666666667,-128.0
998,179.2,-706.1333333333333,-123.73333333333333
999,170.66666666666666,-710.4,-125.86666666666666
1000,166.4,-712.5333333333333,-121.6
1001,164.26666666666665,-710.4,-132.26666666666665
1002,157.86666666666667,-708.2666666666667,-136.53333333333333
1003,151.46666666666667,-712.5333333333333,-136.53333333333333
1004,142.93333333333334,-704.0,-142.93333333333334
1005,136.53333333333333,-699.7333333333333,-145.06666666666666
1006,132.26666666666665,-686.9333333333333,-138.66666666666666
1007,117.33333333333333,-669.8666666666667,-147.2
1008,117.33333333333333,-661.3333333333334,-147.2
1009,106.66666666666667,-646.4,-149.33333333333334
1010,117.33333333333333,-637.8666666666667,-138.66666666666666
1011,104.53333333333333,-608.0,-136.53333333333333
1012,93.86666666666666,-590.9333333333333,-145.06666666666666
1013,102.4,-576.0,-155.73333333333332
1014,102.4,-561.0666666666666,-151.46666666666667
1015,104.53333333333333,-544.0,-149.33333333333334
1016,100.26666666666667,-537.6,-142.93333333333334
1017,106.66666666666667,-529.0666666666666,-134.4
1018,98.13333333333333,-520.5333333333333,-136.53333333333333
1019,93.86666666666666,-507.73333333333335,-138.66666666666666
1020,91.73333333333333,-509.8666666666667,-138.66666666666666
1021,87.46666666666667,-505.59999999999997,-142.93333333333334
1022,96.0,-512.0,-149.33333333333334
1023,87.46666666666667,-518.4,-162.13333333333333
1024,83.2,-514.1333333333333,-183.46666666666667
1025,76.8,-518.4,-185.6
1026,70.4,-533.3333333333334,-211.2
1027,66.13333333333333,-541.8666666666667,-206.93333333333334
1028,51.2,-548.2666666666667,-211.2
1029,40.53333333333333,-552.5333333333333,-206.93333333333334
1030,42.666666666666664,-563.2,-211.2
1031,34.13333333333333,-569.6,-209.06666666666666
1032,29.866666666666667,-563.2,-206.93333333333334
1033,23.466666666666665,-565.3333333333334,-209.06666666666666
1034,19.2,-563.2,-206.93333333333334
1035,19.2,-571.7333333333333,-187.73333333333332
1036,19.2,-569.6,-198.4
1037,23.466666666666665,-565.3333333333334,-204.8
1038,14.933333333333334,-567.4666666666667,-189.86666666666667
1039,8.533333333333333,-554.6666666666666,-189.86666666666667
1040,4.266666666666667,-554.6666666666666,-189.86666666666667
1041,21.333333333333332,-556.8,-179.2
1042,14.933333333333334,-552.5333333333333,-189.86666666666667
1043,19.2,-546.1333333333333,-192.0
1044,21.333333333333332,-546.1333333333333,-183.46666666666667
1045,38.4,-548.2666666666667,-189.86666666666667
1046,42.666666666666664,-548.2666666666667,-183.46666666666667
1047,40.53333333333333,-546.1333333333333,-177.06666666666666
1048,44.8,-544.0,-183.46666666666667
1049,55.46666666666667,-544.0,-177.06666666666666
1050,64.0,-546.1333333333333,-177.06666666666666
1051,66.13333333333333,-544.0,-162.13333333333333
1052,93.86666666666666,-503.46666666666664,-130.13333333333333
1053,72.53333333333333,-539.7333333333333,-149.33333333333334
1054,85.33333333333333,-539.7333333333333,-151.46666666666667
1055,91.73333333333333,-541.8666666666667,-153.6
1056,100.26666666666667,-539.7333333333333,-151.46666666666667
1057,102.4,-529.0666666666666,-155.73333333333332
1058,108.8,-529.0666666666666,-149.33333333333334
1059,104.53333333333333,-518.4,-147.2
1060,108.8,-516.2666666666667,-151.46666666666667
1061,100.26666666666667,-503.46666666666664,-149.33333333333334
1062,102.4,-503.46666666666664,-153.6
1063,96.0,-503.46666666666664,-149.33333333333334
1064,89.6,-494.93333333333334,-155.73333333333332
1065,87.46666666666667,-488.5333333333333,-153.6
1066,76.8,-484.26666666666665,-155.73333333333332
1067,74.66666666666667,-488.5333333333333,-157.86666666666667
1068,64.0,-484.26666666666665,-164.26666666666665
1069,51.2,-480.0,-166.4
1070,34.13333333333333,-484.26666666666665,-166.4
1071,32.0,-492.8,-168.53333333333333
1072,17.066666666666666,-490.6666666666667,-155.73333333333332
1073,8.533333333333333,-494.93333333333334,-170.66666666666666
1074,6.4,-505.59999999999997,-162.13333333333333
1075,0.0,-505.59999999999997,-160.0
1076,0.0,-522.6666666666666,-162.13333333333333
1077,-6.4,-518.4,-160.0
1078,0.0,-531.2,-151.46666666666667
1079,-4.266666666666667,-529.0666666666666,-153.6
1080,-17.066666666666666,-529.0666666666666,-151.46666666666667
1081,-6.4,-535.4666666666667,-149.33333333333334
1082,-2.1333333333333333,-533.3333333333334,-153.6
1083,0.0,-537.6,-151.46666666666667
1084,0.0,-531.2,-147.2
1085,0.0,-539.7333333333333,-153.6
1086,8.533333333333333,-535.4666666666667,-142.93333333333334
1087,17.066666666666666,-533.3333333333334,-145.06666666666666
1088,17.066666666666666,-533.3333333333334,-145.06666666666666
1089,25.6,-529.0666666666666,-147.2
1090,29.866666666666667,-531.2,-145.06666666666666
1091,29.866666666666667,-531.2,-145.06666666666666
1092,38.4,-529.0666666666666,-138.66666666666666
1093,38.4,-522.6666666666666,-140.8
1094,34.13333333333333,-518.4,-140.8
1095,38.4,-522.6666666666666,-138.66666666666666
1096,34.13333333333333,-518.4,-145.06666666666666
1097,25.6,-516.2666666666667,-140.8
1098,23.466666666666665,-514.1333333333333,-138.66666666666666
1099,21.333333333333332,-512.0,-142.93333333333334
1100,10.666666666666666,-505.59999999999997,-145.06666666666666
1101,14.933333333333334,-503.46666666666664,-125.86666666666666
1102,17.066666666666666,-505.59999999999997,-138.66666666666666
1103,12.8,-501.3333333333333,-134.4
1104,6.4,-490.6666666666667,-138.66666666666666
1105,6.4,-492.8,-134.4
1106,8.533333333333333,-490.6666666666667,-128.0
1107,6.4,-497.06666666666666,-125.86666666666666
1108,6.4,-501.3333333333333,-117.33333333333333
1109,4.266666666666667,-501.3333333333333,-117.33333333333333
1110,4.266666666666667,-499.2,-108.8
1111,2.1333333333333333,-507.73333333333335,-106.66666666666667
1112,6.4,-501.3333333333333,-108.8
1113,0.0,-505.59999999999997,-117.33333333333333
1114,6.4,-501.3333333333333,-115.2
1115,4.266666666666667,-499.2,-98.13333333333333
1116,8.533333333333333,-501.3333333333333,-93.86666666666666
1117,6.4,-501.3333333333333,-104.53333333333333
1118,12.8,-509.8666666666667,-96.0
1119,2.1333333333333333,-507.73333333333335,-91.73333333333333
1120,6.4,-514.1333333333333,-96.0
1121,2.1333333333333333,-512.0,-91.73333333333333
1122,0.0,-514.1333333333333,-96.0
1123,0.0,-514.1333333333333,-72.53333333333333
1124,6.4,-524.8,-87.46666666666667
1125,2.1333333333333333,-522.6666666666666,-78.93333333333334
1126,4.266666666666667,-524.8,-83.2
1127,0.0,-529.0666666666666,-78.93333333333334
1128,0.0,-518.4,-81.06666666666666
1129,-2.1333333333333333,-524.8,-76.8
1130,0.0,-531.2,-78.93333333333334
1131,-2.1333333333333333,-537.6,-74.66666666666667
1132,-8.533333333333333,-529.0666666666666,-68.26666666666667
1133,-4.266666666666667,-529.0666666666666,-68.26666666666667
1134,-14.933333333333334,-533.3333333333334,-61.86666666666667
1135,-21.333333333333332,-537.6,-74.66666666666667
1136,-27.733333333333334,-533.3333333333334,-66.13333333333333
1137,-29.866666666666667,-531.2,-64.0
1138,-38.4,-537.6,-59.733333333333334
1139,-34.13333333333333,-552.5333333333333,-38.4
1140,-38.4,-535.4666666666667,-64.0
1141,-38.4,-535.4666666666667,-61.86666666666667
1142,-40.53333333333333,-539.7333333333333,-61.86666666666667
1143,-38.4,-541.8666666666667,-61.86666666666667
1144,-36.266666666666666,-535.4666666666667,-53.333333333333336
1145,-38.4,-535.4666666666667,-61.86666666666667
1146,-34.13333333333333,-520.5333333333333,-51.2
1147,-27.733333333333334,-526.9333333333333,-53.333333333333336
1148,-34.13333333333333,-516.2666666666667,-44.8
1149,-27.733333333333334,-518.4,-36.266666666666666
1150,-27.733333333333334,-507.73333333333335,-61.86666666666667
1151,-21.333333333333332,-512.0,-38.4
1152,-14.933333333333334,-526.9333333333333,-38.4
1153,-14.933333333333334,-520.5333333333333,-42.666666666666664
1154,-23.466666666666665,-522.6666666666666,-36.266666666666666
1155,-29.866666666666667,-522.6666666666666,-36.266666666666666
1156,-17.066666666666666,-537.6,-40.53333333333333
1157,-14.933333333333334,-539.7333333333333,-36.266666666666666
1158,-17.066666666666666,-544.0,-34.13333333333333
1159,-17.066666666666666,-548.2666666666667,-44.8
1160,-2.1333333333333333,-550.4,-34.13333333333333
1161,-12.8,-552.5333333333333,-34.13333333333333
1162,-6.4,-552.5333333333333,-38.4
1163,-6.4,-554.6666666666666,-29.866666666666667
1164,-4.266666666666667,-556.8,-36.266666666666666
1165,-8.533333333333333,-554.6666666666666,-32.0
1166,0.0,-548.2666666666667,-44.8
1167,0.0,-546.1333333333333,-38.4
1168,-6.4,-541.8666666666667,-34.13333333333333
1169,-2.1333333333333333,-544.0,-42.666666666666664
1170,-4.266666666666667,-531.2,-42.666666666666664
1171,0.0,-533.3333333333334,-38.4
1172,-10.666666666666666,-529.0666666666666,-46.93333333333333
1173,-8.533333333333333,-522.6666666666666,-46.93333333333333
1174,-8.533333333333333,-526.9333333333333,-36.266666666666666
1175,-12.8,-529.0666666666666,-42.666666666666664
1176,-21.333333333333332,-529.0666666666666,-36.266666666666666
1177,-23.466666666666665,-539.7333333333333,-36.266666666666666
1178,-27.733333333333334,-541.8666666666667,-34.13333333333333
1179,-34.13333333333333,-546.1333333333333,-23.466666666666665
1180,-38.4,-546.1333333333333,-29.866666666666667
1181,-40.53333333333333,-550.4,-36.266666666666666
1182,-44.8,-548.2666666666667,-34.13333333333333
1183,-53.333333333333336,-556.8,-46.93333333333333
1184,-53.333333333333336,-556.8,-40.53333333333333
1185,-55.46666666666667,-561.0666666666666,-44.8
1186,-59.733333333333334,-567.4666666666667,-46.93333333333333
1187,-59.733333333333334,-582.4,-53.333333333333336
1188,-57.6,-590.9333333333333,-57.6
1189,-64.0,-601.6,-61.86666666666667
1190,-64.0,-612.2666666666667,-61.86666666666667
1191,-70.4,-622.9333333333333,-72.53333333333333
1192,-76.8,-635.7333333333333,-66.13333333333333
1193,-87.46666666666667,-631.4666666666667,-81.06666666666666
1194,-93.86666666666666,-640.0,-83.2
1195,-98.13333333333333,-635.7333333333333,-100.26666666666667
1196,-106.66666666666667,-637.8666666666667,-96.0
1197,-96.0,-637.8666666666667,-104.53333333333333
1198,-93.86666666666666,-642.1333333333333,-98.13333333333333
1199,-96.0,-633.6,-93.86666666666666
1200,-100.26666666666667,-640.0,-102.4
1201,-98.13333333333333,-625.0666666666666,-113.06666666666666
1202,-93.86666666666666,-618.6666666666666,-123.73333333333333
1203,-89.6,-616.5333333333333,-128.0
1204,-83.2,-618.6666666666666,-147.2
1205,-87.46666666666667,-610.1333333333333,-164.26666666666665
1206,-74.66666666666667,-616.5333333333333,-179.2
1207,-68.26666666666667,-618.6666666666666,-181.33333333333334
1208,-59.733333333333334,-616.5333333333333,-185.6
1209,-53.333333333333336,-616.5333333333333,-183.46666666666667
1210,-51.2,-618.6666666666666,-194.13333333333333
1211,-46.93333333333333,-618.6666666666666,-179.2
1212,-42.666666666666664,-622.9333333333333,-183.46666666666667
1213,-51.2,-625.0666666666666,-189.86666666666667
1214,-59.733333333333334,-631.4666666666667,-172.8
1215,-68.26666666666667,-635.7333333333333,-181.33333333333334
1216,-70.4,-650.6666666666666,-179.2
1217,-83.2,-659.2,-174.93333333333334
1218,-83.2,-674.1333333333333,-174.93333333333334
1219,-74.66666666666667,-684.8,-164.26666666666665
1220,-72.53333333333333,-691.2,-153.6
1221,-70.4,-701.8666666666667,-155.73333333333332
1222,-70.4,-706.1333333333333,-149.33333333333334
1223,-59.733333333333334,-704.0,-151.46666666666667
1224,-55.46666666666667,-697.6,-149.33333333333334
1225,-53.333333333333336,-693.3333333333334,-162.13333333333333
1226,-40.53333333333333,-678.4,-179.2
1227,-32.0,-674.1333333333333,-192.0
1228,-27.733333333333334,-663.4666666666667,-198.4
1229,-12.8,-657.0666666666666,-215.46666666666667
1230,-4.266666666666667,-637.8666666666667,-228.26666666666665
1231,0.0,-622.9333333333333,-226.13333333333333
1232,6.4,-620.8,-238.93333333333334
1233,6.4,-603.7333333333333,-228.26666666666665
1234,17.066666666666666,-588.8,-232.53333333333333
1235,17.066666666666666,-580.2666666666667,-224.0
1236,29.866666666666667,-561.0666666666666,-258.1333333333333
1237,17.066666666666666,-565.3333333333334,-202.66666666666666
1238,8.533333333333333,-548.2666666666667,-221.86666666666667
1239,36.266666666666666,-550.4,-192.0
1240,4.266666666666667,-520.5333333333333,-192.0
1241,25.6,-535.4666666666667,-204.8
1242,23.466666666666665,-539.7333333333333,-204.8
1243,14.933333333333334,-526.9333333333333,-198.4
1244,17.066666666666666,-531.2,-198.4
1245,14.933333333333334,-533.3333333333334,-196.26666666666665
1246,14.933333333333334,-533.3333333333334,-194.13333333333333
1247,8.533333333333333,-539.7333333333333,-181.33333333333334
1248,14.933333333333334,-537.6,-189.86666666666667
1249,10.666666666666666,-539.7333333333333,-185.6
1250,4.266666666666667,-535.4666666666667,-192.0
1251,12.8,-539.7333333333333,-192.0
1252,4.266666666666667,-544.0,-187.73333333333332
1253,4.266666666666667,-544.0,-209.06666666666666
1254,2.1333333333333333,-544.0,-192.0
1255,4.266666666666667,-550.4,-206.93333333333334
1256,0.0,-552.5333333333333,-211.2
1257,0.0,-554.6666666666666,-204.8
1258,0.0,-558.9333333333333,-202.66666666666666
1259,0.0,-561.0666666666666,-200.53333333333333
1260,0.0,-569.6,-206.93333333333334
1261,2.1333333333333333,-563.2,-204.8
1262,8.533333333333333,-569.6,-192.0
1263,6.4,-565.3333333333334,-192.0
1264,19.2,-573.8666666666667,-185.6
1265,19.2,-565.3333333333334,-183.46666666666667
1266,23.466666666666665,-558.9333333333333,-185.6
1267,29.866666666666667,-565.3333333333334,-179.2
1268,25.6,-565.3333333333334,-183.46666666666667
1269,32.0,-558.9333333333333,-183.46666666666667
1270,27.733333333333334,-554.6666666666666,-189.86666666666667
1271,34.13333333333333,-554.6666666666666,-183.46666666666667
1272,34.13333333333333,-561.0666666666666,-185.6
1273,40.53333333333333,-563.2,-183.46666666666667
1274,34.13333333333333,-561.0666666666666,-179.2
1275,32.0,-561.0666666666666,-183.46666666666667
1276,36.266666666666666,-565.3333333333334,-177.06666666666666
1277,40.53333333333333,-565.3333333333334,-170.66666666666666
1278,36.266666666666666,-561.0666666666666,-174.93333333333334
1279,42.666666666666664,-558.9333333333333,-172.8
1280,46.93333333333333,-563.2,-174.93333333333334
1281,51.2,-558.9333333333333,-177.06666666666666
1282,49.06666666666666,-550.4,-179.2
1283,53.333333333333336,-544.0,-183.46666666666667
1284,49.06666666666666,-544.0,-172.8
1285,46.93333333333333,-522.6666666666666,-179.2
1286,64.0,-526.9333333333333,-185.6
1287,64.0,-518.4,-189.86666666666667
1288,61.86666666666667,-512.0,-183.46666666666667
1289,70.4,-514.1333333333333,-181.33333333333334
1290,64.0,-509.8666666666667,-177.06666666666666
1291,61.86666666666667,-514.1333333333333,-166.4
1292,68.26666666666667,-509.8666666666667,-168.53333333333333
1293,61.86666666666667,-494.93333333333334,-160.0
1294,68.26666666666667,-505.59999999999997,-157.86666666666667
1295,72.53333333333333,-501.3333333333333,-157.86666666666667
1296,74.66666666666667,-509.8666666666667,-155.73333333333332
1297,70.4,-507.73333333333335,-153.6
1298,70.4,-505.59999999999997,-155.73333333333332
1299,72.53333333333333,-512.0,-149.33333333333334
1300,72.53333333333333,-512.0,-151.46666666666667
1301,72.53333333333333,-512.0,-145.06666666666666
1302,66.13333333333333,-501.3333333333333,-155.73333333333332
1303,70.4,-505.59999999999997,-140.8
1304,66.13333333333333,-503.46666666666664,-145.06666666666666
1305,72.53333333333333,-499.2,-149.33333333333334
1306,78.93333333333334,-499.2,-151.46666666666667
1307,72.53333333333333,-497.06666666666666,-147.2
1308,81.06666666666666,-492.8,-149.33333333333334
1309,78.93333333333334,-492.8,-142.93333333333334
1310,85.33333333333333,-494.93333333333334,-138.66666666666666
1311,81.06666666666666,-492.8,-145.06666666666666
1312,87.46666666666667,-492.8,-145.06666666666666
1313,102.4,-486.4,-128.0
1314,83.2,-492.8,-138.66666666666666
1315,83.2,-497.06666666666666,-134.4
1316,83.2,-499.2,-132.26666666666665
1317,74.66666666666667,-497.06666666666666,-138.66666666666666
1318,76.8,-488.5333333333333,-134.4
1319,68.26666666666667,-490.6666666666667,-136.53333333333333
1320,68.26666666666667,-492.8,-117.33333333333333
1321,61.86666666666667,-490.6666666666667,-119.46666666666667
1322,64.0,-488.5333333333333,-123.73333333333333
1323,46.93333333333333,-494.93333333333334,-128.0
1324,59.733333333333334,-486.4,-119.46666666666667
1325,57.6,-484.26666666666665,-130.13333333333333
1326,57.6,-486.4,-119.46666666666667
1327,57.6,-484.26666666666665,-117.33333333333333
1328,57.6,-480.0,-108.8
1329,57.6,-475.73333333333335,-117.33333333333333
1330,59.733333333333334,-482.1333333333333,-117.33333333333333
1331,64.0,-482.1333333333333,-104.53333333333333
1332,59.733333333333334,-482.1333333333333,-106.66666666666667
1333,64.0,-462.93333333333334,-130.13333333333333
1334,76.8,-482.1333333333333,-108.8
1335,87.46666666666667,-494.93333333333334,-98.13333333333333
1336,81.06666666666666,-488.5333333333333,-96.0
1337,96.0,-492.8,-96.0
1338,98.13333333333333,-497.06666666666666,-98.13333333333333
1339,96.0,-494.93333333333334,-100.26666666666667
1340,100.26666666666667,-501.3333333333333,-96.0
1341,104.53333333333333,-497.06666666666666,-100.26666666666667
1342,113.06666666666666,-501.3333333333333,-87.46666666666667
1343,106.66666666666667,-503.46666666666664,-91.73333333333333
1344,106.66666666666667,-507.73333333333335,-93.86666666666666
1345,108.8,-505.59999999999997,-85.33333333333333
1346,104.53333333333333,-505.59999999999997,-89.6
1347,110.93333333333334,-509.8666666666667,-87.46666666666667
1348,110.93333333333334,-514.1333333333333,-98.13333333333333
1349,108.8,-509.8666666666667,-87.46666666666667
1350,106.66666666666667,-505.59999999999997,-89.6
1351,98.13333333333333,-520.5333333333333,-98.13333333333333
1352,102.4,-514.1333333333333,-98.13333333333333
1353,98.13333333333333,-520.5333333333333,-91.73333333333333
1354,102.4,-520.5333333333333,-96.0
1355,89.6,-524.8,-78.93333333333334
1356,93.86666666666666,-533.3333333333334,-81.06666666666666
1357,100.26666666666667,-544.0,-85.33333333333333
1358,96.0,-544.0,-76.8
1359,106.66666666666667,-541.8666666666667,-76.8
1360,100.26666666666667,-548.2666666666667,-76.8
1361,110.93333333333334,-546.1333333333333,-70.4
1362,119.46666666666667,-552.5333333333333,-74.66666666666667
1363,119.46666666666667,-552.5333333333333,-66.13333333333333
1364,117.33333333333333,-550.4,-74.66666666666667
1365,125.86666666666666,-554.6666666666666,-68.26666666666667
1366,132.26666666666665,-548.2666666666667,-66.13333333333333
1367,138.66666666666666,-548.2666666666667,-59.733333333333334
1368,138.66666666666666,-548.2666666666667,-70.4
1369,142.93333333333334,-552.5333333333333,-59.733333333333334
1370,138.66666666666666,-546.1333333333333,-66.13333333333333
1371,142.93333333333334,-529.0666666666666,-55.46666666666667
1372,145.06666666666666,-539.7333333333333,-61.86666666666667
1373,142.93333333333334,-537.6,-64.0
1374,147.2,-531.2,-72.53333333333333
1375,142.93333333333334,-533.3333333333334,-68.26666666666667
1376,138.66666666666666,-524.8,-61.86666666666667
1377,132.26666666666665,-529.0666666666666,-57.6
1378,136.53333333333333,-522.6666666666666,-61.86666666666667
1379,121.6,-531.2,-59.733333333333334
1380,117.33333333333333,-526.9333333333333,-59.733333333333334
1381,117.33333333333333,-535.4666666666667,-66.13333333333333
1382,110.93333333333334,-529.0666666666666,-57.6
1383,106.66666666666667,-535.4666666666667,-46.93333333333333
1384,100.26666666666667,-535.4666666666667,-51.2
1385,100.26666666666667,-539.7333333333333,-57.6
1386,100.26666666666667,-544.0,-55.46666666666667
1387,104.53333333333333,-550.4,-61.86666666666667
1388,100.26666666666667,-552.5333333333333,-49.06666666666666
1389,106.66666666666667,-556.8,-46.93333333333333
1390,110.93333333333334,-565.3333333333334,-51.2
1391,119.46666666666667,-554.6666666666666,-53.333333333333336
1392,119.46666666666667,-567.4666666666667,-51.2
1393,119.46666666666667,-561.0666666666666,-49.06666666666666
1394,125.86666666666666,-576.0,-55.46666666666667
1395,132.26666666666665,-563.2,-66.13333333333333
1396,134.4,-563.2,-68.26666666666667
1397,134.4,-554.6666666666666,-57.6
1398,142.93333333333334,-554.6666666666666,-68.26666666666667
1399,147.2,-554.6666666666666,-74.66666666666667
1400,149.33333333333334,-541.8666666666667,-61.86666666666667
1401,140.8,-546.1333333333333,-78.93333333333334
1402,136.53333333333333,-552.5333333333333,-76.8
1403,138.66666666666666,-550.4,-74.66666666666667
1404,128.0,-550.4,-74.66666666666667
1405,128.0,-554.6666666666666,-70.4
1406,117.33333333333333,-565.3333333333334,-76.8
1407,115.2,-576.0,-70.4
1408,117.33333333333333,-588.8,-68.26666666666667
1409,125.86666666666666,-610.1333333333333,-61.86666666666667
1410,125.86666666666666,-629.3333333333334,-59.733333333333334
1411,119.46666666666667,-646.4,-53.333333333333336
1412,125.86666666666666,-663.4666666666667,-66.13333333333333
1413,132.26666666666665,-678.4,-66.13333333333333
1414,132.26666666666665,-684.8,-74.66666666666667
1415,121.6,-697.6,-83.2
1416,130.13333333333333,-712.5333333333333,-89.6
1417,130.13333333333333,-708.2666666666667,-108.8
1418,125.86666666666666,-708.2666666666667,-113.06666666666666
1419,119.46666666666667,-706.1333333333333,-134.4
1420,128.0,-686.9333333333333,-145.06666666666666
1421,119.46666666666667,-680.5333333333333,-145.06666666666666
1422,117.33333333333333,-667.7333333333333,-155.73333333333332
1423,125.86666666666666,-659.2,-160.0
1424,125.86666666666666,-648.5333333333333,-166.4
1425,132.26666666666665,-642.1333333333333,-166.4
1426,130.13333333333333,-640.0,-168.53333333333333
1427,132.26666666666665,-635.7333333333333,-160.0
1428,128.0,-646.4,-177.06666666666666
1429,119.46666666666667,-657.0666666666666,-164.26666666666665
1430,121.6,-667.7333333333333,-160.0
1431,113.06666666666666,-678.4,-155.73333333333332
1432,117.33333333333333,-684.8,-142.93333333333334
1433,106.66666666666667,-680.5333333333333,-147.2
1434,108.8,-684.8,-145.06666666666666
1435,104.53333333333333,-680.5333333333333,-155.73333333333332
1436,115.2,-678.4,-164.26666666666665
1437,110.93333333333334,-672.0,-170.66666666666666
1438,117.33333333333333,-661.3333333333334,-179.2
1439,123.73333333333333,-652.8,-183.46666666666667
1440,115.2,-644.2666666666667,-189.86666666666667
1441,125.86666666666666,-646.4,-206.93333333333334
1442,123.73333333333333,-646.4,-213.33333333333334
1443,119.46666666666667,-640.0,-213.33333333333334
1444,123.73333333333333,-648.5333333333333,-213.33333333333334
1445,119.46666666666667,-646.4,-215.46666666666667
1446,108.8,-640.0,-209.06666666666666
1447,110.93333333333334,-637.8666666666667,-213.33333333333334
1448,106.66666666666667,-637.8666666666667,-202.66666666666666
1449,102.4,-629.3333333333334,-200.53333333333333
1450,102.4,-612.2666666666667,-204.8
1451,96.0,-601.6,-204.8
1452,85.33333333333333,-586.6666666666666,-211.2
1453,74.66666666666667,-578.1333333333333,-204.8
1454,76.8,-565.3333333333334,-219.73333333333332
1455,70.4,-548.2666666666667,-213.33333333333334
1456,66.13333333333333,-537.6,-219.73333333333332
1457,61.86666666666667,-529.0666666666666,-228.26666666666665
1458,61.86666666666667,-524.8,-234.66666666666666
1459,61.86666666666667,-522.6666666666666,-245.33333333333334
1460,53.333333333333336,-518.4,-236.79999999999998
1461,59.733333333333334,-518.4,-247.46666666666667
1462,49.06666666666666,-522.6666666666666,-262.4
1463,49.06666666666666,-537.6,-247.46666666666667
1464,57.6,-544.0,-249.6
1465,57.6,-548.2666666666667,-249.6
1466,57.6,-558.9333333333333,-247.46666666666667
1467,59.733333333333334,-569.6,-247.46666666666667
1468,57.6,-565.3333333333334,-247.46666666666667
1469,53.333333333333336,-567.4666666666667,-228.26666666666665
1470,51.2,-571.7333333333333,-236.79999999999998
1471,49.06666666666666,-567.4666666666667,-221.86666666666667
1472,44.8,-567.4666666666667,-221.86666666666667
1473,34.13333333333333,-561.0666666666666,-226.13333333333333
1474,29.866666666666667,-552.5333333333333,-221.86666666666667
1475,29.866666666666667,-552.5333333333333,-219.73333333333332
1476,23.466666666666665,-548.2666666666667,-219.73333333333332
1477,21.333333333333332,-546.1333333333333,-224.0
1478,19.2,-541.8666666666667,-228.26666666666665
1479,14.933333333333334,-541.8666666666667,-230.4
1480,14.933333333333334,-539.7333333333333,-232.53333333333333
1481,10.666666666666666,-531.2,-232.53333333333333
1482,14.933333333333334,-539.7333333333333,-221.86666666666667
1483,12.8,-539.7333333333333,-219.73333333333332
1484,21.333333333333332,-537.6,-221.86666666666667
1485,21.333333333333332,-544.0,-217.6
1486,25.6,-550.4,-200.53333333333333
1487,32.0,-546.1333333333333,-215.46666666666667
1488,32.0,-541.8666666666667,-213.33333333333334
1489,40.53333333333333,-541.8666666666667,-215.46666666666667
1490,53.333333333333336,-548.2666666666667,-198.4
1491,53.333333333333336,-541.8666666666667,-196.26666666666665
1492,66.13333333333333,-550.4,-202.66666666666666
1493,61.86666666666667,-546.1333333333333,-189.86666666666667
1494,70.4,-548.2666666666667,-196.26666666666665
1495,72.53333333333333,-548.2666666666667,-198.4
1496,70.4,-548.2666666666667,-194.13333333333333
1497,66.13333333333333,-546.1333333333333,-185.6
1498,68.26666666666667,-544.0,-189.86666666666667
1499,61.86666666666667,-539.7333333333333,-194.13333333333333
1500,57.6,-533.3333333333334,-179.2
1501,46.93333333333333,-535.4666666666667,-185.6
1502,36.266666666666666,-520.5333333333333,-181.33333333333334
1503,27.733333333333334,-514.1333333333333,-181.33333333333334
1504,23.466666666666665,-509.8666666666667,-196.26666666666665
1505,8.533333333333333,-492.8,-196.26666666666665
1506,0.0,-465.06666666666666,-204.8
1507,-2.1333333333333333,-484.26666666666665,-206.93333333333334
1508,-6.4,-484.26666666666665,-192.0
1509,-12.8,-475.73333333333335,-189.86666666666667
1510,-23.466666666666665,-471.46666666666664,-198.4
1511,-23.466666666666665,-471.46666666666664,-189.86666666666667
1512,-32.0,-475.73333333333335,-192.0
1513,-32.0,-469.3333333333333,-183.46666666666667
1514,-38.4,-477.8666666666667,-187.73333333333332
1515,-36.266666666666666,-477.8666666666667,-185.6
1516,-44.8,-475.73333333333335,-181.33333333333334
1517,-36.266666666666666,-486.4,-136.53333333333333
1518,-36.266666666666666,-492.8,-177.06666666666666
1519,-38.4,-492.8,-177.06666666666666
1520,-40.53333333333333,-492.8,-170.66666666666666
1521,-34.13333333333333,-497.06666666666666,-164.26666666666665
1522,-27.733333333333334,-497.06666666666666,-168.53333333333333
1523,-19.2,-501.3333333333333,-166.4
1524,-14.933333333333334,-494.93333333333334,-166.4
1525,-8.533333333333333,-501.3333333333333,-166.4
1526,-2.1333333333333333,-497.06666666666666,-162.13333333333333
1527,2.1333333333333333,-494.93333333333334,-157.86666666666667
1528,6.4,-488.5333333333333,-151.46666666666667
1529,6.4,-482.1333333333333,-149.33333333333334
1530,14.933333333333334,-482.1333333333333,-155.73333333333332
1531,19.2,-469.3333333333333,-147.2
1532,23.466666666666665,-477.8666666666667,-147.2
1533,32.0,-469.3333333333333,-151.46666666666667
1534,23.466666666666665,-467.2,-145.06666666666666
1535,17.066666666666666,-460.8,-136.53333333333333
1536,25.6,-465.06666666666666,-142.93333333333334
1537,21.333333333333332,-465.06666666666666,-136.53333333333333
1538,19.2,-467.2,-134.4
1539,12.8,-469.3333333333333,-125.86666666666666
1540,17.066666666666666,-482.1333333333333,-125.86666666666666
1541,17.066666666666666,-488.5333333333333,-119.46666666666667
1542,10.666666666666666,-488.5333333333333,-110.93333333333334
1543,10.666666666666666,-497.06666666666666,-113.06666666666666
1544,10.666666666666666,-505.59999999999997,-108.8
1545,8.533333333333333,-512.0,-108.8
1546,6.4,-512.0,-117.33333333333333
1547,2.1333333333333333,-516.2666666666667,-106.66666666666667
1548,2.1333333333333333,-514.1333333333333,-104.53333333333333
1549,0.0,-512.0,-100.26666666666667
1550,0.0,-514.1333333333333,-87.46666666666667
1551,-6.4,-507.73333333333335,-85.33333333333333
1552,-4.266666666666667,-512.0,-93.86666666666666
1553,-17.066666666666666,-503.46666666666664,-87.46666666666667
1554,-10.666666666666666,-512.0,-89.6
1555,-14.933333333333334,-505.59999999999997,-81.06666666666666
1556,-4.266666666666667,-512.0,-76.8
1557,-12.8,-509.8666666666667,-83.2
1558,-14.933333333333334,-509.8666666666667,-87.46666666666667
1559,-17.066666666666666,-501.3333333333333,-85.33333333333333
1560,-6.4,-509.8666666666667,-91.73333333333333
1561,-12.8,-507.73333333333335,-85.33333333333333
1562,-4.266666666666667,-509.8666666666667,-89.6
1563,-10.666666666666666,-509.8666666666667,-85.33333333333333
1564,-10.666666666666666,-514.1333333333333,-89.6
1565,-10.666666666666666,-514.1333333333333,-81.06666666666666
1566,-10.666666666666666,-516.2666666666667,-70.4
1567,-17.066666666666666,-520.5333333333333,-72.53333333333333
1568,-14.933333333333334,-526.9333333333333,-66.13333333333333
1569,-19.2,-529.0666666666666,-70.4
1570,-6.4,-535.4666666666667,-53.333333333333336
1571,-17.066666666666666,-541.8666666666667,-49.06666666666666
1572,-4.266666666666667,-548.2666666666667,-46.93333333333333
1573,-6.4,-537.6,-40.53333333333333
1574,-6.4,-546.1333333333333,-29.866666666666667
1575,-2.1333333333333333,-550.4,-25.6
1576,-2.1333333333333333,-546.1333333333333,-10.666666666666666
1577,0.0,-546.1333333333333,-6.4
1578,-4.266666666666667,-539.7333333333333,-12.8
1579,0.0,-541.8666666666667,-14.933333333333334
1580,-4.266666666666667,-529.0666666666666,-12.8
1581,0.0,-524.8,-19.2
1582,-8.533333333333333,-522.6666666666666,-19.2
1583,-2.1333333333333333,-522.6666666666666,-27.733333333333334
1584,-6.4,-520.5333333333333,-36.266666666666666
1585,0.0,-518.4,-38.4
1586,-6.4,-520.5333333333333,-38.4
1587,-21.333333333333332,-524.8,-44.8
1588,-12.8,-537.6,-46.93333333333333
1589,-21.333333333333332,-544.0,-40.53333333333333
1590,-17.066666666666666,-556.8,-29.866666666666667
1591,-19.2,-567.4666666666667,-36.266666666666666
1592,-17.066666666666666,-582.4,-32.0
1593,-21.333333333333332,-597.3333333333334,-23.466666666666665
1594,-32.0,-601.6,-27.733333333333334
1595,-29.866666666666667,-612.2666666666667,-14.933333333333334
1596,-51.2,-618.6666666666666,-25.6
1597,-53.333333333333336,-625.0666666666666,-49.06666666666666
1598,-57.6,-627.2,-49.06666666666666
1599,-57.6,-622.9333333333333,-66.13333333333333
1600,-61.86666666666667,-618.6666666666666,-89.6
1601,-64.0,-612.2666666666667,-119.46666666666667
1602,-59.733333333333334,-603.7333333333333,-128.0
1603,-64.0,-588.8,-155.73333333333332
1604,-46.93333333333333,-593.0666666666666,-149.33333333333334
1605,-66.13333333333333,-584.5333333333333,-162.13333333333333
1606,-64.0,-597.3333333333334,-157.86666666666667
1607,-64.0,-610.1333333333333,-151.46666666666667
1608,-59.733333333333334,-618.6666666666666,-151.46666666666667
1609,-61.86666666666667,-622.9333333333333,-151.46666666666667
1610,-59.733333333333334,-631.4666666666667,-162.13333333333333
1611,-57.6,-644.2666666666667,-151.46666666666667
1612,-51.2,-640.0,-157.86666666666667
1613,-53.333333333333336,-648.5333333333333,-160.0
1614,-57.6,-644.2666666666667,-174.93333333333334
1615,-61.86666666666667,-633.6,-185.6
1616,-68.26666666666667,-633.6,-200.53333333333333
1617,-70.4,-625.0666666666666,-213.33333333333334
1618,-74.66666666666667,-622.9333333333333,-213.33333333333334
1619,-74.66666666666667,-622.9333333333333,-211.2
1620,-85.33333333333333,-631.4666666666667,-211.2
1621,-83.2,-633.6,-194.13333333333333
1622,-78.93333333333334,-652.8,-181.33333333333334
1623,-81.06666666666666,-661.3333333333334,-177.06666666666666
1624,-74.66666666666667,-676.2666666666667,-162.13333333333333
1625,-74.66666666666667,-676.2666666666667,-164.26666666666665
1626,-72.53333333333333,-680.5333333333333,-164.26666666666665
1627,-57.6,-680.5333333333333,-160.0
1628,-53.333333333333336,-676.2666666666667,-160.0
1629,-44.8,-684.8,-164.26666666666665
1630,-38.4,-669.8666666666667,-170.66666666666666
1631,-32.0,-661.3333333333334,-170.66666666666666
1632,-36.266666666666666,-650.6666666666666,-172.8
1633,-25.6,-642.1333333333333,-177.06666666666666
1634,-17.066666666666666,-631.4666666666667,-192.0
1635,-21.333333333333332,-612.2666666666667,-194.13333333333333
1636,-17.066666666666666,-608.0,-192.0
1637,-19.2,-599.4666666666667,-206.93333333333334
1638,-17.066666666666666,-590.9333333333333,-211.2
1639,-23.466666666666665,-586.6666666666666,-206.93333333333334
1640,-29.866666666666667,-576.0,-206.93333333333334
1641,-34.13333333333333,-569.6,-209.06666666666666
1642,-38.4,-576.0,-209.06666666666666
1643,-34.13333333333333,-569.6,-211.2
1644,-32.0,-578.1333333333333,-213.33333333333334
1645,-27.733333333333334,-573.8666666666667,-211.2
1646,-21.333333333333332,-571.7333333333333,-213.33333333333334
1647,-27.733333333333334,-576.0,-213.33333333333334
1648,-10.666666666666666,-576.0,-219.73333333333332
1649,-4.266666666666667,-582.4,-221.86666666666667
1650,0.0,-582.4,-230.4
1651,6.4,-593.0666666666666,-228.26666666666665
1652,12.8,-597.3333333333334,-236.79999999999998
1653,14.933333333333334,-595.2,-230.4
1654,19.2,-597.3333333333334,-234.66666666666666
1655,25.6,-593.0666666666666,-236.79999999999998
1656,34.13333333333333,-593.0666666666666,-230.4
1657,40.53333333333333,-593.0666666666666,-234.66666666666666
1658,46.93333333333333,-599.4666666666667,-241.06666666666666
1659,70.4,-593.0666666666666,-221.86666666666667
1660,57.6,-584.5333333333333,-224.0
1661,68.26666666666667,-588.8,-217.6
1662,72.53333333333333,-578.1333333333333,-211.2
1663,74.66666666666667,-573.8666666666667,-224.0
1664,74.66666666666667,-567.4666666666667,-217.6
1665,68.26666666666667,-561.0666666666666,-217.6
1666,66.13333333333333,-552.5333333333333,-221.86666666666667
1667,66.13333333333333,-548.2666666666667,-219.73333333333332
1668,55.46666666666667,-546.1333333333333,-221.86666666666667
1669,53.333333333333336,-541.8666666666667,-224.0
1670,42.666666666666664,-541.8666666666667,-217.6
1671,46.93333333333333,-546.1333333333333,-211.2
1672,44.8,-544.0,-217.6
1673,40.53333333333333,-544.0,-209.06666666666666
1674,49.06666666666666,-541.8666666666667,-204.8
1675,44.8,-539.7333333333333,-185.6
1676,55.46666666666667,-548.2666666666667,-196.26666666666665
1677,51.2,-544.0,-189.86666666666667
1678,53.333333333333336,-539.7333333333333,-181.33333333333334
1679,53.333333333333336,-537.6,-183.46666666666667
1680,72.53333333333333,-544.0,-174.93333333333334
1681,51.2,-533.3333333333334,-189.86666666666667
1682,53.333333333333336,-537.6,-174.93333333333334
1683,46.93333333333333,-526.9333333333333,-185.6
1684,42.666666666666664,-520.5333333333333,-187.73333333333332
1685,40.53333333333333,-526.9333333333333,-183.46666666666667
1686,51.2,-522.6666666666666,-177.06666666666666
1687,42.666666666666664,-518.4,-185.6
1688,46.93333333333333,-509.8666666666667,-189.86666666666667
1689,55.46666666666667,-512.0,-189.86666666666667
1690,74.66666666666667,-490.6666666666667,-211.2
1691,64.0,-512.0,-194.13333333333333
1692,61.86666666666667,-507.73333333333335,-192.0
1693,68.26666666666667,-505.59999999999997,-183.46666666666667
1694,68.26666666666667,-505.59999999999997,-181.33333333333334
1695,76.8,-505.59999999999997,-189.86666666666667
1696,68.26666666666667,-499.2,-200.53333333333333
1697,76.8,-490.6666666666667,-187.73333333333332
1698,76.8,-492.8,-192.0
1699,70.4,-484.26666666666665,-194.13333333333333
1700,85.33333333333333,-488.5333333333333,-181.33333333333334
1701,74.66666666666667,-492.8,-194.13333333333333
1702,76.8,-477.8666666666667,-181.33333333333334
1703,74.66666666666667,-477.8666666666667,-174.93333333333334
1704,74.66666666666667,-475.73333333333335,-160.0
1705,76.8,-477.8666666666667,-164.26666666666665
1706,70.4,-471.46666666666664,-168.53333333333333
1707,68.26666666666667,-467.2,-162.13333333333333
1708,68.26666666666667,-473.59999999999997,-155.73333333333332
1709,68.26666666666667,-465.06666666666666,-164.26666666666665
1710,66.13333333333333,-469.3333333333333,-151.46666666666667
1711,66.13333333333333,-471.46666666666664,-151.46666666666667
1712,70.4,-475.73333333333335,-147.2
1713,64.0,-473.59999999999997,-149.33333333333334
1714,68.26666666666667,-471.46666666666664,-145.06666666666666
1715,66.13333333333333,-471.46666666666664,-142.93333333333334
1716,59.733333333333334,-471.46666666666664,-160.0
1717,68.26666666666667,-475.73333333333335,-147.2
1718,68.26666666666667,-480.0,-147.2
1719,72.53333333333333,-477.8666666666667,-153.6
1720,72.53333333333333,-480.0,-151.46666666666667
1721,76.8,-473.59999999999997,-147.2
1722,76.8,-475.73333333333335,-145.06666666666666
1723,78.93333333333334,-484.26666666666665,-140.8
1724,74.66666666666667,-484.26666666666665,-132.26666666666665
1725,78.93333333333334,-488.5333333333333,-142.93333333333334
1726,76.8,-486.4,-142.93333333333334
1727,74.66666666666667,-492.8,-125.86666666666666
1728,81.06666666666666,-503.46666666666664,-130.13333333333333
1729,89.6,-505.59999999999997,-125.86666666666666
1730,74.66666666666667,-497.06666666666666,-119.46666666666667
1731,83.2,-505.59999999999997,-119.46666666666667
1732,74.66666666666667,-503.46666666666664,-123.73333333333333
1733,85.33333333333333,-509.8666666666667,-117.33333333333333
1734,78.93333333333334,-501.3333333333333,-110.93333333333334
1735,87.46666666666667,-505.59999999999997,-106.66666666666667
1736,87.46666666666667,-499.2,-106.66666666666667
1737,89.6,-507.73333333333335,-98.13333333333333
1738,83.2,-499.2,-100.26666666666667
1739,87.46666666666667,-501.3333333333333,-104.53333333333333
1740,85.33333333333333,-499.2,-93.86666666666666
1741,89.6,-499.2,-93.86666666666666
1742,91.73333333333333,-497.06666666666666,-98.13333333333333
1743,93.86666666666666,-497.06666666666666,-91.73333333333333
1744,93.86666666666666,-499.2,-87.46666666666667
1745,98.13333333333333,-512.0,-96.0
1746,96.0,-497.06666666666666,-91.73333333333333
1747,102.4,-507.73333333333335,-93.86666666666666
1748,106.66666666666667,-505.59999999999997,-89.6
1749,106.66666666666667,-507.73333333333335,-89.6
1750,115.2,-512.0,-98.13333333333333
1751,121.6,-518.4,-98.13333333333333
1752,125.86666666666666,-514.1333333333333,-100.26666666666667
1753,132.26666666666665,-529.0666666666666,-91.73333333333333
1754,140.8,-541.8666666666667,-85.33333333333333
1755,140.8,-533.3333333333334,-91.73333333333333
1756,140.8,-544.0,-93.86666666666666
1757,140.8,-546.1333333333333,-76.8
1758,145.06666666666666,-550.4,-85.33333333333333
1759,149.33333333333334,-548.2666666666667,-85.33333333333333
1760,151.46666666666667,-550.4,-85.33333333333333
1761,151.46666666666667,-552.5333333333333,-83.2
1762,147.2,-552.5333333333333,-93.86666666666666
1763,145.06666666666666,-552.5333333333333,-81.06666666666666
1764,142.93333333333334,-548.2666666666667,-85.33333333333333
1765,136.53333333333333,-544.0,-76.8
1766,134.4,-546.1333333333333,-74.66666666666667
1767,136.53333333333333,-535.4666666666667,-76.8
1768,130.13333333333333,-537.6,-74.66666666666667
1769,130.13333333333333,-531.2,-72.53333333333333
1770,123.73333333333333,-522.6666666666666,-74.66666666666667
1771,123.73333333333333,-522.6666666666666,-68.26666666666667
1772,113.06666666666666,-516.2666666666667,-81.06666666666666
1773,119.46666666666667,-509.8666666666667,-74.66666666666667
1774,123.73333333333333,-516.2666666666667,-70.4
1775,125.86666666666666,-509.8666666666667,-64.0
1776,123.73333333333333,-505.59999999999997,-68.26666666666667
1777,125.86666666666666,-501.3333333333333,-59.733333333333334
1778,123.73333333333333,-499.2,-49.06666666666666
1779,123.73333333333333,-503.46666666666664,-46.93333333333333
1780,123.73333333333333,-507.73333333333335,-55.46666666666667
1781,132.26666666666665,-509.8666666666667,-38.4
1782,128.0,-507.73333333333335,-38.4
1783,130.13333333333333,-516.2666666666667,-38.4
1784,130.13333333333333,-520.5333333333333,-29.866666666666667
1785,128.0,-526.9333333333333,-42.666666666666664
1786,125.86666666666666,-526.9333333333333,-44.8
1787,119.46666666666667,-537.6,-46.93333333333333
1788,121.6,-529.0666666666666,-81.06666666666666
1789,108.8,-548.2666666666667,-66.13333333333333
1790,102.4,-548.2666666666667,-70.4
1791,91.73333333333333,-548.2666666666667,-78.93333333333334
1792,87.46666666666667,-552.5333333333333,-87.46666666666667
1793,78.93333333333334,-558.9333333333333,-93.86666666666666
1794,76.8,-554.6666666666666,-106.66666666666667
1795,76.8,-558.9333333333333,-104.53333333333333
1796,72.53333333333333,-558.9333333333333,-108.8
1797,83.2,-563.2,-115.2
1798,89.6,-561.0666666666666,-108.8
1799,91.73333333333333,-565.3333333333334,-104.53333333333333
1800,96.0,-567.4666666666667,-106.66666666666667
1801,108.8,-561.0666666666666,-108.8
1802,119.46666666666667,-565.3333333333334,-106.66666666666667
1803,132.26666666666665,-576.0,-104.53333333333333
1804,140.8,-578.1333333333333,-110.93333333333334
1805,151.46666666666667,-584.5333333333333,-110.93333333333334
1806,157.86666666666667,-586.6666666666666,-117.33333333333333
1807,172.8,-593.0666666666666,-128.0
1808,189.86666666666667,-601.6,-115.2
1809,192.0,-603.7333333333333,-121.6
1810,198.4,-614.4,-123.73333333333333
1811,192.0,-622.9333333333333,-115.2
1812,192.0,-629.3333333333334,-117.33333333333333
1813,185.6,-633.6,-121.6
1814,181.33333333333334,-650.6666666666666,-110.93333333333334
1815,174.93333333333334,-652.8,-113.06666666666666
1816,166.4,-657.0666666666666,-108.8
1817,164.26666666666665,-665.6,-102.4
1818,155.73333333333332,-680.5333333333333,-110.93333333333334
1819,145.06666666666666,-691.2,-108.8
1820,140.8,-701.8666666666667,-117.33333333333333
1821,134.4,-716.8,-121.6
1822,134.4,-723.2,-128.0
1823,119.46666666666667,-731.7333333333333,-142.93333333333334
1824,123.73333333333333,-736.0,-147.2
1825,130.13333333333333,-748.8,-153.6
1826,125.86666666666666,-742.4,-160.0
1827,130.13333333333333,-748.8,-155.73333333333332
1828,130.13333333333333,-746.6666666666666,-147.2
1829,132.26666666666665,-742.4,-147.2
1830,136.53333333333333,-738.1333333333333,-145.06666666666666
1831,140.8,-725.3333333333334,-142.93333333333334
1832,134.4,-699.7333333333333,-130.13333333333333
1833,160.0,-699.7333333333333,-149.33333333333334
1834,168.53333333333333,-689.0666666666666,-134.4
1835,177.06666666666666,-674.1333333333333,-151.46666666666667
1836,183.46666666666667,-659.2,-151.46666666666667
1837,181.33333333333334,-642.1333333333333,-157.86666666666667
1838,185.6,-633.6,-170.66666666666666
1839,177.06666666666666,-620.8,-174.93333333333334
1840,174.93333333333334,-614.4,-181.33333333333334
1841,170.66666666666666,-618.6666666666666,-181.33333333333334
1842,153.6,-610.1333333333333,-179.2
1843,149.33333333333334,-610.1333333333333,-179.2
1844,138.66666666666666,-614.4,-174.93333333333334
1845,136.53333333333333,-618.6666666666666,-179.2
1846,117.33333333333333,-608.0,-183.46666666666667
1847,117.33333333333333,-618.6666666666666,-187.73333333333332
1848,108.8,-616.5333333333333,-183.46666666666667
1849,100.26666666666667,-612.2666666666667,-192.0
1850,93.86666666666666,-603.7333333333333,-181.33333333333334
1851,81.06666666666666,-593.0666666666666,-177.06666666666666
1852,66.13333333333333,-580.2666666666667,-177.06666666666666
1853,40.53333333333333,-571.7333333333333,-187.73333333333332
1854,46.93333333333333,-554.6666666666666,-185.6
1855,32.0,-535.4666666666667,-194.13333333333333
1856,29.866666666666667,-520.5333333333333,-213.33333333333334
1857,32.0,-507.73333333333335,-213.33333333333334
1858,29.866666666666667,-499.2,-232.53333333333333
1859,36.266666666666666,-494.93333333333334,-238.93333333333334
1860,32.0,-490.6666666666667,-245.33333333333334
1861,27.733333333333334,-490.6666666666667,-256.0
1862,29.866666666666667,-492.8,-264.5333333333333
1863,36.266666666666666,-494.93333333333334,-262.4
1864,34.13333333333333,-497.06666666666666,-264.5333333333333
1865,36.266666666666666,-514.1333333333333,-258.1333333333333
1866,38.4,-518.4,-256.0
1867,32.0,-520.5333333333333,-260.26666666666665
1868,34.13333333333333,-531.2,-243.2
1869,38.4,-531.2,-236.79999999999998
1870,36.266666666666666,-535.4666666666667,-232.53333333333333
1871,40.53333333333333,-535.4666666666667,-224.0
1872,40.53333333333333,-546.1333333333333,-224.0
1873,38.4,-539.7333333333333,-224.0
1874,36.266666666666666,-556.8,-206.93333333333334
1875,36.266666666666666,-533.3333333333334,-226.13333333333333
1876,38.4,-533.3333333333334,-238.93333333333334
1877,34.13333333333333,-533.3333333333334,-236.79999999999998
1878,23.466666666666665,-529.0666666666666,-245.33333333333334
1879,23.466666666666665,-526.9333333333333,-249.6
1880,17.066666666666666,-535.4666666666667,-253.86666666666667
1881,6.4,-544.0,-253.86666666666667
1882,4.266666666666667,-544.0,-262.4
1883,12.8,-556.8,-268.8
1884,6.4,-565.3333333333334,-270.93333333333334
1885,4.266666666666667,-556.8,-285.8666666666667
1886,12.8,-584.5333333333333,-251.73333333333332
1887,10.666666666666666,-590.9333333333333,-245.33333333333334
1888,14.933333333333334,-586.6666666666666,-236.79999999999998
1889,19.2,-595.2,-234.66666666666666
1890,25.6,-593.0666666666666,-236.79999999999998
1891,10.666666666666666,-586.6666666666666,-226.13333333333333
1892,14.933333333333334,-580.2666666666667,-226.13333333333333
1893,6.4,-576.0,-230.4
1894,6.4,-565.3333333333334,-215.46666666666667
1895,6.4,-565.3333333333334,-215.46666666666667
1896,6.4,-550.4,-209.06666666666666
1897,0.0,-556.8,-209.06666666666666
1898,-6.4,-541.8666666666667,-211.2
1899,-17.066666666666666,-531.2,-206.93333333333334
1900,-14.933333333333334,-529.0666666666666,-206.93333333333334
1901,-21.333333333333332,-520.5333333333333,-204.8
1902,-23.466666666666665,-514.1333333333333,-194.13333333333333
1903,-32.0,-501.3333333333333,-202.66666666666666
1904,-32.0,-503.46666666666664,-200.53333333333333
1905,-38.4,-490.6666666666667,-206.93333333333334
1906,-40.53333333333333,-488.5333333333333,-204.8
1907,-36.266666666666666,-484.26666666666665,-209.06666666666666
1908,-40.53333333333333,-469.3333333333333,-209.06666666666666
1909,-38.4,-475.73333333333335,-202.66666666666666
1910,-27.733333333333334,-482.1333333333333,-204.8
1911,-29.866666666666667,-480.0,-202.66666666666666
1912,-19.2,-486.4,-200.53333333333333
1913,-25.6,-486.4,-194.13333333333333
1914,-21.333333333333332,-484.26666666666665,-196.26666666666665
1915,-17.066666666666666,-480.0,-192.0
1916,-4.266666666666667,-484.26666666666665,-192.0
1917,-4.266666666666667,-490.6666666666667,-185.6
1918,-6.4,-477.8666666666667,-170.66666666666666
1919,-6.4,-492.8,-185.6
1920,2.1333333333333333,-494.93333333333334,-181.33333333333334
1921,0.0,-492.8,-183.46666666666667
1922,2.1333333333333333,-499.2,-164.26666666666665
1923,0.0,-492.8,-160.0
1924,0.0,-494.93333333333334,-160.0
1925,4.266666666666667,-494.93333333333334,-155.73333333333332
1926,10.666666666666666,-488.5333333333333,-153.6
1927,2.1333333333333333,-482.1333333333333,-155.73333333333332
1928,4.266666666666667,-475.73333333333335,-157.86666666666667
1929,8.533333333333333,-477.8666666666667,-151.46666666666667
1930,10.666666666666666,-473.59999999999997,-157.86666666666667
1931,6.4,-467.2,-149.33333333333334
1932,8.533333333333333,-465.06666666666666,-151.46666666666667
1933,17.066666666666666,-462.93333333333334,-149.33333333333334
1934,6.4,-456.5333333333333,-151.46666666666667
1935,6.4,-465.06666666666666,-151.46666666666667
1936,10.666666666666666,-462.93333333333334,-142.93333333333334
1937,8.533333333333333,-460.8,-138.66666666666666
1938,8.533333333333333,-462.93333333333334,-140.8
1939,12.8,-458.6666666666667,-136.53333333333333
1940,4.266666666666667,-467.2,-134.4
1941,4.266666666666667,-450.1333333333333,-128.0
1942,2.1333333333333333,-443.73333333333335,-134.4
1943,2.1333333333333333,-452.26666666666665,-132.26666666666665
1944,-4.266666666666667,-452.26666666666665,-125.86666666666666
1945,-8.533333333333333,-448.0,-125.86666666666666
1946,-12.8,-441.59999999999997,-125.86666666666666
1947,-17.066666666666666,-437.3333333333333,-123.73333333333333
1948,-21.333333333333332,-445.8666666666667,-123.73333333333333
1949,-23.466666666666665,-452.26666666666665,-119.46666666666667
1950,-29.866666666666667,-456.5333333333333,-117.33333333333333
1951,-36.266666666666666,-462.93333333333334,-110.93333333333334
1952,-36.266666666666666,-473.59999999999997,-100.26666666666667
1953,-46.93333333333333,-484.26666666666665,-100.26666666666667
1954,-46.93333333333333,-490.6666666666667,-100.26666666666667
1955,-44.8,-488.5333333333333,-87.46666666666667
1956,-46.93333333333333,-507.73333333333335,-89.6
1957,-44.8,-512.0,-85.33333333333333
1958,-38.4,-522.6666666666666,-91.73333333333333
1959,-27.733333333333334,-522.6666666666666,-85.33333333333333
1960,-25.6,-531.2,-78.93333333333334
1961,-14.933333333333334,-531.2,-78.93333333333334
1962,-6.4,-520.5333333333333,-96.0
1963,0.0,-537.6,-85.33333333333333
1964,6.4,-546.1333333333333,-81.06666666666666
1965,6.4,-539.7333333333333,-81.06666666666666
1966,8.533333333333333,-541.8666666666667,-76.8
1967,12.8,-541.8666666666667,-78.93333333333334
1968,12.8,-539.7333333333333,-78.93333333333334
1969,12.8,-546.1333333333333,-81.06666666666666
1970,12.8,-541.8666666666667,-83.2
1971,2.1333333333333333,-537.6,-76.8
1972,21.333333333333332,-537.6,-96.0
1973,-4.266666666666667,-537.6,-76.8
1974,-14.933333333333334,-541.8666666666667,-76.8
1975,-19.2,-541.8666666666667,-72.53333333333333
1976,-27.733333333333334,-544.0,-64.0
1977,-34.13333333333333,-548.2666666666667,-64.0
1978,-42.666666666666664,-548.2666666666667,-57.6
1979,-40.53333333333333,-561.0666666666666,-57.6
1980,-46.93333333333333,-554.6666666666666,-49.06666666666666
1981,-55.46666666666667,-563.2,-36.266666666666666
1982,-61.86666666666667,-567.4666666666667,-36.266666666666666
1983,-78.93333333333334,-548.2666666666667,-55.46666666666667
1984,-78.93333333333334,-565.3333333333334,-32.0
1985,-89.6,-561.0666666666666,-36.266666666666666
1986,-98.13333333333333,-563.2,-42.666666666666664
1987,-100.26666666666667,-556.8,-57.6
1988,-100.26666666666667,-558.9333333333333,-66.13333333333333
1989,-100.26666666666667,-550.4,-91.73333333333333
1990,-110.93333333333334,-552.5333333333333,-102.4
1991,-110.93333333333334,-550.4,-108.8
1992,-117.33333333333333,-556.8,-106.66666666666667
1993,-121.6,-554.6666666666666,-123.73333333333333
1994,-128.0,-565.3333333333334,-123.73333333333333
1995,-128.0,-569.6,-121.6
1996,-125.86666666666666,-593.0666666666666,-121.6
1997,-130.13333333333333,-603.7333333333333,-132.26666666666665
1998,-130.13333333333333,-622.9333333333333,-108.8
1999,-123.73333333333333,-640.0,-119.46666666666667
2000,-121.6,-648.5333333333333,-117.33333333333333
2001,-115.2,-661.3333333333334,-130.13333333333333
2002,-115.2,-663.4666666666667,-138.66666666666666
2003,-98.13333333333333,-669.8666666666667,-142.93333333333334
2004,-87.46666666666667,-669.8666666666667,-157.86666666666667
2005,-93.86666666666666,-659.2,-153.6
2006,-89.6,-665.6,-162.13333333333333
2007,-87.46666666666667,-659.2,-164.26666666666665
2008,-91.73333333333333,-659.2,-160.0
2009,-93.86666666666666,-663.4666666666667,-157.86666666666667
2010,-100.26666666666667,-663.4666666666667,-149.33333333333334
2011,-104.53333333333333,-678.4,-153.6
2012,-104.53333333333333,-684.8,-153.6
2013,-108.8,-693.3333333333334,-132.26666666666665
2014,-117.33333333333333,-695.4666666666667,-136.53333333333333
2015,-115.2,-699.7333333333333,-134.4
2016,-117.33333333333333,-704.0,-138.66666666666666
2017,-115.2,-712.5333333333333,-140.8
2018,-119.46666666666667,-699.7333333333333,-155.73333333333332
2019,-128.0,-701.8666666666667,-160.0
2020,-136.53333333333333,-693.3333333333334,-168.53333333333333
2021,-134.4,-689.0666666666666,-177.06666666666666
2022,-134.4,-682.6666666666666,-177.06666666666666
2023,-130.13333333333333,-674.1333333333333,-187.73333333333332
2024,-130.13333333333333,-663.4666666666667,-187.73333333333332
2025,-121.6,-648.5333333333333,-189.86666666666667
2026,-128.0,-627.2,-194.13333333333333
2027,-113.06666666666666,-627.2,-198.4
2028,-100.26666666666667,-622.9333333333333,-202.66666666666666
2029,-93.86666666666666,-616.5333333333333,-198.4
2030,-91.73333333333333,-599.4666666666667,-202.66666666666666
2031,-83.2,-597.3333333333334,-202.66666666666666
2032,-76.8,-599.4666666666667,-200.53333333333333
2033,-72.53333333333333,-590.9333333333333,-198.4
2034,-66.13333333333333,-590.9333333333333,-200.53333333333333
2035,-59.733333333333334,-593.0666666666666,-206.93333333333334
2036,-57.6,-586.6666666666666,-202.66666666666666
2037,-51.2,-586.6666666666666,-202.66666666666666
2038,-59.733333333333334,-580.2666666666667,-206.93333333333334
2039,-42.666666666666664,-586.6666666666666,-206.93333333333334
2040,-49.06666666666666,-582.4,-224.0
2041,-38.4,-580.2666666666667,-230.4
2042,-42.666666666666664,-578.1333333333333,-241.06666666666666
2043,-46.93333333333333,-573.8666666666667,-247.46666666666667
2044,-46.93333333333333,-571.7333333333333,-243.2
2045,-53.333333333333336,-567.4666666666667,-251.73333333333332
2046,-46.93333333333333,-567.4666666666667,-256.0
2047,-46.93333333333333,-565.3333333333334,-247.46666666666667
2048,-34.13333333333333,-578.1333333333333,-256.0
2049,-40.53333333333333,-567.4666666666667,-253.86666666666667
2050,-34.13333333333333,-558.9333333333333,-253.86666666666667
2051,-34.13333333333333,-554.6666666666666,-251.73333333333332
2052,-21.333333333333332,-546.1333333333333,-247.46666666666667
2053,-25.6,-539.7333333333333,-243.2
2054,-12.8,-533.3333333333334,-241.06666666666666
2055,-19.2,-522.6666666666666,-241.06666666666666
2056,-25.6,-524.8,-247.46666666666667
2057,-23.466666666666665,-516.2666666666667,-241.06666666666666
2058,-27.733333333333334,-505.59999999999997,-245.33333333333334
2059,-29.866666666666667,-507.73333333333335,-243.2
2060,-29.866666666666667,-505.59999999999997,-238.93333333333334
2061,-34.13333333333333,-499.2,-236.79999999999998
2062,-23.466666666666665,-505.59999999999997,-224.0
2063,-29.866666666666667,-505.59999999999997,-209.06666666666666
2064,-27.733333333333334,-507.73333333333335,-209.06666666666666
2065,-27.733333333333334,-505.59999999999997,-198.4
2066,-27.733333333333334,-509.8666666666667,-189.86666666666667
2067,-27.733333333333334,-518.4,-179.2
2068,-14.933333333333334,-533.3333333333334,-170.66666666666666
2069,-23.466666666666665,-524.8,-168.53333333333333
2070,-32.0,-514.1333333333333,-162.13333333333333
2071,-36.266666666666666,-529.0666666666666,-166.4
2072,-36.266666666666666,-526.9333333333333,-162.13333333333333
2073,-36.266666666666666,-520.5333333333333,-162.13333333333333
2074,-27.733333333333334,-520.5333333333333,-168.53333333333333
2075,-29.866666666666667,-520.5333333333333,-174.93333333333334
2076,-21.333333333333332,-522.6666666666666,-166.4
2077,-29.866666666666667,-518.4,-168.53333333333333
2078,-17.066666666666666,-518.4,-174.93333333333334
2079,-14.933333333333334,-518.4,-179.2
2080,0.0,-514.1333333333333,-174.93333333333334
2081,2.1333333333333333,-509.8666666666667,-177.06666666666666
2082,4.266666666666667,-503.46666666666664,-174.93333333333334
2083,10.666666666666666,-501.3333333333333,-181.33333333333334
2084,19.2,-499.2,-179.2
2085,19.2,-488.5333333333333,-181.33333333333334
2086,25.6,-482.1333333333333,-187.73333333333332
2087,29.866666666666667,-482.1333333333333,-187.73333333333332
2088,36.266666666666666,-482.1333333333333,-181.33333333333334
2089,32.0,-477.8666666666667,-177.06666666666666
2090,29.866666666666667,-477.8666666666667,-174.93333333333334
2091,27.733333333333334,-473.59999999999997,-166.4
2092,29.866666666666667,-484.26666666666665,-162.13333333333333
2093,27.733333333333334,-475.73333333333335,-168.53333333333333
2094,25.6,-477.8666666666667,-155.73333333333332
2095,17.066666666666666,-471.46666666666664,-153.6
2096,27.733333333333334,-482.1333333333333,-140.8
2097,23.466666666666665,-486.4,-153.6
2098,12.8,-477.8666666666667,-149.33333333333334
2099,6.4,-490.6666666666667,-138.66666666666666
2100,4.266666666666667,-486.4,-134.4
2101,-14.933333333333334,-482.1333333333333,-140.8
2102,-14.933333333333334,-475.73333333333335,-138.66666666666666
2103,-38.4,-475.73333333333335,-140.8
2104,-44.8,-486.4,-136.53333333333333
2105,-57.6,-488.5333333333333,-142.93333333333334
2106,-64.0,-490.6666666666667,-138.66666666666666
2107,-61.86666666666667,-499.2,-134.4
2108,-76.8,-492.8,-130.13333333333333
2109,-76.8,-499.2,-117.33333333333333
2110,-78.93333333333334,-497.06666666666666,-123.73333333333333
2111,-87.46666666666667,-497.06666666666666,-123.73333333333333
2112,-89.6,-494.93333333333334,-123.73333333333333
2113,-89.6,-488.5333333333333,-121.6
2114,-78.93333333333334,-488.5333333333333,-134.4
2115,-74.66666666666667,-492.8,-128.0
2116,-76.8,-480.0,-134.4
2117,-61.86666666666667,-480.0,-142.93333333333334
2118,-57.6,-488.5333333333333,-149.33333333333334
2119,-44.8,-490.6666666666667,-147.2
2120,-32.0,-492.8,-149.33333333333334
2121,-29.866666666666667,-492.8,-147.2
2122,-12.8,-494.93333333333334,-153.6
2123,-8.533333333333333,-503.46666666666664,-153.6
2124,2.1333333333333333,-505.59999999999997,-149.33333333333334
2125,8.533333333333333,-512.0,-149.33333333333334
2126,8.533333333333333,-507.73333333333335,-149.33333333333334
2127,17.066666666666666,-512.0,-153.6
2128,19.2,-512.0,-157.86666666666667
2129,25.6,-501.3333333333333,-168.53333333333333
2130,27.733333333333334,-501.3333333333333,-157.86666666666667
2131,36.266666666666666,-497.06666666666666,-168.53333333333333
2132,38.4,-492.8,-164.26666666666665
2133,32.0,-486.4,-172.8
2134,59.733333333333334,-482.1333333333333,-162.13333333333333
2135,42.666666666666664,-477.8666666666667,-162.13333333333333
2136,42.666666666666664,-477.8666666666667,-174.93333333333334
2137,44.8,-484.26666666666665,-166.4
2138,38.4,-484.26666666666665,-155.73333333333332
2139,46.93333333333333,-492.8,-149.33333333333334
2140,53.333333333333336,-501.3333333333333,-149.33333333333334
2141,57.6,-522.6666666666666,-136.53333333333333
2142,66.13333333333333,-531.2,-134.4
2143,59.733333333333334,-548.2666666666667,-123.73333333333333
2144,74.66666666666667,-554.6666666666666,-125.86666666666666
2145,78.93333333333334,-567.4666666666667,-128.0
2146,96.0,-571.7333333333333,-128.0
2147,100.26666666666667,-578.1333333333333,-136.53333333333333
2148,104.53333333333333,-590.9333333333333,-142.93333333333334
2149,113.06666666666666,-595.2,-153.6
2150,117.33333333333333,-599.4666666666667,-162.13333333333333
2151,106.66666666666667,-588.8,-179.2
2152,117.33333333333333,-597.3333333333334,-196.26666666666665
2153,119.46666666666667,-595.2,-213.33333333333334
2154,121.6,-599.4666666666667,-226.13333333333333
2155,125.86666666666666,-614.4,-209.06666666666666
2156,125.86666666666666,-620.8,-206.93333333333334
2157,113.06666666666666,-627.2,-196.26666666666665
2158,106.66666666666667,-635.7333333333333,-185.6
2159,91.73333333333333,-644.2666666666667,-162.13333333333333
2160,76.8,-644.2666666666667,-142.93333333333334
2161,61.86666666666667,-646.4,-121.6
2162,38.4,-637.8666666666667,-108.8
2163,23.466666666666665,-631.4666666666667,-98.13333333333333
2164,6.4,-622.9333333333333,-87.46666666666667
2165,0.0,-622.9333333333333,-49.06666666666666
2166,-25.6,-586.6666666666666,-91.73333333333333
2167,-38.4,-580.2666666666667,-106.66666666666667
2168,-59.733333333333334,-556.8,-119.46666666666667
2169,-78.93333333333334,-546.1333333333333,-130.13333333333333
2170,-98.13333333333333,-541.8666666666667,-134.4
2171,-108.8,-537.6,-134.4
2172,-128.0,-535.4666666666667,-130.13333333333333
2173,-115.2,-537.6,-125.86666666666666
2174,-123.73333333333333,-533.3333333333334,-115.2
2175,-123.73333333333333,-526.9333333333333,-98.13333333333333
2176,-110.93333333333334,-531.2,-72.53333333333333
2177,-108.8,-520.5333333333333,-57.6
2178,-104.53333333333333,-509.8666666666667,-38.4
2179,-98.13333333333333,-497.06666666666666,-34.13333333333333
2180,-87.46666666666667,-488.5333333333333,-23.466666666666665
2181,-72.53333333333333,-477.8666666666667,-34.13333333333333
2182,-59.733333333333334,-465.06666666666666,-25.6
2183,-44.8,-456.5333333333333,-36.266666666666666
2184,-27.733333333333334,-458.6666666666667,-38.4
2185,-25.6,-460.8,-40.53333333333333
2186,-10.666666666666666,-473.59999999999997,-44.8
2187,-2.1333333333333333,-492.8,-51.2
2188,-2.1333333333333333,-501.3333333333333,-53.333333333333336
2189,4.266666666666667,-516.2666666666667,-53.333333333333336
2190,0.0,-529.0666666666666,-61.86666666666667
2191,0.0,-546.1333333333333,-70.4
2192,-19.2,-550.4,-76.8
2193,-23.466666666666665,-554.6666666666666,-83.2
2194,-29.866666666666667,-565.3333333333334,-87.46666666666667
2195,-32.0,-569.6,-87.46666666666667
2196,-42.666666666666664,-576.0,-81.06666666666666
2197,-49.06666666666666,-584.5333333333333,-91.73333333333333
2198,-64.0,-571.7333333333333,-81.06666666666666
2199,-66.13333333333333,-578.1333333333333,-78.93333333333334
2200,-76.8,-571.7333333333333,-76.8
2201,-87.46666666666667,-556.8,-72.53333333333333
2202,-89.6,-561.0666666666666,-74.66666666666667
2203,-96.0,-558.9333333333333,-64.0
2204,-98.13333333333333,-561.0666666666666,-70.4
2205,-104.53333333333333,-558.9333333333333,-70.4
2206,-100.26666666666667,-567.4666666666667,-68.26666666666667
2207,-93.86666666666666,-565.3333333333334,-66.13333333333333
2208,-96.0,-563.2,-57.6
2209,-81.06666666666666,-565.3333333333334,-57.6
2210,-72.53333333333333,-558.9333333333333,-49.06666666666666
2211,-66.13333333333333,-558.9333333333333,-53.333333333333336
2212,-57.6,-548.2666666666667,-46.93333333333333
2213,-49.06666666666666,-550.4,-55.46666666666667
2214,-46.93333333333333,-544.0,-51.2
2215,-42.666666666666664,-544.0,-55.46666666666667
2216,-44.8,-537.6,-61.86666666666667
2217,-34.13333333333333,-533.3333333333334,-68.26666666666667
2218,-38.4,-535.4666666666667,-61.86666666666667
2219,-23.466666666666665,-544.0,-76.8
2220,-42.666666666666664,-541.8666666666667,-76.8
2221,-40.53333333333333,-541.8666666666667,-74.66666666666667
2222,-34.13333333333333,-544.0,-64.0
2223,-27.733333333333334,-544.0,-68.26666666666667
2224,-19.2,-550.4,-64.0
2225,-12.8,-546.1333333333333,-57.6
2226,-2.1333333333333333,-548.2666666666667,-53.333333333333336
2227,6.4,-548.2666666666667,-57.6
2228,21.333333333333332,-550.4,-40.53333333333333
2229,17.066666666666666,-550.4,-42.666666666666664
2230,29.866666666666667,-550.4,-36.266666666666666
2231,36.266666666666666,-546.1333333333333,-27.733333333333334
2232,40.53333333333333,-544.0,-27.733333333333334
2233,46.93333333333333,-539.7333333333333,-23.466666666666665
2234,42.666666666666664,-533.3333333333334,-27.733333333333334
2235,46.93333333333333,-533.3333333333334,-29.866666666666667
2236,44.8,-533.3333333333334,-25.6
2237,42.666666666666664,-531.2,-34.13333333333333
2238,38.4,-531.2,-32.0
2239,27.733333333333334,-531.2,-34.13333333333333
2240,6.4,-539.7333333333333,-42.666666666666664
2241,0.0,-544.0,-36.266666666666666
2242,-8.533333333333333,-546.1333333333333,-53.333333333333336
2243,-14.933333333333334,-544.0,-49.06666666666666
2244,-32.0,-548.2666666666667,-49.06666666666666
2245,-42.666666666666664,-548.2666666666667,-40.53333333333333
2246,-49.06666666666666,-554.6666666666666,-51.2
2247,-57.6,-552.5333333333333,-44.8
2248,-70.4,-552.5333333333333,-49.06666666666666
2249,-72.53333333333333,-548.2666666666667,-42.666666666666664
2250,-72.53333333333333,-554.6666666666666,-49.06666666666666
2251,-74.66666666666667,-550.4,-34.13333333333333
2252,-85.33333333333333,-548.2666666666667,-34.13333333333333
2253,-74.66666666666667,-552.5333333333333,-44.8
2254,-68.26666666666667,-550.4,-34.13333333333333
2255,-59.733333333333334,-548.2666666666667,-27.733333333333334
2256,-49.06666666666666,-552.5333333333333,-29.866666666666667
2257,-34.13333333333333,-552.5333333333333,-34.13333333333333
2258,-27.733333333333334,-554.6666666666666,-25.6
2259,-14.933333333333334,-550.4,-21.333333333333332
2260,-10.666666666666666,-558.9333333333333,-19.2
2261,10.666666666666666,-552.5333333333333,-23.466666666666665
2262,0.0,-550.4,-25.6
2263,2.1333333333333333,-548.2666666666667,-19.2
2264,12.8,-548.2666666666667,-12.8
2265,14.933333333333334,-546.1333333333333,-23.466666666666665
2266,14.933333333333334,-548.2666666666667,-19.2
2267,14.933333333333334,-554.6666666666666,-17.066666666666666
2268,19.2,-548.2666666666667,-14.933333333333334
2269,19.2,-544.0,-19.2
2270,21.333333333333332,-544.0,-19.2
2271,27.733333333333334,-541.8666666666667,-12.8
2272,29.866666666666667,-535.4666666666667,-10.666666666666666
2273,27.733333333333334,-535.4666666666667,-21.333333333333332
2274,29.866666666666667,-531.2,-17.066666666666666
2275,27.733333333333334,-524.8,-14.933333333333334
2276,29.866666666666667,-529.0666666666666,-23.466666666666665
2277,34.13333333333333,-531.2,-19.2
2278,34.13333333333333,-535.4666666666667,-23.466666666666665
2279,40.53333333333333,-531.2,-23.466666666666665
2280,46.93333333333333,-535.4666666666667,-21.333333333333332
2281,53.333333333333336,-537.6,-32.0
2282,42.666666666666664,-541.8666666666667,-19.2
2283,57.6,-539.7333333333333,-36.266666666666666
2284,53.333333333333336,-541.8666666666667,-40.53333333333333
2285,66.13333333333333,-548.2666666666667,-29.866666666666667
2286,64.0,-539.7333333333333,-19.2
2287,66.13333333333333,-548.2666666666667,-23.466666666666665
2288,64.0,-548.2666666666667,-29.866666666666667
2289,68.26666666666667,-554.6666666666666,-27.733333333333334
2290,64.0,-552.5333333333333,-23.466666666666665
2291,64.0,-556.8,-29.866666666666667
2292,61.86666666666667,-563.2,-23.466666666666665
2293,66.13333333333333,-567.4666666666667,-21.333333333333332
2294,68.26666666666667,-569.6,-27.733333333333334
2295,61.86666666666667,-567.4666666666667,-23.466666666666665
2296,64.0,-582.4,-17.066666666666666
2297,59.733333333333334,-578.1333333333333,-14.933333333333334
2298,61.86666666666667,-576.0,-17.066666666666666
2299,59.733333333333334,-584.5333333333333,-12.8
2300,59.733333333333334,-578.1333333333333,-6.4
2301,59.733333333333334,-580.2666666666667,-21.333333333333332
2302,61.86666666666667,-580.2666666666667,-14.933333333333334
2303,55.46666666666667,-578.1333333333333,-14.933333333333334
2304,40.53333333333333,-586.6666666666666,-6.4
2305,38.4,-578.1333333333333,-8.533333333333333
2306,36.266666666666666,-569.6,-14.933333333333334
2307,34.13333333333333,-569.6,-14.933333333333334
2308,23.466666666666665,-561.0666666666666,-17.066666666666666
2309,17.066666666666666,-563.2,-12.8
2310,17.066666666666666,-554.6666666666666,-14.933333333333334
2311,4.266666666666667,-552.5333333333333,-21.333333333333332
2312,4.266666666666667,-558.9333333333333,-32.0
2313,2.1333333333333333,-556.8,-23.466666666666665
2314,0.0,-556.8,-17.066666666666666
2315,0.0,-556.8,-25.6
2316,-2.1333333333333333,-552.5333333333333,-19.2
2317,-8.533333333333333,-554.6666666666666,-17.066666666666666
2318,-17.066666666666666,-552.5333333333333,-14.933333333333334
2319,-8.533333333333333,-548.2666666666667,0.0
2320,-17.066666666666666,-544.0,0.0
2321,-19.2,-535.4666666666667,-6.4
2322,-8.533333333333333,-535.4666666666667,-4.266666666666667
2323,-14.933333333333334,-522.6666666666666,-6.4
2324,-14.933333333333334,-524.8,-6.4
2325,-12.8,-516.2666666666667,-6.4
2326,-6.4,-526.9333333333333,-8.533333333333333
2327,-2.1333333333333333,-522.6666666666666,-8.533333333333333
2328,-4.266666666666667,-518.4,-6.4
2329,-6.4,-514.1333333333333,-10.666666666666666
2330,-10.666666666666666,-524.8,-6.4
2331,-12.8,-524.8,-10.666666666666666
2332,0.0,-526.9333333333333,-6.4
2333,0.0,-533.3333333333334,0.0
2334,-2.1333333333333333,-537.6,-12.8
2335,0.0,-546.1333333333333,-4.266666666666667
2336,0.0,-544.0,-10.666666666666666
2337,0.0,-548.2666666666667,-4.266666666666667
2338,0.0,-550.4,-6.4
2339,-6.4,-554.6666666666666,-2.1333333333333333
2340,-4.266666666666667,-558.9333333333333,2.1333333333333333
2341,-2.1333333333333333,-556.8,2.1333333333333333
2342,-6.4,-558.9333333333333,-4.266666666666667
2343,-4.266666666666667,-567.4666666666667,4.266666666666667
2344,-10.666666666666666,-558.9333333333333,6.4
2345,-10.666666666666666,-556.8,4.266666666666667
2346,-10.666666666666666,-550.4,0.0
2347,-8.533333333333333,-554.6666666666666,-12.8
2348,-8.533333333333333,-554.6666666666666,-4.266666666666667
2349,-6.4,-556.8,-10.666666666666666
2350,-8.533333333333333,-550.4,-10.666666666666666
2351,-4.266666666666667,-554.6666666666666,0.0
2352,-6.4,-558.9333333333333,-4.266666666666667
2353,-2.1333333333333333,-556.8,0.0
2354,-8.533333333333333,-561.0666666666666,4.266666666666667
2355,-12.8,-558.9333333333333,0.0
2356,-17.066666666666666,-563.2,6.4
2357,-25.6,-546.1333333333333,-17.066666666666666
2358,-17.066666666666666,-558.9333333333333,-2.1333333333333333
2359,-21.333333333333332,-556.8,8.533333333333333
2360,-17.066666666666666,-563.2,-2.1333333333333333
2361,-19.2,-563.2,-4.266666666666667
2362,-21.333333333333332,-554.6666666666666,0.0
2363,-25.6,-561.0666666666666,0.0
2364,-19.2,-556.8,0.0
2365,-12.8,-552.5333333333333,-2.1333333333333333
2366,-8.533333333333333,-561.0666666666666,-8.533333333333333
2367,-8.533333333333333,-554.6666666666666,-4.266666666666667
2368,-8.533333333333333,-558.9333333333333,2.1333333333333333
2369,0.0,-558.9333333333333,2.1333333333333333
2370,2.1333333333333333,-556.8,2.1333333333333333
2371,0.0,-554.6666666666666,2.1333333333333333
2372,2.1333333333333333,-554.6666666666666,0.0
2373,0.0,-556.8,4.266666666666667
2374,-2.1333333333333333,-552.5333333333333,2.1333333333333333
2375,0.0,-558.9333333333333,8.533333333333333
2376,-4.266666666666667,-548.2666666666667,6.4
2377,-8.533333333333333,-546.1333333333333,2.1333333333333333
2378,-6.4,-548.2666666666667,2.1333333333333333
2379,-6.4,-548.2666666666667,0.0
2380,2.1333333333333333,-546.1333333333333,12.8
2381,-2.1333333333333333,-546.1333333333333,8.533333333333333
2382,-4.266666666666667,-548.2666666666667,2.1333333333333333
2383,8.533333333333333,-556.8,-2.1333333333333333
2384,0.0,-554.6666666666666,4.266666666666667
2385,10.666666666666666,-571.7333333333333,4.266666666666667
2386,17.066666666666666,-573.8666666666667,0.0
2387,17.066666666666666,-586.6666666666666,-12.8
2388,19.2,-595.2,-23.466666666666665
2389,17.066666666666666,-610.1333333333333,-25.6
2390,19.2,-622.9333333333333,-29.866666666666667
2391,23.466666666666665,-640.0,-36.266666666666666
2392,25.6,-648.5333333333333,-42.666666666666664
2393,34.13333333333333,-652.8,-34.13333333333333
2394,32.0,-659.2,-23.466666666666665
2395,34.13333333333333,-646.4,-21.333333333333332
2396,29.866666666666667,-640.0,0.0
2397,29.866666666666667,-622.9333333333333,-2.1333333333333333
2398,17.066666666666666,-597.3333333333334,-6.4
2399,8.533333333333333,-578.1333333333333,-2.1333333333333333
2400,-2.1333333333333333,-554.6666666666666,-10.666666666666666
2401,0.0,-541.8666666666667,-21.333333333333332
2402,-21.333333333333332,-522.6666666666666,-34.13333333333333
2403,-25.6,-501.3333333333333,-38.4
2404,-36.266666666666666,-486.4,-46.93333333333333
2405,-40.53333333333333,-467.2,-40.53333333333333
2406,-38.4,-473.59999999999997,-38.4
2407,-42.666666666666664,-465.06666666666666,-29.866666666666667
2408,-46.93333333333333,-462.93333333333334,-38.4
2409,-40.53333333333333,-469.3333333333333,-27.733333333333334
2410,-36.266666666666666,-480.0,-10.666666666666666
2411,-29.866666666666667,-490.6666666666667,-10.666666666666666
2412,-25.6,-503.46666666666664,0.0
