,accelerometerAccelerationX(G),accelerometerAccelerationY(G),accelerometerAccelerationZ(G)
0,57.6,-518.4,-185.6
1,55.46666666666667,-516.2666666666667,-183.46666666666667
2,57.6,-516.2666666666667,-177.06666666666666
3,55.46666666666667,-516.2666666666667,-174.93333333333334
4,66.13333333333333,-516.2666666666667,-187.73333333333332
5,55.46666666666667,-509.8666666666667,-177.06666666666666
6,53.333333333333336,-516.2666666666667,-187.73333333333332
7,51.2,-512.0,-170.66666666666666
8,51.2,-509.8666666666667,-164.26666666666665
9,49.06666666666666,-516.2666666666667,-174.93333333333334
10,61.86666666666667,-518.4,-174.93333333333334
11,51.2,-516.2666666666667,-172.8
12,59.733333333333334,-516.2666666666667,-174.93333333333334
13,55.46666666666667,-512.0,-179.2
14,57.6,-516.2666666666667,-170.66666666666666
15,55.46666666666667,-518.4,-172.8
16,57.6,-518.4,-179.2
17,55.46666666666667,-514.1333333333333,-170.66666666666666
18,55.46666666666667,-509.8666666666667,-168.53333333333333
19,55.46666666666667,-520.5333333333333,-174.93333333333334
20,59.733333333333334,-516.2666666666667,-174.93333333333334
21,57.6,-516.2666666666667,-177.06666666666666
22,55.46666666666667,-520.5333333333333,-177.06666666666666
23,46.93333333333333,-533.3333333333334,-183.46666666666667
24,55.46666666666667,-526.9333333333333,-168.53333333333333
25,42.666666666666664,-514.1333333333333,-204.8
26,59.733333333333334,-501.3333333333333,-155.73333333333332
27,44.8,-518.4,-179.2
28,51.2,-529.0666666666666,-185.6
29,51.2,-505.59999999999997,-192.0
30,51.2,-522.6666666666666,-187.73333333333332
31,59.733333333333334,-524.8,-181.33333333333334
32,49.06666666666666,-509.8666666666667,-185.6
33,36.266666666666666,-520.5333333333333,-189.86666666666667
34,40.53333333333333,-512.0,-194.13333333333333
35,64.0,-505.59999999999997,-155.73333333333332
36,44.8,-531.2,-196.26666666666665
37,53.333333333333336,-516.2666666666667,-174.93333333333334
38,59.733333333333334,-514.1333333333333,-168.53333333333333
39,87.46666666666667,-490.6666666666667,-149.33333333333334
40,57.6,-522.6666666666666,-172.8
41,59.733333333333334,-516.2666666666667,-170.66666666666666
42,55.46666666666667,-514.1333333333333,-172.8
43,55.46666666666667,-518.4,-174.93333333333334
44,46.93333333333333,-512.0,-170.66666666666666
45,49.06666666666666,-518.4,-181.33333333333334
46,53.333333333333336,-520.5333333333333,-181.33333333333334
47,51.2,-524.8,-181.33333333333334
48,49.06666666666666,-516.2666666666667,-172.8
49,59.733333333333334,-520.5333333333333,-170.66666666666666
50,46.93333333333333,-516.2666666666667,-174.93333333333334
51,49.06666666666666,-522.6666666666666,-172.8
52,53.333333333333336,-522.6666666666666,-168.53333333333333
53,59.733333333333334,-518.4,-174.93333333333334
54,57.6,-520.5333333333333,-170.66666666666666
55,46.93333333333333,-526.9333333333333,-177.06666666666666
56,61.86666666666667,-526.9333333333333,-177.06666666666666
57,61.86666666666667,-526.9333333333333,-172.8
58,61.86666666666667,-526.9333333333333,-172.8
59,57.6,-522.6666666666666,-170.66666666666666
60,53.333333333333336,-522.6666666666666,-172.8
61,59.733333333333334,-526.9333333333333,-172.8
62,57.6,-520.5333333333333,-168.53333333333333
63,53.333333333333336,-522.6666666666666,-172.8
64,51.2,-522.6666666666666,-160.0
65,57.6,-524.8,-168.53333333333333
66,61.86666666666667,-520.5333333333333,-170.66666666666666
67,49.06666666666666,-514.1333333333333,-172.8
68,59.733333333333334,-522.6666666666666,-172.8
69,53.333333333333336,-507.73333333333335,-172.8
70,53.333333333333336,-514.1333333333333,-179.2
71,53.333333333333336,-512.0,-177.06666666666666
72,51.2,-516.2666666666667,-177.06666666666666
73,49.06666666666666,-514.1333333333333,-170.66666666666666
74,51.2,-509.8666666666667,-179.2
75,59.733333333333334,-512.0,-177.06666666666666
76,44.8,-512.0,-174.93333333333334
77,51.2,-512.0,-174.93333333333334
78,51.2,-509.8666666666667,-177.06666666666666
79,49.06666666666666,-514.1333333333333,-177.06666666666666
80,55.46666666666667,-516.2666666666667,-166.4
81,49.06666666666666,-512.0,-170.66666666666666
82,55.46666666666667,-520.5333333333333,-166.4
83,53.333333333333336,-516.2666666666667,-174.93333333333334
84,51.2,-526.9333333333333,-172.8
85,53.333333333333336,-518.4,-172.8
86,55.46666666666667,-524.8,-177.06666666666666
87,55.46666666666667,-522.6666666666666,-172.8
88,53.333333333333336,-520.5333333333333,-172.8
89,53.333333333333336,-522.6666666666666,-179.2
90,53.333333333333336,-526.9333333333333,-181.33333333333334
91,51.2,-522.6666666666666,-177.06666666666666
92,55.46666666666667,-520.5333333333333,-183.46666666666667
93,51.2,-518.4,-164.26666666666665
94,49.06666666666666,-516.2666666666667,-179.2
95,53.333333333333336,-520.5333333333333,-174.93333333333334
96,49.06666666666666,-507.73333333333335,-181.33333333333334
97,57.6,-518.4,-166.4
98,53.333333333333336,-507.73333333333335,-177.06666666666666
99,51.2,-516.2666666666667,-172.8
100,51.2,-514.1333333333333,-172.8
101,53.333333333333336,-518.4,-185.6
102,51.2,-516.2666666666667,-177.06666666666666
103,55.46666666666667,-514.1333333333333,-181.33333333333334
104,55.46666666666667,-514.1333333333333,-181.33333333333334
105,55.46666666666667,-514.1333333333333,-174.93333333333334
106,57.6,-512.0,-183.46666666666667
107,53.333333333333336,-512.0,-179.2
108,53.333333333333336,-516.2666666666667,-183.46666666666667
109,53.333333333333336,-516.2666666666667,-185.6
110,51.2,-516.2666666666667,-181.33333333333334
111,59.733333333333334,-522.6666666666666,-177.06666666666666
112,53.333333333333336,-522.6666666666666,-174.93333333333334
113,49.06666666666666,-516.2666666666667,-177.06666666666666
114,55.46666666666667,-518.4,-181.33333333333334
115,55.46666666666667,-522.6666666666666,-170.66666666666666
116,49.06666666666666,-518.4,-170.66666666666666
117,53.333333333333336,-512.0,-174.93333333333334
118,49.06666666666666,-518.4,-174.93333333333334
119,53.333333333333336,-522.6666666666666,-179.2
120,53.333333333333336,-516.2666666666667,-174.93333333333334
121,53.333333333333336,-516.2666666666667,-172.8
122,53.333333333333336,-516.2666666666667,-172.8
123,51.2,-522.6666666666666,-185.6
124,51.2,-516.2666666666667,-174.93333333333334
125,46.93333333333333,-516.2666666666667,-174.93333333333334
126,51.2,-512.0,-177.06666666666666
127,49.06666666666666,-516.2666666666667,-179.2
128,57.6,-522.6666666666666,-179.2
129,49.06666666666666,-516.2666666666667,-179.2
130,46.93333333333333,-509.8666666666667,-185.6
131,42.666666666666664,-512.0,-179.2
132,46.93333333333333,-514.1333333333333,-181.33333333333334
133,49.06666666666666,-518.4,-177.06666666666666
134,51.2,-520.5333333333333,-183.46666666666667
135,51.2,-522.6666666666666,-179.2
136,51.2,-516.2666666666667,-179.2
137,49.06666666666666,-516.2666666666667,-181.33333333333334
138,49.06666666666666,-512.0,-174.93333333333334
139,51.2,-518.4,-166.4
140,53.333333333333336,-512.0,-170.66666666666666
141,49.06666666666666,-512.0,-174.93333333333334
142,49.06666666666666,-512.0,-179.2
143,53.333333333333336,-518.4,-183.46666666666667
144,49.06666666666666,-514.1333333333333,-174.93333333333334
145,49.06666666666666,-518.4,-172.8
146,53.333333333333336,-520.5333333333333,-174.93333333333334
147,53.333333333333336,-514.1333333333333,-177.06666666666666
148,59.733333333333334,-516.2666666666667,-185.6
149,53.333333333333336,-514.1333333333333,-172.8
150,46.93333333333333,-516.2666666666667,-177.06666666666666
151,55.46666666666667,-520.5333333333333,-177.06666666666666
152,51.2,-512.0,-168.53333333333333
153,55.46666666666667,-516.2666666666667,-174.93333333333334
154,53.333333333333336,-518.4,-181.33333333333334
155,51.2,-507.73333333333335,-177.06666666666666
156,44.8,-512.0,-177.06666666666666
157,57.6,-516.2666666666667,-179.2
158,59.733333333333334,-509.8666666666667,-177.06666666666666
159,49.06666666666666,-512.0,-183.46666666666667
160,55.46666666666667,-512.0,-172.8
161,49.06666666666666,-514.1333333333333,-183.46666666666667
162,53.333333333333336,-518.4,-183.46666666666667
163,55.46666666666667,-520.5333333333333,-174.93333333333334
164,49.06666666666666,-514.1333333333333,-183.46666666666667
165,46.93333333333333,-518.4,-181.33333333333334
166,49.06666666666666,-514.1333333333333,-181.33333333333334
167,44.8,-514.1333333333333,-179.2
168,55.46666666666667,-514.1333333333333,-181.33333333333334
169,49.06666666666666,-516.2666666666667,-181.33333333333334
170,49.06666666666666,-518.4,-179.2
171,44.8,-516.2666666666667,-177.06666666666666
172,46.93333333333333,-512.0,-181.33333333333334
173,49.06666666666666,-516.2666666666667,-177.06666666666666
174,46.93333333333333,-522.6666666666666,-179.2
175,42.666666666666664,-516.2666666666667,-177.06666666666666
176,55.46666666666667,-518.4,-177.06666666666666
177,46.93333333333333,-514.1333333333333,-172.8
178,49.06666666666666,-514.1333333333333,-170.66666666666666
179,53.333333333333336,-514.1333333333333,-185.6
180,53.333333333333336,-520.5333333333333,-187.73333333333332
181,53.333333333333336,-520.5333333333333,-179.2
182,51.2,-516.2666666666667,-187.73333333333332
183,49.06666666666666,-514.1333333333333,-183.46666666666667
184,55.46666666666667,-514.1333333333333,-183.46666666666667
185,55.46666666666667,-520.5333333333333,-185.6
186,46.93333333333333,-516.2666666666667,-181.33333333333334
187,53.333333333333336,-518.4,-187.73333333333332
188,57.6,-524.8,-179.2
189,53.333333333333336,-514.1333333333333,-194.13333333333333
190,51.2,-520.5333333333333,-187.73333333333332
191,49.06666666666666,-516.2666666666667,-187.73333333333332
192,46.93333333333333,-512.0,-187.73333333333332
193,46.93333333333333,-516.2666666666667,-185.6
194,49.06666666666666,-512.0,-183.46666666666667
195,51.2,-516.2666666666667,-187.73333333333332
196,51.2,-509.8666666666667,-194.13333333333333
197,51.2,-505.59999999999997,-183.46666666666667
198,53.333333333333336,-514.1333333333333,-185.6
199,51.2,-516.2666666666667,-179.2
200,55.46666666666667,-516.2666666666667,-187.73333333333332
201,57.6,-516.2666666666667,-177.06666666666666
202,49.06666666666666,-516.2666666666667,-187.73333333333332
203,51.2,-509.8666666666667,-187.73333333333332
204,46.93333333333333,-516.2666666666667,-177.06666666666666
205,49.06666666666666,-514.1333333333333,-177.06666666666666
206,46.93333333333333,-522.6666666666666,-185.6
207,46.93333333333333,-512.0,-187.73333333333332
208,51.2,-514.1333333333333,-187.73333333333332
209,49.06666666666666,-518.4,-179.2
210,57.6,-509.8666666666667,-192.0
211,51.2,-512.0,-185.6
212,46.93333333333333,-516.2666666666667,-183.46666666666667
213,53.333333333333336,-514.1333333333333,-185.6
214,51.2,-512.0,-185.6
215,51.2,-520.5333333333333,-181.33333333333334
216,53.333333333333336,-512.0,-189.86666666666667
217,49.06666666666666,-512.0,-174.93333333333334
218,51.2,-514.1333333333333,-187.73333333333332
219,51.2,-509.8666666666667,-181.33333333333334
220,51.2,-516.2666666666667,-189.86666666666667
221,53.333333333333336,-512.0,-187.73333333333332
222,57.6,-520.5333333333333,-183.46666666666667
223,57.6,-514.1333333333333,-185.6
224,46.93333333333333,-516.2666666666667,-183.46666666666667
225,55.46666666666667,-514.1333333333333,-183.46666666666667
226,55.46666666666667,-518.4,-181.33333333333334
227,53.333333333333336,-522.6666666666666,-183.46666666666667
228,49.06666666666666,-518.4,-183.46666666666667
229,46.93333333333333,-522.6666666666666,-187.73333333333332
230,55.46666666666667,-518.4,-189.86666666666667
231,49.06666666666666,-516.2666666666667,-192.0
232,51.2,-509.8666666666667,-194.13333333333333
233,53.333333333333336,-520.5333333333333,-179.2
234,55.46666666666667,-512.0,-183.46666666666667
235,46.93333333333333,-512.0,-189.86666666666667
236,53.333333333333336,-509.8666666666667,-183.46666666666667
237,51.2,-516.2666666666667,-174.93333333333334
238,51.2,-514.1333333333333,-185.6
239,53.333333333333336,-512.0,-181.33333333333334
240,53.333333333333336,-514.1333333333333,-179.2
241,53.333333333333336,-514.1333333333333,-181.33333333333334
242,49.06666666666666,-516.2666666666667,-189.86666666666667
243,55.46666666666667,-518.4,-192.0
244,55.46666666666667,-516.2666666666667,-187.73333333333332
245,46.93333333333333,-514.1333333333333,-189.86666666666667
246,51.2,-516.2666666666667,-187.73333333333332
247,53.333333333333336,-514.1333333333333,-192.0
248,55.46666666666667,-509.8666666666667,-192.0
249,49.06666666666666,-512.0,-187.73333333333332
250,46.93333333333333,-512.0,-187.73333333333332
251,57.6,-509.8666666666667,-187.73333333333332
252,49.06666666666666,-509.8666666666667,-187.73333333333332
253,53.333333333333336,-514.1333333333333,-185.6
254,51.2,-516.2666666666667,-181.33333333333334
255,49.06666666666666,-514.1333333333333,-192.0
256,44.8,-514.1333333333333,-181.33333333333334
257,55.46666666666667,-518.4,-185.6
258,46.93333333333333,-507.73333333333335,-192.0
259,44.8,-509.8666666666667,-189.86666666666667
260,46.93333333333333,-509.8666666666667,-189.86666666666667
261,49.06666666666666,-509.8666666666667,-181.33333333333334
262,51.2,-507.73333333333335,-185.6
263,53.333333333333336,-512.0,-181.33333333333334
264,49.06666666666666,-514.1333333333333,-185.6
265,53.333333333333336,-514.1333333333333,-189.86666666666667
266,49.06666666666666,-512.0,-185.6
267,53.333333333333336,-512.0,-179.2
268,55.46666666666667,-512.0,-183.46666666666667
269,51.2,-518.4,-181.33333333333334
270,53.333333333333336,-512.0,-185.6
271,51.2,-518.4,-185.6
272,49.06666666666666,-516.2666666666667,-181.33333333333334
273,53.333333333333336,-518.4,-174.93333333333334
274,55.46666666666667,-516.2666666666667,-179.2
275,55.46666666666667,-509.8666666666667,-185.6
276,57.6,-520.5333333333333,-185.6
277,49.06666666666666,-512.0,-185.6
278,55.46666666666667,-514.1333333333333,-185.6
279,51.2,-514.1333333333333,-189.86666666666667
280,53.333333333333336,-520.5333333333333,-194.13333333333333
281,53.333333333333336,-514.1333333333333,-189.86666666666667
282,53.333333333333336,-512.0,-185.6
283,49.06666666666666,-512.0,-183.46666666666667
284,49.06666666666666,-516.2666666666667,-183.46666666666667
285,51.2,-518.4,-189.86666666666667
286,49.06666666666666,-509.8666666666667,-185.6
287,51.2,-516.2666666666667,-177.06666666666666
288,49.06666666666666,-514.1333333333333,-181.33333333333334
289,55.46666666666667,-509.8666666666667,-185.6
290,46.93333333333333,-509.8666666666667,-183.46666666666667
291,53.333333333333336,-507.73333333333335,-189.86666666666667
292,49.06666666666666,-512.0,-185.6
293,49.06666666666666,-507.73333333333335,-179.2
294,51.2,-514.1333333333333,-185.6
295,38.4,-509.8666666666667,-172.8
296,49.06666666666666,-512.0,-179.2
297,53.333333333333336,-514.1333333333333,-185.6
298,51.2,-512.0,-179.2
299,53.333333333333336,-516.2666666666667,-192.0
300,53.333333333333336,-518.4,-174.93333333333334
301,49.06666666666666,-514.1333333333333,-183.46666666666667
302,55.46666666666667,-509.8666666666667,-185.6
303,49.06666666666666,-512.0,-187.73333333333332
304,59.733333333333334,-509.8666666666667,-185.6
305,53.333333333333336,-514.1333333333333,-185.6
306,51.2,-516.2666666666667,-194.13333333333333
307,53.333333333333336,-514.1333333333333,-181.33333333333334
308,57.6,-516.2666666666667,-181.33333333333334
309,61.86666666666667,-518.4,-179.2
310,53.333333333333336,-520.5333333333333,-183.46666666666667
311,57.6,-516.2666666666667,-187.73333333333332
312,57.6,-516.2666666666667,-187.73333333333332
313,55.46666666666667,-518.4,-189.86666666666667
314,57.6,-520.5333333333333,-187.73333333333332
315,53.333333333333336,-516.2666666666667,-187.73333333333332
316,53.333333333333336,-514.1333333333333,-183.46666666666667
317,57.6,-520.5333333333333,-177.06666666666666
318,49.06666666666666,-509.8666666666667,-183.46666666666667
319,46.93333333333333,-518.4,-194.13333333333333
320,51.2,-516.2666666666667,-185.6
321,49.06666666666666,-516.2666666666667,-185.6
322,49.06666666666666,-514.1333333333333,-183.46666666666667
323,55.46666666666667,-520.5333333333333,-189.86666666666667
324,53.333333333333336,-516.2666666666667,-185.6
325,49.06666666666666,-512.0,-174.93333333333334
326,53.333333333333336,-516.2666666666667,-179.2
327,44.8,-514.1333333333333,-185.6
328,49.06666666666666,-509.8666666666667,-183.46666666666667
329,57.6,-509.8666666666667,-185.6
330,57.6,-509.8666666666667,-177.06666666666666
331,46.93333333333333,-512.0,-177.06666666666666
332,51.2,-512.0,-187.73333333333332
333,51.2,-509.8666666666667,-187.73333333333332
334,53.333333333333336,-509.8666666666667,-185.6
335,53.333333333333336,-514.1333333333333,-185.6
336,53.333333333333336,-514.1333333333333,-179.2
337,51.2,-512.0,-187.73333333333332
338,51.2,-516.2666666666667,-181.33333333333334
339,44.8,-509.8666666666667,-183.46666666666667
340,44.8,-512.0,-187.73333333333332
341,51.2,-507.73333333333335,-194.13333333333333
342,57.6,-512.0,-185.6
343,59.733333333333334,-514.1333333333333,-192.0
344,53.333333333333336,-518.4,-189.86666666666667
345,51.2,-514.1333333333333,-185.6
346,53.333333333333336,-514.1333333333333,-194.13333333333333
347,53.333333333333336,-518.4,-189.86666666666667
348,51.2,-512.0,-189.86666666666667
349,51.2,-520.5333333333333,-196.26666666666665
350,53.333333333333336,-509.8666666666667,-185.6
351,46.93333333333333,-507.73333333333335,-192.0
352,55.46666666666667,-509.8666666666667,-200.53333333333333
353,55.46666666666667,-516.2666666666667,-185.6
354,46.93333333333333,-509.8666666666667,-189.86666666666667
355,49.06666666666666,-509.8666666666667,-192.0
356,59.733333333333334,-514.1333333333333,-194.13333333333333
357,53.333333333333336,-514.1333333333333,-192.0
358,44.8,-512.0,-183.46666666666667
359,53.333333333333336,-516.2666666666667,-189.86666666666667
360,51.2,-512.0,-192.0
361,49.06666666666666,-512.0,-183.46666666666667
362,51.2,-507.73333333333335,-192.0
363,51.2,-505.59999999999997,-187.73333333333332
364,49.06666666666666,-514.1333333333333,-194.13333333333333
365,53.333333333333336,-514.1333333333333,-189.86666666666667
366,51.2,-509.8666666666667,-189.86666666666667
367,53.333333333333336,-505.59999999999997,-189.86666666666667
368,51.2,-505.59999999999997,-187.73333333333332
369,57.6,-512.0,-198.4
370,53.333333333333336,-512.0,-194.13333333333333
371,53.333333333333336,-512.0,-189.86666666666667
372,59.733333333333334,-512.0,-187.73333333333332
373,59.733333333333334,-514.1333333333333,-187.73333333333332
374,53.333333333333336,-516.2666666666667,-187.73333333333332
375,49.06666666666666,-509.8666666666667,-200.53333333333333
376,55.46666666666667,-518.4,-187.73333333333332
377,53.333333333333336,-512.0,-187.73333333333332
378,55.46666666666667,-522.6666666666666,-196.26666666666665
379,59.733333333333334,-516.2666666666667,-192.0
380,51.2,-514.1333333333333,-187.73333333333332
381,57.6,-516.2666666666667,-194.13333333333333
382,21.333333333333332,-509.8666666666667,-155.73333333333332
383,55.46666666666667,-509.8666666666667,-185.6
384,53.333333333333336,-509.8666666666667,-187.73333333333332
385,51.2,-516.2666666666667,-192.0
386,49.06666666666666,-509.8666666666667,-187.73333333333332
387,53.333333333333336,-512.0,-198.4
388,57.6,-518.4,-185.6
389,53.333333333333336,-507.73333333333335,-198.4
390,53.333333333333336,-509.8666666666667,-189.86666666666667
391,51.2,-514.1333333333333,-198.4
392,51.2,-514.1333333333333,-192.0
393,53.333333333333336,-516.2666666666667,-183.46666666666667
394,49.06666666666666,-507.73333333333335,-196.26666666666665
395,51.2,-509.8666666666667,-192.0
396,53.333333333333336,-509.8666666666667,-187.73333333333332
397,55.46666666666667,-507.73333333333335,-194.13333333333333
398,51.2,-509.8666666666667,-198.4
399,55.46666666666667,-507.73333333333335,-192.0
400,53.333333333333336,-509.8666666666667,-187.73333333333332
401,55.46666666666667,-507.73333333333335,-202.66666666666666
402,53.333333333333336,-512.0,-189.86666666666667
403,53.333333333333336,-507.73333333333335,-198.4
404,55.46666666666667,-507.73333333333335,-196.26666666666665
405,55.46666666666667,-509.8666666666667,-192.0
406,51.2,-509.8666666666667,-192.0
407,49.06666666666666,-505.59999999999997,-192.0
408,51.2,-507.73333333333335,-192.0
409,53.333333333333336,-503.46666666666664,-196.26666666666665
410,53.333333333333336,-503.46666666666664,-198.4
411,49.06666666666666,-507.73333333333335,-198.4
412,44.8,-505.59999999999997,-192.0
413,44.8,-509.8666666666667,-194.13333333333333
414,49.06666666666666,-514.1333333333333,-194.13333333333333
415,49.06666666666666,-514.1333333333333,-198.4
416,59.733333333333334,-509.8666666666667,-194.13333333333333
417,55.46666666666667,-518.4,-194.13333333333333
418,51.2,-509.8666666666667,-202.66666666666666
419,53.333333333333336,-509.8666666666667,-189.86666666666667
420,51.2,-509.8666666666667,-196.26666666666665
421,57.6,-514.1333333333333,-194.13333333333333
422,49.06666666666666,-507.73333333333335,-196.26666666666665
423,51.2,-509.8666666666667,-192.0
424,51.2,-509.8666666666667,-198.4
425,51.2,-507.73333333333335,-196.26666666666665
426,51.2,-509.8666666666667,-196.26666666666665
427,53.333333333333336,-509.8666666666667,-196.26666666666665
428,46.93333333333333,-514.1333333333333,-196.26666666666665
429,55.46666666666667,-505.59999999999997,-198.4
430,51.2,-507.73333333333335,-196.26666666666665
431,49.06666666666666,-507.73333333333335,-187.73333333333332
432,51.2,-501.3333333333333,-202.66666666666666
433,51.2,-505.59999999999997,-189.86666666666667
434,53.333333333333336,-507.73333333333335,-196.26666666666665
435,49.06666666666666,-507.73333333333335,-196.26666666666665
436,42.666666666666664,-512.0,-192.0
437,55.46666666666667,-507.73333333333335,-189.86666666666667
438,55.46666666666667,-516.2666666666667,-196.26666666666665
439,53.333333333333336,-516.2666666666667,-189.86666666666667
440,55.46666666666667,-516.2666666666667,-198.4
441,46.93333333333333,-509.8666666666667,-202.66666666666666
442,55.46666666666667,-516.2666666666667,-202.66666666666666
443,49.06666666666666,-514.1333333333333,-202.66666666666666
444,51.2,-514.1333333333333,-204.8
445,57.6,-518.4,-204.8
446,49.06666666666666,-507.73333333333335,-211.2
447,53.333333333333336,-512.0,-200.53333333333333
448,57.6,-509.8666666666667,-209.06666666666666
449,55.46666666666667,-516.2666666666667,-209.06666666666666
450,53.333333333333336,-505.59999999999997,-200.53333333333333
451,51.2,-507.73333333333335,-198.4
452,55.46666666666667,-505.59999999999997,-204.8
453,51.2,-503.46666666666664,-202.66666666666666
454,51.2,-509.8666666666667,-202.66666666666666
455,51.2,-505.59999999999997,-213.33333333333334
456,46.93333333333333,-505.59999999999997,-206.93333333333334
457,51.2,-499.2,-204.8
458,51.2,-501.3333333333333,-217.6
459,46.93333333333333,-497.06666666666666,-219.73333333333332
460,53.333333333333336,-488.5333333333333,-226.13333333333333
461,49.06666666666666,-477.8666666666667,-238.93333333333334
462,49.06666666666666,-477.8666666666667,-234.66666666666666
463,44.8,-482.1333333333333,-238.93333333333334
464,53.333333333333336,-484.26666666666665,-238.93333333333334
465,61.86666666666667,-486.4,-249.6
466,59.733333333333334,-471.46666666666664,-275.2
467,64.0,-448.0,-298.6666666666667
468,66.13333333333333,-430.93333333333334,-315.73333333333335
469,68.26666666666667,-409.6,-339.2
470,81.06666666666666,-388.26666666666665,-356.26666666666665
471,76.8,-343.46666666666664,-377.6
472,78.93333333333334,-285.8666666666667,-428.8
473,85.33333333333333,-213.33333333333334,-490.6666666666667
474,78.93333333333334,-166.4,-544.0
475,89.6,-153.6,-550.4
476,78.93333333333334,-172.8,-529.0666666666666
477,74.66666666666667,-228.26666666666665,-475.73333333333335
478,66.13333333333333,-264.5333333333333,-413.8666666666667
479,49.06666666666666,-309.3333333333333,-354.1333333333333
480,29.866666666666667,-339.2,-300.8
481,19.2,-356.26666666666665,-268.8
482,19.2,-343.46666666666664,-243.2
483,10.666666666666666,-324.26666666666665,-251.73333333333332
484,21.333333333333332,-290.1333333333333,-251.73333333333332
485,19.2,-262.4,-262.4
486,25.6,-245.33333333333334,-264.5333333333333
487,21.333333333333332,-221.86666666666667,-275.2
488,10.666666666666666,-202.66666666666666,-275.2
489,12.8,-185.6,-294.4
490,14.933333333333334,-170.66666666666666,-307.2
491,12.8,-155.73333333333332,-311.46666666666664
492,6.4,-147.2,-330.6666666666667
493,6.4,-145.06666666666666,-332.8
494,14.933333333333334,-151.46666666666667,-339.2
495,14.933333333333334,-147.2,-358.4
496,21.333333333333332,-162.13333333333333,-358.4
497,25.6,-172.8,-369.06666666666666
498,29.866666666666667,-177.06666666666666,-373.3333333333333
499,29.866666666666667,-185.6,-371.2
500,34.13333333333333,-183.46666666666667,-375.46666666666664
501,32.0,-179.2,-375.46666666666664
502,32.0,-174.93333333333334,-379.73333333333335
503,42.666666666666664,-177.06666666666666,-377.6
504,49.06666666666666,-179.2,-371.2
505,51.2,-162.13333333333333,-369.06666666666666
506,51.2,-153.6,-369.06666666666666
507,61.86666666666667,-151.46666666666667,-356.26666666666665
508,61.86666666666667,-138.66666666666666,-332.8
509,57.6,-128.0,-334.93333333333334
510,61.86666666666667,-125.86666666666666,-320.0
511,66.13333333333333,-123.73333333333333,-302.93333333333334
512,64.0,-115.2,-302.93333333333334
513,55.46666666666667,-115.2,-285.8666666666667
514,53.333333333333336,-110.93333333333334,-273.06666666666666
515,36.266666666666666,-123.73333333333333,-266.6666666666667
516,12.8,-132.26666666666665,-258.1333333333333
517,-8.533333333333333,-149.33333333333334,-249.6
518,-27.733333333333334,-155.73333333333332,-258.1333333333333
519,-34.13333333333333,-174.93333333333334,-256.0
520,-49.06666666666666,-181.33333333333334,-268.8
521,-66.13333333333333,-187.73333333333332,-281.6
522,-74.66666666666667,-187.73333333333332,-311.46666666666664
523,-74.66666666666667,-204.8,-339.2
524,-74.66666666666667,-228.26666666666665,-369.06666666666666
525,-53.333333333333336,-251.73333333333332,-396.8
526,-44.8,-302.93333333333334,-390.4
527,-42.666666666666664,-375.46666666666664,-430.93333333333334
528,-36.266666666666666,-433.06666666666666,-460.8
529,-17.066666666666666,-514.1333333333333,-516.2666666666667
530,14.933333333333334,-524.8,-541.8666666666667
531,57.6,-484.26666666666665,-603.7333333333333
532,55.46666666666667,-473.59999999999997,-612.2666666666667
533,93.86666666666666,-375.46666666666664,-622.9333333333333
534,87.46666666666667,-328.5333333333333,-635.7333333333333
535,85.33333333333333,-275.2,-631.4666666666667
536,72.53333333333333,-249.6,-622.9333333333333
537,83.2,-264.5333333333333,-620.8
538,115.2,-292.26666666666665,-652.8
539,89.6,-360.5333333333333,-701.8666666666667
540,81.06666666666666,-411.73333333333335,-772.2666666666667
541,113.06666666666666,-445.8666666666667,-840.5333333333333
542,134.4,-488.5333333333333,-900.2666666666667
543,134.4,-450.1333333333333,-915.1999999999999
544,106.66666666666667,-454.4,-915.1999999999999
545,104.53333333333333,-433.06666666666666,-915.1999999999999
546,89.6,-373.3333333333333,-866.1333333333333
547,106.66666666666667,-364.8,-836.2666666666667
548,102.4,-292.26666666666665,-768.0
549,102.4,-213.33333333333334,-731.7333333333333
550,93.86666666666666,-160.0,-701.8666666666667
551,70.4,-78.93333333333334,-678.4
552,87.46666666666667,-25.6,-667.7333333333333
553,96.0,-6.4,-659.2
554,91.73333333333333,6.4,-680.5333333333333
555,102.4,-10.666666666666666,-686.9333333333333
556,100.26666666666667,-49.06666666666666,-689.0666666666666
557,85.33333333333333,-85.33333333333333,-674.1333333333333
558,70.4,-108.8,-654.9333333333333
559,46.93333333333333,-151.46666666666667,-631.4666666666667
560,40.53333333333333,-174.93333333333334,-608.0
561,46.93333333333333,-198.4,-595.2
562,51.2,-200.53333333333333,-584.5333333333333
563,51.2,-204.8,-599.4666666666667
564,57.6,-168.53333333333333,-608.0
565,61.86666666666667,-174.93333333333334,-622.9333333333333
566,61.86666666666667,-177.06666666666666,-646.4
567,66.13333333333333,-170.66666666666666,-642.1333333333333
568,55.46666666666667,-174.93333333333334,-654.9333333333333
569,46.93333333333333,-187.73333333333332,-659.2
570,53.333333333333336,-198.4,-661.3333333333334
571,40.53333333333333,-211.2,-650.6666666666666
572,44.8,-260.26666666666665,-659.2
573,42.666666666666664,-296.5333333333333,-648.5333333333333
574,32.0,-337.06666666666666,-650.6666666666666
575,38.4,-371.2,-659.2
576,42.666666666666664,-407.46666666666664,-669.8666666666667
577,51.2,-407.46666666666664,-695.4666666666667
578,29.866666666666667,-403.2,-714.6666666666666
579,59.733333333333334,-390.4,-738.1333333333333
580,49.06666666666666,-469.3333333333333,-810.6666666666666
581,98.13333333333333,-334.93333333333334,-757.3333333333334
582,108.8,-362.6666666666667,-772.2666666666667
583,85.33333333333333,-371.2,-763.7333333333333
584,34.13333333333333,-356.26666666666665,-727.4666666666667
585,108.8,-320.0,-785.0666666666666
586,96.0,-313.6,-785.0666666666666
587,40.53333333333333,-279.46666666666664,-785.0666666666666
588,57.6,-341.3333333333333,-731.7333333333333
589,42.666666666666664,-91.73333333333333,-710.4
590,61.86666666666667,-91.73333333333333,-680.5333333333333
591,70.4,-119.46666666666667,-663.4666666666667
592,147.2,-93.86666666666666,-620.8
593,89.6,-76.8,-580.2666666666667
594,108.8,-170.66666666666666,-631.4666666666667
595,164.26666666666665,-10.666666666666666,-590.9333333333333
596,89.6,-14.933333333333334,-612.2666666666667
597,64.0,-4.266666666666667,-610.1333333333333
598,64.0,-6.4,-580.2666666666667
599,42.666666666666664,-8.533333333333333,-514.1333333333333
600,25.6,-34.13333333333333,-473.59999999999997
601,-2.1333333333333333,-61.86666666666667,-435.2
602,-17.066666666666666,-87.46666666666667,-403.2
603,-38.4,-117.33333333333333,-398.93333333333334
604,-42.666666666666664,-147.2,-401.06666666666666
605,-49.06666666666666,-155.73333333333332,-401.06666666666666
606,-53.333333333333336,-174.93333333333334,-411.73333333333335
607,-44.8,-198.4,-428.8
608,-40.53333333333333,-215.46666666666667,-439.46666666666664
609,-44.8,-241.06666666666666,-443.73333333333335
610,-46.93333333333333,-260.26666666666665,-458.6666666666667
611,-44.8,-281.6,-454.4
612,-44.8,-311.46666666666664,-450.1333333333333
613,-36.266666666666666,-354.1333333333333,-448.0
614,-34.13333333333333,-362.6666666666667,-441.59999999999997
615,-21.333333333333332,-413.8666666666667,-430.93333333333334
616,-17.066666666666666,-428.8,-441.59999999999997
617,17.066666666666666,-456.5333333333333,-443.73333333333335
618,4.266666666666667,-460.8,-445.8666666666667
619,8.533333333333333,-471.46666666666664,-441.59999999999997
620,4.266666666666667,-475.73333333333335,-433.06666666666666
621,23.466666666666665,-480.0,-424.5333333333333
622,23.466666666666665,-484.26666666666665,-428.8
623,25.6,-473.59999999999997,-426.6666666666667
624,46.93333333333333,-475.73333333333335,-416.0
625,49.06666666666666,-462.93333333333334,-405.3333333333333
626,66.13333333333333,-465.06666666666666,-396.8
627,74.66666666666667,-454.4,-390.4
628,70.4,-452.26666666666665,-381.8666666666667
629,70.4,-441.59999999999997,-384.0
630,81.06666666666666,-430.93333333333334,-364.8
631,72.53333333333333,-426.6666666666667,-362.6666666666667
632,78.93333333333334,-416.0,-358.4
633,85.33333333333333,-403.2,-339.2
634,85.33333333333333,-386.1333333333333,-339.2
635,85.33333333333333,-388.26666666666665,-328.5333333333333
636,89.6,-386.1333333333333,-334.93333333333334
637,85.33333333333333,-379.73333333333335,-322.1333333333333
638,74.66666666666667,-371.2,-334.93333333333334
639,76.8,-369.06666666666666,-317.8666666666667
640,78.93333333333334,-369.06666666666666,-324.26666666666665
641,70.4,-373.3333333333333,-313.6
642,70.4,-373.3333333333333,-313.6
643,61.86666666666667,-373.3333333333333,-309.3333333333333
644,59.733333333333334,-369.06666666666666,-317.8666666666667
645,59.733333333333334,-377.6,-324.26666666666665
646,59.733333333333334,-384.0,-328.5333333333333
647,53.333333333333336,-390.4,-330.6666666666667
648,53.333333333333336,-398.93333333333334,-337.06666666666666
649,51.2,-401.06666666666666,-347.73333333333335
650,51.2,-411.73333333333335,-347.73333333333335
651,44.8,-416.0,-354.1333333333333
652,49.06666666666666,-418.1333333333333,-349.8666666666667
653,40.53333333333333,-426.6666666666667,-349.8666666666667
654,38.4,-424.5333333333333,-356.26666666666665
655,29.866666666666667,-430.93333333333334,-364.8
656,32.0,-428.8,-364.8
657,21.333333333333332,-437.3333333333333,-354.1333333333333
658,14.933333333333334,-441.59999999999997,-356.26666666666665
659,17.066666666666666,-439.46666666666664,-356.26666666666665
660,10.666666666666666,-435.2,-339.2
661,14.933333333333334,-435.2,-341.3333333333333
662,12.8,-433.06666666666666,-334.93333333333334
663,12.8,-428.8,-330.6666666666667
664,10.666666666666666,-422.4,-330.6666666666667
665,6.4,-420.26666666666665,-322.1333333333333
666,4.266666666666667,-418.1333333333333,-317.8666666666667
667,10.666666666666666,-413.8666666666667,-311.46666666666664
668,10.666666666666666,-416.0,-305.06666666666666
669,8.533333333333333,-411.73333333333335,-292.26666666666665
670,10.666666666666666,-411.73333333333335,-290.1333333333333
671,10.666666666666666,-409.6,-290.1333333333333
672,19.2,-418.1333333333333,-281.6
673,17.066666666666666,-420.26666666666665,-279.46666666666664
674,19.2,-430.93333333333334,-266.6666666666667
675,25.6,-443.73333333333335,-264.5333333333333
676,17.066666666666666,-437.3333333333333,-262.4
677,32.0,-445.8666666666667,-262.4
678,34.13333333333333,-443.73333333333335,-256.0
679,34.13333333333333,-458.6666666666667,-264.5333333333333
680,21.333333333333332,-456.5333333333333,-260.26666666666665
681,23.466666666666665,-458.6666666666667,-260.26666666666665
682,32.0,-467.2,-260.26666666666665
683,27.733333333333334,-460.8,-264.5333333333333
684,34.13333333333333,-471.46666666666664,-264.5333333333333
685,34.13333333333333,-469.3333333333333,-260.26666666666665
686,29.866666666666667,-480.0,-264.5333333333333
687,36.266666666666666,-484.26666666666665,-251.73333333333332
688,32.0,-488.5333333333333,-251.73333333333332
689,23.466666666666665,-482.1333333333333,-256.0
690,29.866666666666667,-484.26666666666665,-256.0
691,27.733333333333334,-480.0,-273.06666666666666
692,17.066666666666666,-480.0,-268.8
693,19.2,-486.4,-277.3333333333333
694,19.2,-473.59999999999997,-264.5333333333333
695,17.066666666666666,-471.46666666666664,-279.46666666666664
696,17.066666666666666,-467.2,-275.2
697,14.933333333333334,-471.46666666666664,-268.8
698,23.466666666666665,-471.46666666666664,-256.0
699,23.466666666666665,-471.46666666666664,-258.1333333333333
700,19.2,-465.06666666666666,-262.4
701,25.6,-462.93333333333334,-268.8
702,17.066666666666666,-456.5333333333333,-270.93333333333334
703,25.6,-456.5333333333333,-275.2
704,19.2,-452.26666666666665,-273.06666666666666
705,27.733333333333334,-454.4,-268.8
706,25.6,-458.6666666666667,-264.5333333333333
707,17.066666666666666,-454.4,-260.26666666666665
708,27.733333333333334,-458.6666666666667,-262.4
709,23.466666666666665,-458.6666666666667,-266.6666666666667
710,27.733333333333334,-460.8,-253.86666666666667
711,25.6,-458.6666666666667,-258.1333333333333
712,25.6,-465.06666666666666,-260.26666666666665
713,23.466666666666665,-462.93333333333334,-262.4
714,21.333333333333332,-467.2,-262.4
715,25.6,-465.06666666666666,-270.93333333333334
716,17.066666666666666,-467.2,-264.5333333333333
717,10.666666666666666,-462.93333333333334,-264.5333333333333
718,19.2,-467.2,-266.6666666666667
719,8.533333333333333,-469.3333333333333,-270.93333333333334
720,17.066666666666666,-473.59999999999997,-268.8
721,17.066666666666666,-471.46666666666664,-275.2
722,23.466666666666665,-475.73333333333335,-277.3333333333333
723,21.333333333333332,-473.59999999999997,-283.73333333333335
724,27.733333333333334,-473.59999999999997,-285.8666666666667
725,32.0,-475.73333333333335,-283.73333333333335
726,34.13333333333333,-465.06666666666666,-285.8666666666667
727,32.0,-465.06666666666666,-285.8666666666667
728,40.53333333333333,-467.2,-290.1333333333333
729,40.53333333333333,-465.06666666666666,-283.73333333333335
730,46.93333333333333,-471.46666666666664,-277.3333333333333
731,49.06666666666666,-460.8,-279.46666666666664
732,53.333333333333336,-458.6666666666667,-288.0
733,55.46666666666667,-462.93333333333334,-283.73333333333335
734,66.13333333333333,-462.93333333333334,-279.46666666666664
735,57.6,-458.6666666666667,-283.73333333333335
736,61.86666666666667,-465.06666666666666,-279.46666666666664
737,61.86666666666667,-465.06666666666666,-277.3333333333333
738,57.6,-492.8,-245.33333333333334
739,51.2,-467.2,-275.2
740,49.06666666666666,-473.59999999999997,-283.73333333333335
741,40.53333333333333,-467.2,-275.2
742,36.266666666666666,-465.06666666666666,-275.2
743,34.13333333333333,-465.06666666666666,-283.73333333333335
744,27.733333333333334,-462.93333333333334,-283.73333333333335
745,32.0,-460.8,-288.0
746,25.6,-458.6666666666667,-288.0
747,21.333333333333332,-458.6666666666667,-279.46666666666664
748,25.6,-458.6666666666667,-294.4
749,23.466666666666665,-456.5333333333333,-285.8666666666667
750,32.0,-456.5333333333333,-288.0
751,32.0,-454.4,-294.4
752,25.6,-443.73333333333335,-296.5333333333333
753,25.6,-443.73333333333335,-296.5333333333333
754,25.6,-439.46666666666664,-305.06666666666666
755,36.266666666666666,-437.3333333333333,-307.2
756,34.13333333333333,-437.3333333333333,-307.2
757,40.53333333333333,-441.59999999999997,-313.6
758,38.4,-443.73333333333335,-311.46666666666664
759,49.06666666666666,-448.0,-315.73333333333335
760,46.93333333333333,-443.73333333333335,-313.6
761,46.93333333333333,-443.73333333333335,-315.73333333333335
762,53.333333333333336,-450.1333333333333,-315.73333333333335
763,51.2,-445.8666666666667,-313.6
764,61.86666666666667,-448.0,-317.8666666666667
765,66.13333333333333,-452.26666666666665,-313.6
766,64.0,-445.8666666666667,-313.6
767,70.4,-452.26666666666665,-324.26666666666665
768,68.26666666666667,-445.8666666666667,-320.0
769,68.26666666666667,-448.0,-324.26666666666665
770,64.0,-448.0,-328.5333333333333
771,61.86666666666667,-443.73333333333335,-324.26666666666665
772,59.733333333333334,-445.8666666666667,-315.73333333333335
773,59.733333333333334,-441.59999999999997,-320.0
774,53.333333333333336,-437.3333333333333,-322.1333333333333
775,51.2,-443.73333333333335,-326.4
776,49.06666666666666,-445.8666666666667,-324.26666666666665
777,42.666666666666664,-439.46666666666664,-320.0
778,44.8,-439.46666666666664,-326.4
779,42.666666666666664,-445.8666666666667,-322.1333333333333
780,34.13333333333333,-439.46666666666664,-320.0
781,32.0,-443.73333333333335,-320.0
782,29.866666666666667,-433.06666666666666,-317.8666666666667
783,27.733333333333334,-439.46666666666664,-315.73333333333335
784,14.933333333333334,-437.3333333333333,-320.0
785,14.933333333333334,-433.06666666666666,-326.4
786,17.066666666666666,-441.59999999999997,-324.26666666666665
787,17.066666666666666,-437.3333333333333,-322.1333333333333
788,17.066666666666666,-437.3333333333333,-322.1333333333333
789,12.8,-437.3333333333333,-326.4
790,21.333333333333332,-430.93333333333334,-324.26666666666665
791,21.333333333333332,-433.06666666666666,-320.0
792,27.733333333333334,-441.59999999999997,-315.73333333333335
793,27.733333333333334,-441.59999999999997,-326.4
794,27.733333333333334,-445.8666666666667,-322.1333333333333
795,25.6,-445.8666666666667,-324.26666666666665
796,29.866666666666667,-450.1333333333333,-330.6666666666667
797,36.266666666666666,-450.1333333333333,-339.2
798,49.06666666666666,-452.26666666666665,-337.06666666666666
799,51.2,-448.0,-332.8
800,51.2,-439.46666666666664,-328.5333333333333
801,64.0,-441.59999999999997,-332.8
802,74.66666666666667,-437.3333333333333,-334.93333333333334
803,74.66666666666667,-424.5333333333333,-337.06666666666666
804,74.66666666666667,-430.93333333333334,-337.06666666666666
805,83.2,-430.93333333333334,-332.8
806,81.06666666666666,-413.8666666666667,-347.73333333333335
807,96.0,-416.0,-343.46666666666664
808,87.46666666666667,-409.6,-343.46666666666664
809,91.73333333333333,-413.8666666666667,-347.73333333333335
810,98.13333333333333,-416.0,-347.73333333333335
811,91.73333333333333,-411.73333333333335,-349.8666666666667
812,89.6,-409.6,-366.93333333333334
813,89.6,-407.46666666666664,-371.2
814,87.46666666666667,-413.8666666666667,-369.06666666666666
815,100.26666666666667,-409.6,-373.3333333333333
816,87.46666666666667,-407.46666666666664,-373.3333333333333
817,93.86666666666666,-413.8666666666667,-377.6
818,85.33333333333333,-416.0,-379.73333333333335
819,81.06666666666666,-416.0,-384.0
820,81.06666666666666,-409.6,-384.0
821,85.33333333333333,-409.6,-373.3333333333333
822,68.26666666666667,-411.73333333333335,-379.73333333333335
823,55.46666666666667,-407.46666666666664,-379.73333333333335
824,72.53333333333333,-413.8666666666667,-379.73333333333335
825,70.4,-416.0,-377.6
826,64.0,-409.6,-371.2
827,51.2,-407.46666666666664,-377.6
828,53.333333333333336,-409.6,-379.73333333333335
829,57.6,-403.2,-386.1333333333333
830,64.0,-411.73333333333335,-373.3333333333333
831,55.46666666666667,-407.46666666666664,-375.46666666666664
832,57.6,-405.3333333333333,-377.6
833,66.13333333333333,-407.46666666666664,-375.46666666666664
834,64.0,-403.2,-384.0
835,64.0,-392.5333333333333,-377.6
836,68.26666666666667,-392.5333333333333,-373.3333333333333
837,74.66666666666667,-386.1333333333333,-371.2
838,74.66666666666667,-381.8666666666667,-366.93333333333334
839,72.53333333333333,-384.0,-369.06666666666666
840,78.93333333333334,-379.73333333333335,-366.93333333333334
841,78.93333333333334,-373.3333333333333,-369.06666666666666
842,76.8,-379.73333333333335,-362.6666666666667
843,85.33333333333333,-379.73333333333335,-369.06666666666666
844,76.8,-388.26666666666665,-371.2
845,74.66666666666667,-386.1333333333333,-371.2
846,76.8,-398.93333333333334,-371.2
847,72.53333333333333,-396.8,-364.8
848,68.26666666666667,-403.2,-369.06666666666666
849,70.4,-401.06666666666666,-373.3333333333333
850,59.733333333333334,-398.93333333333334,-373.3333333333333
851,64.0,-396.8,-379.73333333333335
852,49.06666666666666,-396.8,-381.8666666666667
853,57.6,-396.8,-379.73333333333335
854,51.2,-396.8,-381.8666666666667
855,49.06666666666666,-394.6666666666667,-379.73333333333335
856,49.06666666666666,-396.8,-373.3333333333333
857,49.06666666666666,-392.5333333333333,-381.8666666666667
858,46.93333333333333,-384.0,-381.8666666666667
859,51.2,-392.5333333333333,-377.6
860,59.733333333333334,-390.4,-371.2
861,55.46666666666667,-396.8,-379.73333333333335
862,51.2,-394.6666666666667,-375.46666666666664
863,53.333333333333336,-398.93333333333334,-384.0
864,64.0,-401.06666666666666,-384.0
865,68.26666666666667,-407.46666666666664,-375.46666666666664
866,72.53333333333333,-407.46666666666664,-375.46666666666664
867,70.4,-409.6,-384.0
868,70.4,-403.2,-375.46666666666664
869,78.93333333333334,-405.3333333333333,-381.8666666666667
870,78.93333333333334,-403.2,-390.4
871,83.2,-401.06666666666666,-392.5333333333333
872,85.33333333333333,-398.93333333333334,-392.5333333333333
873,89.6,-394.6666666666667,-394.6666666666667
874,76.8,-390.4,-401.06666666666666
875,76.8,-388.26666666666665,-394.6666666666667
876,83.2,-390.4,-392.5333333333333
877,78.93333333333334,-386.1333333333333,-396.8
878,81.06666666666666,-379.73333333333335,-398.93333333333334
879,76.8,-384.0,-401.06666666666666
880,70.4,-379.73333333333335,-403.2
881,74.66666666666667,-371.2,-394.6666666666667
882,72.53333333333333,-364.8,-401.06666666666666
883,66.13333333333333,-358.4,-403.2
884,68.26666666666667,-364.8,-396.8
885,55.46666666666667,-349.8666666666667,-405.3333333333333
886,57.6,-354.1333333333333,-405.3333333333333
887,57.6,-352.0,-398.93333333333334
888,61.86666666666667,-352.0,-405.3333333333333
889,59.733333333333334,-347.73333333333335,-409.6
890,57.6,-352.0,-411.73333333333335
891,53.333333333333336,-352.0,-409.6
892,49.06666666666666,-354.1333333333333,-418.1333333333333
893,46.93333333333333,-343.46666666666664,-416.0
894,51.2,-343.46666666666664,-418.1333333333333
895,61.86666666666667,-352.0,-428.8
896,49.06666666666666,-347.73333333333335,-420.26666666666665
897,57.6,-356.26666666666665,-424.5333333333333
898,59.733333333333334,-358.4,-428.8
899,53.333333333333336,-347.73333333333335,-426.6666666666667
900,64.0,-352.0,-416.0
901,57.6,-347.73333333333335,-420.26666666666665
902,72.53333333333333,-352.0,-424.5333333333333
903,64.0,-354.1333333333333,-424.5333333333333
904,68.26666666666667,-354.1333333333333,-428.8
905,64.0,-360.5333333333333,-426.6666666666667
906,76.8,-358.4,-420.26666666666665
907,68.26666666666667,-362.6666666666667,-420.26666666666665
908,70.4,-354.1333333333333,-424.5333333333333
909,74.66666666666667,-356.26666666666665,-428.8
910,68.26666666666667,-356.26666666666665,-424.5333333333333
911,61.86666666666667,-352.0,-428.8
912,68.26666666666667,-360.5333333333333,-441.59999999999997
913,68.26666666666667,-358.4,-426.6666666666667
914,57.6,-352.0,-430.93333333333334
915,59.733333333333334,-356.26666666666665,-426.6666666666667
916,57.6,-358.4,-422.4
917,57.6,-354.1333333333333,-430.93333333333334
918,59.733333333333334,-356.26666666666665,-428.8
919,57.6,-352.0,-424.5333333333333
920,51.2,-349.8666666666667,-424.5333333333333
921,46.93333333333333,-345.6,-422.4
922,53.333333333333336,-345.6,-426.6666666666667
923,49.06666666666666,-345.6,-424.5333333333333
924,49.06666666666666,-343.46666666666664,-426.6666666666667
925,51.2,-341.3333333333333,-435.2
926,53.333333333333336,-352.0,-430.93333333333334
927,51.2,-343.46666666666664,-435.2
928,55.46666666666667,-345.6,-437.3333333333333
929,53.333333333333336,-343.46666666666664,-435.2
930,55.46666666666667,-343.46666666666664,-435.2
931,53.333333333333336,-343.46666666666664,-428.8
932,61.86666666666667,-354.1333333333333,-433.06666666666666
933,55.46666666666667,-343.46666666666664,-437.3333333333333
934,57.6,-347.73333333333335,-439.46666666666664
935,59.733333333333334,-354.1333333333333,-435.2
936,59.733333333333334,-349.8666666666667,-443.73333333333335
937,57.6,-339.2,-430.93333333333334
938,66.13333333333333,-341.3333333333333,-441.59999999999997
939,68.26666666666667,-341.3333333333333,-443.73333333333335
940,55.46666666666667,-343.46666666666664,-437.3333333333333
941,64.0,-339.2,-437.3333333333333
942,64.0,-337.06666666666666,-433.06666666666666
943,57.6,-337.06666666666666,-430.93333333333334
944,59.733333333333334,-341.3333333333333,-433.06666666666666
945,57.6,-337.06666666666666,-430.93333333333334
946,55.46666666666667,-345.6,-435.2
947,57.6,-343.46666666666664,-439.46666666666664
948,53.333333333333336,-339.2,-439.46666666666664
949,46.93333333333333,-332.8,-443.73333333333335
950,49.06666666666666,-339.2,-443.73333333333335
951,49.06666666666666,-337.06666666666666,-439.46666666666664
952,49.06666666666666,-334.93333333333334,-433.06666666666666
953,59.733333333333334,-337.06666666666666,-437.3333333333333
954,49.06666666666666,-332.8,-439.46666666666664
955,51.2,-334.93333333333334,-443.73333333333335
956,51.2,-337.06666666666666,-443.73333333333335
957,49.06666666666666,-337.06666666666666,-441.59999999999997
958,49.06666666666666,-328.5333333333333,-439.46666666666664
959,55.46666666666667,-334.93333333333334,-430.93333333333334
960,55.46666666666667,-337.06666666666666,-437.3333333333333
961,53.333333333333336,-337.06666666666666,-441.59999999999997
962,59.733333333333334,-334.93333333333334,-441.59999999999997
963,51.2,-326.4,-439.46666666666664
964,57.6,-332.8,-437.3333333333333
965,59.733333333333334,-326.4,-441.59999999999997
966,55.46666666666667,-320.0,-448.0
967,55.46666666666667,-322.1333333333333,-435.2
968,59.733333333333334,-322.1333333333333,-443.73333333333335
969,59.733333333333334,-324.26666666666665,-433.06666666666666
970,51.2,-324.26666666666665,-441.59999999999997
971,59.733333333333334,-332.8,-448.0
972,53.333333333333336,-328.5333333333333,-437.3333333333333
973,55.46666666666667,-339.2,-441.59999999999997
974,57.6,-337.06666666666666,-439.46666666666664
975,49.06666666666666,-343.46666666666664,-445.8666666666667
976,49.06666666666666,-341.3333333333333,-433.06666666666666
977,49.06666666666666,-343.46666666666664,-437.3333333333333
978,51.2,-341.3333333333333,-441.59999999999997
979,49.06666666666666,-341.3333333333333,-439.46666666666664
980,49.06666666666666,-332.8,-441.59999999999997
981,46.93333333333333,-337.06666666666666,-433.06666666666666
982,53.333333333333336,-330.6666666666667,-437.3333333333333
983,55.46666666666667,-334.93333333333334,-439.46666666666664
984,59.733333333333334,-328.5333333333333,-426.6666666666667
985,66.13333333333333,-332.8,-428.8
986,64.0,-330.6666666666667,-435.2
987,66.13333333333333,-330.6666666666667,-424.5333333333333
988,74.66666666666667,-334.93333333333334,-422.4
989,61.86666666666667,-339.2,-420.26666666666665
990,66.13333333333333,-345.6,-424.5333333333333
991,66.13333333333333,-347.73333333333335,-424.5333333333333
992,64.0,-347.73333333333335,-420.26666666666665
993,57.6,-343.46666666666664,-435.2
994,51.2,-354.1333333333333,-437.3333333333333
995,49.06666666666666,-345.6,-439.46666666666664
996,55.46666666666667,-345.6,-439.46666666666664
997,53.333333333333336,-345.6,-437.3333333333333
998,49.06666666666666,-339.2,-443.73333333333335
999,44.8,-328.5333333333333,-441.59999999999997
1000,44.8,-326.4,-437.3333333333333
1001,42.666666666666664,-320.0,-435.2
1002,34.13333333333333,-315.73333333333335,-437.3333333333333
1003,40.53333333333333,-313.6,-430.93333333333334
1004,36.266666666666666,-315.73333333333335,-426.6666666666667
1005,42.666666666666664,-309.3333333333333,-433.06666666666666
1006,38.4,-313.6,-428.8
1007,40.53333333333333,-313.6,-435.2
1008,44.8,-320.0,-430.93333333333334
1009,38.4,-313.6,-428.8
1010,42.666666666666664,-320.0,-430.93333333333334
1011,49.06666666666666,-324.26666666666665,-420.26666666666665
1012,49.06666666666666,-326.4,-430.93333333333334
1013,46.93333333333333,-320.0,-435.2
1014,44.8,-317.8666666666667,-435.2
1015,42.666666666666664,-322.1333333333333,-430.93333333333334
1016,53.333333333333336,-324.26666666666665,-437.3333333333333
1017,53.333333333333336,-322.1333333333333,-430.93333333333334
1018,49.06666666666666,-330.6666666666667,-426.6666666666667
1019,42.666666666666664,-334.93333333333334,-428.8
1020,57.6,-343.46666666666664,-433.06666666666666
1021,53.333333333333336,-337.06666666666666,-428.8
1022,57.6,-345.6,-428.8
1023,53.333333333333336,-349.8666666666667,-418.1333333333333
1024,49.06666666666666,-354.1333333333333,-424.5333333333333
1025,53.333333333333336,-349.8666666666667,-422.4
1026,55.46666666666667,-356.26666666666665,-424.5333333333333
1027,51.2,-356.26666666666665,-422.4
1028,53.333333333333336,-360.5333333333333,-420.26666666666665
1029,53.333333333333336,-358.4,-426.6666666666667
1030,51.2,-362.6666666666667,-422.4
1031,51.2,-362.6666666666667,-418.1333333333333
1032,49.06666666666666,-366.93333333333334,-413.8666666666667
1033,51.2,-366.93333333333334,-420.26666666666665
1034,44.8,-360.5333333333333,-418.1333333333333
1035,46.93333333333333,-364.8,-418.1333333333333
1036,46.93333333333333,-366.93333333333334,-416.0
1037,49.06666666666666,-362.6666666666667,-416.0
1038,51.2,-362.6666666666667,-426.6666666666667
1039,53.333333333333336,-362.6666666666667,-413.8666666666667
1040,49.06666666666666,-358.4,-420.26666666666665
1041,53.333333333333336,-369.06666666666666,-418.1333333333333
1042,53.333333333333336,-366.93333333333334,-424.5333333333333
1043,53.333333333333336,-366.93333333333334,-420.26666666666665
1044,51.2,-364.8,-416.0
1045,53.333333333333336,-364.8,-416.0
1046,59.733333333333334,-364.8,-422.4
1047,51.2,-360.5333333333333,-409.6
1048,59.733333333333334,-362.6666666666667,-416.0
1049,53.333333333333336,-362.6666666666667,-424.5333333333333
1050,53.333333333333336,-358.4,-416.0
1051,53.333333333333336,-362.6666666666667,-424.5333333333333
1052,55.46666666666667,-362.6666666666667,-428.8
1053,51.2,-358.4,-428.8
1054,55.46666666666667,-358.4,-420.26666666666665
1055,49.06666666666666,-356.26666666666665,-413.8666666666667
1056,57.6,-354.1333333333333,-426.6666666666667
1057,55.46666666666667,-352.0,-420.26666666666665
1058,55.46666666666667,-352.0,-418.1333333333333
1059,51.2,-354.1333333333333,-426.6666666666667
1060,51.2,-354.1333333333333,-422.4
1061,51.2,-354.1333333333333,-420.26666666666665
1062,55.46666666666667,-349.8666666666667,-420.26666666666665
1063,51.2,-354.1333333333333,-420.26666666666665
1064,55.46666666666667,-352.0,-413.8666666666667
1065,53.333333333333336,-356.26666666666665,-424.5333333333333
1066,55.46666666666667,-356.26666666666665,-422.4
1067,57.6,-347.73333333333335,-422.4
1068,57.6,-356.26666666666665,-422.4
1069,49.06666666666666,-349.8666666666667,-424.5333333333333
1070,55.46666666666667,-347.73333333333335,-411.73333333333335
1071,57.6,-356.26666666666665,-422.4
1072,49.06666666666666,-347.73333333333335,-418.1333333333333
1073,55.46666666666667,-343.46666666666664,-416.0
1074,51.2,-354.1333333333333,-426.6666666666667
1075,46.93333333333333,-352.0,-424.5333333333333
1076,51.2,-349.8666666666667,-422.4
1077,49.06666666666666,-349.8666666666667,-418.1333333333333
1078,42.666666666666664,-349.8666666666667,-413.8666666666667
1079,46.93333333333333,-352.0,-418.1333333333333
1080,49.06666666666666,-352.0,-422.4
1081,46.93333333333333,-349.8666666666667,-422.4
1082,44.8,-354.1333333333333,-422.4
1083,46.93333333333333,-352.0,-420.26666666666665
1084,46.93333333333333,-349.8666666666667,-430.93333333333334
1085,49.06666666666666,-349.8666666666667,-416.0
1086,49.06666666666666,-356.26666666666665,-418.1333333333333
1087,44.8,-347.73333333333335,-416.0
1088,42.666666666666664,-358.4,-420.26666666666665
1089,51.2,-356.26666666666665,-420.26666666666665
1090,49.06666666666666,-354.1333333333333,-422.4
1091,44.8,-347.73333333333335,-413.8666666666667
1092,44.8,-347.73333333333335,-418.1333333333333
1093,42.666666666666664,-352.0,-416.0
1094,42.666666666666664,-347.73333333333335,-418.1333333333333
1095,46.93333333333333,-352.0,-418.1333333333333
1096,51.2,-356.26666666666665,-416.0
1097,44.8,-360.5333333333333,-418.1333333333333
1098,12.8,-369.06666666666666,-411.73333333333335
1099,49.06666666666666,-362.6666666666667,-409.6
1100,46.93333333333333,-364.8,-407.46666666666664
1101,51.2,-371.2,-403.2
1102,42.666666666666664,-364.8,-409.6
1103,49.06666666666666,-366.93333333333334,-405.3333333333333
1104,51.2,-369.06666666666666,-409.6
1105,51.2,-369.06666666666666,-413.8666666666667
1106,53.333333333333336,-360.5333333333333,-409.6
1107,46.93333333333333,-366.93333333333334,-405.3333333333333
1108,51.2,-362.6666666666667,-422.4
1109,46.93333333333333,-369.06666666666666,-420.26666666666665
1110,51.2,-364.8,-403.2
1111,55.46666666666667,-373.3333333333333,-409.6
1112,49.06666666666666,-362.6666666666667,-409.6
1113,46.93333333333333,-364.8,-411.73333333333335
1114,46.93333333333333,-360.5333333333333,-407.46666666666664
1115,53.333333333333336,-356.26666666666665,-411.73333333333335
1116,51.2,-358.4,-407.46666666666664
1117,51.2,-362.6666666666667,-416.0
1118,46.93333333333333,-358.4,-416.0
1119,49.06666666666666,-358.4,-416.0
1120,42.666666666666664,-354.1333333333333,-411.73333333333335
1121,46.93333333333333,-358.4,-418.1333333333333
1122,44.8,-362.6666666666667,-409.6
1123,49.06666666666666,-360.5333333333333,-413.8666666666667
1124,46.93333333333333,-358.4,-407.46666666666664
1125,44.8,-360.5333333333333,-403.2
1126,38.4,-364.8,-416.0
1127,42.666666666666664,-356.26666666666665,-407.46666666666664
1128,51.2,-369.06666666666666,-407.46666666666664
1129,49.06666666666666,-364.8,-407.46666666666664
1130,49.06666666666666,-358.4,-409.6
1131,46.93333333333333,-362.6666666666667,-411.73333333333335
1132,46.93333333333333,-362.6666666666667,-407.46666666666664
1133,55.46666666666667,-366.93333333333334,-407.46666666666664
1134,51.2,-364.8,-403.2
1135,53.333333333333336,-362.6666666666667,-409.6
1136,49.06666666666666,-362.6666666666667,-413.8666666666667
1137,51.2,-366.93333333333334,-403.2
1138,44.8,-373.3333333333333,-407.46666666666664
1139,46.93333333333333,-364.8,-422.4
1140,49.06666666666666,-366.93333333333334,-413.8666666666667
1141,51.2,-369.06666666666666,-413.8666666666667
1142,53.333333333333336,-369.06666666666666,-401.06666666666666
1143,51.2,-369.06666666666666,-403.2
1144,46.93333333333333,-364.8,-403.2
1145,44.8,-358.4,-407.46666666666664
1146,53.333333333333336,-369.06666666666666,-403.2
1147,53.333333333333336,-362.6666666666667,-413.8666666666667
1148,51.2,-356.26666666666665,-403.2
1149,53.333333333333336,-352.0,-413.8666666666667
1150,55.46666666666667,-358.4,-407.46666666666664
1151,55.46666666666667,-364.8,-403.2
1152,55.46666666666667,-360.5333333333333,-407.46666666666664
1153,49.06666666666666,-356.26666666666665,-409.6
1154,57.6,-362.6666666666667,-405.3333333333333
1155,46.93333333333333,-358.4,-401.06666666666666
1156,51.2,-366.93333333333334,-398.93333333333334
1157,53.333333333333336,-364.8,-401.06666666666666
1158,59.733333333333334,-369.06666666666666,-398.93333333333334
1159,51.2,-371.2,-403.2
1160,53.333333333333336,-371.2,-401.06666666666666
1161,49.06666666666666,-371.2,-407.46666666666664
1162,59.733333333333334,-375.46666666666664,-405.3333333333333
1163,49.06666666666666,-375.46666666666664,-407.46666666666664
1164,57.6,-373.3333333333333,-398.93333333333334
1165,53.333333333333336,-371.2,-409.6
1166,55.46666666666667,-373.3333333333333,-403.2
1167,55.46666666666667,-373.3333333333333,-409.6
1168,55.46666666666667,-373.3333333333333,-405.3333333333333
1169,55.46666666666667,-373.3333333333333,-401.06666666666666
1170,55.46666666666667,-371.2,-403.2
1171,53.333333333333336,-362.6666666666667,-409.6
1172,55.46666666666667,-371.2,-407.46666666666664
1173,49.06666666666666,-366.93333333333334,-418.1333333333333
1174,53.333333333333336,-366.93333333333334,-407.46666666666664
1175,55.46666666666667,-364.8,-403.2
1176,44.8,-373.3333333333333,-407.46666666666664
1177,44.8,-362.6666666666667,-407.46666666666664
1178,42.666666666666664,-369.06666666666666,-418.1333333333333
1179,42.666666666666664,-366.93333333333334,-411.73333333333335
1180,42.666666666666664,-373.3333333333333,-411.73333333333335
1181,40.53333333333333,-364.8,-411.73333333333335
1182,42.666666666666664,-371.2,-407.46666666666664
1183,42.666666666666664,-369.06666666666666,-407.46666666666664
1184,42.666666666666664,-369.06666666666666,-401.06666666666666
1185,36.266666666666666,-369.06666666666666,-411.73333333333335
1186,40.53333333333333,-371.2,-405.3333333333333
1187,34.13333333333333,-371.2,-409.6
1188,34.13333333333333,-369.06666666666666,-411.73333333333335
1189,38.4,-369.06666666666666,-403.2
1190,38.4,-375.46666666666664,-407.46666666666664
1191,36.266666666666666,-364.8,-411.73333333333335
1192,34.13333333333333,-364.8,-409.6
1193,36.266666666666666,-369.06666666666666,-403.2
1194,40.53333333333333,-364.8,-403.2
1195,36.266666666666666,-366.93333333333334,-411.73333333333335
1196,36.266666666666666,-362.6666666666667,-405.3333333333333
1197,34.13333333333333,-366.93333333333334,-413.8666666666667
1198,42.666666666666664,-366.93333333333334,-396.8
1199,34.13333333333333,-366.93333333333334,-405.3333333333333
1200,36.266666666666666,-364.8,-403.2
1201,38.4,-360.5333333333333,-401.06666666666666
1202,40.53333333333333,-364.8,-409.6
1203,40.53333333333333,-366.93333333333334,-405.3333333333333
1204,38.4,-371.2,-403.2
1205,40.53333333333333,-373.3333333333333,-413.8666666666667
1206,42.666666666666664,-364.8,-411.73333333333335
1207,40.53333333333333,-369.06666666666666,-413.8666666666667
1208,44.8,-364.8,-405.3333333333333
1209,32.0,-369.06666666666666,-413.8666666666667
1210,40.53333333333333,-364.8,-409.6
1211,44.8,-373.3333333333333,-405.3333333333333
1212,44.8,-366.93333333333334,-411.73333333333335
1213,42.666666666666664,-364.8,-403.2
1214,42.666666666666664,-364.8,-405.3333333333333
1215,46.93333333333333,-362.6666666666667,-416.0
1216,46.93333333333333,-366.93333333333334,-401.06666666666666
1217,40.53333333333333,-366.93333333333334,-398.93333333333334
1218,40.53333333333333,-366.93333333333334,-409.6
1219,40.53333333333333,-362.6666666666667,-403.2
1220,49.06666666666666,-371.2,-407.46666666666664
1221,49.06666666666666,-371.2,-396.8
1222,40.53333333333333,-371.2,-403.2
1223,40.53333333333333,-364.8,-405.3333333333333
1224,44.8,-371.2,-403.2
1225,46.93333333333333,-371.2,-405.3333333333333
1226,40.53333333333333,-371.2,-396.8
1227,46.93333333333333,-369.06666666666666,-405.3333333333333
1228,38.4,-369.06666666666666,-409.6
1229,36.266666666666666,-364.8,-407.46666666666664
1230,42.666666666666664,-373.3333333333333,-411.73333333333335
1231,42.666666666666664,-366.93333333333334,-407.46666666666664
1232,40.53333333333333,-369.06666666666666,-403.2
1233,49.06666666666666,-369.06666666666666,-413.8666666666667
1234,44.8,-366.93333333333334,-416.0
1235,49.06666666666666,-366.93333333333334,-426.6666666666667
1236,42.666666666666664,-364.8,-418.1333333333333
1237,38.4,-362.6666666666667,-416.0
1238,42.666666666666664,-362.6666666666667,-418.1333333333333
1239,44.8,-358.4,-413.8666666666667
1240,44.8,-358.4,-409.6
1241,40.53333333333333,-349.8666666666667,-407.46666666666664
1242,44.8,-347.73333333333335,-413.8666666666667
1243,44.8,-345.6,-416.0
1244,49.06666666666666,-343.46666666666664,-420.26666666666665
1245,57.6,-343.46666666666664,-413.8666666666667
1246,59.733333333333334,-343.46666666666664,-420.26666666666665
1247,66.13333333333333,-334.93333333333334,-398.93333333333334
1248,66.13333333333333,-334.93333333333334,-411.73333333333335
1249,66.13333333333333,-328.5333333333333,-407.46666666666664
1250,72.53333333333333,-332.8,-403.2
1251,70.4,-332.8,-405.3333333333333
1252,81.06666666666666,-328.5333333333333,-401.06666666666666
1253,78.93333333333334,-326.4,-396.8
1254,72.53333333333333,-322.1333333333333,-396.8
1255,70.4,-320.0,-398.93333333333334
1256,64.0,-311.46666666666664,-405.3333333333333
1257,59.733333333333334,-320.0,-411.73333333333335
1258,59.733333333333334,-313.6,-411.73333333333335
1259,49.06666666666666,-309.3333333333333,-422.4
1260,46.93333333333333,-313.6,-411.73333333333335
1261,40.53333333333333,-326.4,-416.0
1262,36.266666666666666,-324.26666666666665,-407.46666666666664
1263,36.266666666666666,-320.0,-416.0
1264,29.866666666666667,-307.2,-418.1333333333333
1265,27.733333333333334,-302.93333333333334,-428.8
1266,27.733333333333334,-305.06666666666666,-437.3333333333333
1267,25.6,-305.06666666666666,-441.59999999999997
1268,21.333333333333332,-311.46666666666664,-443.73333333333335
1269,21.333333333333332,-317.8666666666667,-452.26666666666665
1270,19.2,-322.1333333333333,-477.8666666666667
1271,23.466666666666665,-339.2,-462.93333333333334
1272,29.866666666666667,-349.8666666666667,-471.46666666666664
1273,29.866666666666667,-362.6666666666667,-482.1333333333333
1274,29.866666666666667,-364.8,-482.1333333333333
1275,32.0,-354.1333333333333,-497.06666666666666
1276,34.13333333333333,-337.06666666666666,-503.46666666666664
1277,29.866666666666667,-330.6666666666667,-499.2
1278,29.866666666666667,-332.8,-499.2
1279,29.866666666666667,-330.6666666666667,-494.93333333333334
1280,36.266666666666666,-317.8666666666667,-492.8
1281,38.4,-302.93333333333334,-486.4
1282,42.666666666666664,-294.4,-475.73333333333335
1283,42.666666666666664,-285.8666666666667,-465.06666666666666
1284,46.93333333333333,-281.6,-456.5333333333333
1285,51.2,-275.2,-441.59999999999997
1286,49.06666666666666,-281.6,-433.06666666666666
1287,53.333333333333336,-273.06666666666666,-435.2
1288,53.333333333333336,-275.2,-420.26666666666665
1289,53.333333333333336,-279.46666666666664,-428.8
1290,57.6,-281.6,-426.6666666666667
1291,64.0,-283.73333333333335,-430.93333333333334
1292,74.66666666666667,-288.0,-420.26666666666665
1293,74.66666666666667,-283.73333333333335,-424.5333333333333
1294,81.06666666666666,-288.0,-424.5333333333333
1295,87.46666666666667,-292.26666666666665,-407.46666666666664
1296,91.73333333333333,-294.4,-416.0
1297,87.46666666666667,-292.26666666666665,-424.5333333333333
1298,87.46666666666667,-294.4,-420.26666666666665
1299,96.0,-300.8,-411.73333333333335
1300,87.46666666666667,-298.6666666666667,-422.4
1301,83.2,-302.93333333333334,-437.3333333333333
1302,81.06666666666666,-305.06666666666666,-441.59999999999997
1303,72.53333333333333,-305.06666666666666,-458.6666666666667
1304,70.4,-311.46666666666664,-465.06666666666666
1305,70.4,-320.0,-477.8666666666667
1306,57.6,-341.3333333333333,-492.8
1307,55.46666666666667,-358.4,-488.5333333333333
1308,68.26666666666667,-388.26666666666665,-499.2
1309,64.0,-394.6666666666667,-497.06666666666666
1310,59.733333333333334,-413.8666666666667,-505.59999999999997
1311,66.13333333333333,-435.2,-499.2
1312,66.13333333333333,-443.73333333333335,-507.73333333333335
1313,61.86666666666667,-443.73333333333335,-494.93333333333334
1314,64.0,-422.4,-484.26666666666665
1315,68.26666666666667,-403.2,-448.0
1316,78.93333333333334,-390.4,-428.8
1317,83.2,-384.0,-407.46666666666664
1318,89.6,-381.8666666666667,-392.5333333333333
1319,96.0,-379.73333333333335,-407.46666666666664
1320,100.26666666666667,-369.06666666666666,-439.46666666666664
1321,100.26666666666667,-360.5333333333333,-475.73333333333335
1322,98.13333333333333,-347.73333333333335,-522.6666666666666
1323,85.33333333333333,-341.3333333333333,-576.0
1324,70.4,-341.3333333333333,-608.0
1325,76.8,-343.46666666666664,-642.1333333333333
1326,74.66666666666667,-345.6,-661.3333333333334
1327,59.733333333333334,-343.46666666666664,-680.5333333333333
1328,55.46666666666667,-324.26666666666665,-704.0
1329,61.86666666666667,-305.06666666666666,-757.3333333333334
1330,59.733333333333334,-281.6,-791.4666666666667
1331,44.8,-270.93333333333334,-832.0
1332,32.0,-273.06666666666666,-859.7333333333333
1333,10.666666666666666,-277.3333333333333,-878.9333333333333
1334,17.066666666666666,-290.1333333333333,-881.0666666666666
1335,25.6,-326.4,-883.1999999999999
1336,21.333333333333332,-334.93333333333334,-870.4
1337,38.4,-371.2,-870.4
1338,40.53333333333333,-388.26666666666665,-887.4666666666667
1339,61.86666666666667,-405.3333333333333,-900.2666666666667
1340,83.2,-403.2,-932.2666666666667
1341,100.26666666666667,-418.1333333333333,-938.6666666666666
1342,102.4,-426.6666666666667,-947.1999999999999
1343,134.4,-430.93333333333334,-964.2666666666667
1344,155.73333333333332,-452.26666666666665,-957.8666666666667
1345,170.66666666666666,-460.8,-972.8
1346,164.26666666666665,-475.73333333333335,-957.8666666666667
1347,172.8,-486.4,-951.4666666666667
1348,179.2,-503.46666666666664,-921.6
1349,170.66666666666666,-501.3333333333333,-900.2666666666667
1350,164.26666666666665,-514.1333333333333,-866.1333333333333
1351,162.13333333333333,-507.73333333333335,-842.6666666666666
1352,145.06666666666666,-509.8666666666667,-797.8666666666667
1353,138.66666666666666,-501.3333333333333,-750.9333333333333
1354,119.46666666666667,-477.8666666666667,-706.1333333333333
1355,102.4,-456.5333333333333,-652.8
1356,93.86666666666666,-443.73333333333335,-597.3333333333334
1357,76.8,-409.6,-550.4
1358,57.6,-392.5333333333333,-516.2666666666667
1359,59.733333333333334,-358.4,-460.8
1360,51.2,-315.73333333333335,-439.46666666666664
1361,55.46666666666667,-275.2,-388.26666666666665
1362,68.26666666666667,-236.79999999999998,-352.0
1363,55.46666666666667,-187.73333333333332,-315.73333333333335
1364,64.0,-164.26666666666665,-277.3333333333333
1365,61.86666666666667,-136.53333333333333,-251.73333333333332
1366,68.26666666666667,-134.4,-228.26666666666665
1367,44.8,-100.26666666666667,-192.0
1368,57.6,-113.06666666666666,-166.4
1369,38.4,-106.66666666666667,-160.0
1370,21.333333333333332,-125.86666666666666,-162.13333333333333
1371,25.6,-140.8,-145.06666666666666
1372,-8.533333333333333,-113.06666666666666,-113.06666666666666
1373,27.733333333333334,-196.26666666666665,-138.66666666666666
1374,17.066666666666666,-209.06666666666666,-151.46666666666667
1375,6.4,-215.46666666666667,-160.0
1376,-2.1333333333333333,-224.0,-166.4
1377,4.266666666666667,-243.2,-177.06666666666666
1378,-10.666666666666666,-226.13333333333333,-196.26666666666665
1379,17.066666666666666,-249.6,-206.93333333333334
1380,8.533333333333333,-258.1333333333333,-215.46666666666667
1381,6.4,-264.5333333333333,-232.53333333333333
1382,25.6,-270.93333333333334,-224.0
1383,40.53333333333333,-285.8666666666667,-234.66666666666666
1384,32.0,-292.26666666666665,-232.53333333333333
1385,53.333333333333336,-302.93333333333334,-234.66666666666666
1386,53.333333333333336,-313.6,-224.0
1387,64.0,-302.93333333333334,-241.06666666666666
1388,81.06666666666666,-326.4,-232.53333333333333
1389,46.93333333333333,-322.1333333333333,-206.93333333333334
1390,61.86666666666667,-302.93333333333334,-221.86666666666667
1391,49.06666666666666,-290.1333333333333,-226.13333333333333
1392,61.86666666666667,-273.06666666666666,-204.8
1393,46.93333333333333,-226.13333333333333,-187.73333333333332
1394,51.2,-249.6,-211.2
1395,34.13333333333333,-226.13333333333333,-200.53333333333333
1396,25.6,-215.46666666666667,-206.93333333333334
1397,25.6,-200.53333333333333,-187.73333333333332
1398,38.4,-185.6,-179.2
1399,34.13333333333333,-179.2,-194.13333333333333
1400,29.866666666666667,-168.53333333333333,-200.53333333333333
1401,27.733333333333334,-155.73333333333332,-202.66666666666666
1402,27.733333333333334,-149.33333333333334,-221.86666666666667
1403,32.0,-147.2,-221.86666666666667
1404,27.733333333333334,-140.8,-232.53333333333333
1405,29.866666666666667,-147.2,-241.06666666666666
1406,23.466666666666665,-160.0,-245.33333333333334
1407,29.866666666666667,-164.26666666666665,-264.5333333333333
1408,36.266666666666666,-198.4,-275.2
1409,40.53333333333333,-226.13333333333333,-281.6
1410,32.0,-264.5333333333333,-277.3333333333333
1411,40.53333333333333,-302.93333333333334,-279.46666666666664
1412,46.93333333333333,-341.3333333333333,-288.0
1413,49.06666666666666,-388.26666666666665,-283.73333333333335
1414,51.2,-424.5333333333333,-281.6
1415,57.6,-460.8,-285.8666666666667
1416,53.333333333333336,-494.93333333333334,-298.6666666666667
1417,66.13333333333333,-526.9333333333333,-298.6666666666667
1418,66.13333333333333,-552.5333333333333,-296.5333333333333
1419,74.66666666666667,-569.6,-298.6666666666667
1420,78.93333333333334,-584.5333333333333,-302.93333333333334
1421,83.2,-603.7333333333333,-317.8666666666667
1422,89.6,-618.6666666666666,-309.3333333333333
1423,89.6,-618.6666666666666,-330.6666666666667
1424,102.4,-631.4666666666667,-337.06666666666666
1425,91.73333333333333,-631.4666666666667,-343.46666666666664
1426,102.4,-627.2,-345.6
1427,100.26666666666667,-631.4666666666667,-328.5333333333333
1428,93.86666666666666,-610.1333333333333,-328.5333333333333
1429,85.33333333333333,-603.7333333333333,-315.73333333333335
1430,72.53333333333333,-576.0,-292.26666666666665
1431,64.0,-565.3333333333334,-270.93333333333334
1432,38.4,-537.6,-247.46666666666667
1433,32.0,-512.0,-226.13333333333333
1434,12.8,-469.3333333333333,-200.53333333333333
1435,6.4,-439.46666666666664,-185.6
1436,-4.266666666666667,-405.3333333333333,-174.93333333333334
1437,-12.8,-379.73333333333335,-153.6
1438,-17.066666666666666,-362.6666666666667,-134.4
1439,-25.6,-343.46666666666664,-123.73333333333333
1440,-32.0,-328.5333333333333,-108.8
1441,-34.13333333333333,-328.5333333333333,-113.06666666666666
1442,-32.0,-322.1333333333333,-102.4
1443,-32.0,-326.4,-104.53333333333333
1444,-34.13333333333333,-334.93333333333334,-100.26666666666667
1445,-27.733333333333334,-349.8666666666667,-96.0
1446,-29.866666666666667,-373.3333333333333,-96.0
1447,-14.933333333333334,-386.1333333333333,-100.26666666666667
1448,-4.266666666666667,-405.3333333333333,-106.66666666666667
1449,6.4,-424.5333333333333,-121.6
1450,29.866666666666667,-450.1333333333333,-138.66666666666666
1451,40.53333333333333,-477.8666666666667,-155.73333333333332
1452,53.333333333333336,-503.46666666666664,-164.26666666666665
1453,59.733333333333334,-520.5333333333333,-174.93333333333334
1454,61.86666666666667,-544.0,-192.0
1455,40.53333333333333,-522.6666666666666,-177.06666666666666
1456,66.13333333333333,-563.2,-209.06666666666666
1457,74.66666666666667,-571.7333333333333,-213.33333333333334
1458,76.8,-580.2666666666667,-206.93333333333334
1459,85.33333333333333,-580.2666666666667,-217.6
1460,81.06666666666666,-578.1333333333333,-204.8
1461,87.46666666666667,-580.2666666666667,-198.4
1462,83.2,-569.6,-202.66666666666666
1463,78.93333333333334,-571.7333333333333,-189.86666666666667
1464,83.2,-573.8666666666667,-187.73333333333332
1465,74.66666666666667,-554.6666666666666,-174.93333333333334
1466,74.66666666666667,-554.6666666666666,-174.93333333333334
1467,66.13333333333333,-546.1333333333333,-168.53333333333333
1468,59.733333333333334,-533.3333333333334,-157.86666666666667
1469,59.733333333333334,-529.0666666666666,-160.0
1470,59.733333333333334,-512.0,-162.13333333333333
1471,59.733333333333334,-509.8666666666667,-162.13333333333333
1472,57.6,-505.59999999999997,-160.0
1473,59.733333333333334,-488.5333333333333,-162.13333333333333
1474,57.6,-492.8,-153.6
1475,55.46666666666667,-492.8,-155.73333333333332
1476,57.6,-494.93333333333334,-147.2
1477,61.86666666666667,-492.8,-151.46666666666667
1478,55.46666666666667,-488.5333333333333,-153.6
1479,66.13333333333333,-492.8,-149.33333333333334
1480,66.13333333333333,-501.3333333333333,-147.2
1481,72.53333333333333,-505.59999999999997,-153.6
1482,74.66666666666667,-509.8666666666667,-140.8
1483,76.8,-512.0,-147.2
1484,78.93333333333334,-516.2666666666667,-149.33333333333334
1485,85.33333333333333,-522.6666666666666,-153.6
1486,85.33333333333333,-522.6666666666666,-145.06666666666666
1487,91.73333333333333,-529.0666666666666,-140.8
1488,87.46666666666667,-531.2,-140.8
1489,91.73333333333333,-531.2,-142.93333333333334
1490,91.73333333333333,-522.6666666666666,-151.46666666666667
1491,87.46666666666667,-522.6666666666666,-145.06666666666666
1492,91.73333333333333,-529.0666666666666,-142.93333333333334
1493,93.86666666666666,-526.9333333333333,-145.06666666666666
1494,83.2,-518.4,-147.2
1495,85.33333333333333,-522.6666666666666,-142.93333333333334
1496,76.8,-520.5333333333333,-149.33333333333334
1497,81.06666666666666,-512.0,-136.53333333333333
1498,83.2,-505.59999999999997,-149.33333333333334
1499,76.8,-507.73333333333335,-140.8
1500,72.53333333333333,-516.2666666666667,-142.93333333333334
1501,66.13333333333333,-505.59999999999997,-147.2
1502,74.66666666666667,-518.4,-147.2
1503,70.4,-518.4,-140.8
1504,68.26666666666667,-520.5333333333333,-138.66666666666666
1505,59.733333333333334,-524.8,-142.93333333333334
1506,66.13333333333333,-526.9333333333333,-145.06666666666666
1507,64.0,-526.9333333333333,-145.06666666666666
1508,68.26666666666667,-531.2,-140.8
1509,66.13333333333333,-526.9333333333333,-155.73333333333332
1510,59.733333333333334,-531.2,-147.2
1511,61.86666666666667,-535.4666666666667,-140.8
1512,59.733333333333334,-535.4666666666667,-147.2
1513,64.0,-533.3333333333334,-149.33333333333334
1514,61.86666666666667,-535.4666666666667,-145.06666666666666
1515,61.86666666666667,-537.6,-145.06666666666666
1516,57.6,-535.4666666666667,-151.46666666666667
1517,61.86666666666667,-533.3333333333334,-140.8
1518,57.6,-535.4666666666667,-157.86666666666667
1519,57.6,-533.3333333333334,-160.0
1520,57.6,-535.4666666666667,-147.2
1521,53.333333333333336,-531.2,-149.33333333333334
1522,51.2,-531.2,-151.46666666666667
1523,53.333333333333336,-531.2,-157.86666666666667
1524,55.46666666666667,-524.8,-151.46666666666667
1525,53.333333333333336,-522.6666666666666,-153.6
1526,49.06666666666666,-522.6666666666666,-147.2
1527,55.46666666666667,-520.5333333333333,-142.93333333333334
1528,55.46666666666667,-522.6666666666666,-138.66666666666666
1529,49.06666666666666,-522.6666666666666,-145.06666666666666
1530,55.46666666666667,-524.8,-142.93333333333334
1531,46.93333333333333,-529.0666666666666,-153.6
1532,53.333333333333336,-526.9333333333333,-149.33333333333334
1533,49.06666666666666,-533.3333333333334,-138.66666666666666
1534,55.46666666666667,-526.9333333333333,-136.53333333333333
1535,49.06666666666666,-533.3333333333334,-140.8
1536,55.46666666666667,-537.6,-147.2
1537,55.46666666666667,-535.4666666666667,-136.53333333333333
1538,57.6,-537.6,-142.93333333333334
1539,57.6,-535.4666666666667,-138.66666666666666
1540,55.46666666666667,-529.0666666666666,-142.93333333333334
1541,66.13333333333333,-535.4666666666667,-151.46666666666667
1542,59.733333333333334,-533.3333333333334,-145.06666666666666
1543,59.733333333333334,-533.3333333333334,-147.2
1544,61.86666666666667,-531.2,-147.2
1545,59.733333333333334,-529.0666666666666,-153.6
1546,55.46666666666667,-526.9333333333333,-155.73333333333332
1547,55.46666666666667,-529.0666666666666,-149.33333333333334
1548,55.46666666666667,-518.4,-151.46666666666667
1549,53.333333333333336,-520.5333333333333,-155.73333333333332
1550,57.6,-526.9333333333333,-151.46666666666667
1551,46.93333333333333,-522.6666666666666,-153.6
1552,44.8,-520.5333333333333,-151.46666666666667
1553,42.666666666666664,-524.8,-153.6
1554,40.53333333333333,-518.4,-153.6
1555,42.666666666666664,-514.1333333333333,-149.33333333333334
1556,51.2,-520.5333333333333,-155.73333333333332
1557,40.53333333333333,-516.2666666666667,-142.93333333333334
1558,40.53333333333333,-520.5333333333333,-160.0
1559,44.8,-524.8,-145.06666666666666
1560,42.666666666666664,-520.5333333333333,-145.06666666666666
1561,40.53333333333333,-516.2666666666667,-147.2
1562,42.666666666666664,-514.1333333333333,-140.8
1563,44.8,-516.2666666666667,-149.33333333333334
1564,42.666666666666664,-516.2666666666667,-147.2
1565,49.06666666666666,-518.4,-142.93333333333334
1566,46.93333333333333,-518.4,-134.4
1567,46.93333333333333,-518.4,-142.93333333333334
1568,46.93333333333333,-522.6666666666666,-147.2
1569,44.8,-526.9333333333333,-151.46666666666667
1570,51.2,-526.9333333333333,-140.8
1571,51.2,-522.6666666666666,-145.06666666666666
1572,57.6,-531.2,-147.2
1573,53.333333333333336,-535.4666666666667,-142.93333333333334
1574,59.733333333333334,-529.0666666666666,-153.6
1575,59.733333333333334,-526.9333333333333,-151.46666666666667
1576,59.733333333333334,-537.6,-149.33333333333334
1577,64.0,-539.7333333333333,-153.6
1578,64.0,-541.8666666666667,-157.86666666666667
1579,59.733333333333334,-539.7333333333333,-162.13333333333333
1580,64.0,-537.6,-153.6
1581,68.26666666666667,-535.4666666666667,-153.6
1582,66.13333333333333,-535.4666666666667,-164.26666666666665
1583,64.0,-531.2,-153.6
1584,61.86666666666667,-533.3333333333334,-151.46666666666667
1585,61.86666666666667,-526.9333333333333,-157.86666666666667
1586,61.86666666666667,-522.6666666666666,-155.73333333333332
1587,68.26666666666667,-526.9333333333333,-153.6
1588,59.733333333333334,-520.5333333333333,-155.73333333333332
1589,57.6,-514.1333333333333,-147.2
1590,57.6,-512.0,-147.2
1591,61.86666666666667,-514.1333333333333,-157.86666666666667
1592,59.733333333333334,-512.0,-147.2
1593,57.6,-512.0,-153.6
1594,53.333333333333336,-507.73333333333335,-147.2
1595,51.2,-516.2666666666667,-147.2
1596,55.46666666666667,-514.1333333333333,-145.06666666666666
1597,46.93333333333333,-509.8666666666667,-142.93333333333334
1598,51.2,-518.4,-145.06666666666666
1599,51.2,-518.4,-136.53333333333333
1600,51.2,-514.1333333333333,-145.06666666666666
1601,49.06666666666666,-512.0,-147.2
1602,57.6,-520.5333333333333,-147.2
1603,49.06666666666666,-524.8,-147.2
1604,55.46666666666667,-522.6666666666666,-151.46666666666667
1605,57.6,-524.8,-147.2
1606,51.2,-529.0666666666666,-149.33333333333334
1607,53.333333333333336,-529.0666666666666,-155.73333333333332
1608,57.6,-526.9333333333333,-155.73333333333332
1609,57.6,-526.9333333333333,-157.86666666666667
1610,61.86666666666667,-531.2,-157.86666666666667
1611,55.46666666666667,-535.4666666666667,-157.86666666666667
1612,59.733333333333334,-537.6,-155.73333333333332
1613,61.86666666666667,-537.6,-155.73333333333332
1614,61.86666666666667,-535.4666666666667,-147.2
1615,61.86666666666667,-535.4666666666667,-160.0
1616,55.46666666666667,-535.4666666666667,-157.86666666666667
1617,59.733333333333334,-524.8,-155.73333333333332
1618,66.13333333333333,-522.6666666666666,-162.13333333333333
1619,55.46666666666667,-529.0666666666666,-162.13333333333333
1620,57.6,-520.5333333333333,-160.0
1621,57.6,-520.5333333333333,-153.6
1622,55.46666666666667,-514.1333333333333,-166.4
1623,55.46666666666667,-518.4,-147.2
1624,61.86666666666667,-512.0,-164.26666666666665
1625,57.6,-520.5333333333333,-160.0
1626,59.733333333333334,-518.4,-162.13333333333333
1627,61.86666666666667,-522.6666666666666,-160.0
1628,57.6,-518.4,-153.6
1629,57.6,-518.4,-162.13333333333333
1630,53.333333333333336,-520.5333333333333,-157.86666666666667
1631,57.6,-518.4,-157.86666666666667
1632,57.6,-518.4,-160.0
1633,57.6,-522.6666666666666,-157.86666666666667
1634,59.733333333333334,-514.1333333333333,-162.13333333333333
1635,55.46666666666667,-516.2666666666667,-162.13333333333333
1636,57.6,-516.2666666666667,-170.66666666666666
1637,53.333333333333336,-518.4,-164.26666666666665
1638,57.6,-518.4,-157.86666666666667
1639,59.733333333333334,-520.5333333333333,-164.26666666666665
1640,49.06666666666666,-516.2666666666667,-162.13333333333333
1641,59.733333333333334,-518.4,-160.0
1642,57.6,-518.4,-160.0
1643,55.46666666666667,-514.1333333333333,-164.26666666666665
1644,61.86666666666667,-512.0,-172.8
1645,66.13333333333333,-518.4,-168.53333333333333
1646,64.0,-512.0,-162.13333333333333
1647,64.0,-514.1333333333333,-168.53333333333333
1648,57.6,-516.2666666666667,-168.53333333333333
1649,61.86666666666667,-522.6666666666666,-172.8
1650,68.26666666666667,-518.4,-166.4
1651,66.13333333333333,-529.0666666666666,-174.93333333333334
1652,64.0,-526.9333333333333,-166.4
1653,59.733333333333334,-524.8,-177.06666666666666
1654,59.733333333333334,-529.0666666666666,-183.46666666666667
1655,51.2,-529.0666666666666,-183.46666666666667
1656,57.6,-526.9333333333333,-183.46666666666667
1657,51.2,-526.9333333333333,-183.46666666666667
1658,55.46666666666667,-524.8,-183.46666666666667
1659,53.333333333333336,-537.6,-181.33333333333334
1660,57.6,-537.6,-177.06666666666666
1661,55.46666666666667,-531.2,-174.93333333333334
1662,55.46666666666667,-539.7333333333333,-189.86666666666667
1663,51.2,-533.3333333333334,-179.2
1664,51.2,-526.9333333333333,-177.06666666666666
1665,53.333333333333336,-531.2,-183.46666666666667
1666,46.93333333333333,-522.6666666666666,-183.46666666666667
1667,55.46666666666667,-524.8,-172.8
1668,46.93333333333333,-518.4,-174.93333333333334
1669,51.2,-520.5333333333333,-170.66666666666666
1670,53.333333333333336,-518.4,-172.8
1671,51.2,-518.4,-179.2
1672,51.2,-514.1333333333333,-183.46666666666667
1673,46.93333333333333,-512.0,-168.53333333333333
1674,46.93333333333333,-518.4,-179.2
1675,53.333333333333336,-516.2666666666667,-177.06666666666666
1676,46.93333333333333,-507.73333333333335,-174.93333333333334
1677,46.93333333333333,-509.8666666666667,-166.4
1678,49.06666666666666,-514.1333333333333,-174.93333333333334
1679,53.333333333333336,-518.4,-170.66666666666666
1680,46.93333333333333,-514.1333333333333,-168.53333333333333
1681,49.06666666666666,-514.1333333333333,-164.26666666666665
1682,51.2,-514.1333333333333,-170.66666666666666
1683,46.93333333333333,-514.1333333333333,-172.8
1684,42.666666666666664,-505.59999999999997,-166.4
1685,46.93333333333333,-507.73333333333335,-179.2
1686,44.8,-507.73333333333335,-170.66666666666666
1687,38.4,-507.73333333333335,-181.33333333333334
1688,44.8,-516.2666666666667,-179.2
1689,40.53333333333333,-512.0,-185.6
1690,44.8,-512.0,-187.73333333333332
1691,44.8,-512.0,-183.46666666666667
1692,46.93333333333333,-509.8666666666667,-189.86666666666667
1693,46.93333333333333,-518.4,-179.2
1694,44.8,-514.1333333333333,-185.6
1695,49.06666666666666,-518.4,-187.73333333333332
1696,38.4,-516.2666666666667,-172.8
1697,49.06666666666666,-520.5333333333333,-181.33333333333334
1698,49.06666666666666,-522.6666666666666,-185.6
1699,46.93333333333333,-520.5333333333333,-185.6
1700,51.2,-524.8,-185.6
1701,49.06666666666666,-522.6666666666666,-179.2
1702,49.06666666666666,-524.8,-183.46666666666667
1703,46.93333333333333,-524.8,-187.73333333333332
1704,44.8,-522.6666666666666,-174.93333333333334
1705,51.2,-524.8,-189.86666666666667
1706,51.2,-524.8,-187.73333333333332
1707,44.8,-522.6666666666666,-179.2
1708,44.8,-522.6666666666666,-187.73333333333332
1709,42.666666666666664,-520.5333333333333,-177.06666666666666
1710,46.93333333333333,-520.5333333333333,-183.46666666666667
1711,44.8,-522.6666666666666,-174.93333333333334
1712,46.93333333333333,-520.5333333333333,-185.6
1713,46.93333333333333,-520.5333333333333,-187.73333333333332
1714,46.93333333333333,-518.4,-185.6
1715,46.93333333333333,-514.1333333333333,-189.86666666666667
1716,42.666666666666664,-512.0,-185.6
1717,42.666666666666664,-514.1333333333333,-177.06666666666666
1718,44.8,-512.0,-183.46666666666667
1719,44.8,-512.0,-187.73333333333332
1720,40.53333333333333,-507.73333333333335,-183.46666666666667
1721,44.8,-503.46666666666664,-181.33333333333334
1722,42.666666666666664,-514.1333333333333,-189.86666666666667
1723,44.8,-507.73333333333335,-179.2
1724,40.53333333333333,-514.1333333333333,-183.46666666666667
1725,44.8,-509.8666666666667,-177.06666666666666
1726,40.53333333333333,-505.59999999999997,-179.2
1727,42.666666666666664,-505.59999999999997,-185.6
1728,44.8,-514.1333333333333,-181.33333333333334
1729,42.666666666666664,-505.59999999999997,-181.33333333333334
1730,59.733333333333334,-514.1333333333333,-187.73333333333332
1731,46.93333333333333,-507.73333333333335,-181.33333333333334
1732,42.666666666666664,-512.0,-183.46666666666667
1733,42.666666666666664,-512.0,-181.33333333333334
1734,51.2,-516.2666666666667,-185.6
1735,46.93333333333333,-518.4,-177.06666666666666
1736,46.93333333333333,-518.4,-179.2
1737,44.8,-518.4,-181.33333333333334
1738,64.0,-518.4,-181.33333333333334
1739,51.2,-518.4,-194.13333333333333
1740,44.8,-522.6666666666666,-185.6
1741,51.2,-518.4,-187.73333333333332
1742,44.8,-526.9333333333333,-183.46666666666667
1743,44.8,-522.6666666666666,-185.6
1744,49.06666666666666,-520.5333333333333,-187.73333333333332
1745,42.666666666666664,-516.2666666666667,-181.33333333333334
1746,46.93333333333333,-520.5333333333333,-189.86666666666667
1747,38.4,-518.4,-185.6
1748,44.8,-516.2666666666667,-187.73333333333332
1749,44.8,-514.1333333333333,-183.46666666666667
1750,32.0,-509.8666666666667,-194.13333333333333
1751,38.4,-514.1333333333333,-192.0
1752,42.666666666666664,-520.5333333333333,-189.86666666666667
1753,44.8,-512.0,-194.13333333333333
1754,38.4,-512.0,-194.13333333333333
1755,36.266666666666666,-512.0,-196.26666666666665
1756,34.13333333333333,-512.0,-187.73333333333332
1757,38.4,-507.73333333333335,-189.86666666666667
1758,38.4,-509.8666666666667,-200.53333333333333
1759,42.666666666666664,-514.1333333333333,-183.46666666666667
1760,38.4,-514.1333333333333,-179.2
1761,40.53333333333333,-512.0,-185.6
1762,42.666666666666664,-507.73333333333335,-196.26666666666665
1763,44.8,-509.8666666666667,-187.73333333333332
1764,36.266666666666666,-503.46666666666664,-185.6
1765,40.53333333333333,-505.59999999999997,-185.6
1766,40.53333333333333,-505.59999999999997,-179.2
1767,38.4,-505.59999999999997,-181.33333333333334
1768,42.666666666666664,-509.8666666666667,-181.33333333333334
1769,38.4,-509.8666666666667,-187.73333333333332
1770,49.06666666666666,-509.8666666666667,-181.33333333333334
1771,44.8,-512.0,-196.26666666666665
1772,42.666666666666664,-509.8666666666667,-187.73333333333332
1773,44.8,-518.4,-192.0
1774,40.53333333333333,-518.4,-187.73333333333332
1775,49.06666666666666,-516.2666666666667,-183.46666666666667
1776,44.8,-518.4,-183.46666666666667
1777,44.8,-520.5333333333333,-187.73333333333332
1778,44.8,-518.4,-194.13333333333333
1779,38.4,-522.6666666666666,-189.86666666666667
1780,44.8,-516.2666666666667,-192.0
1781,40.53333333333333,-514.1333333333333,-200.53333333333333
1782,46.93333333333333,-524.8,-196.26666666666665
1783,40.53333333333333,-516.2666666666667,-200.53333333333333
1784,38.4,-518.4,-200.53333333333333
1785,34.13333333333333,-522.6666666666666,-196.26666666666665
1786,38.4,-526.9333333333333,-194.13333333333333
1787,36.266666666666666,-520.5333333333333,-202.66666666666666
1788,40.53333333333333,-518.4,-204.8
1789,40.53333333333333,-522.6666666666666,-196.26666666666665
1790,38.4,-520.5333333333333,-187.73333333333332
1791,40.53333333333333,-516.2666666666667,-194.13333333333333
1792,36.266666666666666,-524.8,-192.0
1793,36.266666666666666,-520.5333333333333,-192.0
1794,38.4,-516.2666666666667,-185.6
1795,38.4,-514.1333333333333,-194.13333333333333
1796,42.666666666666664,-505.59999999999997,-196.26666666666665
1797,34.13333333333333,-501.3333333333333,-192.0
1798,36.266666666666666,-505.59999999999997,-185.6
1799,38.4,-505.59999999999997,-185.6
1800,38.4,-505.59999999999997,-189.86666666666667
1801,36.266666666666666,-512.0,-185.6
1802,36.266666666666666,-503.46666666666664,-192.0
1803,34.13333333333333,-501.3333333333333,-187.73333333333332
1804,40.53333333333333,-503.46666666666664,-187.73333333333332
1805,42.666666666666664,-501.3333333333333,-183.46666666666667
1806,38.4,-505.59999999999997,-185.6
1807,46.93333333333333,-509.8666666666667,-185.6
1808,42.666666666666664,-507.73333333333335,-189.86666666666667
1809,40.53333333333333,-503.46666666666664,-179.2
1810,40.53333333333333,-505.59999999999997,-200.53333333333333
1811,42.666666666666664,-507.73333333333335,-189.86666666666667
1812,38.4,-503.46666666666664,-194.13333333333333
1813,34.13333333333333,-514.1333333333333,-185.6
1814,42.666666666666664,-507.73333333333335,-187.73333333333332
1815,66.13333333333333,-520.5333333333333,-196.26666666666665
1816,40.53333333333333,-509.8666666666667,-192.0
1817,42.666666666666664,-507.73333333333335,-185.6
1818,40.53333333333333,-518.4,-183.46666666666667
1819,42.666666666666664,-509.8666666666667,-189.86666666666667
1820,42.666666666666664,-509.8666666666667,-187.73333333333332
1821,38.4,-507.73333333333335,-198.4
1822,36.266666666666666,-512.0,-185.6
1823,40.53333333333333,-512.0,-189.86666666666667
1824,42.666666666666664,-518.4,-187.73333333333332
1825,40.53333333333333,-514.1333333333333,-185.6
1826,42.666666666666664,-522.6666666666666,-187.73333333333332
1827,38.4,-518.4,-194.13333333333333
1828,40.53333333333333,-520.5333333333333,-196.26666666666665
1829,38.4,-514.1333333333333,-192.0
1830,36.266666666666666,-518.4,-194.13333333333333
1831,34.13333333333333,-522.6666666666666,-187.73333333333332
1832,34.13333333333333,-516.2666666666667,-196.26666666666665
1833,40.53333333333333,-512.0,-194.13333333333333
1834,42.666666666666664,-518.4,-189.86666666666667
1835,42.666666666666664,-524.8,-192.0
1836,38.4,-512.0,-189.86666666666667
1837,42.666666666666664,-516.2666666666667,-198.4
1838,36.266666666666666,-514.1333333333333,-194.13333333333333
1839,38.4,-507.73333333333335,-198.4
1840,46.93333333333333,-512.0,-192.0
1841,40.53333333333333,-505.59999999999997,-192.0
1842,40.53333333333333,-509.8666666666667,-194.13333333333333
1843,42.666666666666664,-512.0,-189.86666666666667
1844,51.2,-514.1333333333333,-192.0
1845,42.666666666666664,-512.0,-194.13333333333333
1846,34.13333333333333,-507.73333333333335,-185.6
1847,36.266666666666666,-507.73333333333335,-192.0
1848,38.4,-507.73333333333335,-194.13333333333333
1849,40.53333333333333,-514.1333333333333,-192.0
1850,38.4,-507.73333333333335,-198.4
1851,38.4,-509.8666666666667,-196.26666666666665
1852,42.666666666666664,-509.8666666666667,-192.0
1853,32.0,-509.8666666666667,-192.0
1854,32.0,-516.2666666666667,-189.86666666666667
1855,34.13333333333333,-509.8666666666667,-206.93333333333334
1856,36.266666666666666,-518.4,-194.13333333333333
1857,32.0,-512.0,-192.0
1858,40.53333333333333,-514.1333333333333,-196.26666666666665
1859,36.266666666666666,-516.2666666666667,-189.86666666666667
1860,40.53333333333333,-512.0,-194.13333333333333
1861,38.4,-512.0,-200.53333333333333
1862,46.93333333333333,-514.1333333333333,-202.66666666666666
1863,40.53333333333333,-516.2666666666667,-194.13333333333333
1864,40.53333333333333,-514.1333333333333,-196.26666666666665
1865,38.4,-514.1333333333333,-198.4
1866,36.266666666666666,-514.1333333333333,-196.26666666666665
1867,40.53333333333333,-514.1333333333333,-194.13333333333333
1868,42.666666666666664,-516.2666666666667,-194.13333333333333
1869,44.8,-509.8666666666667,-198.4
1870,32.0,-512.0,-189.86666666666667
1871,34.13333333333333,-509.8666666666667,-192.0
1872,40.53333333333333,-507.73333333333335,-198.4
1873,36.266666666666666,-514.1333333333333,-183.46666666666667
1874,40.53333333333333,-512.0,-189.86666666666667
1875,32.0,-516.2666666666667,-196.26666666666665
1876,38.4,-516.2666666666667,-194.13333333333333
1877,32.0,-509.8666666666667,-194.13333333333333
1878,34.13333333333333,-514.1333333333333,-198.4
1879,34.13333333333333,-514.1333333333333,-189.86666666666667
1880,36.266666666666666,-516.2666666666667,-192.0
1881,32.0,-512.0,-181.33333333333334
1882,32.0,-514.1333333333333,-189.86666666666667
1883,36.266666666666666,-514.1333333333333,-194.13333333333333
1884,38.4,-514.1333333333333,-194.13333333333333
1885,38.4,-509.8666666666667,-200.53333333333333
1886,36.266666666666666,-512.0,-183.46666666666667
1887,27.733333333333334,-509.8666666666667,-185.6
1888,29.866666666666667,-509.8666666666667,-196.26666666666665
1889,38.4,-505.59999999999997,-194.13333333333333
1890,34.13333333333333,-516.2666666666667,-198.4
1891,40.53333333333333,-520.5333333333333,-181.33333333333334
1892,36.266666666666666,-509.8666666666667,-192.0
1893,38.4,-512.0,-181.33333333333334
1894,42.666666666666664,-514.1333333333333,-189.86666666666667
1895,40.53333333333333,-509.8666666666667,-189.86666666666667
1896,36.266666666666666,-516.2666666666667,-187.73333333333332
1897,42.666666666666664,-516.2666666666667,-192.0
1898,44.8,-514.1333333333333,-192.0
1899,42.666666666666664,-516.2666666666667,-198.4
1900,40.53333333333333,-516.2666666666667,-187.73333333333332
1901,46.93333333333333,-516.2666666666667,-189.86666666666667
1902,36.266666666666666,-514.1333333333333,-183.46666666666667
1903,40.53333333333333,-509.8666666666667,-185.6
1904,32.0,-516.2666666666667,-198.4
1905,36.266666666666666,-509.8666666666667,-202.66666666666666
1906,40.53333333333333,-516.2666666666667,-198.4
1907,46.93333333333333,-507.73333333333335,-200.53333333333333
1908,46.93333333333333,-516.2666666666667,-196.26666666666665
1909,44.8,-520.5333333333333,-202.66666666666666
1910,46.93333333333333,-507.73333333333335,-206.93333333333334
1911,40.53333333333333,-518.4,-206.93333333333334
1912,49.06666666666666,-512.0,-209.06666666666666
1913,49.06666666666666,-516.2666666666667,-204.8
1914,49.06666666666666,-514.1333333333333,-217.6
1915,44.8,-512.0,-204.8
1916,42.666666666666664,-512.0,-196.26666666666665
1917,49.06666666666666,-514.1333333333333,-204.8
1918,42.666666666666664,-507.73333333333335,-194.13333333333333
1919,40.53333333333333,-518.4,-192.0
1920,42.666666666666664,-507.73333333333335,-192.0
1921,40.53333333333333,-509.8666666666667,-202.66666666666666
1922,38.4,-501.3333333333333,-198.4
1923,32.0,-503.46666666666664,-194.13333333333333
1924,29.866666666666667,-499.2,-187.73333333333332
1925,29.866666666666667,-501.3333333333333,-189.86666666666667
1926,27.733333333333334,-503.46666666666664,-185.6
1927,27.733333333333334,-503.46666666666664,-187.73333333333332
1928,32.0,-503.46666666666664,-194.13333333333333
1929,21.333333333333332,-501.3333333333333,-192.0
1930,25.6,-507.73333333333335,-185.6
1931,23.466666666666665,-509.8666666666667,-185.6
1932,23.466666666666665,-509.8666666666667,-187.73333333333332
1933,23.466666666666665,-507.73333333333335,-192.0
1934,25.6,-518.4,-183.46666666666667
1935,21.333333333333332,-518.4,-192.0
1936,23.466666666666665,-516.2666666666667,-189.86666666666667
1937,25.6,-512.0,-196.26666666666665
1938,21.333333333333332,-512.0,-189.86666666666667
1939,23.466666666666665,-518.4,-192.0
1940,29.866666666666667,-518.4,-192.0
1941,23.466666666666665,-518.4,-196.26666666666665
1942,23.466666666666665,-516.2666666666667,-200.53333333333333
1943,25.6,-512.0,-192.0
1944,29.866666666666667,-507.73333333333335,-200.53333333333333
1945,27.733333333333334,-507.73333333333335,-196.26666666666665
1946,25.6,-512.0,-194.13333333333333
1947,27.733333333333334,-503.46666666666664,-196.26666666666665
1948,27.733333333333334,-516.2666666666667,-194.13333333333333
1949,27.733333333333334,-514.1333333333333,-200.53333333333333
1950,32.0,-512.0,-192.0
1951,29.866666666666667,-516.2666666666667,-194.13333333333333
1952,29.866666666666667,-516.2666666666667,-194.13333333333333
1953,34.13333333333333,-520.5333333333333,-189.86666666666667
1954,32.0,-516.2666666666667,-202.66666666666666
1955,40.53333333333333,-518.4,-204.8
1956,34.13333333333333,-522.6666666666666,-196.26666666666665
1957,40.53333333333333,-514.1333333333333,-198.4
1958,36.266666666666666,-524.8,-196.26666666666665
1959,36.266666666666666,-514.1333333333333,-198.4
1960,40.53333333333333,-518.4,-202.66666666666666
1961,38.4,-524.8,-194.13333333333333
1962,42.666666666666664,-516.2666666666667,-189.86666666666667
1963,40.53333333333333,-512.0,-204.8
1964,44.8,-518.4,-202.66666666666666
1965,46.93333333333333,-512.0,-192.0
1966,36.266666666666666,-507.73333333333335,-189.86666666666667
1967,38.4,-509.8666666666667,-200.53333333333333
1968,44.8,-512.0,-192.0
1969,32.0,-507.73333333333335,-198.4
1970,36.266666666666666,-505.59999999999997,-194.13333333333333
1971,36.266666666666666,-507.73333333333335,-192.0
1972,36.266666666666666,-512.0,-192.0
1973,38.4,-512.0,-200.53333333333333
1974,36.266666666666666,-509.8666666666667,-196.26666666666665
1975,36.266666666666666,-512.0,-196.26666666666665
1976,38.4,-514.1333333333333,-198.4
1977,36.266666666666666,-512.0,-192.0
1978,34.13333333333333,-514.1333333333333,-196.26666666666665
1979,38.4,-514.1333333333333,-198.4
1980,42.666666666666664,-516.2666666666667,-187.73333333333332
1981,36.266666666666666,-514.1333333333333,-189.86666666666667
1982,36.266666666666666,-512.0,-194.13333333333333
1983,42.666666666666664,-520.5333333333333,-194.13333333333333
1984,38.4,-518.4,-192.0
1985,42.666666666666664,-512.0,-198.4
1986,40.53333333333333,-516.2666666666667,-196.26666666666665
1987,36.266666666666666,-516.2666666666667,-196.26666666666665
1988,38.4,-514.1333333333333,-189.86666666666667
1989,36.266666666666666,-512.0,-185.6
1990,38.4,-509.8666666666667,-196.26666666666665
1991,42.666666666666664,-507.73333333333335,-192.0
1992,42.666666666666664,-514.1333333333333,-194.13333333333333
1993,36.266666666666666,-505.59999999999997,-194.13333333333333
1994,38.4,-505.59999999999997,-196.26666666666665
1995,42.666666666666664,-509.8666666666667,-192.0
1996,44.8,-516.2666666666667,-185.6
1997,44.8,-509.8666666666667,-189.86666666666667
1998,34.13333333333333,-499.2,-183.46666666666667
1999,40.53333333333333,-507.73333333333335,-185.6
2000,38.4,-509.8666666666667,-196.26666666666665
2001,42.666666666666664,-518.4,-189.86666666666667
2002,40.53333333333333,-514.1333333333333,-187.73333333333332
2003,40.53333333333333,-514.1333333333333,-187.73333333333332
2004,40.53333333333333,-518.4,-194.13333333333333
2005,38.4,-514.1333333333333,-194.13333333333333
2006,40.53333333333333,-520.5333333333333,-196.26666666666665
2007,38.4,-516.2666666666667,-194.13333333333333
2008,40.53333333333333,-516.2666666666667,-192.0
2009,34.13333333333333,-514.1333333333333,-189.86666666666667
2010,36.266666666666666,-512.0,-194.13333333333333
2011,44.8,-518.4,-189.86666666666667
2012,42.666666666666664,-512.0,-196.26666666666665
2013,42.666666666666664,-509.8666666666667,-187.73333333333332
2014,38.4,-509.8666666666667,-187.73333333333332
2015,32.0,-503.46666666666664,-192.0
2016,42.666666666666664,-512.0,-189.86666666666667
2017,42.666666666666664,-509.8666666666667,-183.46666666666667
2018,38.4,-509.8666666666667,-192.0
2019,38.4,-501.3333333333333,-183.46666666666667
2020,46.93333333333333,-509.8666666666667,-189.86666666666667
2021,49.06666666666666,-512.0,-185.6
2022,49.06666666666666,-516.2666666666667,-185.6
2023,46.93333333333333,-518.4,-185.6
2024,46.93333333333333,-509.8666666666667,-185.6
2025,44.8,-516.2666666666667,-187.73333333333332
2026,44.8,-518.4,-192.0
2027,42.666666666666664,-516.2666666666667,-181.33333333333334
2028,49.06666666666666,-516.2666666666667,-192.0
2029,44.8,-520.5333333333333,-192.0
2030,49.06666666666666,-522.6666666666666,-192.0
2031,44.8,-522.6666666666666,-196.26666666666665
2032,44.8,-518.4,-183.46666666666667
2033,42.666666666666664,-524.8,-196.26666666666665
2034,44.8,-520.5333333333333,-192.0
2035,40.53333333333333,-516.2666666666667,-192.0
2036,40.53333333333333,-516.2666666666667,-189.86666666666667
2037,44.8,-520.5333333333333,-189.86666666666667
2038,38.4,-516.2666666666667,-181.33333333333334
2039,40.53333333333333,-520.5333333333333,-185.6
2040,44.8,-520.5333333333333,-183.46666666666667
2041,40.53333333333333,-518.4,-181.33333333333334
2042,42.666666666666664,-514.1333333333333,-183.46666666666667
2043,44.8,-509.8666666666667,-187.73333333333332
2044,38.4,-516.2666666666667,-185.6
2045,38.4,-512.0,-185.6
2046,46.93333333333333,-518.4,-181.33333333333334
2047,38.4,-514.1333333333333,-181.33333333333334
2048,44.8,-516.2666666666667,-177.06666666666666
2049,42.666666666666664,-514.1333333333333,-183.46666666666667
2050,44.8,-514.1333333333333,-181.33333333333334
2051,40.53333333333333,-509.8666666666667,-177.06666666666666
2052,38.4,-507.73333333333335,-187.73333333333332
2053,46.93333333333333,-520.5333333333333,-183.46666666666667
2054,40.53333333333333,-509.8666666666667,-177.06666666666666
2055,46.93333333333333,-512.0,-177.06666666666666
2056,44.8,-507.73333333333335,-189.86666666666667
2057,46.93333333333333,-518.4,-177.06666666666666
2058,42.666666666666664,-509.8666666666667,-174.93333333333334
2059,38.4,-509.8666666666667,-183.46666666666667
2060,42.666666666666664,-514.1333333333333,-181.33333333333334
2061,42.666666666666664,-512.0,-183.46666666666667
2062,44.8,-507.73333333333335,-185.6
2063,42.666666666666664,-509.8666666666667,-181.33333333333334
2064,46.93333333333333,-514.1333333333333,-181.33333333333334
2065,42.666666666666664,-516.2666666666667,-179.2
2066,46.93333333333333,-516.2666666666667,-179.2
2067,42.666666666666664,-514.1333333333333,-179.2
2068,34.13333333333333,-516.2666666666667,-174.93333333333334
2069,40.53333333333333,-514.1333333333333,-177.06666666666666
2070,46.93333333333333,-516.2666666666667,-179.2
2071,40.53333333333333,-516.2666666666667,-187.73333333333332
2072,40.53333333333333,-512.0,-189.86666666666667
2073,44.8,-509.8666666666667,-183.46666666666667
2074,51.2,-522.6666666666666,-185.6
2075,49.06666666666666,-516.2666666666667,-187.73333333333332
2076,42.666666666666664,-520.5333333333333,-185.6
2077,49.06666666666666,-514.1333333333333,-177.06666666666666
2078,44.8,-522.6666666666666,-183.46666666666667
2079,42.666666666666664,-518.4,-170.66666666666666
2080,49.06666666666666,-516.2666666666667,-183.46666666666667
2081,51.2,-522.6666666666666,-181.33333333333334
2082,49.06666666666666,-520.5333333333333,-185.6
2083,51.2,-524.8,-174.93333333333334
2084,53.333333333333336,-520.5333333333333,-181.33333333333334
2085,55.46666666666667,-524.8,-187.73333333333332
2086,49.06666666666666,-520.5333333333333,-189.86666666666667
2087,49.06666666666666,-518.4,-189.86666666666667
2088,46.93333333333333,-518.4,-183.46666666666667
2089,53.333333333333336,-518.4,-183.46666666666667
2090,51.2,-514.1333333333333,-185.6
2091,44.8,-507.73333333333335,-185.6
2092,46.93333333333333,-509.8666666666667,-185.6
2093,42.666666666666664,-509.8666666666667,-181.33333333333334
2094,44.8,-509.8666666666667,-179.2
2095,46.93333333333333,-507.73333333333335,-183.46666666666667
2096,38.4,-507.73333333333335,-172.8
2097,44.8,-499.2,-185.6
2098,40.53333333333333,-505.59999999999997,-179.2
2099,36.266666666666666,-494.93333333333334,-181.33333333333334
2100,40.53333333333333,-501.3333333333333,-185.6
2101,36.266666666666666,-499.2,-179.2
2102,38.4,-507.73333333333335,-183.46666666666667
2103,42.666666666666664,-503.46666666666664,-185.6
2104,38.4,-507.73333333333335,-183.46666666666667
2105,42.666666666666664,-512.0,-181.33333333333334
2106,44.8,-514.1333333333333,-181.33333333333334
2107,49.06666666666666,-518.4,-183.46666666666667
2108,46.93333333333333,-518.4,-174.93333333333334
2109,49.06666666666666,-518.4,-179.2
2110,46.93333333333333,-522.6666666666666,-185.6
2111,46.93333333333333,-516.2666666666667,-192.0
2112,42.666666666666664,-520.5333333333333,-174.93333333333334
2113,51.2,-522.6666666666666,-179.2
2114,51.2,-520.5333333333333,-181.33333333333334
2115,51.2,-518.4,-183.46666666666667
2116,49.06666666666666,-516.2666666666667,-183.46666666666667
2117,53.333333333333336,-520.5333333333333,-181.33333333333334
2118,55.46666666666667,-514.1333333333333,-189.86666666666667
2119,55.46666666666667,-516.2666666666667,-183.46666666666667
2120,53.333333333333336,-514.1333333333333,-183.46666666666667
2121,59.733333333333334,-512.0,-202.66666666666666
2122,46.93333333333333,-507.73333333333335,-185.6
2123,49.06666666666666,-509.8666666666667,-181.33333333333334
2124,51.2,-509.8666666666667,-183.46666666666667
2125,49.06666666666666,-507.73333333333335,-189.86666666666667
2126,44.8,-505.59999999999997,-181.33333333333334
2127,51.2,-512.0,-187.73333333333332
2128,55.46666666666667,-512.0,-192.0
2129,55.46666666666667,-509.8666666666667,-185.6
2130,51.2,-503.46666666666664,-192.0
2131,53.333333333333336,-509.8666666666667,-192.0
2132,55.46666666666667,-509.8666666666667,-198.4
2133,49.06666666666666,-516.2666666666667,-185.6
2134,46.93333333333333,-512.0,-196.26666666666665
2135,49.06666666666666,-512.0,-204.8
2136,49.06666666666666,-514.1333333333333,-194.13333333333333
2137,46.93333333333333,-512.0,-196.26666666666665
2138,44.8,-514.1333333333333,-194.13333333333333
2139,46.93333333333333,-514.1333333333333,-189.86666666666667
2140,44.8,-514.1333333333333,-192.0
2141,44.8,-509.8666666666667,-181.33333333333334
2142,44.8,-509.8666666666667,-187.73333333333332
2143,51.2,-509.8666666666667,-185.6
2144,46.93333333333333,-509.8666666666667,-174.93333333333334
2145,44.8,-509.8666666666667,-187.73333333333332
2146,49.06666666666666,-509.8666666666667,-189.86666666666667
2147,44.8,-514.1333333333333,-172.8
2148,49.06666666666666,-516.2666666666667,-183.46666666666667
2149,40.53333333333333,-512.0,-179.2
2150,51.2,-507.73333333333335,-177.06666666666666
2151,51.2,-509.8666666666667,-177.06666666666666
2152,49.06666666666666,-516.2666666666667,-174.93333333333334
2153,46.93333333333333,-520.5333333333333,-181.33333333333334
2154,44.8,-514.1333333333333,-177.06666666666666
2155,51.2,-518.4,-185.6
2156,49.06666666666666,-512.0,-183.46666666666667
2157,55.46666666666667,-516.2666666666667,-183.46666666666667
2158,51.2,-518.4,-181.33333333333334
2159,44.8,-512.0,-181.33333333333334
2160,53.333333333333336,-518.4,-177.06666666666666
2161,59.733333333333334,-524.8,-181.33333333333334
2162,53.333333333333336,-518.4,-179.2
2163,46.93333333333333,-516.2666666666667,-185.6
2164,49.06666666666666,-522.6666666666666,-183.46666666666667
2165,51.2,-512.0,-177.06666666666666
2166,49.06666666666666,-518.4,-185.6
2167,57.6,-522.6666666666666,-179.2
2168,46.93333333333333,-522.6666666666666,-181.33333333333334
2169,46.93333333333333,-518.4,-183.46666666666667
2170,51.2,-512.0,-183.46666666666667
2171,57.6,-516.2666666666667,-183.46666666666667
2172,53.333333333333336,-518.4,-179.2
2173,49.06666666666666,-516.2666666666667,-189.86666666666667
2174,61.86666666666667,-503.46666666666664,-168.53333333333333
2175,49.06666666666666,-524.8,-192.0
2176,46.93333333333333,-516.2666666666667,-194.13333333333333
2177,49.06666666666666,-522.6666666666666,-181.33333333333334
2178,49.06666666666666,-520.5333333333333,-194.13333333333333
2179,51.2,-524.8,-189.86666666666667
2180,51.2,-516.2666666666667,-189.86666666666667
2181,46.93333333333333,-516.2666666666667,-189.86666666666667
2182,53.333333333333336,-518.4,-185.6
2183,44.8,-518.4,-183.46666666666667
2184,55.46666666666667,-522.6666666666666,-181.33333333333334
2185,53.333333333333336,-512.0,-177.06666666666666
2186,53.333333333333336,-512.0,-185.6
2187,55.46666666666667,-518.4,-181.33333333333334
2188,51.2,-520.5333333333333,-187.73333333333332
2189,55.46666666666667,-514.1333333333333,-187.73333333333332
2190,57.6,-516.2666666666667,-183.46666666666667
2191,55.46666666666667,-518.4,-179.2
2192,51.2,-518.4,-187.73333333333332
2193,51.2,-512.0,-187.73333333333332
2194,49.06666666666666,-514.1333333333333,-187.73333333333332
2195,57.6,-512.0,-189.86666666666667
2196,49.06666666666666,-509.8666666666667,-179.2
2197,53.333333333333336,-512.0,-194.13333333333333
2198,49.06666666666666,-507.73333333333335,-189.86666666666667
2199,51.2,-509.8666666666667,-192.0
2200,57.6,-514.1333333333333,-185.6
2201,53.333333333333336,-509.8666666666667,-183.46666666666667
2202,46.93333333333333,-507.73333333333335,-192.0
2203,53.333333333333336,-516.2666666666667,-187.73333333333332
2204,44.8,-503.46666666666664,-185.6
2205,46.93333333333333,-512.0,-187.73333333333332
2206,46.93333333333333,-512.0,-196.26666666666665
2207,49.06666666666666,-512.0,-185.6
2208,55.46666666666667,-514.1333333333333,-189.86666666666667
2209,57.6,-518.4,-185.6
2210,46.93333333333333,-516.2666666666667,-192.0
2211,55.46666666666667,-516.2666666666667,-187.73333333333332
2212,55.46666666666667,-518.4,-192.0
2213,53.333333333333336,-514.1333333333333,-194.13333333333333
2214,55.46666666666667,-516.2666666666667,-187.73333333333332
2215,51.2,-518.4,-192.0
2216,55.46666666666667,-512.0,-187.73333333333332
2217,51.2,-522.6666666666666,-187.73333333333332
2218,46.93333333333333,-509.8666666666667,-185.6
2219,51.2,-516.2666666666667,-185.6
2220,49.06666666666666,-514.1333333333333,-187.73333333333332
2221,49.06666666666666,-514.1333333333333,-194.13333333333333
2222,53.333333333333336,-509.8666666666667,-192.0
2223,55.46666666666667,-514.1333333333333,-194.13333333333333
2224,55.46666666666667,-514.1333333333333,-194.13333333333333
2225,53.333333333333336,-507.73333333333335,-189.86666666666667
2226,49.06666666666666,-512.0,-194.13333333333333
2227,53.333333333333336,-509.8666666666667,-181.33333333333334
2228,55.46666666666667,-505.59999999999997,-189.86666666666667
2229,55.46666666666667,-512.0,-183.46666666666667
2230,57.6,-512.0,-189.86666666666667
2231,53.333333333333336,-512.0,-198.4
2232,49.06666666666666,-509.8666666666667,-189.86666666666667
2233,55.46666666666667,-518.4,-187.73333333333332
2234,49.06666666666666,-509.8666666666667,-192.0
2235,57.6,-512.0,-185.6
2236,61.86666666666667,-512.0,-187.73333333333332
2237,53.333333333333336,-507.73333333333335,-194.13333333333333
2238,59.733333333333334,-512.0,-189.86666666666667
2239,53.333333333333336,-516.2666666666667,-185.6
2240,57.6,-518.4,-187.73333333333332
2241,53.333333333333336,-512.0,-194.13333333333333
2242,53.333333333333336,-516.2666666666667,-187.73333333333332
2243,57.6,-514.1333333333333,-194.13333333333333
2244,51.2,-509.8666666666667,-194.13333333333333
2245,61.86666666666667,-509.8666666666667,-198.4
2246,61.86666666666667,-507.73333333333335,-196.26666666666665
2247,61.86666666666667,-516.2666666666667,-187.73333333333332
2248,61.86666666666667,-509.8666666666667,-194.13333333333333
2249,57.6,-509.8666666666667,-192.0
2250,55.46666666666667,-505.59999999999997,-187.73333333333332
2251,61.86666666666667,-512.0,-198.4
2252,61.86666666666667,-514.1333333333333,-194.13333333333333
2253,53.333333333333336,-516.2666666666667,-185.6
2254,55.46666666666667,-509.8666666666667,-185.6
2255,59.733333333333334,-509.8666666666667,-194.13333333333333
2256,57.6,-512.0,-187.73333333333332
2257,53.333333333333336,-512.0,-200.53333333333333
2258,57.6,-514.1333333333333,-189.86666666666667
2259,55.46666666666667,-509.8666666666667,-194.13333333333333
2260,51.2,-514.1333333333333,-198.4
2261,55.46666666666667,-512.0,-187.73333333333332
2262,57.6,-514.1333333333333,-183.46666666666667
2263,61.86666666666667,-509.8666666666667,-185.6
2264,57.6,-512.0,-187.73333333333332
2265,51.2,-501.3333333333333,-189.86666666666667
2266,57.6,-509.8666666666667,-189.86666666666667
2267,44.8,-505.59999999999997,-185.6
2268,51.2,-505.59999999999997,-185.6
2269,51.2,-505.59999999999997,-189.86666666666667
2270,42.666666666666664,-501.3333333333333,-177.06666666666666
2271,49.06666666666666,-503.46666666666664,-185.6
2272,49.06666666666666,-507.73333333333335,-194.13333333333333
2273,40.53333333333333,-503.46666666666664,-179.2
2274,46.93333333333333,-505.59999999999997,-185.6
2275,51.2,-505.59999999999997,-185.6
2276,55.46666666666667,-505.59999999999997,-187.73333333333332
2277,59.733333333333334,-505.59999999999997,-185.6
2278,53.333333333333336,-509.8666666666667,-179.2
2279,55.46666666666667,-512.0,-189.86666666666667
2280,53.333333333333336,-509.8666666666667,-183.46666666666667
2281,61.86666666666667,-507.73333333333335,-183.46666666666667
2282,57.6,-516.2666666666667,-183.46666666666667
2283,64.0,-514.1333333333333,-183.46666666666667
2284,64.0,-507.73333333333335,-183.46666666666667
2285,59.733333333333334,-516.2666666666667,-185.6
2286,57.6,-507.73333333333335,-187.73333333333332
2287,64.0,-512.0,-181.33333333333334
2288,61.86666666666667,-518.4,-192.0
2289,59.733333333333334,-505.59999999999997,-183.46666666666667
2290,55.46666666666667,-509.8666666666667,-194.13333333333333
2291,57.6,-505.59999999999997,-183.46666666666667
2292,55.46666666666667,-505.59999999999997,-185.6
2293,61.86666666666667,-514.1333333333333,-185.6
2294,61.86666666666667,-512.0,-177.06666666666666
2295,59.733333333333334,-507.73333333333335,-179.2
2296,61.86666666666667,-509.8666666666667,-181.33333333333334
2297,61.86666666666667,-512.0,-181.33333333333334
2298,64.0,-518.4,-183.46666666666667
2299,68.26666666666667,-522.6666666666666,-183.46666666666667
2300,66.13333333333333,-522.6666666666666,-185.6
2301,70.4,-520.5333333333333,-187.73333333333332
2302,68.26666666666667,-522.6666666666666,-185.6
2303,66.13333333333333,-520.5333333333333,-198.4
2304,68.26666666666667,-518.4,-181.33333333333334
2305,61.86666666666667,-522.6666666666666,-194.13333333333333
2306,68.26666666666667,-520.5333333333333,-183.46666666666667
2307,64.0,-522.6666666666666,-185.6
2308,74.66666666666667,-524.8,-181.33333333333334
2309,64.0,-522.6666666666666,-194.13333333333333
2310,57.6,-514.1333333333333,-181.33333333333334
2311,64.0,-514.1333333333333,-189.86666666666667
2312,66.13333333333333,-516.2666666666667,-194.13333333333333
2313,64.0,-509.8666666666667,-181.33333333333334
2314,59.733333333333334,-514.1333333333333,-183.46666666666667
2315,64.0,-514.1333333333333,-185.6
2316,53.333333333333336,-514.1333333333333,-177.06666666666666
2317,57.6,-509.8666666666667,-185.6
2318,55.46666666666667,-514.1333333333333,-183.46666666666667
2319,57.6,-514.1333333333333,-183.46666666666667
2320,55.46666666666667,-509.8666666666667,-189.86666666666667
2321,57.6,-509.8666666666667,-187.73333333333332
2322,59.733333333333334,-509.8666666666667,-185.6
2323,53.333333333333336,-505.59999999999997,-181.33333333333334
2324,61.86666666666667,-514.1333333333333,-183.46666666666667
2325,57.6,-509.8666666666667,-181.33333333333334
2326,61.86666666666667,-512.0,-187.73333333333332
2327,57.6,-507.73333333333335,-185.6
2328,53.333333333333336,-516.2666666666667,-189.86666666666667
2329,55.46666666666667,-514.1333333333333,-185.6
2330,64.0,-522.6666666666666,-183.46666666666667
2331,55.46666666666667,-512.0,-189.86666666666667
2332,59.733333333333334,-522.6666666666666,-187.73333333333332
2333,64.0,-518.4,-181.33333333333334
2334,66.13333333333333,-516.2666666666667,-196.26666666666665
2335,64.0,-520.5333333333333,-194.13333333333333
2336,61.86666666666667,-518.4,-183.46666666666667
2337,68.26666666666667,-520.5333333333333,-185.6
2338,66.13333333333333,-518.4,-181.33333333333334
2339,66.13333333333333,-514.1333333333333,-185.6
2340,66.13333333333333,-514.1333333333333,-185.6
2341,70.4,-518.4,-198.4
2342,68.26666666666667,-522.6666666666666,-181.33333333333334
2343,61.86666666666667,-518.4,-185.6
2344,61.86666666666667,-507.73333333333335,-183.46666666666667
2345,64.0,-520.5333333333333,-183.46666666666667
2346,64.0,-516.2666666666667,-179.2
2347,66.13333333333333,-518.4,-181.33333333333334
2348,66.13333333333333,-514.1333333333333,-181.33333333333334
2349,59.733333333333334,-514.1333333333333,-177.06666666666666
2350,64.0,-514.1333333333333,-181.33333333333334
2351,59.733333333333334,-509.8666666666667,-183.46666666666667
2352,55.46666666666667,-509.8666666666667,-181.33333333333334
2353,61.86666666666667,-514.1333333333333,-179.2
2354,61.86666666666667,-512.0,-177.06666666666666
2355,61.86666666666667,-512.0,-181.33333333333334
2356,55.46666666666667,-507.73333333333335,-181.33333333333334
2357,57.6,-514.1333333333333,-174.93333333333334
2358,59.733333333333334,-516.2666666666667,-174.93333333333334
2359,61.86666666666667,-514.1333333333333,-166.4
2360,61.86666666666667,-520.5333333333333,-170.66666666666666
2361,61.86666666666667,-514.1333333333333,-174.93333333333334
2362,61.86666666666667,-509.8666666666667,-174.93333333333334
2363,61.86666666666667,-509.8666666666667,-172.8
2364,68.26666666666667,-516.2666666666667,-179.2
2365,68.26666666666667,-514.1333333333333,-177.06666666666666
2366,68.26666666666667,-509.8666666666667,-177.06666666666666
2367,68.26666666666667,-514.1333333333333,-166.4
2368,64.0,-512.0,-181.33333333333334
2369,64.0,-505.59999999999997,-172.8
2370,64.0,-512.0,-181.33333333333334
2371,64.0,-520.5333333333333,-179.2
2372,55.46666666666667,-507.73333333333335,-179.2
2373,61.86666666666667,-512.0,-179.2
2374,57.6,-514.1333333333333,-177.06666666666666
2375,70.4,-512.0,-177.06666666666666
2376,57.6,-509.8666666666667,-185.6
2377,66.13333333333333,-514.1333333333333,-174.93333333333334
2378,64.0,-514.1333333333333,-172.8
2379,57.6,-509.8666666666667,-185.6
2380,72.53333333333333,-514.1333333333333,-174.93333333333334
2381,64.0,-516.2666666666667,-177.06666666666666
2382,64.0,-516.2666666666667,-179.2
2383,59.733333333333334,-512.0,-181.33333333333334
2384,57.6,-518.4,-170.66666666666666
2385,66.13333333333333,-516.2666666666667,-168.53333333333333
2386,68.26666666666667,-520.5333333333333,-174.93333333333334
2387,64.0,-518.4,-170.66666666666666
2388,66.13333333333333,-518.4,-174.93333333333334
2389,59.733333333333334,-516.2666666666667,-172.8
2390,66.13333333333333,-512.0,-170.66666666666666
2391,64.0,-516.2666666666667,-181.33333333333334
2392,61.86666666666667,-512.0,-174.93333333333334
2393,68.26666666666667,-522.6666666666666,-170.66666666666666
2394,66.13333333333333,-520.5333333333333,-168.53333333333333
2395,66.13333333333333,-522.6666666666666,-166.4
2396,66.13333333333333,-520.5333333333333,-168.53333333333333
2397,64.0,-522.6666666666666,-172.8
2398,57.6,-516.2666666666667,-170.66666666666666
2399,72.53333333333333,-520.5333333333333,-170.66666666666666
