,accelerometerAccelerationX(G),accelerometerAccelerationY(G),accelerometerAccelerationZ(G)
0,61.86666666666667,-552.5333333333333,-70.4
1,59.733333333333334,-556.8,-74.66666666666667
2,64.0,-552.5333333333333,-66.13333333333333
3,57.6,-556.8,-68.26666666666667
4,66.13333333333333,-561.0666666666666,-68.26666666666667
5,57.6,-554.6666666666666,-61.86666666666667
6,57.6,-558.9333333333333,-70.4
7,61.86666666666667,-558.9333333333333,-64.0
8,59.733333333333334,-552.5333333333333,-68.26666666666667
9,59.733333333333334,-565.3333333333334,-68.26666666666667
10,59.733333333333334,-561.0666666666666,-70.4
11,51.2,-556.8,-72.53333333333333
12,55.46666666666667,-563.2,-70.4
13,57.6,-558.9333333333333,-68.26666666666667
14,55.46666666666667,-556.8,-70.4
15,55.46666666666667,-554.6666666666666,-76.8
16,57.6,-554.6666666666666,-70.4
17,51.2,-550.4,-72.53333333333333
18,49.06666666666666,-552.5333333333333,-76.8
19,59.733333333333334,-558.9333333333333,-68.26666666666667
20,61.86666666666667,-556.8,-66.13333333333333
21,51.2,-554.6666666666666,-64.0
22,55.46666666666667,-552.5333333333333,-68.26666666666667
23,57.6,-556.8,-66.13333333333333
24,57.6,-558.9333333333333,-61.86666666666667
25,57.6,-554.6666666666666,-68.26666666666667
26,57.6,-556.8,-68.26666666666667
27,51.2,-554.6666666666666,-66.13333333333333
28,64.0,-552.5333333333333,-64.0
29,57.6,-561.0666666666666,-66.13333333333333
30,61.86666666666667,-558.9333333333333,-64.0
31,59.733333333333334,-552.5333333333333,-68.26666666666667
32,61.86666666666667,-550.4,-66.13333333333333
33,59.733333333333334,-556.8,-66.13333333333333
34,57.6,-556.8,-74.66666666666667
35,59.733333333333334,-552.5333333333333,-76.8
36,64.0,-558.9333333333333,-72.53333333333333
37,57.6,-556.8,-64.0
38,57.6,-556.8,-70.4
39,55.46666666666667,-556.8,-64.0
40,59.733333333333334,-556.8,-68.26666666666667
41,57.6,-556.8,-66.13333333333333
42,55.46666666666667,-550.4,-61.86666666666667
43,66.13333333333333,-561.0666666666666,-66.13333333333333
44,59.733333333333334,-558.9333333333333,-68.26666666666667
45,66.13333333333333,-561.0666666666666,-64.0
46,55.46666666666667,-556.8,-59.733333333333334
47,53.333333333333336,-550.4,-57.6
48,57.6,-556.8,-83.2
49,59.733333333333334,-556.8,-61.86666666666667
50,66.13333333333333,-558.9333333333333,-72.53333333333333
51,57.6,-561.0666666666666,-66.13333333333333
52,55.46666666666667,-558.9333333333333,-64.0
53,61.86666666666667,-558.9333333333333,-68.26666666666667
54,57.6,-556.8,-61.86666666666667
55,57.6,-558.9333333333333,-70.4
56,59.733333333333334,-556.8,-72.53333333333333
57,59.733333333333334,-556.8,-70.4
58,53.333333333333336,-552.5333333333333,-68.26666666666667
59,59.733333333333334,-556.8,-64.0
60,55.46666666666667,-563.2,-72.53333333333333
61,61.86666666666667,-556.8,-68.26666666666667
62,64.0,-552.5333333333333,-61.86666666666667
63,55.46666666666667,-550.4,-68.26666666666667
64,57.6,-554.6666666666666,-68.26666666666667
65,59.733333333333334,-550.4,-70.4
66,64.0,-554.6666666666666,-57.6
67,57.6,-554.6666666666666,-64.0
68,61.86666666666667,-558.9333333333333,-64.0
69,59.733333333333334,-558.9333333333333,-74.66666666666667
70,59.733333333333334,-558.9333333333333,-66.13333333333333
71,59.733333333333334,-561.0666666666666,-66.13333333333333
72,59.733333333333334,-561.0666666666666,-70.4
73,53.333333333333336,-556.8,-68.26666666666667
74,53.333333333333336,-556.8,-70.4
75,49.06666666666666,-561.0666666666666,-68.26666666666667
76,61.86666666666667,-561.0666666666666,-76.8
77,57.6,-558.9333333333333,-70.4
78,57.6,-558.9333333333333,-64.0
79,53.333333333333336,-554.6666666666666,-74.66666666666667
80,55.46666666666667,-558.9333333333333,-64.0
81,55.46666666666667,-552.5333333333333,-61.86666666666667
82,55.46666666666667,-554.6666666666666,-68.26666666666667
83,61.86666666666667,-556.8,-68.26666666666667
84,66.13333333333333,-552.5333333333333,-55.46666666666667
85,61.86666666666667,-558.9333333333333,-64.0
86,61.86666666666667,-552.5333333333333,-61.86666666666667
87,55.46666666666667,-556.8,-57.6
88,51.2,-554.6666666666666,-57.6
89,59.733333333333334,-563.2,-55.46666666666667
90,61.86666666666667,-565.3333333333334,-59.733333333333334
91,61.86666666666667,-558.9333333333333,-64.0
92,49.06666666666666,-554.6666666666666,-70.4
93,59.733333333333334,-554.6666666666666,-70.4
94,55.46666666666667,-556.8,-59.733333333333334
95,53.333333333333336,-554.6666666666666,-70.4
96,59.733333333333334,-558.9333333333333,-70.4
97,64.0,-561.0666666666666,-66.13333333333333
98,53.333333333333336,-554.6666666666666,-70.4
99,57.6,-556.8,-64.0
100,38.4,-552.5333333333333,-59.733333333333334
101,59.733333333333334,-561.0666666666666,-70.4
102,59.733333333333334,-554.6666666666666,-66.13333333333333
103,57.6,-556.8,-68.26666666666667
104,59.733333333333334,-556.8,-64.0
105,57.6,-552.5333333333333,-61.86666666666667
106,59.733333333333334,-554.6666666666666,-64.0
107,55.46666666666667,-561.0666666666666,-61.86666666666667
108,55.46666666666667,-558.9333333333333,-55.46666666666667
109,61.86666666666667,-561.0666666666666,-59.733333333333334
110,59.733333333333334,-550.4,-64.0
111,81.06666666666666,-550.4,-66.13333333333333
112,59.733333333333334,-556.8,-68.26666666666667
113,61.86666666666667,-556.8,-61.86666666666667
114,57.6,-554.6666666666666,-51.2
115,61.86666666666667,-554.6666666666666,-55.46666666666667
116,57.6,-556.8,-59.733333333333334
117,61.86666666666667,-563.2,-57.6
118,55.46666666666667,-558.9333333333333,-53.333333333333336
119,61.86666666666667,-556.8,-66.13333333333333
120,59.733333333333334,-552.5333333333333,-59.733333333333334
121,61.86666666666667,-552.5333333333333,-59.733333333333334
122,66.13333333333333,-565.3333333333334,-29.866666666666667
123,57.6,-552.5333333333333,-59.733333333333334
124,64.0,-558.9333333333333,-59.733333333333334
125,59.733333333333334,-552.5333333333333,-57.6
126,57.6,-554.6666666666666,-68.26666666666667
127,49.06666666666666,-556.8,-46.93333333333333
128,59.733333333333334,-556.8,-66.13333333333333
129,59.733333333333334,-552.5333333333333,-55.46666666666667
130,59.733333333333334,-556.8,-66.13333333333333
131,66.13333333333333,-554.6666666666666,-59.733333333333334
132,59.733333333333334,-554.6666666666666,-59.733333333333334
133,55.46666666666667,-556.8,-64.0
134,59.733333333333334,-554.6666666666666,-61.86666666666667
135,55.46666666666667,-558.9333333333333,-66.13333333333333
136,59.733333333333334,-556.8,-59.733333333333334
137,61.86666666666667,-565.3333333333334,-66.13333333333333
138,57.6,-552.5333333333333,-59.733333333333334
139,57.6,-556.8,-61.86666666666667
140,59.733333333333334,-554.6666666666666,-55.46666666666667
141,57.6,-556.8,-66.13333333333333
142,57.6,-558.9333333333333,-57.6
143,57.6,-552.5333333333333,-68.26666666666667
144,57.6,-558.9333333333333,-66.13333333333333
145,51.2,-556.8,-64.0
146,59.733333333333334,-550.4,-70.4
147,55.46666666666667,-561.0666666666666,-57.6
148,61.86666666666667,-561.0666666666666,-57.6
149,61.86666666666667,-554.6666666666666,-57.6
150,61.86666666666667,-552.5333333333333,-55.46666666666667
151,59.733333333333334,-558.9333333333333,-59.733333333333334
152,61.86666666666667,-558.9333333333333,-59.733333333333334
153,57.6,-554.6666666666666,-68.26666666666667
154,61.86666666666667,-561.0666666666666,-66.13333333333333
155,61.86666666666667,-561.0666666666666,-57.6
156,61.86666666666667,-556.8,-66.13333333333333
157,64.0,-563.2,-61.86666666666667
158,59.733333333333334,-556.8,-57.6
159,59.733333333333334,-563.2,-59.733333333333334
160,59.733333333333334,-556.8,-55.46666666666667
161,64.0,-554.6666666666666,-59.733333333333334
162,55.46666666666667,-554.6666666666666,-64.0
163,53.333333333333336,-556.8,-68.26666666666667
164,57.6,-552.5333333333333,-61.86666666666667
165,57.6,-550.4,-66.13333333333333
166,55.46666666666667,-552.5333333333333,-66.13333333333333
167,53.333333333333336,-556.8,-70.4
168,57.6,-550.4,-61.86666666666667
169,57.6,-550.4,-66.13333333333333
170,57.6,-548.2666666666667,-55.46666666666667
171,59.733333333333334,-561.0666666666666,-55.46666666666667
172,53.333333333333336,-561.0666666666666,-61.86666666666667
173,59.733333333333334,-561.0666666666666,-53.333333333333336
174,59.733333333333334,-565.3333333333334,-59.733333333333334
175,53.333333333333336,-556.8,-61.86666666666667
176,55.46666666666667,-558.9333333333333,-68.26666666666667
177,53.333333333333336,-567.4666666666667,-66.13333333333333
178,53.333333333333336,-554.6666666666666,-68.26666666666667
179,55.46666666666667,-556.8,-68.26666666666667
180,61.86666666666667,-561.0666666666666,-64.0
181,53.333333333333336,-561.0666666666666,-61.86666666666667
182,55.46666666666667,-561.0666666666666,-64.0
183,57.6,-554.6666666666666,-55.46666666666667
184,57.6,-552.5333333333333,-64.0
185,59.733333333333334,-558.9333333333333,-57.6
186,64.0,-556.8,-68.26666666666667
187,57.6,-548.2666666666667,-57.6
188,55.46666666666667,-552.5333333333333,-64.0
189,61.86666666666667,-550.4,-55.46666666666667
190,66.13333333333333,-552.5333333333333,-61.86666666666667
191,59.733333333333334,-565.3333333333334,-61.86666666666667
192,61.86666666666667,-563.2,-59.733333333333334
193,59.733333333333334,-563.2,-68.26666666666667
194,59.733333333333334,-561.0666666666666,-66.13333333333333
195,57.6,-556.8,-68.26666666666667
196,53.333333333333336,-561.0666666666666,-61.86666666666667
197,51.2,-558.9333333333333,-55.46666666666667
198,55.46666666666667,-552.5333333333333,-57.6
199,64.0,-554.6666666666666,-64.0
200,57.6,-556.8,-74.66666666666667
201,53.333333333333336,-552.5333333333333,-57.6
202,57.6,-558.9333333333333,-61.86666666666667
203,57.6,-550.4,-59.733333333333334
204,59.733333333333334,-554.6666666666666,-57.6
205,61.86666666666667,-550.4,-61.86666666666667
206,57.6,-554.6666666666666,-59.733333333333334
207,55.46666666666667,-552.5333333333333,-53.333333333333336
208,55.46666666666667,-550.4,-68.26666666666667
209,64.0,-554.6666666666666,-64.0
210,57.6,-554.6666666666666,-59.733333333333334
211,59.733333333333334,-556.8,-61.86666666666667
212,51.2,-554.6666666666666,-59.733333333333334
213,57.6,-558.9333333333333,-61.86666666666667
214,53.333333333333336,-552.5333333333333,-57.6
215,61.86666666666667,-558.9333333333333,-64.0
216,53.333333333333336,-556.8,-66.13333333333333
217,57.6,-554.6666666666666,-72.53333333333333
218,57.6,-558.9333333333333,-59.733333333333334
219,61.86666666666667,-554.6666666666666,-64.0
220,55.46666666666667,-558.9333333333333,-53.333333333333336
221,55.46666666666667,-556.8,-61.86666666666667
222,55.46666666666667,-552.5333333333333,-59.733333333333334
223,55.46666666666667,-552.5333333333333,-64.0
224,49.06666666666666,-550.4,-55.46666666666667
225,61.86666666666667,-556.8,-55.46666666666667
226,59.733333333333334,-556.8,-64.0
227,55.46666666666667,-552.5333333333333,-61.86666666666667
228,64.0,-554.6666666666666,-59.733333333333334
229,59.733333333333334,-558.9333333333333,-61.86666666666667
230,59.733333333333334,-550.4,-64.0
231,66.13333333333333,-556.8,-61.86666666666667
232,57.6,-558.9333333333333,-61.86666666666667
233,64.0,-558.9333333333333,-64.0
234,59.733333333333334,-558.9333333333333,-70.4
235,64.0,-556.8,-68.26666666666667
236,57.6,-556.8,-66.13333333333333
237,57.6,-550.4,-59.733333333333334
238,61.86666666666667,-565.3333333333334,-66.13333333333333
239,61.86666666666667,-563.2,-57.6
240,57.6,-556.8,-68.26666666666667
241,59.733333333333334,-554.6666666666666,-61.86666666666667
242,53.333333333333336,-554.6666666666666,-68.26666666666667
243,59.733333333333334,-554.6666666666666,-64.0
244,59.733333333333334,-556.8,-66.13333333333333
245,59.733333333333334,-556.8,-64.0
246,57.6,-558.9333333333333,-61.86666666666667
247,61.86666666666667,-558.9333333333333,-59.733333333333334
248,61.86666666666667,-558.9333333333333,-61.86666666666667
249,64.0,-552.5333333333333,-61.86666666666667
250,55.46666666666667,-552.5333333333333,-61.86666666666667
251,61.86666666666667,-561.0666666666666,-68.26666666666667
252,55.46666666666667,-552.5333333333333,-61.86666666666667
253,57.6,-558.9333333333333,-64.0
254,64.0,-556.8,-61.86666666666667
255,59.733333333333334,-561.0666666666666,-59.733333333333334
256,57.6,-554.6666666666666,-66.13333333333333
257,57.6,-563.2,-68.26666666666667
258,53.333333333333336,-556.8,-68.26666666666667
259,59.733333333333334,-558.9333333333333,-61.86666666666667
260,53.333333333333336,-563.2,-61.86666666666667
261,53.333333333333336,-561.0666666666666,-68.26666666666667
262,59.733333333333334,-565.3333333333334,-53.333333333333336
263,55.46666666666667,-561.0666666666666,-51.2
264,61.86666666666667,-556.8,-70.4
265,59.733333333333334,-558.9333333333333,-59.733333333333334
266,57.6,-561.0666666666666,-59.733333333333334
267,57.6,-552.5333333333333,-66.13333333333333
268,57.6,-552.5333333333333,-55.46666666666667
269,57.6,-565.3333333333334,-61.86666666666667
270,55.46666666666667,-548.2666666666667,-59.733333333333334
271,57.6,-556.8,-64.0
272,53.333333333333336,-550.4,-51.2
273,78.93333333333334,-531.2,-46.93333333333333
274,59.733333333333334,-556.8,-53.333333333333336
275,55.46666666666667,-556.8,-64.0
276,57.6,-558.9333333333333,-55.46666666666667
277,57.6,-558.9333333333333,-64.0
278,53.333333333333336,-563.2,-59.733333333333334
279,59.733333333333334,-558.9333333333333,-64.0
280,53.333333333333336,-561.0666666666666,-57.6
281,57.6,-561.0666666666666,-68.26666666666667
282,53.333333333333336,-558.9333333333333,-72.53333333333333
283,57.6,-558.9333333333333,-66.13333333333333
284,55.46666666666667,-533.3333333333334,-100.26666666666667
285,53.333333333333336,-558.9333333333333,-72.53333333333333
286,57.6,-558.9333333333333,-64.0
287,55.46666666666667,-558.9333333333333,-57.6
288,55.46666666666667,-552.5333333333333,-61.86666666666667
289,64.0,-552.5333333333333,-64.0
290,64.0,-550.4,-57.6
291,57.6,-556.8,-57.6
292,55.46666666666667,-550.4,-66.13333333333333
293,61.86666666666667,-552.5333333333333,-53.333333333333336
294,61.86666666666667,-556.8,-55.46666666666667
295,57.6,-552.5333333333333,-66.13333333333333
296,68.26666666666667,-561.0666666666666,-64.0
297,55.46666666666667,-556.8,-59.733333333333334
298,57.6,-558.9333333333333,-59.733333333333334
299,55.46666666666667,-558.9333333333333,-68.26666666666667
300,55.46666666666667,-563.2,-57.6
301,51.2,-561.0666666666666,-59.733333333333334
302,53.333333333333336,-558.9333333333333,-57.6
303,61.86666666666667,-558.9333333333333,-68.26666666666667
304,59.733333333333334,-550.4,-61.86666666666667
305,59.733333333333334,-563.2,-61.86666666666667
306,57.6,-561.0666666666666,-61.86666666666667
307,59.733333333333334,-552.5333333333333,-66.13333333333333
308,55.46666666666667,-554.6666666666666,-57.6
309,53.333333333333336,-556.8,-64.0
310,51.2,-554.6666666666666,-61.86666666666667
311,57.6,-552.5333333333333,-59.733333333333334
312,57.6,-556.8,-61.86666666666667
313,61.86666666666667,-552.5333333333333,-64.0
314,55.46666666666667,-554.6666666666666,-66.13333333333333
315,57.6,-552.5333333333333,-59.733333333333334
316,53.333333333333336,-556.8,-57.6
317,61.86666666666667,-558.9333333333333,-68.26666666666667
318,57.6,-563.2,-57.6
319,57.6,-563.2,-70.4
320,55.46666666666667,-565.3333333333334,-70.4
321,55.46666666666667,-556.8,-68.26666666666667
322,59.733333333333334,-554.6666666666666,-68.26666666666667
323,59.733333333333334,-563.2,-64.0
324,57.6,-558.9333333333333,-57.6
325,57.6,-558.9333333333333,-66.13333333333333
326,57.6,-554.6666666666666,-68.26666666666667
327,53.333333333333336,-554.6666666666666,-64.0
328,53.333333333333336,-552.5333333333333,-66.13333333333333
329,57.6,-556.8,-61.86666666666667
330,59.733333333333334,-558.9333333333333,-59.733333333333334
331,55.46666666666667,-556.8,-72.53333333333333
332,55.46666666666667,-552.5333333333333,-55.46666666666667
333,61.86666666666667,-552.5333333333333,-66.13333333333333
334,51.2,-554.6666666666666,-59.733333333333334
335,57.6,-554.6666666666666,-64.0
336,59.733333333333334,-552.5333333333333,-64.0
337,57.6,-558.9333333333333,-64.0
338,55.46666666666667,-552.5333333333333,-72.53333333333333
339,53.333333333333336,-556.8,-72.53333333333333
340,59.733333333333334,-556.8,-64.0
341,57.6,-556.8,-64.0
342,55.46666666666667,-554.6666666666666,-64.0
343,57.6,-554.6666666666666,-66.13333333333333
344,53.333333333333336,-558.9333333333333,-61.86666666666667
345,59.733333333333334,-554.6666666666666,-68.26666666666667
346,59.733333333333334,-556.8,-64.0
347,61.86666666666667,-556.8,-66.13333333333333
348,59.733333333333334,-554.6666666666666,-68.26666666666667
349,57.6,-552.5333333333333,-57.6
350,53.333333333333336,-552.5333333333333,-61.86666666666667
351,59.733333333333334,-561.0666666666666,-68.26666666666667
352,59.733333333333334,-550.4,-57.6
353,51.2,-554.6666666666666,-64.0
354,59.733333333333334,-552.5333333333333,-64.0
355,55.46666666666667,-552.5333333333333,-68.26666666666667
356,59.733333333333334,-554.6666666666666,-66.13333333333333
357,57.6,-561.0666666666666,-68.26666666666667
358,57.6,-552.5333333333333,-72.53333333333333
359,57.6,-554.6666666666666,-66.13333333333333
360,59.733333333333334,-554.6666666666666,-66.13333333333333
361,59.733333333333334,-556.8,-64.0
362,55.46666666666667,-556.8,-61.86666666666667
363,53.333333333333336,-554.6666666666666,-68.26666666666667
364,61.86666666666667,-554.6666666666666,-61.86666666666667
365,55.46666666666667,-558.9333333333333,-68.26666666666667
366,53.333333333333336,-561.0666666666666,-70.4
367,57.6,-558.9333333333333,-72.53333333333333
368,59.733333333333334,-554.6666666666666,-70.4
369,59.733333333333334,-565.3333333333334,-64.0
370,55.46666666666667,-556.8,-66.13333333333333
371,49.06666666666666,-558.9333333333333,-61.86666666666667
372,59.733333333333334,-556.8,-66.13333333333333
373,55.46666666666667,-552.5333333333333,-68.26666666666667
374,53.333333333333336,-552.5333333333333,-68.26666666666667
375,57.6,-554.6666666666666,-64.0
376,57.6,-548.2666666666667,-59.733333333333334
377,53.333333333333336,-548.2666666666667,-59.733333333333334
378,53.333333333333336,-548.2666666666667,-66.13333333333333
379,55.46666666666667,-548.2666666666667,-59.733333333333334
380,51.2,-554.6666666666666,-61.86666666666667
381,53.333333333333336,-556.8,-64.0
382,51.2,-552.5333333333333,-59.733333333333334
383,59.733333333333334,-561.0666666666666,-55.46666666666667
384,53.333333333333336,-563.2,-64.0
385,57.6,-563.2,-59.733333333333334
386,51.2,-569.6,-72.53333333333333
387,51.2,-558.9333333333333,-61.86666666666667
388,53.333333333333336,-561.0666666666666,-70.4
389,53.333333333333336,-558.9333333333333,-72.53333333333333
390,55.46666666666667,-554.6666666666666,-61.86666666666667
391,55.46666666666667,-554.6666666666666,-68.26666666666667
392,59.733333333333334,-554.6666666666666,-64.0
393,53.333333333333336,-548.2666666666667,-66.13333333333333
394,57.6,-550.4,-68.26666666666667
395,55.46666666666667,-554.6666666666666,-61.86666666666667
396,57.6,-550.4,-70.4
397,55.46666666666667,-556.8,-61.86666666666667
398,57.6,-552.5333333333333,-59.733333333333334
399,59.733333333333334,-550.4,-70.4
400,55.46666666666667,-554.6666666666666,-66.13333333333333
401,55.46666666666667,-556.8,-61.86666666666667
402,55.46666666666667,-554.6666666666666,-68.26666666666667
403,61.86666666666667,-561.0666666666666,-66.13333333333333
404,59.733333333333334,-556.8,-57.6
405,61.86666666666667,-561.0666666666666,-66.13333333333333
406,55.46666666666667,-558.9333333333333,-66.13333333333333
407,55.46666666666667,-554.6666666666666,-68.26666666666667
408,59.733333333333334,-558.9333333333333,-70.4
409,61.86666666666667,-558.9333333333333,-83.2
410,53.333333333333336,-558.9333333333333,-66.13333333333333
411,59.733333333333334,-554.6666666666666,-68.26666666666667
412,59.733333333333334,-552.5333333333333,-66.13333333333333
413,57.6,-548.2666666666667,-64.0
414,51.2,-548.2666666666667,-64.0
415,59.733333333333334,-552.5333333333333,-64.0
416,53.333333333333336,-558.9333333333333,-61.86666666666667
417,51.2,-554.6666666666666,-70.4
418,57.6,-558.9333333333333,-59.733333333333334
419,53.333333333333336,-561.0666666666666,-68.26666666666667
420,55.46666666666667,-561.0666666666666,-61.86666666666667
421,53.333333333333336,-552.5333333333333,-64.0
422,55.46666666666667,-554.6666666666666,-74.66666666666667
423,59.733333333333334,-556.8,-70.4
424,53.333333333333336,-561.0666666666666,-70.4
425,53.333333333333336,-558.9333333333333,-64.0
426,53.333333333333336,-556.8,-74.66666666666667
427,51.2,-558.9333333333333,-64.0
428,51.2,-556.8,-64.0
429,64.0,-563.2,-74.66666666666667
430,53.333333333333336,-558.9333333333333,-66.13333333333333
431,55.46666666666667,-554.6666666666666,-68.26666666666667
432,61.86666666666667,-556.8,-78.93333333333334
433,59.733333333333334,-556.8,-64.0
434,51.2,-552.5333333333333,-70.4
435,76.8,-567.4666666666667,-68.26666666666667
436,55.46666666666667,-550.4,-66.13333333333333
437,51.2,-548.2666666666667,-72.53333333333333
438,57.6,-554.6666666666666,-64.0
439,64.0,-552.5333333333333,-59.733333333333334
440,59.733333333333334,-554.6666666666666,-66.13333333333333
441,55.46666666666667,-556.8,-68.26666666666667
442,55.46666666666667,-554.6666666666666,-72.53333333333333
443,57.6,-556.8,-68.26666666666667
444,57.6,-556.8,-68.26666666666667
445,57.6,-556.8,-66.13333333333333
446,93.86666666666666,-516.2666666666667,-53.333333333333336
447,57.6,-552.5333333333333,-72.53333333333333
448,59.733333333333334,-556.8,-64.0
449,57.6,-554.6666666666666,-68.26666666666667
450,55.46666666666667,-558.9333333333333,-66.13333333333333
451,59.733333333333334,-558.9333333333333,-68.26666666666667
452,57.6,-554.6666666666666,-64.0
453,59.733333333333334,-556.8,-74.66666666666667
454,59.733333333333334,-561.0666666666666,-64.0
455,61.86666666666667,-556.8,-72.53333333333333
456,59.733333333333334,-546.1333333333333,-87.46666666666667
457,59.733333333333334,-556.8,-70.4
458,55.46666666666667,-552.5333333333333,-68.26666666666667
459,61.86666666666667,-556.8,-68.26666666666667
460,55.46666666666667,-556.8,-72.53333333333333
461,55.46666666666667,-552.5333333333333,-66.13333333333333
462,57.6,-556.8,-61.86666666666667
463,55.46666666666667,-556.8,-66.13333333333333
464,57.6,-558.9333333333333,-70.4
465,61.86666666666667,-556.8,-74.66666666666667
466,59.733333333333334,-558.9333333333333,-70.4
467,61.86666666666667,-552.5333333333333,-70.4
468,61.86666666666667,-554.6666666666666,-66.13333333333333
469,55.46666666666667,-558.9333333333333,-70.4
470,53.333333333333336,-554.6666666666666,-68.26666666666667
471,59.733333333333334,-558.9333333333333,-66.13333333333333
472,55.46666666666667,-556.8,-68.26666666666667
473,57.6,-561.0666666666666,-64.0
474,61.86666666666667,-558.9333333333333,-76.8
475,57.6,-558.9333333333333,-74.66666666666667
476,55.46666666666667,-558.9333333333333,-72.53333333333333
477,57.6,-561.0666666666666,-76.8
478,59.733333333333334,-558.9333333333333,-70.4
479,55.46666666666667,-558.9333333333333,-68.26666666666667
480,59.733333333333334,-550.4,-59.733333333333334
481,57.6,-552.5333333333333,-66.13333333333333
482,55.46666666666667,-552.5333333333333,-68.26666666666667
483,55.46666666666667,-554.6666666666666,-61.86666666666667
484,59.733333333333334,-554.6666666666666,-66.13333333333333
485,57.6,-550.4,-59.733333333333334
486,51.2,-552.5333333333333,-72.53333333333333
487,57.6,-554.6666666666666,-72.53333333333333
488,66.13333333333333,-552.5333333333333,-70.4
489,57.6,-548.2666666666667,-68.26666666666667
490,55.46666666666667,-556.8,-70.4
491,61.86666666666667,-556.8,-68.26666666666667
492,55.46666666666667,-556.8,-76.8
493,53.333333333333336,-558.9333333333333,-70.4
494,49.06666666666666,-561.0666666666666,-72.53333333333333
495,59.733333333333334,-561.0666666666666,-74.66666666666667
496,55.46666666666667,-554.6666666666666,-70.4
497,59.733333333333334,-556.8,-74.66666666666667
498,61.86666666666667,-552.5333333333333,-70.4
499,59.733333333333334,-558.9333333333333,-78.93333333333334
500,59.733333333333334,-546.1333333333333,-72.53333333333333
501,61.86666666666667,-552.5333333333333,-81.06666666666666
502,53.333333333333336,-548.2666666666667,-76.8
503,49.06666666666666,-554.6666666666666,-70.4
504,55.46666666666667,-552.5333333333333,-85.33333333333333
505,55.46666666666667,-554.6666666666666,-72.53333333333333
506,57.6,-552.5333333333333,-76.8
507,59.733333333333334,-550.4,-74.66666666666667
508,55.46666666666667,-550.4,-76.8
509,55.46666666666667,-552.5333333333333,-76.8
510,57.6,-548.2666666666667,-81.06666666666666
511,53.333333333333336,-552.5333333333333,-76.8
512,53.333333333333336,-554.6666666666666,-76.8
513,51.2,-548.2666666666667,-87.46666666666667
514,57.6,-550.4,-91.73333333333333
515,55.46666666666667,-558.9333333333333,-91.73333333333333
516,59.733333333333334,-556.8,-78.93333333333334
517,55.46666666666667,-550.4,-89.6
518,59.733333333333334,-550.4,-89.6
519,64.0,-552.5333333333333,-89.6
520,57.6,-552.5333333333333,-85.33333333333333
521,55.46666666666667,-550.4,-87.46666666666667
522,57.6,-550.4,-89.6
523,55.46666666666667,-550.4,-87.46666666666667
524,55.46666666666667,-556.8,-85.33333333333333
525,59.733333333333334,-552.5333333333333,-98.13333333333333
526,51.2,-548.2666666666667,-89.6
527,51.2,-546.1333333333333,-91.73333333333333
528,53.333333333333336,-548.2666666666667,-91.73333333333333
529,44.8,-544.0,-91.73333333333333
530,49.06666666666666,-550.4,-96.0
531,49.06666666666666,-546.1333333333333,-93.86666666666666
532,44.8,-548.2666666666667,-98.13333333333333
533,49.06666666666666,-550.4,-98.13333333333333
534,49.06666666666666,-550.4,-96.0
535,49.06666666666666,-550.4,-93.86666666666666
536,44.8,-548.2666666666667,-102.4
537,42.666666666666664,-546.1333333333333,-104.53333333333333
538,42.666666666666664,-535.4666666666667,-100.26666666666667
539,57.6,-550.4,-104.53333333333333
540,49.06666666666666,-548.2666666666667,-108.8
541,53.333333333333336,-546.1333333333333,-113.06666666666666
542,51.2,-548.2666666666667,-110.93333333333334
543,51.2,-546.1333333333333,-104.53333333333333
544,55.46666666666667,-544.0,-110.93333333333334
545,51.2,-544.0,-113.06666666666666
546,46.93333333333333,-546.1333333333333,-110.93333333333334
547,49.06666666666666,-544.0,-108.8
548,55.46666666666667,-548.2666666666667,-110.93333333333334
549,51.2,-535.4666666666667,-125.86666666666666
550,57.6,-544.0,-115.2
551,49.06666666666666,-544.0,-117.33333333333333
552,42.666666666666664,-533.3333333333334,-121.6
553,49.06666666666666,-539.7333333333333,-117.33333333333333
554,44.8,-533.3333333333334,-119.46666666666667
555,46.93333333333333,-529.0666666666666,-125.86666666666666
556,53.333333333333336,-539.7333333333333,-123.73333333333333
557,46.93333333333333,-537.6,-128.0
558,46.93333333333333,-537.6,-134.4
559,53.333333333333336,-541.8666666666667,-134.4
560,51.2,-544.0,-125.86666666666666
561,55.46666666666667,-541.8666666666667,-125.86666666666666
562,53.333333333333336,-541.8666666666667,-132.26666666666665
563,51.2,-537.6,-130.13333333333333
564,59.733333333333334,-541.8666666666667,-138.66666666666666
565,57.6,-544.0,-136.53333333333333
566,57.6,-533.3333333333334,-134.4
567,66.13333333333333,-541.8666666666667,-136.53333333333333
568,66.13333333333333,-537.6,-134.4
569,68.26666666666667,-539.7333333333333,-142.93333333333334
570,66.13333333333333,-541.8666666666667,-142.93333333333334
571,66.13333333333333,-541.8666666666667,-145.06666666666666
572,72.53333333333333,-539.7333333333333,-145.06666666666666
573,70.4,-541.8666666666667,-145.06666666666666
574,74.66666666666667,-537.6,-149.33333333333334
575,72.53333333333333,-541.8666666666667,-147.2
576,72.53333333333333,-533.3333333333334,-153.6
577,70.4,-533.3333333333334,-145.06666666666666
578,72.53333333333333,-531.2,-155.73333333333332
579,72.53333333333333,-526.9333333333333,-149.33333333333334
580,68.26666666666667,-522.6666666666666,-157.86666666666667
581,72.53333333333333,-529.0666666666666,-157.86666666666667
582,70.4,-529.0666666666666,-160.0
583,68.26666666666667,-524.8,-162.13333333333333
584,66.13333333333333,-524.8,-153.6
585,68.26666666666667,-524.8,-155.73333333333332
586,64.0,-522.6666666666666,-155.73333333333332
587,61.86666666666667,-518.4,-162.13333333333333
588,66.13333333333333,-522.6666666666666,-164.26666666666665
589,55.46666666666667,-518.4,-160.0
590,59.733333333333334,-516.2666666666667,-160.0
591,66.13333333333333,-509.8666666666667,-155.73333333333332
592,64.0,-505.59999999999997,-160.0
593,66.13333333333333,-507.73333333333335,-164.26666666666665
594,70.4,-507.73333333333335,-155.73333333333332
595,68.26666666666667,-499.2,-149.33333333333334
596,68.26666666666667,-507.73333333333335,-160.0
597,61.86666666666667,-503.46666666666664,-145.06666666666666
598,61.86666666666667,-505.59999999999997,-145.06666666666666
599,59.733333333333334,-488.5333333333333,-157.86666666666667
600,61.86666666666667,-497.06666666666666,-155.73333333333332
601,49.06666666666666,-490.6666666666667,-160.0
602,59.733333333333334,-503.46666666666664,-172.8
603,55.46666666666667,-490.6666666666667,-166.4
604,53.333333333333336,-499.2,-162.13333333333333
605,53.333333333333336,-503.46666666666664,-170.66666666666666
606,49.06666666666666,-503.46666666666664,-174.93333333333334
607,44.8,-509.8666666666667,-160.0
608,57.6,-494.93333333333334,-192.0
609,38.4,-505.59999999999997,-157.86666666666667
610,36.266666666666666,-499.2,-157.86666666666667
611,38.4,-494.93333333333334,-162.13333333333333
612,34.13333333333333,-490.6666666666667,-160.0
613,36.266666666666666,-480.0,-157.86666666666667
614,36.266666666666666,-484.26666666666665,-160.0
615,40.53333333333333,-477.8666666666667,-155.73333333333332
616,44.8,-467.2,-157.86666666666667
617,38.4,-471.46666666666664,-157.86666666666667
618,46.93333333333333,-460.8,-160.0
619,53.333333333333336,-426.6666666666667,-125.86666666666666
620,42.666666666666664,-454.4,-157.86666666666667
621,51.2,-460.8,-162.13333333333333
622,53.333333333333336,-460.8,-170.66666666666666
623,59.733333333333334,-462.93333333333334,-168.53333333333333
624,59.733333333333334,-473.59999999999997,-172.8
625,59.733333333333334,-473.59999999999997,-179.2
626,72.53333333333333,-484.26666666666665,-179.2
627,70.4,-482.1333333333333,-179.2
628,74.66666666666667,-486.4,-177.06666666666666
629,76.8,-486.4,-181.33333333333334
630,81.06666666666666,-492.8,-215.46666666666667
631,81.06666666666666,-499.2,-185.6
632,81.06666666666666,-505.59999999999997,-192.0
633,74.66666666666667,-509.8666666666667,-194.13333333333333
634,72.53333333333333,-512.0,-204.8
635,70.4,-526.9333333333333,-209.06666666666666
636,68.26666666666667,-526.9333333333333,-200.53333333333333
637,59.733333333333334,-526.9333333333333,-202.66666666666666
638,57.6,-531.2,-202.66666666666666
639,51.2,-533.3333333333334,-206.93333333333334
640,53.333333333333336,-539.7333333333333,-198.4
641,44.8,-544.0,-217.6
642,49.06666666666666,-539.7333333333333,-211.2
643,44.8,-539.7333333333333,-211.2
644,51.2,-537.6,-213.33333333333334
645,57.6,-537.6,-219.73333333333332
646,53.333333333333336,-541.8666666666667,-224.0
647,49.06666666666666,-539.7333333333333,-228.26666666666665
648,57.6,-533.3333333333334,-232.53333333333333
649,49.06666666666666,-529.0666666666666,-230.4
650,46.93333333333333,-524.8,-238.93333333333334
651,49.06666666666666,-514.1333333333333,-234.66666666666666
652,40.53333333333333,-514.1333333333333,-253.86666666666667
653,38.4,-505.59999999999997,-247.46666666666667
654,40.53333333333333,-509.8666666666667,-253.86666666666667
655,36.266666666666666,-507.73333333333335,-256.0
656,29.866666666666667,-509.8666666666667,-262.4
657,27.733333333333334,-516.2666666666667,-256.0
658,29.866666666666667,-514.1333333333333,-258.1333333333333
659,19.2,-520.5333333333333,-245.33333333333334
660,19.2,-522.6666666666666,-258.1333333333333
661,19.2,-522.6666666666666,-249.6
662,14.933333333333334,-531.2,-253.86666666666667
663,17.066666666666666,-533.3333333333334,-245.33333333333334
664,19.2,-529.0666666666666,-245.33333333333334
665,19.2,-529.0666666666666,-247.46666666666667
666,21.333333333333332,-524.8,-251.73333333333332
667,21.333333333333332,-518.4,-253.86666666666667
668,27.733333333333334,-518.4,-256.0
669,32.0,-512.0,-256.0
670,32.0,-505.59999999999997,-258.1333333333333
671,36.266666666666666,-503.46666666666664,-251.73333333333332
672,49.06666666666666,-503.46666666666664,-262.4
673,42.666666666666664,-488.5333333333333,-258.1333333333333
674,40.53333333333333,-484.26666666666665,-260.26666666666665
675,42.666666666666664,-477.8666666666667,-270.93333333333334
676,44.8,-480.0,-262.4
677,44.8,-471.46666666666664,-264.5333333333333
678,55.46666666666667,-477.8666666666667,-262.4
679,42.666666666666664,-471.46666666666664,-266.6666666666667
680,44.8,-469.3333333333333,-262.4
681,46.93333333333333,-467.2,-264.5333333333333
682,44.8,-473.59999999999997,-262.4
683,46.93333333333333,-480.0,-258.1333333333333
684,49.06666666666666,-484.26666666666665,-258.1333333333333
685,53.333333333333336,-492.8,-253.86666666666667
686,51.2,-490.6666666666667,-266.6666666666667
687,46.93333333333333,-490.6666666666667,-262.4
688,49.06666666666666,-490.6666666666667,-264.5333333333333
689,51.2,-503.46666666666664,-268.8
690,55.46666666666667,-494.93333333333334,-268.8
691,57.6,-499.2,-275.2
692,55.46666666666667,-492.8,-273.06666666666666
693,61.86666666666667,-492.8,-270.93333333333334
694,53.333333333333336,-486.4,-279.46666666666664
695,64.0,-486.4,-268.8
696,64.0,-482.1333333333333,-273.06666666666666
697,57.6,-480.0,-275.2
698,61.86666666666667,-477.8666666666667,-270.93333333333334
699,49.06666666666666,-471.46666666666664,-273.06666666666666
700,66.13333333333333,-477.8666666666667,-270.93333333333334
701,61.86666666666667,-471.46666666666664,-270.93333333333334
702,61.86666666666667,-475.73333333333335,-281.6
703,61.86666666666667,-480.0,-277.3333333333333
704,61.86666666666667,-490.6666666666667,-277.3333333333333
705,57.6,-503.46666666666664,-288.0
706,57.6,-499.2,-288.0
707,57.6,-503.46666666666664,-292.26666666666665
708,49.06666666666666,-505.59999999999997,-298.6666666666667
709,49.06666666666666,-516.2666666666667,-290.1333333333333
710,46.93333333333333,-516.2666666666667,-294.4
711,46.93333333333333,-512.0,-300.8
712,55.46666666666667,-514.1333333333333,-307.2
713,55.46666666666667,-505.59999999999997,-311.46666666666664
714,61.86666666666667,-499.2,-311.46666666666664
715,74.66666666666667,-488.5333333333333,-322.1333333333333
716,81.06666666666666,-484.26666666666665,-339.2
717,89.6,-482.1333333333333,-337.06666666666666
718,102.4,-486.4,-349.8666666666667
719,96.0,-480.0,-345.6
720,96.0,-492.8,-354.1333333333333
721,89.6,-488.5333333333333,-349.8666666666667
722,85.33333333333333,-501.3333333333333,-334.93333333333334
723,76.8,-501.3333333333333,-330.6666666666667
724,61.86666666666667,-505.59999999999997,-334.93333333333334
725,46.93333333333333,-512.0,-307.2
726,36.266666666666666,-518.4,-307.2
727,27.733333333333334,-514.1333333333333,-296.5333333333333
728,14.933333333333334,-512.0,-300.8
729,8.533333333333333,-503.46666666666664,-300.8
730,4.266666666666667,-497.06666666666666,-307.2
731,2.1333333333333333,-494.93333333333334,-307.2
732,0.0,-488.5333333333333,-328.5333333333333
733,2.1333333333333333,-477.8666666666667,-326.4
734,8.533333333333333,-467.2,-360.5333333333333
735,17.066666666666666,-460.8,-371.2
736,21.333333333333332,-462.93333333333334,-377.6
737,21.333333333333332,-450.1333333333333,-386.1333333333333
738,34.13333333333333,-467.2,-375.46666666666664
739,38.4,-477.8666666666667,-358.4
740,46.93333333333333,-486.4,-347.73333333333335
741,49.06666666666666,-499.2,-320.0
742,53.333333333333336,-509.8666666666667,-307.2
743,55.46666666666667,-516.2666666666667,-288.0
744,55.46666666666667,-512.0,-292.26666666666665
745,57.6,-512.0,-285.8666666666667
746,53.333333333333336,-505.59999999999997,-292.26666666666665
747,53.333333333333336,-494.93333333333334,-305.06666666666666
748,53.333333333333336,-486.4,-328.5333333333333
749,46.93333333333333,-482.1333333333333,-356.26666666666665
750,49.06666666666666,-477.8666666666667,-369.06666666666666
751,49.06666666666666,-480.0,-392.5333333333333
752,49.06666666666666,-475.73333333333335,-401.06666666666666
753,59.733333333333334,-486.4,-398.93333333333334
754,57.6,-484.26666666666665,-388.26666666666665
755,49.06666666666666,-509.8666666666667,-369.06666666666666
756,49.06666666666666,-531.2,-352.0
757,49.06666666666666,-548.2666666666667,-320.0
758,57.6,-586.6666666666666,-283.73333333333335
759,59.733333333333334,-620.8,-264.5333333333333
760,44.8,-627.2,-245.33333333333334
761,38.4,-625.0666666666666,-260.26666666666665
762,34.13333333333333,-608.0,-266.6666666666667
763,27.733333333333334,-584.5333333333333,-290.1333333333333
764,32.0,-550.4,-330.6666666666667
765,29.866666666666667,-531.2,-360.5333333333333
766,29.866666666666667,-503.46666666666664,-403.2
767,29.866666666666667,-475.73333333333335,-428.8
768,36.266666666666666,-469.3333333333333,-441.59999999999997
769,25.6,-475.73333333333335,-452.26666666666665
770,32.0,-473.59999999999997,-437.3333333333333
771,29.866666666666667,-501.3333333333333,-420.26666666666665
772,53.333333333333336,-518.4,-396.8
773,36.266666666666666,-544.0,-369.06666666666666
774,44.8,-561.0666666666666,-339.2
775,38.4,-582.4,-305.06666666666666
776,32.0,-601.6,-288.0
777,27.733333333333334,-599.4666666666667,-275.2
778,21.333333333333332,-590.9333333333333,-270.93333333333334
779,19.2,-576.0,-277.3333333333333
780,23.466666666666665,-550.4,-292.26666666666665
781,23.466666666666665,-529.0666666666666,-305.06666666666666
782,36.266666666666666,-514.1333333333333,-313.6
783,38.4,-484.26666666666665,-345.6
784,51.2,-475.73333333333335,-349.8666666666667
785,53.333333333333336,-471.46666666666664,-373.3333333333333
786,59.733333333333334,-482.1333333333333,-373.3333333333333
787,66.13333333333333,-494.93333333333334,-375.46666666666664
788,64.0,-520.5333333333333,-373.3333333333333
789,74.66666666666667,-546.1333333333333,-356.26666666666665
790,85.33333333333333,-569.6,-345.6
791,91.73333333333333,-590.9333333333333,-322.1333333333333
792,98.13333333333333,-610.1333333333333,-300.8
793,93.86666666666666,-610.1333333333333,-309.3333333333333
794,85.33333333333333,-605.8666666666667,-294.4
795,78.93333333333334,-590.9333333333333,-302.93333333333334
796,76.8,-569.6,-300.8
797,85.33333333333333,-554.6666666666666,-320.0
798,83.2,-544.0,-324.26666666666665
799,70.4,-524.8,-322.1333333333333
800,72.53333333333333,-520.5333333333333,-317.8666666666667
801,64.0,-516.2666666666667,-311.46666666666664
802,61.86666666666667,-518.4,-307.2
803,57.6,-541.8666666666667,-298.6666666666667
804,53.333333333333336,-552.5333333333333,-298.6666666666667
805,61.86666666666667,-571.7333333333333,-294.4
806,64.0,-586.6666666666666,-298.6666666666667
807,49.06666666666666,-601.6,-294.4
808,44.8,-612.2666666666667,-294.4
809,57.6,-610.1333333333333,-292.26666666666665
810,46.93333333333333,-608.0,-296.5333333333333
811,46.93333333333333,-603.7333333333333,-294.4
812,49.06666666666666,-603.7333333333333,-300.8
813,59.733333333333334,-597.3333333333334,-300.8
814,55.46666666666667,-588.8,-305.06666666666666
815,55.46666666666667,-586.6666666666666,-296.5333333333333
816,57.6,-569.6,-285.8666666666667
817,59.733333333333334,-576.0,-296.5333333333333
818,59.733333333333334,-580.2666666666667,-292.26666666666665
819,57.6,-597.3333333333334,-279.46666666666664
820,61.86666666666667,-620.8,-275.2
821,64.0,-629.3333333333334,-275.2
822,57.6,-640.0,-268.8
823,64.0,-650.6666666666666,-262.4
824,55.46666666666667,-644.2666666666667,-264.5333333333333
825,55.46666666666667,-637.8666666666667,-270.93333333333334
826,64.0,-640.0,-268.8
827,59.733333333333334,-625.0666666666666,-270.93333333333334
828,59.733333333333334,-618.6666666666666,-266.6666666666667
829,70.4,-612.2666666666667,-260.26666666666665
830,64.0,-601.6,-264.5333333333333
831,66.13333333333333,-601.6,-253.86666666666667
832,55.46666666666667,-608.0,-260.26666666666665
833,59.733333333333334,-605.8666666666667,-264.5333333333333
834,55.46666666666667,-605.8666666666667,-262.4
835,59.733333333333334,-610.1333333333333,-268.8
836,59.733333333333334,-612.2666666666667,-266.6666666666667
837,57.6,-620.8,-264.5333333333333
838,44.8,-620.8,-258.1333333333333
839,49.06666666666666,-629.3333333333334,-260.26666666666665
840,49.06666666666666,-620.8,-256.0
841,53.333333333333336,-616.5333333333333,-253.86666666666667
842,46.93333333333333,-612.2666666666667,-253.86666666666667
843,40.53333333333333,-605.8666666666667,-251.73333333333332
844,27.733333333333334,-605.8666666666667,-253.86666666666667
845,23.466666666666665,-588.8,-245.33333333333334
846,27.733333333333334,-580.2666666666667,-249.6
847,36.266666666666666,-576.0,-247.46666666666667
848,40.53333333333333,-567.4666666666667,-234.66666666666666
849,46.93333333333333,-565.3333333333334,-241.06666666666666
850,51.2,-567.4666666666667,-226.13333333333333
851,59.733333333333334,-580.2666666666667,-211.2
852,66.13333333333333,-593.0666666666666,-217.6
853,70.4,-608.0,-209.06666666666666
854,81.06666666666666,-625.0666666666666,-202.66666666666666
855,83.2,-650.6666666666666,-209.06666666666666
856,87.46666666666667,-674.1333333333333,-215.46666666666667
857,81.06666666666666,-686.9333333333333,-217.6
858,85.33333333333333,-708.2666666666667,-224.0
859,87.46666666666667,-731.7333333333333,-232.53333333333333
860,78.93333333333334,-746.6666666666666,-241.06666666666666
861,76.8,-757.3333333333334,-234.66666666666666
862,72.53333333333333,-768.0,-241.06666666666666
863,66.13333333333333,-765.8666666666667,-236.79999999999998
864,49.06666666666666,-774.4,-228.26666666666665
865,34.13333333333333,-757.3333333333334,-224.0
866,19.2,-723.2,-217.6
867,23.466666666666665,-686.9333333333333,-211.2
868,19.2,-661.3333333333334,-196.26666666666665
869,23.466666666666665,-627.2,-164.26666666666665
870,21.333333333333332,-608.0,-138.66666666666666
871,17.066666666666666,-580.2666666666667,-125.86666666666666
872,19.2,-561.0666666666666,-102.4
873,21.333333333333332,-548.2666666666667,-83.2
874,12.8,-524.8,-61.86666666666667
875,19.2,-516.2666666666667,-49.06666666666666
876,19.2,-507.73333333333335,-10.666666666666666
877,34.13333333333333,-490.6666666666667,-10.666666666666666
878,27.733333333333334,-469.3333333333333,-14.933333333333334
879,40.53333333333333,-458.6666666666667,-17.066666666666666
880,38.4,-443.73333333333335,-14.933333333333334
881,46.93333333333333,-441.59999999999997,-29.866666666666667
882,57.6,-439.46666666666664,-36.266666666666666
883,55.46666666666667,-430.93333333333334,-27.733333333333334
884,74.66666666666667,-435.2,-21.333333333333332
885,76.8,-437.3333333333333,-12.8
886,85.33333333333333,-458.6666666666667,-6.4
887,93.86666666666666,-480.0,10.666666666666666
888,89.6,-494.93333333333334,6.4
889,91.73333333333333,-516.2666666666667,10.666666666666666
890,89.6,-539.7333333333333,32.0
891,83.2,-565.3333333333334,34.13333333333333
892,81.06666666666666,-586.6666666666666,29.866666666666667
893,78.93333333333334,-603.7333333333333,44.8
894,72.53333333333333,-627.2,44.8
895,64.0,-646.4,46.93333333333333
896,55.46666666666667,-657.0666666666666,38.4
897,49.06666666666666,-667.7333333333333,14.933333333333334
898,36.266666666666666,-663.4666666666667,4.266666666666667
899,14.933333333333334,-652.8,0.0
900,6.4,-654.9333333333333,-19.2
901,2.1333333333333333,-635.7333333333333,-23.466666666666665
902,0.0,-616.5333333333333,-25.6
903,-4.266666666666667,-605.8666666666667,-29.866666666666667
904,-8.533333333333333,-578.1333333333333,-36.266666666666666
905,-12.8,-548.2666666666667,-29.866666666666667
906,-21.333333333333332,-539.7333333333333,-23.466666666666665
907,-14.933333333333334,-516.2666666666667,-19.2
908,-2.1333333333333333,-505.59999999999997,-6.4
909,0.0,-490.6666666666667,-10.666666666666666
910,6.4,-486.4,-12.8
911,6.4,-473.59999999999997,-2.1333333333333333
912,21.333333333333332,-473.59999999999997,-2.1333333333333333
913,27.733333333333334,-473.59999999999997,2.1333333333333333
914,29.866666666666667,-475.73333333333335,-12.8
915,36.266666666666666,-480.0,-14.933333333333334
916,34.13333333333333,-486.4,-8.533333333333333
917,36.266666666666666,-488.5333333333333,-17.066666666666666
918,32.0,-503.46666666666664,-10.666666666666666
919,36.266666666666666,-522.6666666666666,-12.8
920,40.53333333333333,-535.4666666666667,-2.1333333333333333
921,32.0,-541.8666666666667,-10.666666666666666
922,32.0,-552.5333333333333,-6.4
923,34.13333333333333,-558.9333333333333,0.0
924,42.666666666666664,-571.7333333333333,0.0
925,42.666666666666664,-571.7333333333333,6.4
926,44.8,-573.8666666666667,6.4
927,46.93333333333333,-578.1333333333333,27.733333333333334
928,51.2,-580.2666666666667,17.066666666666666
929,51.2,-576.0,17.066666666666666
930,66.13333333333333,-573.8666666666667,19.2
931,61.86666666666667,-563.2,32.0
932,74.66666666666667,-558.9333333333333,25.6
933,70.4,-554.6666666666666,32.0
934,83.2,-548.2666666666667,25.6
935,76.8,-539.7333333333333,32.0
936,78.93333333333334,-535.4666666666667,29.866666666666667
937,68.26666666666667,-529.0666666666666,38.4
938,78.93333333333334,-520.5333333333333,38.4
939,72.53333333333333,-520.5333333333333,36.266666666666666
940,66.13333333333333,-516.2666666666667,40.53333333333333
941,61.86666666666667,-516.2666666666667,46.93333333333333
942,59.733333333333334,-516.2666666666667,59.733333333333334
943,59.733333333333334,-514.1333333333333,51.2
944,57.6,-529.0666666666666,87.46666666666667
945,55.46666666666667,-512.0,81.06666666666666
946,42.666666666666664,-516.2666666666667,83.2
947,44.8,-514.1333333333333,96.0
948,44.8,-520.5333333333333,100.26666666666667
949,36.266666666666666,-520.5333333333333,110.93333333333334
950,46.93333333333333,-518.4,110.93333333333334
951,36.266666666666666,-520.5333333333333,108.8
952,40.53333333333333,-520.5333333333333,121.6
953,44.8,-514.1333333333333,110.93333333333334
954,44.8,-512.0,108.8
955,49.06666666666666,-520.5333333333333,134.4
956,46.93333333333333,-492.8,100.26666666666667
957,55.46666666666667,-492.8,85.33333333333333
958,68.26666666666667,-492.8,78.93333333333334
959,57.6,-488.5333333333333,57.6
960,64.0,-497.06666666666666,51.2
961,68.26666666666667,-499.2,36.266666666666666
962,72.53333333333333,-507.73333333333335,29.866666666666667
963,70.4,-512.0,23.466666666666665
964,64.0,-516.2666666666667,21.333333333333332
965,66.13333333333333,-526.9333333333333,29.866666666666667
966,66.13333333333333,-537.6,21.333333333333332
967,61.86666666666667,-550.4,23.466666666666665
968,51.2,-556.8,19.2
969,55.46666666666667,-563.2,25.6
970,40.53333333333333,-565.3333333333334,40.53333333333333
971,46.93333333333333,-582.4,34.13333333333333
972,42.666666666666664,-580.2666666666667,46.93333333333333
973,38.4,-582.4,55.46666666666667
974,44.8,-584.5333333333333,49.06666666666666
975,38.4,-578.1333333333333,51.2
976,34.13333333333333,-578.1333333333333,44.8
977,36.266666666666666,-578.1333333333333,51.2
978,36.266666666666666,-565.3333333333334,55.46666666666667
979,32.0,-556.8,49.06666666666666
980,44.8,-552.5333333333333,42.666666666666664
981,40.53333333333333,-541.8666666666667,49.06666666666666
982,46.93333333333333,-537.6,42.666666666666664
983,53.333333333333336,-533.3333333333334,42.666666666666664
984,53.333333333333336,-520.5333333333333,49.06666666666666
985,55.46666666666667,-520.5333333333333,38.4
986,59.733333333333334,-514.1333333333333,40.53333333333333
987,59.733333333333334,-514.1333333333333,51.2
988,59.733333333333334,-509.8666666666667,51.2
989,64.0,-501.3333333333333,51.2
990,72.53333333333333,-509.8666666666667,51.2
991,68.26666666666667,-518.4,59.733333333333334
992,66.13333333333333,-522.6666666666666,64.0
993,59.733333333333334,-520.5333333333333,66.13333333333333
994,66.13333333333333,-522.6666666666666,70.4
995,61.86666666666667,-520.5333333333333,74.66666666666667
996,55.46666666666667,-526.9333333333333,74.66666666666667
997,61.86666666666667,-533.3333333333334,87.46666666666667
998,53.333333333333336,-524.8,85.33333333333333
999,51.2,-529.0666666666666,87.46666666666667
1000,51.2,-535.4666666666667,85.33333333333333
1001,51.2,-526.9333333333333,81.06666666666666
1002,51.2,-533.3333333333334,87.46666666666667
1003,53.333333333333336,-531.2,76.8
1004,53.333333333333336,-524.8,81.06666666666666
1005,49.06666666666666,-529.0666666666666,76.8
1006,46.93333333333333,-539.7333333333333,76.8
1007,42.666666666666664,-522.6666666666666,72.53333333333333
1008,36.266666666666666,-524.8,66.13333333333333
1009,40.53333333333333,-524.8,70.4
1010,42.666666666666664,-529.0666666666666,68.26666666666667
1011,42.666666666666664,-529.0666666666666,59.733333333333334
1012,44.8,-533.3333333333334,66.13333333333333
1013,46.93333333333333,-539.7333333333333,61.86666666666667
1014,40.53333333333333,-535.4666666666667,61.86666666666667
1015,44.8,-541.8666666666667,64.0
1016,40.53333333333333,-537.6,53.333333333333336
1017,44.8,-537.6,61.86666666666667
1018,46.93333333333333,-544.0,53.333333333333336
1019,49.06666666666666,-544.0,61.86666666666667
1020,46.93333333333333,-544.0,59.733333333333334
1021,46.93333333333333,-541.8666666666667,57.6
1022,51.2,-546.1333333333333,55.46666666666667
1023,42.666666666666664,-544.0,49.06666666666666
1024,40.53333333333333,-544.0,46.93333333333333
1025,49.06666666666666,-541.8666666666667,53.333333333333336
1026,46.93333333333333,-541.8666666666667,64.0
1027,40.53333333333333,-539.7333333333333,51.2
1028,42.666666666666664,-539.7333333333333,59.733333333333334
1029,34.13333333333333,-533.3333333333334,57.6
1030,42.666666666666664,-535.4666666666667,49.06666666666666
1031,38.4,-535.4666666666667,55.46666666666667
1032,38.4,-533.3333333333334,64.0
1033,36.266666666666666,-533.3333333333334,66.13333333333333
1034,36.266666666666666,-535.4666666666667,59.733333333333334
1035,49.06666666666666,-535.4666666666667,57.6
1036,42.666666666666664,-524.8,59.733333333333334
1037,49.06666666666666,-533.3333333333334,59.733333333333334
1038,46.93333333333333,-535.4666666666667,59.733333333333334
1039,53.333333333333336,-533.3333333333334,55.46666666666667
1040,49.06666666666666,-533.3333333333334,55.46666666666667
1041,49.06666666666666,-535.4666666666667,66.13333333333333
1042,51.2,-537.6,57.6
1043,51.2,-539.7333333333333,59.733333333333334
1044,44.8,-539.7333333333333,64.0
1045,42.666666666666664,-539.7333333333333,64.0
1046,42.666666666666664,-537.6,61.86666666666667
1047,49.06666666666666,-541.8666666666667,59.733333333333334
1048,46.93333333333333,-533.3333333333334,64.0
1049,44.8,-539.7333333333333,59.733333333333334
1050,46.93333333333333,-541.8666666666667,55.46666666666667
1051,49.06666666666666,-546.1333333333333,64.0
1052,51.2,-539.7333333333333,55.46666666666667
1053,59.733333333333334,-541.8666666666667,70.4
1054,51.2,-533.3333333333334,64.0
1055,55.46666666666667,-537.6,68.26666666666667
1056,59.733333333333334,-535.4666666666667,61.86666666666667
1057,59.733333333333334,-541.8666666666667,70.4
1058,57.6,-531.2,74.66666666666667
1059,59.733333333333334,-541.8666666666667,83.2
1060,61.86666666666667,-533.3333333333334,70.4
1061,51.2,-533.3333333333334,74.66666666666667
1062,57.6,-533.3333333333334,76.8
1063,55.46666666666667,-539.7333333333333,74.66666666666667
1064,51.2,-529.0666666666666,76.8
1065,53.333333333333336,-539.7333333333333,74.66666666666667
1066,49.06666666666666,-535.4666666666667,76.8
1067,44.8,-535.4666666666667,68.26666666666667
1068,49.06666666666666,-531.2,61.86666666666667
1069,46.93333333333333,-533.3333333333334,55.46666666666667
1070,53.333333333333336,-533.3333333333334,59.733333333333334
1071,51.2,-535.4666666666667,66.13333333333333
1072,42.666666666666664,-531.2,66.13333333333333
1073,51.2,-535.4666666666667,57.6
1074,49.06666666666666,-535.4666666666667,61.86666666666667
1075,40.53333333333333,-535.4666666666667,66.13333333333333
1076,49.06666666666666,-535.4666666666667,68.26666666666667
1077,46.93333333333333,-533.3333333333334,74.66666666666667
1078,49.06666666666666,-537.6,76.8
1079,49.06666666666666,-537.6,70.4
1080,44.8,-531.2,74.66666666666667
1081,49.06666666666666,-535.4666666666667,70.4
1082,53.333333333333336,-533.3333333333334,61.86666666666667
1083,53.333333333333336,-535.4666666666667,72.53333333333333
1084,55.46666666666667,-531.2,68.26666666666667
1085,55.46666666666667,-533.3333333333334,76.8
1086,55.46666666666667,-533.3333333333334,70.4
1087,53.333333333333336,-533.3333333333334,70.4
1088,51.2,-529.0666666666666,61.86666666666667
1089,51.2,-535.4666666666667,64.0
1090,55.46666666666667,-531.2,68.26666666666667
1091,57.6,-537.6,70.4
1092,51.2,-539.7333333333333,61.86666666666667
1093,57.6,-537.6,61.86666666666667
1094,51.2,-537.6,64.0
1095,57.6,-541.8666666666667,70.4
1096,53.333333333333336,-539.7333333333333,55.46666666666667
1097,55.46666666666667,-537.6,53.333333333333336
1098,49.06666666666666,-544.0,57.6
1099,57.6,-539.7333333333333,64.0
1100,59.733333333333334,-541.8666666666667,59.733333333333334
1101,55.46666666666667,-546.1333333333333,59.733333333333334
1102,59.733333333333334,-544.0,70.4
1103,55.46666666666667,-541.8666666666667,66.13333333333333
1104,59.733333333333334,-539.7333333333333,76.8
1105,57.6,-537.6,68.26666666666667
1106,61.86666666666667,-541.8666666666667,70.4
1107,55.46666666666667,-531.2,72.53333333333333
1108,51.2,-529.0666666666666,74.66666666666667
1109,55.46666666666667,-535.4666666666667,68.26666666666667
1110,51.2,-533.3333333333334,70.4
1111,51.2,-529.0666666666666,70.4
1112,57.6,-531.2,66.13333333333333
1113,57.6,-535.4666666666667,68.26666666666667
1114,55.46666666666667,-524.8,68.26666666666667
1115,57.6,-537.6,68.26666666666667
1116,59.733333333333334,-531.2,61.86666666666667
1117,55.46666666666667,-537.6,70.4
1118,61.86666666666667,-512.0,42.666666666666664
1119,51.2,-537.6,68.26666666666667
1120,64.0,-544.0,68.26666666666667
1121,53.333333333333336,-539.7333333333333,66.13333333333333
1122,53.333333333333336,-541.8666666666667,68.26666666666667
1123,51.2,-537.6,70.4
1124,57.6,-535.4666666666667,68.26666666666667
1125,61.86666666666667,-539.7333333333333,66.13333333333333
1126,68.26666666666667,-541.8666666666667,72.53333333333333
1127,61.86666666666667,-541.8666666666667,78.93333333333334
1128,57.6,-531.2,70.4
1129,49.06666666666666,-522.6666666666666,27.733333333333334
1130,55.46666666666667,-529.0666666666666,74.66666666666667
1131,61.86666666666667,-535.4666666666667,74.66666666666667
1132,61.86666666666667,-533.3333333333334,68.26666666666667
1133,59.733333333333334,-541.8666666666667,70.4
1134,59.733333333333334,-533.3333333333334,68.26666666666667
1135,57.6,-539.7333333333333,66.13333333333333
1136,57.6,-529.0666666666666,68.26666666666667
1137,55.46666666666667,-529.0666666666666,68.26666666666667
1138,57.6,-524.8,66.13333333333333
1139,51.2,-533.3333333333334,68.26666666666667
1140,57.6,-548.2666666666667,44.8
1141,57.6,-529.0666666666666,64.0
1142,53.333333333333336,-535.4666666666667,68.26666666666667
1143,55.46666666666667,-537.6,74.66666666666667
1144,57.6,-539.7333333333333,68.26666666666667
1145,53.333333333333336,-544.0,55.46666666666667
1146,53.333333333333336,-537.6,66.13333333333333
1147,61.86666666666667,-541.8666666666667,64.0
1148,53.333333333333336,-541.8666666666667,64.0
1149,55.46666666666667,-546.1333333333333,59.733333333333334
1150,53.333333333333336,-537.6,59.733333333333334
1151,64.0,-539.7333333333333,61.86666666666667
1152,53.333333333333336,-537.6,68.26666666666667
1153,55.46666666666667,-533.3333333333334,59.733333333333334
1154,59.733333333333334,-537.6,66.13333333333333
1155,57.6,-537.6,72.53333333333333
1156,66.13333333333333,-531.2,70.4
1157,57.6,-529.0666666666666,64.0
1158,55.46666666666667,-537.6,68.26666666666667
1159,59.733333333333334,-535.4666666666667,72.53333333333333
1160,55.46666666666667,-533.3333333333334,59.733333333333334
1161,57.6,-541.8666666666667,68.26666666666667
1162,57.6,-537.6,59.733333333333334
1163,59.733333333333334,-539.7333333333333,66.13333333333333
1164,55.46666666666667,-539.7333333333333,64.0
1165,59.733333333333334,-537.6,57.6
1166,57.6,-541.8666666666667,68.26666666666667
1167,61.86666666666667,-544.0,53.333333333333336
1168,57.6,-546.1333333333333,53.333333333333336
1169,53.333333333333336,-537.6,66.13333333333333
1170,53.333333333333336,-546.1333333333333,61.86666666666667
1171,61.86666666666667,-548.2666666666667,68.26666666666667
1172,61.86666666666667,-546.1333333333333,59.733333333333334
1173,61.86666666666667,-541.8666666666667,61.86666666666667
1174,59.733333333333334,-539.7333333333333,61.86666666666667
1175,57.6,-539.7333333333333,61.86666666666667
1176,61.86666666666667,-541.8666666666667,59.733333333333334
1177,59.733333333333334,-537.6,64.0
1178,61.86666666666667,-535.4666666666667,68.26666666666667
1179,59.733333333333334,-537.6,70.4
1180,55.46666666666667,-537.6,61.86666666666667
1181,53.333333333333336,-535.4666666666667,61.86666666666667
1182,55.46666666666667,-531.2,68.26666666666667
1183,59.733333333333334,-526.9333333333333,66.13333333333333
1184,42.666666666666664,-531.2,59.733333333333334
1185,46.93333333333333,-533.3333333333334,59.733333333333334
1186,53.333333333333336,-535.4666666666667,68.26666666666667
1187,55.46666666666667,-533.3333333333334,55.46666666666667
1188,59.733333333333334,-535.4666666666667,61.86666666666667
1189,53.333333333333336,-546.1333333333333,66.13333333333333
1190,55.46666666666667,-544.0,59.733333333333334
1191,59.733333333333334,-537.6,66.13333333333333
1192,59.733333333333334,-544.0,49.06666666666666
1193,59.733333333333334,-546.1333333333333,55.46666666666667
1194,55.46666666666667,-541.8666666666667,51.2
1195,61.86666666666667,-544.0,51.2
1196,51.2,-544.0,61.86666666666667
1197,57.6,-537.6,51.2
1198,57.6,-539.7333333333333,68.26666666666667
1199,53.333333333333336,-535.4666666666667,55.46666666666667
1200,61.86666666666667,-541.8666666666667,53.333333333333336
1201,59.733333333333334,-537.6,57.6
1202,57.6,-533.3333333333334,64.0
1203,61.86666666666667,-535.4666666666667,64.0
1204,57.6,-535.4666666666667,59.733333333333334
1205,59.733333333333334,-541.8666666666667,68.26666666666667
1206,53.333333333333336,-539.7333333333333,66.13333333333333
1207,55.46666666666667,-541.8666666666667,68.26666666666667
1208,55.46666666666667,-546.1333333333333,68.26666666666667
1209,46.93333333333333,-548.2666666666667,66.13333333333333
1210,49.06666666666666,-548.2666666666667,55.46666666666667
1211,49.06666666666666,-546.1333333333333,57.6
1212,53.333333333333336,-541.8666666666667,53.333333333333336
1213,53.333333333333336,-539.7333333333333,57.6
1214,57.6,-535.4666666666667,53.333333333333336
1215,51.2,-537.6,55.46666666666667
1216,57.6,-537.6,55.46666666666667
1217,57.6,-535.4666666666667,49.06666666666666
1218,49.06666666666666,-535.4666666666667,51.2
1219,55.46666666666667,-531.2,59.733333333333334
1220,59.733333333333334,-539.7333333333333,57.6
1221,59.733333333333334,-535.4666666666667,57.6
1222,55.46666666666667,-537.6,55.46666666666667
1223,64.0,-537.6,55.46666666666667
1224,59.733333333333334,-535.4666666666667,55.46666666666667
1225,59.733333333333334,-537.6,59.733333333333334
1226,61.86666666666667,-541.8666666666667,53.333333333333336
1227,59.733333333333334,-537.6,55.46666666666667
1228,57.6,-537.6,59.733333333333334
1229,61.86666666666667,-541.8666666666667,51.2
1230,53.333333333333336,-544.0,55.46666666666667
1231,57.6,-539.7333333333333,59.733333333333334
1232,53.333333333333336,-537.6,55.46666666666667
1233,61.86666666666667,-546.1333333333333,55.46666666666667
1234,61.86666666666667,-539.7333333333333,53.333333333333336
1235,61.86666666666667,-544.0,51.2
1236,57.6,-535.4666666666667,59.733333333333334
1237,55.46666666666667,-535.4666666666667,53.333333333333336
1238,57.6,-541.8666666666667,49.06666666666666
1239,55.46666666666667,-537.6,51.2
1240,53.333333333333336,-539.7333333333333,55.46666666666667
1241,59.733333333333334,-537.6,49.06666666666666
1242,55.46666666666667,-535.4666666666667,46.93333333333333
1243,53.333333333333336,-537.6,49.06666666666666
1244,51.2,-544.0,40.53333333333333
1245,55.46666666666667,-544.0,49.06666666666666
1246,53.333333333333336,-541.8666666666667,53.333333333333336
1247,51.2,-544.0,40.53333333333333
1248,51.2,-541.8666666666667,36.266666666666666
1249,55.46666666666667,-546.1333333333333,44.8
1250,55.46666666666667,-537.6,49.06666666666666
1251,55.46666666666667,-544.0,49.06666666666666
1252,55.46666666666667,-546.1333333333333,44.8
1253,61.86666666666667,-544.0,44.8
1254,53.333333333333336,-541.8666666666667,44.8
1255,55.46666666666667,-546.1333333333333,44.8
1256,61.86666666666667,-539.7333333333333,46.93333333333333
1257,49.06666666666666,-541.8666666666667,53.333333333333336
1258,59.733333333333334,-541.8666666666667,46.93333333333333
1259,51.2,-544.0,51.2
1260,51.2,-537.6,42.666666666666664
1261,55.46666666666667,-544.0,53.333333333333336
1262,53.333333333333336,-533.3333333333334,36.266666666666666
1263,49.06666666666666,-539.7333333333333,42.666666666666664
1264,51.2,-537.6,38.4
1265,53.333333333333336,-541.8666666666667,49.06666666666666
1266,55.46666666666667,-537.6,44.8
1267,57.6,-541.8666666666667,40.53333333333333
1268,51.2,-544.0,44.8
1269,55.46666666666667,-539.7333333333333,38.4
1270,51.2,-541.8666666666667,46.93333333333333
1271,53.333333333333336,-544.0,42.666666666666664
1272,51.2,-535.4666666666667,42.666666666666664
1273,57.6,-541.8666666666667,34.13333333333333
1274,55.46666666666667,-544.0,36.266666666666666
1275,53.333333333333336,-541.8666666666667,44.8
1276,46.93333333333333,-546.1333333333333,44.8
1277,53.333333333333336,-544.0,51.2
1278,59.733333333333334,-548.2666666666667,44.8
1279,55.46666666666667,-544.0,49.06666666666666
1280,53.333333333333336,-544.0,44.8
1281,57.6,-539.7333333333333,40.53333333333333
1282,57.6,-546.1333333333333,40.53333333333333
1283,61.86666666666667,-544.0,44.8
1284,61.86666666666667,-541.8666666666667,32.0
1285,55.46666666666667,-541.8666666666667,38.4
1286,59.733333333333334,-546.1333333333333,36.266666666666666
1287,53.333333333333336,-537.6,34.13333333333333
1288,55.46666666666667,-541.8666666666667,38.4
1289,59.733333333333334,-546.1333333333333,25.6
1290,57.6,-541.8666666666667,40.53333333333333
1291,57.6,-537.6,32.0
1292,59.733333333333334,-533.3333333333334,4.266666666666667
1293,51.2,-541.8666666666667,34.13333333333333
1294,64.0,-544.0,38.4
1295,57.6,-539.7333333333333,29.866666666666667
1296,55.46666666666667,-544.0,34.13333333333333
1297,44.8,-533.3333333333334,36.266666666666666
1298,57.6,-546.1333333333333,34.13333333333333
1299,55.46666666666667,-546.1333333333333,34.13333333333333
1300,55.46666666666667,-546.1333333333333,34.13333333333333
1301,53.333333333333336,-544.0,32.0
1302,51.2,-544.0,36.266666666666666
1303,38.4,-552.5333333333333,32.0
1304,57.6,-546.1333333333333,29.866666666666667
1305,53.333333333333336,-544.0,32.0
1306,57.6,-552.5333333333333,34.13333333333333
1307,51.2,-546.1333333333333,23.466666666666665
1308,53.333333333333336,-531.2,29.866666666666667
1309,59.733333333333334,-539.7333333333333,29.866666666666667
1310,53.333333333333336,-544.0,29.866666666666667
1311,57.6,-541.8666666666667,32.0
1312,55.46666666666667,-539.7333333333333,29.866666666666667
1313,51.2,-544.0,38.4
1314,59.733333333333334,-524.8,25.6
1315,55.46666666666667,-539.7333333333333,27.733333333333334
1316,51.2,-546.1333333333333,29.866666666666667
1317,46.93333333333333,-537.6,36.266666666666666
1318,55.46666666666667,-539.7333333333333,27.733333333333334
1319,59.733333333333334,-539.7333333333333,34.13333333333333
1320,55.46666666666667,-539.7333333333333,34.13333333333333
1321,49.06666666666666,-546.1333333333333,34.13333333333333
1322,49.06666666666666,-541.8666666666667,21.333333333333332
1323,55.46666666666667,-541.8666666666667,29.866666666666667
1324,55.46666666666667,-544.0,19.2
1325,51.2,-546.1333333333333,21.333333333333332
1326,57.6,-546.1333333333333,27.733333333333334
1327,51.2,-546.1333333333333,23.466666666666665
1328,55.46666666666667,-554.6666666666666,21.333333333333332
1329,44.8,-546.1333333333333,25.6
1330,53.333333333333336,-548.2666666666667,19.2
1331,55.46666666666667,-550.4,21.333333333333332
1332,57.6,-554.6666666666666,19.2
1333,57.6,-548.2666666666667,25.6
1334,51.2,-548.2666666666667,21.333333333333332
1335,55.46666666666667,-550.4,21.333333333333332
1336,55.46666666666667,-548.2666666666667,25.6
1337,61.86666666666667,-544.0,19.2
1338,57.6,-546.1333333333333,25.6
1339,53.333333333333336,-546.1333333333333,27.733333333333334
1340,51.2,-539.7333333333333,27.733333333333334
1341,53.333333333333336,-539.7333333333333,29.866666666666667
1342,49.06666666666666,-537.6,23.466666666666665
1343,57.6,-539.7333333333333,21.333333333333332
1344,46.93333333333333,-533.3333333333334,19.2
1345,55.46666666666667,-535.4666666666667,23.466666666666665
1346,53.333333333333336,-535.4666666666667,23.466666666666665
1347,51.2,-535.4666666666667,23.466666666666665
1348,46.93333333333333,-535.4666666666667,19.2
1349,55.46666666666667,-546.1333333333333,23.466666666666665
1350,49.06666666666666,-537.6,23.466666666666665
1351,49.06666666666666,-546.1333333333333,17.066666666666666
1352,55.46666666666667,-548.2666666666667,23.466666666666665
1353,46.93333333333333,-544.0,19.2
1354,59.733333333333334,-546.1333333333333,12.8
1355,53.333333333333336,-546.1333333333333,23.466666666666665
1356,51.2,-544.0,23.466666666666665
1357,53.333333333333336,-544.0,19.2
1358,61.86666666666667,-550.4,23.466666666666665
1359,59.733333333333334,-544.0,19.2
1360,55.46666666666667,-548.2666666666667,21.333333333333332
1361,51.2,-552.5333333333333,12.8
1362,49.06666666666666,-552.5333333333333,14.933333333333334
1363,51.2,-556.8,4.266666666666667
1364,53.333333333333336,-550.4,2.1333333333333333
1365,51.2,-548.2666666666667,6.4
1366,51.2,-546.1333333333333,4.266666666666667
1367,53.333333333333336,-546.1333333333333,8.533333333333333
1368,51.2,-546.1333333333333,2.1333333333333333
1369,55.46666666666667,-544.0,8.533333333333333
1370,51.2,-537.6,8.533333333333333
1371,51.2,-544.0,6.4
1372,49.06666666666666,-546.1333333333333,6.4
1373,49.06666666666666,-544.0,4.266666666666667
1374,59.733333333333334,-546.1333333333333,6.4
1375,55.46666666666667,-544.0,4.266666666666667
1376,51.2,-541.8666666666667,-2.1333333333333333
1377,53.333333333333336,-546.1333333333333,0.0
1378,51.2,-544.0,6.4
1379,49.06666666666666,-546.1333333333333,2.1333333333333333
1380,57.6,-544.0,12.8
1381,55.46666666666667,-544.0,4.266666666666667
1382,51.2,-544.0,2.1333333333333333
1383,53.333333333333336,-544.0,0.0
1384,61.86666666666667,-554.6666666666666,0.0
1385,61.86666666666667,-548.2666666666667,0.0
1386,51.2,-546.1333333333333,0.0
1387,57.6,-546.1333333333333,2.1333333333333333
1388,51.2,-550.4,2.1333333333333333
1389,51.2,-546.1333333333333,-2.1333333333333333
1390,53.333333333333336,-546.1333333333333,-6.4
1391,51.2,-544.0,-2.1333333333333333
1392,49.06666666666666,-544.0,-2.1333333333333333
1393,49.06666666666666,-544.0,-6.4
1394,46.93333333333333,-546.1333333333333,0.0
1395,44.8,-541.8666666666667,-2.1333333333333333
1396,51.2,-544.0,4.266666666666667
1397,49.06666666666666,-541.8666666666667,2.1333333333333333
1398,55.46666666666667,-544.0,2.1333333333333333
1399,49.06666666666666,-539.7333333333333,4.266666666666667
1400,51.2,-544.0,4.266666666666667
1401,55.46666666666667,-544.0,4.266666666666667
1402,59.733333333333334,-539.7333333333333,10.666666666666666
1403,51.2,-535.4666666666667,4.266666666666667
1404,59.733333333333334,-541.8666666666667,2.1333333333333333
1405,49.06666666666666,-535.4666666666667,0.0
1406,55.46666666666667,-531.2,4.266666666666667
1407,55.46666666666667,-539.7333333333333,4.266666666666667
1408,53.333333333333336,-535.4666666666667,0.0
1409,59.733333333333334,-535.4666666666667,4.266666666666667
1410,57.6,-537.6,2.1333333333333333
1411,55.46666666666667,-537.6,4.266666666666667
1412,51.2,-539.7333333333333,4.266666666666667
1413,55.46666666666667,-541.8666666666667,2.1333333333333333
1414,49.06666666666666,-539.7333333333333,-2.1333333333333333
1415,55.46666666666667,-544.0,2.1333333333333333
1416,49.06666666666666,-544.0,-4.266666666666667
1417,44.8,-544.0,-2.1333333333333333
1418,42.666666666666664,-550.4,0.0
1419,40.53333333333333,-544.0,-6.4
1420,46.93333333333333,-546.1333333333333,-19.2
1421,44.8,-546.1333333333333,-14.933333333333334
1422,40.53333333333333,-541.8666666666667,-6.4
1423,42.666666666666664,-546.1333333333333,-21.333333333333332
1424,49.06666666666666,-546.1333333333333,-19.2
1425,53.333333333333336,-546.1333333333333,-25.6
1426,42.666666666666664,-537.6,-32.0
1427,46.93333333333333,-546.1333333333333,-25.6
1428,51.2,-546.1333333333333,-29.866666666666667
1429,46.93333333333333,-546.1333333333333,-27.733333333333334
1430,46.93333333333333,-548.2666666666667,-23.466666666666665
1431,42.666666666666664,-546.1333333333333,-25.6
1432,49.06666666666666,-544.0,-29.866666666666667
1433,46.93333333333333,-541.8666666666667,-36.266666666666666
1434,49.06666666666666,-546.1333333333333,-42.666666666666664
1435,51.2,-541.8666666666667,-42.666666666666664
1436,36.266666666666666,-541.8666666666667,-42.666666666666664
1437,46.93333333333333,-548.2666666666667,-38.4
1438,44.8,-546.1333333333333,-38.4
1439,51.2,-546.1333333333333,-51.2
1440,49.06666666666666,-546.1333333333333,-57.6
1441,44.8,-546.1333333333333,-57.6
1442,44.8,-544.0,-59.733333333333334
1443,44.8,-546.1333333333333,-64.0
1444,44.8,-546.1333333333333,-70.4
1445,42.666666666666664,-548.2666666666667,-68.26666666666667
1446,42.666666666666664,-546.1333333333333,-78.93333333333334
1447,42.666666666666664,-541.8666666666667,-78.93333333333334
1448,40.53333333333333,-544.0,-78.93333333333334
1449,36.266666666666666,-544.0,-83.2
1450,42.666666666666664,-539.7333333333333,-85.33333333333333
1451,49.06666666666666,-539.7333333333333,-98.13333333333333
1452,51.2,-537.6,-98.13333333333333
1453,44.8,-539.7333333333333,-96.0
1454,44.8,-544.0,-104.53333333333333
1455,49.06666666666666,-567.4666666666667,-83.2
1456,38.4,-537.6,-123.73333333333333
1457,40.53333333333333,-546.1333333333333,-115.2
1458,36.266666666666666,-544.0,-115.2
1459,36.266666666666666,-541.8666666666667,-119.46666666666667
1460,36.266666666666666,-541.8666666666667,-117.33333333333333
1461,34.13333333333333,-544.0,-113.06666666666666
1462,27.733333333333334,-544.0,-115.2
1463,38.4,-548.2666666666667,-121.6
1464,40.53333333333333,-550.4,-134.4
1465,34.13333333333333,-546.1333333333333,-128.0
1466,49.06666666666666,-567.4666666666667,-115.2
1467,38.4,-544.0,-145.06666666666666
1468,42.666666666666664,-544.0,-138.66666666666666
1469,34.13333333333333,-546.1333333333333,-147.2
1470,38.4,-558.9333333333333,-157.86666666666667
1471,32.0,-554.6666666666666,-151.46666666666667
1472,34.13333333333333,-558.9333333333333,-160.0
1473,25.6,-567.4666666666667,-160.0
1474,27.733333333333334,-582.4,-162.13333333333333
1475,27.733333333333334,-590.9333333333333,-166.4
1476,21.333333333333332,-593.0666666666666,-160.0
1477,32.0,-588.8,-153.6
1478,36.266666666666666,-601.6,-181.33333333333334
1479,38.4,-593.0666666666666,-185.6
1480,44.8,-599.4666666666667,-187.73333333333332
1481,49.06666666666666,-599.4666666666667,-181.33333333333334
1482,49.06666666666666,-593.0666666666666,-196.26666666666665
1483,44.8,-593.0666666666666,-187.73333333333332
1484,49.06666666666666,-593.0666666666666,-189.86666666666667
1485,42.666666666666664,-593.0666666666666,-202.66666666666666
1486,36.266666666666666,-595.2,-198.4
1487,40.53333333333333,-584.5333333333333,-211.2
1488,32.0,-573.8666666666667,-204.8
1489,40.53333333333333,-580.2666666666667,-209.06666666666666
1490,34.13333333333333,-578.1333333333333,-213.33333333333334
1491,25.6,-578.1333333333333,-211.2
1492,34.13333333333333,-580.2666666666667,-219.73333333333332
1493,23.466666666666665,-580.2666666666667,-232.53333333333333
1494,38.4,-580.2666666666667,-245.33333333333334
1495,36.266666666666666,-573.8666666666667,-247.46666666666667
1496,38.4,-580.2666666666667,-234.66666666666666
1497,49.06666666666666,-576.0,-258.1333333333333
1498,49.06666666666666,-580.2666666666667,-262.4
1499,53.333333333333336,-593.0666666666666,-273.06666666666666
1500,70.4,-599.4666666666667,-273.06666666666666
1501,49.06666666666666,-593.0666666666666,-281.6
1502,51.2,-599.4666666666667,-288.0
1503,46.93333333333333,-616.5333333333333,-300.8
1504,57.6,-616.5333333333333,-294.4
1505,42.666666666666664,-629.3333333333334,-311.46666666666664
1506,44.8,-627.2,-305.06666666666666
1507,44.8,-633.6,-317.8666666666667
1508,32.0,-622.9333333333333,-305.06666666666666
1509,25.6,-614.4,-305.06666666666666
1510,23.466666666666665,-599.4666666666667,-305.06666666666666
1511,19.2,-588.8,-307.2
1512,21.333333333333332,-582.4,-300.8
1513,14.933333333333334,-578.1333333333333,-294.4
1514,17.066666666666666,-580.2666666666667,-305.06666666666666
1515,14.933333333333334,-580.2666666666667,-294.4
1516,12.8,-580.2666666666667,-298.6666666666667
1517,25.6,-580.2666666666667,-296.5333333333333
1518,29.866666666666667,-569.6,-305.06666666666666
1519,29.866666666666667,-569.6,-294.4
1520,29.866666666666667,-573.8666666666667,-302.93333333333334
1521,25.6,-584.5333333333333,-313.6
1522,23.466666666666665,-578.1333333333333,-296.5333333333333
1523,23.466666666666665,-573.8666666666667,-309.3333333333333
1524,17.066666666666666,-578.1333333333333,-315.73333333333335
1525,29.866666666666667,-576.0,-334.93333333333334
1526,14.933333333333334,-571.7333333333333,-328.5333333333333
1527,21.333333333333332,-580.2666666666667,-341.3333333333333
1528,17.066666666666666,-567.4666666666667,-345.6
1529,27.733333333333334,-571.7333333333333,-337.06666666666666
1530,10.666666666666666,-580.2666666666667,-341.3333333333333
1531,25.6,-578.1333333333333,-362.6666666666667
1532,8.533333333333333,-569.6,-347.73333333333335
1533,23.466666666666665,-573.8666666666667,-358.4
1534,12.8,-573.8666666666667,-364.8
1535,12.8,-573.8666666666667,-352.0
1536,23.466666666666665,-580.2666666666667,-373.3333333333333
1537,29.866666666666667,-573.8666666666667,-381.8666666666667
1538,21.333333333333332,-563.2,-379.73333333333335
1539,25.6,-567.4666666666667,-375.46666666666664
1540,14.933333333333334,-563.2,-386.1333333333333
1541,10.666666666666666,-569.6,-384.0
1542,10.666666666666666,-571.7333333333333,-392.5333333333333
1543,6.4,-576.0,-392.5333333333333
1544,8.533333333333333,-571.7333333333333,-388.26666666666665
1545,0.0,-582.4,-390.4
1546,2.1333333333333333,-588.8,-398.93333333333334
1547,-4.266666666666667,-593.0666666666666,-396.8
1548,-8.533333333333333,-597.3333333333334,-403.2
1549,-6.4,-580.2666666666667,-407.46666666666664
1550,-19.2,-597.3333333333334,-394.6666666666667
1551,-4.266666666666667,-582.4,-409.6
1552,-14.933333333333334,-578.1333333333333,-405.3333333333333
1553,0.0,-584.5333333333333,-405.3333333333333
1554,-2.1333333333333333,-586.6666666666666,-411.73333333333335
1555,-4.266666666666667,-573.8666666666667,-407.46666666666664
1556,0.0,-573.8666666666667,-411.73333333333335
1557,-4.266666666666667,-565.3333333333334,-392.5333333333333
1558,-4.266666666666667,-567.4666666666667,-403.2
1559,-2.1333333333333333,-556.8,-390.4
1560,0.0,-558.9333333333333,-390.4
1561,0.0,-554.6666666666666,-386.1333333333333
1562,-6.4,-550.4,-381.8666666666667
1563,0.0,-548.2666666666667,-381.8666666666667
1564,4.266666666666667,-552.5333333333333,-375.46666666666664
1565,2.1333333333333333,-546.1333333333333,-386.1333333333333
1566,4.266666666666667,-541.8666666666667,-377.6
1567,2.1333333333333333,-537.6,-392.5333333333333
1568,2.1333333333333333,-541.8666666666667,-398.93333333333334
1569,0.0,-529.0666666666666,-411.73333333333335
1570,-2.1333333333333333,-524.8,-420.26666666666665
1571,0.0,-524.8,-418.1333333333333
1572,-6.4,-522.6666666666666,-422.4
1573,-2.1333333333333333,-526.9333333333333,-416.0
1574,-2.1333333333333333,-522.6666666666666,-418.1333333333333
1575,-4.266666666666667,-529.0666666666666,-407.46666666666664
1576,-8.533333333333333,-529.0666666666666,-407.46666666666664
1577,-6.4,-541.8666666666667,-396.8
1578,-6.4,-539.7333333333333,-392.5333333333333
1579,-21.333333333333332,-539.7333333333333,-390.4
1580,-12.8,-544.0,-390.4
1581,-21.333333333333332,-548.2666666666667,-379.73333333333335
1582,-17.066666666666666,-548.2666666666667,-379.73333333333335
1583,-17.066666666666666,-550.4,-384.0
1584,-19.2,-548.2666666666667,-386.1333333333333
1585,-12.8,-548.2666666666667,-384.0
1586,-14.933333333333334,-552.5333333333333,-386.1333333333333
1587,-2.1333333333333333,-546.1333333333333,-375.46666666666664
1588,-2.1333333333333333,-541.8666666666667,-371.2
1589,0.0,-544.0,-371.2
1590,-4.266666666666667,-533.3333333333334,-364.8
1591,-8.533333333333333,-535.4666666666667,-360.5333333333333
1592,-14.933333333333334,-524.8,-369.06666666666666
1593,-12.8,-524.8,-364.8
1594,-14.933333333333334,-516.2666666666667,-373.3333333333333
1595,-12.8,-514.1333333333333,-373.3333333333333
1596,-21.333333333333332,-507.73333333333335,-364.8
1597,-19.2,-507.73333333333335,-362.6666666666667
1598,0.0,-507.73333333333335,-362.6666666666667
1599,-2.1333333333333333,-507.73333333333335,-379.73333333333335
1600,0.0,-507.73333333333335,-375.46666666666664
1601,2.1333333333333333,-509.8666666666667,-356.26666666666665
1602,4.266666666666667,-512.0,-373.3333333333333
1603,6.4,-505.59999999999997,-375.46666666666664
1604,6.4,-501.3333333333333,-364.8
1605,6.4,-512.0,-371.2
1606,6.4,-509.8666666666667,-373.3333333333333
1607,0.0,-501.3333333333333,-362.6666666666667
1608,2.1333333333333333,-509.8666666666667,-366.93333333333334
1609,-4.266666666666667,-514.1333333333333,-358.4
1610,-4.266666666666667,-516.2666666666667,-354.1333333333333
1611,0.0,-516.2666666666667,-352.0
1612,0.0,-520.5333333333333,-347.73333333333335
1613,0.0,-520.5333333333333,-337.06666666666666
1614,0.0,-520.5333333333333,-339.2
1615,2.1333333333333333,-522.6666666666666,-341.3333333333333
1616,4.266666666666667,-522.6666666666666,-343.46666666666664
1617,0.0,-514.1333333333333,-339.2
1618,0.0,-516.2666666666667,-328.5333333333333
1619,-2.1333333333333333,-505.59999999999997,-332.8
1620,-19.2,-514.1333333333333,-337.06666666666666
1621,-12.8,-516.2666666666667,-326.4
1622,-8.533333333333333,-512.0,-330.6666666666667
1623,-4.266666666666667,-516.2666666666667,-332.8
1624,-12.8,-516.2666666666667,-334.93333333333334
1625,-10.666666666666666,-520.5333333333333,-339.2
1626,-8.533333333333333,-520.5333333333333,-337.06666666666666
1627,0.0,-548.2666666666667,-328.5333333333333
1628,-2.1333333333333333,-531.2,-345.6
1629,0.0,-537.6,-334.93333333333334
1630,4.266666666666667,-539.7333333333333,-322.1333333333333
1631,8.533333333333333,-541.8666666666667,-326.4
1632,2.1333333333333333,-537.6,-328.5333333333333
1633,8.533333333333333,-546.1333333333333,-315.73333333333335
1634,10.666666666666666,-537.6,-311.46666666666664
1635,17.066666666666666,-537.6,-311.46666666666664
1636,17.066666666666666,-524.8,-313.6
1637,14.933333333333334,-526.9333333333333,-309.3333333333333
1638,12.8,-501.3333333333333,-341.3333333333333
1639,6.4,-512.0,-302.93333333333334
1640,6.4,-507.73333333333335,-307.2
1641,4.266666666666667,-503.46666666666664,-311.46666666666664
1642,0.0,-505.59999999999997,-305.06666666666666
1643,-4.266666666666667,-501.3333333333333,-300.8
1644,-2.1333333333333333,-497.06666666666666,-309.3333333333333
1645,-12.8,-497.06666666666666,-298.6666666666667
1646,-4.266666666666667,-497.06666666666666,-292.26666666666665
1647,-2.1333333333333333,-499.2,-288.0
1648,-4.266666666666667,-494.93333333333334,-283.73333333333335
1649,-4.266666666666667,-494.93333333333334,-285.8666666666667
1650,2.1333333333333333,-494.93333333333334,-285.8666666666667
1651,4.266666666666667,-494.93333333333334,-279.46666666666664
1652,4.266666666666667,-494.93333333333334,-279.46666666666664
1653,4.266666666666667,-490.6666666666667,-277.3333333333333
1654,6.4,-497.06666666666666,-273.06666666666666
1655,2.1333333333333333,-492.8,-281.6
1656,2.1333333333333333,-490.6666666666667,-273.06666666666666
1657,4.266666666666667,-490.6666666666667,-270.93333333333334
1658,12.8,-484.26666666666665,-266.6666666666667
1659,10.666666666666666,-482.1333333333333,-264.5333333333333
1660,4.266666666666667,-488.5333333333333,-260.26666666666665
1661,12.8,-486.4,-264.5333333333333
1662,10.666666666666666,-488.5333333333333,-266.6666666666667
1663,19.2,-490.6666666666667,-273.06666666666666
1664,17.066666666666666,-499.2,-268.8
1665,21.333333333333332,-490.6666666666667,-264.5333333333333
1666,23.466666666666665,-499.2,-264.5333333333333
1667,23.466666666666665,-494.93333333333334,-268.8
1668,21.333333333333332,-499.2,-268.8
1669,29.866666666666667,-501.3333333333333,-270.93333333333334
1670,25.6,-507.73333333333335,-266.6666666666667
1671,25.6,-497.06666666666666,-266.6666666666667
1672,23.466666666666665,-503.46666666666664,-256.0
1673,27.733333333333334,-499.2,-258.1333333333333
1674,27.733333333333334,-497.06666666666666,-253.86666666666667
1675,25.6,-497.06666666666666,-251.73333333333332
1676,23.466666666666665,-494.93333333333334,-251.73333333333332
1677,14.933333333333334,-492.8,-247.46666666666667
1678,17.066666666666666,-490.6666666666667,-247.46666666666667
1679,25.6,-492.8,-241.06666666666666
1680,21.333333333333332,-494.93333333333334,-241.06666666666666
1681,23.466666666666665,-490.6666666666667,-230.4
1682,23.466666666666665,-486.4,-234.66666666666666
1683,21.333333333333332,-492.8,-228.26666666666665
1684,27.733333333333334,-488.5333333333333,-238.93333333333334
1685,29.866666666666667,-492.8,-230.4
1686,36.266666666666666,-488.5333333333333,-224.0
1687,36.266666666666666,-486.4,-228.26666666666665
1688,27.733333333333334,-486.4,-224.0
1689,29.866666666666667,-488.5333333333333,-228.26666666666665
1690,25.6,-486.4,-230.4
1691,25.6,-486.4,-221.86666666666667
1692,21.333333333333332,-480.0,-215.46666666666667
1693,27.733333333333334,-484.26666666666665,-213.33333333333334
1694,17.066666666666666,-477.8666666666667,-215.46666666666667
1695,19.2,-473.59999999999997,-211.2
1696,23.466666666666665,-469.3333333333333,-209.06666666666666
1697,21.333333333333332,-456.5333333333333,-202.66666666666666
1698,14.933333333333334,-452.26666666666665,-209.06666666666666
1699,17.066666666666666,-448.0,-200.53333333333333
1700,19.2,-441.59999999999997,-194.13333333333333
1701,17.066666666666666,-428.8,-202.66666666666666
1702,14.933333333333334,-426.6666666666667,-189.86666666666667
1703,23.466666666666665,-422.4,-192.0
1704,27.733333333333334,-420.26666666666665,-187.73333333333332
1705,21.333333333333332,-413.8666666666667,-179.2
1706,25.6,-422.4,-181.33333333333334
1707,29.866666666666667,-422.4,-183.46666666666667
1708,36.266666666666666,-428.8,-179.2
1709,32.0,-422.4,-177.06666666666666
1710,34.13333333333333,-422.4,-179.2
1711,34.13333333333333,-428.8,-177.06666666666666
1712,34.13333333333333,-424.5333333333333,-172.8
1713,34.13333333333333,-426.6666666666667,-172.8
1714,36.266666666666666,-426.6666666666667,-170.66666666666666
1715,29.866666666666667,-424.5333333333333,-179.2
1716,27.733333333333334,-424.5333333333333,-174.93333333333334
1717,32.0,-426.6666666666667,-183.46666666666667
1718,25.6,-413.8666666666667,-177.06666666666666
1719,34.13333333333333,-418.1333333333333,-170.66666666666666
1720,29.866666666666667,-418.1333333333333,-170.66666666666666
1721,29.866666666666667,-413.8666666666667,-168.53333333333333
1722,29.866666666666667,-411.73333333333335,-157.86666666666667
1723,29.866666666666667,-418.1333333333333,-155.73333333333332
1724,32.0,-413.8666666666667,-157.86666666666667
1725,27.733333333333334,-422.4,-140.8
1726,21.333333333333332,-430.93333333333334,-140.8
1727,29.866666666666667,-443.73333333333335,-132.26666666666665
1728,25.6,-456.5333333333333,-128.0
1729,27.733333333333334,-456.5333333333333,-134.4
1730,27.733333333333334,-482.1333333333333,-142.93333333333334
1731,25.6,-482.1333333333333,-125.86666666666666
1732,29.866666666666667,-488.5333333333333,-130.13333333333333
1733,38.4,-497.06666666666666,-134.4
1734,34.13333333333333,-505.59999999999997,-128.0
1735,34.13333333333333,-516.2666666666667,-134.4
1736,34.13333333333333,-522.6666666666666,-136.53333333333333
1737,34.13333333333333,-524.8,-140.8
1738,36.266666666666666,-524.8,-140.8
1739,40.53333333333333,-531.2,-145.06666666666666
1740,34.13333333333333,-522.6666666666666,-142.93333333333334
1741,34.13333333333333,-524.8,-151.46666666666667
1742,27.733333333333334,-516.2666666666667,-145.06666666666666
1743,23.466666666666665,-522.6666666666666,-142.93333333333334
1744,29.866666666666667,-526.9333333333333,-145.06666666666666
1745,12.8,-524.8,-134.4
1746,8.533333333333333,-518.4,-140.8
1747,4.266666666666667,-526.9333333333333,-138.66666666666666
1748,2.1333333333333333,-533.3333333333334,-138.66666666666666
1749,0.0,-526.9333333333333,-138.66666666666666
1750,0.0,-526.9333333333333,-130.13333333333333
1751,-4.266666666666667,-531.2,-130.13333333333333
1752,-2.1333333333333333,-533.3333333333334,-132.26666666666665
1753,-4.266666666666667,-535.4666666666667,-128.0
1754,-4.266666666666667,-533.3333333333334,-130.13333333333333
1755,-4.266666666666667,-526.9333333333333,-132.26666666666665
1756,0.0,-533.3333333333334,-134.4
1757,6.4,-529.0666666666666,-134.4
1758,4.266666666666667,-522.6666666666666,-136.53333333333333
1759,10.666666666666666,-520.5333333333333,-138.66666666666666
1760,8.533333333333333,-520.5333333333333,-134.4
1761,14.933333333333334,-524.8,-134.4
1762,14.933333333333334,-518.4,-130.13333333333333
1763,23.466666666666665,-514.1333333333333,-138.66666666666666
1764,25.6,-516.2666666666667,-132.26666666666665
1765,38.4,-520.5333333333333,-132.26666666666665
1766,38.4,-520.5333333333333,-132.26666666666665
1767,29.866666666666667,-518.4,-132.26666666666665
1768,38.4,-524.8,-121.6
1769,36.266666666666666,-529.0666666666666,-123.73333333333333
1770,36.266666666666666,-531.2,-123.73333333333333
1771,34.13333333333333,-531.2,-117.33333333333333
1772,32.0,-535.4666666666667,-119.46666666666667
1773,32.0,-524.8,-106.66666666666667
1774,25.6,-526.9333333333333,-110.93333333333334
1775,29.866666666666667,-533.3333333333334,-110.93333333333334
1776,23.466666666666665,-529.0666666666666,-117.33333333333333
1777,19.2,-524.8,-104.53333333333333
1778,17.066666666666666,-529.0666666666666,-102.4
1779,14.933333333333334,-529.0666666666666,-102.4
1780,8.533333333333333,-531.2,-98.13333333333333
1781,25.6,-535.4666666666667,-110.93333333333334
1782,17.066666666666666,-537.6,-98.13333333333333
1783,23.466666666666665,-537.6,-102.4
1784,23.466666666666665,-541.8666666666667,-102.4
1785,29.866666666666667,-546.1333333333333,-104.53333333333333
1786,27.733333333333334,-544.0,-102.4
1787,32.0,-550.4,-98.13333333333333
1788,36.266666666666666,-558.9333333333333,-96.0
1789,40.53333333333333,-556.8,-104.53333333333333
1790,40.53333333333333,-552.5333333333333,-102.4
1791,36.266666666666666,-548.2666666666667,-100.26666666666667
1792,32.0,-541.8666666666667,-115.2
1793,42.666666666666664,-548.2666666666667,-102.4
1794,36.266666666666666,-546.1333333333333,-108.8
1795,32.0,-546.1333333333333,-106.66666666666667
1796,38.4,-548.2666666666667,-108.8
1797,34.13333333333333,-546.1333333333333,-104.53333333333333
1798,29.866666666666667,-544.0,-108.8
1799,34.13333333333333,-548.2666666666667,-100.26666666666667
1800,40.53333333333333,-546.1333333333333,-102.4
1801,46.93333333333333,-573.8666666666667,-76.8
1802,44.8,-552.5333333333333,-113.06666666666666
1803,44.8,-567.4666666666667,-110.93333333333334
1804,49.06666666666666,-561.0666666666666,-113.06666666666666
1805,64.0,-563.2,-125.86666666666666
1806,61.86666666666667,-567.4666666666667,-115.2
1807,55.46666666666667,-561.0666666666666,-113.06666666666666
1808,64.0,-565.3333333333334,-113.06666666666666
1809,61.86666666666667,-561.0666666666666,-117.33333333333333
1810,70.4,-558.9333333333333,-115.2
1811,66.13333333333333,-561.0666666666666,-121.6
1812,61.86666666666667,-576.0,-100.26666666666667
1813,83.2,-563.2,-115.2
1814,78.93333333333334,-561.0666666666666,-110.93333333333334
1815,78.93333333333334,-561.0666666666666,-110.93333333333334
1816,85.33333333333333,-556.8,-102.4
1817,78.93333333333334,-561.0666666666666,-93.86666666666666
1818,81.06666666666666,-558.9333333333333,-93.86666666666666
1819,81.06666666666666,-556.8,-93.86666666666666
1820,83.2,-563.2,-102.4
1821,72.53333333333333,-552.5333333333333,-89.6
1822,78.93333333333334,-552.5333333333333,-83.2
1823,78.93333333333334,-552.5333333333333,-89.6
1824,72.53333333333333,-558.9333333333333,-83.2
1825,74.66666666666667,-565.3333333333334,-83.2
1826,66.13333333333333,-561.0666666666666,-87.46666666666667
1827,61.86666666666667,-563.2,-83.2
1828,59.733333333333334,-558.9333333333333,-85.33333333333333
1829,57.6,-561.0666666666666,-93.86666666666666
1830,57.6,-552.5333333333333,-85.33333333333333
1831,59.733333333333334,-552.5333333333333,-91.73333333333333
1832,61.86666666666667,-556.8,-78.93333333333334
1833,57.6,-556.8,-87.46666666666667
1834,57.6,-552.5333333333333,-93.86666666666666
1835,64.0,-546.1333333333333,-93.86666666666666
1836,61.86666666666667,-554.6666666666666,-106.66666666666667
1837,61.86666666666667,-548.2666666666667,-100.26666666666667
1838,70.4,-548.2666666666667,-100.26666666666667
1839,64.0,-552.5333333333333,-100.26666666666667
1840,68.26666666666667,-548.2666666666667,-93.86666666666666
1841,66.13333333333333,-548.2666666666667,-100.26666666666667
1842,59.733333333333334,-556.8,-102.4
1843,61.86666666666667,-546.1333333333333,-104.53333333333333
1844,57.6,-550.4,-102.4
1845,64.0,-558.9333333333333,-100.26666666666667
1846,68.26666666666667,-561.0666666666666,-100.26666666666667
1847,59.733333333333334,-554.6666666666666,-89.6
1848,64.0,-554.6666666666666,-93.86666666666666
1849,61.86666666666667,-548.2666666666667,-102.4
1850,59.733333333333334,-554.6666666666666,-98.13333333333333
1851,64.0,-556.8,-104.53333333333333
1852,68.26666666666667,-552.5333333333333,-98.13333333333333
1853,68.26666666666667,-554.6666666666666,-100.26666666666667
1854,61.86666666666667,-554.6666666666666,-100.26666666666667
1855,66.13333333333333,-554.6666666666666,-106.66666666666667
1856,59.733333333333334,-563.2,-98.13333333333333
1857,66.13333333333333,-558.9333333333333,-102.4
1858,64.0,-556.8,-102.4
1859,57.6,-558.9333333333333,-113.06666666666666
1860,59.733333333333334,-561.0666666666666,-106.66666666666667
1861,64.0,-567.4666666666667,-106.66666666666667
1862,59.733333333333334,-565.3333333333334,-100.26666666666667
1863,57.6,-563.2,-102.4
1864,66.13333333333333,-569.6,-100.26666666666667
1865,55.46666666666667,-565.3333333333334,-104.53333333333333
1866,51.2,-558.9333333333333,-102.4
1867,57.6,-561.0666666666666,-104.53333333333333
1868,53.333333333333336,-556.8,-102.4
1869,59.733333333333334,-556.8,-106.66666666666667
1870,57.6,-556.8,-93.86666666666666
1871,51.2,-561.0666666666666,-91.73333333333333
1872,57.6,-552.5333333333333,-98.13333333333333
1873,55.46666666666667,-558.9333333333333,-104.53333333333333
1874,57.6,-561.0666666666666,-93.86666666666666
1875,49.06666666666666,-561.0666666666666,-96.0
1876,57.6,-561.0666666666666,-93.86666666666666
1877,57.6,-569.6,-96.0
1878,55.46666666666667,-554.6666666666666,-98.13333333333333
1879,51.2,-563.2,-104.53333333333333
1880,51.2,-563.2,-100.26666666666667
1881,61.86666666666667,-561.0666666666666,-104.53333333333333
1882,55.46666666666667,-561.0666666666666,-102.4
1883,55.46666666666667,-561.0666666666666,-102.4
1884,57.6,-558.9333333333333,-104.53333333333333
1885,59.733333333333334,-561.0666666666666,-104.53333333333333
1886,59.733333333333334,-561.0666666666666,-96.0
1887,53.333333333333336,-552.5333333333333,-100.26666666666667
1888,53.333333333333336,-561.0666666666666,-110.93333333333334
1889,49.06666666666666,-563.2,-100.26666666666667
1890,57.6,-565.3333333333334,-104.53333333333333
1891,49.06666666666666,-563.2,-104.53333333333333
1892,57.6,-561.0666666666666,-98.13333333333333
1893,57.6,-556.8,-100.26666666666667
1894,61.86666666666667,-565.3333333333334,-98.13333333333333
1895,57.6,-563.2,-102.4
1896,53.333333333333336,-565.3333333333334,-98.13333333333333
1897,68.26666666666667,-565.3333333333334,-108.8
1898,61.86666666666667,-567.4666666666667,-96.0
1899,64.0,-563.2,-100.26666666666667
1900,57.6,-561.0666666666666,-104.53333333333333
1901,55.46666666666667,-558.9333333333333,-98.13333333333333
1902,59.733333333333334,-558.9333333333333,-100.26666666666667
1903,51.2,-558.9333333333333,-100.26666666666667
1904,53.333333333333336,-556.8,-102.4
1905,46.93333333333333,-561.0666666666666,-98.13333333333333
1906,49.06666666666666,-563.2,-91.73333333333333
1907,51.2,-554.6666666666666,-96.0
1908,44.8,-561.0666666666666,-98.13333333333333
1909,46.93333333333333,-565.3333333333334,-102.4
1910,42.666666666666664,-561.0666666666666,-100.26666666666667
1911,46.93333333333333,-556.8,-93.86666666666666
1912,49.06666666666666,-565.3333333333334,-93.86666666666666
1913,44.8,-558.9333333333333,-85.33333333333333
1914,42.666666666666664,-558.9333333333333,-96.0
1915,46.93333333333333,-565.3333333333334,-89.6
1916,44.8,-563.2,-91.73333333333333
1917,42.666666666666664,-554.6666666666666,-81.06666666666666
1918,49.06666666666666,-558.9333333333333,-91.73333333333333
1919,49.06666666666666,-561.0666666666666,-89.6
1920,53.333333333333336,-558.9333333333333,-91.73333333333333
1921,53.333333333333336,-565.3333333333334,-87.46666666666667
1922,46.93333333333333,-563.2,-85.33333333333333
1923,53.333333333333336,-558.9333333333333,-85.33333333333333
1924,57.6,-563.2,-93.86666666666666
1925,49.06666666666666,-558.9333333333333,-89.6
1926,46.93333333333333,-554.6666666666666,-100.26666666666667
1927,46.93333333333333,-558.9333333333333,-93.86666666666666
1928,46.93333333333333,-558.9333333333333,-93.86666666666666
1929,46.93333333333333,-561.0666666666666,-78.93333333333334
1930,53.333333333333336,-558.9333333333333,-96.0
1931,46.93333333333333,-552.5333333333333,-96.0
1932,49.06666666666666,-556.8,-98.13333333333333
1933,51.2,-563.2,-85.33333333333333
1934,51.2,-558.9333333333333,-81.06666666666666
1935,51.2,-561.0666666666666,-87.46666666666667
1936,51.2,-558.9333333333333,-91.73333333333333
1937,53.333333333333336,-561.0666666666666,-89.6
1938,55.46666666666667,-561.0666666666666,-87.46666666666667
1939,57.6,-556.8,-91.73333333333333
1940,55.46666666666667,-565.3333333333334,-87.46666666666667
1941,46.93333333333333,-561.0666666666666,-91.73333333333333
1942,49.06666666666666,-561.0666666666666,-87.46666666666667
1943,53.333333333333336,-558.9333333333333,-87.46666666666667
1944,57.6,-556.8,-85.33333333333333
1945,51.2,-563.2,-87.46666666666667
1946,55.46666666666667,-561.0666666666666,-83.2
1947,55.46666666666667,-550.4,-85.33333333333333
1948,61.86666666666667,-556.8,-78.93333333333334
1949,53.333333333333336,-556.8,-76.8
1950,53.333333333333336,-550.4,-81.06666666666666
1951,57.6,-550.4,-78.93333333333334
1952,55.46666666666667,-556.8,-66.13333333333333
1953,51.2,-556.8,-83.2
1954,53.333333333333336,-550.4,-72.53333333333333
1955,55.46666666666667,-552.5333333333333,-81.06666666666666
1956,57.6,-565.3333333333334,-83.2
1957,55.46666666666667,-558.9333333333333,-81.06666666666666
1958,64.0,-561.0666666666666,-85.33333333333333
1959,57.6,-552.5333333333333,-81.06666666666666
1960,51.2,-554.6666666666666,-89.6
1961,57.6,-558.9333333333333,-91.73333333333333
1962,49.06666666666666,-554.6666666666666,-85.33333333333333
1963,53.333333333333336,-558.9333333333333,-81.06666666666666
1964,61.86666666666667,-563.2,-96.0
1965,61.86666666666667,-558.9333333333333,-81.06666666666666
1966,61.86666666666667,-558.9333333333333,-91.73333333333333
1967,59.733333333333334,-558.9333333333333,-74.66666666666667
1968,66.13333333333333,-554.6666666666666,-85.33333333333333
1969,64.0,-546.1333333333333,-85.33333333333333
1970,57.6,-548.2666666666667,-76.8
1971,59.733333333333334,-556.8,-72.53333333333333
1972,59.733333333333334,-550.4,-81.06666666666666
1973,44.8,-550.4,-55.46666666666667
1974,68.26666666666667,-552.5333333333333,-78.93333333333334
1975,64.0,-561.0666666666666,-78.93333333333334
1976,55.46666666666667,-554.6666666666666,-83.2
1977,57.6,-556.8,-87.46666666666667
1978,59.733333333333334,-561.0666666666666,-83.2
1979,55.46666666666667,-554.6666666666666,-78.93333333333334
1980,57.6,-554.6666666666666,-74.66666666666667
1981,55.46666666666667,-561.0666666666666,-83.2
1982,55.46666666666667,-556.8,-85.33333333333333
1983,64.0,-554.6666666666666,-83.2
1984,53.333333333333336,-552.5333333333333,-72.53333333333333
1985,59.733333333333334,-556.8,-78.93333333333334
1986,59.733333333333334,-556.8,-76.8
1987,64.0,-554.6666666666666,-76.8
1988,61.86666666666667,-558.9333333333333,-81.06666666666666
1989,55.46666666666667,-552.5333333333333,-78.93333333333334
1990,57.6,-554.6666666666666,-78.93333333333334
1991,66.13333333333333,-552.5333333333333,-87.46666666666667
1992,57.6,-552.5333333333333,-72.53333333333333
1993,61.86666666666667,-556.8,-74.66666666666667
1994,61.86666666666667,-554.6666666666666,-76.8
1995,51.2,-567.4666666666667,-53.333333333333336
1996,55.46666666666667,-556.8,-83.2
1997,53.333333333333336,-554.6666666666666,-81.06666666666666
1998,59.733333333333334,-552.5333333333333,-78.93333333333334
1999,66.13333333333333,-556.8,-78.93333333333334
2000,59.733333333333334,-554.6666666666666,-76.8
2001,64.0,-552.5333333333333,-89.6
2002,64.0,-558.9333333333333,-78.93333333333334
2003,59.733333333333334,-561.0666666666666,-68.26666666666667
2004,61.86666666666667,-558.9333333333333,-78.93333333333334
2005,64.0,-556.8,-81.06666666666666
2006,61.86666666666667,-571.7333333333333,-78.93333333333334
2007,66.13333333333333,-561.0666666666666,-78.93333333333334
2008,59.733333333333334,-556.8,-78.93333333333334
2009,61.86666666666667,-558.9333333333333,-85.33333333333333
2010,61.86666666666667,-558.9333333333333,-76.8
2011,55.46666666666667,-558.9333333333333,-72.53333333333333
2012,55.46666666666667,-558.9333333333333,-76.8
2013,55.46666666666667,-561.0666666666666,-68.26666666666667
2014,59.733333333333334,-556.8,-70.4
2015,61.86666666666667,-558.9333333333333,-72.53333333333333
2016,59.733333333333334,-556.8,-72.53333333333333
2017,66.13333333333333,-561.0666666666666,-74.66666666666667
2018,59.733333333333334,-552.5333333333333,-83.2
2019,53.333333333333336,-550.4,-81.06666666666666
2020,57.6,-554.6666666666666,-78.93333333333334
2021,61.86666666666667,-554.6666666666666,-85.33333333333333
2022,64.0,-554.6666666666666,-85.33333333333333
2023,53.333333333333336,-552.5333333333333,-76.8
2024,66.13333333333333,-558.9333333333333,-76.8
2025,59.733333333333334,-558.9333333333333,-74.66666666666667
2026,55.46666666666667,-552.5333333333333,-87.46666666666667
2027,57.6,-561.0666666666666,-76.8
2028,59.733333333333334,-556.8,-91.73333333333333
2029,61.86666666666667,-561.0666666666666,-76.8
2030,53.333333333333336,-552.5333333333333,-78.93333333333334
2031,49.06666666666666,-556.8,-76.8
2032,55.46666666666667,-563.2,-72.53333333333333
2033,57.6,-558.9333333333333,-78.93333333333334
2034,53.333333333333336,-561.0666666666666,-72.53333333333333
2035,61.86666666666667,-565.3333333333334,-74.66666666666667
2036,53.333333333333336,-552.5333333333333,-72.53333333333333
2037,57.6,-556.8,-91.73333333333333
2038,59.733333333333334,-558.9333333333333,-83.2
2039,57.6,-563.2,-83.2
2040,64.0,-556.8,-85.33333333333333
2041,57.6,-558.9333333333333,-72.53333333333333
2042,57.6,-563.2,-74.66666666666667
2043,57.6,-554.6666666666666,-76.8
2044,53.333333333333336,-556.8,-68.26666666666667
2045,55.46666666666667,-558.9333333333333,-74.66666666666667
2046,59.733333333333334,-554.6666666666666,-81.06666666666666
2047,57.6,-556.8,-78.93333333333334
2048,55.46666666666667,-556.8,-74.66666666666667
2049,53.333333333333336,-558.9333333333333,-76.8
2050,53.333333333333336,-556.8,-74.66666666666667
2051,53.333333333333336,-558.9333333333333,-81.06666666666666
2052,49.06666666666666,-552.5333333333333,-78.93333333333334
2053,57.6,-558.9333333333333,-74.66666666666667
2054,51.2,-556.8,-85.33333333333333
2055,51.2,-554.6666666666666,-83.2
2056,55.46666666666667,-556.8,-76.8
2057,55.46666666666667,-554.6666666666666,-78.93333333333334
2058,57.6,-565.3333333333334,-72.53333333333333
2059,57.6,-554.6666666666666,-72.53333333333333
2060,59.733333333333334,-558.9333333333333,-74.66666666666667
2061,57.6,-554.6666666666666,-76.8
2062,57.6,-554.6666666666666,-87.46666666666667
2063,57.6,-558.9333333333333,-83.2
2064,57.6,-552.5333333333333,-78.93333333333334
2065,61.86666666666667,-552.5333333333333,-85.33333333333333
2066,57.6,-558.9333333333333,-85.33333333333333
2067,57.6,-556.8,-81.06666666666666
2068,55.46666666666667,-548.2666666666667,-78.93333333333334
2069,55.46666666666667,-558.9333333333333,-85.33333333333333
2070,55.46666666666667,-561.0666666666666,-76.8
2071,55.46666666666667,-552.5333333333333,-81.06666666666666
2072,59.733333333333334,-563.2,-78.93333333333334
2073,53.333333333333336,-554.6666666666666,-87.46666666666667
2074,57.6,-558.9333333333333,-81.06666666666666
2075,57.6,-556.8,-85.33333333333333
2076,57.6,-552.5333333333333,-87.46666666666667
2077,59.733333333333334,-554.6666666666666,-81.06666666666666
2078,61.86666666666667,-563.2,-89.6
2079,57.6,-558.9333333333333,-87.46666666666667
2080,59.733333333333334,-558.9333333333333,-87.46666666666667
2081,59.733333333333334,-558.9333333333333,-91.73333333333333
2082,55.46666666666667,-556.8,-89.6
2083,57.6,-558.9333333333333,-72.53333333333333
2084,57.6,-552.5333333333333,-68.26666666666667
2085,59.733333333333334,-556.8,-72.53333333333333
2086,57.6,-554.6666666666666,-81.06666666666666
2087,68.26666666666667,-556.8,-83.2
2088,68.26666666666667,-554.6666666666666,-74.66666666666667
2089,61.86666666666667,-556.8,-83.2
2090,61.86666666666667,-558.9333333333333,-78.93333333333334
2091,61.86666666666667,-554.6666666666666,-78.93333333333334
2092,51.2,-548.2666666666667,-70.4
2093,61.86666666666667,-556.8,-83.2
2094,64.0,-558.9333333333333,-72.53333333333333
2095,68.26666666666667,-556.8,-78.93333333333334
2096,61.86666666666667,-558.9333333333333,-72.53333333333333
2097,61.86666666666667,-558.9333333333333,-85.33333333333333
2098,61.86666666666667,-567.4666666666667,-87.46666666666667
2099,57.6,-561.0666666666666,-81.06666666666666
2100,61.86666666666667,-563.2,-85.33333333333333
2101,59.733333333333334,-558.9333333333333,-83.2
2102,57.6,-554.6666666666666,-81.06666666666666
2103,64.0,-552.5333333333333,-93.86666666666666
2104,66.13333333333333,-552.5333333333333,-85.33333333333333
2105,61.86666666666667,-552.5333333333333,-83.2
2106,64.0,-550.4,-81.06666666666666
2107,59.733333333333334,-548.2666666666667,-66.13333333333333
2108,68.26666666666667,-552.5333333333333,-72.53333333333333
2109,70.4,-561.0666666666666,-76.8
2110,64.0,-552.5333333333333,-74.66666666666667
2111,66.13333333333333,-550.4,-74.66666666666667
2112,64.0,-552.5333333333333,-74.66666666666667
2113,72.53333333333333,-558.9333333333333,-74.66666666666667
2114,66.13333333333333,-550.4,-85.33333333333333
2115,64.0,-558.9333333333333,-78.93333333333334
2116,70.4,-554.6666666666666,-78.93333333333334
2117,66.13333333333333,-558.9333333333333,-85.33333333333333
2118,64.0,-561.0666666666666,-81.06666666666666
2119,66.13333333333333,-556.8,-74.66666666666667
2120,64.0,-554.6666666666666,-81.06666666666666
2121,61.86666666666667,-561.0666666666666,-91.73333333333333
2122,66.13333333333333,-558.9333333333333,-76.8
2123,64.0,-558.9333333333333,-83.2
2124,59.733333333333334,-561.0666666666666,-78.93333333333334
2125,57.6,-558.9333333333333,-81.06666666666666
2126,66.13333333333333,-554.6666666666666,-81.06666666666666
2127,66.13333333333333,-556.8,-74.66666666666667
2128,61.86666666666667,-552.5333333333333,-83.2
2129,64.0,-561.0666666666666,-83.2
2130,68.26666666666667,-556.8,-81.06666666666666
2131,66.13333333333333,-554.6666666666666,-83.2
2132,59.733333333333334,-550.4,-81.06666666666666
2133,70.4,-558.9333333333333,-85.33333333333333
2134,70.4,-554.6666666666666,-76.8
2135,64.0,-552.5333333333333,-78.93333333333334
2136,61.86666666666667,-552.5333333333333,-83.2
2137,64.0,-554.6666666666666,-87.46666666666667
2138,64.0,-548.2666666666667,-81.06666666666666
2139,61.86666666666667,-550.4,-81.06666666666666
2140,66.13333333333333,-558.9333333333333,-87.46666666666667
2141,59.733333333333334,-548.2666666666667,-78.93333333333334
2142,70.4,-554.6666666666666,-74.66666666666667
2143,66.13333333333333,-556.8,-85.33333333333333
2144,74.66666666666667,-561.0666666666666,-76.8
2145,61.86666666666667,-558.9333333333333,-87.46666666666667
2146,64.0,-558.9333333333333,-78.93333333333334
2147,64.0,-552.5333333333333,-85.33333333333333
2148,68.26666666666667,-561.0666666666666,-83.2
2149,68.26666666666667,-561.0666666666666,-85.33333333333333
2150,68.26666666666667,-556.8,-76.8
2151,64.0,-554.6666666666666,-87.46666666666667
2152,70.4,-552.5333333333333,-76.8
2153,64.0,-556.8,-87.46666666666667
2154,68.26666666666667,-556.8,-89.6
2155,61.86666666666667,-556.8,-91.73333333333333
2156,66.13333333333333,-546.1333333333333,-91.73333333333333
2157,64.0,-554.6666666666666,-85.33333333333333
2158,64.0,-556.8,-83.2
2159,68.26666666666667,-556.8,-83.2
2160,61.86666666666667,-552.5333333333333,-81.06666666666666
2161,61.86666666666667,-548.2666666666667,-83.2
2162,64.0,-550.4,-81.06666666666666
2163,66.13333333333333,-550.4,-83.2
2164,66.13333333333333,-554.6666666666666,-83.2
2165,68.26666666666667,-552.5333333333333,-83.2
2166,66.13333333333333,-558.9333333333333,-87.46666666666667
2167,89.6,-546.1333333333333,-87.46666666666667
2168,61.86666666666667,-552.5333333333333,-87.46666666666667
2169,66.13333333333333,-552.5333333333333,-85.33333333333333
2170,61.86666666666667,-552.5333333333333,-76.8
2171,59.733333333333334,-556.8,-85.33333333333333
2172,72.53333333333333,-561.0666666666666,-85.33333333333333
2173,66.13333333333333,-561.0666666666666,-89.6
2174,61.86666666666667,-558.9333333333333,-76.8
2175,61.86666666666667,-554.6666666666666,-87.46666666666667
2176,66.13333333333333,-558.9333333333333,-85.33333333333333
2177,59.733333333333334,-558.9333333333333,-83.2
2178,59.733333333333334,-586.6666666666666,-100.26666666666667
2179,68.26666666666667,-561.0666666666666,-85.33333333333333
2180,64.0,-567.4666666666667,-89.6
2181,68.26666666666667,-561.0666666666666,-78.93333333333334
2182,66.13333333333333,-552.5333333333333,-89.6
2183,64.0,-563.2,-83.2
2184,59.733333333333334,-556.8,-93.86666666666666
2185,64.0,-550.4,-85.33333333333333
2186,59.733333333333334,-561.0666666666666,-76.8
2187,64.0,-561.0666666666666,-83.2
2188,53.333333333333336,-550.4,-87.46666666666667
2189,55.46666666666667,-558.9333333333333,-66.13333333333333
2190,59.733333333333334,-556.8,-76.8
2191,57.6,-561.0666666666666,-91.73333333333333
2192,64.0,-554.6666666666666,-78.93333333333334
2193,64.0,-561.0666666666666,-81.06666666666666
2194,59.733333333333334,-558.9333333333333,-91.73333333333333
2195,59.733333333333334,-561.0666666666666,-87.46666666666667
2196,64.0,-558.9333333333333,-83.2
2197,57.6,-552.5333333333333,-85.33333333333333
2198,59.733333333333334,-558.9333333333333,-89.6
2199,61.86666666666667,-556.8,-91.73333333333333
2200,61.86666666666667,-550.4,-76.8
2201,61.86666666666667,-554.6666666666666,-83.2
2202,61.86666666666667,-563.2,-81.06666666666666
2203,57.6,-556.8,-96.0
2204,66.13333333333333,-556.8,-85.33333333333333
2205,61.86666666666667,-554.6666666666666,-74.66666666666667
2206,59.733333333333334,-561.0666666666666,-93.86666666666666
2207,59.733333333333334,-556.8,-81.06666666666666
2208,61.86666666666667,-558.9333333333333,-91.73333333333333
2209,64.0,-556.8,-85.33333333333333
2210,68.26666666666667,-556.8,-87.46666666666667
2211,55.46666666666667,-558.9333333333333,-91.73333333333333
2212,49.06666666666666,-563.2,-87.46666666666667
2213,55.46666666666667,-552.5333333333333,-91.73333333333333
2214,59.733333333333334,-556.8,-87.46666666666667
2215,61.86666666666667,-558.9333333333333,-83.2
2216,61.86666666666667,-558.9333333333333,-96.0
2217,64.0,-565.3333333333334,-91.73333333333333
2218,57.6,-565.3333333333334,-89.6
2219,57.6,-561.0666666666666,-74.66666666666667
2220,57.6,-556.8,-89.6
2221,64.0,-554.6666666666666,-89.6
2222,64.0,-556.8,-85.33333333333333
2223,68.26666666666667,-558.9333333333333,-96.0
2224,59.733333333333334,-561.0666666666666,-87.46666666666667
2225,64.0,-546.1333333333333,-89.6
2226,68.26666666666667,-558.9333333333333,-91.73333333333333
2227,61.86666666666667,-561.0666666666666,-81.06666666666666
2228,66.13333333333333,-554.6666666666666,-89.6
2229,70.4,-552.5333333333333,-91.73333333333333
2230,59.733333333333334,-561.0666666666666,-81.06666666666666
2231,61.86666666666667,-556.8,-87.46666666666667
2232,57.6,-563.2,-83.2
2233,61.86666666666667,-565.3333333333334,-89.6
2234,57.6,-561.0666666666666,-91.73333333333333
2235,59.733333333333334,-565.3333333333334,-87.46666666666667
2236,59.733333333333334,-561.0666666666666,-98.13333333333333
2237,59.733333333333334,-558.9333333333333,-104.53333333333333
2238,61.86666666666667,-565.3333333333334,-98.13333333333333
2239,61.86666666666667,-558.9333333333333,-87.46666666666667
2240,59.733333333333334,-554.6666666666666,-93.86666666666666
2241,68.26666666666667,-565.3333333333334,-91.73333333333333
2242,64.0,-558.9333333333333,-87.46666666666667
2243,64.0,-558.9333333333333,-93.86666666666666
2244,61.86666666666667,-558.9333333333333,-78.93333333333334
2245,57.6,-552.5333333333333,-89.6
2246,64.0,-558.9333333333333,-85.33333333333333
2247,61.86666666666667,-558.9333333333333,-85.33333333333333
2248,66.13333333333333,-556.8,-81.06666666666666
2249,59.733333333333334,-554.6666666666666,-93.86666666666666
2250,66.13333333333333,-556.8,-78.93333333333334
2251,66.13333333333333,-552.5333333333333,-85.33333333333333
2252,64.0,-561.0666666666666,-91.73333333333333
2253,59.733333333333334,-556.8,-96.0
2254,61.86666666666667,-558.9333333333333,-89.6
2255,61.86666666666667,-561.0666666666666,-81.06666666666666
2256,64.0,-554.6666666666666,-87.46666666666667
2257,59.733333333333334,-556.8,-89.6
2258,64.0,-558.9333333333333,-93.86666666666666
2259,66.13333333333333,-567.4666666666667,-96.0
2260,57.6,-554.6666666666666,-98.13333333333333
2261,61.86666666666667,-556.8,-83.2
2262,57.6,-558.9333333333333,-89.6
2263,64.0,-558.9333333333333,-91.73333333333333
2264,61.86666666666667,-558.9333333333333,-91.73333333333333
2265,64.0,-556.8,-87.46666666666667
2266,64.0,-554.6666666666666,-87.46666666666667
2267,64.0,-552.5333333333333,-83.2
2268,64.0,-558.9333333333333,-93.86666666666666
2269,64.0,-556.8,-85.33333333333333
2270,64.0,-556.8,-87.46666666666667
2271,66.13333333333333,-554.6666666666666,-91.73333333333333
2272,66.13333333333333,-556.8,-81.06666666666666
2273,70.4,-556.8,-91.73333333333333
2274,64.0,-556.8,-89.6
2275,64.0,-554.6666666666666,-81.06666666666666
2276,66.13333333333333,-554.6666666666666,-78.93333333333334
2277,66.13333333333333,-554.6666666666666,-85.33333333333333
2278,66.13333333333333,-550.4,-74.66666666666667
2279,66.13333333333333,-554.6666666666666,-78.93333333333334
2280,68.26666666666667,-556.8,-89.6
2281,64.0,-554.6666666666666,-83.2
2282,64.0,-561.0666666666666,-85.33333333333333
2283,57.6,-556.8,-89.6
2284,68.26666666666667,-565.3333333333334,-93.86666666666666
2285,57.6,-558.9333333333333,-93.86666666666666
2286,68.26666666666667,-554.6666666666666,-89.6
2287,61.86666666666667,-561.0666666666666,-87.46666666666667
2288,64.0,-558.9333333333333,-91.73333333333333
2289,66.13333333333333,-556.8,-87.46666666666667
2290,57.6,-550.4,-87.46666666666667
2291,64.0,-556.8,-78.93333333333334
2292,68.26666666666667,-556.8,-87.46666666666667
2293,66.13333333333333,-558.9333333333333,-87.46666666666667
2294,61.86666666666667,-552.5333333333333,-81.06666666666666
2295,66.13333333333333,-558.9333333333333,-83.2
2296,66.13333333333333,-563.2,-87.46666666666667
2297,59.733333333333334,-558.9333333333333,-85.33333333333333
2298,66.13333333333333,-554.6666666666666,-89.6
2299,68.26666666666667,-563.2,-87.46666666666667
2300,66.13333333333333,-554.6666666666666,-87.46666666666667
2301,64.0,-558.9333333333333,-91.73333333333333
2302,61.86666666666667,-556.8,-83.2
2303,59.733333333333334,-561.0666666666666,-89.6
2304,68.26666666666667,-567.4666666666667,-91.73333333333333
2305,61.86666666666667,-561.0666666666666,-91.73333333333333
2306,61.86666666666667,-561.0666666666666,-83.2
2307,59.733333333333334,-556.8,-96.0
2308,66.13333333333333,-558.9333333333333,-83.2
2309,66.13333333333333,-554.6666666666666,-100.26666666666667
2310,64.0,-556.8,-83.2
2311,61.86666666666667,-556.8,-91.73333333333333
2312,64.0,-556.8,-78.93333333333334
2313,64.0,-554.6666666666666,-83.2
2314,66.13333333333333,-567.4666666666667,-85.33333333333333
2315,68.26666666666667,-558.9333333333333,-85.33333333333333
2316,61.86666666666667,-552.5333333333333,-83.2
2317,59.733333333333334,-554.6666666666666,-81.06666666666666
2318,57.6,-556.8,-85.33333333333333
2319,59.733333333333334,-558.9333333333333,-89.6
2320,64.0,-558.9333333333333,-89.6
2321,57.6,-556.8,-87.46666666666667
2322,70.4,-554.6666666666666,-83.2
2323,61.86666666666667,-554.6666666666666,-85.33333333333333
2324,57.6,-556.8,-83.2
2325,55.46666666666667,-550.4,-89.6
2326,61.86666666666667,-554.6666666666666,-87.46666666666667
2327,61.86666666666667,-554.6666666666666,-85.33333333333333
2328,61.86666666666667,-548.2666666666667,-93.86666666666666
2329,68.26666666666667,-563.2,-83.2
2330,57.6,-554.6666666666666,-87.46666666666667
2331,61.86666666666667,-554.6666666666666,-78.93333333333334
2332,57.6,-552.5333333333333,-89.6
2333,66.13333333333333,-558.9333333333333,-83.2
2334,61.86666666666667,-561.0666666666666,-89.6
2335,55.46666666666667,-556.8,-89.6
2336,53.333333333333336,-550.4,-93.86666666666666
2337,57.6,-558.9333333333333,-87.46666666666667
2338,55.46666666666667,-554.6666666666666,-83.2
2339,83.2,-539.7333333333333,-93.86666666666666
2340,59.733333333333334,-550.4,-85.33333333333333
2341,59.733333333333334,-552.5333333333333,-76.8
2342,66.13333333333333,-565.3333333333334,-85.33333333333333
2343,55.46666666666667,-556.8,-93.86666666666666
2344,59.733333333333334,-554.6666666666666,-85.33333333333333
2345,59.733333333333334,-561.0666666666666,-78.93333333333334
2346,55.46666666666667,-558.9333333333333,-87.46666666666667
2347,61.86666666666667,-563.2,-81.06666666666666
2348,55.46666666666667,-563.2,-78.93333333333334
2349,64.0,-563.2,-83.2
2350,78.93333333333334,-516.2666666666667,-68.26666666666667
2351,59.733333333333334,-565.3333333333334,-78.93333333333334
2352,55.46666666666667,-558.9333333333333,-87.46666666666667
2353,55.46666666666667,-552.5333333333333,-83.2
2354,57.6,-554.6666666666666,-78.93333333333334
2355,61.86666666666667,-554.6666666666666,-78.93333333333334
2356,59.733333333333334,-548.2666666666667,-87.46666666666667
2357,61.86666666666667,-552.5333333333333,-81.06666666666666
2358,66.13333333333333,-561.0666666666666,-74.66666666666667
2359,64.0,-558.9333333333333,-85.33333333333333
2360,57.6,-561.0666666666666,-81.06666666666666
2361,57.6,-561.0666666666666,-66.13333333333333
2362,57.6,-565.3333333333334,-83.2
2363,64.0,-565.3333333333334,-81.06666666666666
2364,55.46666666666667,-561.0666666666666,-85.33333333333333
2365,64.0,-558.9333333333333,-91.73333333333333
2366,55.46666666666667,-563.2,-83.2
2367,53.333333333333336,-556.8,-96.0
2368,59.733333333333334,-556.8,-91.73333333333333
2369,53.333333333333336,-556.8,-93.86666666666666
2370,55.46666666666667,-556.8,-100.26666666666667
2371,61.86666666666667,-556.8,-85.33333333333333
2372,61.86666666666667,-561.0666666666666,-85.33333333333333
2373,64.0,-561.0666666666666,-87.46666666666667
2374,59.733333333333334,-556.8,-85.33333333333333
2375,64.0,-558.9333333333333,-91.73333333333333
2376,57.6,-558.9333333333333,-81.06666666666666
2377,64.0,-556.8,-87.46666666666667
2378,61.86666666666667,-554.6666666666666,-85.33333333333333
2379,61.86666666666667,-552.5333333333333,-78.93333333333334
2380,59.733333333333334,-550.4,-81.06666666666666
2381,55.46666666666667,-554.6666666666666,-78.93333333333334
2382,59.733333333333334,-565.3333333333334,-91.73333333333333
2383,64.0,-561.0666666666666,-76.8
2384,61.86666666666667,-554.6666666666666,-81.06666666666666
2385,57.6,-558.9333333333333,-89.6
2386,61.86666666666667,-563.2,-83.2
2387,61.86666666666667,-561.0666666666666,-78.93333333333334
2388,66.13333333333333,-567.4666666666667,-91.73333333333333
2389,59.733333333333334,-552.5333333333333,-91.73333333333333
2390,61.86666666666667,-561.0666666666666,-85.33333333333333
2391,55.46666666666667,-561.0666666666666,-76.8
2392,64.0,-563.2,-87.46666666666667
2393,61.86666666666667,-556.8,-81.06666666666666
2394,61.86666666666667,-554.6666666666666,-83.2
2395,64.0,-552.5333333333333,-87.46666666666667
2396,64.0,-554.6666666666666,-72.53333333333333
2397,59.733333333333334,-556.8,-76.8
2398,61.86666666666667,-561.0666666666666,-83.2
2399,51.2,-550.4,-78.93333333333334
