,accelerometerAccelerationX(G),accelerometerAccelerationY(G),accelerometerAccelerationZ(G)
0,40.53333333333333,-539.7333333333333,-102.4
1,49.06666666666666,-541.8666666666667,-104.53333333333333
2,40.53333333333333,-539.7333333333333,-104.53333333333333
3,42.666666666666664,-537.6,-102.4
4,49.06666666666666,-535.4666666666667,-104.53333333333333
5,40.53333333333333,-552.5333333333333,-104.53333333333333
6,44.8,-531.2,-108.8
7,38.4,-533.3333333333334,-106.66666666666667
8,44.8,-533.3333333333334,-108.8
9,44.8,-535.4666666666667,-104.53333333333333
10,40.53333333333333,-531.2,-106.66666666666667
11,42.666666666666664,-537.6,-110.93333333333334
12,42.666666666666664,-531.2,-108.8
13,44.8,-539.7333333333333,-108.8
14,42.666666666666664,-531.2,-98.13333333333333
15,40.53333333333333,-537.6,-98.13333333333333
16,40.53333333333333,-539.7333333333333,-104.53333333333333
17,42.666666666666664,-537.6,-104.53333333333333
18,42.666666666666664,-539.7333333333333,-93.86666666666666
19,40.53333333333333,-537.6,-108.8
20,40.53333333333333,-535.4666666666667,-108.8
21,46.93333333333333,-544.0,-108.8
22,40.53333333333333,-537.6,-102.4
23,38.4,-531.2,-113.06666666666666
24,34.13333333333333,-535.4666666666667,-113.06666666666666
25,42.666666666666664,-539.7333333333333,-104.53333333333333
26,49.06666666666666,-535.4666666666667,-100.26666666666667
27,40.53333333333333,-541.8666666666667,-110.93333333333334
28,38.4,-537.6,-104.53333333333333
29,49.06666666666666,-544.0,-115.2
30,42.666666666666664,-541.8666666666667,-100.26666666666667
31,44.8,-537.6,-100.26666666666667
32,42.666666666666664,-541.8666666666667,-102.4
33,32.0,-541.8666666666667,-106.66666666666667
34,40.53333333333333,-539.7333333333333,-104.53333333333333
35,36.266666666666666,-531.2,-100.26666666666667
36,42.666666666666664,-537.6,-108.8
37,46.93333333333333,-539.7333333333333,-108.8
38,40.53333333333333,-535.4666666666667,-100.26666666666667
39,46.93333333333333,-533.3333333333334,-104.53333333333333
40,34.13333333333333,-531.2,-108.8
41,38.4,-539.7333333333333,-106.66666666666667
42,44.8,-537.6,-108.8
43,40.53333333333333,-539.7333333333333,-110.93333333333334
44,42.666666666666664,-546.1333333333333,-108.8
45,40.53333333333333,-548.2666666666667,-96.0
46,44.8,-541.8666666666667,-106.66666666666667
47,44.8,-539.7333333333333,-104.53333333333333
48,51.2,-537.6,-110.93333333333334
49,46.93333333333333,-535.4666666666667,-93.86666666666666
50,40.53333333333333,-533.3333333333334,-104.53333333333333
51,42.666666666666664,-535.4666666666667,-110.93333333333334
52,42.666666666666664,-537.6,-104.53333333333333
53,40.53333333333333,-533.3333333333334,-104.53333333333333
54,40.53333333333333,-531.2,-110.93333333333334
55,42.666666666666664,-537.6,-108.8
56,40.53333333333333,-541.8666666666667,-100.26666666666667
57,46.93333333333333,-537.6,-108.8
58,46.93333333333333,-546.1333333333333,-98.13333333333333
59,40.53333333333333,-535.4666666666667,-106.66666666666667
60,42.666666666666664,-535.4666666666667,-113.06666666666666
61,46.93333333333333,-544.0,-104.53333333333333
62,42.666666666666664,-541.8666666666667,-102.4
63,44.8,-539.7333333333333,-106.66666666666667
64,42.666666666666664,-535.4666666666667,-106.66666666666667
65,44.8,-535.4666666666667,-110.93333333333334
66,40.53333333333333,-535.4666666666667,-110.93333333333334
67,42.666666666666664,-533.3333333333334,-102.4
68,42.666666666666664,-533.3333333333334,-110.93333333333334
69,40.53333333333333,-541.8666666666667,-108.8
70,32.0,-537.6,-106.66666666666667
71,42.666666666666664,-537.6,-106.66666666666667
72,40.53333333333333,-531.2,-113.06666666666666
73,44.8,-541.8666666666667,-113.06666666666666
74,42.666666666666664,-539.7333333333333,-106.66666666666667
75,40.53333333333333,-537.6,-106.66666666666667
76,44.8,-537.6,-110.93333333333334
77,46.93333333333333,-535.4666666666667,-102.4
78,40.53333333333333,-541.8666666666667,-104.53333333333333
79,49.06666666666666,-539.7333333333333,-110.93333333333334
80,42.666666666666664,-537.6,-104.53333333333333
81,44.8,-531.2,-106.66666666666667
82,42.666666666666664,-537.6,-104.53333333333333
83,38.4,-535.4666666666667,-108.8
84,42.666666666666664,-535.4666666666667,-110.93333333333334
85,42.666666666666664,-541.8666666666667,-108.8
86,44.8,-541.8666666666667,-106.66666666666667
87,44.8,-541.8666666666667,-98.13333333333333
88,42.666666666666664,-537.6,-110.93333333333334
89,44.8,-537.6,-106.66666666666667
90,46.93333333333333,-537.6,-110.93333333333334
91,46.93333333333333,-537.6,-108.8
92,49.06666666666666,-526.9333333333333,-96.0
93,40.53333333333333,-537.6,-117.33333333333333
94,46.93333333333333,-539.7333333333333,-110.93333333333334
95,46.93333333333333,-533.3333333333334,-113.06666666666666
96,38.4,-529.0666666666666,-102.4
97,42.666666666666664,-535.4666666666667,-100.26666666666667
98,46.93333333333333,-533.3333333333334,-110.93333333333334
99,42.666666666666664,-537.6,-104.53333333333333
100,49.06666666666666,-537.6,-102.4
101,40.53333333333333,-535.4666666666667,-100.26666666666667
102,38.4,-539.7333333333333,-98.13333333333333
103,49.06666666666666,-544.0,-113.06666666666666
104,42.666666666666664,-537.6,-106.66666666666667
105,38.4,-535.4666666666667,-104.53333333333333
106,42.666666666666664,-539.7333333333333,-104.53333333333333
107,42.666666666666664,-537.6,-106.66666666666667
108,38.4,-539.7333333333333,-110.93333333333334
109,46.93333333333333,-541.8666666666667,-115.2
110,36.266666666666666,-529.0666666666666,-113.06666666666666
111,38.4,-533.3333333333334,-104.53333333333333
112,32.0,-537.6,-104.53333333333333
113,44.8,-537.6,-108.8
114,46.93333333333333,-544.0,-106.66666666666667
115,44.8,-539.7333333333333,-113.06666666666666
116,42.666666666666664,-537.6,-108.8
117,36.266666666666666,-537.6,-104.53333333333333
118,40.53333333333333,-537.6,-98.13333333333333
119,42.666666666666664,-544.0,-100.26666666666667
120,36.266666666666666,-539.7333333333333,-104.53333333333333
121,38.4,-537.6,-115.2
122,46.93333333333333,-541.8666666666667,-108.8
123,36.266666666666666,-548.2666666666667,-108.8
124,42.666666666666664,-541.8666666666667,-113.06666666666666
125,49.06666666666666,-539.7333333333333,-110.93333333333334
126,44.8,-546.1333333333333,-115.2
127,40.53333333333333,-541.8666666666667,-113.06666666666666
128,46.93333333333333,-541.8666666666667,-106.66666666666667
129,38.4,-535.4666666666667,-117.33333333333333
130,44.8,-541.8666666666667,-113.06666666666666
131,49.06666666666666,-539.7333333333333,-98.13333333333333
132,44.8,-546.1333333333333,-115.2
133,44.8,-541.8666666666667,-108.8
134,46.93333333333333,-537.6,-108.8
135,49.06666666666666,-535.4666666666667,-110.93333333333334
136,38.4,-541.8666666666667,-106.66666666666667
137,36.266666666666666,-533.3333333333334,-117.33333333333333
138,42.666666666666664,-539.7333333333333,-115.2
139,44.8,-539.7333333333333,-110.93333333333334
140,44.8,-537.6,-110.93333333333334
141,40.53333333333333,-537.6,-117.33333333333333
142,40.53333333333333,-533.3333333333334,-119.46666666666667
143,46.93333333333333,-533.3333333333334,-119.46666666666667
144,42.666666666666664,-535.4666666666667,-106.66666666666667
145,44.8,-533.3333333333334,-113.06666666666666
146,38.4,-539.7333333333333,-110.93333333333334
147,40.53333333333333,-541.8666666666667,-115.2
148,40.53333333333333,-541.8666666666667,-110.93333333333334
149,44.8,-539.7333333333333,-113.06666666666666
150,46.93333333333333,-541.8666666666667,-113.06666666666666
151,38.4,-539.7333333333333,-110.93333333333334
152,42.666666666666664,-539.7333333333333,-106.66666666666667
153,42.666666666666664,-535.4666666666667,-110.93333333333334
154,38.4,-533.3333333333334,-113.06666666666666
155,40.53333333333333,-537.6,-119.46666666666667
156,44.8,-531.2,-115.2
157,38.4,-529.0666666666666,-115.2
158,44.8,-533.3333333333334,-106.66666666666667
159,42.666666666666664,-531.2,-108.8
160,44.8,-535.4666666666667,-110.93333333333334
161,49.06666666666666,-535.4666666666667,-106.66666666666667
162,40.53333333333333,-537.6,-110.93333333333334
163,42.666666666666664,-535.4666666666667,-102.4
164,42.666666666666664,-539.7333333333333,-96.0
165,42.666666666666664,-537.6,-102.4
166,49.06666666666666,-544.0,-110.93333333333334
167,49.06666666666666,-544.0,-106.66666666666667
168,38.4,-537.6,-115.2
169,42.666666666666664,-533.3333333333334,-106.66666666666667
170,38.4,-541.8666666666667,-102.4
171,44.8,-537.6,-106.66666666666667
172,44.8,-535.4666666666667,-119.46666666666667
173,38.4,-533.3333333333334,-115.2
174,40.53333333333333,-537.6,-113.06666666666666
175,44.8,-529.0666666666666,-117.33333333333333
176,42.666666666666664,-533.3333333333334,-115.2
177,40.53333333333333,-537.6,-108.8
178,42.666666666666664,-537.6,-113.06666666666666
179,38.4,-537.6,-106.66666666666667
180,42.666666666666664,-537.6,-115.2
181,38.4,-541.8666666666667,-115.2
182,44.8,-550.4,-108.8
183,40.53333333333333,-539.7333333333333,-113.06666666666666
184,49.06666666666666,-546.1333333333333,-106.66666666666667
185,40.53333333333333,-544.0,-106.66666666666667
186,44.8,-541.8666666666667,-106.66666666666667
187,42.666666666666664,-539.7333333333333,-115.2
188,40.53333333333333,-544.0,-110.93333333333334
189,40.53333333333333,-539.7333333333333,-108.8
190,44.8,-546.1333333333333,-104.53333333333333
191,38.4,-537.6,-113.06666666666666
192,40.53333333333333,-537.6,-115.2
193,40.53333333333333,-537.6,-115.2
194,40.53333333333333,-533.3333333333334,-125.86666666666666
195,42.666666666666664,-537.6,-115.2
196,42.666666666666664,-533.3333333333334,-110.93333333333334
197,44.8,-541.8666666666667,-106.66666666666667
198,40.53333333333333,-531.2,-117.33333333333333
199,38.4,-539.7333333333333,-104.53333333333333
200,36.266666666666666,-529.0666666666666,-108.8
201,53.333333333333336,-539.7333333333333,-91.73333333333333
202,44.8,-533.3333333333334,-113.06666666666666
203,38.4,-529.0666666666666,-102.4
204,42.666666666666664,-533.3333333333334,-113.06666666666666
205,49.06666666666666,-533.3333333333334,-108.8
206,40.53333333333333,-537.6,-104.53333333333333
207,40.53333333333333,-537.6,-108.8
208,38.4,-535.4666666666667,-104.53333333333333
209,49.06666666666666,-537.6,-110.93333333333334
210,44.8,-537.6,-119.46666666666667
211,44.8,-535.4666666666667,-119.46666666666667
212,40.53333333333333,-537.6,-102.4
213,44.8,-537.6,-108.8
214,51.2,-539.7333333333333,-115.2
215,38.4,-535.4666666666667,-115.2
216,42.666666666666664,-541.8666666666667,-110.93333333333334
217,42.666666666666664,-539.7333333333333,-117.33333333333333
218,44.8,-546.1333333333333,-113.06666666666666
219,44.8,-539.7333333333333,-119.46666666666667
220,42.666666666666664,-535.4666666666667,-108.8
221,44.8,-539.7333333333333,-110.93333333333334
222,34.13333333333333,-550.4,-110.93333333333334
223,42.666666666666664,-546.1333333333333,-106.66666666666667
224,42.666666666666664,-544.0,-113.06666666666666
225,46.93333333333333,-548.2666666666667,-110.93333333333334
226,40.53333333333333,-539.7333333333333,-119.46666666666667
227,42.666666666666664,-541.8666666666667,-113.06666666666666
228,40.53333333333333,-535.4666666666667,-115.2
229,38.4,-539.7333333333333,-115.2
230,40.53333333333333,-539.7333333333333,-119.46666666666667
231,44.8,-539.7333333333333,-119.46666666666667
232,42.666666666666664,-544.0,-117.33333333333333
233,42.666666666666664,-541.8666666666667,-115.2
234,42.666666666666664,-541.8666666666667,-110.93333333333334
235,40.53333333333333,-537.6,-110.93333333333334
236,34.13333333333333,-544.0,-106.66666666666667
237,38.4,-539.7333333333333,-108.8
238,42.666666666666664,-544.0,-106.66666666666667
239,46.93333333333333,-546.1333333333333,-110.93333333333334
240,38.4,-539.7333333333333,-113.06666666666666
241,44.8,-541.8666666666667,-113.06666666666666
242,46.93333333333333,-544.0,-117.33333333333333
243,42.666666666666664,-544.0,-113.06666666666666
244,42.666666666666664,-544.0,-106.66666666666667
245,36.266666666666666,-537.6,-119.46666666666667
246,40.53333333333333,-539.7333333333333,-119.46666666666667
247,42.666666666666664,-537.6,-113.06666666666666
248,46.93333333333333,-541.8666666666667,-119.46666666666667
249,42.666666666666664,-548.2666666666667,-119.46666666666667
250,44.8,-541.8666666666667,-117.33333333333333
251,42.666666666666664,-548.2666666666667,-113.06666666666666
252,42.666666666666664,-546.1333333333333,-117.33333333333333
253,49.06666666666666,-541.8666666666667,-115.2
254,44.8,-541.8666666666667,-117.33333333333333
255,46.93333333333333,-544.0,-104.53333333333333
256,42.666666666666664,-539.7333333333333,-113.06666666666666
257,51.2,-537.6,-117.33333333333333
258,49.06666666666666,-537.6,-106.66666666666667
259,46.93333333333333,-533.3333333333334,-115.2
260,46.93333333333333,-535.4666666666667,-106.66666666666667
261,38.4,-535.4666666666667,-104.53333333333333
262,49.06666666666666,-535.4666666666667,-117.33333333333333
263,46.93333333333333,-535.4666666666667,-106.66666666666667
264,49.06666666666666,-533.3333333333334,-98.13333333333333
265,46.93333333333333,-533.3333333333334,-102.4
266,46.93333333333333,-533.3333333333334,-89.6
267,44.8,-535.4666666666667,-102.4
268,46.93333333333333,-533.3333333333334,-110.93333333333334
269,40.53333333333333,-526.9333333333333,-102.4
270,42.666666666666664,-531.2,-100.26666666666667
271,46.93333333333333,-529.0666666666666,-104.53333333333333
272,38.4,-524.8,-102.4
273,49.06666666666666,-522.6666666666666,-110.93333333333334
274,40.53333333333333,-524.8,-104.53333333333333
275,42.666666666666664,-531.2,-104.53333333333333
276,40.53333333333333,-524.8,-108.8
277,40.53333333333333,-531.2,-106.66666666666667
278,40.53333333333333,-531.2,-102.4
279,42.666666666666664,-529.0666666666666,-115.2
280,36.266666666666666,-535.4666666666667,-100.26666666666667
281,36.266666666666666,-533.3333333333334,-108.8
282,42.666666666666664,-541.8666666666667,-110.93333333333334
283,40.53333333333333,-541.8666666666667,-110.93333333333334
284,36.266666666666666,-541.8666666666667,-106.66666666666667
285,46.93333333333333,-546.1333333333333,-110.93333333333334
286,42.666666666666664,-548.2666666666667,-100.26666666666667
287,38.4,-539.7333333333333,-108.8
288,42.666666666666664,-548.2666666666667,-108.8
289,44.8,-544.0,-104.53333333333333
290,44.8,-548.2666666666667,-104.53333333333333
291,44.8,-552.5333333333333,-119.46666666666667
292,40.53333333333333,-546.1333333333333,-106.66666666666667
293,40.53333333333333,-539.7333333333333,-115.2
294,42.666666666666664,-550.4,-110.93333333333334
295,49.06666666666666,-544.0,-113.06666666666666
296,46.93333333333333,-537.6,-113.06666666666666
297,44.8,-539.7333333333333,-108.8
298,44.8,-535.4666666666667,-106.66666666666667
299,44.8,-535.4666666666667,-113.06666666666666
300,46.93333333333333,-539.7333333333333,-108.8
301,49.06666666666666,-537.6,-110.93333333333334
302,51.2,-533.3333333333334,-102.4
303,49.06666666666666,-535.4666666666667,-106.66666666666667
304,51.2,-533.3333333333334,-108.8
305,51.2,-537.6,-108.8
306,46.93333333333333,-529.0666666666666,-96.0
307,49.06666666666666,-533.3333333333334,-108.8
308,40.53333333333333,-531.2,-100.26666666666667
309,44.8,-531.2,-89.6
310,40.53333333333333,-533.3333333333334,-108.8
311,40.53333333333333,-533.3333333333334,-93.86666666666666
312,40.53333333333333,-537.6,-106.66666666666667
313,46.93333333333333,-535.4666666666667,-100.26666666666667
314,40.53333333333333,-531.2,-106.66666666666667
315,38.4,-533.3333333333334,-91.73333333333333
316,38.4,-531.2,-102.4
317,40.53333333333333,-535.4666666666667,-96.0
318,44.8,-537.6,-91.73333333333333
319,44.8,-533.3333333333334,-108.8
320,42.666666666666664,-535.4666666666667,-104.53333333333333
321,36.266666666666666,-537.6,-100.26666666666667
322,40.53333333333333,-539.7333333333333,-104.53333333333333
323,42.666666666666664,-544.0,-100.26666666666667
324,32.0,-544.0,-104.53333333333333
325,36.266666666666666,-541.8666666666667,-98.13333333333333
326,40.53333333333333,-537.6,-106.66666666666667
327,38.4,-544.0,-108.8
328,36.266666666666666,-544.0,-106.66666666666667
329,42.666666666666664,-546.1333333333333,-108.8
330,42.666666666666664,-533.3333333333334,-113.06666666666666
331,40.53333333333333,-533.3333333333334,-100.26666666666667
332,36.266666666666666,-537.6,-115.2
333,44.8,-544.0,-115.2
334,42.666666666666664,-544.0,-115.2
335,44.8,-544.0,-110.93333333333334
336,46.93333333333333,-539.7333333333333,-108.8
337,38.4,-535.4666666666667,-106.66666666666667
338,49.06666666666666,-539.7333333333333,-110.93333333333334
339,40.53333333333333,-535.4666666666667,-106.66666666666667
340,46.93333333333333,-546.1333333333333,-117.33333333333333
341,46.93333333333333,-544.0,-117.33333333333333
342,40.53333333333333,-544.0,-119.46666666666667
343,46.93333333333333,-541.8666666666667,-121.6
344,46.93333333333333,-544.0,-115.2
345,49.06666666666666,-546.1333333333333,-119.46666666666667
346,46.93333333333333,-554.6666666666666,-119.46666666666667
347,44.8,-552.5333333333333,-115.2
348,49.06666666666666,-552.5333333333333,-113.06666666666666
349,44.8,-548.2666666666667,-117.33333333333333
350,46.93333333333333,-554.6666666666666,-123.73333333333333
351,44.8,-550.4,-115.2
352,44.8,-548.2666666666667,-110.93333333333334
353,44.8,-550.4,-113.06666666666666
354,51.2,-550.4,-119.46666666666667
355,46.93333333333333,-546.1333333333333,-117.33333333333333
356,46.93333333333333,-541.8666666666667,-117.33333333333333
357,49.06666666666666,-539.7333333333333,-115.2
358,51.2,-546.1333333333333,-115.2
359,44.8,-537.6,-113.06666666666666
360,53.333333333333336,-541.8666666666667,-110.93333333333334
361,49.06666666666666,-541.8666666666667,-115.2
362,42.666666666666664,-541.8666666666667,-113.06666666666666
363,55.46666666666667,-546.1333333333333,-110.93333333333334
364,42.666666666666664,-544.0,-106.66666666666667
365,49.06666666666666,-539.7333333333333,-102.4
366,49.06666666666666,-541.8666666666667,-102.4
367,46.93333333333333,-539.7333333333333,-102.4
368,49.06666666666666,-541.8666666666667,-102.4
369,42.666666666666664,-541.8666666666667,-104.53333333333333
370,42.666666666666664,-539.7333333333333,-100.26666666666667
371,40.53333333333333,-531.2,-106.66666666666667
372,38.4,-529.0666666666666,-106.66666666666667
373,36.266666666666666,-531.2,-98.13333333333333
374,40.53333333333333,-533.3333333333334,-96.0
375,44.8,-531.2,-100.26666666666667
376,44.8,-529.0666666666666,-106.66666666666667
377,38.4,-531.2,-102.4
378,40.53333333333333,-531.2,-98.13333333333333
379,42.666666666666664,-535.4666666666667,-100.26666666666667
380,36.266666666666666,-537.6,-100.26666666666667
381,38.4,-533.3333333333334,-96.0
382,38.4,-535.4666666666667,-104.53333333333333
383,42.666666666666664,-537.6,-108.8
384,44.8,-539.7333333333333,-106.66666666666667
385,40.53333333333333,-539.7333333333333,-110.93333333333334
386,40.53333333333333,-537.6,-104.53333333333333
387,44.8,-544.0,-100.26666666666667
388,36.266666666666666,-539.7333333333333,-106.66666666666667
389,38.4,-548.2666666666667,-96.0
390,34.13333333333333,-544.0,-98.13333333333333
391,38.4,-539.7333333333333,-100.26666666666667
392,34.13333333333333,-541.8666666666667,-98.13333333333333
393,36.266666666666666,-541.8666666666667,-108.8
394,32.0,-537.6,-108.8
395,32.0,-535.4666666666667,-102.4
396,27.733333333333334,-531.2,-115.2
397,27.733333333333334,-531.2,-108.8
398,34.13333333333333,-531.2,-110.93333333333334
399,29.866666666666667,-529.0666666666666,-117.33333333333333
400,32.0,-526.9333333333333,-110.93333333333334
401,38.4,-529.0666666666666,-108.8
402,32.0,-529.0666666666666,-113.06666666666666
403,42.666666666666664,-531.2,-115.2
404,40.53333333333333,-531.2,-113.06666666666666
405,36.266666666666666,-529.0666666666666,-115.2
406,32.0,-531.2,-108.8
407,40.53333333333333,-529.0666666666666,-104.53333333333333
408,42.666666666666664,-537.6,-115.2
409,38.4,-535.4666666666667,-108.8
410,38.4,-531.2,-115.2
411,42.666666666666664,-531.2,-110.93333333333334
412,44.8,-531.2,-119.46666666666667
413,46.93333333333333,-535.4666666666667,-119.46666666666667
414,53.333333333333336,-526.9333333333333,-117.33333333333333
415,53.333333333333336,-526.9333333333333,-123.73333333333333
416,55.46666666666667,-526.9333333333333,-115.2
417,64.0,-520.5333333333333,-119.46666666666667
418,51.2,-522.6666666666666,-113.06666666666666
419,55.46666666666667,-520.5333333333333,-110.93333333333334
420,51.2,-512.0,-108.8
421,51.2,-507.73333333333335,-110.93333333333334
422,46.93333333333333,-505.59999999999997,-102.4
423,49.06666666666666,-507.73333333333335,-98.13333333333333
424,49.06666666666666,-514.1333333333333,-98.13333333333333
425,46.93333333333333,-509.8666666666667,-93.86666666666666
426,42.666666666666664,-509.8666666666667,-102.4
427,42.666666666666664,-509.8666666666667,-100.26666666666667
428,46.93333333333333,-509.8666666666667,-98.13333333333333
429,42.666666666666664,-505.59999999999997,-110.93333333333334
430,46.93333333333333,-503.46666666666664,-108.8
431,38.4,-503.46666666666664,-104.53333333333333
432,40.53333333333333,-505.59999999999997,-102.4
433,36.266666666666666,-501.3333333333333,-98.13333333333333
434,42.666666666666664,-503.46666666666664,-106.66666666666667
435,38.4,-494.93333333333334,-110.93333333333334
436,51.2,-499.2,-104.53333333333333
437,49.06666666666666,-494.93333333333334,-108.8
438,46.93333333333333,-497.06666666666666,-100.26666666666667
439,51.2,-501.3333333333333,-96.0
440,68.26666666666667,-516.2666666666667,-83.2
441,55.46666666666667,-509.8666666666667,-100.26666666666667
442,46.93333333333333,-522.6666666666666,-104.53333333333333
443,49.06666666666666,-529.0666666666666,-100.26666666666667
444,44.8,-524.8,-110.93333333333334
445,44.8,-529.0666666666666,-113.06666666666666
446,34.13333333333333,-533.3333333333334,-108.8
447,36.266666666666666,-544.0,-115.2
448,29.866666666666667,-533.3333333333334,-115.2
449,25.6,-533.3333333333334,-108.8
450,23.466666666666665,-531.2,-108.8
451,21.333333333333332,-526.9333333333333,-115.2
452,23.466666666666665,-522.6666666666666,-121.6
453,14.933333333333334,-520.5333333333333,-128.0
454,25.6,-520.5333333333333,-113.06666666666666
455,29.866666666666667,-518.4,-123.73333333333333
456,29.866666666666667,-520.5333333333333,-119.46666666666667
457,29.866666666666667,-518.4,-106.66666666666667
458,27.733333333333334,-522.6666666666666,-115.2
459,29.866666666666667,-524.8,-110.93333333333334
460,19.2,-524.8,-106.66666666666667
461,19.2,-516.2666666666667,-106.66666666666667
462,14.933333333333334,-526.9333333333333,-115.2
463,17.066666666666666,-529.0666666666666,-125.86666666666666
464,14.933333333333334,-524.8,-132.26666666666665
465,10.666666666666666,-518.4,-142.93333333333334
466,8.533333333333333,-505.59999999999997,-153.6
467,17.066666666666666,-503.46666666666664,-160.0
468,14.933333333333334,-494.93333333333334,-157.86666666666667
469,17.066666666666666,-477.8666666666667,-147.2
470,27.733333333333334,-482.1333333333333,-160.0
471,27.733333333333334,-475.73333333333335,-140.8
472,36.266666666666666,-462.93333333333334,-130.13333333333333
473,38.4,-477.8666666666667,-117.33333333333333
474,38.4,-484.26666666666665,-119.46666666666667
475,36.266666666666666,-482.1333333333333,-117.33333333333333
476,49.06666666666666,-490.6666666666667,-115.2
477,44.8,-494.93333333333334,-125.86666666666666
478,40.53333333333333,-497.06666666666666,-128.0
479,36.266666666666666,-499.2,-134.4
480,29.866666666666667,-497.06666666666666,-149.33333333333334
481,23.466666666666665,-499.2,-157.86666666666667
482,25.6,-497.06666666666666,-164.26666666666665
483,17.066666666666666,-484.26666666666665,-168.53333333333333
484,14.933333333333334,-486.4,-164.26666666666665
485,14.933333333333334,-486.4,-160.0
486,21.333333333333332,-482.1333333333333,-151.46666666666667
487,27.733333333333334,-484.26666666666665,-147.2
488,40.53333333333333,-497.06666666666666,-132.26666666666665
489,53.333333333333336,-501.3333333333333,-125.86666666666666
490,59.733333333333334,-505.59999999999997,-128.0
491,53.333333333333336,-518.4,-123.73333333333333
492,53.333333333333336,-516.2666666666667,-134.4
493,46.93333333333333,-526.9333333333333,-132.26666666666665
494,42.666666666666664,-524.8,-140.8
495,34.13333333333333,-522.6666666666666,-147.2
496,21.333333333333332,-503.46666666666664,-162.13333333333333
497,17.066666666666666,-501.3333333333333,-162.13333333333333
498,19.2,-492.8,-174.93333333333334
499,17.066666666666666,-488.5333333333333,-174.93333333333334
500,17.066666666666666,-482.1333333333333,-181.33333333333334
501,19.2,-473.59999999999997,-177.06666666666666
502,19.2,-469.3333333333333,-174.93333333333334
503,19.2,-477.8666666666667,-157.86666666666667
504,21.333333333333332,-475.73333333333335,-153.6
505,32.0,-486.4,-142.93333333333334
506,40.53333333333333,-484.26666666666665,-138.66666666666666
507,44.8,-492.8,-134.4
508,49.06666666666666,-503.46666666666664,-138.66666666666666
509,51.2,-514.1333333333333,-136.53333333333333
510,46.93333333333333,-516.2666666666667,-142.93333333333334
511,40.53333333333333,-518.4,-147.2
512,42.666666666666664,-520.5333333333333,-157.86666666666667
513,25.6,-512.0,-166.4
514,27.733333333333334,-514.1333333333333,-177.06666666666666
515,29.866666666666667,-512.0,-179.2
516,19.2,-501.3333333333333,-189.86666666666667
517,12.8,-494.93333333333334,-198.4
518,12.8,-499.2,-202.66666666666666
519,17.066666666666666,-494.93333333333334,-198.4
520,21.333333333333332,-494.93333333333334,-194.13333333333333
521,21.333333333333332,-492.8,-185.6
522,32.0,-501.3333333333333,-177.06666666666666
523,36.266666666666666,-497.06666666666666,-172.8
524,44.8,-505.59999999999997,-160.0
525,44.8,-505.59999999999997,-157.86666666666667
526,46.93333333333333,-514.1333333333333,-155.73333333333332
527,49.06666666666666,-514.1333333333333,-153.6
528,44.8,-514.1333333333333,-162.13333333333333
529,36.266666666666666,-516.2666666666667,-172.8
530,40.53333333333333,-509.8666666666667,-187.73333333333332
531,29.866666666666667,-505.59999999999997,-200.53333333333333
532,27.733333333333334,-492.8,-198.4
533,29.866666666666667,-488.5333333333333,-200.53333333333333
534,29.866666666666667,-484.26666666666665,-196.26666666666665
535,27.733333333333334,-480.0,-202.66666666666666
536,25.6,-473.59999999999997,-200.53333333333333
537,23.466666666666665,-467.2,-198.4
538,19.2,-471.46666666666664,-198.4
539,14.933333333333334,-471.46666666666664,-183.46666666666667
540,17.066666666666666,-471.46666666666664,-179.2
541,14.933333333333334,-484.26666666666665,-179.2
542,25.6,-486.4,-183.46666666666667
543,23.466666666666665,-499.2,-179.2
544,23.466666666666665,-499.2,-174.93333333333334
545,29.866666666666667,-512.0,-185.6
546,29.866666666666667,-516.2666666666667,-192.0
547,25.6,-524.8,-192.0
548,19.2,-526.9333333333333,-196.26666666666665
549,23.466666666666665,-522.6666666666666,-209.06666666666666
550,21.333333333333332,-531.2,-206.93333333333334
551,23.466666666666665,-526.9333333333333,-206.93333333333334
552,19.2,-526.9333333333333,-213.33333333333334
553,17.066666666666666,-518.4,-209.06666666666666
554,23.466666666666665,-522.6666666666666,-211.2
555,23.466666666666665,-514.1333333333333,-204.8
556,23.466666666666665,-516.2666666666667,-194.13333333333333
557,25.6,-524.8,-189.86666666666667
558,34.13333333333333,-522.6666666666666,-183.46666666666667
559,29.866666666666667,-524.8,-177.06666666666666
560,29.866666666666667,-537.6,-181.33333333333334
561,25.6,-537.6,-200.53333333333333
562,29.866666666666667,-541.8666666666667,-200.53333333333333
563,32.0,-554.6666666666666,-209.06666666666666
564,34.13333333333333,-554.6666666666666,-219.73333333333332
565,40.53333333333333,-552.5333333333333,-221.86666666666667
566,42.666666666666664,-561.0666666666666,-232.53333333333333
567,29.866666666666667,-546.1333333333333,-236.79999999999998
568,27.733333333333334,-541.8666666666667,-245.33333333333334
569,34.13333333333333,-537.6,-245.33333333333334
570,32.0,-529.0666666666666,-238.93333333333334
571,10.666666666666666,-520.5333333333333,-247.46666666666667
572,27.733333333333334,-522.6666666666666,-228.26666666666665
573,27.733333333333334,-526.9333333333333,-219.73333333333332
574,29.866666666666667,-526.9333333333333,-226.13333333333333
575,23.466666666666665,-524.8,-215.46666666666667
576,27.733333333333334,-520.5333333333333,-215.46666666666667
577,23.466666666666665,-522.6666666666666,-217.6
578,23.466666666666665,-526.9333333333333,-211.2
579,23.466666666666665,-526.9333333333333,-206.93333333333334
580,21.333333333333332,-524.8,-215.46666666666667
581,17.066666666666666,-526.9333333333333,-219.73333333333332
582,23.466666666666665,-522.6666666666666,-226.13333333333333
583,25.6,-516.2666666666667,-217.6
584,25.6,-509.8666666666667,-228.26666666666665
585,29.866666666666667,-503.46666666666664,-226.13333333333333
586,32.0,-497.06666666666666,-236.79999999999998
587,38.4,-486.4,-224.0
588,44.8,-482.1333333333333,-230.4
589,38.4,-477.8666666666667,-224.0
590,36.266666666666666,-475.73333333333335,-230.4
591,32.0,-469.3333333333333,-230.4
592,29.866666666666667,-471.46666666666664,-230.4
593,17.066666666666666,-477.8666666666667,-228.26666666666665
594,25.6,-480.0,-230.4
595,27.733333333333334,-480.0,-232.53333333333333
596,29.866666666666667,-494.93333333333334,-226.13333333333333
597,36.266666666666666,-501.3333333333333,-224.0
598,25.6,-503.46666666666664,-226.13333333333333
599,34.13333333333333,-512.0,-234.66666666666666
600,29.866666666666667,-524.8,-247.46666666666667
601,23.466666666666665,-522.6666666666666,-236.79999999999998
602,36.266666666666666,-526.9333333333333,-245.33333333333334
603,23.466666666666665,-526.9333333333333,-247.46666666666667
604,25.6,-531.2,-243.2
605,23.466666666666665,-531.2,-243.2
606,19.2,-533.3333333333334,-241.06666666666666
607,19.2,-535.4666666666667,-253.86666666666667
608,17.066666666666666,-529.0666666666666,-236.79999999999998
609,14.933333333333334,-522.6666666666666,-245.33333333333334
610,17.066666666666666,-524.8,-245.33333333333334
611,12.8,-526.9333333333333,-243.2
612,17.066666666666666,-526.9333333333333,-236.79999999999998
613,19.2,-520.5333333333333,-234.66666666666666
614,17.066666666666666,-518.4,-226.13333333333333
615,19.2,-514.1333333333333,-228.26666666666665
616,21.333333333333332,-505.59999999999997,-226.13333333333333
617,32.0,-505.59999999999997,-226.13333333333333
618,36.266666666666666,-490.6666666666667,-224.0
619,40.53333333333333,-484.26666666666665,-234.66666666666666
620,38.4,-484.26666666666665,-249.6
621,42.666666666666664,-482.1333333333333,-247.46666666666667
622,44.8,-484.26666666666665,-249.6
623,36.266666666666666,-482.1333333333333,-251.73333333333332
624,32.0,-477.8666666666667,-256.0
625,34.13333333333333,-492.8,-245.33333333333334
626,34.13333333333333,-488.5333333333333,-236.79999999999998
627,25.6,-497.06666666666666,-234.66666666666666
628,25.6,-499.2,-232.53333333333333
629,23.466666666666665,-512.0,-236.79999999999998
630,21.333333333333332,-503.46666666666664,-230.4
631,21.333333333333332,-505.59999999999997,-230.4
632,25.6,-499.2,-230.4
633,23.466666666666665,-501.3333333333333,-234.66666666666666
634,32.0,-507.73333333333335,-247.46666666666667
635,27.733333333333334,-501.3333333333333,-253.86666666666667
636,32.0,-494.93333333333334,-258.1333333333333
637,32.0,-503.46666666666664,-256.0
638,27.733333333333334,-505.59999999999997,-258.1333333333333
639,29.866666666666667,-501.3333333333333,-258.1333333333333
640,27.733333333333334,-507.73333333333335,-247.46666666666667
641,21.333333333333332,-507.73333333333335,-245.33333333333334
642,23.466666666666665,-518.4,-247.46666666666667
643,23.466666666666665,-518.4,-256.0
644,27.733333333333334,-529.0666666666666,-251.73333333333332
645,17.066666666666666,-522.6666666666666,-247.46666666666667
646,29.866666666666667,-526.9333333333333,-256.0
647,17.066666666666666,-522.6666666666666,-256.0
648,29.866666666666667,-522.6666666666666,-258.1333333333333
649,19.2,-518.4,-253.86666666666667
650,25.6,-520.5333333333333,-256.0
651,29.866666666666667,-507.73333333333335,-253.86666666666667
652,34.13333333333333,-518.4,-258.1333333333333
653,29.866666666666667,-507.73333333333335,-264.5333333333333
654,36.266666666666666,-514.1333333333333,-260.26666666666665
655,32.0,-507.73333333333335,-266.6666666666667
656,32.0,-505.59999999999997,-273.06666666666666
657,34.13333333333333,-516.2666666666667,-268.8
658,34.13333333333333,-516.2666666666667,-268.8
659,34.13333333333333,-518.4,-266.6666666666667
660,36.266666666666666,-526.9333333333333,-275.2
661,27.733333333333334,-522.6666666666666,-266.6666666666667
662,29.866666666666667,-524.8,-266.6666666666667
663,27.733333333333334,-520.5333333333333,-273.06666666666666
664,17.066666666666666,-514.1333333333333,-262.4
665,17.066666666666666,-509.8666666666667,-268.8
666,17.066666666666666,-505.59999999999997,-275.2
667,21.333333333333332,-501.3333333333333,-268.8
668,25.6,-509.8666666666667,-266.6666666666667
669,19.2,-499.2,-273.06666666666666
670,19.2,-492.8,-273.06666666666666
671,21.333333333333332,-505.59999999999997,-273.06666666666666
672,29.866666666666667,-503.46666666666664,-277.3333333333333
673,27.733333333333334,-509.8666666666667,-285.8666666666667
674,32.0,-516.2666666666667,-275.2
675,32.0,-522.6666666666666,-266.6666666666667
676,32.0,-526.9333333333333,-283.73333333333335
677,29.866666666666667,-526.9333333333333,-273.06666666666666
678,34.13333333333333,-529.0666666666666,-273.06666666666666
679,40.53333333333333,-529.0666666666666,-281.6
680,36.266666666666666,-524.8,-288.0
681,38.4,-514.1333333333333,-279.46666666666664
682,38.4,-509.8666666666667,-275.2
683,32.0,-499.2,-285.8666666666667
684,34.13333333333333,-499.2,-277.3333333333333
685,38.4,-501.3333333333333,-273.06666666666666
686,38.4,-499.2,-281.6
687,32.0,-501.3333333333333,-264.5333333333333
688,25.6,-512.0,-264.5333333333333
689,19.2,-518.4,-260.26666666666665
690,14.933333333333334,-514.1333333333333,-256.0
691,12.8,-522.6666666666666,-273.06666666666666
692,6.4,-526.9333333333333,-275.2
693,6.4,-533.3333333333334,-266.6666666666667
694,-4.266666666666667,-526.9333333333333,-277.3333333333333
695,0.0,-526.9333333333333,-277.3333333333333
696,6.4,-524.8,-292.26666666666665
697,17.066666666666666,-516.2666666666667,-294.4
698,17.066666666666666,-512.0,-298.6666666666667
699,12.8,-505.59999999999997,-296.5333333333333
700,14.933333333333334,-505.59999999999997,-300.8
701,10.666666666666666,-512.0,-302.93333333333334
702,17.066666666666666,-507.73333333333335,-305.06666666666666
703,23.466666666666665,-514.1333333333333,-305.06666666666666
704,12.8,-507.73333333333335,-298.6666666666667
705,10.666666666666666,-509.8666666666667,-300.8
706,8.533333333333333,-509.8666666666667,-288.0
707,12.8,-514.1333333333333,-290.1333333333333
708,2.1333333333333333,-503.46666666666664,-292.26666666666665
709,0.0,-501.3333333333333,-296.5333333333333
710,6.4,-503.46666666666664,-288.0
711,2.1333333333333333,-497.06666666666666,-290.1333333333333
712,-8.533333333333333,-499.2,-298.6666666666667
713,-4.266666666666667,-488.5333333333333,-309.3333333333333
714,10.666666666666666,-486.4,-302.93333333333334
715,12.8,-486.4,-300.8
716,10.666666666666666,-490.6666666666667,-305.06666666666666
717,12.8,-488.5333333333333,-307.2
718,23.466666666666665,-484.26666666666665,-311.46666666666664
719,25.6,-494.93333333333334,-311.46666666666664
720,34.13333333333333,-494.93333333333334,-315.73333333333335
721,46.93333333333333,-488.5333333333333,-322.1333333333333
722,29.866666666666667,-486.4,-326.4
723,32.0,-482.1333333333333,-332.8
724,38.4,-477.8666666666667,-326.4
725,8.533333333333333,-492.8,-326.4
726,21.333333333333332,-503.46666666666664,-322.1333333333333
727,6.4,-501.3333333333333,-322.1333333333333
728,6.4,-501.3333333333333,-322.1333333333333
729,29.866666666666667,-484.26666666666665,-337.06666666666666
730,2.1333333333333333,-492.8,-322.1333333333333
731,14.933333333333334,-486.4,-341.3333333333333
732,12.8,-516.2666666666667,-317.8666666666667
733,12.8,-509.8666666666667,-324.26666666666665
734,8.533333333333333,-524.8,-322.1333333333333
735,4.266666666666667,-533.3333333333334,-315.73333333333335
736,-4.266666666666667,-529.0666666666666,-330.6666666666667
737,8.533333333333333,-526.9333333333333,-341.3333333333333
738,-4.266666666666667,-524.8,-339.2
739,0.0,-524.8,-341.3333333333333
740,0.0,-518.4,-343.46666666666664
741,4.266666666666667,-522.6666666666666,-341.3333333333333
742,12.8,-522.6666666666666,-347.73333333333335
743,8.533333333333333,-516.2666666666667,-337.06666666666666
744,6.4,-509.8666666666667,-343.46666666666664
745,10.666666666666666,-507.73333333333335,-334.93333333333334
746,2.1333333333333333,-509.8666666666667,-334.93333333333334
747,8.533333333333333,-512.0,-341.3333333333333
748,2.1333333333333333,-507.73333333333335,-345.6
749,-12.8,-512.0,-337.06666666666666
750,-17.066666666666666,-512.0,-330.6666666666667
751,-17.066666666666666,-522.6666666666666,-328.5333333333333
752,-21.333333333333332,-526.9333333333333,-326.4
753,-14.933333333333334,-516.2666666666667,-337.06666666666666
754,-2.1333333333333333,-516.2666666666667,-334.93333333333334
755,4.266666666666667,-514.1333333333333,-339.2
756,12.8,-509.8666666666667,-339.2
757,10.666666666666666,-514.1333333333333,-326.4
758,10.666666666666666,-509.8666666666667,-341.3333333333333
759,8.533333333333333,-505.59999999999997,-334.93333333333334
760,8.533333333333333,-494.93333333333334,-337.06666666666666
761,-4.266666666666667,-520.5333333333333,-324.26666666666665
762,-12.8,-529.0666666666666,-317.8666666666667
763,-8.533333333333333,-524.8,-332.8
764,-12.8,-524.8,-326.4
765,-23.466666666666665,-531.2,-328.5333333333333
766,-12.8,-526.9333333333333,-326.4
767,-19.2,-526.9333333333333,-345.6
768,-6.4,-529.0666666666666,-332.8
769,2.1333333333333333,-522.6666666666666,-339.2
770,6.4,-516.2666666666667,-330.6666666666667
771,8.533333333333333,-526.9333333333333,-332.8
772,6.4,-514.1333333333333,-330.6666666666667
773,6.4,-516.2666666666667,-320.0
774,-2.1333333333333333,-522.6666666666666,-315.73333333333335
775,-2.1333333333333333,-526.9333333333333,-309.3333333333333
776,14.933333333333334,-533.3333333333334,-309.3333333333333
777,14.933333333333334,-552.5333333333333,-317.8666666666667
778,27.733333333333334,-554.6666666666666,-311.46666666666664
779,14.933333333333334,-567.4666666666667,-309.3333333333333
780,25.6,-588.8,-305.06666666666666
781,23.466666666666665,-590.9333333333333,-330.6666666666667
782,-2.1333333333333333,-599.4666666666667,-341.3333333333333
783,0.0,-603.7333333333333,-337.06666666666666
784,-4.266666666666667,-597.3333333333334,-364.8
785,6.4,-608.0,-358.4
786,-8.533333333333333,-618.6666666666666,-369.06666666666666
787,-8.533333333333333,-620.8,-369.06666666666666
788,-23.466666666666665,-644.2666666666667,-369.06666666666666
789,-14.933333333333334,-637.8666666666667,-375.46666666666664
790,2.1333333333333333,-650.6666666666666,-390.4
791,-21.333333333333332,-620.8,-386.1333333333333
792,-14.933333333333334,-637.8666666666667,-373.3333333333333
793,-19.2,-633.6,-354.1333333333333
794,100.26666666666667,-608.0,-349.8666666666667
795,-19.2,-601.6,-328.5333333333333
796,-6.4,-605.8666666666667,-292.26666666666665
797,-10.666666666666666,-597.3333333333334,-281.6
798,2.1333333333333333,-590.9333333333333,-260.26666666666665
799,4.266666666666667,-565.3333333333334,-258.1333333333333
800,8.533333333333333,-541.8666666666667,-258.1333333333333
801,6.4,-514.1333333333333,-256.0
802,10.666666666666666,-494.93333333333334,-249.6
803,14.933333333333334,-488.5333333333333,-230.4
804,10.666666666666666,-471.46666666666664,-224.0
805,17.066666666666666,-475.73333333333335,-211.2
806,19.2,-471.46666666666664,-206.93333333333334
807,27.733333333333334,-469.3333333333333,-204.8
808,25.6,-477.8666666666667,-196.26666666666665
809,19.2,-469.3333333333333,-187.73333333333332
810,29.866666666666667,-477.8666666666667,-200.53333333333333
811,21.333333333333332,-471.46666666666664,-183.46666666666667
812,27.733333333333334,-482.1333333333333,-185.6
813,27.733333333333334,-480.0,-196.26666666666665
814,23.466666666666665,-482.1333333333333,-192.0
815,21.333333333333332,-490.6666666666667,-200.53333333333333
816,10.666666666666666,-490.6666666666667,-209.06666666666666
817,2.1333333333333333,-488.5333333333333,-202.66666666666666
818,-8.533333333333333,-482.1333333333333,-211.2
819,-10.666666666666666,-482.1333333333333,-211.2
820,0.0,-488.5333333333333,-211.2
821,-4.266666666666667,-486.4,-226.13333333333333
822,-8.533333333333333,-490.6666666666667,-230.4
823,-2.1333333333333333,-490.6666666666667,-238.93333333333334
824,-4.266666666666667,-494.93333333333334,-226.13333333333333
825,0.0,-499.2,-245.33333333333334
826,4.266666666666667,-503.46666666666664,-241.06666666666666
827,6.4,-505.59999999999997,-232.53333333333333
828,12.8,-512.0,-241.06666666666666
829,10.666666666666666,-514.1333333333333,-238.93333333333334
830,14.933333333333334,-516.2666666666667,-251.73333333333332
831,12.8,-518.4,-253.86666666666667
832,19.2,-524.8,-251.73333333333332
833,21.333333333333332,-526.9333333333333,-249.6
834,17.066666666666666,-529.0666666666666,-256.0
835,12.8,-529.0666666666666,-249.6
836,29.866666666666667,-529.0666666666666,-253.86666666666667
837,23.466666666666665,-526.9333333333333,-251.73333333333332
838,27.733333333333334,-533.3333333333334,-241.06666666666666
839,25.6,-522.6666666666666,-256.0
840,21.333333333333332,-522.6666666666666,-245.33333333333334
841,27.733333333333334,-529.0666666666666,-251.73333333333332
842,25.6,-533.3333333333334,-251.73333333333332
843,21.333333333333332,-535.4666666666667,-253.86666666666667
844,27.733333333333334,-544.0,-253.86666666666667
845,32.0,-539.7333333333333,-245.33333333333334
846,23.466666666666665,-539.7333333333333,-241.06666666666666
847,27.733333333333334,-548.2666666666667,-234.66666666666666
848,23.466666666666665,-550.4,-241.06666666666666
849,32.0,-541.8666666666667,-253.86666666666667
850,34.13333333333333,-537.6,-251.73333333333332
851,19.2,-541.8666666666667,-245.33333333333334
852,32.0,-544.0,-243.2
853,27.733333333333334,-544.0,-238.93333333333334
854,36.266666666666666,-548.2666666666667,-236.79999999999998
855,36.266666666666666,-541.8666666666667,-232.53333333333333
856,29.866666666666667,-533.3333333333334,-226.13333333333333
857,25.6,-529.0666666666666,-221.86666666666667
858,29.866666666666667,-522.6666666666666,-219.73333333333332
859,8.533333333333333,-531.2,-217.6
860,34.13333333333333,-531.2,-196.26666666666665
861,36.266666666666666,-524.8,-206.93333333333334
862,38.4,-520.5333333333333,-209.06666666666666
863,38.4,-524.8,-200.53333333333333
864,42.666666666666664,-522.6666666666666,-196.26666666666665
865,34.13333333333333,-518.4,-196.26666666666665
866,34.13333333333333,-524.8,-194.13333333333333
867,32.0,-533.3333333333334,-192.0
868,44.8,-526.9333333333333,-194.13333333333333
869,46.93333333333333,-524.8,-204.8
870,44.8,-518.4,-189.86666666666667
871,38.4,-529.0666666666666,-181.33333333333334
872,36.266666666666666,-522.6666666666666,-194.13333333333333
873,25.6,-520.5333333333333,-183.46666666666667
874,32.0,-544.0,-177.06666666666666
875,27.733333333333334,-537.6,-183.46666666666667
876,32.0,-533.3333333333334,-192.0
877,38.4,-531.2,-189.86666666666667
878,44.8,-522.6666666666666,-187.73333333333332
879,27.733333333333334,-520.5333333333333,-181.33333333333334
880,38.4,-529.0666666666666,-172.8
881,32.0,-546.1333333333333,-170.66666666666666
882,46.93333333333333,-544.0,-166.4
883,46.93333333333333,-548.2666666666667,-164.26666666666665
884,40.53333333333333,-558.9333333333333,-164.26666666666665
885,46.93333333333333,-561.0666666666666,-166.4
886,51.2,-548.2666666666667,-179.2
887,34.13333333333333,-563.2,-170.66666666666666
888,46.93333333333333,-563.2,-168.53333333333333
889,40.53333333333333,-573.8666666666667,-155.73333333333332
890,34.13333333333333,-563.2,-168.53333333333333
891,49.06666666666666,-567.4666666666667,-160.0
892,27.733333333333334,-550.4,-162.13333333333333
893,44.8,-539.7333333333333,-170.66666666666666
894,51.2,-550.4,-153.6
895,40.53333333333333,-548.2666666666667,-157.86666666666667
896,49.06666666666666,-546.1333333333333,-157.86666666666667
897,53.333333333333336,-537.6,-140.8
898,25.6,-537.6,-142.93333333333334
899,38.4,-531.2,-155.73333333333332
900,23.466666666666665,-533.3333333333334,-149.33333333333334
901,36.266666666666666,-531.2,-134.4
902,25.6,-541.8666666666667,-130.13333333333333
903,38.4,-531.2,-136.53333333333333
904,36.266666666666666,-524.8,-130.13333333333333
905,32.0,-524.8,-145.06666666666666
906,21.333333333333332,-531.2,-125.86666666666666
907,36.266666666666666,-535.4666666666667,-123.73333333333333
908,36.266666666666666,-544.0,-110.93333333333334
909,38.4,-533.3333333333334,-121.6
910,38.4,-544.0,-117.33333333333333
911,29.866666666666667,-541.8666666666667,-108.8
912,36.266666666666666,-531.2,-110.93333333333334
913,34.13333333333333,-522.6666666666666,-110.93333333333334
914,40.53333333333333,-531.2,-115.2
915,32.0,-529.0666666666666,-106.66666666666667
916,29.866666666666667,-524.8,-102.4
917,27.733333333333334,-524.8,-93.86666666666666
918,29.866666666666667,-535.4666666666667,-83.2
919,19.2,-565.3333333333334,-66.13333333333333
920,34.13333333333333,-541.8666666666667,-96.0
921,32.0,-537.6,-93.86666666666666
922,29.866666666666667,-541.8666666666667,-96.0
923,27.733333333333334,-546.1333333333333,-91.73333333333333
924,34.13333333333333,-546.1333333333333,-96.0
925,29.866666666666667,-541.8666666666667,-96.0
926,27.733333333333334,-541.8666666666667,-100.26666666666667
927,23.466666666666665,-544.0,-98.13333333333333
928,25.6,-544.0,-89.6
929,23.466666666666665,-539.7333333333333,-85.33333333333333
930,21.333333333333332,-531.2,-81.06666666666666
931,27.733333333333334,-537.6,-74.66666666666667
932,23.466666666666665,-539.7333333333333,-74.66666666666667
933,21.333333333333332,-539.7333333333333,-68.26666666666667
934,23.466666666666665,-539.7333333333333,-55.46666666666667
935,19.2,-541.8666666666667,-55.46666666666667
936,27.733333333333334,-556.8,-57.6
937,25.6,-558.9333333333333,-49.06666666666666
938,23.466666666666665,-556.8,-53.333333333333336
939,25.6,-556.8,-55.46666666666667
940,27.733333333333334,-550.4,-57.6
941,32.0,-539.7333333333333,-46.93333333333333
942,21.333333333333332,-550.4,-61.86666666666667
943,25.6,-541.8666666666667,-49.06666666666666
944,32.0,-539.7333333333333,-57.6
945,29.866666666666667,-531.2,-57.6
946,32.0,-526.9333333333333,-46.93333333333333
947,34.13333333333333,-529.0666666666666,-42.666666666666664
948,34.13333333333333,-518.4,-44.8
949,36.266666666666666,-516.2666666666667,-44.8
950,32.0,-520.5333333333333,-36.266666666666666
951,46.93333333333333,-526.9333333333333,-32.0
952,42.666666666666664,-524.8,-29.866666666666667
953,44.8,-518.4,-40.53333333333333
954,44.8,-516.2666666666667,-23.466666666666665
955,44.8,-524.8,-25.6
956,44.8,-529.0666666666666,-29.866666666666667
957,42.666666666666664,-531.2,-23.466666666666665
958,53.333333333333336,-533.3333333333334,-34.13333333333333
959,44.8,-529.0666666666666,-27.733333333333334
960,49.06666666666666,-535.4666666666667,-27.733333333333334
961,49.06666666666666,-537.6,-32.0
962,46.93333333333333,-539.7333333333333,-19.2
963,46.93333333333333,-539.7333333333333,-12.8
964,42.666666666666664,-541.8666666666667,-21.333333333333332
965,44.8,-544.0,-12.8
966,42.666666666666664,-546.1333333333333,-25.6
967,42.666666666666664,-546.1333333333333,-8.533333333333333
968,38.4,-546.1333333333333,-19.2
969,42.666666666666664,-544.0,-21.333333333333332
970,40.53333333333333,-544.0,-17.066666666666666
971,27.733333333333334,-541.8666666666667,-27.733333333333334
972,25.6,-533.3333333333334,-23.466666666666665
973,25.6,-526.9333333333333,-29.866666666666667
974,27.733333333333334,-524.8,-27.733333333333334
975,34.13333333333333,-522.6666666666666,-12.8
976,36.266666666666666,-531.2,-4.266666666666667
977,34.13333333333333,-524.8,-8.533333333333333
978,27.733333333333334,-526.9333333333333,-4.266666666666667
979,32.0,-514.1333333333333,-4.266666666666667
980,27.733333333333334,-524.8,-4.266666666666667
981,34.13333333333333,-529.0666666666666,-2.1333333333333333
982,34.13333333333333,-524.8,-2.1333333333333333
983,32.0,-526.9333333333333,0.0
984,36.266666666666666,-529.0666666666666,-2.1333333333333333
985,44.8,-526.9333333333333,-4.266666666666667
986,42.666666666666664,-533.3333333333334,-6.4
987,38.4,-533.3333333333334,4.266666666666667
988,36.266666666666666,-531.2,4.266666666666667
989,44.8,-533.3333333333334,17.066666666666666
990,40.53333333333333,-531.2,14.933333333333334
991,36.266666666666666,-526.9333333333333,8.533333333333333
992,38.4,-531.2,23.466666666666665
993,40.53333333333333,-526.9333333333333,19.2
994,40.53333333333333,-535.4666666666667,21.333333333333332
995,36.266666666666666,-529.0666666666666,21.333333333333332
996,34.13333333333333,-531.2,21.333333333333332
997,38.4,-531.2,21.333333333333332
998,34.13333333333333,-529.0666666666666,12.8
999,40.53333333333333,-526.9333333333333,25.6
1000,36.266666666666666,-526.9333333333333,21.333333333333332
1001,38.4,-526.9333333333333,23.466666666666665
1002,36.266666666666666,-529.0666666666666,32.0
1003,32.0,-524.8,27.733333333333334
1004,36.266666666666666,-522.6666666666666,21.333333333333332
1005,34.13333333333333,-514.1333333333333,32.0
1006,36.266666666666666,-526.9333333333333,46.93333333333333
1007,36.266666666666666,-526.9333333333333,34.13333333333333
1008,36.266666666666666,-526.9333333333333,44.8
1009,32.0,-522.6666666666666,38.4
1010,27.733333333333334,-522.6666666666666,40.53333333333333
1011,29.866666666666667,-529.0666666666666,34.13333333333333
1012,23.466666666666665,-526.9333333333333,40.53333333333333
1013,36.266666666666666,-529.0666666666666,32.0
1014,32.0,-529.0666666666666,29.866666666666667
1015,38.4,-524.8,29.866666666666667
1016,42.666666666666664,-526.9333333333333,25.6
1017,46.93333333333333,-520.5333333333333,29.866666666666667
1018,49.06666666666666,-518.4,25.6
1019,46.93333333333333,-518.4,23.466666666666665
1020,59.733333333333334,-518.4,23.466666666666665
1021,57.6,-522.6666666666666,40.53333333333333
1022,59.733333333333334,-522.6666666666666,40.53333333333333
1023,53.333333333333336,-522.6666666666666,34.13333333333333
1024,66.13333333333333,-524.8,36.266666666666666
1025,57.6,-526.9333333333333,46.93333333333333
1026,66.13333333333333,-529.0666666666666,32.0
1027,64.0,-522.6666666666666,32.0
1028,55.46666666666667,-522.6666666666666,36.266666666666666
1029,57.6,-522.6666666666666,27.733333333333334
1030,53.333333333333336,-524.8,40.53333333333333
1031,46.93333333333333,-522.6666666666666,32.0
1032,55.46666666666667,-524.8,36.266666666666666
1033,51.2,-531.2,42.666666666666664
1034,55.46666666666667,-529.0666666666666,40.53333333333333
1035,51.2,-529.0666666666666,34.13333333333333
1036,51.2,-531.2,36.266666666666666
1037,44.8,-533.3333333333334,40.53333333333333
1038,44.8,-531.2,38.4
1039,46.93333333333333,-529.0666666666666,44.8
1040,40.53333333333333,-533.3333333333334,40.53333333333333
1041,29.866666666666667,-531.2,44.8
1042,36.266666666666666,-533.3333333333334,42.666666666666664
1043,27.733333333333334,-533.3333333333334,34.13333333333333
1044,29.866666666666667,-533.3333333333334,38.4
1045,32.0,-531.2,42.666666666666664
1046,29.866666666666667,-526.9333333333333,34.13333333333333
1047,34.13333333333333,-522.6666666666666,38.4
1048,25.6,-526.9333333333333,44.8
1049,25.6,-520.5333333333333,42.666666666666664
1050,34.13333333333333,-524.8,44.8
1051,34.13333333333333,-529.0666666666666,49.06666666666666
1052,27.733333333333334,-526.9333333333333,36.266666666666666
1053,32.0,-520.5333333333333,46.93333333333333
1054,32.0,-520.5333333333333,46.93333333333333
1055,36.266666666666666,-524.8,49.06666666666666
1056,36.266666666666666,-518.4,44.8
1057,42.666666666666664,-529.0666666666666,44.8
1058,42.666666666666664,-524.8,40.53333333333333
1059,42.666666666666664,-522.6666666666666,51.2
1060,38.4,-526.9333333333333,44.8
1061,44.8,-524.8,42.666666666666664
1062,40.53333333333333,-522.6666666666666,40.53333333333333
1063,40.53333333333333,-524.8,51.2
1064,40.53333333333333,-524.8,55.46666666666667
1065,36.266666666666666,-522.6666666666666,49.06666666666666
1066,40.53333333333333,-524.8,55.46666666666667
1067,38.4,-522.6666666666666,55.46666666666667
1068,44.8,-529.0666666666666,51.2
1069,40.53333333333333,-522.6666666666666,53.333333333333336
1070,44.8,-524.8,59.733333333333334
1071,40.53333333333333,-531.2,61.86666666666667
1072,42.666666666666664,-522.6666666666666,55.46666666666667
1073,40.53333333333333,-522.6666666666666,57.6
1074,34.13333333333333,-522.6666666666666,61.86666666666667
1075,40.53333333333333,-518.4,59.733333333333334
1076,38.4,-520.5333333333333,57.6
1077,36.266666666666666,-520.5333333333333,57.6
1078,36.266666666666666,-522.6666666666666,55.46666666666667
1079,34.13333333333333,-520.5333333333333,55.46666666666667
1080,36.266666666666666,-518.4,57.6
1081,42.666666666666664,-524.8,61.86666666666667
1082,42.666666666666664,-524.8,55.46666666666667
1083,44.8,-526.9333333333333,59.733333333333334
1084,38.4,-520.5333333333333,61.86666666666667
1085,36.266666666666666,-516.2666666666667,57.6
1086,40.53333333333333,-524.8,59.733333333333334
1087,38.4,-524.8,66.13333333333333
1088,38.4,-522.6666666666666,53.333333333333336
1089,38.4,-520.5333333333333,68.26666666666667
1090,34.13333333333333,-522.6666666666666,59.733333333333334
1091,36.266666666666666,-520.5333333333333,61.86666666666667
1092,32.0,-516.2666666666667,61.86666666666667
1093,27.733333333333334,-518.4,61.86666666666667
1094,36.266666666666666,-520.5333333333333,64.0
1095,36.266666666666666,-522.6666666666666,64.0
1096,36.266666666666666,-520.5333333333333,61.86666666666667
1097,38.4,-524.8,57.6
1098,34.13333333333333,-524.8,68.26666666666667
1099,34.13333333333333,-526.9333333333333,59.733333333333334
1100,34.13333333333333,-522.6666666666666,57.6
1101,34.13333333333333,-524.8,61.86666666666667
1102,40.53333333333333,-522.6666666666666,61.86666666666667
1103,36.266666666666666,-524.8,55.46666666666667
1104,42.666666666666664,-526.9333333333333,53.333333333333336
1105,38.4,-520.5333333333333,55.46666666666667
1106,36.266666666666666,-524.8,68.26666666666667
1107,36.266666666666666,-524.8,49.06666666666666
1108,38.4,-526.9333333333333,59.733333333333334
1109,42.666666666666664,-526.9333333333333,55.46666666666667
1110,38.4,-526.9333333333333,57.6
1111,44.8,-529.0666666666666,61.86666666666667
1112,44.8,-529.0666666666666,64.0
1113,40.53333333333333,-529.0666666666666,64.0
1114,42.666666666666664,-526.9333333333333,61.86666666666667
1115,40.53333333333333,-533.3333333333334,64.0
1116,40.53333333333333,-520.5333333333333,57.6
1117,42.666666666666664,-522.6666666666666,53.333333333333336
1118,38.4,-524.8,53.333333333333336
1119,40.53333333333333,-526.9333333333333,55.46666666666667
1120,40.53333333333333,-520.5333333333333,59.733333333333334
1121,40.53333333333333,-522.6666666666666,57.6
1122,40.53333333333333,-520.5333333333333,57.6
1123,42.666666666666664,-522.6666666666666,68.26666666666667
1124,40.53333333333333,-522.6666666666666,70.4
1125,42.666666666666664,-520.5333333333333,66.13333333333333
1126,40.53333333333333,-520.5333333333333,57.6
1127,42.666666666666664,-526.9333333333333,61.86666666666667
1128,36.266666666666666,-524.8,61.86666666666667
1129,44.8,-526.9333333333333,68.26666666666667
1130,38.4,-522.6666666666666,70.4
1131,40.53333333333333,-520.5333333333333,68.26666666666667
1132,46.93333333333333,-522.6666666666666,68.26666666666667
1133,42.666666666666664,-520.5333333333333,64.0
1134,38.4,-526.9333333333333,61.86666666666667
1135,36.266666666666666,-518.4,51.2
1136,38.4,-524.8,61.86666666666667
1137,55.46666666666667,-518.4,85.33333333333333
1138,38.4,-520.5333333333333,64.0
1139,44.8,-520.5333333333333,66.13333333333333
1140,46.93333333333333,-522.6666666666666,70.4
1141,46.93333333333333,-526.9333333333333,70.4
1142,38.4,-520.5333333333333,74.66666666666667
1143,38.4,-524.8,59.733333333333334
1144,38.4,-522.6666666666666,61.86666666666667
1145,38.4,-520.5333333333333,59.733333333333334
1146,34.13333333333333,-529.0666666666666,74.66666666666667
1147,42.666666666666664,-529.0666666666666,57.6
1148,40.53333333333333,-522.6666666666666,51.2
1149,40.53333333333333,-522.6666666666666,53.333333333333336
1150,42.666666666666664,-524.8,55.46666666666667
1151,44.8,-526.9333333333333,53.333333333333336
1152,38.4,-529.0666666666666,51.2
1153,40.53333333333333,-526.9333333333333,57.6
1154,34.13333333333333,-524.8,53.333333333333336
1155,44.8,-533.3333333333334,51.2
1156,36.266666666666666,-531.2,55.46666666666667
1157,29.866666666666667,-520.5333333333333,64.0
1158,40.53333333333333,-531.2,61.86666666666667
1159,40.53333333333333,-524.8,64.0
1160,36.266666666666666,-531.2,59.733333333333334
1161,40.53333333333333,-533.3333333333334,64.0
1162,38.4,-529.0666666666666,68.26666666666667
1163,40.53333333333333,-522.6666666666666,64.0
1164,42.666666666666664,-529.0666666666666,61.86666666666667
1165,38.4,-520.5333333333333,57.6
1166,40.53333333333333,-524.8,64.0
1167,38.4,-522.6666666666666,68.26666666666667
1168,34.13333333333333,-516.2666666666667,68.26666666666667
1169,44.8,-518.4,66.13333333333333
1170,36.266666666666666,-514.1333333333333,68.26666666666667
1171,42.666666666666664,-514.1333333333333,66.13333333333333
1172,36.266666666666666,-512.0,72.53333333333333
1173,44.8,-514.1333333333333,78.93333333333334
1174,42.666666666666664,-512.0,70.4
1175,44.8,-516.2666666666667,61.86666666666667
1176,42.666666666666664,-512.0,70.4
1177,44.8,-516.2666666666667,76.8
1178,46.93333333333333,-520.5333333333333,72.53333333333333
1179,46.93333333333333,-518.4,72.53333333333333
1180,40.53333333333333,-516.2666666666667,72.53333333333333
1181,42.666666666666664,-522.6666666666666,74.66666666666667
1182,38.4,-520.5333333333333,68.26666666666667
1183,40.53333333333333,-522.6666666666666,64.0
1184,46.93333333333333,-526.9333333333333,74.66666666666667
1185,36.266666666666666,-522.6666666666666,68.26666666666667
1186,36.266666666666666,-520.5333333333333,70.4
1187,34.13333333333333,-522.6666666666666,64.0
1188,36.266666666666666,-520.5333333333333,61.86666666666667
1189,40.53333333333333,-526.9333333333333,66.13333333333333
1190,40.53333333333333,-522.6666666666666,66.13333333333333
1191,36.266666666666666,-518.4,64.0
1192,32.0,-518.4,61.86666666666667
1193,36.266666666666666,-524.8,70.4
1194,40.53333333333333,-522.6666666666666,64.0
1195,38.4,-522.6666666666666,70.4
1196,34.13333333333333,-522.6666666666666,70.4
1197,36.266666666666666,-516.2666666666667,72.53333333333333
1198,40.53333333333333,-518.4,70.4
1199,36.266666666666666,-522.6666666666666,72.53333333333333
1200,36.266666666666666,-518.4,78.93333333333334
1201,38.4,-522.6666666666666,70.4
1202,34.13333333333333,-516.2666666666667,68.26666666666667
1203,40.53333333333333,-516.2666666666667,72.53333333333333
1204,42.666666666666664,-516.2666666666667,64.0
1205,42.666666666666664,-522.6666666666666,61.86666666666667
1206,46.93333333333333,-524.8,66.13333333333333
1207,38.4,-522.6666666666666,74.66666666666667
1208,40.53333333333333,-520.5333333333333,72.53333333333333
1209,34.13333333333333,-518.4,64.0
1210,38.4,-524.8,81.06666666666666
1211,40.53333333333333,-518.4,74.66666666666667
1212,40.53333333333333,-516.2666666666667,74.66666666666667
1213,42.666666666666664,-520.5333333333333,68.26666666666667
1214,44.8,-518.4,70.4
1215,36.266666666666666,-522.6666666666666,70.4
1216,42.666666666666664,-518.4,74.66666666666667
1217,38.4,-522.6666666666666,72.53333333333333
1218,40.53333333333333,-518.4,72.53333333333333
1219,44.8,-522.6666666666666,61.86666666666667
1220,38.4,-520.5333333333333,74.66666666666667
1221,32.0,-522.6666666666666,74.66666666666667
1222,40.53333333333333,-522.6666666666666,72.53333333333333
1223,40.53333333333333,-520.5333333333333,72.53333333333333
1224,38.4,-518.4,74.66666666666667
1225,40.53333333333333,-522.6666666666666,70.4
1226,44.8,-518.4,70.4
1227,36.266666666666666,-518.4,72.53333333333333
1228,42.666666666666664,-526.9333333333333,74.66666666666667
1229,36.266666666666666,-516.2666666666667,74.66666666666667
1230,38.4,-516.2666666666667,74.66666666666667
1231,40.53333333333333,-516.2666666666667,68.26666666666667
1232,38.4,-518.4,74.66666666666667
1233,40.53333333333333,-516.2666666666667,74.66666666666667
1234,40.53333333333333,-514.1333333333333,81.06666666666666
1235,38.4,-522.6666666666666,74.66666666666667
1236,42.666666666666664,-522.6666666666666,68.26666666666667
1237,38.4,-524.8,66.13333333333333
1238,40.53333333333333,-524.8,66.13333333333333
1239,42.666666666666664,-524.8,66.13333333333333
1240,49.06666666666666,-524.8,66.13333333333333
1241,42.666666666666664,-529.0666666666666,74.66666666666667
1242,42.666666666666664,-524.8,61.86666666666667
1243,42.666666666666664,-526.9333333333333,61.86666666666667
1244,42.666666666666664,-518.4,55.46666666666667
1245,59.733333333333334,-531.2,74.66666666666667
1246,42.666666666666664,-526.9333333333333,68.26666666666667
1247,44.8,-524.8,61.86666666666667
1248,46.93333333333333,-524.8,66.13333333333333
1249,42.666666666666664,-524.8,61.86666666666667
1250,42.666666666666664,-526.9333333333333,57.6
1251,42.666666666666664,-529.0666666666666,64.0
1252,44.8,-529.0666666666666,66.13333333333333
1253,38.4,-522.6666666666666,61.86666666666667
1254,42.666666666666664,-526.9333333333333,59.733333333333334
1255,46.93333333333333,-522.6666666666666,57.6
1256,42.666666666666664,-522.6666666666666,59.733333333333334
1257,44.8,-516.2666666666667,59.733333333333334
1258,40.53333333333333,-522.6666666666666,59.733333333333334
1259,44.8,-520.5333333333333,55.46666666666667
1260,44.8,-524.8,64.0
1261,40.53333333333333,-520.5333333333333,55.46666666666667
1262,42.666666666666664,-522.6666666666666,57.6
1263,40.53333333333333,-516.2666666666667,59.733333333333334
1264,42.666666666666664,-520.5333333333333,57.6
1265,44.8,-524.8,61.86666666666667
1266,42.666666666666664,-516.2666666666667,61.86666666666667
1267,40.53333333333333,-507.73333333333335,66.13333333333333
1268,44.8,-524.8,59.733333333333334
1269,44.8,-520.5333333333333,59.733333333333334
1270,44.8,-520.5333333333333,70.4
1271,49.06666666666666,-524.8,55.46666666666667
1272,44.8,-522.6666666666666,59.733333333333334
1273,40.53333333333333,-520.5333333333333,61.86666666666667
1274,44.8,-524.8,49.06666666666666
1275,46.93333333333333,-520.5333333333333,64.0
1276,44.8,-522.6666666666666,57.6
1277,46.93333333333333,-522.6666666666666,59.733333333333334
1278,44.8,-522.6666666666666,49.06666666666666
1279,49.06666666666666,-526.9333333333333,68.26666666666667
1280,42.666666666666664,-526.9333333333333,61.86666666666667
1281,44.8,-524.8,59.733333333333334
1282,46.93333333333333,-529.0666666666666,66.13333333333333
1283,38.4,-524.8,66.13333333333333
1284,49.06666666666666,-531.2,57.6
1285,42.666666666666664,-531.2,68.26666666666667
1286,34.13333333333333,-526.9333333333333,66.13333333333333
1287,36.266666666666666,-533.3333333333334,57.6
1288,36.266666666666666,-533.3333333333334,53.333333333333336
1289,40.53333333333333,-509.8666666666667,57.6
1290,34.13333333333333,-529.0666666666666,55.46666666666667
1291,36.266666666666666,-524.8,61.86666666666667
1292,29.866666666666667,-524.8,51.2
1293,25.6,-518.4,53.333333333333336
1294,32.0,-522.6666666666666,55.46666666666667
1295,29.866666666666667,-524.8,59.733333333333334
1296,36.266666666666666,-518.4,64.0
1297,32.0,-520.5333333333333,55.46666666666667
1298,38.4,-518.4,61.86666666666667
1299,42.666666666666664,-518.4,66.13333333333333
1300,38.4,-518.4,66.13333333333333
1301,40.53333333333333,-516.2666666666667,59.733333333333334
1302,34.13333333333333,-518.4,61.86666666666667
1303,36.266666666666666,-526.9333333333333,57.6
1304,42.666666666666664,-524.8,70.4
1305,44.8,-524.8,72.53333333333333
1306,46.93333333333333,-524.8,53.333333333333336
1307,46.93333333333333,-526.9333333333333,61.86666666666667
1308,40.53333333333333,-524.8,57.6
1309,44.8,-520.5333333333333,64.0
1310,49.06666666666666,-529.0666666666666,55.46666666666667
1311,42.666666666666664,-512.0,70.4
1312,49.06666666666666,-526.9333333333333,55.46666666666667
1313,44.8,-526.9333333333333,51.2
1314,46.93333333333333,-526.9333333333333,53.333333333333336
1315,44.8,-524.8,42.666666666666664
1316,42.666666666666664,-526.9333333333333,57.6
1317,42.666666666666664,-524.8,42.666666666666664
1318,44.8,-526.9333333333333,46.93333333333333
1319,46.93333333333333,-526.9333333333333,55.46666666666667
1320,42.666666666666664,-529.0666666666666,53.333333333333336
1321,40.53333333333333,-518.4,51.2
1322,46.93333333333333,-524.8,57.6
1323,44.8,-522.6666666666666,51.2
1324,42.666666666666664,-524.8,49.06666666666666
1325,44.8,-520.5333333333333,55.46666666666667
1326,36.266666666666666,-522.6666666666666,55.46666666666667
1327,36.266666666666666,-522.6666666666666,57.6
1328,40.53333333333333,-526.9333333333333,61.86666666666667
1329,36.266666666666666,-526.9333333333333,53.333333333333336
1330,36.266666666666666,-522.6666666666666,53.333333333333336
1331,36.266666666666666,-529.0666666666666,49.06666666666666
1332,27.733333333333334,-533.3333333333334,57.6
1333,38.4,-531.2,51.2
1334,42.666666666666664,-531.2,42.666666666666664
1335,42.666666666666664,-531.2,49.06666666666666
1336,38.4,-529.0666666666666,49.06666666666666
1337,49.06666666666666,-533.3333333333334,55.46666666666667
1338,44.8,-533.3333333333334,68.26666666666667
1339,38.4,-533.3333333333334,68.26666666666667
1340,44.8,-533.3333333333334,64.0
1341,44.8,-533.3333333333334,57.6
1342,40.53333333333333,-531.2,61.86666666666667
1343,42.666666666666664,-531.2,53.333333333333336
1344,38.4,-526.9333333333333,70.4
1345,36.266666666666666,-522.6666666666666,59.733333333333334
1346,42.666666666666664,-507.73333333333335,64.0
1347,40.53333333333333,-499.2,61.86666666666667
1348,38.4,-499.2,61.86666666666667
1349,36.266666666666666,-482.1333333333333,55.46666666666667
1350,42.666666666666664,-480.0,59.733333333333334
1351,44.8,-482.1333333333333,68.26666666666667
1352,46.93333333333333,-486.4,70.4
1353,38.4,-480.0,74.66666666666667
1354,40.53333333333333,-484.26666666666665,72.53333333333333
1355,51.2,-490.6666666666667,83.2
1356,49.06666666666666,-501.3333333333333,83.2
1357,49.06666666666666,-505.59999999999997,83.2
1358,55.46666666666667,-505.59999999999997,89.6
1359,51.2,-505.59999999999997,93.86666666666666
1360,46.93333333333333,-512.0,91.73333333333333
1361,44.8,-501.3333333333333,81.06666666666666
1362,44.8,-499.2,85.33333333333333
1363,36.266666666666666,-503.46666666666664,81.06666666666666
1364,38.4,-501.3333333333333,72.53333333333333
1365,23.466666666666665,-492.8,72.53333333333333
1366,34.13333333333333,-490.6666666666667,64.0
1367,36.266666666666666,-490.6666666666667,70.4
1368,32.0,-494.93333333333334,66.13333333333333
1369,34.13333333333333,-494.93333333333334,70.4
1370,25.6,-505.59999999999997,74.66666666666667
1371,32.0,-509.8666666666667,59.733333333333334
1372,32.0,-507.73333333333335,66.13333333333333
1373,32.0,-516.2666666666667,74.66666666666667
1374,27.733333333333334,-516.2666666666667,70.4
1375,32.0,-518.4,72.53333333333333
1376,46.93333333333333,-516.2666666666667,74.66666666666667
1377,38.4,-522.6666666666666,59.733333333333334
1378,38.4,-518.4,64.0
1379,34.13333333333333,-512.0,61.86666666666667
1380,32.0,-509.8666666666667,57.6
1381,36.266666666666666,-505.59999999999997,55.46666666666667
1382,32.0,-503.46666666666664,61.86666666666667
1383,34.13333333333333,-503.46666666666664,49.06666666666666
1384,27.733333333333334,-501.3333333333333,40.53333333333333
1385,29.866666666666667,-503.46666666666664,36.266666666666666
1386,34.13333333333333,-509.8666666666667,27.733333333333334
1387,42.666666666666664,-518.4,21.333333333333332
1388,34.13333333333333,-526.9333333333333,23.466666666666665
1389,21.333333333333332,-520.5333333333333,23.466666666666665
1390,29.866666666666667,-529.0666666666666,14.933333333333334
1391,34.13333333333333,-539.7333333333333,4.266666666666667
1392,27.733333333333334,-531.2,10.666666666666666
1393,36.266666666666666,-537.6,2.1333333333333333
1394,34.13333333333333,-535.4666666666667,-4.266666666666667
1395,36.266666666666666,-539.7333333333333,0.0
1396,40.53333333333333,-539.7333333333333,-8.533333333333333
1397,36.266666666666666,-533.3333333333334,-14.933333333333334
1398,44.8,-533.3333333333334,-19.2
1399,44.8,-539.7333333333333,-10.666666666666666
1400,51.2,-533.3333333333334,-25.6
1401,49.06666666666666,-535.4666666666667,-21.333333333333332
1402,42.666666666666664,-529.0666666666666,-38.4
1403,36.266666666666666,-535.4666666666667,-36.266666666666666
1404,46.93333333333333,-529.0666666666666,-36.266666666666666
1405,42.666666666666664,-529.0666666666666,-42.666666666666664
1406,46.93333333333333,-529.0666666666666,-40.53333333333333
1407,44.8,-533.3333333333334,-59.733333333333334
1408,40.53333333333333,-531.2,-53.333333333333336
1409,40.53333333333333,-533.3333333333334,-61.86666666666667
1410,40.53333333333333,-531.2,-59.733333333333334
1411,36.266666666666666,-533.3333333333334,-59.733333333333334
1412,36.266666666666666,-537.6,-61.86666666666667
1413,29.866666666666667,-535.4666666666667,-66.13333333333333
1414,34.13333333333333,-537.6,-70.4
1415,25.6,-535.4666666666667,-72.53333333333333
1416,34.13333333333333,-541.8666666666667,-74.66666666666667
1417,29.866666666666667,-552.5333333333333,-87.46666666666667
1418,38.4,-552.5333333333333,-81.06666666666666
1419,36.266666666666666,-552.5333333333333,-93.86666666666666
1420,36.266666666666666,-550.4,-85.33333333333333
1421,27.733333333333334,-552.5333333333333,-104.53333333333333
1422,32.0,-556.8,-102.4
1423,29.866666666666667,-563.2,-102.4
1424,32.0,-552.5333333333333,-102.4
1425,32.0,-552.5333333333333,-106.66666666666667
1426,36.266666666666666,-550.4,-108.8
1427,36.266666666666666,-541.8666666666667,-98.13333333333333
1428,29.866666666666667,-535.4666666666667,-104.53333333333333
1429,40.53333333333333,-535.4666666666667,-108.8
1430,36.266666666666666,-531.2,-110.93333333333334
1431,42.666666666666664,-533.3333333333334,-96.0
1432,36.266666666666666,-529.0666666666666,-104.53333333333333
1433,27.733333333333334,-529.0666666666666,-102.4
1434,36.266666666666666,-533.3333333333334,-108.8
1435,32.0,-529.0666666666666,-106.66666666666667
1436,29.866666666666667,-526.9333333333333,-106.66666666666667
1437,34.13333333333333,-529.0666666666666,-121.6
1438,38.4,-531.2,-115.2
1439,42.666666666666664,-529.0666666666666,-119.46666666666667
1440,32.0,-531.2,-123.73333333333333
1441,32.0,-526.9333333333333,-130.13333333333333
1442,42.666666666666664,-535.4666666666667,-125.86666666666666
1443,38.4,-529.0666666666666,-128.0
1444,40.53333333333333,-533.3333333333334,-136.53333333333333
1445,34.13333333333333,-529.0666666666666,-145.06666666666666
1446,36.266666666666666,-531.2,-145.06666666666666
1447,36.266666666666666,-537.6,-140.8
1448,40.53333333333333,-529.0666666666666,-160.0
1449,23.466666666666665,-529.0666666666666,-162.13333333333333
1450,25.6,-529.0666666666666,-160.0
1451,29.866666666666667,-526.9333333333333,-162.13333333333333
1452,36.266666666666666,-533.3333333333334,-179.2
1453,36.266666666666666,-535.4666666666667,-172.8
1454,36.266666666666666,-531.2,-179.2
1455,34.13333333333333,-526.9333333333333,-179.2
1456,25.6,-526.9333333333333,-183.46666666666667
1457,34.13333333333333,-526.9333333333333,-192.0
1458,29.866666666666667,-529.0666666666666,-196.26666666666665
1459,21.333333333333332,-531.2,-194.13333333333333
1460,21.333333333333332,-541.8666666666667,-198.4
1461,23.466666666666665,-548.2666666666667,-213.33333333333334
1462,21.333333333333332,-546.1333333333333,-209.06666666666666
1463,-2.1333333333333333,-571.7333333333333,-213.33333333333334
1464,8.533333333333333,-563.2,-204.8
1465,0.0,-567.4666666666667,-217.6
1466,0.0,-576.0,-234.66666666666666
1467,2.1333333333333333,-578.1333333333333,-230.4
1468,12.8,-582.4,-253.86666666666667
1469,17.066666666666666,-597.3333333333334,-262.4
1470,6.4,-616.5333333333333,-279.46666666666664
1471,8.533333333333333,-620.8,-300.8
1472,8.533333333333333,-631.4666666666667,-305.06666666666666
1473,-12.8,-652.8,-302.93333333333334
1474,-34.13333333333333,-661.3333333333334,-322.1333333333333
1475,-53.333333333333336,-667.7333333333333,-330.6666666666667
1476,-76.8,-676.2666666666667,-347.73333333333335
1477,-98.13333333333333,-697.6,-364.8
1478,-68.26666666666667,-691.2,-373.3333333333333
1479,-76.8,-689.0666666666666,-362.6666666666667
1480,-68.26666666666667,-665.6,-375.46666666666664
1481,-83.2,-672.0,-362.6666666666667
1482,-34.13333333333333,-665.6,-373.3333333333333
1483,-14.933333333333334,-659.2,-366.93333333333334
1484,-10.666666666666666,-669.8666666666667,-356.26666666666665
1485,-10.666666666666666,-657.0666666666666,-349.8666666666667
1486,8.533333333333333,-627.2,-356.26666666666665
1487,-12.8,-627.2,-317.8666666666667
1488,12.8,-631.4666666666667,-328.5333333333333
1489,-2.1333333333333333,-593.0666666666666,-330.6666666666667
1490,12.8,-593.0666666666666,-315.73333333333335
1491,-4.266666666666667,-601.6,-292.26666666666665
1492,21.333333333333332,-599.4666666666667,-300.8
1493,10.666666666666666,-597.3333333333334,-290.1333333333333
1494,17.066666666666666,-580.2666666666667,-298.6666666666667
1495,19.2,-563.2,-309.3333333333333
1496,27.733333333333334,-565.3333333333334,-311.46666666666664
1497,27.733333333333334,-561.0666666666666,-294.4
1498,25.6,-550.4,-307.2
1499,17.066666666666666,-533.3333333333334,-309.3333333333333
1500,25.6,-541.8666666666667,-317.8666666666667
1501,10.666666666666666,-554.6666666666666,-300.8
1502,4.266666666666667,-552.5333333333333,-309.3333333333333
1503,-10.666666666666666,-571.7333333333333,-300.8
1504,-2.1333333333333333,-580.2666666666667,-320.0
1505,-6.4,-552.5333333333333,-343.46666666666664
1506,-21.333333333333332,-578.1333333333333,-332.8
1507,-19.2,-584.5333333333333,-341.3333333333333
1508,-14.933333333333334,-580.2666666666667,-356.26666666666665
1509,-27.733333333333334,-578.1333333333333,-381.8666666666667
1510,-29.866666666666667,-576.0,-384.0
1511,-29.866666666666667,-554.6666666666666,-401.06666666666666
1512,-25.6,-558.9333333333333,-396.8
1513,-25.6,-561.0666666666666,-403.2
1514,-19.2,-558.9333333333333,-405.3333333333333
1515,-21.333333333333332,-561.0666666666666,-409.6
1516,-19.2,-565.3333333333334,-413.8666666666667
1517,-21.333333333333332,-558.9333333333333,-403.2
1518,-19.2,-563.2,-392.5333333333333
1519,-21.333333333333332,-563.2,-398.93333333333334
1520,-10.666666666666666,-556.8,-392.5333333333333
1521,-12.8,-552.5333333333333,-379.73333333333335
1522,-6.4,-544.0,-371.2
1523,-10.666666666666666,-535.4666666666667,-358.4
1524,-6.4,-529.0666666666666,-343.46666666666664
1525,-10.666666666666666,-518.4,-343.46666666666664
1526,-8.533333333333333,-505.59999999999997,-332.8
1527,-10.666666666666666,-490.6666666666667,-324.26666666666665
1528,-4.266666666666667,-484.26666666666665,-324.26666666666665
1529,0.0,-482.1333333333333,-313.6
1530,-12.8,-467.2,-315.73333333333335
1531,6.4,-467.2,-317.8666666666667
1532,-10.666666666666666,-467.2,-320.0
1533,12.8,-473.59999999999997,-313.6
1534,21.333333333333332,-469.3333333333333,-315.73333333333335
1535,27.733333333333334,-471.46666666666664,-315.73333333333335
1536,29.866666666666667,-477.8666666666667,-307.2
1537,17.066666666666666,-482.1333333333333,-311.46666666666664
1538,19.2,-480.0,-309.3333333333333
1539,2.1333333333333333,-477.8666666666667,-313.6
1540,-4.266666666666667,-482.1333333333333,-317.8666666666667
1541,-2.1333333333333333,-492.8,-322.1333333333333
1542,0.0,-480.0,-317.8666666666667
1543,-23.466666666666665,-488.5333333333333,-337.06666666666666
1544,-21.333333333333332,-482.1333333333333,-334.93333333333334
1545,-21.333333333333332,-484.26666666666665,-337.06666666666666
1546,-4.266666666666667,-486.4,-341.3333333333333
1547,-29.866666666666667,-484.26666666666665,-345.6
1548,-10.666666666666666,-501.3333333333333,-349.8666666666667
1549,4.266666666666667,-494.93333333333334,-352.0
1550,-25.6,-503.46666666666664,-354.1333333333333
1551,12.8,-503.46666666666664,-352.0
1552,-23.466666666666665,-497.06666666666666,-360.5333333333333
1553,-14.933333333333334,-507.73333333333335,-362.6666666666667
1554,4.266666666666667,-522.6666666666666,-360.5333333333333
1555,8.533333333333333,-516.2666666666667,-371.2
1556,-14.933333333333334,-516.2666666666667,-373.3333333333333
1557,-4.266666666666667,-512.0,-358.4
1558,-4.266666666666667,-499.2,-354.1333333333333
1559,-6.4,-503.46666666666664,-356.26666666666665
1560,21.333333333333332,-501.3333333333333,-349.8666666666667
1561,-8.533333333333333,-490.6666666666667,-356.26666666666665
1562,-10.666666666666666,-497.06666666666666,-349.8666666666667
1563,-4.266666666666667,-486.4,-349.8666666666667
1564,-12.8,-480.0,-349.8666666666667
1565,17.066666666666666,-492.8,-341.3333333333333
1566,2.1333333333333333,-488.5333333333333,-349.8666666666667
1567,0.0,-477.8666666666667,-341.3333333333333
1568,10.666666666666666,-482.1333333333333,-334.93333333333334
1569,12.8,-477.8666666666667,-339.2
1570,23.466666666666665,-492.8,-345.6
1571,25.6,-494.93333333333334,-332.8
1572,23.466666666666665,-499.2,-332.8
1573,29.866666666666667,-488.5333333333333,-332.8
1574,12.8,-490.6666666666667,-339.2
1575,19.2,-482.1333333333333,-349.8666666666667
1576,25.6,-484.26666666666665,-337.06666666666666
1577,19.2,-490.6666666666667,-349.8666666666667
1578,21.333333333333332,-490.6666666666667,-347.73333333333335
1579,23.466666666666665,-486.4,-352.0
1580,34.13333333333333,-492.8,-345.6
1581,32.0,-490.6666666666667,-337.06666666666666
1582,23.466666666666665,-499.2,-341.3333333333333
1583,23.466666666666665,-494.93333333333334,-345.6
1584,29.866666666666667,-503.46666666666664,-341.3333333333333
1585,21.333333333333332,-494.93333333333334,-332.8
1586,23.466666666666665,-499.2,-334.93333333333334
1587,25.6,-501.3333333333333,-330.6666666666667
1588,29.866666666666667,-497.06666666666666,-328.5333333333333
1589,23.466666666666665,-501.3333333333333,-317.8666666666667
1590,27.733333333333334,-494.93333333333334,-320.0
1591,25.6,-499.2,-315.73333333333335
1592,55.46666666666667,-492.8,-311.46666666666664
1593,29.866666666666667,-499.2,-315.73333333333335
1594,38.4,-505.59999999999997,-313.6
1595,40.53333333333333,-503.46666666666664,-309.3333333333333
1596,38.4,-499.2,-317.8666666666667
1597,34.13333333333333,-499.2,-313.6
1598,38.4,-501.3333333333333,-302.93333333333334
1599,44.8,-505.59999999999997,-302.93333333333334
1600,46.93333333333333,-499.2,-313.6
1601,49.06666666666666,-492.8,-313.6
1602,40.53333333333333,-488.5333333333333,-313.6
1603,49.06666666666666,-490.6666666666667,-309.3333333333333
1604,42.666666666666664,-484.26666666666665,-313.6
1605,49.06666666666666,-486.4,-302.93333333333334
1606,42.666666666666664,-477.8666666666667,-298.6666666666667
1607,40.53333333333333,-469.3333333333333,-296.5333333333333
1608,44.8,-477.8666666666667,-292.26666666666665
1609,44.8,-475.73333333333335,-288.0
1610,46.93333333333333,-469.3333333333333,-279.46666666666664
1611,51.2,-475.73333333333335,-285.8666666666667
1612,44.8,-469.3333333333333,-277.3333333333333
1613,42.666666666666664,-465.06666666666666,-264.5333333333333
1614,61.86666666666667,-473.59999999999997,-268.8
1615,49.06666666666666,-462.93333333333334,-264.5333333333333
1616,44.8,-462.93333333333334,-256.0
1617,44.8,-467.2,-262.4
1618,42.666666666666664,-467.2,-253.86666666666667
1619,36.266666666666666,-465.06666666666666,-258.1333333333333
1620,40.53333333333333,-467.2,-249.6
1621,27.733333333333334,-465.06666666666666,-266.6666666666667
1622,27.733333333333334,-469.3333333333333,-260.26666666666665
1623,25.6,-467.2,-258.1333333333333
1624,23.466666666666665,-456.5333333333333,-268.8
1625,23.466666666666665,-458.6666666666667,-268.8
1626,21.333333333333332,-458.6666666666667,-264.5333333333333
1627,25.6,-456.5333333333333,-264.5333333333333
1628,27.733333333333334,-458.6666666666667,-264.5333333333333
1629,21.333333333333332,-454.4,-266.6666666666667
1630,25.6,-450.1333333333333,-273.06666666666666
1631,34.13333333333333,-448.0,-262.4
1632,32.0,-450.1333333333333,-262.4
1633,32.0,-445.8666666666667,-260.26666666666665
1634,34.13333333333333,-443.73333333333335,-253.86666666666667
1635,27.733333333333334,-437.3333333333333,-247.46666666666667
1636,40.53333333333333,-426.6666666666667,-230.4
1637,32.0,-428.8,-230.4
1638,29.866666666666667,-433.06666666666666,-217.6
1639,25.6,-422.4,-226.13333333333333
1640,34.13333333333333,-426.6666666666667,-226.13333333333333
1641,34.13333333333333,-422.4,-219.73333333333332
1642,40.53333333333333,-424.5333333333333,-211.2
1643,38.4,-426.6666666666667,-209.06666666666666
1644,40.53333333333333,-428.8,-206.93333333333334
1645,42.666666666666664,-433.06666666666666,-202.66666666666666
1646,42.666666666666664,-433.06666666666666,-215.46666666666667
1647,36.266666666666666,-435.2,-202.66666666666666
1648,42.666666666666664,-439.46666666666664,-209.06666666666666
1649,38.4,-435.2,-217.6
1650,29.866666666666667,-433.06666666666666,-211.2
1651,27.733333333333334,-430.93333333333334,-215.46666666666667
1652,23.466666666666665,-437.3333333333333,-217.6
1653,23.466666666666665,-435.2,-217.6
1654,10.666666666666666,-433.06666666666666,-228.26666666666665
1655,12.8,-433.06666666666666,-226.13333333333333
1656,14.933333333333334,-424.5333333333333,-228.26666666666665
1657,6.4,-428.8,-230.4
1658,21.333333333333332,-435.2,-219.73333333333332
1659,23.466666666666665,-424.5333333333333,-226.13333333333333
1660,25.6,-424.5333333333333,-228.26666666666665
1661,32.0,-428.8,-219.73333333333332
1662,25.6,-426.6666666666667,-224.0
1663,32.0,-420.26666666666665,-217.6
1664,27.733333333333334,-420.26666666666665,-221.86666666666667
1665,36.266666666666666,-420.26666666666665,-215.46666666666667
1666,27.733333333333334,-416.0,-215.46666666666667
1667,38.4,-418.1333333333333,-213.33333333333334
1668,32.0,-422.4,-217.6
1669,36.266666666666666,-424.5333333333333,-221.86666666666667
1670,38.4,-433.06666666666666,-217.6
1671,23.466666666666665,-435.2,-213.33333333333334
1672,27.733333333333334,-439.46666666666664,-209.06666666666666
1673,23.466666666666665,-439.46666666666664,-198.4
1674,23.466666666666665,-443.73333333333335,-192.0
1675,17.066666666666666,-448.0,-194.13333333333333
1676,25.6,-458.6666666666667,-194.13333333333333
1677,29.866666666666667,-460.8,-192.0
1678,29.866666666666667,-465.06666666666666,-179.2
1679,29.866666666666667,-471.46666666666664,-181.33333333333334
1680,19.2,-471.46666666666664,-189.86666666666667
1681,29.866666666666667,-473.59999999999997,-183.46666666666667
1682,29.866666666666667,-473.59999999999997,-183.46666666666667
1683,32.0,-482.1333333333333,-181.33333333333334
1684,38.4,-488.5333333333333,-185.6
1685,32.0,-486.4,-196.26666666666665
1686,27.733333333333334,-486.4,-194.13333333333333
1687,25.6,-484.26666666666665,-198.4
1688,25.6,-477.8666666666667,-200.53333333333333
1689,19.2,-475.73333333333335,-185.6
1690,17.066666666666666,-482.1333333333333,-185.6
1691,8.533333333333333,-486.4,-177.06666666666666
1692,17.066666666666666,-497.06666666666666,-162.13333333333333
1693,10.666666666666666,-497.06666666666666,-172.8
1694,17.066666666666666,-509.8666666666667,-151.46666666666667
1695,12.8,-512.0,-160.0
1696,12.8,-514.1333333333333,-155.73333333333332
1697,17.066666666666666,-520.5333333333333,-160.0
1698,23.466666666666665,-524.8,-166.4
1699,23.466666666666665,-518.4,-183.46666666666667
1700,29.866666666666667,-524.8,-196.26666666666665
1701,32.0,-529.0666666666666,-202.66666666666666
1702,27.733333333333334,-518.4,-200.53333333333333
1703,29.866666666666667,-514.1333333333333,-213.33333333333334
1704,29.866666666666667,-512.0,-198.4
1705,29.866666666666667,-514.1333333333333,-192.0
1706,32.0,-518.4,-187.73333333333332
1707,14.933333333333334,-516.2666666666667,-170.66666666666666
1708,21.333333333333332,-524.8,-168.53333333333333
1709,14.933333333333334,-522.6666666666666,-160.0
1710,0.0,-524.8,-155.73333333333332
1711,-8.533333333333333,-526.9333333333333,-151.46666666666667
1712,-17.066666666666666,-524.8,-162.13333333333333
1713,-25.6,-520.5333333333333,-168.53333333333333
1714,-32.0,-522.6666666666666,-177.06666666666666
1715,-25.6,-520.5333333333333,-185.6
1716,-32.0,-514.1333333333333,-183.46666666666667
1717,-21.333333333333332,-514.1333333333333,-183.46666666666667
1718,-12.8,-512.0,-185.6
1719,-6.4,-507.73333333333335,-174.93333333333334
1720,0.0,-503.46666666666664,-170.66666666666666
1721,12.8,-499.2,-164.26666666666665
1722,12.8,-494.93333333333334,-149.33333333333334
1723,25.6,-490.6666666666667,-157.86666666666667
1724,29.866666666666667,-480.0,-155.73333333333332
1725,38.4,-475.73333333333335,-153.6
1726,42.666666666666664,-480.0,-149.33333333333334
1727,49.06666666666666,-477.8666666666667,-145.06666666666666
1728,36.266666666666666,-477.8666666666667,-153.6
1729,25.6,-471.46666666666664,-153.6
1730,29.866666666666667,-475.73333333333335,-164.26666666666665
1731,27.733333333333334,-477.8666666666667,-168.53333333333333
1732,12.8,-482.1333333333333,-183.46666666666667
1733,8.533333333333333,-484.26666666666665,-185.6
1734,2.1333333333333333,-486.4,-187.73333333333332
1735,-2.1333333333333333,-488.5333333333333,-172.8
1736,2.1333333333333333,-499.2,-170.66666666666666
1737,-12.8,-490.6666666666667,-164.26666666666665
1738,-14.933333333333334,-497.06666666666666,-162.13333333333333
1739,-19.2,-501.3333333333333,-157.86666666666667
1740,-10.666666666666666,-503.46666666666664,-142.93333333333334
1741,-8.533333333333333,-507.73333333333335,-140.8
1742,-6.4,-516.2666666666667,-132.26666666666665
1743,0.0,-518.4,-138.66666666666666
1744,4.266666666666667,-516.2666666666667,-130.13333333333333
1745,6.4,-516.2666666666667,-132.26666666666665
1746,10.666666666666666,-516.2666666666667,-134.4
1747,14.933333333333334,-516.2666666666667,-140.8
1748,25.6,-516.2666666666667,-145.06666666666666
1749,32.0,-522.6666666666666,-155.73333333333332
1750,34.13333333333333,-522.6666666666666,-160.0
1751,32.0,-522.6666666666666,-160.0
1752,34.13333333333333,-529.0666666666666,-170.66666666666666
1753,46.93333333333333,-537.6,-168.53333333333333
1754,38.4,-535.4666666666667,-168.53333333333333
1755,34.13333333333333,-533.3333333333334,-168.53333333333333
1756,17.066666666666666,-529.0666666666666,-172.8
1757,23.466666666666665,-526.9333333333333,-160.0
1758,17.066666666666666,-531.2,-136.53333333333333
1759,12.8,-518.4,-155.73333333333332
1760,25.6,-518.4,-157.86666666666667
1761,21.333333333333332,-520.5333333333333,-149.33333333333334
1762,4.266666666666667,-480.0,-140.8
1763,34.13333333333333,-507.73333333333335,-108.8
1764,66.13333333333333,-499.2,-138.66666666666666
1765,40.53333333333333,-482.1333333333333,-66.13333333333333
1766,57.6,-499.2,-104.53333333333333
1767,53.333333333333336,-514.1333333333333,-117.33333333333333
1768,55.46666666666667,-516.2666666666667,-117.33333333333333
1769,55.46666666666667,-516.2666666666667,-128.0
1770,55.46666666666667,-520.5333333333333,-136.53333333333333
1771,40.53333333333333,-531.2,-151.46666666666667
1772,81.06666666666666,-539.7333333333333,-151.46666666666667
1773,51.2,-533.3333333333334,-136.53333333333333
1774,70.4,-541.8666666666667,-142.93333333333334
1775,74.66666666666667,-535.4666666666667,-162.13333333333333
1776,66.13333333333333,-546.1333333333333,-166.4
1777,53.333333333333336,-537.6,-172.8
1778,68.26666666666667,-539.7333333333333,-168.53333333333333
1779,55.46666666666667,-535.4666666666667,-172.8
1780,59.733333333333334,-516.2666666666667,-155.73333333333332
1781,51.2,-499.2,-151.46666666666667
1782,53.333333333333336,-518.4,-142.93333333333334
1783,64.0,-516.2666666666667,-140.8
1784,68.26666666666667,-514.1333333333333,-128.0
1785,76.8,-520.5333333333333,-132.26666666666665
1786,72.53333333333333,-524.8,-125.86666666666666
1787,91.73333333333333,-524.8,-113.06666666666666
1788,68.26666666666667,-552.5333333333333,-130.13333333333333
1789,76.8,-548.2666666666667,-134.4
1790,64.0,-556.8,-132.26666666666665
1791,59.733333333333334,-571.7333333333333,-121.6
1792,55.46666666666667,-582.4,-138.66666666666666
1793,51.2,-571.7333333333333,-187.73333333333332
1794,36.266666666666666,-571.7333333333333,-142.93333333333334
1795,27.733333333333334,-554.6666666666666,-149.33333333333334
1796,19.2,-537.6,-164.26666666666665
1797,27.733333333333334,-541.8666666666667,-153.6
1798,27.733333333333334,-531.2,-140.8
1799,32.0,-533.3333333333334,-149.33333333333334
1800,34.13333333333333,-526.9333333333333,-147.2
1801,19.2,-509.8666666666667,-147.2
1802,38.4,-541.8666666666667,-128.0
1803,74.66666666666667,-524.8,-145.06666666666666
1804,96.0,-535.4666666666667,-113.06666666666666
1805,68.26666666666667,-531.2,-140.8
1806,38.4,-518.4,-132.26666666666665
1807,51.2,-544.0,-140.8
1808,57.6,-556.8,-110.93333333333334
1809,44.8,-537.6,-132.26666666666665
1810,44.8,-548.2666666666667,-128.0
1811,40.53333333333333,-569.6,-136.53333333333333
1812,36.266666666666666,-533.3333333333334,-140.8
1813,40.53333333333333,-563.2,-140.8
1814,42.666666666666664,-561.0666666666666,-142.93333333333334
1815,32.0,-558.9333333333333,-145.06666666666666
1816,32.0,-563.2,-149.33333333333334
1817,61.86666666666667,-552.5333333333333,-147.2
1818,34.13333333333333,-552.5333333333333,-162.13333333333333
1819,17.066666666666666,-550.4,-151.46666666666667
1820,44.8,-550.4,-138.66666666666666
1821,32.0,-522.6666666666666,-123.73333333333333
1822,27.733333333333334,-541.8666666666667,-136.53333333333333
1823,25.6,-554.6666666666666,-132.26666666666665
1824,27.733333333333334,-537.6,-132.26666666666665
1825,36.266666666666666,-522.6666666666666,-136.53333333333333
1826,32.0,-537.6,-123.73333333333333
1827,36.266666666666666,-535.4666666666667,-119.46666666666667
1828,49.06666666666666,-537.6,-121.6
1829,44.8,-531.2,-119.46666666666667
1830,46.93333333333333,-529.0666666666666,-117.33333333333333
1831,38.4,-529.0666666666666,-125.86666666666666
1832,34.13333333333333,-526.9333333333333,-115.2
1833,34.13333333333333,-522.6666666666666,-113.06666666666666
1834,34.13333333333333,-537.6,-125.86666666666666
1835,38.4,-526.9333333333333,-110.93333333333334
1836,34.13333333333333,-539.7333333333333,-119.46666666666667
1837,76.8,-497.06666666666666,-149.33333333333334
1838,55.46666666666667,-531.2,-68.26666666666667
1839,74.66666666666667,-526.9333333333333,-113.06666666666666
1840,51.2,-556.8,-93.86666666666666
1841,53.333333333333336,-535.4666666666667,-104.53333333333333
1842,29.866666666666667,-533.3333333333334,-113.06666666666666
1843,57.6,-531.2,-128.0
1844,61.86666666666667,-537.6,-106.66666666666667
1845,57.6,-544.0,-113.06666666666666
1846,70.4,-535.4666666666667,-117.33333333333333
1847,78.93333333333334,-537.6,-115.2
1848,83.2,-531.2,-119.46666666666667
1849,87.46666666666667,-544.0,-119.46666666666667
1850,85.33333333333333,-529.0666666666666,-110.93333333333334
1851,91.73333333333333,-531.2,-106.66666666666667
1852,85.33333333333333,-539.7333333333333,-106.66666666666667
1853,87.46666666666667,-535.4666666666667,-98.13333333333333
1854,113.06666666666666,-544.0,-104.53333333333333
1855,76.8,-544.0,-104.53333333333333
1856,74.66666666666667,-544.0,-100.26666666666667
1857,74.66666666666667,-548.2666666666667,-102.4
1858,72.53333333333333,-550.4,-100.26666666666667
1859,72.53333333333333,-548.2666666666667,-98.13333333333333
1860,70.4,-546.1333333333333,-110.93333333333334
1861,72.53333333333333,-541.8666666666667,-106.66666666666667
1862,70.4,-548.2666666666667,-98.13333333333333
1863,70.4,-539.7333333333333,-100.26666666666667
1864,81.06666666666666,-531.2,-106.66666666666667
1865,81.06666666666666,-533.3333333333334,-102.4
1866,74.66666666666667,-531.2,-106.66666666666667
1867,81.06666666666666,-531.2,-108.8
1868,74.66666666666667,-524.8,-76.8
1869,83.2,-526.9333333333333,-98.13333333333333
1870,78.93333333333334,-529.0666666666666,-98.13333333333333
1871,85.33333333333333,-531.2,-100.26666666666667
1872,87.46666666666667,-531.2,-93.86666666666666
1873,78.93333333333334,-524.8,-96.0
1874,83.2,-529.0666666666666,-98.13333333333333
1875,81.06666666666666,-533.3333333333334,-98.13333333333333
1876,87.46666666666667,-529.0666666666666,-96.0
1877,83.2,-533.3333333333334,-98.13333333333333
1878,83.2,-533.3333333333334,-98.13333333333333
1879,78.93333333333334,-526.9333333333333,-102.4
1880,76.8,-526.9333333333333,-87.46666666666667
1881,78.93333333333334,-535.4666666666667,-96.0
1882,72.53333333333333,-524.8,-98.13333333333333
1883,70.4,-529.0666666666666,-96.0
1884,68.26666666666667,-533.3333333333334,-104.53333333333333
1885,66.13333333333333,-535.4666666666667,-100.26666666666667
1886,61.86666666666667,-533.3333333333334,-102.4
1887,68.26666666666667,-529.0666666666666,-98.13333333333333
1888,66.13333333333333,-535.4666666666667,-98.13333333333333
1889,68.26666666666667,-529.0666666666666,-96.0
1890,64.0,-531.2,-100.26666666666667
1891,66.13333333333333,-533.3333333333334,-96.0
1892,68.26666666666667,-535.4666666666667,-108.8
1893,55.46666666666667,-529.0666666666666,-106.66666666666667
1894,64.0,-533.3333333333334,-108.8
1895,66.13333333333333,-531.2,-100.26666666666667
1896,66.13333333333333,-531.2,-100.26666666666667
1897,59.733333333333334,-531.2,-104.53333333333333
1898,57.6,-531.2,-102.4
1899,64.0,-531.2,-104.53333333333333
1900,64.0,-537.6,-100.26666666666667
1901,66.13333333333333,-541.8666666666667,-113.06666666666666
1902,55.46666666666667,-535.4666666666667,-98.13333333333333
1903,66.13333333333333,-544.0,-108.8
1904,64.0,-541.8666666666667,-102.4
1905,57.6,-535.4666666666667,-104.53333333333333
1906,61.86666666666667,-541.8666666666667,-102.4
1907,64.0,-537.6,-93.86666666666666
1908,61.86666666666667,-539.7333333333333,-108.8
1909,55.46666666666667,-531.2,-117.33333333333333
1910,53.333333333333336,-533.3333333333334,-117.33333333333333
1911,59.733333333333334,-537.6,-115.2
1912,51.2,-537.6,-121.6
1913,53.333333333333336,-539.7333333333333,-115.2
1914,51.2,-541.8666666666667,-115.2
1915,46.93333333333333,-537.6,-113.06666666666666
1916,57.6,-539.7333333333333,-115.2
1917,55.46666666666667,-537.6,-104.53333333333333
1918,55.46666666666667,-535.4666666666667,-117.33333333333333
1919,64.0,-526.9333333333333,-117.33333333333333
1920,66.13333333333333,-533.3333333333334,-117.33333333333333
1921,59.733333333333334,-533.3333333333334,-108.8
1922,59.733333333333334,-533.3333333333334,-113.06666666666666
1923,57.6,-533.3333333333334,-117.33333333333333
1924,59.733333333333334,-531.2,-113.06666666666666
1925,55.46666666666667,-533.3333333333334,-110.93333333333334
1926,61.86666666666667,-533.3333333333334,-113.06666666666666
1927,64.0,-535.4666666666667,-104.53333333333333
1928,61.86666666666667,-533.3333333333334,-115.2
1929,68.26666666666667,-539.7333333333333,-104.53333333333333
1930,64.0,-531.2,-113.06666666666666
1931,72.53333333333333,-535.4666666666667,-106.66666666666667
1932,68.26666666666667,-537.6,-106.66666666666667
1933,61.86666666666667,-535.4666666666667,-110.93333333333334
1934,66.13333333333333,-535.4666666666667,-108.8
1935,66.13333333333333,-539.7333333333333,-117.33333333333333
1936,64.0,-535.4666666666667,-108.8
1937,68.26666666666667,-537.6,-115.2
1938,61.86666666666667,-539.7333333333333,-110.93333333333334
1939,61.86666666666667,-539.7333333333333,-117.33333333333333
1940,64.0,-546.1333333333333,-117.33333333333333
1941,66.13333333333333,-539.7333333333333,-113.06666666666666
1942,66.13333333333333,-541.8666666666667,-113.06666666666666
1943,61.86666666666667,-535.4666666666667,-117.33333333333333
1944,66.13333333333333,-537.6,-117.33333333333333
1945,64.0,-541.8666666666667,-121.6
1946,57.6,-539.7333333333333,-117.33333333333333
1947,59.733333333333334,-544.0,-121.6
1948,64.0,-541.8666666666667,-117.33333333333333
1949,59.733333333333334,-544.0,-115.2
1950,64.0,-548.2666666666667,-113.06666666666666
1951,59.733333333333334,-544.0,-117.33333333333333
1952,59.733333333333334,-544.0,-110.93333333333334
1953,61.86666666666667,-546.1333333333333,-119.46666666666667
1954,53.333333333333336,-544.0,-110.93333333333334
1955,61.86666666666667,-541.8666666666667,-115.2
1956,57.6,-537.6,-117.33333333333333
1957,55.46666666666667,-533.3333333333334,-115.2
1958,55.46666666666667,-535.4666666666667,-117.33333333333333
1959,51.2,-535.4666666666667,-110.93333333333334
1960,61.86666666666667,-537.6,-115.2
1961,59.733333333333334,-531.2,-110.93333333333334
1962,68.26666666666667,-535.4666666666667,-121.6
1963,64.0,-537.6,-104.53333333333333
1964,66.13333333333333,-537.6,-119.46666666666667
1965,59.733333333333334,-531.2,-113.06666666666666
1966,66.13333333333333,-535.4666666666667,-119.46666666666667
1967,61.86666666666667,-539.7333333333333,-117.33333333333333
1968,61.86666666666667,-531.2,-119.46666666666667
1969,59.733333333333334,-537.6,-117.33333333333333
1970,55.46666666666667,-529.0666666666666,-119.46666666666667
1971,53.333333333333336,-529.0666666666666,-117.33333333333333
1972,57.6,-537.6,-117.33333333333333
1973,59.733333333333334,-535.4666666666667,-119.46666666666667
1974,59.733333333333334,-546.1333333333333,-113.06666666666666
1975,59.733333333333334,-535.4666666666667,-115.2
1976,51.2,-537.6,-110.93333333333334
1977,57.6,-546.1333333333333,-121.6
1978,53.333333333333336,-544.0,-117.33333333333333
1979,55.46666666666667,-541.8666666666667,-113.06666666666666
1980,59.733333333333334,-539.7333333333333,-115.2
1981,55.46666666666667,-539.7333333333333,-123.73333333333333
1982,57.6,-541.8666666666667,-113.06666666666666
1983,55.46666666666667,-539.7333333333333,-113.06666666666666
1984,53.333333333333336,-531.2,-100.26666666666667
1985,53.333333333333336,-533.3333333333334,-113.06666666666666
1986,51.2,-535.4666666666667,-113.06666666666666
1987,59.733333333333334,-535.4666666666667,-121.6
1988,64.0,-541.8666666666667,-117.33333333333333
1989,51.2,-535.4666666666667,-108.8
1990,61.86666666666667,-533.3333333333334,-104.53333333333333
1991,61.86666666666667,-544.0,-108.8
1992,64.0,-539.7333333333333,-106.66666666666667
1993,64.0,-541.8666666666667,-115.2
1994,59.733333333333334,-535.4666666666667,-108.8
1995,64.0,-539.7333333333333,-115.2
1996,61.86666666666667,-535.4666666666667,-108.8
1997,53.333333333333336,-535.4666666666667,-110.93333333333334
1998,57.6,-535.4666666666667,-108.8
1999,55.46666666666667,-531.2,-115.2
2000,55.46666666666667,-535.4666666666667,-102.4
2001,55.46666666666667,-531.2,-113.06666666666666
2002,57.6,-533.3333333333334,-104.53333333333333
2003,64.0,-537.6,-110.93333333333334
2004,55.46666666666667,-537.6,-108.8
2005,57.6,-531.2,-104.53333333333333
2006,46.93333333333333,-524.8,-119.46666666666667
2007,55.46666666666667,-529.0666666666666,-104.53333333333333
2008,64.0,-531.2,-104.53333333333333
2009,61.86666666666667,-533.3333333333334,-102.4
2010,51.2,-531.2,-102.4
2011,57.6,-531.2,-104.53333333333333
2012,55.46666666666667,-537.6,-104.53333333333333
2013,53.333333333333336,-537.6,-102.4
2014,53.333333333333336,-535.4666666666667,-100.26666666666667
2015,51.2,-535.4666666666667,-102.4
2016,51.2,-552.5333333333333,-113.06666666666666
2017,55.46666666666667,-537.6,-102.4
2018,49.06666666666666,-541.8666666666667,-104.53333333333333
2019,49.06666666666666,-535.4666666666667,-110.93333333333334
2020,55.46666666666667,-535.4666666666667,-102.4
2021,53.333333333333336,-531.2,-108.8
2022,55.46666666666667,-526.9333333333333,-110.93333333333334
2023,59.733333333333334,-531.2,-106.66666666666667
2024,57.6,-533.3333333333334,-110.93333333333334
2025,53.333333333333336,-537.6,-104.53333333333333
2026,55.46666666666667,-535.4666666666667,-106.66666666666667
2027,66.13333333333333,-546.1333333333333,-108.8
2028,57.6,-544.0,-106.66666666666667
2029,55.46666666666667,-544.0,-102.4
2030,64.0,-550.4,-102.4
2031,53.333333333333336,-539.7333333333333,-96.0
2032,53.333333333333336,-539.7333333333333,-104.53333333333333
2033,53.333333333333336,-533.3333333333334,-104.53333333333333
2034,59.733333333333334,-531.2,-108.8
2035,46.93333333333333,-529.0666666666666,-108.8
2036,53.333333333333336,-529.0666666666666,-110.93333333333334
2037,51.2,-516.2666666666667,-113.06666666666666
2038,53.333333333333336,-529.0666666666666,-106.66666666666667
2039,53.333333333333336,-531.2,-108.8
2040,51.2,-533.3333333333334,-108.8
2041,55.46666666666667,-537.6,-104.53333333333333
2042,64.0,-541.8666666666667,-102.4
2043,59.733333333333334,-539.7333333333333,-104.53333333333333
2044,46.93333333333333,-541.8666666666667,-98.13333333333333
2045,57.6,-539.7333333333333,-100.26666666666667
2046,57.6,-537.6,-113.06666666666666
2047,51.2,-539.7333333333333,-108.8
2048,55.46666666666667,-537.6,-110.93333333333334
2049,55.46666666666667,-531.2,-110.93333333333334
2050,59.733333333333334,-531.2,-110.93333333333334
2051,51.2,-531.2,-115.2
2052,53.333333333333336,-531.2,-113.06666666666666
2053,51.2,-535.4666666666667,-108.8
2054,55.46666666666667,-537.6,-106.66666666666667
2055,55.46666666666667,-533.3333333333334,-115.2
2056,49.06666666666666,-535.4666666666667,-106.66666666666667
2057,55.46666666666667,-535.4666666666667,-110.93333333333334
2058,53.333333333333336,-537.6,-117.33333333333333
2059,42.666666666666664,-531.2,-108.8
2060,53.333333333333336,-537.6,-113.06666666666666
2061,51.2,-531.2,-115.2
2062,51.2,-529.0666666666666,-110.93333333333334
2063,49.06666666666666,-531.2,-113.06666666666666
2064,59.733333333333334,-533.3333333333334,-115.2
2065,51.2,-533.3333333333334,-115.2
2066,59.733333333333334,-537.6,-113.06666666666666
2067,46.93333333333333,-539.7333333333333,-115.2
2068,53.333333333333336,-541.8666666666667,-110.93333333333334
2069,57.6,-541.8666666666667,-113.06666666666666
2070,59.733333333333334,-544.0,-110.93333333333334
2071,55.46666666666667,-546.1333333333333,-113.06666666666666
2072,59.733333333333334,-552.5333333333333,-115.2
2073,53.333333333333336,-548.2666666666667,-119.46666666666667
2074,55.46666666666667,-548.2666666666667,-117.33333333333333
2075,55.46666666666667,-539.7333333333333,-121.6
2076,53.333333333333336,-541.8666666666667,-121.6
2077,55.46666666666667,-535.4666666666667,-119.46666666666667
2078,57.6,-539.7333333333333,-125.86666666666666
2079,53.333333333333336,-537.6,-121.6
2080,61.86666666666667,-535.4666666666667,-117.33333333333333
2081,59.733333333333334,-537.6,-117.33333333333333
2082,53.333333333333336,-535.4666666666667,-115.2
2083,55.46666666666667,-535.4666666666667,-113.06666666666666
2084,53.333333333333336,-537.6,-104.53333333333333
2085,49.06666666666666,-541.8666666666667,-110.93333333333334
2086,55.46666666666667,-539.7333333333333,-108.8
2087,57.6,-535.4666666666667,-110.93333333333334
2088,53.333333333333336,-541.8666666666667,-119.46666666666667
2089,51.2,-539.7333333333333,-117.33333333333333
2090,46.93333333333333,-539.7333333333333,-119.46666666666667
2091,51.2,-539.7333333333333,-119.46666666666667
2092,49.06666666666666,-539.7333333333333,-119.46666666666667
2093,49.06666666666666,-539.7333333333333,-121.6
2094,53.333333333333336,-535.4666666666667,-121.6
2095,51.2,-539.7333333333333,-119.46666666666667
2096,46.93333333333333,-533.3333333333334,-121.6
2097,51.2,-533.3333333333334,-125.86666666666666
2098,49.06666666666666,-531.2,-117.33333333333333
2099,53.333333333333336,-539.7333333333333,-123.73333333333333
2100,46.93333333333333,-535.4666666666667,-125.86666666666666
2101,53.333333333333336,-539.7333333333333,-119.46666666666667
2102,53.333333333333336,-539.7333333333333,-119.46666666666667
2103,53.333333333333336,-539.7333333333333,-117.33333333333333
2104,51.2,-541.8666666666667,-121.6
2105,59.733333333333334,-541.8666666666667,-117.33333333333333
2106,51.2,-541.8666666666667,-119.46666666666667
2107,49.06666666666666,-546.1333333333333,-117.33333333333333
2108,57.6,-544.0,-113.06666666666666
2109,55.46666666666667,-544.0,-117.33333333333333
2110,51.2,-535.4666666666667,-104.53333333333333
2111,46.93333333333333,-539.7333333333333,-108.8
2112,57.6,-533.3333333333334,-110.93333333333334
2113,51.2,-533.3333333333334,-113.06666666666666
2114,53.333333333333336,-535.4666666666667,-119.46666666666667
2115,57.6,-537.6,-128.0
2116,49.06666666666666,-533.3333333333334,-117.33333333333333
2117,59.733333333333334,-531.2,-119.46666666666667
2118,49.06666666666666,-526.9333333333333,-115.2
2119,55.46666666666667,-533.3333333333334,-117.33333333333333
2120,59.733333333333334,-537.6,-110.93333333333334
2121,51.2,-533.3333333333334,-119.46666666666667
2122,46.93333333333333,-529.0666666666666,-119.46666666666667
2123,53.333333333333336,-537.6,-121.6
2124,55.46666666666667,-531.2,-113.06666666666666
2125,55.46666666666667,-537.6,-115.2
2126,59.733333333333334,-541.8666666666667,-117.33333333333333
2127,55.46666666666667,-546.1333333333333,-117.33333333333333
2128,49.06666666666666,-535.4666666666667,-108.8
2129,51.2,-535.4666666666667,-121.6
2130,49.06666666666666,-537.6,-123.73333333333333
2131,46.93333333333333,-531.2,-110.93333333333334
2132,51.2,-535.4666666666667,-117.33333333333333
2133,44.8,-531.2,-115.2
2134,46.93333333333333,-537.6,-117.33333333333333
2135,46.93333333333333,-537.6,-110.93333333333334
2136,53.333333333333336,-537.6,-108.8
2137,83.2,-539.7333333333333,-110.93333333333334
2138,51.2,-541.8666666666667,-117.33333333333333
2139,51.2,-539.7333333333333,-115.2
2140,51.2,-544.0,-115.2
2141,55.46666666666667,-541.8666666666667,-123.73333333333333
2142,51.2,-541.8666666666667,-117.33333333333333
2143,51.2,-537.6,-113.06666666666666
2144,51.2,-539.7333333333333,-115.2
2145,49.06666666666666,-535.4666666666667,-121.6
2146,55.46666666666667,-533.3333333333334,-117.33333333333333
2147,46.93333333333333,-537.6,-113.06666666666666
2148,51.2,-537.6,-117.33333333333333
2149,49.06666666666666,-531.2,-128.0
2150,55.46666666666667,-541.8666666666667,-117.33333333333333
2151,46.93333333333333,-537.6,-113.06666666666666
2152,46.93333333333333,-544.0,-121.6
2153,51.2,-537.6,-115.2
2154,51.2,-533.3333333333334,-117.33333333333333
2155,46.93333333333333,-539.7333333333333,-113.06666666666666
2156,44.8,-539.7333333333333,-110.93333333333334
2157,51.2,-537.6,-119.46666666666667
2158,42.666666666666664,-541.8666666666667,-115.2
2159,49.06666666666666,-533.3333333333334,-117.33333333333333
2160,49.06666666666666,-535.4666666666667,-119.46666666666667
2161,53.333333333333336,-533.3333333333334,-115.2
2162,53.333333333333336,-531.2,-113.06666666666666
2163,49.06666666666666,-535.4666666666667,-117.33333333333333
2164,46.93333333333333,-529.0666666666666,-119.46666666666667
2165,44.8,-535.4666666666667,-110.93333333333334
2166,49.06666666666666,-533.3333333333334,-110.93333333333334
2167,42.666666666666664,-535.4666666666667,-117.33333333333333
2168,46.93333333333333,-544.0,-113.06666666666666
2169,44.8,-535.4666666666667,-121.6
2170,42.666666666666664,-537.6,-117.33333333333333
2171,44.8,-535.4666666666667,-119.46666666666667
2172,49.06666666666666,-531.2,-121.6
2173,46.93333333333333,-531.2,-117.33333333333333
2174,51.2,-535.4666666666667,-113.06666666666666
2175,46.93333333333333,-531.2,-108.8
2176,59.733333333333334,-535.4666666666667,-117.33333333333333
2177,53.333333333333336,-535.4666666666667,-113.06666666666666
2178,51.2,-535.4666666666667,-117.33333333333333
2179,53.333333333333336,-537.6,-117.33333333333333
2180,59.733333333333334,-548.2666666666667,-110.93333333333334
2181,51.2,-539.7333333333333,-115.2
2182,44.8,-535.4666666666667,-110.93333333333334
2183,55.46666666666667,-541.8666666666667,-117.33333333333333
2184,53.333333333333336,-535.4666666666667,-123.73333333333333
2185,57.6,-537.6,-113.06666666666666
2186,49.06666666666666,-539.7333333333333,-123.73333333333333
2187,49.06666666666666,-531.2,-113.06666666666666
2188,46.93333333333333,-529.0666666666666,-115.2
2189,49.06666666666666,-531.2,-110.93333333333334
2190,53.333333333333336,-533.3333333333334,-119.46666666666667
2191,53.333333333333336,-533.3333333333334,-119.46666666666667
2192,44.8,-531.2,-113.06666666666666
2193,42.666666666666664,-533.3333333333334,-117.33333333333333
2194,51.2,-531.2,-113.06666666666666
2195,49.06666666666666,-535.4666666666667,-110.93333333333334
2196,42.666666666666664,-541.8666666666667,-115.2
2197,46.93333333333333,-546.1333333333333,-108.8
2198,49.06666666666666,-537.6,-115.2
2199,46.93333333333333,-539.7333333333333,-113.06666666666666
2200,49.06666666666666,-544.0,-115.2
2201,57.6,-544.0,-121.6
2202,44.8,-541.8666666666667,-110.93333333333334
2203,42.666666666666664,-535.4666666666667,-113.06666666666666
2204,51.2,-533.3333333333334,-108.8
2205,51.2,-531.2,-119.46666666666667
2206,51.2,-533.3333333333334,-115.2
2207,46.93333333333333,-535.4666666666667,-110.93333333333334
2208,53.333333333333336,-537.6,-119.46666666666667
2209,42.666666666666664,-533.3333333333334,-113.06666666666666
2210,49.06666666666666,-539.7333333333333,-117.33333333333333
2211,53.333333333333336,-533.3333333333334,-115.2
2212,40.53333333333333,-531.2,-104.53333333333333
2213,55.46666666666667,-539.7333333333333,-117.33333333333333
2214,57.6,-537.6,-113.06666666666666
2215,59.733333333333334,-531.2,-115.2
2216,55.46666666666667,-533.3333333333334,-117.33333333333333
2217,57.6,-535.4666666666667,-113.06666666666666
2218,55.46666666666667,-531.2,-108.8
2219,53.333333333333336,-531.2,-119.46666666666667
2220,51.2,-535.4666666666667,-113.06666666666666
2221,55.46666666666667,-533.3333333333334,-117.33333333333333
2222,55.46666666666667,-541.8666666666667,-113.06666666666666
2223,55.46666666666667,-535.4666666666667,-123.73333333333333
2224,55.46666666666667,-537.6,-108.8
2225,53.333333333333336,-535.4666666666667,-117.33333333333333
2226,49.06666666666666,-533.3333333333334,-108.8
2227,46.93333333333333,-541.8666666666667,-117.33333333333333
2228,46.93333333333333,-535.4666666666667,-117.33333333333333
2229,53.333333333333336,-537.6,-110.93333333333334
2230,49.06666666666666,-535.4666666666667,-121.6
2231,49.06666666666666,-533.3333333333334,-117.33333333333333
2232,51.2,-537.6,-106.66666666666667
2233,53.333333333333336,-537.6,-108.8
2234,49.06666666666666,-537.6,-108.8
2235,53.333333333333336,-537.6,-104.53333333333333
2236,51.2,-537.6,-108.8
2237,51.2,-544.0,-104.53333333333333
2238,44.8,-537.6,-110.93333333333334
2239,44.8,-535.4666666666667,-113.06666666666666
2240,46.93333333333333,-535.4666666666667,-108.8
2241,51.2,-531.2,-115.2
2242,49.06666666666666,-529.0666666666666,-108.8
2243,49.06666666666666,-533.3333333333334,-121.6
2244,46.93333333333333,-535.4666666666667,-110.93333333333334
2245,53.333333333333336,-533.3333333333334,-110.93333333333334
2246,51.2,-533.3333333333334,-115.2
2247,53.333333333333336,-539.7333333333333,-113.06666666666666
2248,51.2,-535.4666666666667,-117.33333333333333
2249,55.46666666666667,-537.6,-117.33333333333333
2250,55.46666666666667,-539.7333333333333,-106.66666666666667
2251,57.6,-539.7333333333333,-102.4
2252,53.333333333333336,-539.7333333333333,-106.66666666666667
2253,57.6,-544.0,-104.53333333333333
2254,55.46666666666667,-544.0,-104.53333333333333
2255,53.333333333333336,-539.7333333333333,-110.93333333333334
2256,53.333333333333336,-541.8666666666667,-108.8
2257,53.333333333333336,-539.7333333333333,-108.8
2258,49.06666666666666,-537.6,-115.2
2259,53.333333333333336,-535.4666666666667,-110.93333333333334
2260,46.93333333333333,-533.3333333333334,-115.2
2261,44.8,-533.3333333333334,-108.8
2262,53.333333333333336,-535.4666666666667,-115.2
2263,49.06666666666666,-539.7333333333333,-119.46666666666667
2264,53.333333333333336,-531.2,-115.2
2265,46.93333333333333,-535.4666666666667,-115.2
2266,51.2,-539.7333333333333,-113.06666666666666
2267,55.46666666666667,-533.3333333333334,-119.46666666666667
2268,53.333333333333336,-535.4666666666667,-117.33333333333333
2269,55.46666666666667,-548.2666666666667,-110.93333333333334
2270,49.06666666666666,-537.6,-115.2
2271,51.2,-537.6,-115.2
2272,55.46666666666667,-537.6,-110.93333333333334
2273,53.333333333333336,-535.4666666666667,-108.8
2274,53.333333333333336,-535.4666666666667,-108.8
2275,51.2,-533.3333333333334,-106.66666666666667
2276,46.93333333333333,-535.4666666666667,-106.66666666666667
2277,44.8,-531.2,-108.8
2278,46.93333333333333,-535.4666666666667,-104.53333333333333
2279,49.06666666666666,-535.4666666666667,-106.66666666666667
2280,49.06666666666666,-541.8666666666667,-102.4
2281,55.46666666666667,-533.3333333333334,-104.53333333333333
2282,55.46666666666667,-541.8666666666667,-113.06666666666666
2283,46.93333333333333,-535.4666666666667,-104.53333333333333
2284,53.333333333333336,-535.4666666666667,-113.06666666666666
2285,55.46666666666667,-541.8666666666667,-110.93333333333334
2286,49.06666666666666,-535.4666666666667,-117.33333333333333
2287,53.333333333333336,-531.2,-113.06666666666666
2288,57.6,-533.3333333333334,-115.2
2289,55.46666666666667,-531.2,-119.46666666666667
2290,57.6,-539.7333333333333,-113.06666666666666
2291,55.46666666666667,-535.4666666666667,-113.06666666666666
2292,49.06666666666666,-541.8666666666667,-110.93333333333334
2293,51.2,-537.6,-104.53333333333333
2294,55.46666666666667,-535.4666666666667,-106.66666666666667
2295,51.2,-533.3333333333334,-113.06666666666666
2296,46.93333333333333,-535.4666666666667,-106.66666666666667
2297,53.333333333333336,-535.4666666666667,-115.2
2298,53.333333333333336,-531.2,-108.8
2299,53.333333333333336,-533.3333333333334,-108.8
2300,57.6,-539.7333333333333,-115.2
2301,51.2,-535.4666666666667,-115.2
2302,49.06666666666666,-529.0666666666666,-113.06666666666666
2303,49.06666666666666,-537.6,-115.2
2304,49.06666666666666,-535.4666666666667,-113.06666666666666
2305,44.8,-533.3333333333334,-104.53333333333333
2306,49.06666666666666,-537.6,-108.8
2307,53.333333333333336,-544.0,-108.8
2308,51.2,-544.0,-104.53333333333333
2309,51.2,-544.0,-113.06666666666666
2310,46.93333333333333,-539.7333333333333,-110.93333333333334
2311,72.53333333333333,-535.4666666666667,-113.06666666666666
2312,49.06666666666666,-541.8666666666667,-106.66666666666667
2313,53.333333333333336,-541.8666666666667,-110.93333333333334
2314,51.2,-541.8666666666667,-115.2
2315,53.333333333333336,-539.7333333333333,-115.2
2316,49.06666666666666,-535.4666666666667,-117.33333333333333
2317,49.06666666666666,-537.6,-110.93333333333334
2318,49.06666666666666,-537.6,-113.06666666666666
2319,51.2,-535.4666666666667,-110.93333333333334
2320,55.46666666666667,-541.8666666666667,-106.66666666666667
2321,51.2,-535.4666666666667,-104.53333333333333
2322,46.93333333333333,-531.2,-106.66666666666667
2323,53.333333333333336,-535.4666666666667,-108.8
2324,49.06666666666666,-535.4666666666667,-108.8
2325,53.333333333333336,-541.8666666666667,-108.8
2326,49.06666666666666,-535.4666666666667,-110.93333333333334
2327,51.2,-531.2,-115.2
2328,49.06666666666666,-537.6,-117.33333333333333
2329,51.2,-529.0666666666666,-113.06666666666666
2330,49.06666666666666,-537.6,-113.06666666666666
2331,49.06666666666666,-539.7333333333333,-108.8
2332,49.06666666666666,-539.7333333333333,-113.06666666666666
2333,44.8,-544.0,-132.26666666666665
2334,51.2,-537.6,-104.53333333333333
2335,44.8,-535.4666666666667,-102.4
2336,53.333333333333336,-533.3333333333334,-115.2
2337,46.93333333333333,-533.3333333333334,-117.33333333333333
2338,49.06666666666666,-544.0,-115.2
2339,53.333333333333336,-535.4666666666667,-115.2
2340,51.2,-539.7333333333333,-119.46666666666667
2341,53.333333333333336,-537.6,-117.33333333333333
2342,51.2,-539.7333333333333,-119.46666666666667
2343,46.93333333333333,-539.7333333333333,-110.93333333333334
2344,49.06666666666666,-535.4666666666667,-117.33333333333333
2345,53.333333333333336,-544.0,-108.8
2346,53.333333333333336,-535.4666666666667,-113.06666666666666
2347,55.46666666666667,-535.4666666666667,-113.06666666666666
2348,51.2,-537.6,-108.8
2349,51.2,-531.2,-110.93333333333334
2350,51.2,-539.7333333333333,-102.4
2351,49.06666666666666,-533.3333333333334,-106.66666666666667
2352,53.333333333333336,-531.2,-106.66666666666667
2353,53.333333333333336,-531.2,-104.53333333333333
2354,64.0,-529.0666666666666,-102.4
2355,51.2,-535.4666666666667,-102.4
2356,53.333333333333336,-535.4666666666667,-106.66666666666667
2357,49.06666666666666,-529.0666666666666,-102.4
2358,51.2,-531.2,-110.93333333333334
2359,51.2,-533.3333333333334,-102.4
2360,49.06666666666666,-533.3333333333334,-108.8
2361,44.8,-535.4666666666667,-110.93333333333334
2362,49.06666666666666,-533.3333333333334,-108.8
2363,51.2,-537.6,-106.66666666666667
2364,55.46666666666667,-535.4666666666667,-102.4
2365,51.2,-546.1333333333333,-106.66666666666667
2366,46.93333333333333,-544.0,-104.53333333333333
2367,49.06666666666666,-537.6,-108.8
2368,46.93333333333333,-544.0,-106.66666666666667
2369,49.06666666666666,-539.7333333333333,-110.93333333333334
2370,51.2,-541.8666666666667,-115.2
2371,46.93333333333333,-544.0,-113.06666666666666
2372,46.93333333333333,-541.8666666666667,-113.06666666666666
2373,51.2,-539.7333333333333,-115.2
2374,53.333333333333336,-537.6,-113.06666666666666
2375,51.2,-537.6,-102.4
2376,49.06666666666666,-537.6,-123.73333333333333
2377,51.2,-539.7333333333333,-113.06666666666666
2378,53.333333333333336,-537.6,-113.06666666666666
2379,57.6,-541.8666666666667,-119.46666666666667
2380,44.8,-537.6,-119.46666666666667
2381,53.333333333333336,-539.7333333333333,-110.93333333333334
2382,49.06666666666666,-539.7333333333333,-121.6
2383,51.2,-535.4666666666667,-113.06666666666666
2384,46.93333333333333,-533.3333333333334,-104.53333333333333
2385,49.06666666666666,-535.4666666666667,-110.93333333333334
2386,46.93333333333333,-537.6,-115.2
2387,46.93333333333333,-533.3333333333334,-106.66666666666667
2388,53.333333333333336,-539.7333333333333,-121.6
2389,53.333333333333336,-533.3333333333334,-102.4
2390,53.333333333333336,-537.6,-115.2
2391,51.2,-533.3333333333334,-104.53333333333333
2392,53.333333333333336,-539.7333333333333,-106.66666666666667
2393,53.333333333333336,-539.7333333333333,-113.06666666666666
2394,49.06666666666666,-535.4666666666667,-113.06666666666666
2395,57.6,-539.7333333333333,-106.66666666666667
2396,49.06666666666666,-535.4666666666667,-102.4
2397,55.46666666666667,-535.4666666666667,-115.2
2398,46.93333333333333,-539.7333333333333,-119.46666666666667
2399,51.2,-533.3333333333334,-113.06666666666666
