,accelerometerAccelerationX(G),accelerometerAccelerationY(G),accelerometerAccelerationZ(G)
0,-4.266666666666667,-522.6666666666666,-181.33333333333334
1,-6.4,-524.8,-183.46666666666667
2,2.1333333333333333,-524.8,-177.06666666666666
3,-2.1333333333333333,-522.6666666666666,-174.93333333333334
4,-2.1333333333333333,-531.2,-168.53333333333333
5,0.0,-526.9333333333333,-170.66666666666666
6,-2.1333333333333333,-529.0666666666666,-179.2
7,2.1333333333333333,-526.9333333333333,-172.8
8,-2.1333333333333333,-526.9333333333333,-177.06666666666666
9,0.0,-529.0666666666666,-179.2
10,-4.266666666666667,-522.6666666666666,-179.2
11,8.533333333333333,-531.2,-179.2
12,0.0,-526.9333333333333,-179.2
13,-10.666666666666666,-524.8,-174.93333333333334
14,-2.1333333333333333,-522.6666666666666,-177.06666666666666
15,-4.266666666666667,-516.2666666666667,-177.06666666666666
16,0.0,-524.8,-174.93333333333334
17,-4.266666666666667,-524.8,-172.8
18,-10.666666666666666,-520.5333333333333,-168.53333333333333
19,-6.4,-518.4,-174.93333333333334
20,0.0,-524.8,-177.06666666666666
21,-10.666666666666666,-522.6666666666666,-174.93333333333334
22,-8.533333333333333,-522.6666666666666,-170.66666666666666
23,-4.266666666666667,-529.0666666666666,-177.06666666666666
24,-10.666666666666666,-526.9333333333333,-168.53333333333333
25,-4.266666666666667,-526.9333333333333,-172.8
26,-4.266666666666667,-529.0666666666666,-179.2
27,-2.1333333333333333,-531.2,-185.6
28,-4.266666666666667,-529.0666666666666,-172.8
29,-2.1333333333333333,-526.9333333333333,-172.8
30,-2.1333333333333333,-522.6666666666666,-170.66666666666666
31,-8.533333333333333,-524.8,-172.8
32,0.0,-524.8,-168.53333333333333
33,-4.266666666666667,-524.8,-177.06666666666666
34,-2.1333333333333333,-531.2,-177.06666666666666
35,-2.1333333333333333,-518.4,-177.06666666666666
36,-4.266666666666667,-520.5333333333333,-174.93333333333334
37,-2.1333333333333333,-522.6666666666666,-177.06666666666666
38,2.1333333333333333,-522.6666666666666,-170.66666666666666
39,0.0,-522.6666666666666,-168.53333333333333
40,-2.1333333333333333,-518.4,-172.8
41,-2.1333333333333333,-520.5333333333333,-172.8
42,-4.266666666666667,-518.4,-164.26666666666665
43,0.0,-522.6666666666666,-168.53333333333333
44,-6.4,-514.1333333333333,-172.8
45,2.1333333333333333,-524.8,-174.93333333333334
46,-4.266666666666667,-514.1333333333333,-172.8
47,0.0,-518.4,-174.93333333333334
48,-2.1333333333333333,-520.5333333333333,-177.06666666666666
49,-10.666666666666666,-518.4,-179.2
50,-6.4,-526.9333333333333,-179.2
51,-6.4,-522.6666666666666,-174.93333333333334
52,-6.4,-524.8,-164.26666666666665
53,-4.266666666666667,-524.8,-179.2
54,-4.266666666666667,-526.9333333333333,-177.06666666666666
55,-4.266666666666667,-526.9333333333333,-164.26666666666665
56,0.0,-529.0666666666666,-168.53333333333333
57,-2.1333333333333333,-529.0666666666666,-170.66666666666666
58,8.533333333333333,-529.0666666666666,-172.8
59,-2.1333333333333333,-529.0666666666666,-168.53333333333333
60,-2.1333333333333333,-526.9333333333333,-172.8
61,-6.4,-526.9333333333333,-174.93333333333334
62,-6.4,-524.8,-164.26666666666665
63,-8.533333333333333,-524.8,-170.66666666666666
64,4.266666666666667,-522.6666666666666,-170.66666666666666
65,0.0,-524.8,-170.66666666666666
66,-4.266666666666667,-522.6666666666666,-166.4
67,-2.1333333333333333,-522.6666666666666,-177.06666666666666
68,-2.1333333333333333,-520.5333333333333,-166.4
69,0.0,-524.8,-174.93333333333334
70,-8.533333333333333,-518.4,-170.66666666666666
71,-6.4,-526.9333333333333,-166.4
72,-2.1333333333333333,-518.4,-170.66666666666666
73,2.1333333333333333,-524.8,-170.66666666666666
74,-8.533333333333333,-524.8,-168.53333333333333
75,-6.4,-526.9333333333333,-162.13333333333333
76,-2.1333333333333333,-524.8,-174.93333333333334
77,-6.4,-516.2666666666667,-164.26666666666665
78,-6.4,-522.6666666666666,-174.93333333333334
79,-2.1333333333333333,-529.0666666666666,-183.46666666666667
80,-4.266666666666667,-520.5333333333333,-177.06666666666666
81,-2.1333333333333333,-520.5333333333333,-168.53333333333333
82,-2.1333333333333333,-520.5333333333333,-177.06666666666666
83,-4.266666666666667,-526.9333333333333,-179.2
84,-2.1333333333333333,-529.0666666666666,-179.2
85,-4.266666666666667,-526.9333333333333,-168.53333333333333
86,0.0,-524.8,-166.4
87,-6.4,-524.8,-172.8
88,-6.4,-531.2,-170.66666666666666
89,-8.533333333333333,-529.0666666666666,-177.06666666666666
90,-4.266666666666667,-531.2,-172.8
91,-4.266666666666667,-526.9333333333333,-170.66666666666666
92,2.1333333333333333,-529.0666666666666,-166.4
93,-6.4,-529.0666666666666,-162.13333333333333
94,-2.1333333333333333,-531.2,-162.13333333333333
95,-2.1333333333333333,-529.0666666666666,-179.2
96,-4.266666666666667,-529.0666666666666,-174.93333333333334
97,-6.4,-529.0666666666666,-168.53333333333333
98,-4.266666666666667,-526.9333333333333,-162.13333333333333
99,-2.1333333333333333,-531.2,-172.8
100,-6.4,-522.6666666666666,-166.4
101,0.0,-526.9333333333333,-162.13333333333333
102,-2.1333333333333333,-533.3333333333334,-172.8
103,0.0,-531.2,-168.53333333333333
104,-2.1333333333333333,-516.2666666666667,-164.26666666666665
105,-4.266666666666667,-516.2666666666667,-174.93333333333334
106,2.1333333333333333,-529.0666666666666,-172.8
107,-8.533333333333333,-518.4,-168.53333333333333
108,-4.266666666666667,-522.6666666666666,-164.26666666666665
109,-2.1333333333333333,-524.8,-162.13333333333333
110,-2.1333333333333333,-524.8,-168.53333333333333
111,-2.1333333333333333,-520.5333333333333,-170.66666666666666
112,-4.266666666666667,-520.5333333333333,-172.8
113,-2.1333333333333333,-522.6666666666666,-168.53333333333333
114,0.0,-526.9333333333333,-168.53333333333333
115,-6.4,-518.4,-168.53333333333333
116,0.0,-522.6666666666666,-168.53333333333333
117,0.0,-524.8,-172.8
118,-2.1333333333333333,-526.9333333333333,-172.8
119,-8.533333333333333,-522.6666666666666,-164.26666666666665
120,-8.533333333333333,-522.6666666666666,-172.8
121,-2.1333333333333333,-531.2,-177.06666666666666
122,-6.4,-524.8,-172.8
123,-2.1333333333333333,-529.0666666666666,-179.2
124,2.1333333333333333,-526.9333333333333,-170.66666666666666
125,-2.1333333333333333,-522.6666666666666,-164.26666666666665
126,4.266666666666667,-524.8,-170.66666666666666
127,-2.1333333333333333,-522.6666666666666,-164.26666666666665
128,-4.266666666666667,-524.8,-166.4
129,-8.533333333333333,-522.6666666666666,-166.4
130,-2.1333333333333333,-529.0666666666666,-164.26666666666665
131,-6.4,-531.2,-166.4
132,-4.266666666666667,-529.0666666666666,-166.4
133,-2.1333333333333333,-529.0666666666666,-168.53333333333333
134,-10.666666666666666,-524.8,-166.4
135,-6.4,-531.2,-172.8
136,-4.266666666666667,-529.0666666666666,-166.4
137,-2.1333333333333333,-529.0666666666666,-168.53333333333333
138,-6.4,-522.6666666666666,-164.26666666666665
139,-4.266666666666667,-522.6666666666666,-164.26666666666665
140,-6.4,-520.5333333333333,-166.4
141,-8.533333333333333,-520.5333333333333,-172.8
142,4.266666666666667,-522.6666666666666,-170.66666666666666
143,-4.266666666666667,-520.5333333333333,-174.93333333333334
144,-4.266666666666667,-522.6666666666666,-172.8
145,-4.266666666666667,-520.5333333333333,-170.66666666666666
146,-4.266666666666667,-524.8,-172.8
147,-10.666666666666666,-522.6666666666666,-174.93333333333334
148,-4.266666666666667,-526.9333333333333,-166.4
149,4.266666666666667,-524.8,-170.66666666666666
150,0.0,-531.2,-164.26666666666665
151,-2.1333333333333333,-529.0666666666666,-170.66666666666666
152,-4.266666666666667,-524.8,-170.66666666666666
153,2.1333333333333333,-529.0666666666666,-172.8
154,2.1333333333333333,-526.9333333333333,-168.53333333333333
155,-4.266666666666667,-529.0666666666666,-170.66666666666666
156,0.0,-526.9333333333333,-168.53333333333333
157,0.0,-535.4666666666667,-170.66666666666666
158,6.4,-531.2,-166.4
159,-2.1333333333333333,-524.8,-166.4
160,-6.4,-522.6666666666666,-164.26666666666665
161,-4.266666666666667,-526.9333333333333,-172.8
162,-6.4,-526.9333333333333,-168.53333333333333
163,-4.266666666666667,-526.9333333333333,-160.0
164,-4.266666666666667,-526.9333333333333,-160.0
165,-8.533333333333333,-518.4,-164.26666666666665
166,-6.4,-516.2666666666667,-168.53333333333333
167,-6.4,-520.5333333333333,-162.13333333333333
168,-2.1333333333333333,-518.4,-172.8
169,-4.266666666666667,-524.8,-174.93333333333334
170,-4.266666666666667,-524.8,-168.53333333333333
171,-8.533333333333333,-522.6666666666666,-170.66666666666666
172,-6.4,-526.9333333333333,-164.26666666666665
173,-4.266666666666667,-529.0666666666666,-172.8
174,-4.266666666666667,-522.6666666666666,-172.8
175,-6.4,-529.0666666666666,-162.13333333333333
176,-4.266666666666667,-524.8,-162.13333333333333
177,-8.533333333333333,-524.8,-164.26666666666665
178,-6.4,-522.6666666666666,-168.53333333333333
179,-8.533333333333333,-524.8,-168.53333333333333
180,-6.4,-524.8,-168.53333333333333
181,-10.666666666666666,-531.2,-168.53333333333333
182,-4.266666666666667,-531.2,-174.93333333333334
183,-4.266666666666667,-526.9333333333333,-168.53333333333333
184,-2.1333333333333333,-529.0666666666666,-166.4
185,-4.266666666666667,-524.8,-170.66666666666666
186,-2.1333333333333333,-531.2,-168.53333333333333
187,-6.4,-524.8,-168.53333333333333
188,-4.266666666666667,-529.0666666666666,-160.0
189,-6.4,-520.5333333333333,-168.53333333333333
190,-6.4,-518.4,-166.4
191,0.0,-524.8,-166.4
192,-8.533333333333333,-520.5333333333333,-166.4
193,-8.533333333333333,-514.1333333333333,-172.8
194,-2.1333333333333333,-524.8,-166.4
195,-8.533333333333333,-524.8,-174.93333333333334
196,-4.266666666666667,-524.8,-179.2
197,0.0,-529.0666666666666,-168.53333333333333
198,-6.4,-526.9333333333333,-172.8
199,-6.4,-529.0666666666666,-174.93333333333334
200,-10.666666666666666,-522.6666666666666,-170.66666666666666
201,-4.266666666666667,-529.0666666666666,-179.2
202,0.0,-529.0666666666666,-168.53333333333333
203,-6.4,-531.2,-168.53333333333333
204,-6.4,-526.9333333333333,-168.53333333333333
205,0.0,-526.9333333333333,-172.8
206,-8.533333333333333,-529.0666666666666,-162.13333333333333
207,2.1333333333333333,-526.9333333333333,-170.66666666666666
208,-2.1333333333333333,-524.8,-170.66666666666666
209,-8.533333333333333,-520.5333333333333,-170.66666666666666
210,-2.1333333333333333,-531.2,-166.4
211,0.0,-526.9333333333333,-164.26666666666665
212,-8.533333333333333,-522.6666666666666,-164.26666666666665
213,-2.1333333333333333,-524.8,-174.93333333333334
214,-6.4,-522.6666666666666,-172.8
215,-2.1333333333333333,-522.6666666666666,-166.4
216,-6.4,-524.8,-162.13333333333333
217,-10.666666666666666,-526.9333333333333,-172.8
218,-12.8,-522.6666666666666,-170.66666666666666
219,-6.4,-522.6666666666666,-164.26666666666665
220,-6.4,-524.8,-166.4
221,-2.1333333333333333,-529.0666666666666,-168.53333333333333
222,-6.4,-524.8,-170.66666666666666
223,-4.266666666666667,-524.8,-168.53333333333333
224,-6.4,-531.2,-172.8
225,-6.4,-524.8,-174.93333333333334
226,-4.266666666666667,-531.2,-170.66666666666666
227,-2.1333333333333333,-531.2,-174.93333333333334
228,-4.266666666666667,-533.3333333333334,-172.8
229,-2.1333333333333333,-533.3333333333334,-170.66666666666666
230,-2.1333333333333333,-533.3333333333334,-174.93333333333334
231,-4.266666666666667,-531.2,-172.8
232,-6.4,-526.9333333333333,-174.93333333333334
233,-4.266666666666667,-524.8,-172.8
234,-2.1333333333333333,-526.9333333333333,-170.66666666666666
235,-10.666666666666666,-522.6666666666666,-170.66666666666666
236,-8.533333333333333,-518.4,-172.8
237,-4.266666666666667,-520.5333333333333,-168.53333333333333
238,-6.4,-524.8,-170.66666666666666
239,-6.4,-526.9333333333333,-172.8
240,-4.266666666666667,-524.8,-170.66666666666666
241,0.0,-520.5333333333333,-174.93333333333334
242,-8.533333333333333,-520.5333333333333,-177.06666666666666
243,-6.4,-522.6666666666666,-172.8
244,-6.4,-526.9333333333333,-177.06666666666666
245,-8.533333333333333,-520.5333333333333,-170.66666666666666
246,-2.1333333333333333,-522.6666666666666,-181.33333333333334
247,-6.4,-522.6666666666666,-170.66666666666666
248,-4.266666666666667,-522.6666666666666,-166.4
249,-2.1333333333333333,-524.8,-172.8
250,-6.4,-526.9333333333333,-170.66666666666666
251,-4.266666666666667,-522.6666666666666,-174.93333333333334
252,-2.1333333333333333,-522.6666666666666,-170.66666666666666
253,-6.4,-520.5333333333333,-168.53333333333333
254,2.1333333333333333,-524.8,-174.93333333333334
255,-2.1333333333333333,-520.5333333333333,-168.53333333333333
256,-2.1333333333333333,-522.6666666666666,-166.4
257,-2.1333333333333333,-524.8,-168.53333333333333
258,-4.266666666666667,-522.6666666666666,-168.53333333333333
259,-6.4,-522.6666666666666,-170.66666666666666
260,-4.266666666666667,-522.6666666666666,-162.13333333333333
261,-8.533333333333333,-522.6666666666666,-177.06666666666666
262,-4.266666666666667,-526.9333333333333,-170.66666666666666
263,-8.533333333333333,-520.5333333333333,-166.4
264,-6.4,-522.6666666666666,-172.8
265,-6.4,-524.8,-172.8
266,-4.266666666666667,-524.8,-174.93333333333334
267,-8.533333333333333,-522.6666666666666,-172.8
268,-8.533333333333333,-520.5333333333333,-174.93333333333334
269,-2.1333333333333333,-529.0666666666666,-164.26666666666665
270,-4.266666666666667,-531.2,-168.53333333333333
271,-8.533333333333333,-522.6666666666666,-174.93333333333334
272,-6.4,-526.9333333333333,-172.8
273,-4.266666666666667,-526.9333333333333,-168.53333333333333
274,0.0,-524.8,-179.2
275,-4.266666666666667,-526.9333333333333,-174.93333333333334
276,2.1333333333333333,-531.2,-183.46666666666667
277,0.0,-522.6666666666666,-172.8
278,0.0,-526.9333333333333,-177.06666666666666
279,-6.4,-529.0666666666666,-170.66666666666666
280,-4.266666666666667,-531.2,-177.06666666666666
281,-8.533333333333333,-522.6666666666666,-172.8
282,-10.666666666666666,-524.8,-172.8
283,-12.8,-520.5333333333333,-160.0
284,-10.666666666666666,-522.6666666666666,-174.93333333333334
285,-6.4,-520.5333333333333,-174.93333333333334
286,-2.1333333333333333,-529.0666666666666,-164.26666666666665
287,-6.4,-522.6666666666666,-168.53333333333333
288,-2.1333333333333333,-524.8,-170.66666666666666
289,0.0,-522.6666666666666,-172.8
290,-8.533333333333333,-522.6666666666666,-170.66666666666666
291,-4.266666666666667,-520.5333333333333,-166.4
292,-8.533333333333333,-522.6666666666666,-181.33333333333334
293,0.0,-526.9333333333333,-168.53333333333333
294,-8.533333333333333,-524.8,-170.66666666666666
295,-6.4,-526.9333333333333,-170.66666666666666
296,-4.266666666666667,-524.8,-170.66666666666666
297,-8.533333333333333,-522.6666666666666,-174.93333333333334
298,0.0,-524.8,-166.4
299,0.0,-524.8,-170.66666666666666
300,-6.4,-524.8,-172.8
301,0.0,-526.9333333333333,-179.2
302,-4.266666666666667,-526.9333333333333,-172.8
303,-4.266666666666667,-522.6666666666666,-170.66666666666666
304,-4.266666666666667,-520.5333333333333,-177.06666666666666
305,-2.1333333333333333,-520.5333333333333,-170.66666666666666
306,2.1333333333333333,-522.6666666666666,-172.8
307,0.0,-520.5333333333333,-170.66666666666666
308,0.0,-524.8,-168.53333333333333
309,-2.1333333333333333,-524.8,-170.66666666666666
310,0.0,-524.8,-170.66666666666666
311,2.1333333333333333,-524.8,-168.53333333333333
312,-2.1333333333333333,-526.9333333333333,-168.53333333333333
313,0.0,-520.5333333333333,-174.93333333333334
314,-2.1333333333333333,-526.9333333333333,-170.66666666666666
315,0.0,-533.3333333333334,-177.06666666666666
316,-2.1333333333333333,-529.0666666666666,-168.53333333333333
317,2.1333333333333333,-533.3333333333334,-168.53333333333333
318,4.266666666666667,-533.3333333333334,-179.2
319,-10.666666666666666,-531.2,-172.8
320,0.0,-531.2,-172.8
321,0.0,-529.0666666666666,-172.8
322,-2.1333333333333333,-526.9333333333333,-170.66666666666666
323,0.0,-531.2,-166.4
324,-6.4,-533.3333333333334,-168.53333333333333
325,-6.4,-524.8,-166.4
326,-4.266666666666667,-526.9333333333333,-164.26666666666665
327,-8.533333333333333,-529.0666666666666,-170.66666666666666
328,-8.533333333333333,-520.5333333333333,-177.06666666666666
329,-12.8,-522.6666666666666,-162.13333333333333
330,-10.666666666666666,-522.6666666666666,-177.06666666666666
331,-4.266666666666667,-524.8,-170.66666666666666
332,-10.666666666666666,-522.6666666666666,-174.93333333333334
333,-4.266666666666667,-522.6666666666666,-164.26666666666665
334,0.0,-524.8,-174.93333333333334
335,-2.1333333333333333,-518.4,-168.53333333333333
336,2.1333333333333333,-526.9333333333333,-168.53333333333333
337,-4.266666666666667,-520.5333333333333,-168.53333333333333
338,-2.1333333333333333,-522.6666666666666,-177.06666666666666
339,-2.1333333333333333,-522.6666666666666,-174.93333333333334
340,-8.533333333333333,-520.5333333333333,-181.33333333333334
341,-6.4,-520.5333333333333,-177.06666666666666
342,0.0,-520.5333333333333,-174.93333333333334
343,-6.4,-522.6666666666666,-177.06666666666666
344,4.266666666666667,-529.0666666666666,-179.2
345,2.1333333333333333,-531.2,-179.2
346,0.0,-529.0666666666666,-172.8
347,-2.1333333333333333,-529.0666666666666,-172.8
348,-4.266666666666667,-531.2,-174.93333333333334
349,-4.266666666666667,-531.2,-170.66666666666666
350,-2.1333333333333333,-526.9333333333333,-177.06666666666666
351,-4.266666666666667,-520.5333333333333,-174.93333333333334
352,-2.1333333333333333,-524.8,-174.93333333333334
353,-4.266666666666667,-526.9333333333333,-170.66666666666666
354,-10.666666666666666,-524.8,-168.53333333333333
355,-6.4,-524.8,-170.66666666666666
356,-4.266666666666667,-526.9333333333333,-174.93333333333334
357,-10.666666666666666,-522.6666666666666,-172.8
358,-6.4,-522.6666666666666,-168.53333333333333
359,-6.4,-522.6666666666666,-168.53333333333333
360,-6.4,-516.2666666666667,-160.0
361,-6.4,-518.4,-177.06666666666666
362,-6.4,-507.73333333333335,-177.06666666666666
363,-6.4,-516.2666666666667,-168.53333333333333
364,-4.266666666666667,-514.1333333333333,-166.4
365,-4.266666666666667,-512.0,-168.53333333333333
366,-4.266666666666667,-514.1333333333333,-170.66666666666666
367,-6.4,-520.5333333333333,-177.06666666666666
368,-2.1333333333333333,-509.8666666666667,-179.2
369,4.266666666666667,-522.6666666666666,-174.93333333333334
370,0.0,-516.2666666666667,-183.46666666666667
371,-2.1333333333333333,-520.5333333333333,-177.06666666666666
372,0.0,-526.9333333333333,-189.86666666666667
373,-4.266666666666667,-520.5333333333333,-181.33333333333334
374,-6.4,-529.0666666666666,-187.73333333333332
375,-4.266666666666667,-526.9333333333333,-170.66666666666666
376,-2.1333333333333333,-533.3333333333334,-174.93333333333334
377,-8.533333333333333,-526.9333333333333,-192.0
378,0.0,-529.0666666666666,-185.6
379,-6.4,-522.6666666666666,-179.2
380,-10.666666666666666,-526.9333333333333,-185.6
381,0.0,-535.4666666666667,-179.2
382,-4.266666666666667,-531.2,-185.6
383,0.0,-531.2,-181.33333333333334
384,-4.266666666666667,-524.8,-185.6
385,0.0,-522.6666666666666,-185.6
386,2.1333333333333333,-514.1333333333333,-192.0
387,-2.1333333333333333,-512.0,-200.53333333333333
388,-6.4,-507.73333333333335,-198.4
389,-4.266666666666667,-512.0,-202.66666666666666
390,-8.533333333333333,-507.73333333333335,-200.53333333333333
391,-2.1333333333333333,-514.1333333333333,-202.66666666666666
392,-10.666666666666666,-507.73333333333335,-204.8
393,-8.533333333333333,-514.1333333333333,-194.13333333333333
394,-4.266666666666667,-516.2666666666667,-196.26666666666665
395,-4.266666666666667,-520.5333333333333,-200.53333333333333
396,-4.266666666666667,-507.73333333333335,-198.4
397,-8.533333333333333,-518.4,-206.93333333333334
398,0.0,-512.0,-202.66666666666666
399,-10.666666666666666,-507.73333333333335,-204.8
400,-6.4,-514.1333333333333,-213.33333333333334
401,-8.533333333333333,-516.2666666666667,-206.93333333333334
402,-10.666666666666666,-505.59999999999997,-213.33333333333334
403,-12.8,-507.73333333333335,-213.33333333333334
404,-4.266666666666667,-507.73333333333335,-217.6
405,-6.4,-509.8666666666667,-209.06666666666666
406,-6.4,-509.8666666666667,-217.6
407,-8.533333333333333,-509.8666666666667,-213.33333333333334
408,-4.266666666666667,-509.8666666666667,-217.6
409,-10.666666666666666,-505.59999999999997,-217.6
410,-6.4,-512.0,-221.86666666666667
411,-8.533333333333333,-514.1333333333333,-213.33333333333334
412,-2.1333333333333333,-518.4,-217.6
413,-4.266666666666667,-507.73333333333335,-219.73333333333332
414,-8.533333333333333,-514.1333333333333,-224.0
415,0.0,-518.4,-221.86666666666667
416,-4.266666666666667,-516.2666666666667,-226.13333333333333
417,0.0,-512.0,-217.6
418,-2.1333333333333333,-509.8666666666667,-226.13333333333333
419,0.0,-507.73333333333335,-213.33333333333334
420,-4.266666666666667,-514.1333333333333,-226.13333333333333
421,-8.533333333333333,-509.8666666666667,-221.86666666666667
422,-4.266666666666667,-507.73333333333335,-226.13333333333333
423,-8.533333333333333,-505.59999999999997,-228.26666666666665
424,-2.1333333333333333,-505.59999999999997,-228.26666666666665
425,-6.4,-501.3333333333333,-226.13333333333333
426,-4.266666666666667,-505.59999999999997,-217.6
427,-10.666666666666666,-501.3333333333333,-234.66666666666666
428,-12.8,-499.2,-234.66666666666666
429,-2.1333333333333333,-499.2,-243.2
430,-10.666666666666666,-501.3333333333333,-234.66666666666666
431,0.0,-501.3333333333333,-234.66666666666666
432,-4.266666666666667,-499.2,-228.26666666666665
433,-6.4,-503.46666666666664,-226.13333333333333
434,-8.533333333333333,-499.2,-234.66666666666666
435,-6.4,-509.8666666666667,-232.53333333333333
436,-10.666666666666666,-503.46666666666664,-232.53333333333333
437,-10.666666666666666,-499.2,-238.93333333333334
438,-6.4,-501.3333333333333,-236.79999999999998
439,-12.8,-505.59999999999997,-234.66666666666666
440,-10.666666666666666,-497.06666666666666,-221.86666666666667
441,-14.933333333333334,-503.46666666666664,-232.53333333333333
442,-10.666666666666666,-503.46666666666664,-213.33333333333334
443,0.0,-507.73333333333335,-215.46666666666667
444,-4.266666666666667,-503.46666666666664,-217.6
445,4.266666666666667,-505.59999999999997,-213.33333333333334
446,-6.4,-499.2,-219.73333333333332
447,4.266666666666667,-490.6666666666667,-219.73333333333332
448,10.666666666666666,-492.8,-224.0
449,8.533333333333333,-488.5333333333333,-226.13333333333333
450,6.4,-492.8,-226.13333333333333
451,6.4,-482.1333333333333,-228.26666666666665
452,12.8,-475.73333333333335,-230.4
453,14.933333333333334,-471.46666666666664,-232.53333333333333
454,17.066666666666666,-475.73333333333335,-241.06666666666666
455,21.333333333333332,-467.2,-247.46666666666667
456,21.333333333333332,-471.46666666666664,-249.6
457,25.6,-475.73333333333335,-253.86666666666667
458,19.2,-465.06666666666666,-251.73333333333332
459,19.2,-467.2,-253.86666666666667
460,25.6,-467.2,-243.2
461,19.2,-471.46666666666664,-243.2
462,14.933333333333334,-475.73333333333335,-249.6
463,19.2,-471.46666666666664,-236.79999999999998
464,0.0,-482.1333333333333,-247.46666666666667
465,2.1333333333333333,-482.1333333333333,-238.93333333333334
466,-4.266666666666667,-475.73333333333335,-234.66666666666666
467,2.1333333333333333,-486.4,-230.4
468,-8.533333333333333,-477.8666666666667,-226.13333333333333
469,-14.933333333333334,-475.73333333333335,-217.6
470,-19.2,-475.73333333333335,-215.46666666666667
471,-17.066666666666666,-473.59999999999997,-217.6
472,-12.8,-467.2,-204.8
473,-19.2,-467.2,-213.33333333333334
474,-10.666666666666666,-471.46666666666664,-217.6
475,-17.066666666666666,-469.3333333333333,-228.26666666666665
476,-19.2,-465.06666666666666,-219.73333333333332
477,-21.333333333333332,-465.06666666666666,-232.53333333333333
478,-19.2,-462.93333333333334,-236.79999999999998
479,-25.6,-458.6666666666667,-241.06666666666666
480,-27.733333333333334,-456.5333333333333,-253.86666666666667
481,-23.466666666666665,-452.26666666666665,-253.86666666666667
482,-21.333333333333332,-454.4,-256.0
483,-17.066666666666666,-448.0,-262.4
484,-17.066666666666666,-450.1333333333333,-268.8
485,-19.2,-450.1333333333333,-260.26666666666665
486,-14.933333333333334,-454.4,-264.5333333333333
487,-19.2,-452.26666666666665,-251.73333333333332
488,-23.466666666666665,-454.4,-247.46666666666667
489,-25.6,-462.93333333333334,-245.33333333333334
490,-25.6,-460.8,-243.2
491,-25.6,-458.6666666666667,-251.73333333333332
492,-32.0,-458.6666666666667,-245.33333333333334
493,-29.866666666666667,-456.5333333333333,-236.79999999999998
494,-29.866666666666667,-458.6666666666667,-238.93333333333334
495,-27.733333333333334,-448.0,-253.86666666666667
496,-34.13333333333333,-443.73333333333335,-253.86666666666667
497,-25.6,-430.93333333333334,-260.26666666666665
498,-23.466666666666665,-424.5333333333333,-266.6666666666667
499,-19.2,-420.26666666666665,-253.86666666666667
500,-19.2,-418.1333333333333,-256.0
501,-17.066666666666666,-416.0,-245.33333333333334
502,-14.933333333333334,-418.1333333333333,-241.06666666666666
503,-10.666666666666666,-420.26666666666665,-228.26666666666665
504,-8.533333333333333,-418.1333333333333,-234.66666666666666
505,-4.266666666666667,-420.26666666666665,-228.26666666666665
506,6.4,-424.5333333333333,-238.93333333333334
507,8.533333333333333,-428.8,-251.73333333333332
508,23.466666666666665,-422.4,-258.1333333333333
509,23.466666666666665,-428.8,-262.4
510,32.0,-418.1333333333333,-273.06666666666666
511,36.266666666666666,-413.8666666666667,-283.73333333333335
512,40.53333333333333,-407.46666666666664,-290.1333333333333
513,42.666666666666664,-403.2,-294.4
514,42.666666666666664,-403.2,-290.1333333333333
515,42.666666666666664,-392.5333333333333,-298.6666666666667
516,34.13333333333333,-386.1333333333333,-290.1333333333333
517,34.13333333333333,-388.26666666666665,-292.26666666666665
518,27.733333333333334,-390.4,-273.06666666666666
519,19.2,-396.8,-281.6
520,8.533333333333333,-403.2,-281.6
521,2.1333333333333333,-407.46666666666664,-285.8666666666667
522,4.266666666666667,-401.06666666666666,-290.1333333333333
523,6.4,-418.1333333333333,-298.6666666666667
524,-2.1333333333333333,-424.5333333333333,-298.6666666666667
525,6.4,-430.93333333333334,-302.93333333333334
526,6.4,-445.8666666666667,-300.8
527,10.666666666666666,-441.59999999999997,-292.26666666666665
528,2.1333333333333333,-441.59999999999997,-307.2
529,14.933333333333334,-445.8666666666667,-305.06666666666666
530,4.266666666666667,-441.59999999999997,-313.6
531,-4.266666666666667,-430.93333333333334,-317.8666666666667
532,-2.1333333333333333,-428.8,-305.06666666666666
533,0.0,-428.8,-311.46666666666664
534,0.0,-430.93333333333334,-313.6
535,-4.266666666666667,-433.06666666666666,-315.73333333333335
536,0.0,-430.93333333333334,-313.6
537,-6.4,-435.2,-317.8666666666667
538,-8.533333333333333,-439.46666666666664,-320.0
539,-17.066666666666666,-433.06666666666666,-328.5333333333333
540,-19.2,-430.93333333333334,-330.6666666666667
541,-21.333333333333332,-428.8,-337.06666666666666
542,-25.6,-437.3333333333333,-332.8
543,-32.0,-435.2,-328.5333333333333
544,-36.266666666666666,-441.59999999999997,-334.93333333333334
545,-40.53333333333333,-445.8666666666667,-330.6666666666667
546,-44.8,-443.73333333333335,-330.6666666666667
547,-44.8,-445.8666666666667,-334.93333333333334
548,-46.93333333333333,-441.59999999999997,-341.3333333333333
549,-27.733333333333334,-437.3333333333333,-341.3333333333333
550,-36.266666666666666,-430.93333333333334,-343.46666666666664
551,-29.866666666666667,-420.26666666666665,-352.0
552,-25.6,-409.6,-345.6
553,-21.333333333333332,-394.6666666666667,-347.73333333333335
554,-17.066666666666666,-386.1333333333333,-339.2
555,-14.933333333333334,-373.3333333333333,-343.46666666666664
556,-10.666666666666666,-366.93333333333334,-330.6666666666667
557,-8.533333333333333,-352.0,-328.5333333333333
558,-4.266666666666667,-343.46666666666664,-324.26666666666665
559,2.1333333333333333,-341.3333333333333,-317.8666666666667
560,-2.1333333333333333,-345.6,-313.6
561,0.0,-345.6,-311.46666666666664
562,0.0,-349.8666666666667,-313.6
563,-2.1333333333333333,-356.26666666666665,-311.46666666666664
564,0.0,-358.4,-315.73333333333335
565,-2.1333333333333333,-358.4,-326.4
566,-8.533333333333333,-360.5333333333333,-343.46666666666664
567,-4.266666666666667,-369.06666666666666,-345.6
568,-8.533333333333333,-369.06666666666666,-352.0
569,-10.666666666666666,-364.8,-366.93333333333334
570,-8.533333333333333,-360.5333333333333,-369.06666666666666
571,-4.266666666666667,-356.26666666666665,-371.2
572,-10.666666666666666,-356.26666666666665,-375.46666666666664
573,0.0,-354.1333333333333,-379.73333333333335
574,-8.533333333333333,-354.1333333333333,-381.8666666666667
575,2.1333333333333333,-360.5333333333333,-375.46666666666664
576,-4.266666666666667,-362.6666666666667,-375.46666666666664
577,-6.4,-371.2,-379.73333333333335
578,-14.933333333333334,-379.73333333333335,-384.0
579,-23.466666666666665,-381.8666666666667,-390.4
580,-23.466666666666665,-388.26666666666665,-384.0
581,-25.6,-392.5333333333333,-394.6666666666667
582,-29.866666666666667,-392.5333333333333,-396.8
583,-25.6,-396.8,-413.8666666666667
584,-25.6,-396.8,-418.1333333333333
585,-23.466666666666665,-396.8,-418.1333333333333
586,-19.2,-396.8,-418.1333333333333
587,-14.933333333333334,-407.46666666666664,-413.8666666666667
588,-21.333333333333332,-398.93333333333334,-407.46666666666664
589,-14.933333333333334,-398.93333333333334,-409.6
590,-8.533333333333333,-401.06666666666666,-401.06666666666666
591,-8.533333333333333,-392.5333333333333,-401.06666666666666
592,-8.533333333333333,-392.5333333333333,-384.0
593,-12.8,-371.2,-413.8666666666667
594,-4.266666666666667,-371.2,-413.8666666666667
595,-4.266666666666667,-358.4,-396.8
596,17.066666666666666,-354.1333333333333,-390.4
597,-4.266666666666667,-339.2,-416.0
598,-2.1333333333333333,-332.8,-411.73333333333335
599,6.4,-332.8,-428.8
600,6.4,-320.0,-422.4
601,-8.533333333333333,-317.8666666666667,-426.6666666666667
602,4.266666666666667,-317.8666666666667,-433.06666666666666
603,4.266666666666667,-315.73333333333335,-424.5333333333333
604,2.1333333333333333,-313.6,-430.93333333333334
605,6.4,-315.73333333333335,-433.06666666666666
606,0.0,-311.46666666666664,-428.8
607,2.1333333333333333,-324.26666666666665,-430.93333333333334
608,0.0,-317.8666666666667,-437.3333333333333
609,-6.4,-322.1333333333333,-435.2
610,8.533333333333333,-343.46666666666664,-428.8
611,4.266666666666667,-349.8666666666667,-430.93333333333334
612,0.0,-345.6,-430.93333333333334
613,-8.533333333333333,-347.73333333333335,-435.2
614,8.533333333333333,-354.1333333333333,-441.59999999999997
615,21.333333333333332,-360.5333333333333,-467.2
616,10.666666666666666,-349.8666666666667,-456.5333333333333
617,4.266666666666667,-358.4,-462.93333333333334
618,-2.1333333333333333,-362.6666666666667,-450.1333333333333
619,0.0,-366.93333333333334,-437.3333333333333
620,0.0,-373.3333333333333,-454.4
621,-6.4,-379.73333333333335,-445.8666666666667
622,-6.4,-375.46666666666664,-454.4
623,-2.1333333333333333,-371.2,-456.5333333333333
624,-2.1333333333333333,-362.6666666666667,-473.59999999999997
625,4.266666666666667,-362.6666666666667,-475.73333333333335
626,0.0,-358.4,-465.06666666666666
627,-2.1333333333333333,-360.5333333333333,-465.06666666666666
628,-2.1333333333333333,-364.8,-467.2
629,10.666666666666666,-369.06666666666666,-460.8
630,2.1333333333333333,-364.8,-460.8
631,2.1333333333333333,-375.46666666666664,-460.8
632,2.1333333333333333,-362.6666666666667,-450.1333333333333
633,6.4,-371.2,-445.8666666666667
634,14.933333333333334,-366.93333333333334,-445.8666666666667
635,12.8,-352.0,-445.8666666666667
636,25.6,-354.1333333333333,-445.8666666666667
637,40.53333333333333,-352.0,-437.3333333333333
638,23.466666666666665,-343.46666666666664,-441.59999999999997
639,27.733333333333334,-339.2,-443.73333333333335
640,19.2,-315.73333333333335,-448.0
641,25.6,-322.1333333333333,-454.4
642,27.733333333333334,-317.8666666666667,-465.06666666666666
643,29.866666666666667,-320.0,-462.93333333333334
644,19.2,-324.26666666666665,-454.4
645,21.333333333333332,-328.5333333333333,-456.5333333333333
646,17.066666666666666,-326.4,-448.0
647,21.333333333333332,-334.93333333333334,-450.1333333333333
648,23.466666666666665,-345.6,-450.1333333333333
649,12.8,-337.06666666666666,-445.8666666666667
650,27.733333333333334,-343.46666666666664,-439.46666666666664
651,29.866666666666667,-339.2,-460.8
652,36.266666666666666,-347.73333333333335,-469.3333333333333
653,36.266666666666666,-326.4,-462.93333333333334
654,40.53333333333333,-322.1333333333333,-471.46666666666664
655,55.46666666666667,-320.0,-475.73333333333335
656,46.93333333333333,-315.73333333333335,-473.59999999999997
657,51.2,-315.73333333333335,-477.8666666666667
658,46.93333333333333,-305.06666666666666,-477.8666666666667
659,44.8,-296.5333333333333,-492.8
660,36.266666666666666,-288.0,-501.3333333333333
661,36.266666666666666,-281.6,-512.0
662,46.93333333333333,-279.46666666666664,-512.0
663,38.4,-296.5333333333333,-526.9333333333333
664,27.733333333333334,-281.6,-524.8
665,40.53333333333333,-294.4,-524.8
666,29.866666666666667,-298.6666666666667,-529.0666666666666
667,17.066666666666666,-307.2,-526.9333333333333
668,12.8,-309.3333333333333,-514.1333333333333
669,0.0,-300.8,-509.8666666666667
670,-4.266666666666667,-294.4,-507.73333333333335
671,10.666666666666666,-292.26666666666665,-516.2666666666667
672,-2.1333333333333333,-283.73333333333335,-524.8
673,0.0,-298.6666666666667,-516.2666666666667
674,10.666666666666666,-268.8,-501.3333333333333
675,19.2,-281.6,-503.46666666666664
676,21.333333333333332,-292.26666666666665,-492.8
677,34.13333333333333,-294.4,-484.26666666666665
678,23.466666666666665,-290.1333333333333,-467.2
679,44.8,-292.26666666666665,-488.5333333333333
680,51.2,-288.0,-486.4
681,49.06666666666666,-311.46666666666664,-499.2
682,55.46666666666667,-279.46666666666664,-503.46666666666664
683,66.13333333333333,-285.8666666666667,-503.46666666666664
684,57.6,-283.73333333333335,-514.1333333333333
685,59.733333333333334,-298.6666666666667,-516.2666666666667
686,59.733333333333334,-290.1333333333333,-505.59999999999997
687,61.86666666666667,-288.0,-518.4
688,53.333333333333336,-288.0,-514.1333333333333
689,46.93333333333333,-288.0,-514.1333333333333
690,38.4,-285.8666666666667,-522.6666666666666
691,42.666666666666664,-288.0,-529.0666666666666
692,38.4,-288.0,-526.9333333333333
693,32.0,-288.0,-533.3333333333334
694,34.13333333333333,-283.73333333333335,-524.8
695,23.466666666666665,-279.46666666666664,-512.0
696,34.13333333333333,-279.46666666666664,-514.1333333333333
697,36.266666666666666,-283.73333333333335,-512.0
698,49.06666666666666,-281.6,-507.73333333333335
699,59.733333333333334,-283.73333333333335,-520.5333333333333
700,66.13333333333333,-324.26666666666665,-526.9333333333333
701,78.93333333333334,-283.73333333333335,-522.6666666666666
702,78.93333333333334,-279.46666666666664,-518.4
703,72.53333333333333,-279.46666666666664,-514.1333333333333
704,76.8,-270.93333333333334,-512.0
705,68.26666666666667,-281.6,-507.73333333333335
706,66.13333333333333,-277.3333333333333,-501.3333333333333
707,66.13333333333333,-258.1333333333333,-497.06666666666666
708,61.86666666666667,-275.2,-503.46666666666664
709,68.26666666666667,-275.2,-514.1333333333333
710,74.66666666666667,-281.6,-512.0
711,81.06666666666666,-290.1333333333333,-509.8666666666667
712,76.8,-292.26666666666665,-501.3333333333333
713,74.66666666666667,-288.0,-507.73333333333335
714,61.86666666666667,-283.73333333333335,-503.46666666666664
715,78.93333333333334,-268.8,-501.3333333333333
716,74.66666666666667,-296.5333333333333,-518.4
717,76.8,-285.8666666666667,-507.73333333333335
718,76.8,-288.0,-512.0
719,72.53333333333333,-309.3333333333333,-524.8
720,87.46666666666667,-260.26666666666665,-516.2666666666667
721,85.33333333333333,-279.46666666666664,-514.1333333333333
722,87.46666666666667,-283.73333333333335,-531.2
723,78.93333333333334,-275.2,-531.2
724,81.06666666666666,-270.93333333333334,-537.6
725,68.26666666666667,-334.93333333333334,-544.0
726,81.06666666666666,-260.26666666666665,-531.2
727,68.26666666666667,-277.3333333333333,-533.3333333333334
728,57.6,-279.46666666666664,-535.4666666666667
729,64.0,-288.0,-533.3333333333334
730,61.86666666666667,-285.8666666666667,-526.9333333333333
731,64.0,-281.6,-522.6666666666666
732,70.4,-285.8666666666667,-522.6666666666666
733,72.53333333333333,-281.6,-518.4
734,78.93333333333334,-285.8666666666667,-518.4
735,78.93333333333334,-292.26666666666665,-512.0
736,78.93333333333334,-288.0,-494.93333333333334
737,44.8,-281.6,-486.4
738,83.2,-288.0,-486.4
739,64.0,-294.4,-490.6666666666667
740,61.86666666666667,-292.26666666666665,-475.73333333333335
741,61.86666666666667,-292.26666666666665,-473.59999999999997
742,66.13333333333333,-294.4,-471.46666666666664
743,55.46666666666667,-290.1333333333333,-460.8
744,59.733333333333334,-307.2,-448.0
745,44.8,-315.73333333333335,-452.26666666666665
746,68.26666666666667,-279.46666666666664,-456.5333333333333
747,59.733333333333334,-322.1333333333333,-469.3333333333333
748,49.06666666666666,-320.0,-460.8
749,59.733333333333334,-320.0,-465.06666666666666
750,53.333333333333336,-313.6,-467.2
751,64.0,-320.0,-469.3333333333333
752,61.86666666666667,-313.6,-473.59999999999997
753,78.93333333333334,-277.3333333333333,-465.06666666666666
754,76.8,-311.46666666666664,-482.1333333333333
755,89.6,-337.06666666666666,-473.59999999999997
756,87.46666666666667,-349.8666666666667,-477.8666666666667
757,74.66666666666667,-341.3333333333333,-462.93333333333334
758,78.93333333333334,-352.0,-465.06666666666666
759,57.6,-358.4,-467.2
760,59.733333333333334,-356.26666666666665,-460.8
761,57.6,-354.1333333333333,-456.5333333333333
762,55.46666666666667,-352.0,-465.06666666666666
763,46.93333333333333,-349.8666666666667,-452.26666666666665
764,40.53333333333333,-347.73333333333335,-448.0
765,40.53333333333333,-332.8,-443.73333333333335
766,46.93333333333333,-352.0,-448.0
767,23.466666666666665,-460.8,-486.4
768,85.33333333333333,-337.06666666666666,-465.06666666666666
769,61.86666666666667,-356.26666666666665,-465.06666666666666
770,74.66666666666667,-362.6666666666667,-475.73333333333335
771,61.86666666666667,-360.5333333333333,-475.73333333333335
772,74.66666666666667,-362.6666666666667,-490.6666666666667
773,64.0,-362.6666666666667,-475.73333333333335
774,59.733333333333334,-362.6666666666667,-488.5333333333333
775,53.333333333333336,-358.4,-475.73333333333335
776,53.333333333333336,-360.5333333333333,-486.4
777,57.6,-360.5333333333333,-480.0
778,61.86666666666667,-362.6666666666667,-480.0
779,57.6,-364.8,-480.0
780,68.26666666666667,-362.6666666666667,-473.59999999999997
781,70.4,-371.2,-471.46666666666664
782,72.53333333333333,-366.93333333333334,-477.8666666666667
783,66.13333333333333,-369.06666666666666,-480.0
784,68.26666666666667,-360.5333333333333,-473.59999999999997
785,66.13333333333333,-364.8,-473.59999999999997
786,72.53333333333333,-360.5333333333333,-467.2
787,78.93333333333334,-362.6666666666667,-475.73333333333335
788,74.66666666666667,-354.1333333333333,-471.46666666666664
789,64.0,-358.4,-473.59999999999997
790,70.4,-354.1333333333333,-475.73333333333335
791,64.0,-358.4,-469.3333333333333
792,66.13333333333333,-360.5333333333333,-467.2
793,72.53333333333333,-369.06666666666666,-452.26666666666665
794,74.66666666666667,-369.06666666666666,-456.5333333333333
795,72.53333333333333,-375.46666666666664,-450.1333333333333
796,70.4,-366.93333333333334,-443.73333333333335
797,64.0,-364.8,-441.59999999999997
798,64.0,-362.6666666666667,-437.3333333333333
799,64.0,-364.8,-450.1333333333333
800,64.0,-362.6666666666667,-441.59999999999997
801,59.733333333333334,-354.1333333333333,-439.46666666666664
802,61.86666666666667,-356.26666666666665,-435.2
803,59.733333333333334,-354.1333333333333,-428.8
804,61.86666666666667,-358.4,-430.93333333333334
805,59.733333333333334,-360.5333333333333,-435.2
806,59.733333333333334,-364.8,-424.5333333333333
807,57.6,-373.3333333333333,-422.4
808,66.13333333333333,-379.73333333333335,-413.8666666666667
809,61.86666666666667,-386.1333333333333,-409.6
810,66.13333333333333,-381.8666666666667,-411.73333333333335
811,64.0,-388.26666666666665,-413.8666666666667
812,59.733333333333334,-384.0,-413.8666666666667
813,49.06666666666666,-388.26666666666665,-418.1333333333333
814,46.93333333333333,-379.73333333333335,-418.1333333333333
815,49.06666666666666,-384.0,-416.0
816,53.333333333333336,-373.3333333333333,-411.73333333333335
817,49.06666666666666,-366.93333333333334,-405.3333333333333
818,57.6,-371.2,-401.06666666666666
819,49.06666666666666,-362.6666666666667,-398.93333333333334
820,53.333333333333336,-362.6666666666667,-398.93333333333334
821,51.2,-366.93333333333334,-398.93333333333334
822,66.13333333333333,-375.46666666666664,-392.5333333333333
823,57.6,-381.8666666666667,-392.5333333333333
824,57.6,-398.93333333333334,-396.8
825,53.333333333333336,-409.6,-392.5333333333333
826,36.266666666666666,-420.26666666666665,-392.5333333333333
827,32.0,-441.59999999999997,-392.5333333333333
828,14.933333333333334,-456.5333333333333,-390.4
829,4.266666666666667,-499.2,-401.06666666666666
830,-12.8,-548.2666666666667,-428.8
831,-6.4,-595.2,-465.06666666666666
832,-8.533333333333333,-665.6,-488.5333333333333
833,14.933333333333334,-716.8,-520.5333333333333
834,38.4,-746.6666666666666,-529.0666666666666
835,83.2,-744.5333333333333,-524.8
836,106.66666666666667,-704.0,-497.06666666666666
837,104.53333333333333,-635.7333333333333,-460.8
838,108.8,-569.6,-437.3333333333333
839,102.4,-518.4,-433.06666666666666
840,87.46666666666667,-456.5333333333333,-439.46666666666664
841,85.33333333333333,-403.2,-430.93333333333334
842,85.33333333333333,-379.73333333333335,-401.06666666666666
843,85.33333333333333,-337.06666666666666,-379.73333333333335
844,72.53333333333333,-305.06666666666666,-334.93333333333334
845,74.66666666666667,-285.8666666666667,-277.3333333333333
846,61.86666666666667,-279.46666666666664,-243.2
847,53.333333333333336,-279.46666666666664,-211.2
848,36.266666666666666,-275.2,-192.0
849,19.2,-281.6,-181.33333333333334
850,10.666666666666666,-288.0,-187.73333333333332
851,-8.533333333333333,-313.6,-194.13333333333333
852,-21.333333333333332,-356.26666666666665,-204.8
853,-23.466666666666665,-407.46666666666664,-213.33333333333334
854,-25.6,-448.0,-234.66666666666666
855,-19.2,-499.2,-241.06666666666666
856,-10.666666666666666,-535.4666666666667,-251.73333333333332
857,-6.4,-554.6666666666666,-251.73333333333332
858,4.266666666666667,-578.1333333333333,-273.06666666666666
859,6.4,-599.4666666666667,-288.0
860,8.533333333333333,-603.7333333333333,-283.73333333333335
861,29.866666666666667,-608.0,-302.93333333333334
862,29.866666666666667,-601.6,-294.4
863,36.266666666666666,-588.8,-298.6666666666667
864,46.93333333333333,-582.4,-290.1333333333333
865,36.266666666666666,-569.6,-288.0
866,38.4,-561.0666666666666,-277.3333333333333
867,29.866666666666667,-552.5333333333333,-260.26666666666665
868,29.866666666666667,-537.6,-249.6
869,21.333333333333332,-524.8,-238.93333333333334
870,2.1333333333333333,-509.8666666666667,-224.0
871,2.1333333333333333,-492.8,-217.6
872,-6.4,-484.26666666666665,-206.93333333333334
873,-6.4,-467.2,-204.8
874,-4.266666666666667,-456.5333333333333,-206.93333333333334
875,-2.1333333333333333,-448.0,-213.33333333333334
876,2.1333333333333333,-445.8666666666667,-211.2
877,2.1333333333333333,-445.8666666666667,-213.33333333333334
878,2.1333333333333333,-456.5333333333333,-209.06666666666666
879,-4.266666666666667,-450.1333333333333,-213.33333333333334
880,-2.1333333333333333,-456.5333333333333,-209.06666666666666
881,0.0,-469.3333333333333,-202.66666666666666
882,-10.666666666666666,-471.46666666666664,-198.4
883,-14.933333333333334,-473.59999999999997,-198.4
884,-14.933333333333334,-484.26666666666665,-198.4
885,-17.066666666666666,-505.59999999999997,-204.8
886,-12.8,-507.73333333333335,-204.8
887,-19.2,-526.9333333333333,-185.6
888,-19.2,-524.8,-200.53333333333333
889,-6.4,-531.2,-198.4
890,-19.2,-535.4666666666667,-192.0
891,-8.533333333333333,-548.2666666666667,-194.13333333333333
892,-2.1333333333333333,-550.4,-181.33333333333334
893,-4.266666666666667,-548.2666666666667,-194.13333333333333
894,-6.4,-550.4,-183.46666666666667
895,-2.1333333333333333,-548.2666666666667,-168.53333333333333
896,-10.666666666666666,-537.6,-164.26666666666665
897,-2.1333333333333333,-526.9333333333333,-151.46666666666667
898,-10.666666666666666,-514.1333333333333,-153.6
899,-12.8,-505.59999999999997,-153.6
900,-8.533333333333333,-494.93333333333334,-142.93333333333334
901,-14.933333333333334,-503.46666666666664,-160.0
902,-10.666666666666666,-492.8,-160.0
903,-17.066666666666666,-490.6666666666667,-164.26666666666665
904,-14.933333333333334,-497.06666666666666,-157.86666666666667
905,-6.4,-505.59999999999997,-153.6
906,-12.8,-501.3333333333333,-162.13333333333333
907,-8.533333333333333,-509.8666666666667,-151.46666666666667
908,2.1333333333333333,-507.73333333333335,-160.0
909,-2.1333333333333333,-509.8666666666667,-153.6
910,4.266666666666667,-514.1333333333333,-164.26666666666665
911,8.533333333333333,-522.6666666666666,-160.0
912,10.666666666666666,-520.5333333333333,-164.26666666666665
913,10.666666666666666,-518.4,-166.4
914,10.666666666666666,-524.8,-157.86666666666667
915,2.1333333333333333,-529.0666666666666,-164.26666666666665
916,10.666666666666666,-533.3333333333334,-164.26666666666665
917,-2.1333333333333333,-535.4666666666667,-147.2
918,4.266666666666667,-539.7333333333333,-155.73333333333332
919,2.1333333333333333,-548.2666666666667,-162.13333333333333
920,-12.8,-537.6,-160.0
921,-12.8,-535.4666666666667,-157.86666666666667
922,-17.066666666666666,-533.3333333333334,-151.46666666666667
923,-17.066666666666666,-531.2,-145.06666666666666
924,-17.066666666666666,-522.6666666666666,-153.6
925,-23.466666666666665,-524.8,-160.0
926,-23.466666666666665,-526.9333333333333,-151.46666666666667
927,-21.333333333333332,-516.2666666666667,-157.86666666666667
928,-14.933333333333334,-520.5333333333333,-147.2
929,-19.2,-516.2666666666667,-151.46666666666667
930,-12.8,-522.6666666666666,-162.13333333333333
931,-10.666666666666666,-516.2666666666667,-153.6
932,-17.066666666666666,-514.1333333333333,-147.2
933,-17.066666666666666,-518.4,-153.6
934,-17.066666666666666,-516.2666666666667,-151.46666666666667
935,-19.2,-520.5333333333333,-149.33333333333334
936,-14.933333333333334,-524.8,-138.66666666666666
937,-23.466666666666665,-529.0666666666666,-138.66666666666666
938,-23.466666666666665,-531.2,-136.53333333333333
939,-19.2,-526.9333333333333,-132.26666666666665
940,-21.333333333333332,-533.3333333333334,-140.8
941,-23.466666666666665,-533.3333333333334,-138.66666666666666
942,-17.066666666666666,-531.2,-142.93333333333334
943,-14.933333333333334,-539.7333333333333,-147.2
944,-19.2,-535.4666666666667,-140.8
945,-19.2,-533.3333333333334,-138.66666666666666
946,-17.066666666666666,-533.3333333333334,-138.66666666666666
947,-17.066666666666666,-535.4666666666667,-130.13333333333333
948,-14.933333333333334,-533.3333333333334,-130.13333333333333
949,-17.066666666666666,-537.6,-138.66666666666666
950,-19.2,-531.2,-128.0
951,-23.466666666666665,-531.2,-123.73333333333333
952,-21.333333333333332,-531.2,-123.73333333333333
953,-21.333333333333332,-531.2,-119.46666666666667
954,-19.2,-535.4666666666667,-121.6
955,-23.466666666666665,-537.6,-117.33333333333333
956,-19.2,-537.6,-125.86666666666666
957,-19.2,-533.3333333333334,-130.13333333333333
958,-19.2,-531.2,-123.73333333333333
959,-21.333333333333332,-531.2,-123.73333333333333
960,-12.8,-535.4666666666667,-121.6
961,-14.933333333333334,-531.2,-123.73333333333333
962,-19.2,-535.4666666666667,-115.2
963,-17.066666666666666,-535.4666666666667,-115.2
964,-12.8,-535.4666666666667,-117.33333333333333
965,-12.8,-535.4666666666667,-117.33333333333333
966,-6.4,-537.6,-110.93333333333334
967,0.0,-535.4666666666667,-119.46666666666667
968,8.533333333333333,-541.8666666666667,-115.2
969,0.0,-546.1333333333333,-113.06666666666666
970,-4.266666666666667,-539.7333333333333,-123.73333333333333
971,-4.266666666666667,-537.6,-113.06666666666666
972,2.1333333333333333,-533.3333333333334,-119.46666666666667
973,2.1333333333333333,-541.8666666666667,-128.0
974,-4.266666666666667,-535.4666666666667,-119.46666666666667
975,-2.1333333333333333,-541.8666666666667,-115.2
976,-4.266666666666667,-541.8666666666667,-110.93333333333334
977,-6.4,-539.7333333333333,-113.06666666666666
978,-8.533333333333333,-535.4666666666667,-110.93333333333334
979,-8.533333333333333,-537.6,-117.33333333333333
980,-8.533333333333333,-533.3333333333334,-117.33333333333333
981,-8.533333333333333,-531.2,-115.2
982,-10.666666666666666,-533.3333333333334,-110.93333333333334
983,-6.4,-541.8666666666667,-119.46666666666667
984,-10.666666666666666,-531.2,-119.46666666666667
985,-10.666666666666666,-539.7333333333333,-125.86666666666666
986,-8.533333333333333,-544.0,-121.6
987,-8.533333333333333,-537.6,-119.46666666666667
988,-12.8,-539.7333333333333,-121.6
989,-14.933333333333334,-537.6,-117.33333333333333
990,-10.666666666666666,-541.8666666666667,-117.33333333333333
991,-12.8,-537.6,-123.73333333333333
992,-14.933333333333334,-539.7333333333333,-115.2
993,-8.533333333333333,-541.8666666666667,-117.33333333333333
994,-14.933333333333334,-533.3333333333334,-115.2
995,-12.8,-537.6,-117.33333333333333
996,-12.8,-539.7333333333333,-119.46666666666667
997,-10.666666666666666,-535.4666666666667,-115.2
998,-12.8,-539.7333333333333,-119.46666666666667
999,-10.666666666666666,-539.7333333333333,-115.2
1000,-10.666666666666666,-533.3333333333334,-104.53333333333333
1001,-14.933333333333334,-535.4666666666667,-110.93333333333334
1002,-17.066666666666666,-529.0666666666666,-104.53333333333333
1003,-17.066666666666666,-537.6,-110.93333333333334
1004,-10.666666666666666,-537.6,-106.66666666666667
1005,-12.8,-533.3333333333334,-106.66666666666667
1006,-8.533333333333333,-537.6,-100.26666666666667
1007,-17.066666666666666,-535.4666666666667,-104.53333333333333
1008,-6.4,-539.7333333333333,-106.66666666666667
1009,-8.533333333333333,-539.7333333333333,-100.26666666666667
1010,0.0,-541.8666666666667,-102.4
1011,-14.933333333333334,-535.4666666666667,-106.66666666666667
1012,-6.4,-539.7333333333333,-104.53333333333333
1013,-8.533333333333333,-535.4666666666667,-98.13333333333333
1014,-4.266666666666667,-537.6,-98.13333333333333
1015,-6.4,-537.6,-104.53333333333333
1016,-8.533333333333333,-535.4666666666667,-102.4
1017,-4.266666666666667,-541.8666666666667,-102.4
1018,-8.533333333333333,-546.1333333333333,-106.66666666666667
1019,-8.533333333333333,-541.8666666666667,-108.8
1020,-10.666666666666666,-535.4666666666667,-106.66666666666667
1021,-12.8,-537.6,-108.8
1022,-17.066666666666666,-537.6,-104.53333333333333
1023,-10.666666666666666,-541.8666666666667,-110.93333333333334
1024,-12.8,-537.6,-110.93333333333334
1025,-10.666666666666666,-533.3333333333334,-110.93333333333334
1026,-12.8,-537.6,-115.2
1027,-8.533333333333333,-546.1333333333333,-108.8
1028,-19.2,-537.6,-113.06666666666666
1029,-12.8,-535.4666666666667,-115.2
1030,-10.666666666666666,-537.6,-115.2
1031,-14.933333333333334,-541.8666666666667,-110.93333333333334
1032,-14.933333333333334,-531.2,-104.53333333333333
1033,-10.666666666666666,-537.6,-104.53333333333333
1034,-10.666666666666666,-535.4666666666667,-106.66666666666667
1035,-8.533333333333333,-537.6,-102.4
1036,-14.933333333333334,-539.7333333333333,-106.66666666666667
1037,-14.933333333333334,-544.0,-106.66666666666667
1038,-8.533333333333333,-537.6,-104.53333333333333
1039,-6.4,-533.3333333333334,-106.66666666666667
1040,-8.533333333333333,-537.6,-106.66666666666667
1041,-8.533333333333333,-535.4666666666667,-104.53333333333333
1042,-2.1333333333333333,-541.8666666666667,-108.8
1043,-6.4,-533.3333333333334,-100.26666666666667
1044,-12.8,-535.4666666666667,-108.8
1045,-2.1333333333333333,-546.1333333333333,-108.8
1046,2.1333333333333333,-539.7333333333333,-104.53333333333333
1047,-4.266666666666667,-539.7333333333333,-104.53333333333333
1048,-8.533333333333333,-533.3333333333334,-104.53333333333333
1049,-6.4,-539.7333333333333,-108.8
1050,-14.933333333333334,-535.4666666666667,-102.4
1051,-10.666666666666666,-537.6,-108.8
1052,-10.666666666666666,-539.7333333333333,-100.26666666666667
1053,-12.8,-539.7333333333333,-106.66666666666667
1054,-6.4,-537.6,-104.53333333333333
1055,-14.933333333333334,-541.8666666666667,-104.53333333333333
1056,-17.066666666666666,-537.6,-104.53333333333333
1057,-12.8,-537.6,-106.66666666666667
1058,-12.8,-550.4,-104.53333333333333
1059,-14.933333333333334,-533.3333333333334,-102.4
1060,-10.666666666666666,-541.8666666666667,-100.26666666666667
1061,-6.4,-541.8666666666667,-102.4
1062,-2.1333333333333333,-541.8666666666667,-110.93333333333334
1063,-6.4,-541.8666666666667,-104.53333333333333
1064,0.0,-544.0,-113.06666666666666
1065,0.0,-548.2666666666667,-108.8
1066,-4.266666666666667,-541.8666666666667,-110.93333333333334
1067,-2.1333333333333333,-541.8666666666667,-113.06666666666666
1068,-6.4,-533.3333333333334,-108.8
1069,-8.533333333333333,-537.6,-113.06666666666666
1070,-4.266666666666667,-539.7333333333333,-115.2
1071,-8.533333333333333,-541.8666666666667,-110.93333333333334
1072,-8.533333333333333,-537.6,-110.93333333333334
1073,-10.666666666666666,-539.7333333333333,-104.53333333333333
1074,-6.4,-541.8666666666667,-104.53333333333333
1075,-8.533333333333333,-541.8666666666667,-104.53333333333333
1076,-4.266666666666667,-548.2666666666667,-104.53333333333333
1077,-10.666666666666666,-550.4,-104.53333333333333
1078,-10.666666666666666,-552.5333333333333,-113.06666666666666
1079,-4.266666666666667,-550.4,-110.93333333333334
1080,-10.666666666666666,-548.2666666666667,-115.2
1081,-10.666666666666666,-546.1333333333333,-115.2
1082,-12.8,-537.6,-115.2
1083,-8.533333333333333,-537.6,-113.06666666666666
1084,-4.266666666666667,-537.6,-108.8
1085,-6.4,-531.2,-108.8
1086,-10.666666666666666,-535.4666666666667,-106.66666666666667
1087,-6.4,-533.3333333333334,-100.26666666666667
1088,-6.4,-531.2,-102.4
1089,-8.533333333333333,-541.8666666666667,-106.66666666666667
1090,-10.666666666666666,-535.4666666666667,-106.66666666666667
1091,-8.533333333333333,-541.8666666666667,-102.4
1092,-17.066666666666666,-539.7333333333333,-106.66666666666667
1093,-10.666666666666666,-544.0,-98.13333333333333
1094,-12.8,-544.0,-98.13333333333333
1095,-12.8,-544.0,-102.4
1096,-8.533333333333333,-541.8666666666667,-102.4
1097,-6.4,-550.4,-104.53333333333333
1098,-12.8,-541.8666666666667,-100.26666666666667
1099,-10.666666666666666,-541.8666666666667,-98.13333333333333
1100,-12.8,-539.7333333333333,-106.66666666666667
1101,-10.666666666666666,-544.0,-96.0
1102,-8.533333333333333,-537.6,-93.86666666666666
1103,-4.266666666666667,-544.0,-100.26666666666667
1104,-4.266666666666667,-550.4,-106.66666666666667
1105,-10.666666666666666,-541.8666666666667,-102.4
1106,-6.4,-550.4,-102.4
1107,-6.4,-544.0,-102.4
1108,-14.933333333333334,-539.7333333333333,-98.13333333333333
1109,-10.666666666666666,-544.0,-110.93333333333334
1110,-10.666666666666666,-537.6,-106.66666666666667
1111,-10.666666666666666,-537.6,-100.26666666666667
1112,-10.666666666666666,-537.6,-96.0
1113,-8.533333333333333,-535.4666666666667,-106.66666666666667
1114,-10.666666666666666,-531.2,-93.86666666666666
1115,-12.8,-539.7333333333333,-87.46666666666667
1116,-14.933333333333334,-535.4666666666667,-89.6
1117,-14.933333333333334,-541.8666666666667,-87.46666666666667
1118,-12.8,-541.8666666666667,-81.06666666666666
1119,-21.333333333333332,-533.3333333333334,-87.46666666666667
1120,-12.8,-544.0,-78.93333333333334
1121,-14.933333333333334,-541.8666666666667,-91.73333333333333
1122,-17.066666666666666,-541.8666666666667,-93.86666666666666
1123,-14.933333333333334,-544.0,-85.33333333333333
1124,-8.533333333333333,-546.1333333333333,-100.26666666666667
1125,-12.8,-546.1333333333333,-89.6
1126,-17.066666666666666,-541.8666666666667,-93.86666666666666
1127,-8.533333333333333,-546.1333333333333,-87.46666666666667
1128,-8.533333333333333,-548.2666666666667,-89.6
1129,-12.8,-539.7333333333333,-100.26666666666667
1130,-4.266666666666667,-537.6,-85.33333333333333
1131,-14.933333333333334,-537.6,-85.33333333333333
1132,-8.533333333333333,-539.7333333333333,-91.73333333333333
1133,-14.933333333333334,-539.7333333333333,-83.2
1134,-12.8,-535.4666666666667,-89.6
1135,-14.933333333333334,-539.7333333333333,-87.46666666666667
1136,-10.666666666666666,-541.8666666666667,-74.66666666666667
1137,-17.066666666666666,-539.7333333333333,-93.86666666666666
1138,-12.8,-537.6,-85.33333333333333
1139,-12.8,-539.7333333333333,-85.33333333333333
1140,-17.066666666666666,-533.3333333333334,-89.6
1141,-17.066666666666666,-537.6,-91.73333333333333
1142,-14.933333333333334,-535.4666666666667,-85.33333333333333
1143,-8.533333333333333,-541.8666666666667,-89.6
1144,-17.066666666666666,-544.0,-87.46666666666667
1145,-8.533333333333333,-537.6,-91.73333333333333
1146,-17.066666666666666,-533.3333333333334,-89.6
1147,-14.933333333333334,-535.4666666666667,-93.86666666666666
1148,-17.066666666666666,-539.7333333333333,-91.73333333333333
1149,-10.666666666666666,-539.7333333333333,-91.73333333333333
1150,-14.933333333333334,-541.8666666666667,-83.2
1151,-12.8,-539.7333333333333,-89.6
1152,-14.933333333333334,-541.8666666666667,-83.2
1153,-19.2,-541.8666666666667,-85.33333333333333
1154,-12.8,-544.0,-87.46666666666667
1155,-10.666666666666666,-546.1333333333333,-83.2
1156,-19.2,-539.7333333333333,-87.46666666666667
1157,-6.4,-544.0,-85.33333333333333
1158,-4.266666666666667,-539.7333333333333,-83.2
1159,-8.533333333333333,-539.7333333333333,-81.06666666666666
1160,-12.8,-539.7333333333333,-91.73333333333333
1161,-6.4,-539.7333333333333,-89.6
1162,-10.666666666666666,-533.3333333333334,-91.73333333333333
1163,-14.933333333333334,-539.7333333333333,-87.46666666666667
1164,-8.533333333333333,-539.7333333333333,-91.73333333333333
1165,-10.666666666666666,-541.8666666666667,-83.2
1166,-12.8,-544.0,-93.86666666666666
1167,-17.066666666666666,-541.8666666666667,-96.0
1168,-10.666666666666666,-533.3333333333334,-93.86666666666666
1169,-10.666666666666666,-539.7333333333333,-93.86666666666666
1170,-4.266666666666667,-541.8666666666667,-89.6
1171,-14.933333333333334,-535.4666666666667,-98.13333333333333
1172,-8.533333333333333,-544.0,-93.86666666666666
1173,-10.666666666666666,-539.7333333333333,-89.6
1174,-12.8,-541.8666666666667,-83.2
1175,-10.666666666666666,-544.0,-89.6
1176,-12.8,-535.4666666666667,-89.6
1177,-10.666666666666666,-546.1333333333333,-96.0
1178,-8.533333333333333,-537.6,-89.6
1179,-12.8,-537.6,-102.4
1180,-8.533333333333333,-546.1333333333333,-96.0
1181,-12.8,-535.4666666666667,-91.73333333333333
1182,-10.666666666666666,-541.8666666666667,-91.73333333333333
1183,-10.666666666666666,-544.0,-85.33333333333333
1184,-6.4,-539.7333333333333,-83.2
1185,-12.8,-539.7333333333333,-98.13333333333333
1186,-12.8,-541.8666666666667,-87.46666666666667
1187,-10.666666666666666,-541.8666666666667,-91.73333333333333
1188,-12.8,-533.3333333333334,-89.6
1189,-8.533333333333333,-541.8666666666667,-85.33333333333333
1190,-10.666666666666666,-539.7333333333333,-81.06666666666666
1191,-8.533333333333333,-535.4666666666667,-81.06666666666666
1192,-14.933333333333334,-529.0666666666666,-76.8
1193,-12.8,-529.0666666666666,-78.93333333333334
1194,-8.533333333333333,-529.0666666666666,-83.2
1195,-12.8,-533.3333333333334,-83.2
1196,-8.533333333333333,-535.4666666666667,-87.46666666666667
1197,-10.666666666666666,-535.4666666666667,-83.2
1198,-8.533333333333333,-537.6,-76.8
1199,-8.533333333333333,-533.3333333333334,-83.2
1200,-12.8,-541.8666666666667,-91.73333333333333
1201,-10.666666666666666,-544.0,-78.93333333333334
1202,-14.933333333333334,-537.6,-85.33333333333333
1203,-12.8,-544.0,-87.46666666666667
1204,-10.666666666666666,-544.0,-91.73333333333333
1205,-12.8,-539.7333333333333,-93.86666666666666
1206,-8.533333333333333,-539.7333333333333,-93.86666666666666
1207,-12.8,-537.6,-98.13333333333333
1208,-12.8,-539.7333333333333,-108.8
1209,-8.533333333333333,-541.8666666666667,-102.4
1210,-6.4,-550.4,-102.4
1211,-10.666666666666666,-541.8666666666667,-108.8
1212,-17.066666666666666,-544.0,-110.93333333333334
1213,-19.2,-541.8666666666667,-104.53333333333333
1214,-14.933333333333334,-546.1333333333333,-106.66666666666667
1215,-10.666666666666666,-548.2666666666667,-110.93333333333334
1216,-10.666666666666666,-548.2666666666667,-121.6
1217,-17.066666666666666,-548.2666666666667,-110.93333333333334
1218,-12.8,-546.1333333333333,-115.2
1219,-14.933333333333334,-541.8666666666667,-117.33333333333333
1220,-14.933333333333334,-546.1333333333333,-110.93333333333334
1221,-17.066666666666666,-544.0,-113.06666666666666
1222,-19.2,-546.1333333333333,-106.66666666666667
1223,-14.933333333333334,-550.4,-113.06666666666666
1224,-17.066666666666666,-539.7333333333333,-115.2
1225,-14.933333333333334,-548.2666666666667,-110.93333333333334
1226,-14.933333333333334,-548.2666666666667,-108.8
1227,-17.066666666666666,-546.1333333333333,-108.8
1228,-21.333333333333332,-539.7333333333333,-104.53333333333333
1229,-19.2,-544.0,-108.8
1230,-14.933333333333334,-546.1333333333333,-113.06666666666666
1231,-17.066666666666666,-546.1333333333333,-104.53333333333333
1232,-12.8,-541.8666666666667,-93.86666666666666
1233,-12.8,-539.7333333333333,-106.66666666666667
1234,-19.2,-539.7333333333333,-110.93333333333334
1235,-14.933333333333334,-544.0,-104.53333333333333
1236,-14.933333333333334,-544.0,-104.53333333333333
1237,-14.933333333333334,-539.7333333333333,-104.53333333333333
1238,-6.4,-544.0,-104.53333333333333
1239,-4.266666666666667,-552.5333333333333,-104.53333333333333
1240,-8.533333333333333,-548.2666666666667,-108.8
1241,-8.533333333333333,-541.8666666666667,-113.06666666666666
1242,-12.8,-541.8666666666667,-115.2
1243,-8.533333333333333,-544.0,-110.93333333333334
1244,-8.533333333333333,-537.6,-119.46666666666667
1245,-8.533333333333333,-539.7333333333333,-115.2
1246,-6.4,-544.0,-115.2
1247,-8.533333333333333,-539.7333333333333,-110.93333333333334
1248,-6.4,-537.6,-110.93333333333334
1249,-12.8,-535.4666666666667,-110.93333333333334
1250,-10.666666666666666,-533.3333333333334,-113.06666666666666
1251,-6.4,-539.7333333333333,-104.53333333333333
1252,-10.666666666666666,-535.4666666666667,-108.8
1253,-12.8,-537.6,-108.8
1254,-10.666666666666666,-535.4666666666667,-108.8
1255,-12.8,-546.1333333333333,-110.93333333333334
1256,-14.933333333333334,-533.3333333333334,-113.06666666666666
1257,-17.066666666666666,-539.7333333333333,-100.26666666666667
1258,-14.933333333333334,-544.0,-110.93333333333334
1259,-21.333333333333332,-544.0,-98.13333333333333
1260,-12.8,-539.7333333333333,-102.4
1261,-12.8,-544.0,-106.66666666666667
1262,-17.066666666666666,-544.0,-98.13333333333333
1263,-12.8,-544.0,-108.8
1264,-12.8,-537.6,-106.66666666666667
1265,-8.533333333333333,-535.4666666666667,-108.8
1266,-6.4,-541.8666666666667,-110.93333333333334
1267,-10.666666666666666,-541.8666666666667,-115.2
1268,-14.933333333333334,-533.3333333333334,-104.53333333333333
1269,-17.066666666666666,-535.4666666666667,-104.53333333333333
1270,-4.266666666666667,-537.6,-106.66666666666667
1271,-12.8,-541.8666666666667,-106.66666666666667
1272,-6.4,-541.8666666666667,-110.93333333333334
1273,-12.8,-535.4666666666667,-110.93333333333334
1274,-10.666666666666666,-546.1333333333333,-110.93333333333334
1275,-10.666666666666666,-541.8666666666667,-113.06666666666666
1276,-10.666666666666666,-537.6,-104.53333333333333
1277,-8.533333333333333,-546.1333333333333,-110.93333333333334
1278,-10.666666666666666,-533.3333333333334,-108.8
1279,-12.8,-531.2,-113.06666666666666
1280,-8.533333333333333,-535.4666666666667,-113.06666666666666
1281,-12.8,-529.0666666666666,-108.8
1282,-14.933333333333334,-537.6,-117.33333333333333
1283,-12.8,-539.7333333333333,-108.8
1284,-17.066666666666666,-544.0,-110.93333333333334
1285,-17.066666666666666,-535.4666666666667,-104.53333333333333
1286,-19.2,-541.8666666666667,-100.26666666666667
1287,-17.066666666666666,-533.3333333333334,-113.06666666666666
1288,-12.8,-541.8666666666667,-108.8
1289,-12.8,-539.7333333333333,-102.4
1290,-17.066666666666666,-537.6,-108.8
1291,-10.666666666666666,-544.0,-108.8
1292,-14.933333333333334,-539.7333333333333,-104.53333333333333
1293,-8.533333333333333,-544.0,-98.13333333333333
1294,-19.2,-535.4666666666667,-106.66666666666667
1295,-17.066666666666666,-539.7333333333333,-96.0
1296,-12.8,-544.0,-100.26666666666667
1297,-10.666666666666666,-541.8666666666667,-98.13333333333333
1298,-8.533333333333333,-539.7333333333333,-100.26666666666667
1299,-14.933333333333334,-537.6,-98.13333333333333
1300,-17.066666666666666,-529.0666666666666,-83.2
1301,4.266666666666667,-537.6,-59.733333333333334
1302,-19.2,-558.9333333333333,-110.93333333333334
1303,-14.933333333333334,-544.0,-121.6
1304,-21.333333333333332,-524.8,-96.0
1305,-8.533333333333333,-544.0,-106.66666666666667
1306,-10.666666666666666,-539.7333333333333,-100.26666666666667
1307,-12.8,-544.0,-108.8
1308,-10.666666666666666,-539.7333333333333,-108.8
1309,-12.8,-533.3333333333334,-110.93333333333334
1310,-14.933333333333334,-541.8666666666667,-106.66666666666667
1311,-12.8,-531.2,-104.53333333333333
1312,-10.666666666666666,-537.6,-106.66666666666667
1313,-14.933333333333334,-539.7333333333333,-100.26666666666667
1314,-10.666666666666666,-535.4666666666667,-100.26666666666667
1315,-14.933333333333334,-533.3333333333334,-98.13333333333333
1316,-12.8,-529.0666666666666,-104.53333333333333
1317,-10.666666666666666,-539.7333333333333,-106.66666666666667
1318,-10.666666666666666,-533.3333333333334,-102.4
1319,-10.666666666666666,-535.4666666666667,-89.6
1320,-17.066666666666666,-535.4666666666667,-104.53333333333333
1321,-14.933333333333334,-539.7333333333333,-102.4
1322,-14.933333333333334,-544.0,-106.66666666666667
1323,-19.2,-539.7333333333333,-98.13333333333333
1324,-14.933333333333334,-537.6,-102.4
1325,-14.933333333333334,-537.6,-100.26666666666667
1326,-10.666666666666666,-541.8666666666667,-104.53333333333333
1327,-12.8,-539.7333333333333,-100.26666666666667
1328,-10.666666666666666,-539.7333333333333,-113.06666666666666
1329,-12.8,-537.6,-104.53333333333333
1330,-10.666666666666666,-539.7333333333333,-108.8
1331,-12.8,-537.6,-113.06666666666666
1332,-10.666666666666666,-541.8666666666667,-100.26666666666667
1333,-17.066666666666666,-539.7333333333333,-106.66666666666667
1334,-14.933333333333334,-544.0,-102.4
1335,-12.8,-541.8666666666667,-108.8
1336,-17.066666666666666,-541.8666666666667,-113.06666666666666
1337,-17.066666666666666,-539.7333333333333,-108.8
1338,-14.933333333333334,-541.8666666666667,-100.26666666666667
1339,-17.066666666666666,-544.0,-113.06666666666666
1340,-14.933333333333334,-537.6,-110.93333333333334
1341,-17.066666666666666,-533.3333333333334,-110.93333333333334
1342,-14.933333333333334,-537.6,-102.4
1343,-17.066666666666666,-537.6,-104.53333333333333
1344,-8.533333333333333,-537.6,-108.8
1345,-10.666666666666666,-533.3333333333334,-102.4
1346,-12.8,-529.0666666666666,-106.66666666666667
1347,-12.8,-533.3333333333334,-117.33333333333333
1348,-12.8,-529.0666666666666,-108.8
1349,-10.666666666666666,-537.6,-106.66666666666667
1350,-12.8,-535.4666666666667,-100.26666666666667
1351,-6.4,-539.7333333333333,-108.8
1352,-12.8,-537.6,-102.4
1353,-8.533333333333333,-546.1333333333333,-106.66666666666667
1354,-14.933333333333334,-535.4666666666667,-106.66666666666667
1355,-12.8,-544.0,-106.66666666666667
1356,-12.8,-541.8666666666667,-106.66666666666667
1357,-14.933333333333334,-537.6,-110.93333333333334
1358,-6.4,-544.0,-100.26666666666667
1359,-10.666666666666666,-539.7333333333333,-104.53333333333333
1360,-17.066666666666666,-544.0,-104.53333333333333
1361,-4.266666666666667,-548.2666666666667,-115.2
1362,-12.8,-539.7333333333333,-106.66666666666667
1363,-17.066666666666666,-539.7333333333333,-100.26666666666667
1364,-12.8,-541.8666666666667,-110.93333333333334
1365,-17.066666666666666,-541.8666666666667,-108.8
1366,-12.8,-546.1333333333333,-104.53333333333333
1367,-12.8,-541.8666666666667,-108.8
1368,-14.933333333333334,-539.7333333333333,-96.0
1369,-14.933333333333334,-537.6,-108.8
1370,-14.933333333333334,-537.6,-100.26666666666667
1371,-14.933333333333334,-539.7333333333333,-100.26666666666667
1372,-17.066666666666666,-535.4666666666667,-96.0
1373,-12.8,-533.3333333333334,-100.26666666666667
1374,-12.8,-537.6,-98.13333333333333
1375,-12.8,-544.0,-93.86666666666666
1376,-19.2,-539.7333333333333,-104.53333333333333
1377,-12.8,-546.1333333333333,-108.8
1378,-10.666666666666666,-544.0,-93.86666666666666
1379,-19.2,-539.7333333333333,-108.8
1380,-12.8,-539.7333333333333,-96.0
1381,-14.933333333333334,-533.3333333333334,-98.13333333333333
1382,-12.8,-539.7333333333333,-104.53333333333333
1383,-8.533333333333333,-535.4666666666667,-102.4
1384,-8.533333333333333,-544.0,-102.4
1385,-14.933333333333334,-539.7333333333333,-102.4
1386,-12.8,-539.7333333333333,-96.0
1387,-17.066666666666666,-541.8666666666667,-102.4
1388,-14.933333333333334,-541.8666666666667,-100.26666666666667
1389,-14.933333333333334,-537.6,-91.73333333333333
1390,-19.2,-539.7333333333333,-104.53333333333333
1391,-14.933333333333334,-546.1333333333333,-104.53333333333333
1392,-14.933333333333334,-539.7333333333333,-108.8
1393,-19.2,-535.4666666666667,-106.66666666666667
1394,-14.933333333333334,-539.7333333333333,-100.26666666666667
1395,-19.2,-531.2,-102.4
1396,-17.066666666666666,-533.3333333333334,-104.53333333333333
1397,-14.933333333333334,-533.3333333333334,-104.53333333333333
1398,-17.066666666666666,-544.0,-104.53333333333333
1399,-12.8,-537.6,-102.4
1400,-10.666666666666666,-537.6,-100.26666666666667
1401,-12.8,-535.4666666666667,-100.26666666666667
1402,-12.8,-546.1333333333333,-93.86666666666666
1403,-6.4,-537.6,-102.4
1404,-12.8,-539.7333333333333,-98.13333333333333
1405,-12.8,-537.6,-96.0
1406,-12.8,-537.6,-98.13333333333333
1407,-14.933333333333334,-531.2,-93.86666666666666
1408,-14.933333333333334,-533.3333333333334,-100.26666666666667
1409,-10.666666666666666,-535.4666666666667,-100.26666666666667
1410,-10.666666666666666,-535.4666666666667,-100.26666666666667
1411,-14.933333333333334,-535.4666666666667,-98.13333333333333
1412,-14.933333333333334,-535.4666666666667,-98.13333333333333
1413,-10.666666666666666,-544.0,-96.0
1414,-14.933333333333334,-541.8666666666667,-102.4
1415,-12.8,-541.8666666666667,-104.53333333333333
1416,-12.8,-537.6,-100.26666666666667
1417,-12.8,-537.6,-100.26666666666667
1418,-17.066666666666666,-539.7333333333333,-104.53333333333333
1419,-21.333333333333332,-546.1333333333333,-104.53333333333333
1420,-17.066666666666666,-539.7333333333333,-98.13333333333333
1421,-14.933333333333334,-546.1333333333333,-98.13333333333333
1422,-17.066666666666666,-546.1333333333333,-100.26666666666667
1423,-14.933333333333334,-539.7333333333333,-100.26666666666667
1424,-21.333333333333332,-531.2,-96.0
1425,-10.666666666666666,-544.0,-104.53333333333333
1426,-14.933333333333334,-537.6,-108.8
1427,-12.8,-539.7333333333333,-98.13333333333333
1428,-14.933333333333334,-537.6,-106.66666666666667
1429,-17.066666666666666,-537.6,-98.13333333333333
1430,-14.933333333333334,-535.4666666666667,-100.26666666666667
1431,-14.933333333333334,-529.0666666666666,-96.0
1432,-12.8,-539.7333333333333,-102.4
1433,-10.666666666666666,-539.7333333333333,-100.26666666666667
1434,-10.666666666666666,-539.7333333333333,-102.4
1435,-10.666666666666666,-546.1333333333333,-100.26666666666667
1436,-12.8,-539.7333333333333,-100.26666666666667
1437,-12.8,-541.8666666666667,-108.8
1438,-14.933333333333334,-544.0,-98.13333333333333
1439,-17.066666666666666,-539.7333333333333,-98.13333333333333
1440,-10.666666666666666,-541.8666666666667,-96.0
1441,-4.266666666666667,-541.8666666666667,-102.4
1442,-10.666666666666666,-546.1333333333333,-96.0
1443,-17.066666666666666,-541.8666666666667,-93.86666666666666
1444,-21.333333333333332,-544.0,-93.86666666666666
1445,-17.066666666666666,-539.7333333333333,-93.86666666666666
1446,-12.8,-546.1333333333333,-102.4
1447,-17.066666666666666,-535.4666666666667,-100.26666666666667
1448,-17.066666666666666,-539.7333333333333,-91.73333333333333
1449,-17.066666666666666,-537.6,-96.0
1450,-14.933333333333334,-537.6,-102.4
1451,-8.533333333333333,-535.4666666666667,-100.26666666666667
1452,-8.533333333333333,-544.0,-100.26666666666667
1453,-14.933333333333334,-535.4666666666667,-104.53333333333333
1454,-8.533333333333333,-537.6,-108.8
1455,-14.933333333333334,-539.7333333333333,-98.13333333333333
1456,-14.933333333333334,-537.6,-100.26666666666667
1457,-14.933333333333334,-544.0,-102.4
1458,-8.533333333333333,-546.1333333333333,-91.73333333333333
1459,-14.933333333333334,-541.8666666666667,-91.73333333333333
1460,-21.333333333333332,-550.4,-98.13333333333333
1461,-17.066666666666666,-539.7333333333333,-91.73333333333333
1462,-17.066666666666666,-541.8666666666667,-98.13333333333333
1463,-14.933333333333334,-546.1333333333333,-100.26666666666667
1464,-17.066666666666666,-535.4666666666667,-104.53333333333333
1465,-8.533333333333333,-539.7333333333333,-104.53333333333333
1466,-14.933333333333334,-539.7333333333333,-108.8
1467,-19.2,-533.3333333333334,-102.4
1468,-17.066666666666666,-539.7333333333333,-113.06666666666666
1469,-14.933333333333334,-539.7333333333333,-102.4
1470,-17.066666666666666,-539.7333333333333,-104.53333333333333
1471,-19.2,-544.0,-106.66666666666667
1472,-14.933333333333334,-533.3333333333334,-102.4
1473,-17.066666666666666,-537.6,-102.4
1474,-14.933333333333334,-539.7333333333333,-96.0
1475,-17.066666666666666,-537.6,-102.4
1476,-17.066666666666666,-539.7333333333333,-102.4
1477,-12.8,-544.0,-98.13333333333333
1478,-10.666666666666666,-544.0,-106.66666666666667
1479,-17.066666666666666,-539.7333333333333,-113.06666666666666
1480,-14.933333333333334,-539.7333333333333,-110.93333333333334
1481,-10.666666666666666,-537.6,-108.8
1482,-10.666666666666666,-537.6,-100.26666666666667
1483,-12.8,-541.8666666666667,-113.06666666666666
1484,-12.8,-537.6,-113.06666666666666
1485,-10.666666666666666,-546.1333333333333,-108.8
1486,-17.066666666666666,-537.6,-104.53333333333333
1487,-14.933333333333334,-546.1333333333333,-102.4
1488,-19.2,-535.4666666666667,-106.66666666666667
1489,-8.533333333333333,-539.7333333333333,-108.8
1490,-10.666666666666666,-539.7333333333333,-106.66666666666667
1491,-19.2,-546.1333333333333,-108.8
1492,-14.933333333333334,-544.0,-102.4
1493,-8.533333333333333,-539.7333333333333,-110.93333333333334
1494,-12.8,-541.8666666666667,-110.93333333333334
1495,-8.533333333333333,-544.0,-119.46666666666667
1496,-12.8,-539.7333333333333,-108.8
1497,-19.2,-541.8666666666667,-110.93333333333334
1498,-10.666666666666666,-539.7333333333333,-108.8
1499,-10.666666666666666,-539.7333333333333,-108.8
1500,-12.8,-539.7333333333333,-113.06666666666666
1501,-8.533333333333333,-535.4666666666667,-106.66666666666667
1502,-14.933333333333334,-539.7333333333333,-102.4
1503,-6.4,-544.0,-113.06666666666666
1504,-12.8,-546.1333333333333,-113.06666666666666
1505,-14.933333333333334,-533.3333333333334,-102.4
1506,-14.933333333333334,-533.3333333333334,-110.93333333333334
1507,-17.066666666666666,-537.6,-104.53333333333333
1508,-17.066666666666666,-535.4666666666667,-104.53333333333333
1509,-14.933333333333334,-537.6,-98.13333333333333
1510,-17.066666666666666,-533.3333333333334,-102.4
1511,-12.8,-537.6,-104.53333333333333
1512,-19.2,-541.8666666666667,-93.86666666666666
1513,-14.933333333333334,-537.6,-108.8
1514,-12.8,-539.7333333333333,-98.13333333333333
1515,-12.8,-537.6,-100.26666666666667
1516,-8.533333333333333,-539.7333333333333,-104.53333333333333
1517,-17.066666666666666,-544.0,-104.53333333333333
1518,-12.8,-539.7333333333333,-100.26666666666667
1519,-8.533333333333333,-537.6,-104.53333333333333
1520,-10.666666666666666,-544.0,-106.66666666666667
1521,-19.2,-533.3333333333334,-104.53333333333333
1522,-10.666666666666666,-544.0,-100.26666666666667
1523,-14.933333333333334,-541.8666666666667,-110.93333333333334
1524,-17.066666666666666,-541.8666666666667,-102.4
1525,-14.933333333333334,-537.6,-113.06666666666666
1526,-14.933333333333334,-544.0,-110.93333333333334
1527,-12.8,-546.1333333333333,-102.4
1528,-19.2,-535.4666666666667,-104.53333333333333
1529,-12.8,-539.7333333333333,-106.66666666666667
1530,-8.533333333333333,-535.4666666666667,-106.66666666666667
1531,-12.8,-531.2,-110.93333333333334
1532,-12.8,-535.4666666666667,-106.66666666666667
1533,-10.666666666666666,-537.6,-110.93333333333334
1534,-19.2,-535.4666666666667,-106.66666666666667
1535,-14.933333333333334,-535.4666666666667,-108.8
1536,-4.266666666666667,-544.0,-110.93333333333334
1537,-12.8,-548.2666666666667,-108.8
1538,-14.933333333333334,-541.8666666666667,-102.4
1539,-14.933333333333334,-544.0,-110.93333333333334
1540,-10.666666666666666,-541.8666666666667,-113.06666666666666
1541,-14.933333333333334,-541.8666666666667,-117.33333333333333
1542,-12.8,-541.8666666666667,-115.2
1543,-10.666666666666666,-535.4666666666667,-113.06666666666666
1544,-12.8,-537.6,-110.93333333333334
1545,-10.666666666666666,-541.8666666666667,-113.06666666666666
1546,-12.8,-539.7333333333333,-110.93333333333334
1547,-8.533333333333333,-539.7333333333333,-106.66666666666667
1548,-14.933333333333334,-539.7333333333333,-108.8
1549,-12.8,-535.4666666666667,-102.4
1550,-8.533333333333333,-537.6,-100.26666666666667
1551,-21.333333333333332,-544.0,-102.4
1552,-21.333333333333332,-541.8666666666667,-98.13333333333333
1553,-10.666666666666666,-541.8666666666667,-98.13333333333333
1554,-12.8,-539.7333333333333,-100.26666666666667
1555,-21.333333333333332,-535.4666666666667,-108.8
1556,-12.8,-535.4666666666667,-100.26666666666667
1557,-17.066666666666666,-535.4666666666667,-106.66666666666667
1558,-6.4,-535.4666666666667,-108.8
1559,-12.8,-535.4666666666667,-106.66666666666667
1560,-14.933333333333334,-535.4666666666667,-110.93333333333334
1561,-10.666666666666666,-535.4666666666667,-108.8
1562,-12.8,-533.3333333333334,-98.13333333333333
1563,-8.533333333333333,-535.4666666666667,-106.66666666666667
1564,-14.933333333333334,-533.3333333333334,-113.06666666666666
1565,-8.533333333333333,-533.3333333333334,-106.66666666666667
1566,-12.8,-535.4666666666667,-108.8
1567,-10.666666666666666,-539.7333333333333,-110.93333333333334
1568,-17.066666666666666,-537.6,-108.8
1569,-17.066666666666666,-541.8666666666667,-102.4
1570,-17.066666666666666,-541.8666666666667,-104.53333333333333
1571,-12.8,-539.7333333333333,-108.8
1572,-14.933333333333334,-539.7333333333333,-102.4
1573,-19.2,-539.7333333333333,-106.66666666666667
1574,-17.066666666666666,-535.4666666666667,-119.46666666666667
1575,-10.666666666666666,-535.4666666666667,-104.53333333333333
1576,-12.8,-533.3333333333334,-108.8
1577,-17.066666666666666,-539.7333333333333,-104.53333333333333
1578,-17.066666666666666,-537.6,-106.66666666666667
1579,-14.933333333333334,-535.4666666666667,-113.06666666666666
1580,-12.8,-531.2,-108.8
1581,-14.933333333333334,-535.4666666666667,-108.8
1582,-8.533333333333333,-526.9333333333333,-102.4
1583,-10.666666666666666,-531.2,-110.93333333333334
1584,-10.666666666666666,-531.2,-117.33333333333333
1585,-6.4,-535.4666666666667,-104.53333333333333
1586,-12.8,-535.4666666666667,-106.66666666666667
1587,-6.4,-535.4666666666667,-102.4
1588,-12.8,-529.0666666666666,-108.8
1589,-12.8,-531.2,-106.66666666666667
1590,-6.4,-537.6,-108.8
1591,-12.8,-537.6,-110.93333333333334
1592,-14.933333333333334,-529.0666666666666,-113.06666666666666
1593,-19.2,-535.4666666666667,-110.93333333333334
1594,-14.933333333333334,-535.4666666666667,-106.66666666666667
1595,-17.066666666666666,-533.3333333333334,-115.2
1596,-19.2,-529.0666666666666,-113.06666666666666
1597,-17.066666666666666,-529.0666666666666,-113.06666666666666
1598,-14.933333333333334,-520.5333333333333,-117.33333333333333
1599,-14.933333333333334,-526.9333333333333,-119.46666666666667
1600,-17.066666666666666,-522.6666666666666,-115.2
1601,-14.933333333333334,-524.8,-117.33333333333333
1602,-12.8,-531.2,-115.2
1603,-19.2,-529.0666666666666,-115.2
1604,-17.066666666666666,-531.2,-117.33333333333333
1605,-8.533333333333333,-529.0666666666666,-119.46666666666667
1606,-8.533333333333333,-531.2,-110.93333333333334
1607,-10.666666666666666,-533.3333333333334,-119.46666666666667
1608,-10.666666666666666,-529.0666666666666,-115.2
1609,-14.933333333333334,-535.4666666666667,-119.46666666666667
1610,-12.8,-533.3333333333334,-121.6
1611,-19.2,-533.3333333333334,-121.6
1612,-17.066666666666666,-529.0666666666666,-119.46666666666667
1613,-14.933333333333334,-533.3333333333334,-125.86666666666666
1614,-10.666666666666666,-524.8,-125.86666666666666
1615,-8.533333333333333,-526.9333333333333,-130.13333333333333
1616,-17.066666666666666,-524.8,-130.13333333333333
1617,-8.533333333333333,-520.5333333333333,-128.0
1618,-6.4,-529.0666666666666,-125.86666666666666
1619,-10.666666666666666,-526.9333333333333,-134.4
1620,-6.4,-526.9333333333333,-134.4
1621,-10.666666666666666,-518.4,-130.13333333333333
1622,-8.533333333333333,-531.2,-132.26666666666665
1623,-14.933333333333334,-522.6666666666666,-136.53333333333333
1624,-17.066666666666666,-529.0666666666666,-130.13333333333333
1625,-14.933333333333334,-526.9333333333333,-149.33333333333334
1626,-17.066666666666666,-529.0666666666666,-142.93333333333334
1627,-14.933333333333334,-529.0666666666666,-142.93333333333334
1628,-21.333333333333332,-526.9333333333333,-140.8
1629,-23.466666666666665,-529.0666666666666,-149.33333333333334
1630,-23.466666666666665,-526.9333333333333,-145.06666666666666
1631,-23.466666666666665,-529.0666666666666,-147.2
1632,-25.6,-531.2,-153.6
1633,-29.866666666666667,-524.8,-151.46666666666667
1634,-25.6,-533.3333333333334,-155.73333333333332
1635,-23.466666666666665,-533.3333333333334,-149.33333333333334
1636,-21.333333333333332,-535.4666666666667,-160.0
1637,-19.2,-539.7333333333333,-157.86666666666667
1638,-23.466666666666665,-531.2,-160.0
1639,-21.333333333333332,-539.7333333333333,-155.73333333333332
1640,-21.333333333333332,-537.6,-155.73333333333332
1641,-14.933333333333334,-533.3333333333334,-157.86666666666667
1642,-21.333333333333332,-524.8,-160.0
1643,-17.066666666666666,-526.9333333333333,-160.0
1644,-23.466666666666665,-514.1333333333333,-153.6
1645,-23.466666666666665,-509.8666666666667,-164.26666666666665
1646,-21.333333333333332,-512.0,-160.0
1647,-23.466666666666665,-507.73333333333335,-166.4
1648,-14.933333333333334,-507.73333333333335,-164.26666666666665
1649,-21.333333333333332,-505.59999999999997,-166.4
1650,-14.933333333333334,-512.0,-166.4
1651,-21.333333333333332,-514.1333333333333,-164.26666666666665
1652,-8.533333333333333,-516.2666666666667,-170.66666666666666
1653,-8.533333333333333,-516.2666666666667,-168.53333333333333
1654,-2.1333333333333333,-514.1333333333333,-157.86666666666667
1655,-8.533333333333333,-501.3333333333333,-172.8
1656,-2.1333333333333333,-509.8666666666667,-177.06666666666666
1657,-8.533333333333333,-505.59999999999997,-174.93333333333334
1658,-6.4,-507.73333333333335,-179.2
1659,-6.4,-516.2666666666667,-172.8
1660,-10.666666666666666,-518.4,-177.06666666666666
1661,-19.2,-518.4,-181.33333333333334
1662,-17.066666666666666,-526.9333333333333,-177.06666666666666
1663,-23.466666666666665,-524.8,-185.6
1664,-23.466666666666665,-518.4,-183.46666666666667
1665,-17.066666666666666,-522.6666666666666,-192.0
1666,-17.066666666666666,-514.1333333333333,-194.13333333333333
1667,-6.4,-509.8666666666667,-196.26666666666665
1668,-8.533333333333333,-512.0,-202.66666666666666
1669,-4.266666666666667,-505.59999999999997,-200.53333333333333
1670,-2.1333333333333333,-494.93333333333334,-211.2
1671,0.0,-499.2,-206.93333333333334
1672,2.1333333333333333,-494.93333333333334,-204.8
1673,-4.266666666666667,-490.6666666666667,-209.06666666666666
1674,8.533333333333333,-497.06666666666666,-209.06666666666666
1675,6.4,-494.93333333333334,-213.33333333333334
1676,10.666666666666666,-494.93333333333334,-215.46666666666667
1677,-2.1333333333333333,-486.4,-221.86666666666667
1678,4.266666666666667,-490.6666666666667,-224.0
1679,10.666666666666666,-480.0,-226.13333333333333
1680,8.533333333333333,-480.0,-241.06666666666666
1681,14.933333333333334,-477.8666666666667,-245.33333333333334
1682,19.2,-473.59999999999997,-249.6
1683,23.466666666666665,-473.59999999999997,-253.86666666666667
1684,19.2,-477.8666666666667,-264.5333333333333
1685,25.6,-477.8666666666667,-268.8
1686,21.333333333333332,-486.4,-290.1333333333333
1687,38.4,-484.26666666666665,-288.0
1688,38.4,-490.6666666666667,-294.4
1689,38.4,-477.8666666666667,-292.26666666666665
1690,38.4,-473.59999999999997,-288.0
1691,44.8,-469.3333333333333,-300.8
1692,38.4,-467.2,-300.8
1693,34.13333333333333,-471.46666666666664,-300.8
1694,36.266666666666666,-469.3333333333333,-309.3333333333333
1695,42.666666666666664,-473.59999999999997,-302.93333333333334
1696,34.13333333333333,-469.3333333333333,-302.93333333333334
1697,44.8,-462.93333333333334,-322.1333333333333
1698,40.53333333333333,-469.3333333333333,-317.8666666666667
1699,46.93333333333333,-471.46666666666664,-334.93333333333334
1700,40.53333333333333,-456.5333333333333,-324.26666666666665
1701,42.666666666666664,-452.26666666666665,-332.8
1702,40.53333333333333,-435.2,-330.6666666666667
1703,42.666666666666664,-435.2,-332.8
1704,51.2,-435.2,-339.2
1705,49.06666666666666,-428.8,-343.46666666666664
1706,57.6,-435.2,-343.46666666666664
1707,68.26666666666667,-443.73333333333335,-339.2
1708,61.86666666666667,-456.5333333333333,-332.8
1709,53.333333333333336,-443.73333333333335,-324.26666666666665
1710,46.93333333333333,-450.1333333333333,-328.5333333333333
1711,42.666666666666664,-456.5333333333333,-322.1333333333333
1712,34.13333333333333,-454.4,-326.4
1713,25.6,-450.1333333333333,-339.2
1714,14.933333333333334,-460.8,-334.93333333333334
1715,0.0,-462.93333333333334,-334.93333333333334
1716,4.266666666666667,-458.6666666666667,-349.8666666666667
1717,10.666666666666666,-467.2,-341.3333333333333
1718,14.933333333333334,-460.8,-330.6666666666667
1719,14.933333333333334,-456.5333333333333,-337.06666666666666
1720,21.333333333333332,-462.93333333333334,-334.93333333333334
1721,29.866666666666667,-471.46666666666664,-330.6666666666667
1722,17.066666666666666,-456.5333333333333,-337.06666666666666
1723,23.466666666666665,-458.6666666666667,-334.93333333333334
1724,29.866666666666667,-454.4,-337.06666666666666
1725,27.733333333333334,-443.73333333333335,-343.46666666666664
1726,14.933333333333334,-458.6666666666667,-317.8666666666667
1727,27.733333333333334,-445.8666666666667,-354.1333333333333
1728,23.466666666666665,-445.8666666666667,-349.8666666666667
1729,25.6,-454.4,-354.1333333333333
1730,25.6,-454.4,-362.6666666666667
1731,17.066666666666666,-454.4,-358.4
1732,19.2,-445.8666666666667,-364.8
1733,29.866666666666667,-445.8666666666667,-373.3333333333333
1734,32.0,-445.8666666666667,-371.2
1735,36.266666666666666,-445.8666666666667,-381.8666666666667
1736,38.4,-448.0,-386.1333333333333
1737,36.266666666666666,-439.46666666666664,-398.93333333333334
1738,38.4,-435.2,-394.6666666666667
1739,36.266666666666666,-435.2,-394.6666666666667
1740,36.266666666666666,-441.59999999999997,-388.26666666666665
1741,34.13333333333333,-445.8666666666667,-396.8
1742,34.13333333333333,-439.46666666666664,-394.6666666666667
1743,25.6,-433.06666666666666,-394.6666666666667
1744,32.0,-428.8,-403.2
1745,36.266666666666666,-424.5333333333333,-411.73333333333335
1746,34.13333333333333,-420.26666666666665,-426.6666666666667
1747,38.4,-433.06666666666666,-424.5333333333333
1748,40.53333333333333,-426.6666666666667,-428.8
1749,40.53333333333333,-424.5333333333333,-428.8
1750,42.666666666666664,-424.5333333333333,-435.2
1751,38.4,-422.4,-433.06666666666666
1752,38.4,-420.26666666666665,-435.2
1753,44.8,-416.0,-433.06666666666666
1754,42.666666666666664,-416.0,-433.06666666666666
1755,40.53333333333333,-411.73333333333335,-435.2
1756,44.8,-416.0,-443.73333333333335
1757,40.53333333333333,-403.2,-448.0
1758,42.666666666666664,-401.06666666666666,-445.8666666666667
1759,36.266666666666666,-396.8,-458.6666666666667
1760,38.4,-390.4,-462.93333333333334
1761,46.93333333333333,-379.73333333333335,-473.59999999999997
1762,49.06666666666666,-379.73333333333335,-475.73333333333335
1763,53.333333333333336,-375.46666666666664,-482.1333333333333
1764,55.46666666666667,-379.73333333333335,-494.93333333333334
1765,61.86666666666667,-384.0,-501.3333333333333
1766,64.0,-384.0,-512.0
1767,66.13333333333333,-381.8666666666667,-507.73333333333335
1768,59.733333333333334,-371.2,-514.1333333333333
1769,74.66666666666667,-366.93333333333334,-509.8666666666667
1770,70.4,-366.93333333333334,-524.8
1771,74.66666666666667,-366.93333333333334,-524.8
1772,68.26666666666667,-371.2,-518.4
1773,66.13333333333333,-371.2,-516.2666666666667
1774,66.13333333333333,-366.93333333333334,-503.46666666666664
1775,66.13333333333333,-371.2,-501.3333333333333
1776,66.13333333333333,-358.4,-516.2666666666667
1777,66.13333333333333,-358.4,-505.59999999999997
1778,81.06666666666666,-356.26666666666665,-518.4
1779,83.2,-364.8,-512.0
1780,89.6,-362.6666666666667,-516.2666666666667
1781,89.6,-360.5333333333333,-509.8666666666667
1782,89.6,-360.5333333333333,-509.8666666666667
1783,87.46666666666667,-377.6,-516.2666666666667
1784,72.53333333333333,-371.2,-509.8666666666667
1785,61.86666666666667,-377.6,-503.46666666666664
1786,66.13333333333333,-381.8666666666667,-492.8
1787,68.26666666666667,-379.73333333333335,-503.46666666666664
1788,68.26666666666667,-386.1333333333333,-497.06666666666666
1789,72.53333333333333,-377.6,-492.8
1790,68.26666666666667,-379.73333333333335,-494.93333333333334
1791,66.13333333333333,-379.73333333333335,-486.4
1792,68.26666666666667,-379.73333333333335,-499.2
1793,76.8,-379.73333333333335,-484.26666666666665
1794,78.93333333333334,-377.6,-484.26666666666665
1795,83.2,-388.26666666666665,-482.1333333333333
1796,89.6,-388.26666666666665,-494.93333333333334
1797,87.46666666666667,-381.8666666666667,-494.93333333333334
1798,83.2,-373.3333333333333,-507.73333333333335
1799,89.6,-379.73333333333335,-507.73333333333335
1800,78.93333333333334,-362.6666666666667,-514.1333333333333
1801,76.8,-364.8,-512.0
1802,85.33333333333333,-366.93333333333334,-516.2666666666667
1803,78.93333333333334,-364.8,-520.5333333333333
1804,87.46666666666667,-366.93333333333334,-516.2666666666667
1805,81.06666666666666,-349.8666666666667,-501.3333333333333
1806,76.8,-349.8666666666667,-522.6666666666666
1807,81.06666666666666,-343.46666666666664,-524.8
1808,91.73333333333333,-349.8666666666667,-509.8666666666667
1809,91.73333333333333,-337.06666666666666,-529.0666666666666
1810,100.26666666666667,-326.4,-514.1333333333333
1811,89.6,-330.6666666666667,-524.8
1812,87.46666666666667,-330.6666666666667,-531.2
1813,91.73333333333333,-313.6,-541.8666666666667
1814,89.6,-307.2,-541.8666666666667
1815,93.86666666666666,-309.3333333333333,-544.0
1816,91.73333333333333,-298.6666666666667,-531.2
1817,83.2,-296.5333333333333,-533.3333333333334
1818,85.33333333333333,-305.06666666666666,-531.2
1819,85.33333333333333,-305.06666666666666,-526.9333333333333
1820,81.06666666666666,-309.3333333333333,-524.8
1821,93.86666666666666,-313.6,-526.9333333333333
1822,96.0,-322.1333333333333,-524.8
1823,91.73333333333333,-317.8666666666667,-529.0666666666666
1824,93.86666666666666,-326.4,-535.4666666666667
1825,91.73333333333333,-334.93333333333334,-533.3333333333334
1826,85.33333333333333,-334.93333333333334,-529.0666666666666
1827,85.33333333333333,-328.5333333333333,-531.2
1828,83.2,-322.1333333333333,-531.2
1829,72.53333333333333,-317.8666666666667,-531.2
1830,76.8,-311.46666666666664,-526.9333333333333
1831,85.33333333333333,-322.1333333333333,-535.4666666666667
1832,89.6,-322.1333333333333,-533.3333333333334
1833,85.33333333333333,-307.2,-522.6666666666666
1834,76.8,-307.2,-533.3333333333334
1835,87.46666666666667,-317.8666666666667,-531.2
1836,91.73333333333333,-320.0,-531.2
1837,89.6,-307.2,-541.8666666666667
1838,85.33333333333333,-298.6666666666667,-533.3333333333334
1839,89.6,-298.6666666666667,-533.3333333333334
1840,78.93333333333334,-285.8666666666667,-529.0666666666666
1841,81.06666666666666,-294.4,-514.1333333333333
1842,83.2,-290.1333333333333,-522.6666666666666
1843,72.53333333333333,-288.0,-512.0
1844,68.26666666666667,-298.6666666666667,-509.8666666666667
1845,51.2,-294.4,-509.8666666666667
1846,55.46666666666667,-290.1333333333333,-518.4
1847,46.93333333333333,-300.8,-509.8666666666667
1848,46.93333333333333,-311.46666666666664,-505.59999999999997
1849,42.666666666666664,-307.2,-505.59999999999997
1850,42.666666666666664,-313.6,-509.8666666666667
1851,36.266666666666666,-317.8666666666667,-505.59999999999997
1852,40.53333333333333,-315.73333333333335,-501.3333333333333
1853,36.266666666666666,-311.46666666666664,-505.59999999999997
1854,38.4,-294.4,-509.8666666666667
1855,42.666666666666664,-305.06666666666666,-503.46666666666664
1856,42.666666666666664,-294.4,-497.06666666666666
1857,42.666666666666664,-294.4,-492.8
1858,40.53333333333333,-296.5333333333333,-477.8666666666667
1859,42.666666666666664,-298.6666666666667,-467.2
1860,32.0,-313.6,-458.6666666666667
1861,34.13333333333333,-328.5333333333333,-465.06666666666666
1862,29.866666666666667,-334.93333333333334,-456.5333333333333
1863,23.466666666666665,-328.5333333333333,-452.26666666666665
1864,17.066666666666666,-343.46666666666664,-462.93333333333334
1865,27.733333333333334,-349.8666666666667,-460.8
1866,23.466666666666665,-345.6,-467.2
1867,21.333333333333332,-354.1333333333333,-462.93333333333334
1868,23.466666666666665,-349.8666666666667,-467.2
1869,17.066666666666666,-347.73333333333335,-469.3333333333333
1870,17.066666666666666,-358.4,-462.93333333333334
1871,6.4,-349.8666666666667,-443.73333333333335
1872,4.266666666666667,-354.1333333333333,-448.0
1873,4.266666666666667,-347.73333333333335,-448.0
1874,4.266666666666667,-349.8666666666667,-439.46666666666664
1875,4.266666666666667,-349.8666666666667,-437.3333333333333
1876,6.4,-347.73333333333335,-420.26666666666665
1877,0.0,-352.0,-422.4
1878,10.666666666666666,-352.0,-428.8
1879,6.4,-352.0,-416.0
1880,12.8,-352.0,-420.26666666666665
1881,12.8,-343.46666666666664,-418.1333333333333
1882,12.8,-356.26666666666665,-428.8
1883,21.333333333333332,-358.4,-428.8
1884,23.466666666666665,-356.26666666666665,-418.1333333333333
1885,19.2,-364.8,-413.8666666666667
1886,25.6,-364.8,-411.73333333333335
1887,23.466666666666665,-371.2,-422.4
1888,25.6,-375.46666666666664,-420.26666666666665
1889,27.733333333333334,-384.0,-420.26666666666665
1890,19.2,-381.8666666666667,-420.26666666666665
1891,10.666666666666666,-379.73333333333335,-422.4
1892,8.533333333333333,-379.73333333333335,-430.93333333333334
1893,14.933333333333334,-381.8666666666667,-422.4
1894,14.933333333333334,-392.5333333333333,-426.6666666666667
1895,14.933333333333334,-394.6666666666667,-411.73333333333335
1896,10.666666666666666,-392.5333333333333,-409.6
1897,10.666666666666666,-398.93333333333334,-409.6
1898,10.666666666666666,-411.73333333333335,-398.93333333333334
1899,4.266666666666667,-407.46666666666664,-401.06666666666666
1900,6.4,-409.6,-407.46666666666664
1901,17.066666666666666,-413.8666666666667,-403.2
1902,6.4,-407.46666666666664,-405.3333333333333
1903,12.8,-416.0,-418.1333333333333
1904,8.533333333333333,-411.73333333333335,-407.46666666666664
1905,17.066666666666666,-413.8666666666667,-405.3333333333333
1906,14.933333333333334,-403.2,-405.3333333333333
1907,14.933333333333334,-401.06666666666666,-396.8
1908,19.2,-388.26666666666665,-403.2
1909,21.333333333333332,-403.2,-396.8
1910,23.466666666666665,-398.93333333333334,-396.8
1911,19.2,-403.2,-394.6666666666667
1912,14.933333333333334,-403.2,-392.5333333333333
1913,14.933333333333334,-403.2,-392.5333333333333
1914,10.666666666666666,-409.6,-392.5333333333333
1915,2.1333333333333333,-405.3333333333333,-394.6666666666667
1916,8.533333333333333,-405.3333333333333,-392.5333333333333
1917,0.0,-398.93333333333334,-396.8
1918,8.533333333333333,-409.6,-392.5333333333333
1919,8.533333333333333,-413.8666666666667,-394.6666666666667
1920,6.4,-409.6,-407.46666666666664
1921,6.4,-409.6,-398.93333333333334
1922,12.8,-416.0,-401.06666666666666
1923,8.533333333333333,-409.6,-401.06666666666666
1924,8.533333333333333,-416.0,-392.5333333333333
1925,2.1333333333333333,-418.1333333333333,-392.5333333333333
1926,10.666666666666666,-416.0,-386.1333333333333
1927,12.8,-420.26666666666665,-390.4
1928,21.333333333333332,-416.0,-392.5333333333333
1929,12.8,-409.6,-386.1333333333333
1930,14.933333333333334,-416.0,-379.73333333333335
1931,14.933333333333334,-422.4,-358.4
1932,17.066666666666666,-430.93333333333334,-356.26666666666665
1933,17.066666666666666,-428.8,-371.2
1934,27.733333333333334,-420.26666666666665,-349.8666666666667
1935,29.866666666666667,-416.0,-317.8666666666667
1936,29.866666666666667,-403.2,-326.4
1937,29.866666666666667,-384.0,-337.06666666666666
1938,32.0,-371.2,-339.2
1939,27.733333333333334,-381.8666666666667,-362.6666666666667
1940,40.53333333333333,-381.8666666666667,-347.73333333333335
1941,32.0,-388.26666666666665,-341.3333333333333
1942,38.4,-403.2,-334.93333333333334
1943,42.666666666666664,-409.6,-324.26666666666665
1944,38.4,-420.26666666666665,-311.46666666666664
1945,36.266666666666666,-420.26666666666665,-302.93333333333334
1946,40.53333333333333,-424.5333333333333,-296.5333333333333
1947,38.4,-422.4,-290.1333333333333
1948,32.0,-418.1333333333333,-300.8
1949,34.13333333333333,-411.73333333333335,-298.6666666666667
1950,32.0,-394.6666666666667,-294.4
1951,32.0,-390.4,-305.06666666666666
1952,25.6,-379.73333333333335,-302.93333333333334
1953,27.733333333333334,-373.3333333333333,-307.2
1954,21.333333333333332,-362.6666666666667,-294.4
1955,19.2,-360.5333333333333,-294.4
1956,14.933333333333334,-352.0,-281.6
1957,17.066666666666666,-349.8666666666667,-279.46666666666664
1958,8.533333333333333,-349.8666666666667,-279.46666666666664
1959,10.666666666666666,-339.2,-279.46666666666664
1960,23.466666666666665,-341.3333333333333,-273.06666666666666
1961,19.2,-339.2,-268.8
1962,27.733333333333334,-334.93333333333334,-270.93333333333334
1963,21.333333333333332,-322.1333333333333,-273.06666666666666
1964,29.866666666666667,-341.3333333333333,-266.6666666666667
1965,23.466666666666665,-337.06666666666666,-273.06666666666666
1966,34.13333333333333,-345.6,-275.2
1967,40.53333333333333,-347.73333333333335,-270.93333333333334
1968,36.266666666666666,-356.26666666666665,-262.4
1969,23.466666666666665,-360.5333333333333,-264.5333333333333
1970,25.6,-362.6666666666667,-258.1333333333333
1971,17.066666666666666,-364.8,-262.4
1972,19.2,-369.06666666666666,-258.1333333333333
1973,14.933333333333334,-377.6,-258.1333333333333
1974,19.2,-386.1333333333333,-260.26666666666665
1975,10.666666666666666,-386.1333333333333,-256.0
1976,19.2,-398.93333333333334,-256.0
1977,21.333333333333332,-392.5333333333333,-262.4
1978,21.333333333333332,-401.06666666666666,-256.0
1979,27.733333333333334,-401.06666666666666,-258.1333333333333
1980,14.933333333333334,-407.46666666666664,-253.86666666666667
1981,23.466666666666665,-409.6,-262.4
1982,25.6,-409.6,-268.8
1983,17.066666666666666,-401.06666666666666,-253.86666666666667
1984,23.466666666666665,-409.6,-270.93333333333334
1985,17.066666666666666,-405.3333333333333,-266.6666666666667
1986,19.2,-384.0,-273.06666666666666
1987,27.733333333333334,-394.6666666666667,-264.5333333333333
1988,27.733333333333334,-377.6,-277.3333333333333
1989,19.2,-394.6666666666667,-238.93333333333334
1990,4.266666666666667,-394.6666666666667,-253.86666666666667
1991,0.0,-384.0,-245.33333333333334
1992,2.1333333333333333,-371.2,-249.6
1993,8.533333333333333,-371.2,-251.73333333333332
1994,2.1333333333333333,-358.4,-256.0
1995,6.4,-356.26666666666665,-253.86666666666667
1996,8.533333333333333,-362.6666666666667,-256.0
1997,8.533333333333333,-369.06666666666666,-258.1333333333333
1998,4.266666666666667,-364.8,-256.0
1999,6.4,-371.2,-266.6666666666667
2000,10.666666666666666,-371.2,-266.6666666666667
2001,12.8,-379.73333333333335,-262.4
2002,12.8,-381.8666666666667,-260.26666666666665
2003,12.8,-384.0,-264.5333333333333
2004,2.1333333333333333,-392.5333333333333,-266.6666666666667
2005,4.266666666666667,-405.3333333333333,-264.5333333333333
2006,2.1333333333333333,-416.0,-268.8
2007,2.1333333333333333,-424.5333333333333,-258.1333333333333
2008,-2.1333333333333333,-441.59999999999997,-256.0
2009,-4.266666666666667,-456.5333333333333,-258.1333333333333
2010,-2.1333333333333333,-462.93333333333334,-262.4
2011,0.0,-473.59999999999997,-266.6666666666667
2012,-4.266666666666667,-471.46666666666664,-266.6666666666667
2013,8.533333333333333,-488.5333333333333,-262.4
2014,8.533333333333333,-484.26666666666665,-253.86666666666667
2015,8.533333333333333,-497.06666666666666,-262.4
2016,2.1333333333333333,-497.06666666666666,-258.1333333333333
2017,2.1333333333333333,-492.8,-249.6
2018,-2.1333333333333333,-497.06666666666666,-245.33333333333334
2019,-2.1333333333333333,-497.06666666666666,-243.2
2020,2.1333333333333333,-503.46666666666664,-243.2
2021,6.4,-494.93333333333334,-243.2
2022,-2.1333333333333333,-492.8,-245.33333333333334
2023,0.0,-482.1333333333333,-241.06666666666666
2024,4.266666666666667,-477.8666666666667,-245.33333333333334
2025,10.666666666666666,-465.06666666666666,-245.33333333333334
2026,6.4,-454.4,-243.2
2027,4.266666666666667,-454.4,-232.53333333333333
2028,12.8,-448.0,-224.0
2029,8.533333333333333,-450.1333333333333,-232.53333333333333
2030,14.933333333333334,-448.0,-224.0
2031,12.8,-452.26666666666665,-232.53333333333333
2032,12.8,-454.4,-236.79999999999998
2033,2.1333333333333333,-456.5333333333333,-224.0
2034,2.1333333333333333,-458.6666666666667,-219.73333333333332
2035,0.0,-473.59999999999997,-215.46666666666667
2036,8.533333333333333,-477.8666666666667,-215.46666666666667
2037,14.933333333333334,-484.26666666666665,-219.73333333333332
2038,17.066666666666666,-482.1333333333333,-228.26666666666665
2039,29.866666666666667,-477.8666666666667,-236.79999999999998
2040,23.466666666666665,-482.1333333333333,-232.53333333333333
2041,29.866666666666667,-486.4,-221.86666666666667
2042,29.866666666666667,-482.1333333333333,-232.53333333333333
2043,40.53333333333333,-484.26666666666665,-224.0
2044,32.0,-492.8,-213.33333333333334
2045,40.53333333333333,-501.3333333333333,-206.93333333333334
2046,32.0,-497.06666666666666,-217.6
2047,29.866666666666667,-505.59999999999997,-213.33333333333334
2048,29.866666666666667,-501.3333333333333,-206.93333333333334
2049,23.466666666666665,-507.73333333333335,-215.46666666666667
2050,14.933333333333334,-505.59999999999997,-204.8
2051,12.8,-516.2666666666667,-204.8
2052,6.4,-518.4,-202.66666666666666
2053,2.1333333333333333,-526.9333333333333,-196.26666666666665
2054,-2.1333333333333333,-529.0666666666666,-192.0
2055,-8.533333333333333,-526.9333333333333,-200.53333333333333
2056,-17.066666666666666,-529.0666666666666,-189.86666666666667
2057,-25.6,-533.3333333333334,-192.0
2058,-25.6,-537.6,-189.86666666666667
2059,-32.0,-535.4666666666667,-196.26666666666665
2060,-40.53333333333333,-537.6,-189.86666666666667
2061,-44.8,-537.6,-177.06666666666666
2062,-46.93333333333333,-539.7333333333333,-177.06666666666666
2063,-49.06666666666666,-541.8666666666667,-181.33333333333334
2064,-46.93333333333333,-539.7333333333333,-187.73333333333332
2065,-55.46666666666667,-539.7333333333333,-187.73333333333332
2066,-44.8,-531.2,-194.13333333333333
2067,-36.266666666666666,-531.2,-194.13333333333333
2068,-36.266666666666666,-526.9333333333333,-185.6
2069,-32.0,-526.9333333333333,-183.46666666666667
2070,-25.6,-522.6666666666666,-185.6
2071,-21.333333333333332,-526.9333333333333,-185.6
2072,-14.933333333333334,-529.0666666666666,-194.13333333333333
2073,-10.666666666666666,-524.8,-185.6
2074,-8.533333333333333,-524.8,-181.33333333333334
2075,0.0,-524.8,-183.46666666666667
2076,0.0,-524.8,-174.93333333333334
2077,-8.533333333333333,-524.8,-179.2
2078,-2.1333333333333333,-516.2666666666667,-183.46666666666667
2079,-10.666666666666666,-524.8,-168.53333333333333
2080,-8.533333333333333,-520.5333333333333,-183.46666666666667
2081,-8.533333333333333,-516.2666666666667,-177.06666666666666
2082,-12.8,-509.8666666666667,-181.33333333333334
2083,-14.933333333333334,-505.59999999999997,-179.2
2084,-19.2,-505.59999999999997,-183.46666666666667
2085,-25.6,-499.2,-174.93333333333334
2086,-23.466666666666665,-501.3333333333333,-183.46666666666667
2087,-21.333333333333332,-501.3333333333333,-179.2
2088,-25.6,-494.93333333333334,-179.2
2089,-25.6,-492.8,-181.33333333333334
2090,-25.6,-499.2,-172.8
2091,-21.333333333333332,-499.2,-172.8
2092,-23.466666666666665,-503.46666666666664,-177.06666666666666
2093,-19.2,-501.3333333333333,-181.33333333333334
2094,-12.8,-505.59999999999997,-168.53333333333333
2095,-10.666666666666666,-514.1333333333333,-183.46666666666667
2096,-12.8,-509.8666666666667,-172.8
2097,-8.533333333333333,-509.8666666666667,-172.8
2098,-6.4,-518.4,-170.66666666666666
2099,-4.266666666666667,-518.4,-168.53333333333333
2100,-10.666666666666666,-524.8,-164.26666666666665
2101,-10.666666666666666,-529.0666666666666,-172.8
2102,-10.666666666666666,-533.3333333333334,-162.13333333333333
2103,-8.533333333333333,-535.4666666666667,-166.4
2104,-14.933333333333334,-539.7333333333333,-174.93333333333334
2105,-19.2,-544.0,-166.4
2106,-14.933333333333334,-548.2666666666667,-177.06666666666666
2107,-17.066666666666666,-544.0,-183.46666666666667
2108,-17.066666666666666,-531.2,-183.46666666666667
2109,-17.066666666666666,-541.8666666666667,-181.33333333333334
2110,-12.8,-535.4666666666667,-183.46666666666667
2111,-14.933333333333334,-537.6,-181.33333333333334
2112,-6.4,-539.7333333333333,-170.66666666666666
2113,-14.933333333333334,-541.8666666666667,-164.26666666666665
2114,-10.666666666666666,-529.0666666666666,-168.53333333333333
2115,-8.533333333333333,-531.2,-166.4
2116,-6.4,-537.6,-164.26666666666665
2117,-4.266666666666667,-531.2,-168.53333333333333
2118,-10.666666666666666,-524.8,-179.2
2119,-6.4,-520.5333333333333,-179.2
2120,-10.666666666666666,-520.5333333333333,-183.46666666666667
2121,-12.8,-512.0,-181.33333333333334
2122,-12.8,-516.2666666666667,-179.2
2123,-14.933333333333334,-516.2666666666667,-177.06666666666666
2124,-19.2,-512.0,-172.8
2125,-19.2,-514.1333333333333,-160.0
2126,-21.333333333333332,-514.1333333333333,-151.46666666666667
2127,-23.466666666666665,-526.9333333333333,-142.93333333333334
2128,-25.6,-522.6666666666666,-151.46666666666667
2129,-25.6,-526.9333333333333,-155.73333333333332
2130,-25.6,-529.0666666666666,-157.86666666666667
2131,-25.6,-524.8,-155.73333333333332
2132,-14.933333333333334,-531.2,-164.26666666666665
2133,-23.466666666666665,-537.6,-170.66666666666666
2134,-17.066666666666666,-537.6,-160.0
2135,-8.533333333333333,-544.0,-151.46666666666667
2136,-12.8,-541.8666666666667,-149.33333333333334
2137,-4.266666666666667,-539.7333333333333,-155.73333333333332
2138,-6.4,-533.3333333333334,-142.93333333333334
2139,2.1333333333333333,-544.0,-145.06666666666666
2140,4.266666666666667,-541.8666666666667,-128.0
2141,4.266666666666667,-539.7333333333333,-145.06666666666666
2142,2.1333333333333333,-539.7333333333333,-155.73333333333332
2143,0.0,-539.7333333333333,-151.46666666666667
2144,-6.4,-535.4666666666667,-160.0
2145,-2.1333333333333333,-535.4666666666667,-166.4
2146,-2.1333333333333333,-535.4666666666667,-174.93333333333334
2147,-10.666666666666666,-526.9333333333333,-168.53333333333333
2148,-8.533333333333333,-529.0666666666666,-164.26666666666665
2149,-14.933333333333334,-526.9333333333333,-168.53333333333333
2150,-17.066666666666666,-524.8,-164.26666666666665
2151,-10.666666666666666,-522.6666666666666,-166.4
2152,-10.666666666666666,-518.4,-155.73333333333332
2153,-14.933333333333334,-516.2666666666667,-151.46666666666667
2154,-14.933333333333334,-520.5333333333333,-145.06666666666666
2155,-10.666666666666666,-516.2666666666667,-149.33333333333334
2156,-10.666666666666666,-518.4,-149.33333333333334
2157,-10.666666666666666,-509.8666666666667,-153.6
2158,-10.666666666666666,-520.5333333333333,-155.73333333333332
2159,-12.8,-514.1333333333333,-155.73333333333332
2160,-10.666666666666666,-520.5333333333333,-151.46666666666667
2161,-8.533333333333333,-526.9333333333333,-149.33333333333334
2162,-8.533333333333333,-529.0666666666666,-155.73333333333332
2163,-10.666666666666666,-526.9333333333333,-153.6
2164,0.0,-529.0666666666666,-160.0
2165,-4.266666666666667,-533.3333333333334,-157.86666666666667
2166,-6.4,-533.3333333333334,-149.33333333333334
2167,-4.266666666666667,-531.2,-153.6
2168,-2.1333333333333333,-535.4666666666667,-153.6
2169,-4.266666666666667,-529.0666666666666,-153.6
2170,2.1333333333333333,-539.7333333333333,-145.06666666666666
2171,0.0,-541.8666666666667,-149.33333333333334
2172,2.1333333333333333,-539.7333333333333,-151.46666666666667
2173,2.1333333333333333,-539.7333333333333,-157.86666666666667
2174,-6.4,-535.4666666666667,-157.86666666666667
2175,-6.4,-539.7333333333333,-151.46666666666667
2176,-8.533333333333333,-529.0666666666666,-162.13333333333333
2177,-4.266666666666667,-537.6,-153.6
2178,-8.533333333333333,-529.0666666666666,-151.46666666666667
2179,-8.533333333333333,-520.5333333333333,-160.0
2180,-4.266666666666667,-526.9333333333333,-160.0
2181,-8.533333333333333,-526.9333333333333,-151.46666666666667
2182,-6.4,-535.4666666666667,-155.73333333333332
2183,-8.533333333333333,-522.6666666666666,-166.4
2184,-10.666666666666666,-529.0666666666666,-174.93333333333334
2185,-10.666666666666666,-529.0666666666666,-170.66666666666666
2186,-12.8,-529.0666666666666,-172.8
2187,-12.8,-533.3333333333334,-170.66666666666666
2188,-4.266666666666667,-533.3333333333334,-164.26666666666665
2189,-8.533333333333333,-535.4666666666667,-166.4
2190,-8.533333333333333,-535.4666666666667,-168.53333333333333
2191,-4.266666666666667,-531.2,-172.8
2192,2.1333333333333333,-526.9333333333333,-174.93333333333334
2193,-4.266666666666667,-524.8,-164.26666666666665
2194,0.0,-524.8,-157.86666666666667
2195,-8.533333333333333,-518.4,-164.26666666666665
2196,2.1333333333333333,-516.2666666666667,-166.4
2197,0.0,-516.2666666666667,-166.4
2198,0.0,-522.6666666666666,-160.0
2199,0.0,-514.1333333333333,-164.26666666666665
2200,4.266666666666667,-516.2666666666667,-162.13333333333333
2201,-2.1333333333333333,-514.1333333333333,-160.0
2202,-6.4,-516.2666666666667,-160.0
2203,-8.533333333333333,-520.5333333333333,-160.0
2204,-6.4,-520.5333333333333,-166.4
2205,-2.1333333333333333,-522.6666666666666,-162.13333333333333
2206,-10.666666666666666,-520.5333333333333,-155.73333333333332
2207,-6.4,-526.9333333333333,-160.0
2208,-6.4,-524.8,-157.86666666666667
2209,4.266666666666667,-524.8,-151.46666666666667
2210,-2.1333333333333333,-524.8,-164.26666666666665
2211,-4.266666666666667,-526.9333333333333,-164.26666666666665
2212,-4.266666666666667,-526.9333333333333,-160.0
2213,-6.4,-529.0666666666666,-166.4
2214,-6.4,-533.3333333333334,-172.8
2215,-4.266666666666667,-533.3333333333334,-160.0
2216,-10.666666666666666,-537.6,-157.86666666666667
2217,-6.4,-535.4666666666667,-162.13333333333333
2218,-8.533333333333333,-535.4666666666667,-164.26666666666665
2219,-8.533333333333333,-535.4666666666667,-162.13333333333333
2220,-14.933333333333334,-529.0666666666666,-162.13333333333333
2221,-17.066666666666666,-531.2,-164.26666666666665
2222,-10.666666666666666,-529.0666666666666,-157.86666666666667
2223,-14.933333333333334,-529.0666666666666,-153.6
2224,-14.933333333333334,-537.6,-151.46666666666667
2225,-14.933333333333334,-531.2,-151.46666666666667
2226,-19.2,-529.0666666666666,-155.73333333333332
2227,-17.066666666666666,-529.0666666666666,-166.4
2228,-8.533333333333333,-524.8,-172.8
2229,-21.333333333333332,-529.0666666666666,-166.4
2230,-21.333333333333332,-529.0666666666666,-162.13333333333333
2231,-14.933333333333334,-533.3333333333334,-160.0
2232,-14.933333333333334,-531.2,-166.4
2233,-8.533333333333333,-535.4666666666667,-157.86666666666667
2234,-10.666666666666666,-529.0666666666666,-157.86666666666667
2235,-10.666666666666666,-533.3333333333334,-155.73333333333332
2236,-8.533333333333333,-531.2,-162.13333333333333
2237,-8.533333333333333,-531.2,-162.13333333333333
2238,-10.666666666666666,-529.0666666666666,-164.26666666666665
2239,-2.1333333333333333,-529.0666666666666,-160.0
2240,0.0,-531.2,-153.6
2241,-6.4,-526.9333333333333,-162.13333333333333
2242,-8.533333333333333,-520.5333333333333,-153.6
2243,-6.4,-522.6666666666666,-166.4
2244,-2.1333333333333333,-529.0666666666666,-168.53333333333333
2245,-6.4,-522.6666666666666,-168.53333333333333
2246,-6.4,-518.4,-168.53333333333333
2247,-8.533333333333333,-522.6666666666666,-168.53333333333333
2248,-8.533333333333333,-522.6666666666666,-168.53333333333333
2249,-10.666666666666666,-522.6666666666666,-164.26666666666665
2250,-14.933333333333334,-524.8,-164.26666666666665
2251,-12.8,-524.8,-168.53333333333333
2252,-10.666666666666666,-526.9333333333333,-160.0
2253,-10.666666666666666,-522.6666666666666,-155.73333333333332
2254,-8.533333333333333,-529.0666666666666,-168.53333333333333
2255,-6.4,-529.0666666666666,-160.0
2256,-6.4,-531.2,-166.4
2257,-8.533333333333333,-526.9333333333333,-174.93333333333334
2258,-10.666666666666666,-526.9333333333333,-166.4
2259,-6.4,-524.8,-174.93333333333334
2260,4.266666666666667,-524.8,-174.93333333333334
2261,0.0,-531.2,-168.53333333333333
2262,2.1333333333333333,-522.6666666666666,-166.4
2263,2.1333333333333333,-524.8,-166.4
2264,-2.1333333333333333,-526.9333333333333,-164.26666666666665
2265,2.1333333333333333,-524.8,-162.13333333333333
2266,0.0,-526.9333333333333,-162.13333333333333
2267,-2.1333333333333333,-529.0666666666666,-162.13333333333333
2268,-8.533333333333333,-533.3333333333334,-164.26666666666665
2269,-4.266666666666667,-529.0666666666666,-166.4
2270,-4.266666666666667,-535.4666666666667,-164.26666666666665
2271,-12.8,-526.9333333333333,-170.66666666666666
2272,-4.266666666666667,-526.9333333333333,-172.8
2273,-14.933333333333334,-522.6666666666666,-170.66666666666666
2274,-12.8,-520.5333333333333,-168.53333333333333
2275,-12.8,-526.9333333333333,-170.66666666666666
2276,-6.4,-533.3333333333334,-170.66666666666666
2277,-6.4,-529.0666666666666,-164.26666666666665
2278,-4.266666666666667,-526.9333333333333,-177.06666666666666
2279,0.0,-535.4666666666667,-168.53333333333333
2280,-2.1333333333333333,-529.0666666666666,-172.8
2281,-2.1333333333333333,-531.2,-174.93333333333334
2282,-6.4,-531.2,-168.53333333333333
2283,-6.4,-531.2,-166.4
2284,-6.4,-531.2,-181.33333333333334
2285,-6.4,-533.3333333333334,-179.2
2286,-2.1333333333333333,-533.3333333333334,-179.2
2287,-6.4,-524.8,-181.33333333333334
2288,-8.533333333333333,-524.8,-166.4
2289,2.1333333333333333,-522.6666666666666,-172.8
2290,-6.4,-518.4,-166.4
2291,-4.266666666666667,-526.9333333333333,-168.53333333333333
2292,-6.4,-518.4,-160.0
2293,-6.4,-522.6666666666666,-162.13333333333333
2294,-4.266666666666667,-520.5333333333333,-153.6
2295,-4.266666666666667,-520.5333333333333,-164.26666666666665
2296,-12.8,-514.1333333333333,-162.13333333333333
2297,-8.533333333333333,-520.5333333333333,-166.4
2298,-8.533333333333333,-520.5333333333333,-164.26666666666665
2299,-12.8,-512.0,-157.86666666666667
2300,-6.4,-514.1333333333333,-164.26666666666665
2301,-8.533333333333333,-516.2666666666667,-168.53333333333333
2302,-6.4,-516.2666666666667,-168.53333333333333
2303,-8.533333333333333,-518.4,-168.53333333333333
2304,-10.666666666666666,-509.8666666666667,-164.26666666666665
2305,-12.8,-520.5333333333333,-166.4
2306,-8.533333333333333,-514.1333333333333,-164.26666666666665
2307,-6.4,-524.8,-164.26666666666665
2308,0.0,-526.9333333333333,-164.26666666666665
2309,-8.533333333333333,-522.6666666666666,-168.53333333333333
2310,-12.8,-526.9333333333333,-162.13333333333333
2311,-6.4,-531.2,-160.0
2312,-12.8,-526.9333333333333,-174.93333333333334
2313,-12.8,-533.3333333333334,-168.53333333333333
2314,-8.533333333333333,-535.4666666666667,-177.06666666666666
2315,-10.666666666666666,-535.4666666666667,-179.2
2316,-4.266666666666667,-533.3333333333334,-179.2
2317,-2.1333333333333333,-531.2,-174.93333333333334
2318,-2.1333333333333333,-531.2,-174.93333333333334
2319,-8.533333333333333,-535.4666666666667,-177.06666666666666
2320,-8.533333333333333,-529.0666666666666,-177.06666666666666
2321,-8.533333333333333,-526.9333333333333,-172.8
2322,-8.533333333333333,-529.0666666666666,-174.93333333333334
2323,-4.266666666666667,-529.0666666666666,-168.53333333333333
2324,-4.266666666666667,-529.0666666666666,-177.06666666666666
2325,-6.4,-529.0666666666666,-172.8
2326,-2.1333333333333333,-524.8,-174.93333333333334
2327,-8.533333333333333,-524.8,-164.26666666666665
2328,-8.533333333333333,-520.5333333333333,-170.66666666666666
2329,0.0,-524.8,-164.26666666666665
2330,-8.533333333333333,-524.8,-168.53333333333333
2331,-8.533333333333333,-522.6666666666666,-168.53333333333333
2332,-8.533333333333333,-518.4,-172.8
2333,-8.533333333333333,-524.8,-166.4
2334,-6.4,-524.8,-170.66666666666666
2335,-6.4,-520.5333333333333,-170.66666666666666
2336,-6.4,-522.6666666666666,-168.53333333333333
2337,-12.8,-514.1333333333333,-177.06666666666666
2338,-8.533333333333333,-518.4,-172.8
2339,-4.266666666666667,-524.8,-168.53333333333333
2340,-4.266666666666667,-516.2666666666667,-174.93333333333334
2341,0.0,-524.8,-172.8
2342,0.0,-529.0666666666666,-177.06666666666666
2343,-4.266666666666667,-529.0666666666666,-174.93333333333334
2344,-4.266666666666667,-522.6666666666666,-168.53333333333333
2345,2.1333333333333333,-531.2,-181.33333333333334
2346,-6.4,-526.9333333333333,-174.93333333333334
2347,-4.266666666666667,-531.2,-174.93333333333334
2348,0.0,-531.2,-166.4
2349,-6.4,-526.9333333333333,-166.4
2350,-6.4,-526.9333333333333,-170.66666666666666
2351,-12.8,-522.6666666666666,-170.66666666666666
2352,-4.266666666666667,-526.9333333333333,-177.06666666666666
2353,2.1333333333333333,-526.9333333333333,-181.33333333333334
2354,0.0,-526.9333333333333,-170.66666666666666
2355,-4.266666666666667,-526.9333333333333,-172.8
2356,-8.533333333333333,-518.4,-172.8
2357,-6.4,-531.2,-177.06666666666666
2358,-4.266666666666667,-520.5333333333333,-179.2
2359,-12.8,-520.5333333333333,-170.66666666666666
2360,-4.266666666666667,-524.8,-172.8
2361,-14.933333333333334,-522.6666666666666,-166.4
2362,-10.666666666666666,-516.2666666666667,-168.53333333333333
2363,-4.266666666666667,-522.6666666666666,-168.53333333333333
2364,-10.666666666666666,-520.5333333333333,-168.53333333333333
2365,-8.533333333333333,-516.2666666666667,-164.26666666666665
2366,-12.8,-516.2666666666667,-168.53333333333333
2367,-6.4,-516.2666666666667,-168.53333333333333
2368,-6.4,-518.4,-166.4
2369,-4.266666666666667,-518.4,-168.53333333333333
2370,-4.266666666666667,-516.2666666666667,-177.06666666666666
2371,-6.4,-524.8,-170.66666666666666
2372,-6.4,-518.4,-168.53333333333333
2373,-4.266666666666667,-524.8,-166.4
2374,-4.266666666666667,-522.6666666666666,-174.93333333333334
2375,-8.533333333333333,-529.0666666666666,-174.93333333333334
2376,-2.1333333333333333,-529.0666666666666,-170.66666666666666
2377,-4.266666666666667,-533.3333333333334,-170.66666666666666
2378,0.0,-537.6,-157.86666666666667
2379,-2.1333333333333333,-531.2,-168.53333333333333
2380,0.0,-531.2,-164.26666666666665
2381,-8.533333333333333,-524.8,-170.66666666666666
2382,2.1333333333333333,-533.3333333333334,-166.4
2383,4.266666666666667,-520.5333333333333,-166.4
2384,-2.1333333333333333,-522.6666666666666,-172.8
2385,0.0,-524.8,-168.53333333333333
2386,-2.1333333333333333,-524.8,-164.26666666666665
2387,-8.533333333333333,-522.6666666666666,-170.66666666666666
2388,-6.4,-529.0666666666666,-162.13333333333333
