,accelerometerAccelerationX(G),accelerometerAccelerationY(G),accelerometerAccelerationZ(G)
0,17.066666666666666,-531.2,-12.8
1,21.333333333333332,-535.4666666666667,-6.4
2,14.933333333333334,-533.3333333333334,-8.533333333333333
3,19.2,-531.2,-10.666666666666666
4,12.8,-537.6,-10.666666666666666
5,23.466666666666665,-529.0666666666666,0.0
6,17.066666666666666,-537.6,-8.533333333333333
7,17.066666666666666,-531.2,-12.8
8,14.933333333333334,-531.2,-4.266666666666667
9,17.066666666666666,-531.2,2.1333333333333333
10,12.8,-529.0666666666666,-4.266666666666667
11,17.066666666666666,-526.9333333333333,-6.4
12,17.066666666666666,-535.4666666666667,0.0
13,10.666666666666666,-529.0666666666666,-2.1333333333333333
14,6.4,-524.8,-6.4
15,12.8,-522.6666666666666,-4.266666666666667
16,12.8,-526.9333333333333,0.0
17,17.066666666666666,-531.2,-6.4
18,6.4,-529.0666666666666,0.0
19,12.8,-529.0666666666666,0.0
20,8.533333333333333,-529.0666666666666,-6.4
21,12.8,-533.3333333333334,-8.533333333333333
22,19.2,-537.6,-10.666666666666666
23,14.933333333333334,-533.3333333333334,-4.266666666666667
24,10.666666666666666,-531.2,0.0
25,10.666666666666666,-529.0666666666666,-12.8
26,17.066666666666666,-507.73333333333335,2.1333333333333333
27,19.2,-529.0666666666666,-6.4
28,14.933333333333334,-526.9333333333333,-2.1333333333333333
29,17.066666666666666,-539.7333333333333,-12.8
30,4.266666666666667,-520.5333333333333,-6.4
31,17.066666666666666,-529.0666666666666,-8.533333333333333
32,17.066666666666666,-531.2,-2.1333333333333333
33,14.933333333333334,-529.0666666666666,0.0
34,14.933333333333334,-535.4666666666667,-6.4
35,14.933333333333334,-531.2,-8.533333333333333
36,12.8,-522.6666666666666,-2.1333333333333333
37,8.533333333333333,-529.0666666666666,-21.333333333333332
38,14.933333333333334,-531.2,0.0
39,21.333333333333332,-533.3333333333334,-12.8
40,21.333333333333332,-535.4666666666667,-2.1333333333333333
41,17.066666666666666,-531.2,-12.8
42,23.466666666666665,-531.2,-6.4
43,14.933333333333334,-524.8,-8.533333333333333
44,21.333333333333332,-531.2,-8.533333333333333
45,19.2,-526.9333333333333,-10.666666666666666
46,14.933333333333334,-531.2,-6.4
47,21.333333333333332,-526.9333333333333,-6.4
48,10.666666666666666,-526.9333333333333,0.0
49,21.333333333333332,-531.2,-2.1333333333333333
50,14.933333333333334,-535.4666666666667,0.0
51,23.466666666666665,-526.9333333333333,-6.4
52,12.8,-531.2,-2.1333333333333333
53,14.933333333333334,-531.2,-6.4
54,17.066666666666666,-526.9333333333333,-2.1333333333333333
55,14.933333333333334,-533.3333333333334,-8.533333333333333
56,19.2,-533.3333333333334,0.0
57,12.8,-522.6666666666666,-8.533333333333333
58,12.8,-533.3333333333334,2.1333333333333333
59,17.066666666666666,-529.0666666666666,-8.533333333333333
60,12.8,-526.9333333333333,-8.533333333333333
61,12.8,-522.6666666666666,-2.1333333333333333
62,19.2,-529.0666666666666,-6.4
63,19.2,-533.3333333333334,-6.4
64,10.666666666666666,-529.0666666666666,-2.1333333333333333
65,12.8,-526.9333333333333,0.0
66,14.933333333333334,-522.6666666666666,6.4
67,12.8,-526.9333333333333,-2.1333333333333333
68,14.933333333333334,-529.0666666666666,-2.1333333333333333
69,14.933333333333334,-533.3333333333334,0.0
70,10.666666666666666,-520.5333333333333,-8.533333333333333
71,12.8,-533.3333333333334,-2.1333333333333333
72,14.933333333333334,-531.2,0.0
73,14.933333333333334,-526.9333333333333,8.533333333333333
74,19.2,-535.4666666666667,0.0
75,14.933333333333334,-533.3333333333334,2.1333333333333333
76,12.8,-531.2,6.4
77,14.933333333333334,-533.3333333333334,2.1333333333333333
78,14.933333333333334,-526.9333333333333,-2.1333333333333333
79,12.8,-526.9333333333333,-2.1333333333333333
80,12.8,-531.2,0.0
81,12.8,-524.8,-2.1333333333333333
82,17.066666666666666,-522.6666666666666,0.0
83,12.8,-524.8,-4.266666666666667
84,12.8,-529.0666666666666,0.0
85,19.2,-535.4666666666667,-4.266666666666667
86,14.933333333333334,-531.2,0.0
87,14.933333333333334,-533.3333333333334,2.1333333333333333
88,21.333333333333332,-535.4666666666667,-4.266666666666667
89,14.933333333333334,-531.2,0.0
90,17.066666666666666,-531.2,2.1333333333333333
91,17.066666666666666,-529.0666666666666,2.1333333333333333
92,19.2,-529.0666666666666,-2.1333333333333333
93,19.2,-533.3333333333334,0.0
94,17.066666666666666,-529.0666666666666,2.1333333333333333
95,19.2,-526.9333333333333,-4.266666666666667
96,19.2,-522.6666666666666,6.4
97,21.333333333333332,-529.0666666666666,0.0
98,19.2,-526.9333333333333,0.0
99,12.8,-524.8,2.1333333333333333
100,17.066666666666666,-529.0666666666666,2.1333333333333333
101,23.466666666666665,-522.6666666666666,4.266666666666667
102,21.333333333333332,-533.3333333333334,4.266666666666667
103,25.6,-529.0666666666666,6.4
104,19.2,-526.9333333333333,-8.533333333333333
105,21.333333333333332,-533.3333333333334,-4.266666666666667
106,21.333333333333332,-526.9333333333333,-2.1333333333333333
107,23.466666666666665,-531.2,0.0
108,25.6,-529.0666666666666,2.1333333333333333
109,17.066666666666666,-526.9333333333333,2.1333333333333333
110,23.466666666666665,-533.3333333333334,-6.4
111,21.333333333333332,-531.2,0.0
112,19.2,-524.8,2.1333333333333333
113,21.333333333333332,-531.2,2.1333333333333333
114,19.2,-529.0666666666666,0.0
115,21.333333333333332,-531.2,0.0
116,19.2,-529.0666666666666,-4.266666666666667
117,17.066666666666666,-535.4666666666667,0.0
118,19.2,-533.3333333333334,4.266666666666667
119,21.333333333333332,-533.3333333333334,2.1333333333333333
120,14.933333333333334,-531.2,6.4
121,23.466666666666665,-533.3333333333334,17.066666666666666
122,21.333333333333332,-541.8666666666667,-25.6
123,19.2,-531.2,2.1333333333333333
124,19.2,-529.0666666666666,2.1333333333333333
125,14.933333333333334,-529.0666666666666,8.533333333333333
126,17.066666666666666,-526.9333333333333,0.0
127,14.933333333333334,-531.2,2.1333333333333333
128,17.066666666666666,-529.0666666666666,2.1333333333333333
129,19.2,-526.9333333333333,0.0
130,19.2,-531.2,0.0
131,17.066666666666666,-529.0666666666666,4.266666666666667
132,19.2,-518.4,2.1333333333333333
133,21.333333333333332,-533.3333333333334,0.0
134,17.066666666666666,-531.2,2.1333333333333333
135,21.333333333333332,-531.2,4.266666666666667
136,17.066666666666666,-531.2,2.1333333333333333
137,14.933333333333334,-529.0666666666666,6.4
138,17.066666666666666,-529.0666666666666,0.0
139,10.666666666666666,-533.3333333333334,4.266666666666667
140,17.066666666666666,-533.3333333333334,8.533333333333333
141,14.933333333333334,-531.2,4.266666666666667
142,14.933333333333334,-531.2,0.0
143,36.266666666666666,-533.3333333333334,21.333333333333332
144,17.066666666666666,-522.6666666666666,0.0
145,12.8,-529.0666666666666,2.1333333333333333
146,14.933333333333334,-529.0666666666666,0.0
147,19.2,-535.4666666666667,4.266666666666667
148,25.6,-531.2,2.1333333333333333
149,19.2,-526.9333333333333,6.4
150,12.8,-533.3333333333334,0.0
151,23.466666666666665,-531.2,8.533333333333333
152,12.8,-531.2,0.0
153,17.066666666666666,-524.8,10.666666666666666
154,17.066666666666666,-529.0666666666666,-4.266666666666667
155,14.933333333333334,-522.6666666666666,0.0
156,14.933333333333334,-522.6666666666666,8.533333333333333
157,19.2,-531.2,0.0
158,21.333333333333332,-524.8,2.1333333333333333
159,17.066666666666666,-526.9333333333333,2.1333333333333333
160,14.933333333333334,-529.0666666666666,8.533333333333333
161,10.666666666666666,-529.0666666666666,4.266666666666667
162,21.333333333333332,-526.9333333333333,6.4
163,19.2,-531.2,-4.266666666666667
164,21.333333333333332,-531.2,4.266666666666667
165,17.066666666666666,-524.8,6.4
166,17.066666666666666,-531.2,6.4
167,25.6,-524.8,4.266666666666667
168,21.333333333333332,-531.2,4.266666666666667
169,21.333333333333332,-537.6,0.0
170,19.2,-524.8,-8.533333333333333
171,23.466666666666665,-529.0666666666666,6.4
172,19.2,-529.0666666666666,2.1333333333333333
173,17.066666666666666,-531.2,4.266666666666667
174,14.933333333333334,-524.8,6.4
175,17.066666666666666,-533.3333333333334,2.1333333333333333
176,17.066666666666666,-535.4666666666667,8.533333333333333
177,14.933333333333334,-529.0666666666666,8.533333333333333
178,17.066666666666666,-537.6,2.1333333333333333
179,17.066666666666666,-533.3333333333334,8.533333333333333
180,12.8,-529.0666666666666,0.0
181,21.333333333333332,-531.2,10.666666666666666
182,17.066666666666666,-526.9333333333333,2.1333333333333333
183,12.8,-529.0666666666666,8.533333333333333
184,12.8,-533.3333333333334,4.266666666666667
185,17.066666666666666,-526.9333333333333,2.1333333333333333
186,19.2,-535.4666666666667,2.1333333333333333
187,21.333333333333332,-531.2,-2.1333333333333333
188,17.066666666666666,-531.2,2.1333333333333333
189,23.466666666666665,-531.2,4.266666666666667
190,14.933333333333334,-520.5333333333333,2.1333333333333333
191,23.466666666666665,-531.2,10.666666666666666
192,23.466666666666665,-529.0666666666666,6.4
193,17.066666666666666,-531.2,6.4
194,17.066666666666666,-526.9333333333333,0.0
195,19.2,-535.4666666666667,6.4
196,17.066666666666666,-524.8,2.1333333333333333
197,12.8,-524.8,2.1333333333333333
198,19.2,-531.2,2.1333333333333333
199,17.066666666666666,-533.3333333333334,2.1333333333333333
200,14.933333333333334,-529.0666666666666,4.266666666666667
201,17.066666666666666,-531.2,8.533333333333333
202,19.2,-531.2,4.266666666666667
203,19.2,-524.8,4.266666666666667
204,19.2,-531.2,2.1333333333333333
205,17.066666666666666,-531.2,4.266666666666667
206,19.2,-529.0666666666666,2.1333333333333333
207,19.2,-526.9333333333333,6.4
208,23.466666666666665,-533.3333333333334,2.1333333333333333
209,21.333333333333332,-533.3333333333334,10.666666666666666
210,19.2,-533.3333333333334,10.666666666666666
211,17.066666666666666,-533.3333333333334,6.4
212,17.066666666666666,-531.2,6.4
213,17.066666666666666,-526.9333333333333,0.0
214,10.666666666666666,-524.8,6.4
215,21.333333333333332,-529.0666666666666,6.4
216,14.933333333333334,-526.9333333333333,6.4
217,14.933333333333334,-548.2666666666667,14.933333333333334
218,17.066666666666666,-531.2,4.266666666666667
219,23.466666666666665,-533.3333333333334,4.266666666666667
220,14.933333333333334,-533.3333333333334,8.533333333333333
221,17.066666666666666,-529.0666666666666,0.0
222,23.466666666666665,-531.2,0.0
223,12.8,-533.3333333333334,8.533333333333333
224,14.933333333333334,-531.2,2.1333333333333333
225,12.8,-533.3333333333334,4.266666666666667
226,10.666666666666666,-533.3333333333334,6.4
227,19.2,-537.6,2.1333333333333333
228,19.2,-535.4666666666667,0.0
229,21.333333333333332,-544.0,42.666666666666664
230,19.2,-531.2,8.533333333333333
231,19.2,-531.2,10.666666666666666
232,17.066666666666666,-531.2,8.533333333333333
233,12.8,-535.4666666666667,10.666666666666666
234,21.333333333333332,-526.9333333333333,4.266666666666667
235,19.2,-533.3333333333334,8.533333333333333
236,23.466666666666665,-535.4666666666667,4.266666666666667
237,19.2,-524.8,2.1333333333333333
238,27.733333333333334,-524.8,8.533333333333333
239,23.466666666666665,-529.0666666666666,8.533333333333333
240,17.066666666666666,-529.0666666666666,2.1333333333333333
241,14.933333333333334,-526.9333333333333,4.266666666666667
242,12.8,-526.9333333333333,-2.1333333333333333
243,21.333333333333332,-526.9333333333333,0.0
244,17.066666666666666,-531.2,2.1333333333333333
245,19.2,-533.3333333333334,2.1333333333333333
246,14.933333333333334,-531.2,10.666666666666666
247,14.933333333333334,-524.8,4.266666666666667
248,12.8,-531.2,2.1333333333333333
249,14.933333333333334,-537.6,6.4
250,17.066666666666666,-533.3333333333334,6.4
251,12.8,-533.3333333333334,2.1333333333333333
252,17.066666666666666,-535.4666666666667,6.4
253,12.8,-533.3333333333334,6.4
254,14.933333333333334,-531.2,2.1333333333333333
255,14.933333333333334,-535.4666666666667,6.4
256,14.933333333333334,-526.9333333333333,2.1333333333333333
257,23.466666666666665,-533.3333333333334,4.266666666666667
258,17.066666666666666,-524.8,4.266666666666667
259,21.333333333333332,-522.6666666666666,0.0
260,19.2,-522.6666666666666,2.1333333333333333
261,14.933333333333334,-524.8,14.933333333333334
262,17.066666666666666,-522.6666666666666,4.266666666666667
263,17.066666666666666,-531.2,2.1333333333333333
264,19.2,-526.9333333333333,4.266666666666667
265,14.933333333333334,-520.5333333333333,0.0
266,19.2,-526.9333333333333,-2.1333333333333333
267,17.066666666666666,-529.0666666666666,2.1333333333333333
268,21.333333333333332,-531.2,4.266666666666667
269,17.066666666666666,-531.2,2.1333333333333333
270,19.2,-535.4666666666667,6.4
271,12.8,-537.6,2.1333333333333333
272,17.066666666666666,-531.2,4.266666666666667
273,10.666666666666666,-520.5333333333333,6.4
274,14.933333333333334,-531.2,12.8
275,19.2,-533.3333333333334,8.533333333333333
276,14.933333333333334,-529.0666666666666,4.266666666666667
277,17.066666666666666,-529.0666666666666,8.533333333333333
278,14.933333333333334,-526.9333333333333,8.533333333333333
279,14.933333333333334,-524.8,0.0
280,21.333333333333332,-529.0666666666666,2.1333333333333333
281,14.933333333333334,-522.6666666666666,0.0
282,17.066666666666666,-522.6666666666666,6.4
283,10.666666666666666,-524.8,8.533333333333333
284,17.066666666666666,-524.8,4.266666666666667
285,23.466666666666665,-531.2,10.666666666666666
286,14.933333333333334,-535.4666666666667,4.266666666666667
287,21.333333333333332,-524.8,0.0
288,14.933333333333334,-535.4666666666667,0.0
289,21.333333333333332,-529.0666666666666,2.1333333333333333
290,19.2,-531.2,-2.1333333333333333
291,21.333333333333332,-531.2,0.0
292,40.53333333333333,-524.8,10.666666666666666
293,19.2,-514.1333333333333,-23.466666666666665
294,17.066666666666666,-520.5333333333333,6.4
295,19.2,-524.8,-2.1333333333333333
296,17.066666666666666,-531.2,-2.1333333333333333
297,14.933333333333334,-529.0666666666666,0.0
298,14.933333333333334,-531.2,0.0
299,14.933333333333334,-539.7333333333333,-2.1333333333333333
300,19.2,-535.4666666666667,-8.533333333333333
301,12.8,-537.6,-2.1333333333333333
302,10.666666666666666,-537.6,-6.4
303,14.933333333333334,-535.4666666666667,6.4
304,14.933333333333334,-537.6,-2.1333333333333333
305,17.066666666666666,-535.4666666666667,-2.1333333333333333
306,14.933333333333334,-529.0666666666666,8.533333333333333
307,19.2,-526.9333333333333,-6.4
308,17.066666666666666,-535.4666666666667,0.0
309,19.2,-533.3333333333334,-2.1333333333333333
310,19.2,-531.2,0.0
311,14.933333333333334,-524.8,-2.1333333333333333
312,21.333333333333332,-524.8,0.0
313,19.2,-526.9333333333333,0.0
314,12.8,-539.7333333333333,-2.1333333333333333
315,14.933333333333334,-526.9333333333333,-6.4
316,14.933333333333334,-524.8,2.1333333333333333
317,19.2,-531.2,0.0
318,12.8,-537.6,-2.1333333333333333
319,17.066666666666666,-531.2,0.0
320,14.933333333333334,-526.9333333333333,0.0
321,12.8,-535.4666666666667,4.266666666666667
322,12.8,-535.4666666666667,4.266666666666667
323,14.933333333333334,-531.2,0.0
324,12.8,-535.4666666666667,-10.666666666666666
325,14.933333333333334,-529.0666666666666,0.0
326,19.2,-531.2,0.0
327,12.8,-533.3333333333334,-8.533333333333333
328,10.666666666666666,-535.4666666666667,-10.666666666666666
329,17.066666666666666,-531.2,0.0
330,23.466666666666665,-524.8,-6.4
331,17.066666666666666,-526.9333333333333,-4.266666666666667
332,14.933333333333334,-531.2,0.0
333,17.066666666666666,-526.9333333333333,0.0
334,17.066666666666666,-537.6,-4.266666666666667
335,14.933333333333334,-539.7333333333333,2.1333333333333333
336,17.066666666666666,-535.4666666666667,0.0
337,14.933333333333334,-529.0666666666666,-2.1333333333333333
338,14.933333333333334,-529.0666666666666,0.0
339,19.2,-522.6666666666666,0.0
340,19.2,-533.3333333333334,-10.666666666666666
341,17.066666666666666,-535.4666666666667,0.0
342,12.8,-535.4666666666667,-8.533333333333333
343,14.933333333333334,-526.9333333333333,-4.266666666666667
344,14.933333333333334,-531.2,-8.533333333333333
345,17.066666666666666,-524.8,-4.266666666666667
346,12.8,-533.3333333333334,-10.666666666666666
347,21.333333333333332,-526.9333333333333,-6.4
348,17.066666666666666,-531.2,-6.4
349,14.933333333333334,-531.2,-8.533333333333333
350,14.933333333333334,-529.0666666666666,-10.666666666666666
351,19.2,-531.2,-10.666666666666666
352,21.333333333333332,-537.6,-2.1333333333333333
353,12.8,-537.6,-10.666666666666666
354,14.933333333333334,-537.6,-8.533333333333333
355,17.066666666666666,-531.2,-2.1333333333333333
356,14.933333333333334,-537.6,-8.533333333333333
357,25.6,-531.2,-14.933333333333334
358,6.4,-529.0666666666666,-10.666666666666666
359,17.066666666666666,-531.2,-4.266666666666667
360,19.2,-535.4666666666667,-4.266666666666667
361,17.066666666666666,-533.3333333333334,-8.533333333333333
362,12.8,-524.8,-10.666666666666666
363,6.4,-522.6666666666666,-4.266666666666667
364,14.933333333333334,-529.0666666666666,-8.533333333333333
365,14.933333333333334,-526.9333333333333,-14.933333333333334
366,19.2,-531.2,-2.1333333333333333
367,14.933333333333334,-526.9333333333333,-10.666666666666666
368,21.333333333333332,-526.9333333333333,-10.666666666666666
369,17.066666666666666,-529.0666666666666,-12.8
370,19.2,-522.6666666666666,-14.933333333333334
371,21.333333333333332,-531.2,0.0
372,12.8,-529.0666666666666,-6.4
373,17.066666666666666,-524.8,-2.1333333333333333
374,17.066666666666666,-522.6666666666666,-2.1333333333333333
375,14.933333333333334,-524.8,-6.4
376,19.2,-526.9333333333333,-12.8
377,14.933333333333334,-533.3333333333334,-8.533333333333333
378,14.933333333333334,-531.2,-23.466666666666665
379,17.066666666666666,-524.8,-6.4
380,21.333333333333332,-535.4666666666667,-25.6
381,14.933333333333334,-531.2,-8.533333333333333
382,14.933333333333334,-531.2,-6.4
383,14.933333333333334,-535.4666666666667,-19.2
384,12.8,-533.3333333333334,-10.666666666666666
385,17.066666666666666,-526.9333333333333,-6.4
386,12.8,-533.3333333333334,-17.066666666666666
387,23.466666666666665,-531.2,-8.533333333333333
388,10.666666666666666,-537.6,-2.1333333333333333
389,12.8,-526.9333333333333,-12.8
390,19.2,-535.4666666666667,-12.8
391,12.8,-526.9333333333333,0.0
392,19.2,-533.3333333333334,-12.8
393,19.2,-533.3333333333334,-10.666666666666666
394,17.066666666666666,-533.3333333333334,-12.8
395,12.8,-518.4,-12.8
396,19.2,-533.3333333333334,-12.8
397,12.8,-526.9333333333333,-10.666666666666666
398,19.2,-524.8,-19.2
399,4.266666666666667,-529.0666666666666,-29.866666666666667
400,17.066666666666666,-524.8,-6.4
401,14.933333333333334,-531.2,-8.533333333333333
402,14.933333333333334,-526.9333333333333,-6.4
403,14.933333333333334,-529.0666666666666,-6.4
404,14.933333333333334,-526.9333333333333,-12.8
405,17.066666666666666,-533.3333333333334,-8.533333333333333
406,10.666666666666666,-529.0666666666666,-12.8
407,17.066666666666666,-531.2,0.0
408,21.333333333333332,-529.0666666666666,-12.8
409,14.933333333333334,-526.9333333333333,-10.666666666666666
410,19.2,-533.3333333333334,-14.933333333333334
411,12.8,-531.2,-10.666666666666666
412,17.066666666666666,-531.2,-14.933333333333334
413,19.2,-531.2,-8.533333333333333
414,17.066666666666666,-533.3333333333334,-14.933333333333334
415,21.333333333333332,-529.0666666666666,-6.4
416,17.066666666666666,-531.2,-10.666666666666666
417,14.933333333333334,-529.0666666666666,-10.666666666666666
418,23.466666666666665,-533.3333333333334,-8.533333333333333
419,17.066666666666666,-524.8,-6.4
420,14.933333333333334,-526.9333333333333,-14.933333333333334
421,21.333333333333332,-531.2,-4.266666666666667
422,14.933333333333334,-529.0666666666666,-10.666666666666666
423,12.8,-529.0666666666666,-8.533333333333333
424,21.333333333333332,-533.3333333333334,-8.533333333333333
425,14.933333333333334,-529.0666666666666,-14.933333333333334
426,14.933333333333334,-529.0666666666666,-2.1333333333333333
427,19.2,-524.8,-6.4
428,17.066666666666666,-531.2,-4.266666666666667
429,14.933333333333334,-526.9333333333333,-12.8
430,17.066666666666666,-531.2,-12.8
431,17.066666666666666,-531.2,-8.533333333333333
432,12.8,-535.4666666666667,-8.533333333333333
433,12.8,-535.4666666666667,-10.666666666666666
434,12.8,-529.0666666666666,-12.8
435,17.066666666666666,-533.3333333333334,-19.2
436,21.333333333333332,-529.0666666666666,-8.533333333333333
437,12.8,-529.0666666666666,-12.8
438,14.933333333333334,-537.6,-6.4
439,10.666666666666666,-522.6666666666666,-8.533333333333333
440,17.066666666666666,-533.3333333333334,-14.933333333333334
441,8.533333333333333,-529.0666666666666,-6.4
442,19.2,-524.8,-12.8
443,14.933333333333334,-526.9333333333333,-14.933333333333334
444,19.2,-533.3333333333334,-10.666666666666666
445,14.933333333333334,-533.3333333333334,-12.8
446,14.933333333333334,-535.4666666666667,-6.4
447,12.8,-529.0666666666666,-12.8
448,19.2,-529.0666666666666,-14.933333333333334
449,21.333333333333332,-533.3333333333334,-17.066666666666666
450,19.2,-531.2,-8.533333333333333
451,14.933333333333334,-526.9333333333333,-8.533333333333333
452,14.933333333333334,-526.9333333333333,-8.533333333333333
453,17.066666666666666,-531.2,-10.666666666666666
454,23.466666666666665,-526.9333333333333,-21.333333333333332
455,17.066666666666666,-533.3333333333334,-14.933333333333334
456,14.933333333333334,-526.9333333333333,-8.533333333333333
457,12.8,-529.0666666666666,-4.266666666666667
458,10.666666666666666,-526.9333333333333,-6.4
459,12.8,-526.9333333333333,-10.666666666666666
460,17.066666666666666,-531.2,-6.4
461,17.066666666666666,-533.3333333333334,-4.266666666666667
462,19.2,-533.3333333333334,-8.533333333333333
463,12.8,-533.3333333333334,-19.2
464,10.666666666666666,-524.8,-8.533333333333333
465,17.066666666666666,-524.8,-14.933333333333334
466,21.333333333333332,-526.9333333333333,-14.933333333333334
467,17.066666666666666,-529.0666666666666,-4.266666666666667
468,19.2,-526.9333333333333,-12.8
469,21.333333333333332,-531.2,-19.2
470,12.8,-526.9333333333333,-21.333333333333332
471,14.933333333333334,-526.9333333333333,-14.933333333333334
472,17.066666666666666,-533.3333333333334,-6.4
473,14.933333333333334,-529.0666666666666,-8.533333333333333
474,21.333333333333332,-535.4666666666667,-10.666666666666666
475,14.933333333333334,-537.6,-2.1333333333333333
476,19.2,-535.4666666666667,-6.4
477,19.2,-535.4666666666667,-6.4
478,14.933333333333334,-535.4666666666667,-12.8
479,14.933333333333334,-535.4666666666667,-6.4
480,14.933333333333334,-524.8,-14.933333333333334
481,25.6,-533.3333333333334,-8.533333333333333
482,21.333333333333332,-533.3333333333334,-10.666666666666666
483,23.466666666666665,-524.8,-2.1333333333333333
484,14.933333333333334,-520.5333333333333,-32.0
485,8.533333333333333,-541.8666666666667,-2.1333333333333333
486,21.333333333333332,-518.4,-10.666666666666666
487,23.466666666666665,-526.9333333333333,-12.8
488,23.466666666666665,-526.9333333333333,-14.933333333333334
489,25.6,-524.8,-8.533333333333333
490,17.066666666666666,-526.9333333333333,-12.8
491,25.6,-531.2,-4.266666666666667
492,19.2,-533.3333333333334,-14.933333333333334
493,19.2,-544.0,-17.066666666666666
494,27.733333333333334,-565.3333333333334,-42.666666666666664
495,14.933333333333334,-537.6,-21.333333333333332
496,10.666666666666666,-537.6,-21.333333333333332
497,19.2,-541.8666666666667,-27.733333333333334
498,12.8,-539.7333333333333,-29.866666666666667
499,23.466666666666665,-544.0,-27.733333333333334
500,21.333333333333332,-541.8666666666667,-32.0
501,10.666666666666666,-539.7333333333333,-38.4
502,19.2,-546.1333333333333,-32.0
503,14.933333333333334,-537.6,-51.2
504,19.2,-539.7333333333333,-53.333333333333336
505,27.733333333333334,-541.8666666666667,-64.0
506,17.066666666666666,-541.8666666666667,-64.0
507,27.733333333333334,-546.1333333333333,-66.13333333333333
508,25.6,-546.1333333333333,-72.53333333333333
509,32.0,-548.2666666666667,-76.8
510,34.13333333333333,-556.8,-78.93333333333334
511,25.6,-546.1333333333333,-83.2
512,38.4,-554.6666666666666,-83.2
513,38.4,-554.6666666666666,-91.73333333333333
514,34.13333333333333,-548.2666666666667,-91.73333333333333
515,27.733333333333334,-546.1333333333333,-87.46666666666667
516,29.866666666666667,-537.6,-91.73333333333333
517,29.866666666666667,-537.6,-100.26666666666667
518,29.866666666666667,-520.5333333333333,-100.26666666666667
519,29.866666666666667,-514.1333333333333,-93.86666666666666
520,38.4,-507.73333333333335,-93.86666666666666
521,36.266666666666666,-492.8,-98.13333333333333
522,36.266666666666666,-480.0,-100.26666666666667
523,34.13333333333333,-471.46666666666664,-106.66666666666667
524,38.4,-458.6666666666667,-100.26666666666667
525,40.53333333333333,-458.6666666666667,-104.53333333333333
526,32.0,-441.59999999999997,-104.53333333333333
527,36.266666666666666,-428.8,-96.0
528,25.6,-433.06666666666666,-113.06666666666666
529,27.733333333333334,-426.6666666666667,-119.46666666666667
530,27.733333333333334,-422.4,-119.46666666666667
531,19.2,-411.73333333333335,-123.73333333333333
532,21.333333333333332,-403.2,-125.86666666666666
533,21.333333333333332,-398.93333333333334,-132.26666666666665
534,12.8,-392.5333333333333,-134.4
535,6.4,-379.73333333333335,-130.13333333333333
536,12.8,-366.93333333333334,-130.13333333333333
537,2.1333333333333333,-345.6,-119.46666666666667
538,6.4,-334.93333333333334,-106.66666666666667
539,8.533333333333333,-326.4,-113.06666666666666
540,10.666666666666666,-307.2,-104.53333333333333
541,8.533333333333333,-292.26666666666665,-81.06666666666666
542,10.666666666666666,-279.46666666666664,-68.26666666666667
543,12.8,-264.5333333333333,-49.06666666666666
544,12.8,-251.73333333333332,-36.266666666666666
545,14.933333333333334,-247.46666666666667,-38.4
546,8.533333333333333,-232.53333333333333,-34.13333333333333
547,2.1333333333333333,-219.73333333333332,-4.266666666666667
548,-2.1333333333333333,-209.06666666666666,0.0
549,-6.4,-209.06666666666666,-4.266666666666667
550,-6.4,-198.4,6.4
551,0.0,-206.93333333333334,6.4
552,-4.266666666666667,-204.8,0.0
553,0.0,-215.46666666666667,-2.1333333333333333
554,0.0,-226.13333333333333,-17.066666666666666
555,4.266666666666667,-234.66666666666666,-27.733333333333334
556,8.533333333333333,-251.73333333333332,-51.2
557,17.066666666666666,-270.93333333333334,-64.0
558,23.466666666666665,-279.46666666666664,-89.6
559,23.466666666666665,-292.26666666666665,-115.2
560,25.6,-302.93333333333334,-130.13333333333333
561,27.733333333333334,-315.73333333333335,-138.66666666666666
562,46.93333333333333,-332.8,-151.46666666666667
563,44.8,-330.6666666666667,-166.4
564,49.06666666666666,-345.6,-179.2
565,44.8,-343.46666666666664,-177.06666666666666
566,49.06666666666666,-358.4,-185.6
567,42.666666666666664,-358.4,-174.93333333333334
568,36.266666666666666,-369.06666666666666,-172.8
569,38.4,-373.3333333333333,-183.46666666666667
570,34.13333333333333,-371.2,-177.06666666666666
571,44.8,-388.26666666666665,-181.33333333333334
572,34.13333333333333,-384.0,-170.66666666666666
573,40.53333333333333,-386.1333333333333,-168.53333333333333
574,34.13333333333333,-390.4,-164.26666666666665
575,29.866666666666667,-392.5333333333333,-160.0
576,25.6,-398.93333333333334,-164.26666666666665
577,25.6,-401.06666666666666,-153.6
578,25.6,-398.93333333333334,-160.0
579,21.333333333333332,-401.06666666666666,-162.13333333333333
580,34.13333333333333,-407.46666666666664,-153.6
581,34.13333333333333,-394.6666666666667,-157.86666666666667
582,44.8,-396.8,-157.86666666666667
583,44.8,-394.6666666666667,-162.13333333333333
584,57.6,-386.1333333333333,-160.0
585,53.333333333333336,-396.8,-162.13333333333333
586,55.46666666666667,-392.5333333333333,-168.53333333333333
587,61.86666666666667,-396.8,-174.93333333333334
588,57.6,-396.8,-174.93333333333334
589,55.46666666666667,-403.2,-189.86666666666667
590,57.6,-416.0,-185.6
591,46.93333333333333,-413.8666666666667,-196.26666666666665
592,53.333333333333336,-424.5333333333333,-200.53333333333333
593,42.666666666666664,-428.8,-200.53333333333333
594,40.53333333333333,-437.3333333333333,-211.2
595,36.266666666666666,-458.6666666666667,-228.26666666666665
596,36.266666666666666,-465.06666666666666,-232.53333333333333
597,32.0,-482.1333333333333,-249.6
598,34.13333333333333,-490.6666666666667,-262.4
599,23.466666666666665,-501.3333333333333,-268.8
600,19.2,-509.8666666666667,-285.8666666666667
601,19.2,-516.2666666666667,-296.5333333333333
602,17.066666666666666,-524.8,-302.93333333333334
603,6.4,-516.2666666666667,-311.46666666666664
604,10.666666666666666,-522.6666666666666,-322.1333333333333
605,0.0,-514.1333333333333,-330.6666666666667
606,4.266666666666667,-520.5333333333333,-334.93333333333334
607,8.533333333333333,-507.73333333333335,-332.8
608,2.1333333333333333,-501.3333333333333,-313.6
609,0.0,-486.4,-330.6666666666667
610,-10.666666666666666,-473.59999999999997,-337.06666666666666
611,-12.8,-458.6666666666667,-354.1333333333333
612,-10.666666666666666,-443.73333333333335,-358.4
613,-27.733333333333334,-437.3333333333333,-369.06666666666666
614,-23.466666666666665,-426.6666666666667,-379.73333333333335
615,-21.333333333333332,-413.8666666666667,-386.1333333333333
616,-23.466666666666665,-407.46666666666664,-369.06666666666666
617,-34.13333333333333,-409.6,-371.2
618,-29.866666666666667,-398.93333333333334,-377.6
619,-38.4,-388.26666666666665,-396.8
620,-38.4,-386.1333333333333,-388.26666666666665
621,-46.93333333333333,-384.0,-394.6666666666667
622,-44.8,-373.3333333333333,-403.2
623,-29.866666666666667,-384.0,-354.1333333333333
624,-34.13333333333333,-386.1333333333333,-388.26666666666665
625,-23.466666666666665,-390.4,-377.6
626,-21.333333333333332,-381.8666666666667,-409.6
627,-6.4,-384.0,-407.46666666666664
628,0.0,-388.26666666666665,-405.3333333333333
629,6.4,-392.5333333333333,-420.26666666666665
630,17.066666666666666,-405.3333333333333,-462.93333333333334
631,23.466666666666665,-398.93333333333334,-462.93333333333334
632,44.8,-401.06666666666666,-486.4
633,68.26666666666667,-407.46666666666664,-507.73333333333335
634,85.33333333333333,-405.3333333333333,-484.26666666666665
635,87.46666666666667,-403.2,-503.46666666666664
636,72.53333333333333,-405.3333333333333,-462.93333333333334
637,74.66666666666667,-375.46666666666664,-462.93333333333334
638,81.06666666666666,-390.4,-492.8
639,98.13333333333333,-375.46666666666664,-482.1333333333333
640,81.06666666666666,-371.2,-475.73333333333335
641,64.0,-369.06666666666666,-435.2
642,57.6,-371.2,-473.59999999999997
643,68.26666666666667,-405.3333333333333,-490.6666666666667
644,78.93333333333334,-456.5333333333333,-554.6666666666666
645,91.73333333333333,-405.3333333333333,-567.4666666666667
646,93.86666666666666,-394.6666666666667,-535.4666666666667
647,81.06666666666666,-392.5333333333333,-526.9333333333333
648,91.73333333333333,-405.3333333333333,-539.7333333333333
649,72.53333333333333,-407.46666666666664,-501.3333333333333
650,66.13333333333333,-405.3333333333333,-482.1333333333333
651,44.8,-409.6,-465.06666666666666
652,38.4,-390.4,-475.73333333333335
653,46.93333333333333,-375.46666666666664,-492.8
654,49.06666666666666,-405.3333333333333,-492.8
655,36.266666666666666,-366.93333333333334,-516.2666666666667
656,46.93333333333333,-394.6666666666667,-526.9333333333333
657,46.93333333333333,-396.8,-501.3333333333333
658,46.93333333333333,-379.73333333333335,-507.73333333333335
659,59.733333333333334,-384.0,-509.8666666666667
660,55.46666666666667,-375.46666666666664,-524.8
661,59.733333333333334,-375.46666666666664,-544.0
662,38.4,-388.26666666666665,-531.2
663,46.93333333333333,-373.3333333333333,-552.5333333333333
664,44.8,-362.6666666666667,-565.3333333333334
665,40.53333333333333,-356.26666666666665,-573.8666666666667
666,38.4,-356.26666666666665,-569.6
667,32.0,-373.3333333333333,-586.6666666666666
668,23.466666666666665,-349.8666666666667,-561.0666666666666
669,46.93333333333333,-356.26666666666665,-597.3333333333334
670,36.266666666666666,-339.2,-563.2
671,55.46666666666667,-354.1333333333333,-571.7333333333333
672,44.8,-360.5333333333333,-561.0666666666666
673,61.86666666666667,-349.8666666666667,-569.6
674,53.333333333333336,-343.46666666666664,-556.8
675,61.86666666666667,-347.73333333333335,-563.2
676,55.46666666666667,-334.93333333333334,-563.2
677,57.6,-334.93333333333334,-586.6666666666666
678,61.86666666666667,-349.8666666666667,-578.1333333333333
679,34.13333333333333,-339.2,-573.8666666666667
680,49.06666666666666,-332.8,-571.7333333333333
681,46.93333333333333,-341.3333333333333,-582.4
682,42.666666666666664,-339.2,-573.8666666666667
683,40.53333333333333,-339.2,-563.2
684,49.06666666666666,-337.06666666666666,-558.9333333333333
685,53.333333333333336,-347.73333333333335,-552.5333333333333
686,46.93333333333333,-343.46666666666664,-544.0
687,61.86666666666667,-339.2,-541.8666666666667
688,64.0,-343.46666666666664,-558.9333333333333
689,61.86666666666667,-347.73333333333335,-554.6666666666666
690,66.13333333333333,-349.8666666666667,-554.6666666666666
691,66.13333333333333,-345.6,-556.8
692,64.0,-339.2,-544.0
693,53.333333333333336,-326.4,-541.8666666666667
694,55.46666666666667,-326.4,-533.3333333333334
695,51.2,-324.26666666666665,-522.6666666666666
696,46.93333333333333,-328.5333333333333,-512.0
697,40.53333333333333,-322.1333333333333,-497.06666666666666
698,42.666666666666664,-320.0,-490.6666666666667
699,29.866666666666667,-334.93333333333334,-497.06666666666666
700,32.0,-332.8,-490.6666666666667
701,27.733333333333334,-328.5333333333333,-492.8
702,27.733333333333334,-330.6666666666667,-480.0
703,21.333333333333332,-345.6,-475.73333333333335
704,14.933333333333334,-364.8,-475.73333333333335
705,-2.1333333333333333,-381.8666666666667,-482.1333333333333
706,-4.266666666666667,-390.4,-486.4
707,2.1333333333333333,-403.2,-507.73333333333335
708,-8.533333333333333,-407.46666666666664,-509.8666666666667
709,-14.933333333333334,-416.0,-524.8
710,-23.466666666666665,-426.6666666666667,-539.7333333333333
711,-27.733333333333334,-435.2,-556.8
712,-29.866666666666667,-424.5333333333333,-576.0
713,-29.866666666666667,-428.8,-595.2
714,-29.866666666666667,-424.5333333333333,-610.1333333333333
715,-36.266666666666666,-413.8666666666667,-622.9333333333333
716,-32.0,-407.46666666666664,-608.0
717,-25.6,-405.3333333333333,-586.6666666666666
718,-12.8,-403.2,-546.1333333333333
719,-12.8,-390.4,-505.59999999999997
720,-8.533333333333333,-405.3333333333333,-456.5333333333333
721,4.266666666666667,-405.3333333333333,-443.73333333333335
722,6.4,-416.0,-377.6
723,6.4,-428.8,-332.8
724,6.4,-435.2,-307.2
725,6.4,-441.59999999999997,-288.0
726,8.533333333333333,-441.59999999999997,-273.06666666666666
727,0.0,-430.93333333333334,-266.6666666666667
728,6.4,-418.1333333333333,-249.6
729,0.0,-398.93333333333334,-260.26666666666665
730,2.1333333333333333,-384.0,-251.73333333333332
731,-29.866666666666667,-390.4,-253.86666666666667
732,-4.266666666666667,-366.93333333333334,-256.0
733,-6.4,-366.93333333333334,-249.6
734,-2.1333333333333333,-362.6666666666667,-256.0
735,-2.1333333333333333,-373.3333333333333,-256.0
736,2.1333333333333333,-379.73333333333335,-249.6
737,6.4,-405.3333333333333,-260.26666666666665
738,2.1333333333333333,-411.73333333333335,-258.1333333333333
739,10.666666666666666,-418.1333333333333,-253.86666666666667
740,17.066666666666666,-426.6666666666667,-249.6
741,14.933333333333334,-437.3333333333333,-249.6
742,23.466666666666665,-441.59999999999997,-243.2
743,32.0,-452.26666666666665,-245.33333333333334
744,29.866666666666667,-460.8,-238.93333333333334
745,29.866666666666667,-467.2,-224.0
746,25.6,-465.06666666666666,-234.66666666666666
747,23.466666666666665,-467.2,-228.26666666666665
748,23.466666666666665,-465.06666666666666,-234.66666666666666
749,27.733333333333334,-473.59999999999997,-236.79999999999998
750,27.733333333333334,-469.3333333333333,-234.66666666666666
751,27.733333333333334,-482.1333333333333,-247.46666666666667
752,23.466666666666665,-482.1333333333333,-256.0
753,21.333333333333332,-475.73333333333335,-262.4
754,14.933333333333334,-484.26666666666665,-275.2
755,12.8,-484.26666666666665,-279.46666666666664
756,6.4,-492.8,-266.6666666666667
757,12.8,-492.8,-268.8
758,0.0,-501.3333333333333,-266.6666666666667
759,10.666666666666666,-497.06666666666666,-260.26666666666665
760,8.533333333333333,-494.93333333333334,-253.86666666666667
761,4.266666666666667,-488.5333333333333,-258.1333333333333
762,10.666666666666666,-480.0,-238.93333333333334
763,12.8,-475.73333333333335,-230.4
764,8.533333333333333,-475.73333333333335,-211.2
765,2.1333333333333333,-467.2,-202.66666666666666
766,10.666666666666666,-456.5333333333333,-196.26666666666665
767,4.266666666666667,-450.1333333333333,-196.26666666666665
768,10.666666666666666,-448.0,-172.8
769,10.666666666666666,-433.06666666666666,-174.93333333333334
770,14.933333333333334,-437.3333333333333,-164.26666666666665
771,17.066666666666666,-433.06666666666666,-170.66666666666666
772,19.2,-424.5333333333333,-164.26666666666665
773,17.066666666666666,-428.8,-170.66666666666666
774,14.933333333333334,-426.6666666666667,-177.06666666666666
775,17.066666666666666,-433.06666666666666,-172.8
776,17.066666666666666,-433.06666666666666,-181.33333333333334
777,14.933333333333334,-428.8,-179.2
778,12.8,-445.8666666666667,-181.33333333333334
779,8.533333333333333,-460.8,-181.33333333333334
780,6.4,-465.06666666666666,-177.06666666666666
781,6.4,-469.3333333333333,-177.06666666666666
782,2.1333333333333333,-477.8666666666667,-185.6
783,4.266666666666667,-490.6666666666667,-187.73333333333332
784,-4.266666666666667,-490.6666666666667,-192.0
785,4.266666666666667,-501.3333333333333,-198.4
786,8.533333333333333,-490.6666666666667,-219.73333333333332
787,0.0,-514.1333333333333,-202.66666666666666
788,2.1333333333333333,-554.6666666666666,-209.06666666666666
789,14.933333333333334,-518.4,-204.8
790,14.933333333333334,-522.6666666666666,-217.6
791,14.933333333333334,-524.8,-211.2
792,17.066666666666666,-522.6666666666666,-211.2
793,25.6,-524.8,-217.6
794,34.13333333333333,-524.8,-215.46666666666667
795,34.13333333333333,-524.8,-226.13333333333333
796,38.4,-524.8,-206.93333333333334
797,34.13333333333333,-516.2666666666667,-211.2
798,32.0,-516.2666666666667,-215.46666666666667
799,29.866666666666667,-507.73333333333335,-211.2
800,25.6,-497.06666666666666,-209.06666666666666
801,34.13333333333333,-490.6666666666667,-196.26666666666665
802,27.733333333333334,-480.0,-196.26666666666665
803,27.733333333333334,-488.5333333333333,-181.33333333333334
804,23.466666666666665,-480.0,-177.06666666666666
805,19.2,-471.46666666666664,-179.2
806,23.466666666666665,-477.8666666666667,-170.66666666666666
807,23.466666666666665,-480.0,-162.13333333333333
808,17.066666666666666,-475.73333333333335,-162.13333333333333
809,21.333333333333332,-473.59999999999997,-153.6
810,14.933333333333334,-475.73333333333335,-157.86666666666667
811,17.066666666666666,-480.0,-162.13333333333333
812,21.333333333333332,-471.46666666666664,-160.0
813,10.666666666666666,-475.73333333333335,-172.8
814,17.066666666666666,-475.73333333333335,-168.53333333333333
815,10.666666666666666,-482.1333333333333,-162.13333333333333
816,12.8,-477.8666666666667,-177.06666666666666
817,14.933333333333334,-486.4,-181.33333333333334
818,10.666666666666666,-484.26666666666665,-189.86666666666667
819,8.533333333333333,-482.1333333333333,-185.6
820,17.066666666666666,-492.8,-194.13333333333333
821,6.4,-490.6666666666667,-189.86666666666667
822,17.066666666666666,-490.6666666666667,-183.46666666666667
823,6.4,-494.93333333333334,-194.13333333333333
824,14.933333333333334,-499.2,-187.73333333333332
825,17.066666666666666,-497.06666666666666,-196.26666666666665
826,8.533333333333333,-486.4,-189.86666666666667
827,14.933333333333334,-499.2,-200.53333333333333
828,23.466666666666665,-497.06666666666666,-189.86666666666667
829,12.8,-488.5333333333333,-189.86666666666667
830,19.2,-488.5333333333333,-198.4
831,12.8,-484.26666666666665,-194.13333333333333
832,12.8,-482.1333333333333,-200.53333333333333
833,19.2,-484.26666666666665,-198.4
834,21.333333333333332,-482.1333333333333,-187.73333333333332
835,14.933333333333334,-480.0,-198.4
836,17.066666666666666,-484.26666666666665,-194.13333333333333
837,21.333333333333332,-492.8,-189.86666666666667
838,17.066666666666666,-484.26666666666665,-189.86666666666667
839,12.8,-488.5333333333333,-187.73333333333332
840,19.2,-494.93333333333334,-192.0
841,21.333333333333332,-490.6666666666667,-183.46666666666667
842,21.333333333333332,-501.3333333333333,-194.13333333333333
843,21.333333333333332,-499.2,-194.13333333333333
844,14.933333333333334,-494.93333333333334,-183.46666666666667
845,21.333333333333332,-499.2,-185.6
846,17.066666666666666,-492.8,-181.33333333333334
847,21.333333333333332,-505.59999999999997,-189.86666666666667
848,25.6,-505.59999999999997,-189.86666666666667
849,25.6,-501.3333333333333,-183.46666666666667
850,23.466666666666665,-501.3333333333333,-181.33333333333334
851,23.466666666666665,-503.46666666666664,-170.66666666666666
852,23.466666666666665,-505.59999999999997,-181.33333333333334
853,23.466666666666665,-512.0,-177.06666666666666
854,23.466666666666665,-509.8666666666667,-179.2
855,23.466666666666665,-507.73333333333335,-185.6
856,27.733333333333334,-509.8666666666667,-170.66666666666666
857,23.466666666666665,-505.59999999999997,-183.46666666666667
858,27.733333333333334,-505.59999999999997,-174.93333333333334
859,25.6,-499.2,-189.86666666666667
860,25.6,-497.06666666666666,-177.06666666666666
861,14.933333333333334,-462.93333333333334,-179.2
862,21.333333333333332,-497.06666666666666,-172.8
863,21.333333333333332,-492.8,-179.2
864,17.066666666666666,-494.93333333333334,-177.06666666666666
865,19.2,-499.2,-181.33333333333334
866,17.066666666666666,-497.06666666666666,-183.46666666666667
867,17.066666666666666,-503.46666666666664,-170.66666666666666
868,12.8,-503.46666666666664,-170.66666666666666
869,4.266666666666667,-494.93333333333334,-174.93333333333334
870,4.266666666666667,-494.93333333333334,-168.53333333333333
871,12.8,-492.8,-174.93333333333334
872,8.533333333333333,-501.3333333333333,-174.93333333333334
873,14.933333333333334,-492.8,-177.06666666666666
874,21.333333333333332,-497.06666666666666,-172.8
875,12.8,-494.93333333333334,-181.33333333333334
876,21.333333333333332,-494.93333333333334,-177.06666666666666
877,21.333333333333332,-499.2,-179.2
878,19.2,-492.8,-179.2
879,23.466666666666665,-497.06666666666666,-183.46666666666667
880,19.2,-494.93333333333334,-179.2
881,23.466666666666665,-490.6666666666667,-177.06666666666666
882,23.466666666666665,-499.2,-185.6
883,21.333333333333332,-494.93333333333334,-181.33333333333334
884,19.2,-492.8,-172.8
885,21.333333333333332,-499.2,-177.06666666666666
886,21.333333333333332,-494.93333333333334,-177.06666666666666
887,27.733333333333334,-492.8,-181.33333333333334
888,25.6,-499.2,-172.8
889,29.866666666666667,-497.06666666666666,-162.13333333333333
890,27.733333333333334,-494.93333333333334,-164.26666666666665
891,25.6,-494.93333333333334,-164.26666666666665
892,23.466666666666665,-494.93333333333334,-170.66666666666666
893,21.333333333333332,-499.2,-168.53333333333333
894,29.866666666666667,-505.59999999999997,-166.4
895,29.866666666666667,-503.46666666666664,-168.53333333333333
896,12.8,-497.06666666666666,-166.4
897,21.333333333333332,-501.3333333333333,-170.66666666666666
898,19.2,-507.73333333333335,-174.93333333333334
899,19.2,-499.2,-172.8
900,17.066666666666666,-507.73333333333335,-170.66666666666666
901,19.2,-505.59999999999997,-170.66666666666666
902,14.933333333333334,-512.0,-164.26666666666665
903,19.2,-507.73333333333335,-168.53333333333333
904,17.066666666666666,-509.8666666666667,-166.4
905,23.466666666666665,-507.73333333333335,-168.53333333333333
906,19.2,-507.73333333333335,-164.26666666666665
907,19.2,-503.46666666666664,-170.66666666666666
908,21.333333333333332,-503.46666666666664,-168.53333333333333
909,21.333333333333332,-503.46666666666664,-172.8
910,27.733333333333334,-503.46666666666664,-164.26666666666665
911,19.2,-505.59999999999997,-157.86666666666667
912,23.466666666666665,-494.93333333333334,-166.4
913,32.0,-503.46666666666664,-157.86666666666667
914,23.466666666666665,-505.59999999999997,-153.6
915,23.466666666666665,-501.3333333333333,-160.0
916,27.733333333333334,-503.46666666666664,-153.6
917,25.6,-507.73333333333335,-155.73333333333332
918,17.066666666666666,-507.73333333333335,-160.0
919,23.466666666666665,-505.59999999999997,-155.73333333333332
920,27.733333333333334,-505.59999999999997,-160.0
921,21.333333333333332,-509.8666666666667,-153.6
922,17.066666666666666,-499.2,-157.86666666666667
923,19.2,-505.59999999999997,-160.0
924,17.066666666666666,-505.59999999999997,-157.86666666666667
925,19.2,-507.73333333333335,-153.6
926,14.933333333333334,-503.46666666666664,-151.46666666666667
927,25.6,-516.2666666666667,-162.13333333333333
928,23.466666666666665,-505.59999999999997,-149.33333333333334
929,14.933333333333334,-503.46666666666664,-151.46666666666667
930,8.533333333333333,-503.46666666666664,-153.6
931,19.2,-499.2,-149.33333333333334
932,12.8,-503.46666666666664,-160.0
933,12.8,-499.2,-157.86666666666667
934,14.933333333333334,-503.46666666666664,-155.73333333333332
935,17.066666666666666,-503.46666666666664,-153.6
936,19.2,-505.59999999999997,-155.73333333333332
937,25.6,-503.46666666666664,-153.6
938,17.066666666666666,-512.0,-155.73333333333332
939,19.2,-503.46666666666664,-155.73333333333332
940,21.333333333333332,-507.73333333333335,-151.46666666666667
941,23.466666666666665,-507.73333333333335,-147.2
942,14.933333333333334,-509.8666666666667,-153.6
943,25.6,-507.73333333333335,-157.86666666666667
944,23.466666666666665,-509.8666666666667,-153.6
945,27.733333333333334,-505.59999999999997,-157.86666666666667
946,23.466666666666665,-505.59999999999997,-149.33333333333334
947,19.2,-503.46666666666664,-149.33333333333334
948,21.333333333333332,-499.2,-153.6
949,14.933333333333334,-499.2,-151.46666666666667
950,19.2,-507.73333333333335,-151.46666666666667
951,25.6,-505.59999999999997,-155.73333333333332
952,21.333333333333332,-507.73333333333335,-145.06666666666666
953,19.2,-503.46666666666664,-147.2
954,14.933333333333334,-505.59999999999997,-151.46666666666667
955,19.2,-514.1333333333333,-149.33333333333334
956,12.8,-507.73333333333335,-149.33333333333334
957,12.8,-499.2,-140.8
958,12.8,-512.0,-147.2
959,21.333333333333332,-512.0,-149.33333333333334
960,12.8,-507.73333333333335,-157.86666666666667
961,17.066666666666666,-501.3333333333333,-153.6
962,25.6,-509.8666666666667,-149.33333333333334
963,19.2,-505.59999999999997,-142.93333333333334
964,14.933333333333334,-505.59999999999997,-149.33333333333334
965,19.2,-512.0,-155.73333333333332
966,23.466666666666665,-516.2666666666667,-147.2
967,17.066666666666666,-512.0,-142.93333333333334
968,23.466666666666665,-516.2666666666667,-149.33333333333334
969,19.2,-509.8666666666667,-140.8
970,19.2,-509.8666666666667,-145.06666666666666
971,19.2,-509.8666666666667,-147.2
972,21.333333333333332,-507.73333333333335,-142.93333333333334
973,17.066666666666666,-505.59999999999997,-145.06666666666666
974,19.2,-509.8666666666667,-153.6
975,21.333333333333332,-509.8666666666667,-140.8
976,14.933333333333334,-505.59999999999997,-142.93333333333334
977,19.2,-507.73333333333335,-149.33333333333334
978,10.666666666666666,-507.73333333333335,-145.06666666666666
979,19.2,-512.0,-140.8
980,19.2,-507.73333333333335,-149.33333333333334
981,21.333333333333332,-514.1333333333333,-149.33333333333334
982,23.466666666666665,-509.8666666666667,-145.06666666666666
983,27.733333333333334,-514.1333333333333,-140.8
984,21.333333333333332,-509.8666666666667,-147.2
985,19.2,-507.73333333333335,-140.8
986,17.066666666666666,-509.8666666666667,-149.33333333333334
987,14.933333333333334,-514.1333333333333,-138.66666666666666
988,19.2,-509.8666666666667,-149.33333333333334
989,19.2,-507.73333333333335,-145.06666666666666
990,14.933333333333334,-507.73333333333335,-151.46666666666667
991,14.933333333333334,-507.73333333333335,-140.8
992,14.933333333333334,-509.8666666666667,-160.0
993,19.2,-512.0,-142.93333333333334
994,19.2,-503.46666666666664,-145.06666666666666
995,23.466666666666665,-509.8666666666667,-142.93333333333334
996,19.2,-503.46666666666664,-140.8
997,17.066666666666666,-509.8666666666667,-140.8
998,23.466666666666665,-509.8666666666667,-142.93333333333334
999,21.333333333333332,-509.8666666666667,-132.26666666666665
1000,17.066666666666666,-505.59999999999997,-145.06666666666666
1001,12.8,-499.2,-134.4
1002,17.066666666666666,-507.73333333333335,-140.8
1003,12.8,-512.0,-140.8
1004,17.066666666666666,-503.46666666666664,-149.33333333333334
1005,17.066666666666666,-514.1333333333333,-138.66666666666666
1006,14.933333333333334,-514.1333333333333,-140.8
1007,17.066666666666666,-512.0,-140.8
1008,19.2,-512.0,-142.93333333333334
1009,19.2,-505.59999999999997,-138.66666666666666
1010,19.2,-512.0,-136.53333333333333
1011,21.333333333333332,-507.73333333333335,-142.93333333333334
1012,23.466666666666665,-507.73333333333335,-142.93333333333334
1013,14.933333333333334,-505.59999999999997,-142.93333333333334
1014,17.066666666666666,-507.73333333333335,-140.8
1015,19.2,-516.2666666666667,-138.66666666666666
1016,17.066666666666666,-509.8666666666667,-145.06666666666666
1017,17.066666666666666,-512.0,-140.8
1018,14.933333333333334,-514.1333333333333,-140.8
1019,21.333333333333332,-503.46666666666664,-140.8
1020,12.8,-503.46666666666664,-145.06666666666666
1021,12.8,-507.73333333333335,-147.2
1022,14.933333333333334,-505.59999999999997,-138.66666666666666
1023,19.2,-505.59999999999997,-140.8
1024,10.666666666666666,-499.2,-142.93333333333334
1025,12.8,-503.46666666666664,-147.2
1026,14.933333333333334,-507.73333333333335,-136.53333333333333
1027,19.2,-512.0,-138.66666666666666
1028,19.2,-516.2666666666667,-140.8
1029,17.066666666666666,-514.1333333333333,-134.4
1030,10.666666666666666,-514.1333333333333,-138.66666666666666
1031,12.8,-514.1333333333333,-136.53333333333333
1032,19.2,-516.2666666666667,-134.4
1033,23.466666666666665,-516.2666666666667,-136.53333333333333
1034,19.2,-518.4,-136.53333333333333
1035,19.2,-518.4,-140.8
1036,12.8,-509.8666666666667,-136.53333333333333
1037,12.8,-501.3333333333333,-138.66666666666666
1038,21.333333333333332,-514.1333333333333,-140.8
1039,14.933333333333334,-512.0,-138.66666666666666
1040,17.066666666666666,-512.0,-140.8
1041,21.333333333333332,-507.73333333333335,-138.66666666666666
1042,17.066666666666666,-507.73333333333335,-140.8
1043,19.2,-505.59999999999997,-145.06666666666666
1044,19.2,-512.0,-140.8
1045,14.933333333333334,-509.8666666666667,-134.4
1046,17.066666666666666,-512.0,-138.66666666666666
1047,19.2,-494.93333333333334,-149.33333333333334
1048,19.2,-512.0,-138.66666666666666
1049,19.2,-512.0,-140.8
1050,17.066666666666666,-509.8666666666667,-138.66666666666666
1051,19.2,-512.0,-125.86666666666666
1052,17.066666666666666,-516.2666666666667,-130.13333333333333
1053,17.066666666666666,-514.1333333333333,-132.26666666666665
1054,14.933333333333334,-507.73333333333335,-136.53333333333333
1055,14.933333333333334,-512.0,-136.53333333333333
1056,19.2,-514.1333333333333,-130.13333333333333
1057,21.333333333333332,-473.59999999999997,-132.26666666666665
1058,17.066666666666666,-507.73333333333335,-132.26666666666665
1059,25.6,-514.1333333333333,-134.4
1060,21.333333333333332,-509.8666666666667,-138.66666666666666
1061,19.2,-512.0,-138.66666666666666
1062,19.2,-509.8666666666667,-134.4
1063,10.666666666666666,-505.59999999999997,-130.13333333333333
1064,14.933333333333334,-512.0,-138.66666666666666
1065,17.066666666666666,-512.0,-134.4
1066,12.8,-509.8666666666667,-136.53333333333333
1067,17.066666666666666,-514.1333333333333,-138.66666666666666
1068,12.8,-514.1333333333333,-136.53333333333333
1069,14.933333333333334,-516.2666666666667,-128.0
1070,14.933333333333334,-514.1333333333333,-125.86666666666666
1071,14.933333333333334,-516.2666666666667,-132.26666666666665
1072,14.933333333333334,-520.5333333333333,-130.13333333333333
1073,12.8,-514.1333333333333,-130.13333333333333
1074,12.8,-509.8666666666667,-134.4
1075,10.666666666666666,-509.8666666666667,-132.26666666666665
1076,19.2,-516.2666666666667,-136.53333333333333
1077,12.8,-512.0,-134.4
1078,21.333333333333332,-514.1333333333333,-136.53333333333333
1079,14.933333333333334,-505.59999999999997,-138.66666666666666
1080,17.066666666666666,-512.0,-138.66666666666666
1081,17.066666666666666,-509.8666666666667,-132.26666666666665
1082,19.2,-509.8666666666667,-130.13333333333333
1083,21.333333333333332,-509.8666666666667,-136.53333333333333
1084,21.333333333333332,-509.8666666666667,-136.53333333333333
1085,14.933333333333334,-516.2666666666667,-134.4
1086,14.933333333333334,-509.8666666666667,-132.26666666666665
1087,19.2,-514.1333333333333,-134.4
1088,23.466666666666665,-516.2666666666667,-134.4
1089,14.933333333333334,-518.4,-132.26666666666665
1090,14.933333333333334,-512.0,-134.4
1091,12.8,-518.4,-136.53333333333333
1092,10.666666666666666,-516.2666666666667,-140.8
1093,14.933333333333334,-509.8666666666667,-136.53333333333333
1094,14.933333333333334,-522.6666666666666,-142.93333333333334
1095,14.933333333333334,-509.8666666666667,-132.26666666666665
1096,17.066666666666666,-514.1333333333333,-140.8
1097,14.933333333333334,-514.1333333333333,-138.66666666666666
1098,19.2,-509.8666666666667,-138.66666666666666
1099,17.066666666666666,-509.8666666666667,-136.53333333333333
1100,14.933333333333334,-516.2666666666667,-138.66666666666666
1101,17.066666666666666,-512.0,-130.13333333333333
1102,17.066666666666666,-514.1333333333333,-130.13333333333333
1103,14.933333333333334,-516.2666666666667,-140.8
1104,19.2,-514.1333333333333,-130.13333333333333
1105,14.933333333333334,-507.73333333333335,-132.26666666666665
1106,14.933333333333334,-514.1333333333333,-130.13333333333333
1107,23.466666666666665,-514.1333333333333,-128.0
1108,17.066666666666666,-507.73333333333335,-136.53333333333333
1109,19.2,-507.73333333333335,-136.53333333333333
1110,25.6,-516.2666666666667,-125.86666666666666
1111,17.066666666666666,-507.73333333333335,-132.26666666666665
1112,17.066666666666666,-494.93333333333334,-115.2
1113,14.933333333333334,-507.73333333333335,-132.26666666666665
1114,21.333333333333332,-512.0,-132.26666666666665
1115,14.933333333333334,-509.8666666666667,-134.4
1116,14.933333333333334,-518.4,-136.53333333333333
1117,23.466666666666665,-516.2666666666667,-134.4
1118,12.8,-509.8666666666667,-134.4
1119,17.066666666666666,-512.0,-136.53333333333333
1120,14.933333333333334,-512.0,-136.53333333333333
1121,23.466666666666665,-512.0,-145.06666666666666
1122,17.066666666666666,-512.0,-140.8
1123,19.2,-494.93333333333334,-153.6
1124,19.2,-509.8666666666667,-136.53333333333333
1125,12.8,-507.73333333333335,-140.8
1126,14.933333333333334,-509.8666666666667,-138.66666666666666
1127,6.4,-505.59999999999997,-142.93333333333334
1128,17.066666666666666,-512.0,-140.8
1129,19.2,-512.0,-136.53333333333333
1130,19.2,-509.8666666666667,-134.4
1131,17.066666666666666,-516.2666666666667,-138.66666666666666
1132,23.466666666666665,-507.73333333333335,-136.53333333333333
1133,14.933333333333334,-507.73333333333335,-147.2
1134,21.333333333333332,-512.0,-134.4
1135,19.2,-514.1333333333333,-136.53333333333333
1136,19.2,-509.8666666666667,-138.66666666666666
1137,25.6,-512.0,-136.53333333333333
1138,19.2,-512.0,-134.4
1139,19.2,-509.8666666666667,-136.53333333333333
1140,19.2,-514.1333333333333,-142.93333333333334
1141,19.2,-512.0,-140.8
1142,27.733333333333334,-514.1333333333333,-145.06666666666666
1143,19.2,-505.59999999999997,-138.66666666666666
1144,19.2,-514.1333333333333,-138.66666666666666
1145,19.2,-507.73333333333335,-140.8
1146,17.066666666666666,-509.8666666666667,-134.4
1147,10.666666666666666,-505.59999999999997,-136.53333333333333
1148,19.2,-514.1333333333333,-136.53333333333333
1149,19.2,-509.8666666666667,-134.4
1150,23.466666666666665,-509.8666666666667,-136.53333333333333
1151,19.2,-509.8666666666667,-136.53333333333333
1152,21.333333333333332,-514.1333333333333,-142.93333333333334
1153,12.8,-512.0,-140.8
1154,12.8,-505.59999999999997,-140.8
1155,21.333333333333332,-509.8666666666667,-145.06666666666666
1156,21.333333333333332,-514.1333333333333,-142.93333333333334
1157,21.333333333333332,-509.8666666666667,-149.33333333333334
1158,21.333333333333332,-514.1333333333333,-147.2
1159,21.333333333333332,-507.73333333333335,-153.6
1160,19.2,-512.0,-140.8
1161,29.866666666666667,-518.4,-145.06666666666666
1162,23.466666666666665,-505.59999999999997,-140.8
1163,17.066666666666666,-497.06666666666666,-151.46666666666667
1164,21.333333333333332,-501.3333333333333,-134.4
1165,19.2,-503.46666666666664,-136.53333333333333
1166,19.2,-505.59999999999997,-138.66666666666666
1167,19.2,-507.73333333333335,-138.66666666666666
1168,17.066666666666666,-501.3333333333333,-140.8
1169,23.466666666666665,-516.2666666666667,-136.53333333333333
1170,19.2,-507.73333333333335,-138.66666666666666
1171,17.066666666666666,-503.46666666666664,-136.53333333333333
1172,19.2,-507.73333333333335,-140.8
1173,21.333333333333332,-505.59999999999997,-145.06666666666666
1174,14.933333333333334,-507.73333333333335,-140.8
1175,17.066666666666666,-505.59999999999997,-140.8
1176,17.066666666666666,-512.0,-145.06666666666666
1177,10.666666666666666,-518.4,-149.33333333333334
1178,23.466666666666665,-518.4,-147.2
1179,19.2,-518.4,-151.46666666666667
1180,8.533333333333333,-516.2666666666667,-151.46666666666667
1181,25.6,-520.5333333333333,-151.46666666666667
1182,10.666666666666666,-518.4,-149.33333333333334
1183,12.8,-514.1333333333333,-153.6
1184,12.8,-518.4,-160.0
1185,21.333333333333332,-516.2666666666667,-151.46666666666667
1186,14.933333333333334,-520.5333333333333,-151.46666666666667
1187,21.333333333333332,-524.8,-145.06666666666666
1188,27.733333333333334,-522.6666666666666,-145.06666666666666
1189,19.2,-529.0666666666666,-151.46666666666667
1190,21.333333333333332,-526.9333333333333,-147.2
1191,21.333333333333332,-533.3333333333334,-145.06666666666666
1192,14.933333333333334,-535.4666666666667,-140.8
1193,25.6,-535.4666666666667,-138.66666666666666
1194,23.466666666666665,-537.6,-134.4
1195,25.6,-529.0666666666666,-136.53333333333333
1196,14.933333333333334,-531.2,-132.26666666666665
1197,21.333333333333332,-524.8,-134.4
1198,19.2,-518.4,-134.4
1199,23.466666666666665,-518.4,-136.53333333333333
1200,14.933333333333334,-512.0,-140.8
1201,8.533333333333333,-494.93333333333334,-149.33333333333334
1202,10.666666666666666,-482.1333333333333,-145.06666666666666
1203,14.933333333333334,-477.8666666666667,-142.93333333333334
1204,12.8,-477.8666666666667,-134.4
1205,19.2,-477.8666666666667,-140.8
1206,10.666666666666666,-475.73333333333335,-138.66666666666666
1207,8.533333333333333,-480.0,-140.8
1208,12.8,-486.4,-132.26666666666665
1209,17.066666666666666,-477.8666666666667,-134.4
1210,23.466666666666665,-488.5333333333333,-130.13333333333333
1211,36.266666666666666,-486.4,-134.4
1212,17.066666666666666,-494.93333333333334,-121.6
1213,21.333333333333332,-492.8,-128.0
1214,25.6,-497.06666666666666,-115.2
1215,25.6,-494.93333333333334,-117.33333333333333
1216,21.333333333333332,-492.8,-123.73333333333333
1217,23.466666666666665,-499.2,-113.06666666666666
1218,19.2,-488.5333333333333,-117.33333333333333
1219,23.466666666666665,-497.06666666666666,-110.93333333333334
1220,21.333333333333332,-505.59999999999997,-106.66666666666667
1221,23.466666666666665,-512.0,-96.0
1222,14.933333333333334,-509.8666666666667,-100.26666666666667
1223,14.933333333333334,-505.59999999999997,-106.66666666666667
1224,8.533333333333333,-514.1333333333333,-102.4
1225,8.533333333333333,-509.8666666666667,-100.26666666666667
1226,12.8,-509.8666666666667,-91.73333333333333
1227,4.266666666666667,-516.2666666666667,-117.33333333333333
1228,10.666666666666666,-516.2666666666667,-113.06666666666666
1229,4.266666666666667,-516.2666666666667,-110.93333333333334
1230,0.0,-505.59999999999997,-113.06666666666666
1231,0.0,-505.59999999999997,-117.33333333333333
1232,2.1333333333333333,-505.59999999999997,-119.46666666666667
1233,0.0,-497.06666666666666,-113.06666666666666
1234,4.266666666666667,-499.2,-119.46666666666667
1235,0.0,-497.06666666666666,-119.46666666666667
1236,2.1333333333333333,-492.8,-123.73333333333333
1237,0.0,-490.6666666666667,-128.0
1238,0.0,-490.6666666666667,-138.66666666666666
1239,2.1333333333333333,-484.26666666666665,-136.53333333333333
1240,-2.1333333333333333,-484.26666666666665,-140.8
1241,6.4,-486.4,-138.66666666666666
1242,2.1333333333333333,-467.2,-138.66666666666666
1243,8.533333333333333,-467.2,-145.06666666666666
1244,2.1333333333333333,-456.5333333333333,-140.8
1245,8.533333333333333,-452.26666666666665,-142.93333333333334
1246,10.666666666666666,-445.8666666666667,-145.06666666666666
1247,10.666666666666666,-443.73333333333335,-157.86666666666667
1248,19.2,-433.06666666666666,-155.73333333333332
1249,14.933333333333334,-433.06666666666666,-147.2
1250,17.066666666666666,-430.93333333333334,-162.13333333333333
1251,17.066666666666666,-426.6666666666667,-153.6
1252,17.066666666666666,-435.2,-151.46666666666667
1253,17.066666666666666,-435.2,-174.93333333333334
1254,17.066666666666666,-433.06666666666666,-164.26666666666665
1255,21.333333333333332,-428.8,-155.73333333333332
1256,19.2,-439.46666666666664,-162.13333333333333
1257,23.466666666666665,-448.0,-160.0
1258,19.2,-454.4,-168.53333333333333
1259,27.733333333333334,-460.8,-174.93333333333334
1260,17.066666666666666,-458.6666666666667,-179.2
1261,21.333333333333332,-465.06666666666666,-187.73333333333332
1262,12.8,-465.06666666666666,-192.0
1263,21.333333333333332,-467.2,-204.8
1264,27.733333333333334,-475.73333333333335,-202.66666666666666
1265,21.333333333333332,-484.26666666666665,-206.93333333333334
1266,23.466666666666665,-475.73333333333335,-224.0
1267,25.6,-480.0,-228.26666666666665
1268,29.866666666666667,-465.06666666666666,-209.06666666666666
1269,38.4,-462.93333333333334,-256.0
1270,34.13333333333333,-460.8,-241.06666666666666
1271,44.8,-460.8,-277.3333333333333
1272,36.266666666666666,-450.1333333333333,-260.26666666666665
1273,57.6,-456.5333333333333,-270.93333333333334
1274,55.46666666666667,-428.8,-283.73333333333335
1275,72.53333333333333,-422.4,-307.2
1276,81.06666666666666,-373.3333333333333,-294.4
1277,93.86666666666666,-360.5333333333333,-317.8666666666667
1278,81.06666666666666,-326.4,-345.6
1279,87.46666666666667,-302.93333333333334,-392.5333333333333
1280,93.86666666666666,-243.2,-424.5333333333333
1281,49.06666666666666,-230.4,-416.0
1282,32.0,-213.33333333333334,-462.93333333333334
1283,85.33333333333333,-151.46666666666667,-467.2
1284,38.4,-130.13333333333333,-512.0
1285,51.2,-145.06666666666666,-554.6666666666666
1286,-57.6,-151.46666666666667,-546.1333333333333
1287,17.066666666666666,-138.66666666666666,-603.7333333333333
1288,-46.93333333333333,-115.2,-644.2666666666667
1289,-72.53333333333333,-145.06666666666666,-642.1333333333333
1290,-8.533333333333333,-236.79999999999998,-738.1333333333333
1291,17.066666666666666,-196.26666666666665,-714.6666666666666
1292,-17.066666666666666,-200.53333333333333,-744.5333333333333
1293,4.266666666666667,-219.73333333333332,-727.4666666666667
1294,110.93333333333334,-268.8,-733.8666666666667
1295,70.4,-251.73333333333332,-727.4666666666667
1296,153.6,-298.6666666666667,-776.5333333333333
1297,151.46666666666667,-492.8,-874.6666666666666
1298,108.8,-177.06666666666666,-686.9333333333333
1299,66.13333333333333,-213.33333333333334,-725.3333333333334
1300,64.0,-241.06666666666666,-721.0666666666666
1301,76.8,-236.79999999999998,-708.2666666666667
1302,81.06666666666666,-219.73333333333332,-716.8
1303,83.2,-238.93333333333334,-701.8666666666667
1304,72.53333333333333,-238.93333333333334,-697.6
1305,83.2,-219.73333333333332,-682.6666666666666
1306,78.93333333333334,-211.2,-678.4
1307,68.26666666666667,-209.06666666666666,-686.9333333333333
1308,81.06666666666666,-211.2,-686.9333333333333
1309,66.13333333333333,-204.8,-686.9333333333333
1310,55.46666666666667,-198.4,-665.6
1311,51.2,-179.2,-676.2666666666667
1312,57.6,-179.2,-661.3333333333334
1313,96.0,-192.0,-669.8666666666667
1314,57.6,-172.8,-654.9333333333333
1315,104.53333333333333,-179.2,-663.4666666666667
1316,98.13333333333333,-181.33333333333334,-654.9333333333333
1317,40.53333333333333,-153.6,-637.8666666666667
1318,57.6,-149.33333333333334,-663.4666666666667
1319,87.46666666666667,-149.33333333333334,-667.7333333333333
1320,40.53333333333333,-138.66666666666666,-620.8
1321,70.4,-136.53333333333333,-654.9333333333333
1322,64.0,-130.13333333333333,-644.2666666666667
1323,70.4,-130.13333333333333,-633.6
1324,66.13333333333333,-132.26666666666665,-648.5333333333333
1325,74.66666666666667,-128.0,-635.7333333333333
1326,76.8,-123.73333333333333,-642.1333333333333
1327,78.93333333333334,-110.93333333333334,-650.6666666666666
1328,61.86666666666667,-100.26666666666667,-648.5333333333333
1329,78.93333333333334,-93.86666666666666,-652.8
1330,66.13333333333333,-100.26666666666667,-659.2
1331,74.66666666666667,-83.2,-652.8
1332,72.53333333333333,-91.73333333333333,-652.8
1333,72.53333333333333,-96.0,-642.1333333333333
1334,87.46666666666667,-89.6,-640.0
1335,78.93333333333334,-96.0,-633.6
1336,70.4,-89.6,-633.6
1337,68.26666666666667,-83.2,-627.2
1338,72.53333333333333,-76.8,-622.9333333333333
1339,72.53333333333333,-70.4,-622.9333333333333
1340,68.26666666666667,-78.93333333333334,-614.4
1341,68.26666666666667,-81.06666666666666,-612.2666666666667
1342,68.26666666666667,-89.6,-586.6666666666666
1343,59.733333333333334,-102.4,-576.0
1344,68.26666666666667,-121.6,-563.2
1345,64.0,-128.0,-554.6666666666666
1346,66.13333333333333,-138.66666666666666,-556.8
1347,81.06666666666666,-151.46666666666667,-541.8666666666667
1348,74.66666666666667,-151.46666666666667,-537.6
1349,68.26666666666667,-149.33333333333334,-537.6
1350,72.53333333333333,-155.73333333333332,-524.8
1351,68.26666666666667,-162.13333333333333,-522.6666666666666
1352,66.13333333333333,-168.53333333333333,-520.5333333333333
1353,66.13333333333333,-181.33333333333334,-516.2666666666667
1354,66.13333333333333,-179.2,-518.4
1355,74.66666666666667,-196.26666666666665,-520.5333333333333
1356,76.8,-206.93333333333334,-518.4
1357,76.8,-204.8,-514.1333333333333
1358,76.8,-228.26666666666665,-509.8666666666667
1359,87.46666666666667,-241.06666666666666,-494.93333333333334
1360,76.8,-247.46666666666667,-494.93333333333334
1361,89.6,-264.5333333333333,-492.8
1362,78.93333333333334,-279.46666666666664,-499.2
1363,83.2,-279.46666666666664,-486.4
1364,76.8,-285.8666666666667,-488.5333333333333
1365,66.13333333333333,-302.93333333333334,-484.26666666666665
1366,66.13333333333333,-322.1333333333333,-477.8666666666667
1367,64.0,-328.5333333333333,-486.4
1368,66.13333333333333,-324.26666666666665,-482.1333333333333
1369,68.26666666666667,-343.46666666666664,-486.4
1370,68.26666666666667,-352.0,-486.4
1371,66.13333333333333,-347.73333333333335,-484.26666666666665
1372,61.86666666666667,-354.1333333333333,-471.46666666666664
1373,59.733333333333334,-362.6666666666667,-475.73333333333335
1374,78.93333333333334,-358.4,-503.46666666666664
1375,76.8,-356.26666666666665,-509.8666666666667
1376,64.0,-349.8666666666667,-507.73333333333335
1377,49.06666666666666,-364.8,-512.0
1378,36.266666666666666,-366.93333333333334,-518.4
1379,36.266666666666666,-375.46666666666664,-516.2666666666667
1380,34.13333333333333,-384.0,-512.0
1381,40.53333333333333,-386.1333333333333,-505.59999999999997
1382,14.933333333333334,-386.1333333333333,-535.4666666666667
1383,32.0,-388.26666666666665,-512.0
1384,32.0,-373.3333333333333,-509.8666666666667
1385,40.53333333333333,-381.8666666666667,-488.5333333333333
1386,40.53333333333333,-375.46666666666664,-503.46666666666664
1387,42.666666666666664,-377.6,-503.46666666666664
1388,44.8,-377.6,-505.59999999999997
1389,53.333333333333336,-377.6,-516.2666666666667
1390,51.2,-369.06666666666666,-514.1333333333333
1391,53.333333333333336,-366.93333333333334,-497.06666666666666
1392,59.733333333333334,-358.4,-482.1333333333333
1393,51.2,-364.8,-473.59999999999997
1394,51.2,-362.6666666666667,-465.06666666666666
1395,44.8,-354.1333333333333,-460.8
1396,44.8,-341.3333333333333,-448.0
1397,40.53333333333333,-337.06666666666666,-428.8
1398,46.93333333333333,-330.6666666666667,-416.0
1399,49.06666666666666,-328.5333333333333,-413.8666666666667
1400,51.2,-324.26666666666665,-407.46666666666664
1401,61.86666666666667,-324.26666666666665,-398.93333333333334
1402,61.86666666666667,-320.0,-386.1333333333333
1403,59.733333333333334,-324.26666666666665,-369.06666666666666
1404,57.6,-328.5333333333333,-358.4
1405,51.2,-339.2,-347.73333333333335
1406,46.93333333333333,-352.0,-341.3333333333333
1407,44.8,-375.46666666666664,-326.4
1408,34.13333333333333,-375.46666666666664,-315.73333333333335
1409,42.666666666666664,-396.8,-317.8666666666667
1410,25.6,-405.3333333333333,-305.06666666666666
1411,27.733333333333334,-428.8,-307.2
1412,25.6,-441.59999999999997,-298.6666666666667
1413,17.066666666666666,-450.1333333333333,-307.2
1414,8.533333333333333,-475.73333333333335,-283.73333333333335
1415,23.466666666666665,-475.73333333333335,-294.4
1416,17.066666666666666,-477.8666666666667,-294.4
1417,17.066666666666666,-484.26666666666665,-290.1333333333333
1418,17.066666666666666,-486.4,-294.4
1419,14.933333333333334,-482.1333333333333,-294.4
1420,23.466666666666665,-473.59999999999997,-279.46666666666664
1421,14.933333333333334,-475.73333333333335,-277.3333333333333
1422,2.1333333333333333,-467.2,-273.06666666666666
1423,12.8,-460.8,-264.5333333333333
1424,8.533333333333333,-454.4,-262.4
1425,8.533333333333333,-439.46666666666664,-260.26666666666665
1426,10.666666666666666,-426.6666666666667,-249.6
1427,10.666666666666666,-411.73333333333335,-245.33333333333334
1428,14.933333333333334,-411.73333333333335,-230.4
1429,17.066666666666666,-405.3333333333333,-219.73333333333332
1430,17.066666666666666,-394.6666666666667,-221.86666666666667
1431,21.333333333333332,-379.73333333333335,-215.46666666666667
1432,21.333333333333332,-366.93333333333334,-204.8
1433,27.733333333333334,-354.1333333333333,-202.66666666666666
1434,32.0,-343.46666666666664,-202.66666666666666
1435,25.6,-332.8,-183.46666666666667
1436,27.733333333333334,-320.0,-183.46666666666667
1437,42.666666666666664,-307.2,-187.73333333333332
1438,42.666666666666664,-300.8,-187.73333333333332
1439,42.666666666666664,-292.26666666666665,-194.13333333333333
1440,44.8,-281.6,-185.6
1441,40.53333333333333,-275.2,-189.86666666666667
1442,53.333333333333336,-279.46666666666664,-185.6
1443,44.8,-273.06666666666666,-174.93333333333334
1444,42.666666666666664,-277.3333333333333,-177.06666666666666
1445,40.53333333333333,-270.93333333333334,-174.93333333333334
1446,36.266666666666666,-264.5333333333333,-174.93333333333334
1447,40.53333333333333,-264.5333333333333,-164.26666666666665
1448,34.13333333333333,-262.4,-168.53333333333333
1449,34.13333333333333,-264.5333333333333,-153.6
1450,29.866666666666667,-251.73333333333332,-155.73333333333332
1451,34.13333333333333,-251.73333333333332,-151.46666666666667
1452,27.733333333333334,-253.86666666666667,-147.2
1453,14.933333333333334,-238.93333333333334,-140.8
1454,21.333333333333332,-234.66666666666666,-140.8
1455,17.066666666666666,-234.66666666666666,-142.93333333333334
1456,4.266666666666667,-230.4,-138.66666666666666
1457,12.8,-230.4,-132.26666666666665
1458,12.8,-232.53333333333333,-132.26666666666665
1459,8.533333333333333,-234.66666666666666,-130.13333333333333
1460,10.666666666666666,-224.0,-125.86666666666666
1461,12.8,-247.46666666666667,-128.0
1462,14.933333333333334,-251.73333333333332,-121.6
1463,10.666666666666666,-256.0,-123.73333333333333
1464,10.666666666666666,-262.4,-121.6
1465,4.266666666666667,-273.06666666666666,-108.8
1466,4.266666666666667,-275.2,-104.53333333333333
1467,4.266666666666667,-277.3333333333333,-102.4
1468,2.1333333333333333,-285.8666666666667,-100.26666666666667
1469,10.666666666666666,-294.4,-100.26666666666667
1470,14.933333333333334,-302.93333333333334,-106.66666666666667
1471,17.066666666666666,-315.73333333333335,-104.53333333333333
1472,19.2,-313.6,-104.53333333333333
1473,27.733333333333334,-326.4,-108.8
1474,29.866666666666667,-332.8,-110.93333333333334
1475,27.733333333333334,-341.3333333333333,-121.6
1476,29.866666666666667,-358.4,-115.2
1477,29.866666666666667,-377.6,-121.6
1478,40.53333333333333,-396.8,-136.53333333333333
1479,46.93333333333333,-416.0,-121.6
1480,42.666666666666664,-424.5333333333333,-136.53333333333333
1481,44.8,-448.0,-138.66666666666666
1482,44.8,-462.93333333333334,-142.93333333333334
1483,40.53333333333333,-477.8666666666667,-136.53333333333333
1484,44.8,-494.93333333333334,-142.93333333333334
1485,40.53333333333333,-509.8666666666667,-153.6
1486,34.13333333333333,-524.8,-155.73333333333332
1487,38.4,-533.3333333333334,-147.2
1488,27.733333333333334,-539.7333333333333,-149.33333333333334
1489,25.6,-539.7333333333333,-142.93333333333334
1490,29.866666666666667,-544.0,-140.8
1491,25.6,-541.8666666666667,-142.93333333333334
1492,12.8,-535.4666666666667,-142.93333333333334
1493,10.666666666666666,-524.8,-145.06666666666666
1494,10.666666666666666,-518.4,-142.93333333333334
1495,4.266666666666667,-507.73333333333335,-142.93333333333334
1496,6.4,-499.2,-151.46666666666667
1497,4.266666666666667,-488.5333333333333,-151.46666666666667
1498,6.4,-477.8666666666667,-145.06666666666666
1499,4.266666666666667,-473.59999999999997,-147.2
1500,0.0,-469.3333333333333,-147.2
1501,4.266666666666667,-469.3333333333333,-149.33333333333334
1502,8.533333333333333,-462.93333333333334,-140.8
1503,8.533333333333333,-467.2,-145.06666666666666
1504,8.533333333333333,-473.59999999999997,-142.93333333333334
1505,12.8,-488.5333333333333,-140.8
1506,12.8,-501.3333333333333,-142.93333333333334
1507,17.066666666666666,-516.2666666666667,-142.93333333333334
1508,14.933333333333334,-533.3333333333334,-140.8
1509,4.266666666666667,-550.4,-147.2
1510,10.666666666666666,-550.4,-142.93333333333334
1511,14.933333333333334,-569.6,-140.8
1512,14.933333333333334,-582.4,-138.66666666666666
1513,25.6,-590.9333333333333,-134.4
1514,27.733333333333334,-603.7333333333333,-140.8
1515,21.333333333333332,-597.3333333333334,-140.8
1516,21.333333333333332,-590.9333333333333,-138.66666666666666
1517,23.466666666666665,-584.5333333333333,-136.53333333333333
1518,25.6,-580.2666666666667,-130.13333333333333
1519,27.733333333333334,-573.8666666666667,-130.13333333333333
1520,32.0,-563.2,-128.0
1521,32.0,-550.4,-119.46666666666667
1522,32.0,-539.7333333333333,-119.46666666666667
1523,23.466666666666665,-520.5333333333333,-100.26666666666667
1524,32.0,-520.5333333333333,-87.46666666666667
1525,21.333333333333332,-509.8666666666667,-81.06666666666666
1526,19.2,-497.06666666666666,-70.4
1527,19.2,-482.1333333333333,-61.86666666666667
1528,19.2,-475.73333333333335,-49.06666666666666
1529,19.2,-471.46666666666664,-51.2
1530,27.733333333333334,-454.4,-42.666666666666664
1531,23.466666666666665,-445.8666666666667,-57.6
1532,21.333333333333332,-448.0,-44.8
1533,19.2,-441.59999999999997,-40.53333333333333
1534,25.6,-437.3333333333333,-51.2
1535,17.066666666666666,-439.46666666666664,-49.06666666666666
1536,21.333333333333332,-439.46666666666664,-51.2
1537,17.066666666666666,-441.59999999999997,-51.2
1538,14.933333333333334,-452.26666666666665,-61.86666666666667
1539,19.2,-471.46666666666664,-72.53333333333333
1540,10.666666666666666,-477.8666666666667,-68.26666666666667
1541,17.066666666666666,-486.4,-81.06666666666666
1542,6.4,-499.2,-89.6
1543,4.266666666666667,-524.8,-93.86666666666666
1544,10.666666666666666,-529.0666666666666,-119.46666666666667
1545,4.266666666666667,-548.2666666666667,-100.26666666666667
1546,8.533333333333333,-556.8,-104.53333333333333
1547,2.1333333333333333,-563.2,-113.06666666666666
1548,2.1333333333333333,-573.8666666666667,-117.33333333333333
1549,8.533333333333333,-582.4,-119.46666666666667
1550,17.066666666666666,-584.5333333333333,-125.86666666666666
1551,6.4,-582.4,-125.86666666666666
1552,6.4,-576.0,-128.0
1553,6.4,-569.6,-132.26666666666665
1554,10.666666666666666,-563.2,-132.26666666666665
1555,14.933333333333334,-565.3333333333334,-121.6
1556,8.533333333333333,-561.0666666666666,-149.33333333333334
1557,19.2,-548.2666666666667,-115.2
1558,34.13333333333333,-537.6,-113.06666666666666
1559,27.733333333333334,-531.2,-104.53333333333333
1560,32.0,-524.8,-89.6
1561,23.466666666666665,-518.4,-96.0
1562,21.333333333333332,-518.4,-83.2
1563,21.333333333333332,-509.8666666666667,-74.66666666666667
1564,23.466666666666665,-516.2666666666667,-76.8
1565,12.8,-516.2666666666667,-70.4
1566,8.533333333333333,-507.73333333333335,-70.4
1567,12.8,-516.2666666666667,-66.13333333333333
1568,6.4,-512.0,-64.0
1569,8.533333333333333,-509.8666666666667,-59.733333333333334
1570,8.533333333333333,-509.8666666666667,-66.13333333333333
1571,6.4,-503.46666666666664,-70.4
1572,2.1333333333333333,-505.59999999999997,-61.86666666666667
1573,2.1333333333333333,-503.46666666666664,-59.733333333333334
1574,4.266666666666667,-497.06666666666666,-64.0
1575,8.533333333333333,-501.3333333333333,-68.26666666666667
1576,4.266666666666667,-509.8666666666667,-78.93333333333334
1577,14.933333333333334,-505.59999999999997,-76.8
1578,12.8,-505.59999999999997,-78.93333333333334
1579,8.533333333333333,-509.8666666666667,-78.93333333333334
1580,12.8,-512.0,-81.06666666666666
1581,14.933333333333334,-514.1333333333333,-81.06666666666666
1582,19.2,-520.5333333333333,-78.93333333333334
1583,17.066666666666666,-524.8,-72.53333333333333
1584,25.6,-535.4666666666667,-81.06666666666666
1585,17.066666666666666,-529.0666666666666,-68.26666666666667
1586,17.066666666666666,-541.8666666666667,-70.4
1587,23.466666666666665,-537.6,-74.66666666666667
1588,21.333333333333332,-537.6,-68.26666666666667
1589,23.466666666666665,-541.8666666666667,-72.53333333333333
1590,21.333333333333332,-541.8666666666667,-72.53333333333333
1591,19.2,-546.1333333333333,-70.4
1592,23.466666666666665,-537.6,-72.53333333333333
1593,14.933333333333334,-539.7333333333333,-74.66666666666667
1594,27.733333333333334,-537.6,-76.8
1595,19.2,-533.3333333333334,-70.4
1596,19.2,-531.2,-72.53333333333333
1597,21.333333333333332,-529.0666666666666,-70.4
1598,23.466666666666665,-529.0666666666666,-68.26666666666667
1599,27.733333333333334,-520.5333333333333,-74.66666666666667
1600,14.933333333333334,-522.6666666666666,-66.13333333333333
1601,12.8,-522.6666666666666,-59.733333333333334
1602,14.933333333333334,-522.6666666666666,-59.733333333333334
1603,12.8,-526.9333333333333,-57.6
1604,8.533333333333333,-518.4,-55.46666666666667
1605,10.666666666666666,-514.1333333333333,-55.46666666666667
1606,4.266666666666667,-518.4,-46.93333333333333
1607,19.2,-520.5333333333333,-53.333333333333336
1608,10.666666666666666,-520.5333333333333,-42.666666666666664
1609,12.8,-522.6666666666666,-38.4
1610,12.8,-522.6666666666666,-49.06666666666666
1611,8.533333333333333,-522.6666666666666,-46.93333333333333
1612,6.4,-516.2666666666667,-44.8
1613,12.8,-524.8,-44.8
1614,8.533333333333333,-520.5333333333333,-55.46666666666667
1615,12.8,-518.4,-51.2
1616,12.8,-520.5333333333333,-44.8
1617,19.2,-516.2666666666667,-49.06666666666666
1618,12.8,-514.1333333333333,-55.46666666666667
1619,19.2,-524.8,-53.333333333333336
1620,12.8,-524.8,-61.86666666666667
1621,12.8,-524.8,-59.733333333333334
1622,19.2,-524.8,-59.733333333333334
1623,17.066666666666666,-533.3333333333334,-55.46666666666667
1624,12.8,-533.3333333333334,-64.0
1625,19.2,-531.2,-64.0
1626,12.8,-535.4666666666667,-59.733333333333334
1627,25.6,-541.8666666666667,-55.46666666666667
1628,14.933333333333334,-533.3333333333334,-59.733333333333334
1629,17.066666666666666,-539.7333333333333,-57.6
1630,2.1333333333333333,-550.4,-38.4
1631,23.466666666666665,-531.2,-55.46666666666667
1632,17.066666666666666,-537.6,-49.06666666666666
1633,23.466666666666665,-526.9333333333333,-53.333333333333336
1634,23.466666666666665,-533.3333333333334,-44.8
1635,17.066666666666666,-524.8,-40.53333333333333
1636,19.2,-522.6666666666666,-44.8
1637,21.333333333333332,-514.1333333333333,-38.4
1638,25.6,-524.8,-44.8
1639,25.6,-524.8,-34.13333333333333
1640,8.533333333333333,-544.0,-38.4
1641,21.333333333333332,-526.9333333333333,-40.53333333333333
1642,25.6,-526.9333333333333,-38.4
1643,23.466666666666665,-535.4666666666667,-44.8
1644,21.333333333333332,-533.3333333333334,-29.866666666666667
1645,21.333333333333332,-524.8,-46.93333333333333
1646,19.2,-529.0666666666666,-38.4
1647,17.066666666666666,-522.6666666666666,-40.53333333333333
1648,17.066666666666666,-526.9333333333333,-42.666666666666664
1649,21.333333333333332,-533.3333333333334,-49.06666666666666
1650,23.466666666666665,-529.0666666666666,-51.2
1651,19.2,-526.9333333333333,-57.6
1652,21.333333333333332,-526.9333333333333,-51.2
1653,23.466666666666665,-531.2,-49.06666666666666
1654,19.2,-526.9333333333333,-51.2
1655,19.2,-524.8,-53.333333333333336
1656,19.2,-522.6666666666666,-42.666666666666664
1657,19.2,-529.0666666666666,-49.06666666666666
1658,14.933333333333334,-522.6666666666666,-55.46666666666667
1659,12.8,-526.9333333333333,-51.2
1660,14.933333333333334,-524.8,-53.333333333333336
1661,10.666666666666666,-529.0666666666666,-49.06666666666666
1662,19.2,-529.0666666666666,-44.8
1663,14.933333333333334,-522.6666666666666,-49.06666666666666
1664,6.4,-529.0666666666666,-51.2
1665,8.533333333333333,-524.8,-53.333333333333336
1666,10.666666666666666,-524.8,-51.2
1667,10.666666666666666,-520.5333333333333,-55.46666666666667
1668,12.8,-524.8,-51.2
1669,10.666666666666666,-529.0666666666666,-46.93333333333333
1670,4.266666666666667,-529.0666666666666,-42.666666666666664
1671,8.533333333333333,-535.4666666666667,-44.8
1672,6.4,-529.0666666666666,-42.666666666666664
1673,4.266666666666667,-529.0666666666666,-49.06666666666666
1674,4.266666666666667,-529.0666666666666,-55.46666666666667
1675,10.666666666666666,-537.6,-51.2
1676,14.933333333333334,-533.3333333333334,-49.06666666666666
1677,8.533333333333333,-533.3333333333334,-53.333333333333336
1678,12.8,-535.4666666666667,-53.333333333333336
1679,8.533333333333333,-533.3333333333334,-46.93333333333333
1680,8.533333333333333,-535.4666666666667,-38.4
1681,8.533333333333333,-533.3333333333334,-55.46666666666667
1682,6.4,-531.2,-44.8
1683,10.666666666666666,-535.4666666666667,-44.8
1684,10.666666666666666,-529.0666666666666,-42.666666666666664
1685,6.4,-522.6666666666666,-38.4
1686,10.666666666666666,-529.0666666666666,-44.8
1687,6.4,-520.5333333333333,-44.8
1688,12.8,-522.6666666666666,-36.266666666666666
1689,10.666666666666666,-524.8,-44.8
1690,8.533333333333333,-526.9333333333333,-40.53333333333333
1691,10.666666666666666,-524.8,-44.8
1692,10.666666666666666,-524.8,-36.266666666666666
1693,6.4,-520.5333333333333,-40.53333333333333
1694,14.933333333333334,-526.9333333333333,-44.8
1695,10.666666666666666,-531.2,-42.666666666666664
1696,10.666666666666666,-526.9333333333333,-42.666666666666664
1697,10.666666666666666,-537.6,-40.53333333333333
1698,14.933333333333334,-531.2,-46.93333333333333
1699,17.066666666666666,-533.3333333333334,-55.46666666666667
1700,14.933333333333334,-526.9333333333333,-51.2
1701,6.4,-522.6666666666666,-51.2
1702,8.533333333333333,-526.9333333333333,-49.06666666666666
1703,14.933333333333334,-524.8,-55.46666666666667
1704,17.066666666666666,-533.3333333333334,-59.733333333333334
1705,14.933333333333334,-535.4666666666667,-59.733333333333334
1706,21.333333333333332,-531.2,-61.86666666666667
1707,21.333333333333332,-531.2,-64.0
1708,21.333333333333332,-539.7333333333333,-64.0
1709,10.666666666666666,-529.0666666666666,-64.0
1710,14.933333333333334,-533.3333333333334,-59.733333333333334
1711,17.066666666666666,-533.3333333333334,-61.86666666666667
1712,19.2,-535.4666666666667,-53.333333333333336
1713,23.466666666666665,-533.3333333333334,-57.6
1714,19.2,-526.9333333333333,-46.93333333333333
1715,19.2,-514.1333333333333,-38.4
1716,19.2,-535.4666666666667,-64.0
1717,14.933333333333334,-535.4666666666667,-57.6
1718,17.066666666666666,-526.9333333333333,-59.733333333333334
1719,25.6,-524.8,-57.6
1720,21.333333333333332,-522.6666666666666,-59.733333333333334
1721,23.466666666666665,-524.8,-57.6
1722,17.066666666666666,-520.5333333333333,-53.333333333333336
1723,29.866666666666667,-524.8,-53.333333333333336
1724,23.466666666666665,-524.8,-57.6
1725,21.333333333333332,-526.9333333333333,-55.46666666666667
1726,17.066666666666666,-524.8,-49.06666666666666
1727,34.13333333333333,-535.4666666666667,-49.06666666666666
1728,17.066666666666666,-524.8,-49.06666666666666
1729,10.666666666666666,-531.2,-55.46666666666667
1730,19.2,-531.2,-59.733333333333334
1731,14.933333333333334,-529.0666666666666,-55.46666666666667
1732,21.333333333333332,-531.2,-44.8
1733,19.2,-535.4666666666667,-51.2
1734,14.933333333333334,-529.0666666666666,-53.333333333333336
1735,17.066666666666666,-533.3333333333334,-57.6
1736,14.933333333333334,-535.4666666666667,-61.86666666666667
1737,14.933333333333334,-524.8,-57.6
1738,12.8,-529.0666666666666,-61.86666666666667
1739,19.2,-526.9333333333333,-59.733333333333334
1740,10.666666666666666,-522.6666666666666,-61.86666666666667
1741,21.333333333333332,-526.9333333333333,-59.733333333333334
1742,14.933333333333334,-522.6666666666666,-51.2
1743,17.066666666666666,-531.2,-66.13333333333333
1744,14.933333333333334,-524.8,-64.0
1745,17.066666666666666,-524.8,-61.86666666666667
1746,12.8,-524.8,-61.86666666666667
1747,14.933333333333334,-526.9333333333333,-57.6
1748,12.8,-518.4,-61.86666666666667
1749,17.066666666666666,-520.5333333333333,-59.733333333333334
1750,12.8,-531.2,-59.733333333333334
1751,17.066666666666666,-520.5333333333333,-64.0
1752,6.4,-529.0666666666666,-70.4
1753,14.933333333333334,-520.5333333333333,-55.46666666666667
1754,8.533333333333333,-524.8,-57.6
1755,12.8,-529.0666666666666,-64.0
1756,10.666666666666666,-529.0666666666666,-72.53333333333333
1757,17.066666666666666,-526.9333333333333,-68.26666666666667
1758,4.266666666666667,-526.9333333333333,-70.4
1759,12.8,-531.2,-72.53333333333333
1760,8.533333333333333,-522.6666666666666,-61.86666666666667
1761,8.533333333333333,-524.8,-72.53333333333333
1762,10.666666666666666,-526.9333333333333,-64.0
1763,10.666666666666666,-524.8,-66.13333333333333
1764,8.533333333333333,-520.5333333333333,-70.4
1765,12.8,-522.6666666666666,-64.0
1766,14.933333333333334,-526.9333333333333,-64.0
1767,8.533333333333333,-526.9333333333333,-57.6
1768,6.4,-524.8,-68.26666666666667
1769,6.4,-533.3333333333334,-55.46666666666667
1770,8.533333333333333,-524.8,-66.13333333333333
1771,8.533333333333333,-529.0666666666666,-64.0
1772,2.1333333333333333,-531.2,-59.733333333333334
1773,6.4,-526.9333333333333,-55.46666666666667
1774,10.666666666666666,-529.0666666666666,-51.2
1775,4.266666666666667,-524.8,-57.6
1776,0.0,-526.9333333333333,-61.86666666666667
1777,12.8,-524.8,-66.13333333333333
1778,10.666666666666666,-524.8,-59.733333333333334
1779,4.266666666666667,-526.9333333333333,-64.0
1780,6.4,-520.5333333333333,-59.733333333333334
1781,8.533333333333333,-524.8,-64.0
1782,6.4,-526.9333333333333,-59.733333333333334
1783,4.266666666666667,-526.9333333333333,-61.86666666666667
1784,4.266666666666667,-537.6,-57.6
1785,4.266666666666667,-533.3333333333334,-66.13333333333333
1786,6.4,-533.3333333333334,-61.86666666666667
1787,4.266666666666667,-531.2,-51.2
1788,4.266666666666667,-535.4666666666667,-64.0
1789,8.533333333333333,-533.3333333333334,-55.46666666666667
1790,12.8,-537.6,-44.8
1791,8.533333333333333,-526.9333333333333,-72.53333333333333
1792,6.4,-526.9333333333333,-64.0
1793,10.666666666666666,-531.2,-61.86666666666667
1794,14.933333333333334,-529.0666666666666,-74.66666666666667
1795,8.533333333333333,-526.9333333333333,-74.66666666666667
1796,4.266666666666667,-522.6666666666666,-66.13333333333333
1797,4.266666666666667,-522.6666666666666,-66.13333333333333
1798,8.533333333333333,-524.8,-68.26666666666667
1799,4.266666666666667,-533.3333333333334,-70.4
1800,6.4,-526.9333333333333,-68.26666666666667
1801,12.8,-535.4666666666667,-61.86666666666667
1802,6.4,-533.3333333333334,-72.53333333333333
1803,-2.1333333333333333,-531.2,-72.53333333333333
1804,10.666666666666666,-531.2,-72.53333333333333
1805,8.533333333333333,-529.0666666666666,-72.53333333333333
1806,2.1333333333333333,-537.6,-70.4
1807,10.666666666666666,-535.4666666666667,-70.4
1808,14.933333333333334,-529.0666666666666,-68.26666666666667
1809,12.8,-524.8,-72.53333333333333
1810,6.4,-518.4,-70.4
1811,4.266666666666667,-522.6666666666666,-61.86666666666667
1812,8.533333333333333,-520.5333333333333,-74.66666666666667
1813,12.8,-522.6666666666666,-72.53333333333333
1814,8.533333333333333,-524.8,-68.26666666666667
1815,8.533333333333333,-518.4,-61.86666666666667
1816,10.666666666666666,-522.6666666666666,-61.86666666666667
1817,10.666666666666666,-520.5333333333333,-64.0
1818,8.533333333333333,-522.6666666666666,-64.0
1819,8.533333333333333,-518.4,-57.6
1820,12.8,-522.6666666666666,-55.46666666666667
1821,6.4,-520.5333333333333,-66.13333333333333
1822,10.666666666666666,-526.9333333333333,-64.0
1823,12.8,-522.6666666666666,-61.86666666666667
1824,10.666666666666666,-522.6666666666666,-64.0
1825,10.666666666666666,-518.4,-70.4
1826,14.933333333333334,-522.6666666666666,-61.86666666666667
1827,8.533333333333333,-524.8,-61.86666666666667
1828,8.533333333333333,-520.5333333333333,-68.26666666666667
1829,14.933333333333334,-529.0666666666666,-70.4
1830,10.666666666666666,-520.5333333333333,-59.733333333333334
1831,12.8,-531.2,-68.26666666666667
1832,6.4,-522.6666666666666,-64.0
1833,10.666666666666666,-524.8,-64.0
1834,12.8,-533.3333333333334,-70.4
1835,10.666666666666666,-522.6666666666666,-64.0
1836,8.533333333333333,-524.8,-64.0
1837,17.066666666666666,-522.6666666666666,-70.4
1838,8.533333333333333,-518.4,-66.13333333333333
1839,12.8,-526.9333333333333,-72.53333333333333
1840,12.8,-524.8,-72.53333333333333
1841,10.666666666666666,-526.9333333333333,-76.8
1842,6.4,-524.8,-70.4
1843,10.666666666666666,-533.3333333333334,-72.53333333333333
1844,12.8,-533.3333333333334,-76.8
1845,8.533333333333333,-533.3333333333334,-70.4
1846,12.8,-524.8,-70.4
1847,6.4,-529.0666666666666,-68.26666666666667
1848,12.8,-529.0666666666666,-61.86666666666667
1849,8.533333333333333,-533.3333333333334,-66.13333333333333
1850,14.933333333333334,-522.6666666666666,-61.86666666666667
1851,8.533333333333333,-522.6666666666666,-68.26666666666667
1852,4.266666666666667,-518.4,-64.0
1853,8.533333333333333,-524.8,-64.0
1854,8.533333333333333,-514.1333333333333,-64.0
1855,6.4,-520.5333333333333,-55.46666666666667
1856,4.266666666666667,-516.2666666666667,-64.0
1857,10.666666666666666,-518.4,-68.26666666666667
1858,8.533333333333333,-522.6666666666666,-57.6
1859,8.533333333333333,-520.5333333333333,-72.53333333333333
1860,12.8,-524.8,-70.4
1861,14.933333333333334,-522.6666666666666,-66.13333333333333
1862,6.4,-520.5333333333333,-64.0
1863,8.533333333333333,-522.6666666666666,-59.733333333333334
1864,10.666666666666666,-531.2,-64.0
1865,6.4,-524.8,-59.733333333333334
1866,10.666666666666666,-529.0666666666666,-68.26666666666667
1867,6.4,-529.0666666666666,-68.26666666666667
1868,6.4,-529.0666666666666,-66.13333333333333
1869,12.8,-531.2,-70.4
1870,12.8,-529.0666666666666,-59.733333333333334
1871,14.933333333333334,-533.3333333333334,-72.53333333333333
1872,8.533333333333333,-524.8,-68.26666666666667
1873,6.4,-524.8,-68.26666666666667
1874,14.933333333333334,-526.9333333333333,-72.53333333333333
1875,17.066666666666666,-526.9333333333333,-66.13333333333333
1876,12.8,-526.9333333333333,-70.4
1877,14.933333333333334,-518.4,-74.66666666666667
1878,8.533333333333333,-520.5333333333333,-72.53333333333333
1879,17.066666666666666,-524.8,-68.26666666666667
1880,4.266666666666667,-522.6666666666666,-64.0
1881,10.666666666666666,-533.3333333333334,-70.4
1882,10.666666666666666,-520.5333333333333,-61.86666666666667
1883,10.666666666666666,-524.8,-66.13333333333333
1884,8.533333333333333,-524.8,-68.26666666666667
1885,6.4,-520.5333333333333,-59.733333333333334
1886,10.666666666666666,-512.0,-68.26666666666667
1887,10.666666666666666,-524.8,-64.0
1888,6.4,-522.6666666666666,-76.8
1889,8.533333333333333,-526.9333333333333,-68.26666666666667
1890,6.4,-526.9333333333333,-68.26666666666667
1891,6.4,-537.6,-68.26666666666667
1892,12.8,-526.9333333333333,-68.26666666666667
1893,14.933333333333334,-531.2,-68.26666666666667
1894,4.266666666666667,-533.3333333333334,-66.13333333333333
1895,8.533333333333333,-531.2,-68.26666666666667
1896,10.666666666666666,-531.2,-66.13333333333333
1897,10.666666666666666,-529.0666666666666,-68.26666666666667
1898,10.666666666666666,-554.6666666666666,-78.93333333333334
1899,6.4,-526.9333333333333,-57.6
1900,4.266666666666667,-524.8,-64.0
1901,10.666666666666666,-535.4666666666667,-70.4
1902,10.666666666666666,-535.4666666666667,-72.53333333333333
1903,4.266666666666667,-531.2,-72.53333333333333
1904,12.8,-531.2,-64.0
1905,8.533333333333333,-526.9333333333333,-61.86666666666667
1906,14.933333333333334,-533.3333333333334,-66.13333333333333
1907,10.666666666666666,-522.6666666666666,-64.0
1908,10.666666666666666,-522.6666666666666,-68.26666666666667
1909,8.533333333333333,-516.2666666666667,-72.53333333333333
1910,12.8,-520.5333333333333,-68.26666666666667
1911,19.2,-522.6666666666666,-72.53333333333333
1912,12.8,-522.6666666666666,-72.53333333333333
1913,10.666666666666666,-524.8,-70.4
1914,8.533333333333333,-522.6666666666666,-72.53333333333333
1915,17.066666666666666,-535.4666666666667,-68.26666666666667
1916,10.666666666666666,-531.2,-64.0
1917,21.333333333333332,-526.9333333333333,-70.4
1918,10.666666666666666,-531.2,-72.53333333333333
1919,12.8,-531.2,-70.4
1920,12.8,-529.0666666666666,-64.0
1921,14.933333333333334,-531.2,-70.4
1922,12.8,-529.0666666666666,-64.0
1923,8.533333333333333,-526.9333333333333,-70.4
1924,23.466666666666665,-529.0666666666666,-76.8
1925,14.933333333333334,-531.2,-66.13333333333333
1926,12.8,-522.6666666666666,-66.13333333333333
1927,12.8,-529.0666666666666,-66.13333333333333
1928,12.8,-531.2,-70.4
1929,19.2,-529.0666666666666,-57.6
1930,14.933333333333334,-533.3333333333334,-66.13333333333333
1931,14.933333333333334,-526.9333333333333,-57.6
1932,10.666666666666666,-529.0666666666666,-59.733333333333334
1933,12.8,-524.8,-61.86666666666667
1934,17.066666666666666,-529.0666666666666,-64.0
1935,14.933333333333334,-529.0666666666666,-59.733333333333334
1936,17.066666666666666,-524.8,-61.86666666666667
1937,21.333333333333332,-522.6666666666666,-61.86666666666667
1938,14.933333333333334,-518.4,-59.733333333333334
1939,21.333333333333332,-518.4,-66.13333333333333
1940,21.333333333333332,-516.2666666666667,-64.0
1941,12.8,-526.9333333333333,-59.733333333333334
1942,14.933333333333334,-520.5333333333333,-59.733333333333334
1943,12.8,-522.6666666666666,-51.2
1944,14.933333333333334,-522.6666666666666,-61.86666666666667
1945,14.933333333333334,-522.6666666666666,-61.86666666666667
1946,21.333333333333332,-524.8,-64.0
1947,17.066666666666666,-524.8,-53.333333333333336
1948,8.533333333333333,-524.8,-55.46666666666667
1949,12.8,-524.8,-53.333333333333336
1950,14.933333333333334,-533.3333333333334,-66.13333333333333
1951,14.933333333333334,-524.8,-57.6
1952,10.666666666666666,-526.9333333333333,-61.86666666666667
1953,8.533333333333333,-520.5333333333333,-57.6
1954,17.066666666666666,-529.0666666666666,-59.733333333333334
1955,12.8,-531.2,-64.0
1956,14.933333333333334,-529.0666666666666,-57.6
1957,14.933333333333334,-529.0666666666666,-64.0
1958,14.933333333333334,-535.4666666666667,-59.733333333333334
1959,17.066666666666666,-522.6666666666666,-59.733333333333334
1960,19.2,-524.8,-61.86666666666667
1961,21.333333333333332,-526.9333333333333,-51.2
1962,14.933333333333334,-520.5333333333333,-53.333333333333336
1963,19.2,-522.6666666666666,-49.06666666666666
1964,14.933333333333334,-526.9333333333333,-57.6
1965,12.8,-522.6666666666666,-68.26666666666667
1966,14.933333333333334,-522.6666666666666,-53.333333333333336
1967,8.533333333333333,-520.5333333333333,-59.733333333333334
1968,10.666666666666666,-520.5333333333333,-59.733333333333334
1969,17.066666666666666,-531.2,-51.2
1970,12.8,-529.0666666666666,-49.06666666666666
1971,12.8,-526.9333333333333,-57.6
1972,14.933333333333334,-533.3333333333334,-49.06666666666666
1973,8.533333333333333,-529.0666666666666,-53.333333333333336
1974,17.066666666666666,-529.0666666666666,-51.2
1975,12.8,-531.2,-51.2
1976,12.8,-529.0666666666666,-46.93333333333333
1977,14.933333333333334,-535.4666666666667,-51.2
1978,17.066666666666666,-531.2,-46.93333333333333
1979,10.666666666666666,-535.4666666666667,-51.2
1980,19.2,-526.9333333333333,-49.06666666666666
1981,14.933333333333334,-531.2,-49.06666666666666
1982,10.666666666666666,-518.4,-66.13333333333333
1983,19.2,-529.0666666666666,-49.06666666666666
1984,12.8,-522.6666666666666,-46.93333333333333
1985,10.666666666666666,-526.9333333333333,-49.06666666666666
1986,17.066666666666666,-535.4666666666667,-51.2
1987,10.666666666666666,-524.8,-61.86666666666667
1988,17.066666666666666,-522.6666666666666,-46.93333333333333
1989,10.666666666666666,-522.6666666666666,-53.333333333333336
1990,10.666666666666666,-522.6666666666666,-53.333333333333336
1991,14.933333333333334,-526.9333333333333,-57.6
1992,10.666666666666666,-526.9333333333333,-55.46666666666667
1993,12.8,-531.2,-46.93333333333333
1994,10.666666666666666,-533.3333333333334,-57.6
1995,12.8,-531.2,-44.8
1996,12.8,-531.2,-55.46666666666667
1997,19.2,-531.2,-51.2
1998,10.666666666666666,-529.0666666666666,-64.0
1999,10.666666666666666,-535.4666666666667,-49.06666666666666
2000,10.666666666666666,-533.3333333333334,-42.666666666666664
2001,21.333333333333332,-531.2,-46.93333333333333
2002,14.933333333333334,-529.0666666666666,-46.93333333333333
2003,10.666666666666666,-524.8,-46.93333333333333
2004,14.933333333333334,-526.9333333333333,-46.93333333333333
2005,10.666666666666666,-533.3333333333334,-53.333333333333336
2006,17.066666666666666,-529.0666666666666,-59.733333333333334
2007,14.933333333333334,-537.6,-57.6
2008,14.933333333333334,-533.3333333333334,-53.333333333333336
2009,10.666666666666666,-529.0666666666666,-57.6
2010,14.933333333333334,-529.0666666666666,-49.06666666666666
2011,14.933333333333334,-526.9333333333333,-49.06666666666666
2012,17.066666666666666,-535.4666666666667,-49.06666666666666
2013,10.666666666666666,-533.3333333333334,-49.06666666666666
2014,14.933333333333334,-531.2,-42.666666666666664
2015,14.933333333333334,-531.2,-42.666666666666664
2016,14.933333333333334,-529.0666666666666,-42.666666666666664
2017,14.933333333333334,-526.9333333333333,-44.8
2018,10.666666666666666,-524.8,-40.53333333333333
2019,10.666666666666666,-524.8,-46.93333333333333
2020,14.933333333333334,-529.0666666666666,-40.53333333333333
2021,10.666666666666666,-529.0666666666666,-42.666666666666664
2022,17.066666666666666,-529.0666666666666,-44.8
2023,12.8,-529.0666666666666,-38.4
2024,10.666666666666666,-526.9333333333333,-46.93333333333333
2025,8.533333333333333,-522.6666666666666,-38.4
2026,17.066666666666666,-522.6666666666666,-51.2
2027,10.666666666666666,-524.8,-40.53333333333333
2028,10.666666666666666,-522.6666666666666,-36.266666666666666
2029,8.533333333333333,-522.6666666666666,-38.4
2030,17.066666666666666,-531.2,-44.8
2031,12.8,-526.9333333333333,-46.93333333333333
2032,8.533333333333333,-529.0666666666666,-46.93333333333333
2033,12.8,-529.0666666666666,-38.4
2034,14.933333333333334,-522.6666666666666,-44.8
2035,17.066666666666666,-522.6666666666666,-46.93333333333333
2036,19.2,-526.9333333333333,-42.666666666666664
2037,21.333333333333332,-531.2,-55.46666666666667
2038,23.466666666666665,-531.2,-46.93333333333333
2039,12.8,-526.9333333333333,-42.666666666666664
2040,14.933333333333334,-535.4666666666667,-46.93333333333333
2041,17.066666666666666,-531.2,-44.8
2042,19.2,-531.2,-46.93333333333333
2043,17.066666666666666,-531.2,-44.8
2044,17.066666666666666,-529.0666666666666,-49.06666666666666
2045,21.333333333333332,-526.9333333333333,-49.06666666666666
2046,14.933333333333334,-526.9333333333333,-42.666666666666664
2047,19.2,-531.2,-42.666666666666664
2048,19.2,-522.6666666666666,-49.06666666666666
2049,14.933333333333334,-529.0666666666666,-46.93333333333333
2050,14.933333333333334,-524.8,-44.8
2051,14.933333333333334,-529.0666666666666,-49.06666666666666
2052,19.2,-529.0666666666666,-46.93333333333333
2053,14.933333333333334,-531.2,-57.6
2054,17.066666666666666,-526.9333333333333,-38.4
2055,21.333333333333332,-533.3333333333334,-42.666666666666664
2056,12.8,-524.8,-46.93333333333333
2057,17.066666666666666,-539.7333333333333,-42.666666666666664
2058,19.2,-524.8,-38.4
2059,14.933333333333334,-524.8,-38.4
2060,12.8,-526.9333333333333,-40.53333333333333
2061,19.2,-526.9333333333333,-38.4
2062,12.8,-529.0666666666666,-42.666666666666664
2063,19.2,-526.9333333333333,-40.53333333333333
2064,12.8,-524.8,-42.666666666666664
2065,12.8,-526.9333333333333,-29.866666666666667
2066,14.933333333333334,-522.6666666666666,-29.866666666666667
2067,32.0,-522.6666666666666,-36.266666666666666
2068,32.0,-544.0,-29.866666666666667
2069,14.933333333333334,-526.9333333333333,-42.666666666666664
2070,14.933333333333334,-526.9333333333333,-34.13333333333333
2071,17.066666666666666,-529.0666666666666,-36.266666666666666
2072,14.933333333333334,-531.2,-40.53333333333333
2073,14.933333333333334,-524.8,-38.4
2074,17.066666666666666,-524.8,-44.8
2075,14.933333333333334,-524.8,-49.06666666666666
2076,10.666666666666666,-520.5333333333333,-38.4
2077,19.2,-522.6666666666666,-42.666666666666664
2078,14.933333333333334,-526.9333333333333,-46.93333333333333
2079,19.2,-533.3333333333334,-49.06666666666666
2080,12.8,-526.9333333333333,-53.333333333333336
2081,14.933333333333334,-533.3333333333334,-38.4
2082,17.066666666666666,-531.2,-36.266666666666666
2083,12.8,-529.0666666666666,-44.8
2084,17.066666666666666,-535.4666666666667,-40.53333333333333
2085,14.933333333333334,-535.4666666666667,-38.4
2086,8.533333333333333,-529.0666666666666,-46.93333333333333
2087,8.533333333333333,-537.6,-40.53333333333333
2088,19.2,-535.4666666666667,-36.266666666666666
2089,10.666666666666666,-529.0666666666666,-40.53333333333333
2090,12.8,-533.3333333333334,-36.266666666666666
2091,17.066666666666666,-533.3333333333334,-42.666666666666664
2092,17.066666666666666,-526.9333333333333,-44.8
2093,14.933333333333334,-531.2,-40.53333333333333
2094,21.333333333333332,-522.6666666666666,-36.266666666666666
2095,14.933333333333334,-529.0666666666666,-36.266666666666666
2096,12.8,-526.9333333333333,-40.53333333333333
2097,21.333333333333332,-520.5333333333333,-40.53333333333333
2098,12.8,-520.5333333333333,-38.4
2099,14.933333333333334,-524.8,-40.53333333333333
2100,17.066666666666666,-524.8,-42.666666666666664
2101,14.933333333333334,-524.8,-38.4
2102,12.8,-524.8,-36.266666666666666
2103,10.666666666666666,-526.9333333333333,-36.266666666666666
2104,19.2,-524.8,-38.4
2105,19.2,-531.2,-36.266666666666666
2106,14.933333333333334,-526.9333333333333,-44.8
2107,10.666666666666666,-526.9333333333333,-40.53333333333333
2108,12.8,-533.3333333333334,-38.4
2109,6.4,-533.3333333333334,-42.666666666666664
2110,8.533333333333333,-529.0666666666666,-44.8
2111,14.933333333333334,-531.2,-42.666666666666664
2112,17.066666666666666,-524.8,-36.266666666666666
2113,10.666666666666666,-533.3333333333334,-44.8
2114,17.066666666666666,-531.2,-38.4
2115,17.066666666666666,-526.9333333333333,-36.266666666666666
2116,21.333333333333332,-529.0666666666666,-34.13333333333333
2117,10.666666666666666,-522.6666666666666,-36.266666666666666
2118,14.933333333333334,-529.0666666666666,-29.866666666666667
2119,14.933333333333334,-520.5333333333333,-32.0
2120,12.8,-524.8,-38.4
2121,12.8,-529.0666666666666,-36.266666666666666
2122,17.066666666666666,-526.9333333333333,-36.266666666666666
2123,17.066666666666666,-526.9333333333333,-34.13333333333333
2124,10.666666666666666,-522.6666666666666,-32.0
2125,12.8,-526.9333333333333,-32.0
2126,19.2,-531.2,-34.13333333333333
2127,14.933333333333334,-526.9333333333333,-27.733333333333334
2128,14.933333333333334,-529.0666666666666,-32.0
2129,19.2,-526.9333333333333,-32.0
2130,12.8,-524.8,-34.13333333333333
2131,10.666666666666666,-524.8,-38.4
2132,12.8,-522.6666666666666,-36.266666666666666
2133,12.8,-522.6666666666666,-36.266666666666666
2134,14.933333333333334,-524.8,-36.266666666666666
2135,14.933333333333334,-524.8,-32.0
2136,12.8,-520.5333333333333,-34.13333333333333
2137,17.066666666666666,-526.9333333333333,-29.866666666666667
2138,17.066666666666666,-520.5333333333333,-38.4
2139,17.066666666666666,-520.5333333333333,-49.06666666666666
2140,14.933333333333334,-526.9333333333333,-38.4
2141,14.933333333333334,-522.6666666666666,-40.53333333333333
2142,19.2,-512.0,-55.46666666666667
2143,12.8,-529.0666666666666,-32.0
2144,14.933333333333334,-518.4,-46.93333333333333
2145,17.066666666666666,-537.6,-40.53333333333333
2146,21.333333333333332,-537.6,-34.13333333333333
2147,14.933333333333334,-529.0666666666666,-36.266666666666666
2148,12.8,-529.0666666666666,-38.4
2149,14.933333333333334,-533.3333333333334,-36.266666666666666
2150,2.1333333333333333,-548.2666666666667,-51.2
2151,21.333333333333332,-539.7333333333333,-34.13333333333333
2152,17.066666666666666,-526.9333333333333,-34.13333333333333
2153,12.8,-526.9333333333333,-29.866666666666667
2154,21.333333333333332,-531.2,-49.06666666666666
2155,17.066666666666666,-535.4666666666667,-32.0
2156,21.333333333333332,-529.0666666666666,-38.4
2157,19.2,-520.5333333333333,-40.53333333333333
2158,21.333333333333332,-533.3333333333334,-40.53333333333333
2159,10.666666666666666,-524.8,-32.0
2160,12.8,-533.3333333333334,-36.266666666666666
2161,17.066666666666666,-531.2,-42.666666666666664
2162,14.933333333333334,-529.0666666666666,-38.4
2163,19.2,-533.3333333333334,-34.13333333333333
2164,14.933333333333334,-522.6666666666666,-40.53333333333333
2165,19.2,-531.2,-42.666666666666664
2166,14.933333333333334,-524.8,-36.266666666666666
2167,12.8,-526.9333333333333,-40.53333333333333
2168,19.2,-524.8,-34.13333333333333
2169,14.933333333333334,-531.2,-36.266666666666666
2170,17.066666666666666,-524.8,-40.53333333333333
2171,17.066666666666666,-531.2,-40.53333333333333
2172,14.933333333333334,-522.6666666666666,-51.2
2173,14.933333333333334,-529.0666666666666,-42.666666666666664
2174,10.666666666666666,-524.8,-42.666666666666664
2175,17.066666666666666,-526.9333333333333,-38.4
2176,12.8,-533.3333333333334,-40.53333333333333
2177,10.666666666666666,-526.9333333333333,-38.4
2178,14.933333333333334,-529.0666666666666,-42.666666666666664
2179,19.2,-533.3333333333334,-36.266666666666666
2180,6.4,-524.8,-42.666666666666664
2181,17.066666666666666,-529.0666666666666,-42.666666666666664
2182,19.2,-531.2,-44.8
2183,14.933333333333334,-537.6,-42.666666666666664
2184,21.333333333333332,-535.4666666666667,-44.8
2185,19.2,-529.0666666666666,-42.666666666666664
2186,14.933333333333334,-522.6666666666666,-36.266666666666666
2187,17.066666666666666,-526.9333333333333,-36.266666666666666
2188,19.2,-524.8,-46.93333333333333
2189,19.2,-529.0666666666666,-46.93333333333333
2190,14.933333333333334,-522.6666666666666,-42.666666666666664
2191,10.666666666666666,-529.0666666666666,-53.333333333333336
2192,10.666666666666666,-533.3333333333334,-49.06666666666666
2193,10.666666666666666,-529.0666666666666,-49.06666666666666
2194,12.8,-524.8,-42.666666666666664
2195,17.066666666666666,-524.8,-42.666666666666664
2196,14.933333333333334,-533.3333333333334,-42.666666666666664
2197,12.8,-526.9333333333333,-46.93333333333333
2198,14.933333333333334,-529.0666666666666,-44.8
2199,23.466666666666665,-533.3333333333334,-42.666666666666664
2200,19.2,-537.6,-42.666666666666664
2201,14.933333333333334,-533.3333333333334,-44.8
2202,19.2,-526.9333333333333,-42.666666666666664
2203,17.066666666666666,-529.0666666666666,-42.666666666666664
2204,14.933333333333334,-529.0666666666666,-44.8
2205,17.066666666666666,-529.0666666666666,-42.666666666666664
2206,17.066666666666666,-514.1333333333333,-40.53333333333333
2207,21.333333333333332,-524.8,-49.06666666666666
2208,10.666666666666666,-520.5333333333333,-53.333333333333336
2209,14.933333333333334,-524.8,-53.333333333333336
2210,21.333333333333332,-526.9333333333333,-44.8
2211,14.933333333333334,-526.9333333333333,-49.06666666666666
2212,14.933333333333334,-526.9333333333333,-53.333333333333336
2213,14.933333333333334,-529.0666666666666,-46.93333333333333
2214,14.933333333333334,-529.0666666666666,-61.86666666666667
2215,10.666666666666666,-524.8,-49.06666666666666
2216,12.8,-529.0666666666666,-49.06666666666666
2217,14.933333333333334,-535.4666666666667,-42.666666666666664
2218,17.066666666666666,-535.4666666666667,-51.2
2219,6.4,-526.9333333333333,-42.666666666666664
2220,10.666666666666666,-529.0666666666666,-49.06666666666666
2221,19.2,-539.7333333333333,-49.06666666666666
2222,10.666666666666666,-526.9333333333333,-38.4
2223,14.933333333333334,-533.3333333333334,-46.93333333333333
2224,8.533333333333333,-524.8,-44.8
2225,12.8,-526.9333333333333,-40.53333333333333
2226,12.8,-526.9333333333333,-46.93333333333333
2227,8.533333333333333,-529.0666666666666,-46.93333333333333
2228,17.066666666666666,-522.6666666666666,-51.2
2229,19.2,-526.9333333333333,-44.8
2230,19.2,-520.5333333333333,-49.06666666666666
2231,21.333333333333332,-531.2,-46.93333333333333
2232,19.2,-533.3333333333334,-51.2
2233,17.066666666666666,-522.6666666666666,-51.2
2234,17.066666666666666,-526.9333333333333,-53.333333333333336
2235,19.2,-529.0666666666666,-49.06666666666666
2236,8.533333333333333,-531.2,-55.46666666666667
2237,12.8,-526.9333333333333,-51.2
2238,17.066666666666666,-522.6666666666666,-59.733333333333334
2239,14.933333333333334,-524.8,-46.93333333333333
2240,10.666666666666666,-529.0666666666666,-49.06666666666666
2241,10.666666666666666,-533.3333333333334,-46.93333333333333
2242,17.066666666666666,-531.2,-53.333333333333336
2243,12.8,-533.3333333333334,-49.06666666666666
2244,10.666666666666666,-531.2,-53.333333333333336
2245,8.533333333333333,-535.4666666666667,-55.46666666666667
2246,12.8,-531.2,-51.2
2247,8.533333333333333,-533.3333333333334,-57.6
2248,21.333333333333332,-539.7333333333333,-49.06666666666666
2249,8.533333333333333,-529.0666666666666,-57.6
2250,14.933333333333334,-537.6,-53.333333333333336
2251,14.933333333333334,-531.2,-46.93333333333333
2252,17.066666666666666,-531.2,-55.46666666666667
2253,17.066666666666666,-533.3333333333334,-49.06666666666666
2254,14.933333333333334,-526.9333333333333,-46.93333333333333
2255,19.2,-520.5333333333333,-53.333333333333336
2256,6.4,-522.6666666666666,-55.46666666666667
2257,12.8,-529.0666666666666,-61.86666666666667
2258,17.066666666666666,-524.8,-46.93333333333333
2259,12.8,-520.5333333333333,-51.2
2260,12.8,-520.5333333333333,-61.86666666666667
2261,12.8,-526.9333333333333,-59.733333333333334
2262,10.666666666666666,-522.6666666666666,-57.6
2263,10.666666666666666,-526.9333333333333,-57.6
2264,6.4,-526.9333333333333,-59.733333333333334
2265,10.666666666666666,-522.6666666666666,-57.6
2266,12.8,-526.9333333333333,-53.333333333333336
2267,8.533333333333333,-524.8,-51.2
2268,17.066666666666666,-529.0666666666666,-55.46666666666667
2269,12.8,-533.3333333333334,-51.2
2270,12.8,-524.8,-59.733333333333334
2271,14.933333333333334,-526.9333333333333,-59.733333333333334
2272,12.8,-529.0666666666666,-57.6
2273,10.666666666666666,-524.8,-61.86666666666667
2274,12.8,-522.6666666666666,-49.06666666666666
2275,14.933333333333334,-529.0666666666666,-46.93333333333333
2276,14.933333333333334,-529.0666666666666,-57.6
2277,17.066666666666666,-522.6666666666666,-49.06666666666666
2278,14.933333333333334,-522.6666666666666,-55.46666666666667
2279,19.2,-524.8,-66.13333333333333
2280,19.2,-526.9333333333333,-59.733333333333334
2281,17.066666666666666,-524.8,-61.86666666666667
2282,12.8,-531.2,-51.2
2283,17.066666666666666,-526.9333333333333,-53.333333333333336
2284,12.8,-526.9333333333333,-57.6
2285,12.8,-531.2,-61.86666666666667
2286,12.8,-526.9333333333333,-57.6
2287,12.8,-526.9333333333333,-55.46666666666667
2288,8.533333333333333,-522.6666666666666,-59.733333333333334
2289,17.066666666666666,-526.9333333333333,-59.733333333333334
2290,12.8,-520.5333333333333,-55.46666666666667
2291,17.066666666666666,-524.8,-57.6
2292,10.666666666666666,-526.9333333333333,-59.733333333333334
2293,17.066666666666666,-524.8,-57.6
2294,12.8,-518.4,-55.46666666666667
2295,8.533333333333333,-518.4,-61.86666666666667
2296,12.8,-526.9333333333333,-57.6
2297,8.533333333333333,-520.5333333333333,-53.333333333333336
2298,14.933333333333334,-522.6666666666666,-61.86666666666667
2299,10.666666666666666,-526.9333333333333,-55.46666666666667
2300,12.8,-522.6666666666666,-49.06666666666666
2301,8.533333333333333,-526.9333333333333,-53.333333333333336
2302,14.933333333333334,-524.8,-59.733333333333334
2303,17.066666666666666,-531.2,-59.733333333333334
2304,10.666666666666666,-520.5333333333333,-53.333333333333336
2305,6.4,-522.6666666666666,-61.86666666666667
2306,12.8,-533.3333333333334,-53.333333333333336
2307,12.8,-526.9333333333333,-64.0
2308,17.066666666666666,-529.0666666666666,-59.733333333333334
2309,6.4,-529.0666666666666,-59.733333333333334
2310,8.533333333333333,-531.2,-55.46666666666667
2311,17.066666666666666,-529.0666666666666,-59.733333333333334
2312,14.933333333333334,-526.9333333333333,-55.46666666666667
2313,10.666666666666666,-550.4,-49.06666666666666
2314,6.4,-522.6666666666666,-61.86666666666667
2315,6.4,-518.4,-57.6
2316,8.533333333333333,-524.8,-53.333333333333336
2317,12.8,-524.8,-57.6
2318,17.066666666666666,-526.9333333333333,-53.333333333333336
2319,21.333333333333332,-529.0666666666666,-57.6
2320,17.066666666666666,-529.0666666666666,-57.6
2321,17.066666666666666,-529.0666666666666,-59.733333333333334
2322,19.2,-526.9333333333333,-64.0
2323,14.933333333333334,-537.6,-51.2
2324,12.8,-529.0666666666666,-61.86666666666667
2325,10.666666666666666,-522.6666666666666,-51.2
2326,10.666666666666666,-533.3333333333334,-68.26666666666667
2327,12.8,-531.2,-70.4
2328,10.666666666666666,-526.9333333333333,-57.6
2329,19.2,-531.2,-66.13333333333333
2330,19.2,-526.9333333333333,-64.0
2331,8.533333333333333,-531.2,-64.0
2332,8.533333333333333,-533.3333333333334,-70.4
2333,21.333333333333332,-529.0666666666666,-57.6
2334,10.666666666666666,-524.8,-64.0
2335,19.2,-533.3333333333334,-59.733333333333334
2336,10.666666666666666,-529.0666666666666,-59.733333333333334
2337,17.066666666666666,-524.8,-64.0
2338,8.533333333333333,-526.9333333333333,-64.0
2339,14.933333333333334,-522.6666666666666,-66.13333333333333
2340,10.666666666666666,-526.9333333333333,-64.0
2341,12.8,-524.8,-64.0
2342,12.8,-524.8,-59.733333333333334
2343,14.933333333333334,-533.3333333333334,-66.13333333333333
2344,19.2,-524.8,-59.733333333333334
2345,8.533333333333333,-520.5333333333333,-61.86666666666667
2346,14.933333333333334,-524.8,-59.733333333333334
2347,12.8,-522.6666666666666,-57.6
2348,12.8,-524.8,-66.13333333333333
2349,10.666666666666666,-522.6666666666666,-53.333333333333336
2350,10.666666666666666,-529.0666666666666,-51.2
2351,8.533333333333333,-526.9333333333333,-59.733333333333334
2352,14.933333333333334,-526.9333333333333,-64.0
2353,10.666666666666666,-522.6666666666666,-53.333333333333336
2354,14.933333333333334,-531.2,-64.0
2355,17.066666666666666,-529.0666666666666,-57.6
2356,12.8,-526.9333333333333,-64.0
2357,6.4,-529.0666666666666,-61.86666666666667
2358,14.933333333333334,-529.0666666666666,-66.13333333333333
2359,17.066666666666666,-531.2,-57.6
2360,12.8,-526.9333333333333,-55.46666666666667
2361,14.933333333333334,-531.2,-59.733333333333334
2362,19.2,-537.6,-51.2
2363,19.2,-526.9333333333333,-66.13333333333333
2364,14.933333333333334,-526.9333333333333,-59.733333333333334
2365,19.2,-526.9333333333333,-64.0
2366,14.933333333333334,-524.8,-64.0
2367,19.2,-526.9333333333333,-66.13333333333333
2368,14.933333333333334,-529.0666666666666,-55.46666666666667
2369,17.066666666666666,-524.8,-49.06666666666666
2370,10.666666666666666,-520.5333333333333,-59.733333333333334
2371,8.533333333333333,-524.8,-57.6
2372,14.933333333333334,-524.8,-61.86666666666667
2373,17.066666666666666,-526.9333333333333,-61.86666666666667
2374,10.666666666666666,-522.6666666666666,-55.46666666666667
2375,10.666666666666666,-520.5333333333333,-68.26666666666667
2376,12.8,-524.8,-57.6
2377,17.066666666666666,-531.2,-59.733333333333334
2378,12.8,-529.0666666666666,-53.333333333333336
2379,10.666666666666666,-529.0666666666666,-55.46666666666667
2380,10.666666666666666,-531.2,-64.0
2381,17.066666666666666,-526.9333333333333,-68.26666666666667
2382,12.8,-531.2,-55.46666666666667
2383,19.2,-524.8,-59.733333333333334
2384,12.8,-526.9333333333333,-64.0
2385,17.066666666666666,-522.6666666666666,-59.733333333333334
2386,17.066666666666666,-524.8,-55.46666666666667
2387,17.066666666666666,-526.9333333333333,-61.86666666666667
2388,19.2,-524.8,-57.6
2389,12.8,-522.6666666666666,-57.6
2390,10.666666666666666,-522.6666666666666,-59.733333333333334
2391,10.666666666666666,-524.8,-64.0
2392,6.4,-526.9333333333333,-66.13333333333333
2393,17.066666666666666,-526.9333333333333,-55.46666666666667
2394,10.666666666666666,-529.0666666666666,-61.86666666666667
2395,14.933333333333334,-524.8,-66.13333333333333
2396,14.933333333333334,-524.8,-61.86666666666667
2397,17.066666666666666,-524.8,-61.86666666666667
2398,2.1333333333333333,-518.4,-42.666666666666664
