,accelerometerAccelerationX(G),accelerometerAccelerationY(G),accelerometerAccelerationZ(G)
0,23.466666666666665,-522.6666666666666,-149.33333333333334
1,23.466666666666665,-522.6666666666666,-151.46666666666667
2,25.6,-518.4,-155.73333333333332
3,17.066666666666666,-512.0,-151.46666666666667
4,14.933333333333334,-518.4,-155.73333333333332
5,10.666666666666666,-520.5333333333333,-147.2
6,17.066666666666666,-520.5333333333333,-155.73333333333332
7,14.933333333333334,-512.0,-153.6
8,14.933333333333334,-518.4,-147.2
9,14.933333333333334,-520.5333333333333,-153.6
10,10.666666666666666,-518.4,-157.86666666666667
11,10.666666666666666,-524.8,-160.0
12,12.8,-522.6666666666666,-160.0
13,8.533333333333333,-526.9333333333333,-164.26666666666665
14,14.933333333333334,-526.9333333333333,-162.13333333333333
15,21.333333333333332,-531.2,-155.73333333333332
16,14.933333333333334,-531.2,-168.53333333333333
17,12.8,-533.3333333333334,-162.13333333333333
18,12.8,-531.2,-164.26666666666665
19,8.533333333333333,-535.4666666666667,-160.0
20,17.066666666666666,-529.0666666666666,-162.13333333333333
21,19.2,-526.9333333333333,-164.26666666666665
22,23.466666666666665,-535.4666666666667,-168.53333333333333
23,17.066666666666666,-524.8,-162.13333333333333
24,19.2,-531.2,-160.0
25,14.933333333333334,-520.5333333333333,-164.26666666666665
26,14.933333333333334,-524.8,-162.13333333333333
27,21.333333333333332,-526.9333333333333,-153.6
28,21.333333333333332,-524.8,-160.0
29,12.8,-512.0,-155.73333333333332
30,19.2,-518.4,-160.0
31,25.6,-524.8,-155.73333333333332
32,23.466666666666665,-524.8,-160.0
33,14.933333333333334,-520.5333333333333,-162.13333333333333
34,17.066666666666666,-520.5333333333333,-153.6
35,25.6,-526.9333333333333,-155.73333333333332
36,23.466666666666665,-531.2,-157.86666666666667
37,21.333333333333332,-526.9333333333333,-162.13333333333333
38,25.6,-526.9333333333333,-149.33333333333334
39,21.333333333333332,-529.0666666666666,-151.46666666666667
40,21.333333333333332,-526.9333333333333,-149.33333333333334
41,25.6,-526.9333333333333,-157.86666666666667
42,27.733333333333334,-524.8,-149.33333333333334
43,25.6,-522.6666666666666,-147.2
44,27.733333333333334,-526.9333333333333,-151.46666666666667
45,32.0,-522.6666666666666,-149.33333333333334
46,25.6,-526.9333333333333,-149.33333333333334
47,27.733333333333334,-520.5333333333333,-149.33333333333334
48,23.466666666666665,-526.9333333333333,-147.2
49,36.266666666666666,-529.0666666666666,-155.73333333333332
50,25.6,-526.9333333333333,-153.6
51,25.6,-520.5333333333333,-157.86666666666667
52,23.466666666666665,-524.8,-147.2
53,17.066666666666666,-518.4,-160.0
54,21.333333333333332,-518.4,-140.8
55,29.866666666666667,-524.8,-155.73333333333332
56,27.733333333333334,-526.9333333333333,-145.06666666666666
57,38.4,-529.0666666666666,-153.6
58,25.6,-529.0666666666666,-149.33333333333334
59,36.266666666666666,-526.9333333333333,-162.13333333333333
60,36.266666666666666,-526.9333333333333,-162.13333333333333
61,38.4,-526.9333333333333,-168.53333333333333
62,34.13333333333333,-526.9333333333333,-166.4
63,36.266666666666666,-526.9333333333333,-168.53333333333333
64,34.13333333333333,-526.9333333333333,-162.13333333333333
65,38.4,-524.8,-164.26666666666665
66,32.0,-524.8,-166.4
67,40.53333333333333,-529.0666666666666,-164.26666666666665
68,40.53333333333333,-529.0666666666666,-160.0
69,42.666666666666664,-531.2,-170.66666666666666
70,38.4,-529.0666666666666,-166.4
71,42.666666666666664,-524.8,-168.53333333333333
72,34.13333333333333,-526.9333333333333,-166.4
73,42.666666666666664,-529.0666666666666,-172.8
74,36.266666666666666,-524.8,-172.8
75,32.0,-522.6666666666666,-168.53333333333333
76,25.6,-516.2666666666667,-170.66666666666666
77,27.733333333333334,-516.2666666666667,-166.4
78,29.866666666666667,-509.8666666666667,-162.13333333333333
79,32.0,-512.0,-162.13333333333333
80,29.866666666666667,-497.06666666666666,-162.13333333333333
81,36.266666666666666,-505.59999999999997,-166.4
82,36.266666666666666,-497.06666666666666,-162.13333333333333
83,40.53333333333333,-512.0,-162.13333333333333
84,32.0,-503.46666666666664,-160.0
85,29.866666666666667,-503.46666666666664,-155.73333333333332
86,40.53333333333333,-516.2666666666667,-166.4
87,44.8,-518.4,-168.53333333333333
88,42.666666666666664,-520.5333333333333,-168.53333333333333
89,42.666666666666664,-524.8,-162.13333333333333
90,34.13333333333333,-524.8,-149.33333333333334
91,46.93333333333333,-529.0666666666666,-160.0
92,44.8,-533.3333333333334,-160.0
93,44.8,-531.2,-166.4
94,55.46666666666667,-537.6,-174.93333333333334
95,55.46666666666667,-535.4666666666667,-168.53333333333333
96,46.93333333333333,-531.2,-168.53333333333333
97,46.93333333333333,-531.2,-157.86666666666667
98,46.93333333333333,-544.0,-160.0
99,46.93333333333333,-544.0,-168.53333333333333
100,49.06666666666666,-541.8666666666667,-166.4
101,49.06666666666666,-533.3333333333334,-157.86666666666667
102,44.8,-544.0,-179.2
103,44.8,-541.8666666666667,-170.66666666666666
104,38.4,-546.1333333333333,-170.66666666666666
105,42.666666666666664,-541.8666666666667,-168.53333333333333
106,40.53333333333333,-544.0,-174.93333333333334
107,49.06666666666666,-546.1333333333333,-179.2
108,44.8,-548.2666666666667,-179.2
109,40.53333333333333,-539.7333333333333,-181.33333333333334
110,42.666666666666664,-544.0,-172.8
111,42.666666666666664,-535.4666666666667,-168.53333333333333
112,36.266666666666666,-531.2,-174.93333333333334
113,36.266666666666666,-529.0666666666666,-179.2
114,40.53333333333333,-531.2,-168.53333333333333
115,38.4,-531.2,-170.66666666666666
116,38.4,-533.3333333333334,-177.06666666666666
117,40.53333333333333,-533.3333333333334,-174.93333333333334
118,40.53333333333333,-526.9333333333333,-177.06666666666666
119,40.53333333333333,-526.9333333333333,-179.2
120,40.53333333333333,-526.9333333333333,-179.2
121,44.8,-531.2,-177.06666666666666
122,42.666666666666664,-524.8,-183.46666666666667
123,42.666666666666664,-522.6666666666666,-172.8
124,40.53333333333333,-518.4,-187.73333333333332
125,32.0,-518.4,-183.46666666666667
126,44.8,-524.8,-187.73333333333332
127,36.266666666666666,-509.8666666666667,-185.6
128,42.666666666666664,-512.0,-198.4
129,42.666666666666664,-507.73333333333335,-194.13333333333333
130,42.666666666666664,-512.0,-192.0
131,38.4,-505.59999999999997,-196.26666666666665
132,44.8,-509.8666666666667,-192.0
133,44.8,-514.1333333333333,-189.86666666666667
134,44.8,-507.73333333333335,-200.53333333333333
135,42.666666666666664,-507.73333333333335,-196.26666666666665
136,42.666666666666664,-514.1333333333333,-196.26666666666665
137,40.53333333333333,-507.73333333333335,-194.13333333333333
138,42.666666666666664,-507.73333333333335,-200.53333333333333
139,46.93333333333333,-509.8666666666667,-202.66666666666666
140,44.8,-512.0,-196.26666666666665
141,49.06666666666666,-512.0,-200.53333333333333
142,44.8,-512.0,-200.53333333333333
143,44.8,-509.8666666666667,-204.8
144,46.93333333333333,-514.1333333333333,-202.66666666666666
145,53.333333333333336,-512.0,-200.53333333333333
146,49.06666666666666,-501.3333333333333,-211.2
147,40.53333333333333,-514.1333333333333,-202.66666666666666
148,40.53333333333333,-514.1333333333333,-204.8
149,40.53333333333333,-518.4,-206.93333333333334
150,46.93333333333333,-520.5333333333333,-211.2
151,34.13333333333333,-516.2666666666667,-202.66666666666666
152,40.53333333333333,-516.2666666666667,-204.8
153,34.13333333333333,-509.8666666666667,-200.53333333333333
154,46.93333333333333,-514.1333333333333,-200.53333333333333
155,42.666666666666664,-512.0,-194.13333333333333
156,38.4,-503.46666666666664,-204.8
157,36.266666666666666,-509.8666666666667,-192.0
158,40.53333333333333,-512.0,-200.53333333333333
159,38.4,-503.46666666666664,-202.66666666666666
160,32.0,-512.0,-196.26666666666665
161,32.0,-512.0,-194.13333333333333
162,36.266666666666666,-520.5333333333333,-196.26666666666665
163,44.8,-518.4,-202.66666666666666
164,34.13333333333333,-512.0,-202.66666666666666
165,40.53333333333333,-516.2666666666667,-200.53333333333333
166,36.266666666666666,-522.6666666666666,-196.26666666666665
167,42.666666666666664,-518.4,-196.26666666666665
168,51.2,-516.2666666666667,-189.86666666666667
169,38.4,-512.0,-200.53333333333333
170,32.0,-509.8666666666667,-202.66666666666666
171,34.13333333333333,-509.8666666666667,-204.8
172,40.53333333333333,-516.2666666666667,-194.13333333333333
173,36.266666666666666,-512.0,-194.13333333333333
174,44.8,-516.2666666666667,-209.06666666666666
175,38.4,-509.8666666666667,-215.46666666666667
176,36.266666666666666,-520.5333333333333,-209.06666666666666
177,42.666666666666664,-516.2666666666667,-200.53333333333333
178,38.4,-518.4,-211.2
179,34.13333333333333,-518.4,-211.2
180,36.266666666666666,-516.2666666666667,-213.33333333333334
181,38.4,-518.4,-215.46666666666667
182,42.666666666666664,-520.5333333333333,-211.2
183,36.266666666666666,-509.8666666666667,-211.2
184,44.8,-518.4,-209.06666666666666
185,38.4,-509.8666666666667,-211.2
186,40.53333333333333,-514.1333333333333,-213.33333333333334
187,38.4,-516.2666666666667,-213.33333333333334
188,42.666666666666664,-522.6666666666666,-211.2
189,34.13333333333333,-514.1333333333333,-206.93333333333334
190,49.06666666666666,-526.9333333333333,-196.26666666666665
191,42.666666666666664,-516.2666666666667,-196.26666666666665
192,40.53333333333333,-518.4,-198.4
193,40.53333333333333,-514.1333333333333,-192.0
194,40.53333333333333,-514.1333333333333,-196.26666666666665
195,36.266666666666666,-509.8666666666667,-192.0
196,42.666666666666664,-507.73333333333335,-196.26666666666665
197,40.53333333333333,-512.0,-194.13333333333333
198,42.666666666666664,-512.0,-198.4
199,42.666666666666664,-507.73333333333335,-200.53333333333333
200,40.53333333333333,-516.2666666666667,-196.26666666666665
201,38.4,-509.8666666666667,-196.26666666666665
202,38.4,-507.73333333333335,-192.0
203,42.666666666666664,-522.6666666666666,-189.86666666666667
204,38.4,-514.1333333333333,-187.73333333333332
205,27.733333333333334,-509.8666666666667,-185.6
206,38.4,-512.0,-185.6
207,38.4,-514.1333333333333,-183.46666666666667
208,29.866666666666667,-507.73333333333335,-183.46666666666667
209,42.666666666666664,-509.8666666666667,-194.13333333333333
210,38.4,-503.46666666666664,-192.0
211,21.333333333333332,-516.2666666666667,-189.86666666666667
212,29.866666666666667,-507.73333333333335,-185.6
213,40.53333333333333,-509.8666666666667,-192.0
214,36.266666666666666,-514.1333333333333,-189.86666666666667
215,38.4,-512.0,-192.0
216,36.266666666666666,-522.6666666666666,-194.13333333333333
217,38.4,-516.2666666666667,-192.0
218,36.266666666666666,-522.6666666666666,-194.13333333333333
219,40.53333333333333,-524.8,-194.13333333333333
220,42.666666666666664,-520.5333333333333,-187.73333333333332
221,42.666666666666664,-520.5333333333333,-185.6
222,44.8,-518.4,-200.53333333333333
223,36.266666666666666,-516.2666666666667,-198.4
224,44.8,-516.2666666666667,-196.26666666666665
225,32.0,-509.8666666666667,-185.6
226,38.4,-518.4,-196.26666666666665
227,40.53333333333333,-518.4,-185.6
228,38.4,-516.2666666666667,-181.33333333333334
229,36.266666666666666,-512.0,-183.46666666666667
230,42.666666666666664,-522.6666666666666,-179.2
231,34.13333333333333,-516.2666666666667,-179.2
232,34.13333333333333,-518.4,-179.2
233,46.93333333333333,-512.0,-162.13333333333333
234,32.0,-520.5333333333333,-183.46666666666667
235,36.266666666666666,-518.4,-181.33333333333334
236,32.0,-526.9333333333333,-183.46666666666667
237,38.4,-520.5333333333333,-179.2
238,32.0,-522.6666666666666,-183.46666666666667
239,32.0,-520.5333333333333,-183.46666666666667
240,29.866666666666667,-516.2666666666667,-177.06666666666666
241,36.266666666666666,-520.5333333333333,-174.93333333333334
242,29.866666666666667,-520.5333333333333,-185.6
243,29.866666666666667,-518.4,-185.6
244,36.266666666666666,-520.5333333333333,-179.2
245,38.4,-514.1333333333333,-181.33333333333334
246,34.13333333333333,-520.5333333333333,-183.46666666666667
247,34.13333333333333,-522.6666666666666,-181.33333333333334
248,34.13333333333333,-524.8,-174.93333333333334
249,34.13333333333333,-518.4,-174.93333333333334
250,29.866666666666667,-520.5333333333333,-179.2
251,34.13333333333333,-516.2666666666667,-181.33333333333334
252,38.4,-524.8,-181.33333333333334
253,32.0,-529.0666666666666,-177.06666666666666
254,32.0,-520.5333333333333,-177.06666666666666
255,27.733333333333334,-520.5333333333333,-172.8
256,36.266666666666666,-520.5333333333333,-181.33333333333334
257,32.0,-516.2666666666667,-174.93333333333334
258,27.733333333333334,-518.4,-177.06666666666666
259,34.13333333333333,-522.6666666666666,-181.33333333333334
260,38.4,-526.9333333333333,-177.06666666666666
261,38.4,-520.5333333333333,-183.46666666666667
262,36.266666666666666,-518.4,-181.33333333333334
263,34.13333333333333,-518.4,-183.46666666666667
264,36.266666666666666,-526.9333333333333,-181.33333333333334
265,40.53333333333333,-526.9333333333333,-181.33333333333334
266,42.666666666666664,-526.9333333333333,-174.93333333333334
267,40.53333333333333,-533.3333333333334,-179.2
268,40.53333333333333,-522.6666666666666,-174.93333333333334
269,38.4,-529.0666666666666,-170.66666666666666
270,34.13333333333333,-522.6666666666666,-181.33333333333334
271,40.53333333333333,-524.8,-179.2
272,40.53333333333333,-522.6666666666666,-179.2
273,36.266666666666666,-520.5333333333333,-172.8
274,38.4,-522.6666666666666,-177.06666666666666
275,32.0,-518.4,-170.66666666666666
276,36.266666666666666,-514.1333333333333,-174.93333333333334
277,29.866666666666667,-516.2666666666667,-181.33333333333334
278,34.13333333333333,-520.5333333333333,-168.53333333333333
279,29.866666666666667,-514.1333333333333,-177.06666666666666
280,27.733333333333334,-524.8,-179.2
281,34.13333333333333,-520.5333333333333,-179.2
282,27.733333333333334,-518.4,-172.8
283,29.866666666666667,-516.2666666666667,-172.8
284,34.13333333333333,-518.4,-174.93333333333334
285,27.733333333333334,-518.4,-168.53333333333333
286,42.666666666666664,-522.6666666666666,-170.66666666666666
287,38.4,-526.9333333333333,-172.8
288,32.0,-524.8,-183.46666666666667
289,32.0,-522.6666666666666,-174.93333333333334
290,36.266666666666666,-526.9333333333333,-183.46666666666667
291,32.0,-522.6666666666666,-181.33333333333334
292,36.266666666666666,-524.8,-183.46666666666667
293,27.733333333333334,-526.9333333333333,-183.46666666666667
294,27.733333333333334,-526.9333333333333,-177.06666666666666
295,36.266666666666666,-526.9333333333333,-177.06666666666666
296,32.0,-524.8,-181.33333333333334
297,32.0,-522.6666666666666,-181.33333333333334
298,36.266666666666666,-529.0666666666666,-172.8
299,27.733333333333334,-522.6666666666666,-177.06666666666666
300,23.466666666666665,-526.9333333333333,-174.93333333333334
301,27.733333333333334,-516.2666666666667,-179.2
302,27.733333333333334,-520.5333333333333,-177.06666666666666
303,25.6,-524.8,-174.93333333333334
304,29.866666666666667,-522.6666666666666,-174.93333333333334
305,23.466666666666665,-518.4,-177.06666666666666
306,29.866666666666667,-524.8,-179.2
307,32.0,-526.9333333333333,-179.2
308,27.733333333333334,-522.6666666666666,-174.93333333333334
309,23.466666666666665,-520.5333333333333,-177.06666666666666
310,34.13333333333333,-518.4,-179.2
311,32.0,-522.6666666666666,-174.93333333333334
312,32.0,-524.8,-177.06666666666666
313,36.266666666666666,-526.9333333333333,-174.93333333333334
314,32.0,-524.8,-177.06666666666666
315,32.0,-526.9333333333333,-177.06666666666666
316,36.266666666666666,-526.9333333333333,-179.2
317,38.4,-526.9333333333333,-170.66666666666666
318,34.13333333333333,-526.9333333333333,-179.2
319,36.266666666666666,-526.9333333333333,-183.46666666666667
320,27.733333333333334,-524.8,-177.06666666666666
321,32.0,-526.9333333333333,-166.4
322,34.13333333333333,-524.8,-168.53333333333333
323,40.53333333333333,-526.9333333333333,-166.4
324,32.0,-522.6666666666666,-170.66666666666666
325,36.266666666666666,-518.4,-170.66666666666666
326,34.13333333333333,-520.5333333333333,-174.93333333333334
327,34.13333333333333,-522.6666666666666,-177.06666666666666
328,34.13333333333333,-522.6666666666666,-181.33333333333334
329,34.13333333333333,-522.6666666666666,-172.8
330,36.266666666666666,-526.9333333333333,-170.66666666666666
331,38.4,-526.9333333333333,-174.93333333333334
332,32.0,-531.2,-170.66666666666666
333,32.0,-520.5333333333333,-174.93333333333334
334,38.4,-524.8,-179.2
335,38.4,-522.6666666666666,-172.8
336,34.13333333333333,-524.8,-174.93333333333334
337,34.13333333333333,-529.0666666666666,-179.2
338,32.0,-522.6666666666666,-170.66666666666666
339,36.266666666666666,-526.9333333333333,-166.4
340,32.0,-526.9333333333333,-172.8
341,32.0,-535.4666666666667,-166.4
342,29.866666666666667,-524.8,-170.66666666666666
343,34.13333333333333,-520.5333333333333,-164.26666666666665
344,38.4,-526.9333333333333,-174.93333333333334
345,29.866666666666667,-520.5333333333333,-172.8
346,32.0,-526.9333333333333,-168.53333333333333
347,27.733333333333334,-524.8,-168.53333333333333
348,32.0,-522.6666666666666,-174.93333333333334
349,23.466666666666665,-522.6666666666666,-166.4
350,34.13333333333333,-522.6666666666666,-162.13333333333333
351,36.266666666666666,-520.5333333333333,-170.66666666666666
352,34.13333333333333,-522.6666666666666,-177.06666666666666
353,38.4,-526.9333333333333,-168.53333333333333
354,32.0,-520.5333333333333,-172.8
355,32.0,-522.6666666666666,-168.53333333333333
356,34.13333333333333,-522.6666666666666,-170.66666666666666
357,34.13333333333333,-526.9333333333333,-170.66666666666666
358,32.0,-524.8,-166.4
359,32.0,-526.9333333333333,-166.4
360,40.53333333333333,-526.9333333333333,-164.26666666666665
361,38.4,-522.6666666666666,-160.0
362,34.13333333333333,-526.9333333333333,-172.8
363,29.866666666666667,-524.8,-170.66666666666666
364,36.266666666666666,-501.3333333333333,-157.86666666666667
365,40.53333333333333,-522.6666666666666,-172.8
366,34.13333333333333,-522.6666666666666,-164.26666666666665
367,36.266666666666666,-522.6666666666666,-168.53333333333333
368,38.4,-524.8,-170.66666666666666
369,32.0,-526.9333333333333,-166.4
370,32.0,-529.0666666666666,-164.26666666666665
371,38.4,-529.0666666666666,-166.4
372,29.866666666666667,-526.9333333333333,-160.0
373,34.13333333333333,-531.2,-160.0
374,36.266666666666666,-531.2,-166.4
375,34.13333333333333,-526.9333333333333,-162.13333333333333
376,34.13333333333333,-529.0666666666666,-172.8
377,36.266666666666666,-531.2,-155.73333333333332
378,25.6,-526.9333333333333,-157.86666666666667
379,29.866666666666667,-526.9333333333333,-160.0
380,38.4,-531.2,-157.86666666666667
381,32.0,-524.8,-170.66666666666666
382,34.13333333333333,-531.2,-164.26666666666665
383,32.0,-520.5333333333333,-160.0
384,29.866666666666667,-518.4,-160.0
385,34.13333333333333,-529.0666666666666,-168.53333333333333
386,23.466666666666665,-520.5333333333333,-166.4
387,32.0,-522.6666666666666,-160.0
388,29.866666666666667,-522.6666666666666,-157.86666666666667
389,27.733333333333334,-526.9333333333333,-164.26666666666665
390,34.13333333333333,-526.9333333333333,-160.0
391,36.266666666666666,-533.3333333333334,-151.46666666666667
392,34.13333333333333,-533.3333333333334,-164.26666666666665
393,38.4,-533.3333333333334,-149.33333333333334
394,25.6,-524.8,-147.2
395,29.866666666666667,-531.2,-155.73333333333332
396,29.866666666666667,-524.8,-160.0
397,36.266666666666666,-526.9333333333333,-157.86666666666667
398,36.266666666666666,-524.8,-160.0
399,25.6,-524.8,-164.26666666666665
400,23.466666666666665,-526.9333333333333,-153.6
401,34.13333333333333,-526.9333333333333,-155.73333333333332
402,32.0,-529.0666666666666,-157.86666666666667
403,27.733333333333334,-524.8,-155.73333333333332
404,27.733333333333334,-522.6666666666666,-153.6
405,27.733333333333334,-524.8,-155.73333333333332
406,34.13333333333333,-531.2,-155.73333333333332
407,32.0,-520.5333333333333,-157.86666666666667
408,21.333333333333332,-537.6,-151.46666666666667
409,32.0,-522.6666666666666,-151.46666666666667
410,25.6,-526.9333333333333,-164.26666666666665
411,32.0,-529.0666666666666,-155.73333333333332
412,27.733333333333334,-526.9333333333333,-160.0
413,27.733333333333334,-524.8,-157.86666666666667
414,23.466666666666665,-526.9333333333333,-160.0
415,23.466666666666665,-524.8,-157.86666666666667
416,29.866666666666667,-531.2,-160.0
417,32.0,-526.9333333333333,-149.33333333333334
418,29.866666666666667,-531.2,-153.6
419,36.266666666666666,-531.2,-149.33333333333334
420,38.4,-529.0666666666666,-151.46666666666667
421,34.13333333333333,-526.9333333333333,-153.6
422,27.733333333333334,-526.9333333333333,-151.46666666666667
423,36.266666666666666,-529.0666666666666,-153.6
424,36.266666666666666,-531.2,-162.13333333333333
425,34.13333333333333,-524.8,-157.86666666666667
426,32.0,-526.9333333333333,-157.86666666666667
427,34.13333333333333,-529.0666666666666,-162.13333333333333
428,27.733333333333334,-526.9333333333333,-157.86666666666667
429,32.0,-531.2,-155.73333333333332
430,29.866666666666667,-526.9333333333333,-151.46666666666667
431,25.6,-529.0666666666666,-151.46666666666667
432,32.0,-531.2,-155.73333333333332
433,29.866666666666667,-526.9333333333333,-151.46666666666667
434,29.866666666666667,-529.0666666666666,-157.86666666666667
435,23.466666666666665,-522.6666666666666,-153.6
436,23.466666666666665,-526.9333333333333,-157.86666666666667
437,27.733333333333334,-529.0666666666666,-155.73333333333332
438,32.0,-524.8,-155.73333333333332
439,34.13333333333333,-526.9333333333333,-164.26666666666665
440,34.13333333333333,-529.0666666666666,-151.46666666666667
441,34.13333333333333,-531.2,-160.0
442,27.733333333333334,-529.0666666666666,-155.73333333333332
443,25.6,-526.9333333333333,-157.86666666666667
444,29.866666666666667,-524.8,-155.73333333333332
445,29.866666666666667,-524.8,-160.0
446,27.733333333333334,-531.2,-147.2
447,32.0,-524.8,-155.73333333333332
448,27.733333333333334,-529.0666666666666,-153.6
449,29.866666666666667,-529.0666666666666,-149.33333333333334
450,27.733333333333334,-526.9333333333333,-153.6
451,34.13333333333333,-533.3333333333334,-153.6
452,21.333333333333332,-529.0666666666666,-149.33333333333334
453,32.0,-533.3333333333334,-155.73333333333332
454,32.0,-529.0666666666666,-145.06666666666666
455,25.6,-522.6666666666666,-149.33333333333334
456,29.866666666666667,-529.0666666666666,-153.6
457,27.733333333333334,-524.8,-155.73333333333332
458,27.733333333333334,-529.0666666666666,-149.33333333333334
459,29.866666666666667,-524.8,-153.6
460,25.6,-529.0666666666666,-153.6
461,32.0,-529.0666666666666,-153.6
462,29.866666666666667,-526.9333333333333,-153.6
463,29.866666666666667,-526.9333333333333,-151.46666666666667
464,27.733333333333334,-531.2,-155.73333333333332
465,29.866666666666667,-526.9333333333333,-157.86666666666667
466,36.266666666666666,-526.9333333333333,-149.33333333333334
467,32.0,-522.6666666666666,-153.6
468,32.0,-529.0666666666666,-151.46666666666667
469,34.13333333333333,-529.0666666666666,-153.6
470,36.266666666666666,-529.0666666666666,-151.46666666666667
471,34.13333333333333,-526.9333333333333,-157.86666666666667
472,38.4,-526.9333333333333,-155.73333333333332
473,29.866666666666667,-531.2,-162.13333333333333
474,29.866666666666667,-529.0666666666666,-153.6
475,29.866666666666667,-531.2,-166.4
476,29.866666666666667,-529.0666666666666,-166.4
477,29.866666666666667,-531.2,-153.6
478,36.266666666666666,-535.4666666666667,-162.13333333333333
479,32.0,-529.0666666666666,-157.86666666666667
480,25.6,-529.0666666666666,-153.6
481,32.0,-529.0666666666666,-157.86666666666667
482,25.6,-522.6666666666666,-149.33333333333334
483,25.6,-524.8,-157.86666666666667
484,29.866666666666667,-526.9333333333333,-155.73333333333332
485,29.866666666666667,-526.9333333333333,-149.33333333333334
486,29.866666666666667,-522.6666666666666,-155.73333333333332
487,29.866666666666667,-524.8,-155.73333333333332
488,34.13333333333333,-522.6666666666666,-162.13333333333333
489,32.0,-518.4,-151.46666666666667
490,36.266666666666666,-524.8,-157.86666666666667
491,36.266666666666666,-520.5333333333333,-153.6
492,29.866666666666667,-524.8,-145.06666666666666
493,27.733333333333334,-526.9333333333333,-149.33333333333334
494,32.0,-524.8,-157.86666666666667
495,27.733333333333334,-526.9333333333333,-162.13333333333333
496,23.466666666666665,-520.5333333333333,-157.86666666666667
497,27.733333333333334,-524.8,-164.26666666666665
498,27.733333333333334,-524.8,-166.4
499,32.0,-533.3333333333334,-162.13333333333333
500,27.733333333333334,-526.9333333333333,-164.26666666666665
501,38.4,-526.9333333333333,-157.86666666666667
502,36.266666666666666,-526.9333333333333,-160.0
503,32.0,-524.8,-164.26666666666665
504,38.4,-526.9333333333333,-157.86666666666667
505,36.266666666666666,-522.6666666666666,-155.73333333333332
506,38.4,-526.9333333333333,-164.26666666666665
507,34.13333333333333,-522.6666666666666,-166.4
508,36.266666666666666,-524.8,-166.4
509,32.0,-522.6666666666666,-168.53333333333333
510,34.13333333333333,-531.2,-160.0
511,32.0,-526.9333333333333,-166.4
512,34.13333333333333,-529.0666666666666,-172.8
513,34.13333333333333,-531.2,-162.13333333333333
514,32.0,-526.9333333333333,-166.4
515,38.4,-524.8,-170.66666666666666
516,38.4,-531.2,-162.13333333333333
517,40.53333333333333,-529.0666666666666,-172.8
518,38.4,-526.9333333333333,-168.53333333333333
519,36.266666666666666,-531.2,-162.13333333333333
520,29.866666666666667,-522.6666666666666,-164.26666666666665
521,32.0,-526.9333333333333,-168.53333333333333
522,34.13333333333333,-524.8,-170.66666666666666
523,34.13333333333333,-529.0666666666666,-174.93333333333334
524,36.266666666666666,-526.9333333333333,-179.2
525,34.13333333333333,-524.8,-177.06666666666666
526,25.6,-529.0666666666666,-170.66666666666666
527,32.0,-526.9333333333333,-174.93333333333334
528,32.0,-526.9333333333333,-179.2
529,32.0,-522.6666666666666,-172.8
530,34.13333333333333,-524.8,-166.4
531,34.13333333333333,-524.8,-174.93333333333334
532,29.866666666666667,-529.0666666666666,-170.66666666666666
533,27.733333333333334,-526.9333333333333,-174.93333333333334
534,36.266666666666666,-526.9333333333333,-174.93333333333334
535,38.4,-526.9333333333333,-174.93333333333334
536,34.13333333333333,-524.8,-170.66666666666666
537,32.0,-524.8,-172.8
538,36.266666666666666,-522.6666666666666,-170.66666666666666
539,38.4,-526.9333333333333,-172.8
540,32.0,-529.0666666666666,-174.93333333333334
541,34.13333333333333,-522.6666666666666,-172.8
542,34.13333333333333,-520.5333333333333,-172.8
543,36.266666666666666,-526.9333333333333,-170.66666666666666
544,29.866666666666667,-526.9333333333333,-172.8
545,36.266666666666666,-522.6666666666666,-177.06666666666666
546,34.13333333333333,-520.5333333333333,-174.93333333333334
547,27.733333333333334,-522.6666666666666,-174.93333333333334
548,25.6,-518.4,-168.53333333333333
549,32.0,-522.6666666666666,-172.8
550,29.866666666666667,-522.6666666666666,-174.93333333333334
551,25.6,-520.5333333333333,-179.2
552,32.0,-518.4,-174.93333333333334
553,38.4,-524.8,-179.2
554,32.0,-524.8,-179.2
555,38.4,-524.8,-183.46666666666667
556,25.6,-522.6666666666666,-181.33333333333334
557,34.13333333333333,-529.0666666666666,-181.33333333333334
558,34.13333333333333,-522.6666666666666,-179.2
559,38.4,-529.0666666666666,-177.06666666666666
560,36.266666666666666,-526.9333333333333,-174.93333333333334
561,34.13333333333333,-524.8,-181.33333333333334
562,32.0,-522.6666666666666,-183.46666666666667
563,27.733333333333334,-522.6666666666666,-187.73333333333332
564,25.6,-524.8,-183.46666666666667
565,34.13333333333333,-520.5333333333333,-187.73333333333332
566,34.13333333333333,-522.6666666666666,-181.33333333333334
567,36.266666666666666,-522.6666666666666,-189.86666666666667
568,34.13333333333333,-522.6666666666666,-185.6
569,38.4,-524.8,-185.6
570,40.53333333333333,-524.8,-183.46666666666667
571,34.13333333333333,-524.8,-187.73333333333332
572,36.266666666666666,-524.8,-183.46666666666667
573,36.266666666666666,-522.6666666666666,-189.86666666666667
574,42.666666666666664,-520.5333333333333,-183.46666666666667
575,36.266666666666666,-518.4,-200.53333333333333
576,44.8,-524.8,-198.4
577,32.0,-509.8666666666667,-192.0
578,38.4,-520.5333333333333,-192.0
579,36.266666666666666,-524.8,-196.26666666666665
580,29.866666666666667,-516.2666666666667,-200.53333333333333
581,40.53333333333333,-518.4,-192.0
582,34.13333333333333,-520.5333333333333,-196.26666666666665
583,36.266666666666666,-518.4,-194.13333333333333
584,32.0,-507.73333333333335,-202.66666666666666
585,34.13333333333333,-514.1333333333333,-206.93333333333334
586,34.13333333333333,-514.1333333333333,-196.26666666666665
587,38.4,-505.59999999999997,-204.8
588,38.4,-505.59999999999997,-211.2
589,27.733333333333334,-492.8,-206.93333333333334
590,34.13333333333333,-475.73333333333335,-213.33333333333334
591,27.733333333333334,-477.8666666666667,-234.66666666666666
592,32.0,-465.06666666666666,-245.33333333333334
593,34.13333333333333,-458.6666666666667,-283.73333333333335
594,36.266666666666666,-450.1333333333333,-322.1333333333333
595,34.13333333333333,-454.4,-349.8666666666667
596,34.13333333333333,-460.8,-337.06666666666666
597,36.266666666666666,-490.6666666666667,-343.46666666666664
598,51.2,-512.0,-364.8
599,46.93333333333333,-531.2,-401.06666666666666
600,53.333333333333336,-541.8666666666667,-437.3333333333333
601,66.13333333333333,-552.5333333333333,-465.06666666666666
602,53.333333333333336,-537.6,-512.0
603,61.86666666666667,-516.2666666666667,-584.5333333333333
604,59.733333333333334,-482.1333333333333,-654.9333333333333
605,59.733333333333334,-430.93333333333334,-682.6666666666666
606,49.06666666666666,-381.8666666666667,-669.8666666666667
607,49.06666666666666,-317.8666666666667,-618.6666666666666
608,51.2,-277.3333333333333,-548.2666666666667
609,51.2,-249.6,-456.5333333333333
610,44.8,-236.79999999999998,-388.26666666666665
611,32.0,-245.33333333333334,-330.6666666666667
612,17.066666666666666,-241.06666666666666,-307.2
613,4.266666666666667,-247.46666666666667,-300.8
614,-4.266666666666667,-245.33333333333334,-317.8666666666667
615,-8.533333333333333,-236.79999999999998,-360.5333333333333
616,-6.4,-221.86666666666667,-411.73333333333335
617,-6.4,-200.53333333333333,-471.46666666666664
618,2.1333333333333333,-168.53333333333333,-497.06666666666666
619,-10.666666666666666,-134.4,-531.2
620,-17.066666666666666,-83.2,-554.6666666666666
621,-21.333333333333332,-42.666666666666664,-561.0666666666666
622,-23.466666666666665,-6.4,-537.6
623,-44.8,44.8,-490.6666666666667
624,-61.86666666666667,89.6,-445.8666666666667
625,-68.26666666666667,138.66666666666666,-366.93333333333334
626,-74.66666666666667,189.86666666666667,-277.3333333333333
627,-91.73333333333333,217.6,-179.2
628,-85.33333333333333,238.93333333333334,-85.33333333333333
629,-93.86666666666666,253.86666666666667,-2.1333333333333333
630,-81.06666666666666,256.0,61.86666666666667
631,-64.0,243.2,104.53333333333333
632,-49.06666666666666,226.13333333333333,119.46666666666667
633,-34.13333333333333,185.6,142.93333333333334
634,-49.06666666666666,145.06666666666666,177.06666666666666
635,-59.733333333333334,89.6,181.33333333333334
636,-42.666666666666664,19.2,174.93333333333334
637,-34.13333333333333,-40.53333333333333,166.4
638,-23.466666666666665,-102.4,134.4
639,-17.066666666666666,-153.6,110.93333333333334
640,-29.866666666666667,-198.4,93.86666666666666
641,-36.266666666666666,-234.66666666666666,87.46666666666667
642,-36.266666666666666,-260.26666666666665,68.26666666666667
643,-61.86666666666667,-290.1333333333333,25.6
644,-61.86666666666667,-317.8666666666667,0.0
645,-74.66666666666667,-326.4,4.266666666666667
646,-91.73333333333333,-343.46666666666664,17.066666666666666
647,-98.13333333333333,-343.46666666666664,-4.266666666666667
648,-89.6,-326.4,-8.533333333333333
649,-76.8,-290.1333333333333,32.0
650,-44.8,-270.93333333333334,38.4
651,-38.4,-241.06666666666666,38.4
652,-21.333333333333332,-213.33333333333334,17.066666666666666
653,-2.1333333333333333,-198.4,-6.4
654,17.066666666666666,-213.33333333333334,-4.266666666666667
655,61.86666666666667,-230.4,-6.4
656,81.06666666666666,-256.0,10.666666666666666
657,119.46666666666667,-309.3333333333333,29.866666666666667
658,151.46666666666667,-354.1333333333333,42.666666666666664
659,209.06666666666666,-390.4,27.733333333333334
660,232.53333333333333,-433.06666666666666,8.533333333333333
661,251.73333333333332,-512.0,-29.866666666666667
662,253.86666666666667,-631.4666666666667,-42.666666666666664
663,277.3333333333333,-776.5333333333333,-38.4
664,283.73333333333335,-900.2666666666667,-64.0
665,292.26666666666665,-981.3333333333334,-104.53333333333333
666,247.46666666666667,-1004.8,-170.66666666666666
667,236.79999999999998,-966.4,-273.06666666666666
668,149.33333333333334,-913.0666666666666,-334.93333333333334
669,10.666666666666666,-776.5333333333333,-326.4
670,-138.66666666666666,-625.0666666666666,-317.8666666666667
671,-194.13333333333333,-535.4666666666667,-341.3333333333333
672,-258.1333333333333,-507.73333333333335,-290.1333333333333
673,-294.4,-486.4,-230.4
674,-266.6666666666667,-480.0,-219.73333333333332
675,-149.33333333333334,-499.2,-211.2
676,-8.533333333333333,-509.8666666666667,-215.46666666666667
677,93.86666666666666,-480.0,-270.93333333333334
678,130.13333333333333,-435.2,-309.3333333333333
679,89.6,-390.4,-337.06666666666666
680,72.53333333333333,-388.26666666666665,-345.6
681,38.4,-413.8666666666667,-347.73333333333335
682,40.53333333333333,-490.6666666666667,-349.8666666666667
683,10.666666666666666,-608.0,-373.3333333333333
684,19.2,-750.9333333333333,-413.8666666666667
685,70.4,-896.0,-473.59999999999997
686,87.46666666666667,-989.8666666666667,-526.9333333333333
687,91.73333333333333,-1041.0666666666666,-524.8
688,102.4,-983.4666666666667,-522.6666666666666
689,89.6,-844.8,-548.2666666666667
690,100.26666666666667,-770.1333333333333,-558.9333333333333
691,81.06666666666666,-723.2,-507.73333333333335
692,10.666666666666666,-721.0666666666666,-467.2
693,6.4,-753.0666666666666,-458.6666666666667
694,-53.333333333333336,-763.7333333333333,-471.46666666666664
695,-68.26666666666667,-797.8666666666667,-492.8
696,-59.733333333333334,-827.7333333333333,-529.0666666666666
697,-49.06666666666666,-868.2666666666667,-522.6666666666666
698,2.1333333333333333,-896.0,-533.3333333333334
699,23.466666666666665,-921.6,-565.3333333333334
700,66.13333333333333,-932.2666666666667,-586.6666666666666
701,72.53333333333333,-934.4,-569.6
702,61.86666666666667,-921.6,-567.4666666666667
703,34.13333333333333,-898.1333333333333,-576.0
704,19.2,-893.8666666666667,-565.3333333333334
705,14.933333333333334,-906.6666666666666,-556.8
706,32.0,-893.8666666666667,-514.1333333333333
707,55.46666666666667,-889.6,-480.0
708,25.6,-870.4,-465.06666666666666
709,32.0,-844.8,-458.6666666666667
710,23.466666666666665,-825.6,-456.5333333333333
711,36.266666666666666,-795.7333333333333,-420.26666666666665
712,19.2,-780.8,-403.2
713,8.533333333333333,-738.1333333333333,-386.1333333333333
714,10.666666666666666,-704.0,-373.3333333333333
715,17.066666666666666,-682.6666666666666,-371.2
716,14.933333333333334,-684.8,-366.93333333333334
717,23.466666666666665,-693.3333333333334,-349.8666666666667
718,34.13333333333333,-718.9333333333333,-356.26666666666665
719,49.06666666666666,-742.4,-341.3333333333333
720,59.733333333333334,-774.4,-343.46666666666664
721,49.06666666666666,-772.2666666666667,-343.46666666666664
722,42.666666666666664,-780.8,-326.4
723,38.4,-778.6666666666666,-313.6
724,29.866666666666667,-757.3333333333334,-300.8
725,34.13333333333333,-744.5333333333333,-288.0
726,38.4,-727.4666666666667,-268.8
727,36.266666666666666,-708.2666666666667,-260.26666666666665
728,36.266666666666666,-697.6,-241.06666666666666
729,27.733333333333334,-667.7333333333333,-236.79999999999998
730,34.13333333333333,-657.0666666666666,-228.26666666666665
731,53.333333333333336,-654.9333333333333,-228.26666666666665
732,36.266666666666666,-674.1333333333333,-224.0
733,34.13333333333333,-736.0,-230.4
734,29.866666666666667,-800.0,-247.46666666666667
735,36.266666666666666,-842.6666666666666,-262.4
736,49.06666666666666,-883.1999999999999,-290.1333333333333
737,40.53333333333333,-889.6,-326.4
738,27.733333333333334,-881.0666666666666,-345.6
739,10.666666666666666,-844.8,-362.6666666666667
740,8.533333333333333,-785.0666666666666,-360.5333333333333
741,0.0,-706.1333333333333,-349.8666666666667
742,0.0,-648.5333333333333,-315.73333333333335
743,4.266666666666667,-588.8,-275.2
744,-6.4,-533.3333333333334,-245.33333333333334
745,-2.1333333333333333,-507.73333333333335,-211.2
746,0.0,-477.8666666666667,-185.6
747,2.1333333333333333,-465.06666666666666,-160.0
748,0.0,-443.73333333333335,-140.8
749,8.533333333333333,-428.8,-117.33333333333333
750,4.266666666666667,-420.26666666666665,-98.13333333333333
751,8.533333333333333,-413.8666666666667,-91.73333333333333
752,21.333333333333332,-409.6,-83.2
753,25.6,-405.3333333333333,-61.86666666666667
754,25.6,-409.6,-51.2
755,21.333333333333332,-416.0,-49.06666666666666
756,21.333333333333332,-430.93333333333334,-46.93333333333333
757,19.2,-439.46666666666664,-32.0
758,32.0,-456.5333333333333,-36.266666666666666
759,34.13333333333333,-460.8,-32.0
760,27.733333333333334,-473.59999999999997,-36.266666666666666
761,21.333333333333332,-492.8,-29.866666666666667
762,29.866666666666667,-501.3333333333333,-38.4
763,32.0,-526.9333333333333,-38.4
764,25.6,-544.0,-64.0
765,40.53333333333333,-578.1333333333333,-66.13333333333333
766,46.93333333333333,-622.9333333333333,-81.06666666666666
767,53.333333333333336,-665.6,-89.6
768,46.93333333333333,-704.0,-102.4
769,53.333333333333336,-727.4666666666667,-108.8
770,49.06666666666666,-744.5333333333333,-106.66666666666667
771,44.8,-744.5333333333333,-108.8
772,38.4,-718.9333333333333,-106.66666666666667
773,44.8,-697.6,-125.86666666666666
774,17.066666666666666,-642.1333333333333,-149.33333333333334
775,23.466666666666665,-584.5333333333333,-162.13333333333333
776,4.266666666666667,-535.4666666666667,-168.53333333333333
777,6.4,-499.2,-170.66666666666666
778,2.1333333333333333,-465.06666666666666,-164.26666666666665
779,6.4,-441.59999999999997,-155.73333333333332
780,10.666666666666666,-445.8666666666667,-145.06666666666666
781,17.066666666666666,-443.73333333333335,-125.86666666666666
782,19.2,-462.93333333333334,-123.73333333333333
783,27.733333333333334,-475.73333333333335,-113.06666666666666
784,23.466666666666665,-501.3333333333333,-98.13333333333333
785,25.6,-512.0,-93.86666666666666
786,36.266666666666666,-537.6,-76.8
787,29.866666666666667,-548.2666666666667,-61.86666666666667
788,27.733333333333334,-561.0666666666666,-55.46666666666667
789,27.733333333333334,-565.3333333333334,-46.93333333333333
790,23.466666666666665,-565.3333333333334,-38.4
791,12.8,-552.5333333333333,-40.53333333333333
792,12.8,-546.1333333333333,-38.4
793,12.8,-533.3333333333334,-32.0
794,4.266666666666667,-529.0666666666666,-40.53333333333333
795,14.933333333333334,-526.9333333333333,-32.0
796,21.333333333333332,-524.8,-19.2
797,14.933333333333334,-524.8,-8.533333333333333
798,14.933333333333334,-531.2,-8.533333333333333
799,12.8,-531.2,-2.1333333333333333
800,17.066666666666666,-548.2666666666667,-6.4
801,14.933333333333334,-550.4,4.266666666666667
802,14.933333333333334,-552.5333333333333,12.8
803,8.533333333333333,-550.4,4.266666666666667
804,12.8,-554.6666666666666,0.0
805,14.933333333333334,-548.2666666666667,0.0
806,12.8,-550.4,2.1333333333333333
807,17.066666666666666,-541.8666666666667,4.266666666666667
808,17.066666666666666,-539.7333333333333,12.8
809,14.933333333333334,-535.4666666666667,6.4
810,23.466666666666665,-531.2,2.1333333333333333
811,19.2,-524.8,17.066666666666666
812,29.866666666666667,-522.6666666666666,21.333333333333332
813,25.6,-512.0,29.866666666666667
814,44.8,-505.59999999999997,36.266666666666666
815,53.333333333333336,-512.0,53.333333333333336
816,64.0,-512.0,53.333333333333336
817,68.26666666666667,-509.8666666666667,49.06666666666666
818,68.26666666666667,-520.5333333333333,68.26666666666667
819,57.6,-518.4,91.73333333333333
820,55.46666666666667,-516.2666666666667,108.8
821,46.93333333333333,-509.8666666666667,125.86666666666666
822,46.93333333333333,-514.1333333333333,153.6
823,49.06666666666666,-509.8666666666667,166.4
824,38.4,-505.59999999999997,181.33333333333334
825,36.266666666666666,-499.2,174.93333333333334
826,21.333333333333332,-501.3333333333333,153.6
827,8.533333333333333,-499.2,136.53333333333333
828,-4.266666666666667,-503.46666666666664,117.33333333333333
829,-19.2,-507.73333333333335,100.26666666666667
830,-36.266666666666666,-522.6666666666666,85.33333333333333
831,-53.333333333333336,-520.5333333333333,76.8
832,-66.13333333333333,-520.5333333333333,74.66666666666667
833,-70.4,-520.5333333333333,70.4
834,-76.8,-522.6666666666666,76.8
835,-72.53333333333333,-526.9333333333333,68.26666666666667
836,-64.0,-524.8,61.86666666666667
837,-57.6,-529.0666666666666,55.46666666666667
838,-46.93333333333333,-531.2,46.93333333333333
839,-29.866666666666667,-531.2,29.866666666666667
840,-17.066666666666666,-541.8666666666667,21.333333333333332
841,-10.666666666666666,-541.8666666666667,4.266666666666667
842,0.0,-539.7333333333333,0.0
843,2.1333333333333333,-563.2,4.266666666666667
844,12.8,-569.6,-10.666666666666666
845,17.066666666666666,-571.7333333333333,-17.066666666666666
846,19.2,-578.1333333333333,-19.2
847,25.6,-578.1333333333333,-12.8
848,34.13333333333333,-588.8,-12.8
849,34.13333333333333,-582.4,-6.4
850,36.266666666666666,-578.1333333333333,-4.266666666666667
851,44.8,-569.6,2.1333333333333333
852,46.93333333333333,-571.7333333333333,0.0
853,51.2,-558.9333333333333,6.4
854,51.2,-565.3333333333334,12.8
855,55.46666666666667,-544.0,10.666666666666666
856,57.6,-535.4666666666667,19.2
857,61.86666666666667,-533.3333333333334,19.2
858,55.46666666666667,-526.9333333333333,14.933333333333334
859,57.6,-522.6666666666666,21.333333333333332
860,44.8,-516.2666666666667,27.733333333333334
861,46.93333333333333,-514.1333333333333,32.0
862,51.2,-522.6666666666666,44.8
863,42.666666666666664,-522.6666666666666,34.13333333333333
864,46.93333333333333,-529.0666666666666,49.06666666666666
865,40.53333333333333,-529.0666666666666,49.06666666666666
866,42.666666666666664,-531.2,49.06666666666666
867,42.666666666666664,-535.4666666666667,53.333333333333336
868,42.666666666666664,-539.7333333333333,53.333333333333336
869,49.06666666666666,-541.8666666666667,51.2
870,46.93333333333333,-544.0,49.06666666666666
871,46.93333333333333,-552.5333333333333,51.2
872,42.666666666666664,-552.5333333333333,49.06666666666666
873,42.666666666666664,-550.4,53.333333333333336
874,36.266666666666666,-548.2666666666667,51.2
875,36.266666666666666,-541.8666666666667,53.333333333333336
876,40.53333333333333,-541.8666666666667,44.8
877,40.53333333333333,-541.8666666666667,51.2
878,42.666666666666664,-546.1333333333333,46.93333333333333
879,36.266666666666666,-539.7333333333333,40.53333333333333
880,38.4,-541.8666666666667,38.4
881,42.666666666666664,-535.4666666666667,38.4
882,36.266666666666666,-541.8666666666667,38.4
883,36.266666666666666,-535.4666666666667,32.0
884,32.0,-535.4666666666667,40.53333333333333
885,32.0,-537.6,46.93333333333333
886,34.13333333333333,-539.7333333333333,29.866666666666667
887,27.733333333333334,-531.2,32.0
888,29.866666666666667,-544.0,29.866666666666667
889,27.733333333333334,-541.8666666666667,32.0
890,23.466666666666665,-539.7333333333333,44.8
891,23.466666666666665,-539.7333333333333,44.8
892,10.666666666666666,-533.3333333333334,44.8
893,12.8,-541.8666666666667,49.06666666666666
894,8.533333333333333,-541.8666666666667,46.93333333333333
895,17.066666666666666,-544.0,49.06666666666666
896,10.666666666666666,-539.7333333333333,46.93333333333333
897,8.533333333333333,-541.8666666666667,53.333333333333336
898,6.4,-541.8666666666667,49.06666666666666
899,10.666666666666666,-548.2666666666667,53.333333333333336
900,10.666666666666666,-544.0,59.733333333333334
901,17.066666666666666,-546.1333333333333,57.6
902,21.333333333333332,-541.8666666666667,61.86666666666667
903,12.8,-537.6,55.46666666666667
904,23.466666666666665,-531.2,49.06666666666666
905,19.2,-533.3333333333334,53.333333333333336
906,21.333333333333332,-531.2,42.666666666666664
907,25.6,-531.2,53.333333333333336
908,25.6,-535.4666666666667,51.2
909,23.466666666666665,-524.8,53.333333333333336
910,32.0,-531.2,51.2
911,38.4,-537.6,51.2
912,32.0,-535.4666666666667,53.333333333333336
913,29.866666666666667,-531.2,57.6
914,36.266666666666666,-533.3333333333334,53.333333333333336
915,27.733333333333334,-535.4666666666667,61.86666666666667
916,34.13333333333333,-539.7333333333333,57.6
917,29.866666666666667,-541.8666666666667,57.6
918,27.733333333333334,-544.0,57.6
919,29.866666666666667,-535.4666666666667,64.0
920,29.866666666666667,-541.8666666666667,51.2
921,25.6,-544.0,57.6
922,25.6,-541.8666666666667,57.6
923,23.466666666666665,-537.6,59.733333333333334
924,27.733333333333334,-541.8666666666667,55.46666666666667
925,25.6,-539.7333333333333,57.6
926,21.333333333333332,-535.4666666666667,44.8
927,27.733333333333334,-539.7333333333333,59.733333333333334
928,27.733333333333334,-544.0,57.6
929,21.333333333333332,-533.3333333333334,55.46666666666667
930,21.333333333333332,-539.7333333333333,57.6
931,21.333333333333332,-537.6,49.06666666666666
932,25.6,-539.7333333333333,57.6
933,21.333333333333332,-539.7333333333333,53.333333333333336
934,23.466666666666665,-533.3333333333334,44.8
935,21.333333333333332,-539.7333333333333,49.06666666666666
936,21.333333333333332,-539.7333333333333,51.2
937,21.333333333333332,-535.4666666666667,51.2
938,25.6,-539.7333333333333,55.46666666666667
939,21.333333333333332,-541.8666666666667,55.46666666666667
940,19.2,-535.4666666666667,53.333333333333336
941,21.333333333333332,-544.0,59.733333333333334
942,32.0,-544.0,57.6
943,27.733333333333334,-541.8666666666667,61.86666666666667
944,27.733333333333334,-535.4666666666667,70.4
945,27.733333333333334,-546.1333333333333,61.86666666666667
946,25.6,-539.7333333333333,66.13333333333333
947,29.866666666666667,-537.6,68.26666666666667
948,25.6,-537.6,66.13333333333333
949,34.13333333333333,-533.3333333333334,55.46666666666667
950,32.0,-535.4666666666667,59.733333333333334
951,23.466666666666665,-535.4666666666667,59.733333333333334
952,25.6,-535.4666666666667,61.86666666666667
953,21.333333333333332,-539.7333333333333,55.46666666666667
954,23.466666666666665,-537.6,66.13333333333333
955,19.2,-535.4666666666667,68.26666666666667
956,17.066666666666666,-537.6,61.86666666666667
957,14.933333333333334,-544.0,68.26666666666667
958,23.466666666666665,-539.7333333333333,61.86666666666667
959,21.333333333333332,-537.6,55.46666666666667
960,21.333333333333332,-539.7333333333333,46.93333333333333
961,21.333333333333332,-535.4666666666667,53.333333333333336
962,19.2,-537.6,46.93333333333333
963,19.2,-541.8666666666667,51.2
964,23.466666666666665,-544.0,51.2
965,21.333333333333332,-535.4666666666667,64.0
966,27.733333333333334,-539.7333333333333,55.46666666666667
967,25.6,-539.7333333333333,59.733333333333334
968,29.866666666666667,-539.7333333333333,66.13333333333333
969,21.333333333333332,-535.4666666666667,68.26666666666667
970,25.6,-546.1333333333333,72.53333333333333
971,25.6,-544.0,68.26666666666667
972,23.466666666666665,-539.7333333333333,59.733333333333334
973,23.466666666666665,-539.7333333333333,70.4
974,23.466666666666665,-535.4666666666667,66.13333333333333
975,19.2,-544.0,55.46666666666667
976,17.066666666666666,-537.6,59.733333333333334
977,17.066666666666666,-546.1333333333333,66.13333333333333
978,21.333333333333332,-541.8666666666667,68.26666666666667
979,21.333333333333332,-537.6,64.0
980,23.466666666666665,-548.2666666666667,61.86666666666667
981,25.6,-556.8,57.6
982,25.6,-552.5333333333333,57.6
983,27.733333333333334,-548.2666666666667,55.46666666666667
984,34.13333333333333,-546.1333333333333,55.46666666666667
985,29.866666666666667,-541.8666666666667,44.8
986,34.13333333333333,-537.6,57.6
987,40.53333333333333,-544.0,46.93333333333333
988,38.4,-539.7333333333333,51.2
989,36.266666666666666,-539.7333333333333,46.93333333333333
990,27.733333333333334,-531.2,55.46666666666667
991,32.0,-533.3333333333334,55.46666666666667
992,32.0,-535.4666666666667,72.53333333333333
993,23.466666666666665,-535.4666666666667,59.733333333333334
994,25.6,-535.4666666666667,57.6
995,23.466666666666665,-533.3333333333334,66.13333333333333
996,19.2,-531.2,68.26666666666667
997,25.6,-541.8666666666667,76.8
998,14.933333333333334,-533.3333333333334,72.53333333333333
999,17.066666666666666,-533.3333333333334,66.13333333333333
1000,14.933333333333334,-531.2,61.86666666666667
1001,14.933333333333334,-535.4666666666667,68.26666666666667
1002,10.666666666666666,-535.4666666666667,66.13333333333333
1003,17.066666666666666,-537.6,68.26666666666667
1004,17.066666666666666,-537.6,72.53333333333333
1005,17.066666666666666,-535.4666666666667,68.26666666666667
1006,17.066666666666666,-541.8666666666667,68.26666666666667
1007,17.066666666666666,-539.7333333333333,66.13333333333333
1008,21.333333333333332,-537.6,68.26666666666667
1009,21.333333333333332,-541.8666666666667,68.26666666666667
1010,21.333333333333332,-535.4666666666667,64.0
1011,19.2,-531.2,70.4
1012,29.866666666666667,-544.0,70.4
1013,21.333333333333332,-539.7333333333333,64.0
1014,21.333333333333332,-552.5333333333333,61.86666666666667
1015,25.6,-533.3333333333334,70.4
1016,21.333333333333332,-531.2,70.4
1017,21.333333333333332,-535.4666666666667,68.26666666666667
1018,19.2,-537.6,66.13333333333333
1019,21.333333333333332,-535.4666666666667,66.13333333333333
1020,17.066666666666666,-537.6,66.13333333333333
1021,21.333333333333332,-531.2,72.53333333333333
1022,17.066666666666666,-531.2,57.6
1023,21.333333333333332,-539.7333333333333,68.26666666666667
1024,21.333333333333332,-537.6,61.86666666666667
1025,17.066666666666666,-541.8666666666667,66.13333333333333
1026,14.933333333333334,-539.7333333333333,59.733333333333334
1027,25.6,-535.4666666666667,64.0
1028,21.333333333333332,-544.0,64.0
1029,27.733333333333334,-539.7333333333333,66.13333333333333
1030,23.466666666666665,-537.6,72.53333333333333
1031,25.6,-541.8666666666667,76.8
1032,23.466666666666665,-544.0,68.26666666666667
1033,29.866666666666667,-533.3333333333334,66.13333333333333
1034,29.866666666666667,-531.2,76.8
1035,19.2,-533.3333333333334,55.46666666666667
1036,17.066666666666666,-544.0,55.46666666666667
1037,29.866666666666667,-529.0666666666666,66.13333333333333
1038,21.333333333333332,-533.3333333333334,72.53333333333333
1039,29.866666666666667,-531.2,68.26666666666667
1040,25.6,-535.4666666666667,70.4
1041,25.6,-535.4666666666667,70.4
1042,23.466666666666665,-535.4666666666667,78.93333333333334
1043,19.2,-535.4666666666667,70.4
1044,23.466666666666665,-546.1333333333333,68.26666666666667
1045,21.333333333333332,-539.7333333333333,78.93333333333334
1046,25.6,-537.6,78.93333333333334
1047,23.466666666666665,-544.0,76.8
1048,19.2,-544.0,68.26666666666667
1049,23.466666666666665,-544.0,74.66666666666667
1050,19.2,-539.7333333333333,74.66666666666667
1051,17.066666666666666,-541.8666666666667,68.26666666666667
1052,21.333333333333332,-533.3333333333334,72.53333333333333
1053,21.333333333333332,-535.4666666666667,72.53333333333333
1054,21.333333333333332,-535.4666666666667,70.4
1055,17.066666666666666,-541.8666666666667,70.4
1056,19.2,-539.7333333333333,66.13333333333333
1057,29.866666666666667,-544.0,53.333333333333336
1058,25.6,-539.7333333333333,76.8
1059,23.466666666666665,-537.6,74.66666666666667
1060,14.933333333333334,-533.3333333333334,72.53333333333333
1061,27.733333333333334,-541.8666666666667,66.13333333333333
1062,17.066666666666666,-535.4666666666667,74.66666666666667
1063,23.466666666666665,-533.3333333333334,72.53333333333333
1064,23.466666666666665,-533.3333333333334,74.66666666666667
1065,23.466666666666665,-544.0,68.26666666666667
1066,25.6,-541.8666666666667,76.8
1067,29.866666666666667,-539.7333333333333,72.53333333333333
1068,19.2,-539.7333333333333,78.93333333333334
1069,14.933333333333334,-535.4666666666667,87.46666666666667
1070,14.933333333333334,-537.6,87.46666666666667
1071,12.8,-535.4666666666667,85.33333333333333
1072,21.333333333333332,-537.6,85.33333333333333
1073,19.2,-535.4666666666667,83.2
1074,19.2,-535.4666666666667,81.06666666666666
1075,19.2,-539.7333333333333,83.2
1076,27.733333333333334,-533.3333333333334,83.2
1077,17.066666666666666,-533.3333333333334,72.53333333333333
1078,14.933333333333334,-529.0666666666666,81.06666666666666
1079,10.666666666666666,-537.6,76.8
1080,23.466666666666665,-535.4666666666667,81.06666666666666
1081,17.066666666666666,-533.3333333333334,70.4
1082,14.933333333333334,-535.4666666666667,78.93333333333334
1083,19.2,-535.4666666666667,81.06666666666666
1084,19.2,-533.3333333333334,78.93333333333334
1085,23.466666666666665,-541.8666666666667,76.8
1086,21.333333333333332,-533.3333333333334,83.2
1087,23.466666666666665,-533.3333333333334,78.93333333333334
1088,27.733333333333334,-541.8666666666667,74.66666666666667
1089,25.6,-533.3333333333334,83.2
1090,25.6,-537.6,83.2
1091,23.466666666666665,-535.4666666666667,76.8
1092,23.466666666666665,-537.6,70.4
1093,25.6,-533.3333333333334,74.66666666666667
1094,27.733333333333334,-535.4666666666667,74.66666666666667
1095,23.466666666666665,-533.3333333333334,72.53333333333333
1096,27.733333333333334,-537.6,74.66666666666667
1097,29.866666666666667,-533.3333333333334,78.93333333333334
1098,29.866666666666667,-529.0666666666666,72.53333333333333
1099,36.266666666666666,-533.3333333333334,76.8
1100,25.6,-529.0666666666666,78.93333333333334
1101,40.53333333333333,-533.3333333333334,72.53333333333333
1102,32.0,-529.0666666666666,76.8
1103,29.866666666666667,-531.2,68.26666666666667
1104,32.0,-529.0666666666666,72.53333333333333
1105,34.13333333333333,-535.4666666666667,78.93333333333334
1106,34.13333333333333,-529.0666666666666,83.2
1107,32.0,-533.3333333333334,76.8
1108,32.0,-531.2,83.2
1109,25.6,-535.4666666666667,78.93333333333334
1110,19.2,-531.2,76.8
1111,21.333333333333332,-541.8666666666667,81.06666666666666
1112,14.933333333333334,-537.6,74.66666666666667
1113,23.466666666666665,-541.8666666666667,74.66666666666667
1114,10.666666666666666,-546.1333333333333,68.26666666666667
1115,8.533333333333333,-541.8666666666667,66.13333333333333
1116,12.8,-541.8666666666667,66.13333333333333
1117,10.666666666666666,-541.8666666666667,66.13333333333333
1118,12.8,-541.8666666666667,64.0
1119,17.066666666666666,-541.8666666666667,76.8
1120,17.066666666666666,-539.7333333333333,74.66666666666667
1121,12.8,-535.4666666666667,76.8
1122,8.533333333333333,-537.6,72.53333333333333
1123,8.533333333333333,-533.3333333333334,78.93333333333334
1124,6.4,-529.0666666666666,74.66666666666667
1125,19.2,-531.2,83.2
1126,10.666666666666666,-531.2,81.06666666666666
1127,10.666666666666666,-529.0666666666666,85.33333333333333
1128,10.666666666666666,-533.3333333333334,81.06666666666666
1129,6.4,-535.4666666666667,85.33333333333333
1130,6.4,-533.3333333333334,76.8
1131,14.933333333333334,-533.3333333333334,83.2
1132,12.8,-535.4666666666667,83.2
1133,10.666666666666666,-541.8666666666667,83.2
1134,8.533333333333333,-539.7333333333333,85.33333333333333
1135,10.666666666666666,-537.6,74.66666666666667
1136,8.533333333333333,-535.4666666666667,81.06666666666666
1137,21.333333333333332,-533.3333333333334,85.33333333333333
1138,19.2,-533.3333333333334,85.33333333333333
1139,14.933333333333334,-535.4666666666667,87.46666666666667
1140,19.2,-533.3333333333334,81.06666666666666
1141,14.933333333333334,-531.2,76.8
1142,21.333333333333332,-541.8666666666667,85.33333333333333
1143,19.2,-533.3333333333334,83.2
1144,23.466666666666665,-535.4666666666667,81.06666666666666
1145,14.933333333333334,-529.0666666666666,81.06666666666666
1146,21.333333333333332,-531.2,76.8
1147,12.8,-531.2,76.8
1148,19.2,-531.2,74.66666666666667
1149,23.466666666666665,-535.4666666666667,78.93333333333334
1150,25.6,-537.6,78.93333333333334
1151,25.6,-537.6,76.8
1152,29.866666666666667,-537.6,83.2
1153,27.733333333333334,-537.6,76.8
1154,21.333333333333332,-541.8666666666667,78.93333333333334
1155,27.733333333333334,-537.6,76.8
1156,25.6,-535.4666666666667,81.06666666666666
1157,29.866666666666667,-539.7333333333333,74.66666666666667
1158,27.733333333333334,-537.6,74.66666666666667
1159,27.733333333333334,-535.4666666666667,74.66666666666667
1160,32.0,-539.7333333333333,76.8
1161,23.466666666666665,-533.3333333333334,81.06666666666666
1162,21.333333333333332,-531.2,74.66666666666667
1163,21.333333333333332,-539.7333333333333,76.8
1164,23.466666666666665,-541.8666666666667,81.06666666666666
1165,27.733333333333334,-533.3333333333334,70.4
1166,27.733333333333334,-537.6,76.8
1167,21.333333333333332,-535.4666666666667,76.8
1168,21.333333333333332,-529.0666666666666,78.93333333333334
1169,23.466666666666665,-533.3333333333334,72.53333333333333
1170,21.333333333333332,-541.8666666666667,83.2
1171,23.466666666666665,-537.6,76.8
1172,21.333333333333332,-535.4666666666667,74.66666666666667
1173,17.066666666666666,-537.6,83.2
1174,14.933333333333334,-535.4666666666667,76.8
1175,14.933333333333334,-533.3333333333334,78.93333333333334
1176,21.333333333333332,-541.8666666666667,72.53333333333333
1177,19.2,-533.3333333333334,76.8
1178,21.333333333333332,-537.6,74.66666666666667
1179,17.066666666666666,-537.6,74.66666666666667
1180,14.933333333333334,-533.3333333333334,72.53333333333333
1181,19.2,-535.4666666666667,74.66666666666667
1182,21.333333333333332,-533.3333333333334,74.66666666666667
1183,17.066666666666666,-537.6,81.06666666666666
1184,14.933333333333334,-541.8666666666667,76.8
1185,19.2,-535.4666666666667,83.2
1186,21.333333333333332,-531.2,74.66666666666667
1187,25.6,-535.4666666666667,76.8
1188,21.333333333333332,-535.4666666666667,74.66666666666667
1189,27.733333333333334,-541.8666666666667,78.93333333333334
1190,21.333333333333332,-537.6,81.06666666666666
1191,21.333333333333332,-539.7333333333333,76.8
1192,25.6,-539.7333333333333,74.66666666666667
1193,23.466666666666665,-541.8666666666667,74.66666666666667
1194,25.6,-541.8666666666667,76.8
1195,25.6,-541.8666666666667,76.8
1196,14.933333333333334,-537.6,81.06666666666666
1197,19.2,-541.8666666666667,78.93333333333334
1198,25.6,-541.8666666666667,70.4
1199,23.466666666666665,-537.6,72.53333333333333
1200,23.466666666666665,-539.7333333333333,74.66666666666667
1201,25.6,-535.4666666666667,70.4
1202,19.2,-537.6,70.4
1203,17.066666666666666,-535.4666666666667,64.0
1204,19.2,-535.4666666666667,61.86666666666667
1205,17.066666666666666,-539.7333333333333,66.13333333333333
1206,17.066666666666666,-539.7333333333333,64.0
1207,21.333333333333332,-539.7333333333333,66.13333333333333
1208,23.466666666666665,-539.7333333333333,70.4
1209,12.8,-535.4666666666667,76.8
1210,19.2,-531.2,72.53333333333333
1211,25.6,-539.7333333333333,70.4
1212,23.466666666666665,-537.6,68.26666666666667
1213,19.2,-537.6,68.26666666666667
1214,19.2,-544.0,72.53333333333333
1215,21.333333333333332,-535.4666666666667,70.4
1216,23.466666666666665,-541.8666666666667,70.4
1217,23.466666666666665,-537.6,68.26666666666667
1218,19.2,-539.7333333333333,83.2
1219,21.333333333333332,-539.7333333333333,66.13333333333333
1220,21.333333333333332,-535.4666666666667,64.0
1221,25.6,-539.7333333333333,74.66666666666667
1222,23.466666666666665,-541.8666666666667,70.4
1223,23.466666666666665,-539.7333333333333,70.4
1224,21.333333333333332,-539.7333333333333,66.13333333333333
1225,19.2,-539.7333333333333,76.8
1226,23.466666666666665,-535.4666666666667,66.13333333333333
1227,21.333333333333332,-537.6,64.0
1228,27.733333333333334,-539.7333333333333,66.13333333333333
1229,19.2,-535.4666666666667,70.4
1230,19.2,-544.0,72.53333333333333
1231,25.6,-537.6,64.0
1232,21.333333333333332,-537.6,72.53333333333333
1233,23.466666666666665,-539.7333333333333,76.8
1234,17.066666666666666,-539.7333333333333,68.26666666666667
1235,21.333333333333332,-544.0,64.0
1236,21.333333333333332,-535.4666666666667,66.13333333333333
1237,19.2,-535.4666666666667,72.53333333333333
1238,19.2,-541.8666666666667,68.26666666666667
1239,27.733333333333334,-537.6,68.26666666666667
1240,21.333333333333332,-544.0,74.66666666666667
1241,25.6,-539.7333333333333,66.13333333333333
1242,25.6,-544.0,64.0
1243,23.466666666666665,-537.6,66.13333333333333
1244,19.2,-535.4666666666667,68.26666666666667
1245,27.733333333333334,-539.7333333333333,68.26666666666667
1246,29.866666666666667,-541.8666666666667,59.733333333333334
1247,23.466666666666665,-531.2,61.86666666666667
1248,25.6,-541.8666666666667,70.4
1249,25.6,-539.7333333333333,66.13333333333333
1250,21.333333333333332,-535.4666666666667,64.0
1251,25.6,-535.4666666666667,68.26666666666667
1252,17.066666666666666,-533.3333333333334,51.2
1253,23.466666666666665,-537.6,70.4
1254,25.6,-539.7333333333333,70.4
1255,21.333333333333332,-539.7333333333333,70.4
1256,21.333333333333332,-539.7333333333333,68.26666666666667
1257,17.066666666666666,-541.8666666666667,66.13333333333333
1258,10.666666666666666,-535.4666666666667,74.66666666666667
1259,19.2,-541.8666666666667,76.8
1260,17.066666666666666,-541.8666666666667,68.26666666666667
1261,23.466666666666665,-548.2666666666667,61.86666666666667
1262,14.933333333333334,-541.8666666666667,66.13333333333333
1263,17.066666666666666,-537.6,55.46666666666667
1264,17.066666666666666,-533.3333333333334,66.13333333333333
1265,23.466666666666665,-535.4666666666667,55.46666666666667
1266,21.333333333333332,-537.6,59.733333333333334
1267,19.2,-537.6,57.6
1268,23.466666666666665,-539.7333333333333,59.733333333333334
1269,21.333333333333332,-539.7333333333333,61.86666666666667
1270,25.6,-541.8666666666667,64.0
1271,23.466666666666665,-541.8666666666667,66.13333333333333
1272,21.333333333333332,-539.7333333333333,68.26666666666667
1273,23.466666666666665,-537.6,61.86666666666667
1274,21.333333333333332,-541.8666666666667,70.4
1275,27.733333333333334,-539.7333333333333,76.8
1276,27.733333333333334,-544.0,70.4
1277,25.6,-541.8666666666667,72.53333333333333
1278,29.866666666666667,-539.7333333333333,66.13333333333333
1279,25.6,-546.1333333333333,76.8
1280,27.733333333333334,-537.6,78.93333333333334
1281,34.13333333333333,-539.7333333333333,66.13333333333333
1282,21.333333333333332,-535.4666666666667,66.13333333333333
1283,25.6,-537.6,70.4
1284,23.466666666666665,-535.4666666666667,70.4
1285,21.333333333333332,-535.4666666666667,66.13333333333333
1286,29.866666666666667,-539.7333333333333,64.0
1287,25.6,-537.6,61.86666666666667
1288,21.333333333333332,-535.4666666666667,66.13333333333333
1289,25.6,-535.4666666666667,64.0
1290,19.2,-539.7333333333333,74.66666666666667
1291,14.933333333333334,-541.8666666666667,68.26666666666667
1292,21.333333333333332,-544.0,72.53333333333333
1293,17.066666666666666,-541.8666666666667,72.53333333333333
1294,12.8,-535.4666666666667,66.13333333333333
1295,12.8,-537.6,66.13333333333333
1296,19.2,-537.6,68.26666666666667
1297,25.6,-537.6,81.06666666666666
1298,19.2,-541.8666666666667,66.13333333333333
1299,17.066666666666666,-533.3333333333334,64.0
1300,21.333333333333332,-535.4666666666667,68.26666666666667
1301,23.466666666666665,-539.7333333333333,70.4
1302,21.333333333333332,-537.6,66.13333333333333
1303,23.466666666666665,-539.7333333333333,68.26666666666667
1304,21.333333333333332,-537.6,76.8
1305,21.333333333333332,-537.6,70.4
1306,21.333333333333332,-535.4666666666667,68.26666666666667
1307,19.2,-539.7333333333333,68.26666666666667
1308,17.066666666666666,-539.7333333333333,68.26666666666667
1309,19.2,-537.6,72.53333333333333
1310,17.066666666666666,-537.6,64.0
1311,23.466666666666665,-535.4666666666667,59.733333333333334
1312,19.2,-537.6,68.26666666666667
1313,19.2,-539.7333333333333,64.0
1314,21.333333333333332,-541.8666666666667,66.13333333333333
1315,23.466666666666665,-537.6,61.86666666666667
1316,25.6,-544.0,61.86666666666667
1317,23.466666666666665,-541.8666666666667,64.0
1318,25.6,-548.2666666666667,57.6
1319,40.53333333333333,-558.9333333333333,72.53333333333333
1320,25.6,-541.8666666666667,59.733333333333334
1321,21.333333333333332,-537.6,61.86666666666667
1322,25.6,-537.6,55.46666666666667
1323,27.733333333333334,-535.4666666666667,59.733333333333334
1324,25.6,-533.3333333333334,59.733333333333334
1325,34.13333333333333,-533.3333333333334,66.13333333333333
1326,21.333333333333332,-533.3333333333334,57.6
1327,27.733333333333334,-539.7333333333333,64.0
1328,32.0,-537.6,55.46666666666667
1329,23.466666666666665,-535.4666666666667,61.86666666666667
1330,23.466666666666665,-533.3333333333334,64.0
1331,25.6,-537.6,61.86666666666667
1332,21.333333333333332,-531.2,57.6
1333,25.6,-541.8666666666667,57.6
1334,25.6,-539.7333333333333,70.4
1335,23.466666666666665,-539.7333333333333,64.0
1336,23.466666666666665,-544.0,59.733333333333334
1337,23.466666666666665,-539.7333333333333,66.13333333333333
1338,29.866666666666667,-546.1333333333333,74.66666666666667
1339,19.2,-539.7333333333333,68.26666666666667
1340,19.2,-537.6,64.0
1341,19.2,-537.6,72.53333333333333
1342,19.2,-544.0,70.4
1343,23.466666666666665,-544.0,66.13333333333333
1344,19.2,-541.8666666666667,72.53333333333333
1345,17.066666666666666,-537.6,68.26666666666667
1346,17.066666666666666,-537.6,66.13333333333333
1347,17.066666666666666,-544.0,76.8
1348,27.733333333333334,-535.4666666666667,68.26666666666667
1349,17.066666666666666,-535.4666666666667,66.13333333333333
1350,19.2,-541.8666666666667,70.4
1351,27.733333333333334,-537.6,66.13333333333333
1352,17.066666666666666,-535.4666666666667,66.13333333333333
1353,19.2,-539.7333333333333,66.13333333333333
1354,21.333333333333332,-535.4666666666667,66.13333333333333
1355,19.2,-546.1333333333333,66.13333333333333
1356,21.333333333333332,-541.8666666666667,66.13333333333333
1357,23.466666666666665,-541.8666666666667,59.733333333333334
1358,25.6,-546.1333333333333,76.8
1359,19.2,-537.6,61.86666666666667
1360,23.466666666666665,-537.6,76.8
1361,17.066666666666666,-533.3333333333334,70.4
1362,29.866666666666667,-529.0666666666666,78.93333333333334
1363,23.466666666666665,-535.4666666666667,66.13333333333333
1364,23.466666666666665,-533.3333333333334,61.86666666666667
1365,19.2,-537.6,66.13333333333333
1366,21.333333333333332,-544.0,68.26666666666667
1367,23.466666666666665,-535.4666666666667,74.66666666666667
1368,25.6,-541.8666666666667,70.4
1369,25.6,-537.6,68.26666666666667
1370,21.333333333333332,-533.3333333333334,70.4
1371,32.0,-535.4666666666667,66.13333333333333
1372,23.466666666666665,-537.6,72.53333333333333
1373,25.6,-535.4666666666667,68.26666666666667
1374,23.466666666666665,-535.4666666666667,66.13333333333333
1375,25.6,-533.3333333333334,74.66666666666667
1376,21.333333333333332,-541.8666666666667,70.4
1377,23.466666666666665,-537.6,74.66666666666667
1378,29.866666666666667,-546.1333333333333,61.86666666666667
1379,29.866666666666667,-537.6,74.66666666666667
1380,25.6,-533.3333333333334,70.4
1381,25.6,-539.7333333333333,68.26666666666667
1382,17.066666666666666,-539.7333333333333,72.53333333333333
1383,25.6,-535.4666666666667,70.4
1384,32.0,-544.0,76.8
1385,21.333333333333332,-533.3333333333334,68.26666666666667
1386,32.0,-541.8666666666667,76.8
1387,21.333333333333332,-544.0,70.4
1388,23.466666666666665,-535.4666666666667,72.53333333333333
1389,25.6,-541.8666666666667,70.4
1390,25.6,-541.8666666666667,76.8
1391,17.066666666666666,-531.2,81.06666666666666
1392,12.8,-533.3333333333334,76.8
1393,25.6,-537.6,78.93333333333334
1394,23.466666666666665,-531.2,72.53333333333333
1395,23.466666666666665,-535.4666666666667,76.8
1396,21.333333333333332,-537.6,78.93333333333334
1397,14.933333333333334,-533.3333333333334,72.53333333333333
1398,17.066666666666666,-535.4666666666667,70.4
1399,19.2,-544.0,70.4
1400,19.2,-537.6,81.06666666666666
1401,19.2,-539.7333333333333,72.53333333333333
1402,19.2,-537.6,74.66666666666667
1403,19.2,-537.6,68.26666666666667
1404,23.466666666666665,-535.4666666666667,74.66666666666667
1405,14.933333333333334,-531.2,72.53333333333333
1406,21.333333333333332,-531.2,72.53333333333333
1407,21.333333333333332,-529.0666666666666,66.13333333333333
1408,17.066666666666666,-533.3333333333334,66.13333333333333
1409,19.2,-533.3333333333334,68.26666666666667
1410,25.6,-539.7333333333333,66.13333333333333
1411,21.333333333333332,-537.6,66.13333333333333
1412,23.466666666666665,-546.1333333333333,78.93333333333334
1413,23.466666666666665,-541.8666666666667,74.66666666666667
1414,19.2,-537.6,68.26666666666667
1415,23.466666666666665,-539.7333333333333,72.53333333333333
1416,14.933333333333334,-544.0,64.0
1417,14.933333333333334,-535.4666666666667,78.93333333333334
1418,23.466666666666665,-535.4666666666667,70.4
1419,23.466666666666665,-541.8666666666667,76.8
1420,23.466666666666665,-533.3333333333334,81.06666666666666
1421,23.466666666666665,-533.3333333333334,74.66666666666667
1422,21.333333333333332,-533.3333333333334,78.93333333333334
1423,19.2,-537.6,72.53333333333333
1424,17.066666666666666,-537.6,76.8
1425,14.933333333333334,-533.3333333333334,76.8
1426,17.066666666666666,-531.2,74.66666666666667
1427,17.066666666666666,-531.2,78.93333333333334
1428,14.933333333333334,-541.8666666666667,81.06666666666666
1429,17.066666666666666,-537.6,85.33333333333333
1430,14.933333333333334,-535.4666666666667,76.8
1431,19.2,-533.3333333333334,70.4
1432,17.066666666666666,-541.8666666666667,70.4
1433,17.066666666666666,-533.3333333333334,74.66666666666667
1434,14.933333333333334,-533.3333333333334,78.93333333333334
1435,17.066666666666666,-537.6,72.53333333333333
1436,25.6,-537.6,76.8
1437,21.333333333333332,-535.4666666666667,70.4
1438,14.933333333333334,-533.3333333333334,76.8
1439,19.2,-537.6,81.06666666666666
1440,23.466666666666665,-541.8666666666667,78.93333333333334
1441,29.866666666666667,-539.7333333333333,70.4
1442,17.066666666666666,-529.0666666666666,74.66666666666667
1443,19.2,-539.7333333333333,78.93333333333334
1444,23.466666666666665,-541.8666666666667,72.53333333333333
1445,17.066666666666666,-535.4666666666667,74.66666666666667
1446,25.6,-533.3333333333334,72.53333333333333
1447,23.466666666666665,-533.3333333333334,83.2
1448,17.066666666666666,-537.6,83.2
1449,17.066666666666666,-537.6,76.8
1450,21.333333333333332,-533.3333333333334,78.93333333333334
1451,17.066666666666666,-535.4666666666667,74.66666666666667
1452,17.066666666666666,-539.7333333333333,81.06666666666666
1453,23.466666666666665,-535.4666666666667,76.8
1454,12.8,-537.6,72.53333333333333
1455,19.2,-535.4666666666667,76.8
1456,19.2,-537.6,66.13333333333333
1457,17.066666666666666,-533.3333333333334,78.93333333333334
1458,23.466666666666665,-531.2,61.86666666666667
1459,25.6,-533.3333333333334,68.26666666666667
1460,19.2,-533.3333333333334,72.53333333333333
1461,21.333333333333332,-535.4666666666667,68.26666666666667
1462,25.6,-533.3333333333334,66.13333333333333
1463,25.6,-539.7333333333333,68.26666666666667
1464,21.333333333333332,-529.0666666666666,74.66666666666667
1465,17.066666666666666,-531.2,61.86666666666667
1466,19.2,-531.2,72.53333333333333
1467,19.2,-535.4666666666667,68.26666666666667
1468,21.333333333333332,-533.3333333333334,64.0
1469,23.466666666666665,-535.4666666666667,66.13333333333333
1470,17.066666666666666,-531.2,72.53333333333333
1471,25.6,-529.0666666666666,74.66666666666667
1472,14.933333333333334,-537.6,72.53333333333333
1473,17.066666666666666,-541.8666666666667,68.26666666666667
1474,12.8,-539.7333333333333,76.8
1475,19.2,-539.7333333333333,78.93333333333334
1476,14.933333333333334,-533.3333333333334,70.4
1477,21.333333333333332,-544.0,74.66666666666667
1478,14.933333333333334,-537.6,78.93333333333334
1479,25.6,-546.1333333333333,78.93333333333334
1480,19.2,-550.4,81.06666666666666
1481,17.066666666666666,-539.7333333333333,81.06666666666666
1482,21.333333333333332,-541.8666666666667,76.8
1483,14.933333333333334,-537.6,72.53333333333333
1484,19.2,-535.4666666666667,74.66666666666667
1485,10.666666666666666,-539.7333333333333,76.8
1486,14.933333333333334,-541.8666666666667,72.53333333333333
1487,14.933333333333334,-539.7333333333333,70.4
1488,17.066666666666666,-539.7333333333333,76.8
1489,23.466666666666665,-531.2,81.06666666666666
1490,14.933333333333334,-537.6,76.8
1491,10.666666666666666,-541.8666666666667,70.4
1492,23.466666666666665,-537.6,74.66666666666667
1493,21.333333333333332,-535.4666666666667,72.53333333333333
1494,12.8,-533.3333333333334,72.53333333333333
1495,23.466666666666665,-537.6,76.8
1496,14.933333333333334,-535.4666666666667,76.8
1497,17.066666666666666,-535.4666666666667,72.53333333333333
1498,17.066666666666666,-535.4666666666667,72.53333333333333
1499,14.933333333333334,-544.0,76.8
1500,19.2,-544.0,81.06666666666666
1501,21.333333333333332,-539.7333333333333,83.2
1502,23.466666666666665,-546.1333333333333,74.66666666666667
1503,17.066666666666666,-533.3333333333334,72.53333333333333
1504,12.8,-535.4666666666667,74.66666666666667
1505,25.6,-539.7333333333333,68.26666666666667
1506,12.8,-537.6,70.4
1507,19.2,-541.8666666666667,70.4
1508,23.466666666666665,-533.3333333333334,68.26666666666667
1509,14.933333333333334,-535.4666666666667,68.26666666666667
1510,23.466666666666665,-533.3333333333334,61.86666666666667
1511,23.466666666666665,-535.4666666666667,64.0
1512,23.466666666666665,-535.4666666666667,59.733333333333334
1513,29.866666666666667,-535.4666666666667,59.733333333333334
1514,21.333333333333332,-535.4666666666667,57.6
1515,32.0,-550.4,83.2
1516,27.733333333333334,-526.9333333333333,64.0
1517,25.6,-522.6666666666666,66.13333333333333
1518,25.6,-529.0666666666666,49.06666666666666
1519,27.733333333333334,-480.0,21.333333333333332
1520,17.066666666666666,-454.4,10.666666666666666
1521,12.8,-475.73333333333335,-27.733333333333334
1522,10.666666666666666,-413.8666666666667,-93.86666666666666
1523,23.466666666666665,-424.5333333333333,-149.33333333333334
1524,42.666666666666664,-439.46666666666664,-157.86666666666667
1525,23.466666666666665,-482.1333333333333,-179.2
1526,27.733333333333334,-518.4,-172.8
1527,32.0,-558.9333333333333,-147.2
1528,36.266666666666666,-603.7333333333333,-104.53333333333333
1529,29.866666666666667,-614.4,-70.4
1530,34.13333333333333,-616.5333333333333,-76.8
1531,27.733333333333334,-608.0,-64.0
1532,29.866666666666667,-584.5333333333333,-29.866666666666667
1533,32.0,-612.2666666666667,10.666666666666666
1534,25.6,-618.6666666666666,27.733333333333334
1535,66.13333333333333,-608.0,51.2
1536,44.8,-631.4666666666667,44.8
1537,36.266666666666666,-627.2,61.86666666666667
1538,83.2,-603.7333333333333,49.06666666666666
1539,74.66666666666667,-573.8666666666667,21.333333333333332
1540,53.333333333333336,-563.2,87.46666666666667
1541,55.46666666666667,-529.0666666666666,81.06666666666666
1542,53.333333333333336,-516.2666666666667,102.4
1543,46.93333333333333,-497.06666666666666,134.4
1544,42.666666666666664,-503.46666666666664,157.86666666666667
1545,44.8,-514.1333333333333,172.8
1546,25.6,-524.8,187.73333333333332
1547,38.4,-503.46666666666664,189.86666666666667
1548,6.4,-480.0,170.66666666666666
1549,4.266666666666667,-456.5333333333333,196.26666666666665
1550,-19.2,-458.6666666666667,153.6
1551,-59.733333333333334,-437.3333333333333,204.8
1552,-40.53333333333333,-420.26666666666665,183.46666666666667
1553,-38.4,-403.2,157.86666666666667
1554,-53.333333333333336,-458.6666666666667,110.93333333333334
1555,-64.0,-458.6666666666667,98.13333333333333
1556,-66.13333333333333,-452.26666666666665,78.93333333333334
1557,-66.13333333333333,-454.4,74.66666666666667
1558,-61.86666666666667,-486.4,44.8
1559,-46.93333333333333,-524.8,0.0
1560,-42.666666666666664,-533.3333333333334,-23.466666666666665
1561,-38.4,-537.6,-38.4
1562,-25.6,-548.2666666666667,-42.666666666666664
1563,-19.2,-558.9333333333333,-49.06666666666666
1564,4.266666666666667,-584.5333333333333,-51.2
1565,34.13333333333333,-580.2666666666667,-40.53333333333333
1566,34.13333333333333,-554.6666666666666,-29.866666666666667
1567,17.066666666666666,-565.3333333333334,-21.333333333333332
1568,21.333333333333332,-558.9333333333333,-21.333333333333332
1569,-10.666666666666666,-531.2,-21.333333333333332
1570,-29.866666666666667,-497.06666666666666,-32.0
1571,-21.333333333333332,-494.93333333333334,23.466666666666665
1572,-17.066666666666666,-490.6666666666667,36.266666666666666
1573,-6.4,-494.93333333333334,44.8
1574,14.933333333333334,-505.59999999999997,61.86666666666667
1575,72.53333333333333,-524.8,64.0
1576,68.26666666666667,-567.4666666666667,81.06666666666666
1577,46.93333333333333,-539.7333333333333,89.6
1578,83.2,-544.0,93.86666666666666
1579,40.53333333333333,-535.4666666666667,166.4
1580,46.93333333333333,-537.6,177.06666666666666
1581,27.733333333333334,-548.2666666666667,209.06666666666666
1582,23.466666666666665,-556.8,194.13333333333333
1583,-17.066666666666666,-529.0666666666666,281.6
1584,-76.8,-499.2,294.4
1585,-85.33333333333333,-499.2,270.93333333333334
1586,-98.13333333333333,-492.8,305.06666666666666
1587,-128.0,-469.3333333333333,266.6666666666667
1588,-110.93333333333334,-473.59999999999997,260.26666666666665
1589,-100.26666666666667,-552.5333333333333,128.0
1590,-49.06666666666666,-674.1333333333333,29.866666666666667
1591,0.0,-740.2666666666667,-134.4
1592,38.4,-765.8666666666667,-230.4
1593,172.8,-742.4,-364.8
1594,192.0,-729.6,-443.73333333333335
1595,213.33333333333334,-659.2,-610.1333333333333
1596,179.2,-652.8,-680.5333333333333
1597,166.4,-718.9333333333333,-593.0666666666666
1598,89.6,-706.1333333333333,-580.2666666666667
1599,57.6,-723.2,-497.06666666666666
1600,14.933333333333334,-804.2666666666667,-430.93333333333334
1601,10.666666666666666,-904.5333333333333,-328.5333333333333
1602,4.266666666666667,-932.2666666666667,-352.0
1603,6.4,-934.4,-330.6666666666667
1604,-12.8,-923.7333333333333,-354.1333333333333
1605,-21.333333333333332,-908.8,-416.0
1606,-29.866666666666667,-908.8,-467.2
1607,-19.2,-866.1333333333333,-518.4
1608,14.933333333333334,-859.7333333333333,-486.4
1609,40.53333333333333,-821.3333333333334,-492.8
1610,66.13333333333333,-795.7333333333333,-507.73333333333335
1611,85.33333333333333,-789.3333333333334,-512.0
1612,83.2,-778.6666666666666,-520.5333333333333
1613,74.66666666666667,-778.6666666666666,-514.1333333333333
1614,64.0,-763.7333333333333,-541.8666666666667
1615,61.86666666666667,-744.5333333333333,-573.8666666666667
1616,17.066666666666666,-742.4,-588.8
1617,23.466666666666665,-753.0666666666666,-586.6666666666666
1618,4.266666666666667,-761.6,-610.1333333333333
1619,12.8,-761.6,-601.6
1620,19.2,-763.7333333333333,-610.1333333333333
1621,25.6,-765.8666666666667,-593.0666666666666
1622,42.666666666666664,-778.6666666666666,-573.8666666666667
1623,57.6,-793.6,-586.6666666666666
1624,38.4,-812.8,-571.7333333333333
1625,53.333333333333336,-814.9333333333333,-548.2666666666667
1626,42.666666666666664,-821.3333333333334,-531.2
1627,25.6,-810.6666666666666,-512.0
1628,25.6,-817.0666666666666,-505.59999999999997
1629,12.8,-812.8,-482.1333333333333
1630,12.8,-817.0666666666666,-469.3333333333333
1631,17.066666666666666,-817.0666666666666,-441.59999999999997
1632,25.6,-823.4666666666667,-445.8666666666667
1633,38.4,-825.6,-450.1333333333333
1634,42.666666666666664,-800.0,-430.93333333333334
1635,53.333333333333336,-793.6,-435.2
1636,44.8,-795.7333333333333,-407.46666666666664
1637,49.06666666666666,-795.7333333333333,-390.4
1638,55.46666666666667,-797.8666666666667,-375.46666666666664
1639,64.0,-802.1333333333333,-358.4
1640,61.86666666666667,-806.4,-343.46666666666664
1641,53.333333333333336,-819.2,-309.3333333333333
1642,55.46666666666667,-834.1333333333333,-292.26666666666665
1643,38.4,-832.0,-270.93333333333334
1644,55.46666666666667,-817.0666666666666,-281.6
1645,46.93333333333333,-808.5333333333333,-277.3333333333333
1646,42.666666666666664,-782.9333333333333,-247.46666666666667
1647,55.46666666666667,-768.0,-236.79999999999998
1648,61.86666666666667,-750.9333333333333,-219.73333333333332
1649,64.0,-744.5333333333333,-228.26666666666665
1650,61.86666666666667,-727.4666666666667,-232.53333333333333
1651,49.06666666666666,-712.5333333333333,-232.53333333333333
1652,38.4,-701.8666666666667,-215.46666666666667
1653,29.866666666666667,-686.9333333333333,-226.13333333333333
1654,23.466666666666665,-678.4,-198.4
1655,19.2,-669.8666666666667,-187.73333333333332
1656,29.866666666666667,-667.7333333333333,-179.2
1657,12.8,-661.3333333333334,-166.4
1658,6.4,-657.0666666666666,-145.06666666666666
1659,10.666666666666666,-652.8,-130.13333333333333
1660,17.066666666666666,-629.3333333333334,-142.93333333333334
1661,23.466666666666665,-616.5333333333333,-145.06666666666666
1662,0.0,-578.1333333333333,-153.6
1663,-51.2,-539.7333333333333,-166.4
1664,-74.66666666666667,-499.2,-147.2
1665,-61.86666666666667,-482.1333333333333,-138.66666666666666
1666,-36.266666666666666,-452.26666666666665,-140.8
1667,-17.066666666666666,-409.6,-151.46666666666667
1668,-6.4,-377.6,-166.4
1669,2.1333333333333333,-332.8,-166.4
1670,8.533333333333333,-290.1333333333333,-170.66666666666666
1671,8.533333333333333,-249.6,-179.2
1672,14.933333333333334,-209.06666666666666,-162.13333333333333
1673,23.466666666666665,-189.86666666666667,-166.4
1674,8.533333333333333,-166.4,-151.46666666666667
1675,10.666666666666666,-160.0,-142.93333333333334
1676,17.066666666666666,-136.53333333333333,-142.93333333333334
1677,32.0,-119.46666666666667,-149.33333333333334
1678,42.666666666666664,-100.26666666666667,-157.86666666666667
1679,32.0,-78.93333333333334,-149.33333333333334
1680,27.733333333333334,-57.6,-119.46666666666667
1681,36.266666666666666,-53.333333333333336,-134.4
1682,19.2,-61.86666666666667,-115.2
1683,4.266666666666667,-51.2,-104.53333333333333
1684,0.0,-51.2,-115.2
1685,-4.266666666666667,-55.46666666666667,-110.93333333333334
1686,0.0,-49.06666666666666,-113.06666666666666
1687,0.0,-55.46666666666667,-104.53333333333333
1688,-12.8,-64.0,-91.73333333333333
1689,-19.2,-70.4,-83.2
1690,-6.4,-98.13333333333333,-70.4
1691,-4.266666666666667,-108.8,-59.733333333333334
1692,-8.533333333333333,-121.6,-70.4
1693,21.333333333333332,-151.46666666666667,-74.66666666666667
1694,2.1333333333333333,-170.66666666666666,-38.4
1695,42.666666666666664,-209.06666666666666,-53.333333333333336
1696,66.13333333333333,-232.53333333333333,-40.53333333333333
1697,68.26666666666667,-241.06666666666666,-36.266666666666666
1698,66.13333333333333,-251.73333333333332,-34.13333333333333
1699,53.333333333333336,-251.73333333333332,-40.53333333333333
1700,29.866666666666667,-241.06666666666666,-34.13333333333333
1701,4.266666666666667,-219.73333333333332,-49.06666666666666
1702,-14.933333333333334,-192.0,-70.4
1703,-38.4,-149.33333333333334,-93.86666666666666
1704,-59.733333333333334,-121.6,-119.46666666666667
1705,-55.46666666666667,-100.26666666666667,-140.8
1706,-57.6,-61.86666666666667,-160.0
1707,-57.6,-51.2,-179.2
1708,-27.733333333333334,-21.333333333333332,-196.26666666666665
1709,-23.466666666666665,-6.4,-217.6
1710,-8.533333333333333,10.666666666666666,-234.66666666666666
1711,0.0,14.933333333333334,-241.06666666666666
1712,8.533333333333333,6.4,-251.73333333333332
1713,21.333333333333332,8.533333333333333,-264.5333333333333
1714,27.733333333333334,2.1333333333333333,-256.0
1715,38.4,-2.1333333333333333,-251.73333333333332
1716,38.4,-17.066666666666666,-236.79999999999998
1717,64.0,-38.4,-228.26666666666665
1718,72.53333333333333,-55.46666666666667,-209.06666666666666
1719,76.8,-85.33333333333333,-206.93333333333334
1720,78.93333333333334,-113.06666666666666,-215.46666666666667
1721,85.33333333333333,-160.0,-224.0
1722,87.46666666666667,-211.2,-232.53333333333333
1723,85.33333333333333,-260.26666666666665,-270.93333333333334
1724,87.46666666666667,-334.93333333333334,-302.93333333333334
1725,91.73333333333333,-398.93333333333334,-334.93333333333334
1726,89.6,-465.06666666666666,-369.06666666666666
1727,78.93333333333334,-539.7333333333333,-403.2
1728,53.333333333333336,-603.7333333333333,-441.59999999999997
1729,36.266666666666666,-667.7333333333333,-452.26666666666665
1730,25.6,-721.0666666666666,-462.93333333333334
1731,17.066666666666666,-759.4666666666667,-450.1333333333333
1732,4.266666666666667,-770.1333333333333,-420.26666666666665
1733,-2.1333333333333333,-776.5333333333333,-369.06666666666666
1734,0.0,-755.2,-305.06666666666666
1735,6.4,-721.0666666666666,-249.6
1736,27.733333333333334,-678.4,-211.2
1737,49.06666666666666,-622.9333333333333,-185.6
1738,46.93333333333333,-582.4,-179.2
1739,40.53333333333333,-537.6,-179.2
1740,23.466666666666665,-497.06666666666666,-181.33333333333334
1741,32.0,-471.46666666666664,-168.53333333333333
1742,29.866666666666667,-443.73333333333335,-166.4
1743,34.13333333333333,-441.59999999999997,-172.8
1744,40.53333333333333,-420.26666666666665,-181.33333333333334
1745,55.46666666666667,-426.6666666666667,-179.2
1746,59.733333333333334,-426.6666666666667,-174.93333333333334
1747,59.733333333333334,-430.93333333333334,-183.46666666666667
1748,51.2,-426.6666666666667,-181.33333333333334
1749,53.333333333333336,-435.2,-177.06666666666666
1750,34.13333333333333,-437.3333333333333,-172.8
1751,34.13333333333333,-439.46666666666664,-183.46666666666667
1752,10.666666666666666,-445.8666666666667,-170.66666666666666
1753,0.0,-450.1333333333333,-172.8
1754,-14.933333333333334,-471.46666666666664,-174.93333333333334
1755,-23.466666666666665,-492.8,-174.93333333333334
1756,-34.13333333333333,-522.6666666666666,-172.8
1757,-29.866666666666667,-548.2666666666667,-172.8
1758,-19.2,-576.0,-170.66666666666666
1759,-6.4,-584.5333333333333,-170.66666666666666
1760,6.4,-597.3333333333334,-168.53333333333333
1761,12.8,-599.4666666666667,-168.53333333333333
1762,29.866666666666667,-584.5333333333333,-166.4
1763,42.666666666666664,-573.8666666666667,-162.13333333333333
1764,51.2,-565.3333333333334,-157.86666666666667
1765,70.4,-541.8666666666667,-142.93333333333334
1766,74.66666666666667,-526.9333333333333,-140.8
1767,85.33333333333333,-518.4,-147.2
1768,87.46666666666667,-499.2,-145.06666666666666
1769,85.33333333333333,-486.4,-149.33333333333334
1770,93.86666666666666,-486.4,-155.73333333333332
1771,102.4,-477.8666666666667,-162.13333333333333
1772,115.2,-494.93333333333334,-147.2
1773,104.53333333333333,-492.8,-151.46666666666667
1774,102.4,-512.0,-147.2
1775,104.53333333333333,-516.2666666666667,-149.33333333333334
1776,93.86666666666666,-516.2666666666667,-145.06666666666666
1777,87.46666666666667,-529.0666666666666,-149.33333333333334
1778,78.93333333333334,-531.2,-153.6
1779,72.53333333333333,-529.0666666666666,-145.06666666666666
1780,66.13333333333333,-533.3333333333334,-155.73333333333332
1781,59.733333333333334,-537.6,-160.0
1782,51.2,-533.3333333333334,-153.6
1783,46.93333333333333,-531.2,-160.0
1784,38.4,-531.2,-151.46666666666667
1785,42.666666666666664,-529.0666666666666,-162.13333333333333
1786,29.866666666666667,-529.0666666666666,-157.86666666666667
1787,34.13333333333333,-529.0666666666666,-147.2
1788,25.6,-529.0666666666666,-160.0
1789,29.866666666666667,-529.0666666666666,-157.86666666666667
1790,36.266666666666666,-529.0666666666666,-157.86666666666667
1791,38.4,-533.3333333333334,-160.0
1792,46.93333333333333,-531.2,-153.6
1793,49.06666666666666,-531.2,-149.33333333333334
1794,55.46666666666667,-533.3333333333334,-160.0
1795,49.06666666666666,-524.8,-151.46666666666667
1796,53.333333333333336,-531.2,-151.46666666666667
1797,64.0,-535.4666666666667,-157.86666666666667
1798,72.53333333333333,-535.4666666666667,-162.13333333333333
1799,85.33333333333333,-531.2,-157.86666666666667
1800,85.33333333333333,-537.6,-160.0
1801,83.2,-531.2,-157.86666666666667
1802,78.93333333333334,-533.3333333333334,-157.86666666666667
1803,78.93333333333334,-531.2,-162.13333333333333
1804,91.73333333333333,-531.2,-160.0
1805,83.2,-529.0666666666666,-160.0
1806,72.53333333333333,-526.9333333333333,-151.46666666666667
1807,68.26666666666667,-529.0666666666666,-155.73333333333332
1808,61.86666666666667,-529.0666666666666,-160.0
1809,38.4,-526.9333333333333,-166.4
1810,21.333333333333332,-520.5333333333333,-166.4
1811,2.1333333333333333,-516.2666666666667,-164.26666666666665
1812,0.0,-518.4,-157.86666666666667
1813,-10.666666666666666,-514.1333333333333,-166.4
1814,-4.266666666666667,-529.0666666666666,-160.0
1815,-32.0,-531.2,-147.2
1816,-38.4,-539.7333333333333,-132.26666666666665
1817,-36.266666666666666,-537.6,-136.53333333333333
1818,-29.866666666666667,-535.4666666666667,-140.8
1819,-19.2,-537.6,-138.66666666666666
1820,0.0,-529.0666666666666,-138.66666666666666
1821,-2.1333333333333333,-522.6666666666666,-147.2
1822,4.266666666666667,-526.9333333333333,-142.93333333333334
1823,17.066666666666666,-522.6666666666666,-142.93333333333334
1824,34.13333333333333,-522.6666666666666,-149.33333333333334
1825,51.2,-529.0666666666666,-147.2
1826,64.0,-529.0666666666666,-138.66666666666666
1827,70.4,-533.3333333333334,-147.2
1828,81.06666666666666,-535.4666666666667,-136.53333333333333
1829,81.06666666666666,-529.0666666666666,-147.2
1830,74.66666666666667,-524.8,-149.33333333333334
1831,76.8,-524.8,-147.2
1832,72.53333333333333,-526.9333333333333,-142.93333333333334
1833,64.0,-529.0666666666666,-138.66666666666666
1834,46.93333333333333,-529.0666666666666,-134.4
1835,34.13333333333333,-524.8,-125.86666666666666
1836,25.6,-529.0666666666666,-132.26666666666665
1837,23.466666666666665,-531.2,-125.86666666666666
1838,27.733333333333334,-529.0666666666666,-128.0
1839,27.733333333333334,-533.3333333333334,-132.26666666666665
1840,29.866666666666667,-531.2,-134.4
1841,23.466666666666665,-533.3333333333334,-134.4
1842,21.333333333333332,-531.2,-134.4
1843,23.466666666666665,-531.2,-142.93333333333334
1844,36.266666666666666,-535.4666666666667,-142.93333333333334
1845,38.4,-529.0666666666666,-145.06666666666666
1846,34.13333333333333,-526.9333333333333,-151.46666666666667
1847,29.866666666666667,-526.9333333333333,-153.6
1848,40.53333333333333,-526.9333333333333,-149.33333333333334
1849,46.93333333333333,-522.6666666666666,-147.2
1850,36.266666666666666,-526.9333333333333,-149.33333333333334
1851,38.4,-526.9333333333333,-151.46666666666667
1852,38.4,-524.8,-149.33333333333334
1853,34.13333333333333,-518.4,-153.6
1854,34.13333333333333,-514.1333333333333,-164.26666666666665
1855,29.866666666666667,-505.59999999999997,-157.86666666666667
1856,29.866666666666667,-505.59999999999997,-149.33333333333334
1857,29.866666666666667,-499.2,-145.06666666666666
1858,34.13333333333333,-503.46666666666664,-138.66666666666666
1859,29.866666666666667,-505.59999999999997,-128.0
1860,32.0,-512.0,-113.06666666666666
1861,27.733333333333334,-514.1333333333333,-125.86666666666666
1862,27.733333333333334,-522.6666666666666,-115.2
1863,32.0,-531.2,-117.33333333333333
1864,40.53333333333333,-548.2666666666667,-119.46666666666667
1865,51.2,-563.2,-113.06666666666666
1866,51.2,-578.1333333333333,-119.46666666666667
1867,51.2,-584.5333333333333,-123.73333333333333
1868,44.8,-586.6666666666666,-145.06666666666666
1869,46.93333333333333,-599.4666666666667,-147.2
1870,55.46666666666667,-599.4666666666667,-153.6
1871,42.666666666666664,-599.4666666666667,-147.2
1872,38.4,-588.8,-140.8
1873,46.93333333333333,-588.8,-140.8
1874,51.2,-582.4,-140.8
1875,42.666666666666664,-573.8666666666667,-130.13333333333333
1876,40.53333333333333,-563.2,-121.6
1877,38.4,-550.4,-108.8
1878,40.53333333333333,-548.2666666666667,-117.33333333333333
1879,42.666666666666664,-546.1333333333333,-125.86666666666666
1880,38.4,-537.6,-128.0
1881,32.0,-529.0666666666666,-119.46666666666667
1882,36.266666666666666,-518.4,-147.2
1883,38.4,-529.0666666666666,-145.06666666666666
1884,38.4,-526.9333333333333,-149.33333333333334
1885,40.53333333333333,-526.9333333333333,-155.73333333333332
1886,40.53333333333333,-520.5333333333333,-155.73333333333332
1887,46.93333333333333,-518.4,-160.0
1888,44.8,-512.0,-160.0
1889,44.8,-512.0,-160.0
1890,44.8,-503.46666666666664,-153.6
1891,46.93333333333333,-507.73333333333335,-153.6
1892,42.666666666666664,-501.3333333333333,-149.33333333333334
1893,51.2,-514.1333333333333,-132.26666666666665
1894,55.46666666666667,-518.4,-130.13333333333333
1895,61.86666666666667,-529.0666666666666,-125.86666666666666
1896,66.13333333333333,-535.4666666666667,-130.13333333333333
1897,59.733333333333334,-537.6,-125.86666666666666
1898,64.0,-535.4666666666667,-130.13333333333333
1899,64.0,-529.0666666666666,-128.0
1900,61.86666666666667,-529.0666666666666,-123.73333333333333
1901,64.0,-514.1333333333333,-119.46666666666667
1902,61.86666666666667,-522.6666666666666,-134.4
1903,61.86666666666667,-512.0,-125.86666666666666
1904,57.6,-512.0,-134.4
1905,57.6,-514.1333333333333,-132.26666666666665
1906,51.2,-518.4,-132.26666666666665
1907,55.46666666666667,-516.2666666666667,-140.8
1908,51.2,-520.5333333333333,-142.93333333333334
1909,55.46666666666667,-526.9333333333333,-142.93333333333334
1910,55.46666666666667,-526.9333333333333,-136.53333333333333
1911,55.46666666666667,-518.4,-149.33333333333334
1912,64.0,-531.2,-145.06666666666666
1913,57.6,-529.0666666666666,-149.33333333333334
1914,64.0,-531.2,-155.73333333333332
1915,68.26666666666667,-533.3333333333334,-153.6
1916,72.53333333333333,-544.0,-168.53333333333333
1917,68.26666666666667,-541.8666666666667,-164.26666666666665
1918,66.13333333333333,-541.8666666666667,-162.13333333333333
1919,76.8,-548.2666666666667,-164.26666666666665
1920,74.66666666666667,-558.9333333333333,-149.33333333333334
1921,74.66666666666667,-563.2,-145.06666666666666
1922,72.53333333333333,-554.6666666666666,-145.06666666666666
1923,72.53333333333333,-550.4,-147.2
1924,78.93333333333334,-546.1333333333333,-138.66666666666666
1925,68.26666666666667,-531.2,-125.86666666666666
1926,70.4,-533.3333333333334,-132.26666666666665
1927,66.13333333333333,-529.0666666666666,-113.06666666666666
1928,64.0,-529.0666666666666,-110.93333333333334
1929,55.46666666666667,-531.2,-106.66666666666667
1930,66.13333333333333,-529.0666666666666,-106.66666666666667
1931,61.86666666666667,-535.4666666666667,-123.73333333333333
1932,61.86666666666667,-535.4666666666667,-117.33333333333333
1933,59.733333333333334,-535.4666666666667,-132.26666666666665
1934,64.0,-535.4666666666667,-138.66666666666666
1935,70.4,-541.8666666666667,-136.53333333333333
1936,70.4,-537.6,-145.06666666666666
1937,78.93333333333334,-541.8666666666667,-153.6
1938,83.2,-548.2666666666667,-157.86666666666667
1939,81.06666666666666,-550.4,-157.86666666666667
1940,81.06666666666666,-558.9333333333333,-164.26666666666665
1941,72.53333333333333,-558.9333333333333,-166.4
1942,72.53333333333333,-550.4,-168.53333333333333
1943,72.53333333333333,-548.2666666666667,-174.93333333333334
1944,61.86666666666667,-541.8666666666667,-168.53333333333333
1945,57.6,-531.2,-168.53333333333333
1946,42.666666666666664,-522.6666666666666,-162.13333333333333
1947,46.93333333333333,-514.1333333333333,-153.6
1948,44.8,-514.1333333333333,-151.46666666666667
1949,42.666666666666664,-507.73333333333335,-153.6
1950,34.13333333333333,-501.3333333333333,-149.33333333333334
1951,23.466666666666665,-497.06666666666666,-151.46666666666667
1952,17.066666666666666,-503.46666666666664,-151.46666666666667
1953,17.066666666666666,-514.1333333333333,-155.73333333333332
1954,4.266666666666667,-514.1333333333333,-149.33333333333334
1955,0.0,-520.5333333333333,-142.93333333333334
1956,0.0,-524.8,-142.93333333333334
1957,0.0,-529.0666666666666,-138.66666666666666
1958,0.0,-531.2,-140.8
1959,0.0,-529.0666666666666,-136.53333333333333
1960,2.1333333333333333,-533.3333333333334,-145.06666666666666
1961,2.1333333333333333,-535.4666666666667,-140.8
1962,6.4,-531.2,-130.13333333333333
1963,6.4,-531.2,-132.26666666666665
1964,2.1333333333333333,-535.4666666666667,-123.73333333333333
1965,4.266666666666667,-533.3333333333334,-121.6
1966,-4.266666666666667,-531.2,-119.46666666666667
1967,0.0,-533.3333333333334,-119.46666666666667
1968,2.1333333333333333,-529.0666666666666,-125.86666666666666
1969,-17.066666666666666,-529.0666666666666,-125.86666666666666
1970,-14.933333333333334,-524.8,-123.73333333333333
1971,-21.333333333333332,-524.8,-130.13333333333333
1972,-19.2,-526.9333333333333,-128.0
1973,-25.6,-524.8,-140.8
1974,-25.6,-531.2,-136.53333333333333
1975,-19.2,-529.0666666666666,-153.6
1976,-21.333333333333332,-529.0666666666666,-145.06666666666666
1977,-19.2,-539.7333333333333,-147.2
1978,-21.333333333333332,-541.8666666666667,-140.8
1979,-14.933333333333334,-537.6,-115.2
1980,-19.2,-541.8666666666667,-140.8
1981,-14.933333333333334,-537.6,-134.4
1982,0.0,-539.7333333333333,-134.4
1983,0.0,-535.4666666666667,-121.6
1984,4.266666666666667,-529.0666666666666,-128.0
1985,-4.266666666666667,-533.3333333333334,-136.53333333333333
1986,-10.666666666666666,-529.0666666666666,-128.0
1987,-2.1333333333333333,-533.3333333333334,-113.06666666666666
1988,-8.533333333333333,-531.2,-104.53333333333333
1989,0.0,-535.4666666666667,-104.53333333333333
1990,-2.1333333333333333,-533.3333333333334,-98.13333333333333
1991,0.0,-535.4666666666667,-110.93333333333334
1992,0.0,-529.0666666666666,-102.4
1993,2.1333333333333333,-524.8,-110.93333333333334
1994,6.4,-531.2,-108.8
1995,6.4,-526.9333333333333,-102.4
1996,12.8,-531.2,-106.66666666666667
1997,19.2,-539.7333333333333,-104.53333333333333
1998,17.066666666666666,-533.3333333333334,-110.93333333333334
1999,21.333333333333332,-539.7333333333333,-110.93333333333334
2000,23.466666666666665,-546.1333333333333,-113.06666666666666
2001,23.466666666666665,-550.4,-119.46666666666667
2002,27.733333333333334,-546.1333333333333,-117.33333333333333
2003,25.6,-552.5333333333333,-117.33333333333333
2004,25.6,-554.6666666666666,-125.86666666666666
2005,25.6,-556.8,-117.33333333333333
2006,17.066666666666666,-558.9333333333333,-119.46666666666667
2007,19.2,-558.9333333333333,-117.33333333333333
2008,19.2,-552.5333333333333,-117.33333333333333
2009,17.066666666666666,-539.7333333333333,-121.6
2010,19.2,-529.0666666666666,-121.6
2011,21.333333333333332,-529.0666666666666,-119.46666666666667
2012,14.933333333333334,-520.5333333333333,-128.0
2013,12.8,-518.4,-130.13333333333333
2014,19.2,-524.8,-123.73333333333333
2015,19.2,-524.8,-119.46666666666667
2016,27.733333333333334,-529.0666666666666,-113.06666666666666
2017,14.933333333333334,-522.6666666666666,-113.06666666666666
2018,4.266666666666667,-520.5333333333333,-119.46666666666667
2019,2.1333333333333333,-529.0666666666666,-108.8
2020,0.0,-535.4666666666667,-117.33333333333333
2021,2.1333333333333333,-537.6,-100.26666666666667
2022,4.266666666666667,-539.7333333333333,-100.26666666666667
2023,2.1333333333333333,-544.0,-98.13333333333333
2024,0.0,-548.2666666666667,-102.4
2025,-4.266666666666667,-548.2666666666667,-100.26666666666667
2026,0.0,-533.3333333333334,-102.4
2027,-19.2,-526.9333333333333,-108.8
2028,-23.466666666666665,-529.0666666666666,-102.4
2029,-29.866666666666667,-520.5333333333333,-108.8
2030,-19.2,-516.2666666666667,-91.73333333333333
2031,-12.8,-518.4,-110.93333333333334
2032,-17.066666666666666,-520.5333333333333,-115.2
2033,-8.533333333333333,-529.0666666666666,-115.2
2034,-10.666666666666666,-537.6,-110.93333333333334
2035,-14.933333333333334,-537.6,-115.2
2036,-8.533333333333333,-554.6666666666666,-102.4
2037,-10.666666666666666,-550.4,-115.2
2038,-12.8,-552.5333333333333,-108.8
2039,-19.2,-548.2666666666667,-106.66666666666667
2040,-6.4,-556.8,-110.93333333333334
2041,-17.066666666666666,-539.7333333333333,-104.53333333333333
2042,-17.066666666666666,-537.6,-102.4
2043,-17.066666666666666,-537.6,-104.53333333333333
2044,-21.333333333333332,-539.7333333333333,-98.13333333333333
2045,-21.333333333333332,-541.8666666666667,-98.13333333333333
2046,-23.466666666666665,-531.2,-96.0
2047,-32.0,-529.0666666666666,-91.73333333333333
2048,-12.8,-526.9333333333333,-96.0
2049,-14.933333333333334,-526.9333333333333,-85.33333333333333
2050,0.0,-529.0666666666666,-96.0
2051,2.1333333333333333,-529.0666666666666,-87.46666666666667
2052,8.533333333333333,-531.2,-78.93333333333334
2053,17.066666666666666,-533.3333333333334,-81.06666666666666
2054,14.933333333333334,-529.0666666666666,-83.2
2055,38.4,-529.0666666666666,-70.4
2056,38.4,-533.3333333333334,-74.66666666666667
2057,36.266666666666666,-529.0666666666666,-85.33333333333333
2058,32.0,-533.3333333333334,-78.93333333333334
2059,29.866666666666667,-539.7333333333333,-78.93333333333334
2060,29.866666666666667,-535.4666666666667,-78.93333333333334
2061,36.266666666666666,-548.2666666666667,-83.2
2062,36.266666666666666,-546.1333333333333,-81.06666666666666
2063,29.866666666666667,-548.2666666666667,-81.06666666666666
2064,32.0,-548.2666666666667,-87.46666666666667
2065,40.53333333333333,-554.6666666666666,-74.66666666666667
2066,29.866666666666667,-554.6666666666666,-78.93333333333334
2067,38.4,-558.9333333333333,-76.8
2068,34.13333333333333,-548.2666666666667,-74.66666666666667
2069,36.266666666666666,-552.5333333333333,-74.66666666666667
2070,38.4,-550.4,-61.86666666666667
2071,29.866666666666667,-546.1333333333333,-74.66666666666667
2072,27.733333333333334,-535.4666666666667,-72.53333333333333
2073,21.333333333333332,-531.2,-70.4
2074,29.866666666666667,-529.0666666666666,-66.13333333333333
2075,23.466666666666665,-526.9333333333333,-66.13333333333333
2076,21.333333333333332,-524.8,-70.4
2077,21.333333333333332,-522.6666666666666,-78.93333333333334
2078,25.6,-522.6666666666666,-57.6
2079,29.866666666666667,-522.6666666666666,-66.13333333333333
2080,25.6,-524.8,-66.13333333333333
2081,29.866666666666667,-531.2,-66.13333333333333
2082,34.13333333333333,-533.3333333333334,-68.26666666666667
2083,36.266666666666666,-544.0,-72.53333333333333
2084,36.266666666666666,-539.7333333333333,-70.4
2085,40.53333333333333,-546.1333333333333,-76.8
2086,38.4,-552.5333333333333,-68.26666666666667
2087,49.06666666666666,-563.2,-72.53333333333333
2088,51.2,-556.8,-76.8
2089,51.2,-552.5333333333333,-74.66666666666667
2090,49.06666666666666,-546.1333333333333,-81.06666666666666
2091,51.2,-539.7333333333333,-76.8
2092,53.333333333333336,-535.4666666666667,-78.93333333333334
2093,53.333333333333336,-541.8666666666667,-76.8
2094,53.333333333333336,-533.3333333333334,-74.66666666666667
2095,44.8,-526.9333333333333,-76.8
2096,44.8,-533.3333333333334,-87.46666666666667
2097,42.666666666666664,-531.2,-72.53333333333333
2098,40.53333333333333,-533.3333333333334,-70.4
2099,42.666666666666664,-541.8666666666667,-78.93333333333334
2100,38.4,-537.6,-76.8
2101,38.4,-539.7333333333333,-78.93333333333334
2102,42.666666666666664,-548.2666666666667,-76.8
2103,44.8,-548.2666666666667,-89.6
2104,40.53333333333333,-552.5333333333333,-81.06666666666666
2105,44.8,-548.2666666666667,-87.46666666666667
2106,36.266666666666666,-544.0,-87.46666666666667
2107,34.13333333333333,-541.8666666666667,-76.8
2108,36.266666666666666,-535.4666666666667,-78.93333333333334
2109,34.13333333333333,-537.6,-72.53333333333333
2110,32.0,-541.8666666666667,-78.93333333333334
2111,29.866666666666667,-541.8666666666667,-72.53333333333333
2112,27.733333333333334,-544.0,-70.4
2113,27.733333333333334,-544.0,-70.4
2114,23.466666666666665,-552.5333333333333,-74.66666666666667
2115,21.333333333333332,-548.2666666666667,-76.8
2116,25.6,-552.5333333333333,-76.8
2117,25.6,-550.4,-76.8
2118,23.466666666666665,-550.4,-83.2
2119,27.733333333333334,-537.6,-81.06666666666666
2120,19.2,-539.7333333333333,-81.06666666666666
2121,27.733333333333334,-537.6,-81.06666666666666
2122,21.333333333333332,-541.8666666666667,-78.93333333333334
2123,19.2,-544.0,-91.73333333333333
2124,25.6,-544.0,-78.93333333333334
2125,17.066666666666666,-539.7333333333333,-87.46666666666667
2126,19.2,-541.8666666666667,-87.46666666666667
2127,25.6,-544.0,-83.2
2128,25.6,-546.1333333333333,-81.06666666666666
2129,23.466666666666665,-541.8666666666667,-87.46666666666667
2130,29.866666666666667,-541.8666666666667,-96.0
2131,27.733333333333334,-548.2666666666667,-85.33333333333333
2132,29.866666666666667,-548.2666666666667,-81.06666666666666
2133,21.333333333333332,-544.0,-87.46666666666667
2134,21.333333333333332,-541.8666666666667,-87.46666666666667
2135,21.333333333333332,-544.0,-87.46666666666667
2136,21.333333333333332,-550.4,-89.6
2137,25.6,-548.2666666666667,-96.0
2138,23.466666666666665,-548.2666666666667,-98.13333333333333
2139,23.466666666666665,-548.2666666666667,-89.6
2140,25.6,-537.6,-96.0
2141,27.733333333333334,-539.7333333333333,-98.13333333333333
2142,27.733333333333334,-550.4,-96.0
2143,23.466666666666665,-548.2666666666667,-100.26666666666667
2144,34.13333333333333,-539.7333333333333,-102.4
2145,32.0,-539.7333333333333,-102.4
2146,32.0,-541.8666666666667,-96.0
2147,40.53333333333333,-544.0,-100.26666666666667
2148,36.266666666666666,-550.4,-93.86666666666666
2149,34.13333333333333,-548.2666666666667,-93.86666666666666
2150,44.8,-541.8666666666667,-102.4
2151,36.266666666666666,-541.8666666666667,-91.73333333333333
2152,36.266666666666666,-544.0,-104.53333333333333
2153,42.666666666666664,-550.4,-106.66666666666667
2154,42.666666666666664,-546.1333333333333,-106.66666666666667
2155,42.666666666666664,-541.8666666666667,-100.26666666666667
2156,40.53333333333333,-535.4666666666667,-100.26666666666667
2157,40.53333333333333,-533.3333333333334,-106.66666666666667
2158,38.4,-539.7333333333333,-102.4
2159,32.0,-537.6,-108.8
2160,34.13333333333333,-539.7333333333333,-102.4
2161,36.266666666666666,-539.7333333333333,-102.4
2162,29.866666666666667,-537.6,-110.93333333333334
2163,32.0,-537.6,-104.53333333333333
2164,32.0,-533.3333333333334,-113.06666666666666
2165,29.866666666666667,-529.0666666666666,-110.93333333333334
2166,27.733333333333334,-526.9333333333333,-115.2
2167,34.13333333333333,-529.0666666666666,-108.8
2168,36.266666666666666,-529.0666666666666,-106.66666666666667
2169,29.866666666666667,-531.2,-104.53333333333333
2170,36.266666666666666,-531.2,-113.06666666666666
2171,40.53333333333333,-533.3333333333334,-113.06666666666666
2172,40.53333333333333,-524.8,-119.46666666666667
2173,42.666666666666664,-535.4666666666667,-110.93333333333334
2174,34.13333333333333,-529.0666666666666,-108.8
2175,38.4,-535.4666666666667,-113.06666666666666
2176,32.0,-539.7333333333333,-117.33333333333333
2177,27.733333333333334,-537.6,-113.06666666666666
2178,32.0,-541.8666666666667,-110.93333333333334
2179,29.866666666666667,-539.7333333333333,-113.06666666666666
2180,29.866666666666667,-537.6,-117.33333333333333
2181,27.733333333333334,-529.0666666666666,-119.46666666666667
2182,25.6,-526.9333333333333,-115.2
2183,38.4,-529.0666666666666,-117.33333333333333
2184,27.733333333333334,-529.0666666666666,-113.06666666666666
2185,27.733333333333334,-529.0666666666666,-115.2
2186,25.6,-535.4666666666667,-110.93333333333334
2187,19.2,-531.2,-117.33333333333333
2188,27.733333333333334,-529.0666666666666,-113.06666666666666
2189,32.0,-531.2,-121.6
2190,29.866666666666667,-533.3333333333334,-123.73333333333333
2191,29.866666666666667,-529.0666666666666,-115.2
2192,32.0,-529.0666666666666,-123.73333333333333
2193,32.0,-529.0666666666666,-119.46666666666667
2194,32.0,-529.0666666666666,-117.33333333333333
2195,32.0,-531.2,-113.06666666666666
2196,36.266666666666666,-539.7333333333333,-121.6
2197,38.4,-533.3333333333334,-119.46666666666667
2198,36.266666666666666,-535.4666666666667,-113.06666666666666
2199,27.733333333333334,-529.0666666666666,-128.0
2200,34.13333333333333,-533.3333333333334,-128.0
2201,27.733333333333334,-533.3333333333334,-130.13333333333333
2202,32.0,-531.2,-125.86666666666666
2203,32.0,-529.0666666666666,-123.73333333333333
2204,38.4,-529.0666666666666,-125.86666666666666
2205,32.0,-531.2,-128.0
2206,34.13333333333333,-533.3333333333334,-117.33333333333333
2207,36.266666666666666,-533.3333333333334,-119.46666666666667
2208,23.466666666666665,-529.0666666666666,-119.46666666666667
2209,32.0,-533.3333333333334,-117.33333333333333
2210,36.266666666666666,-531.2,-113.06666666666666
2211,32.0,-533.3333333333334,-113.06666666666666
2212,32.0,-531.2,-110.93333333333334
2213,29.866666666666667,-535.4666666666667,-115.2
2214,29.866666666666667,-531.2,-121.6
2215,32.0,-533.3333333333334,-125.86666666666666
2216,40.53333333333333,-539.7333333333333,-117.33333333333333
2217,29.866666666666667,-541.8666666666667,-117.33333333333333
2218,29.866666666666667,-541.8666666666667,-119.46666666666667
2219,32.0,-537.6,-119.46666666666667
2220,32.0,-537.6,-123.73333333333333
2221,27.733333333333334,-539.7333333333333,-115.2
2222,29.866666666666667,-533.3333333333334,-113.06666666666666
2223,27.733333333333334,-531.2,-115.2
2224,27.733333333333334,-533.3333333333334,-119.46666666666667
2225,29.866666666666667,-535.4666666666667,-119.46666666666667
2226,32.0,-537.6,-115.2
2227,25.6,-533.3333333333334,-110.93333333333334
2228,25.6,-526.9333333333333,-119.46666666666667
2229,32.0,-539.7333333333333,-113.06666666666666
2230,29.866666666666667,-537.6,-115.2
2231,34.13333333333333,-537.6,-104.53333333333333
2232,23.466666666666665,-537.6,-121.6
2233,29.866666666666667,-544.0,-110.93333333333334
2234,32.0,-537.6,-121.6
2235,25.6,-539.7333333333333,-115.2
2236,25.6,-539.7333333333333,-125.86666666666666
2237,27.733333333333334,-533.3333333333334,-117.33333333333333
2238,27.733333333333334,-535.4666666666667,-117.33333333333333
2239,32.0,-537.6,-117.33333333333333
2240,21.333333333333332,-533.3333333333334,-117.33333333333333
2241,29.866666666666667,-531.2,-113.06666666666666
2242,34.13333333333333,-535.4666666666667,-119.46666666666667
2243,36.266666666666666,-531.2,-113.06666666666666
2244,27.733333333333334,-533.3333333333334,-119.46666666666667
2245,32.0,-535.4666666666667,-121.6
2246,36.266666666666666,-535.4666666666667,-117.33333333333333
2247,32.0,-533.3333333333334,-119.46666666666667
2248,34.13333333333333,-537.6,-121.6
2249,38.4,-539.7333333333333,-115.2
2250,29.866666666666667,-537.6,-110.93333333333334
2251,29.866666666666667,-539.7333333333333,-117.33333333333333
2252,32.0,-541.8666666666667,-113.06666666666666
2253,32.0,-539.7333333333333,-115.2
2254,32.0,-544.0,-108.8
2255,34.13333333333333,-544.0,-115.2
2256,27.733333333333334,-546.1333333333333,-108.8
2257,32.0,-541.8666666666667,-119.46666666666667
2258,32.0,-544.0,-121.6
2259,34.13333333333333,-552.5333333333333,-121.6
2260,23.466666666666665,-541.8666666666667,-125.86666666666666
2261,27.733333333333334,-537.6,-121.6
2262,23.466666666666665,-539.7333333333333,-121.6
2263,34.13333333333333,-541.8666666666667,-123.73333333333333
2264,32.0,-541.8666666666667,-117.33333333333333
2265,34.13333333333333,-544.0,-123.73333333333333
2266,38.4,-546.1333333333333,-117.33333333333333
2267,34.13333333333333,-539.7333333333333,-110.93333333333334
2268,32.0,-539.7333333333333,-121.6
2269,27.733333333333334,-537.6,-123.73333333333333
2270,34.13333333333333,-541.8666666666667,-117.33333333333333
2271,25.6,-539.7333333333333,-121.6
2272,32.0,-535.4666666666667,-128.0
2273,27.733333333333334,-544.0,-134.4
2274,25.6,-535.4666666666667,-125.86666666666666
2275,32.0,-537.6,-125.86666666666666
2276,29.866666666666667,-539.7333333333333,-132.26666666666665
2277,32.0,-537.6,-125.86666666666666
2278,32.0,-535.4666666666667,-123.73333333333333
2279,34.13333333333333,-537.6,-123.73333333333333
2280,27.733333333333334,-531.2,-123.73333333333333
2281,32.0,-535.4666666666667,-119.46666666666667
2282,32.0,-533.3333333333334,-125.86666666666666
2283,32.0,-533.3333333333334,-117.33333333333333
2284,34.13333333333333,-537.6,-132.26666666666665
2285,34.13333333333333,-531.2,-130.13333333333333
2286,34.13333333333333,-537.6,-125.86666666666666
2287,36.266666666666666,-541.8666666666667,-134.4
2288,38.4,-533.3333333333334,-134.4
2289,34.13333333333333,-529.0666666666666,-128.0
2290,29.866666666666667,-531.2,-125.86666666666666
2291,38.4,-529.0666666666666,-125.86666666666666
2292,34.13333333333333,-529.0666666666666,-123.73333333333333
2293,32.0,-529.0666666666666,-123.73333333333333
2294,36.266666666666666,-535.4666666666667,-123.73333333333333
2295,34.13333333333333,-531.2,-125.86666666666666
2296,34.13333333333333,-529.0666666666666,-128.0
2297,32.0,-529.0666666666666,-134.4
2298,32.0,-529.0666666666666,-130.13333333333333
2299,36.266666666666666,-526.9333333333333,-136.53333333333333
2300,38.4,-531.2,-121.6
2301,29.866666666666667,-529.0666666666666,-134.4
2302,32.0,-533.3333333333334,-136.53333333333333
2303,38.4,-533.3333333333334,-130.13333333333333
2304,38.4,-537.6,-128.0
2305,40.53333333333333,-533.3333333333334,-123.73333333333333
2306,34.13333333333333,-531.2,-136.53333333333333
2307,27.733333333333334,-529.0666666666666,-130.13333333333333
2308,34.13333333333333,-533.3333333333334,-134.4
2309,38.4,-535.4666666666667,-128.0
2310,27.733333333333334,-533.3333333333334,-132.26666666666665
2311,34.13333333333333,-529.0666666666666,-136.53333333333333
2312,25.6,-526.9333333333333,-132.26666666666665
2313,27.733333333333334,-526.9333333333333,-125.86666666666666
2314,32.0,-533.3333333333334,-125.86666666666666
2315,32.0,-531.2,-136.53333333333333
2316,36.266666666666666,-537.6,-123.73333333333333
2317,34.13333333333333,-533.3333333333334,-134.4
2318,29.866666666666667,-531.2,-132.26666666666665
2319,29.866666666666667,-533.3333333333334,-132.26666666666665
2320,29.866666666666667,-531.2,-130.13333333333333
2321,32.0,-531.2,-132.26666666666665
2322,32.0,-531.2,-123.73333333333333
2323,27.733333333333334,-533.3333333333334,-123.73333333333333
2324,34.13333333333333,-531.2,-132.26666666666665
2325,29.866666666666667,-529.0666666666666,-128.0
2326,25.6,-529.0666666666666,-132.26666666666665
2327,29.866666666666667,-537.6,-134.4
2328,34.13333333333333,-533.3333333333334,-130.13333333333333
2329,27.733333333333334,-526.9333333333333,-130.13333333333333
2330,27.733333333333334,-537.6,-132.26666666666665
2331,23.466666666666665,-535.4666666666667,-128.0
2332,27.733333333333334,-539.7333333333333,-125.86666666666666
2333,25.6,-537.6,-115.2
2334,29.866666666666667,-533.3333333333334,-130.13333333333333
2335,27.733333333333334,-529.0666666666666,-115.2
2336,23.466666666666665,-531.2,-130.13333333333333
2337,27.733333333333334,-529.0666666666666,-121.6
2338,25.6,-537.6,-125.86666666666666
2339,29.866666666666667,-529.0666666666666,-132.26666666666665
2340,25.6,-531.2,-132.26666666666665
2341,32.0,-531.2,-125.86666666666666
2342,29.866666666666667,-529.0666666666666,-134.4
2343,40.53333333333333,-531.2,-125.86666666666666
2344,34.13333333333333,-533.3333333333334,-125.86666666666666
2345,34.13333333333333,-537.6,-128.0
2346,36.266666666666666,-533.3333333333334,-128.0
2347,29.866666666666667,-539.7333333333333,-130.13333333333333
2348,32.0,-546.1333333333333,-121.6
2349,34.13333333333333,-533.3333333333334,-125.86666666666666
2350,27.733333333333334,-537.6,-125.86666666666666
2351,21.333333333333332,-535.4666666666667,-130.13333333333333
2352,21.333333333333332,-537.6,-132.26666666666665
2353,29.866666666666667,-535.4666666666667,-128.0
2354,27.733333333333334,-533.3333333333334,-134.4
2355,27.733333333333334,-533.3333333333334,-123.73333333333333
2356,27.733333333333334,-526.9333333333333,-121.6
2357,29.866666666666667,-526.9333333333333,-134.4
2358,32.0,-526.9333333333333,-130.13333333333333
2359,23.466666666666665,-526.9333333333333,-132.26666666666665
2360,34.13333333333333,-541.8666666666667,-128.0
2361,25.6,-533.3333333333334,-121.6
2362,29.866666666666667,-541.8666666666667,-108.8
2363,25.6,-541.8666666666667,-106.66666666666667
2364,27.733333333333334,-533.3333333333334,-106.66666666666667
2365,25.6,-535.4666666666667,-115.2
2366,23.466666666666665,-537.6,-125.86666666666666
2367,21.333333333333332,-535.4666666666667,-123.73333333333333
2368,27.733333333333334,-535.4666666666667,-125.86666666666666
2369,32.0,-535.4666666666667,-121.6
2370,32.0,-535.4666666666667,-125.86666666666666
2371,34.13333333333333,-535.4666666666667,-123.73333333333333
2372,29.866666666666667,-531.2,-132.26666666666665
2373,29.866666666666667,-533.3333333333334,-123.73333333333333
2374,29.866666666666667,-533.3333333333334,-125.86666666666666
2375,34.13333333333333,-535.4666666666667,-113.06666666666666
2376,38.4,-535.4666666666667,-115.2
2377,38.4,-529.0666666666666,-113.06666666666666
2378,36.266666666666666,-535.4666666666667,-108.8
2379,34.13333333333333,-533.3333333333334,-113.06666666666666
2380,29.866666666666667,-533.3333333333334,-121.6
2381,34.13333333333333,-533.3333333333334,-119.46666666666667
2382,34.13333333333333,-537.6,-130.13333333333333
2383,32.0,-535.4666666666667,-123.73333333333333
2384,27.733333333333334,-535.4666666666667,-108.8
2385,25.6,-533.3333333333334,-117.33333333333333
2386,34.13333333333333,-537.6,-113.06666666666666
2387,29.866666666666667,-535.4666666666667,-115.2
2388,38.4,-535.4666666666667,-110.93333333333334
2389,36.266666666666666,-544.0,-115.2
2390,32.0,-537.6,-108.8
2391,36.266666666666666,-529.0666666666666,-110.93333333333334
2392,32.0,-531.2,-108.8
2393,29.866666666666667,-529.0666666666666,-119.46666666666667
2394,34.13333333333333,-529.0666666666666,-117.33333333333333
2395,29.866666666666667,-533.3333333333334,-119.46666666666667
2396,32.0,-535.4666666666667,-125.86666666666666
2397,34.13333333333333,-539.7333333333333,-113.06666666666666
2398,25.6,-537.6,-115.2
2399,29.866666666666667,-535.4666666666667,-115.2
