,accelerometerAccelerationX(G),accelerometerAccelerationY(G),accelerometerAccelerationZ(G)
0,25.6,-531.2,-142.93333333333334
1,23.466666666666665,-529.0666666666666,-153.6
2,25.6,-526.9333333333333,-147.2
3,27.733333333333334,-524.8,-145.06666666666666
4,27.733333333333334,-533.3333333333334,-147.2
5,34.13333333333333,-522.6666666666666,-145.06666666666666
6,34.13333333333333,-533.3333333333334,-138.66666666666666
7,25.6,-526.9333333333333,-147.2
8,25.6,-526.9333333333333,-138.66666666666666
9,23.466666666666665,-531.2,-147.2
10,25.6,-533.3333333333334,-138.66666666666666
11,25.6,-533.3333333333334,-134.4
12,21.333333333333332,-531.2,-145.06666666666666
13,19.2,-533.3333333333334,-140.8
14,21.333333333333332,-537.6,-142.93333333333334
15,23.466666666666665,-537.6,-145.06666666666666
16,23.466666666666665,-531.2,-138.66666666666666
17,23.466666666666665,-529.0666666666666,-136.53333333333333
18,23.466666666666665,-533.3333333333334,-138.66666666666666
19,21.333333333333332,-529.0666666666666,-136.53333333333333
20,25.6,-533.3333333333334,-147.2
21,23.466666666666665,-533.3333333333334,-132.26666666666665
22,19.2,-526.9333333333333,-132.26666666666665
23,25.6,-531.2,-136.53333333333333
24,23.466666666666665,-533.3333333333334,-134.4
25,32.0,-533.3333333333334,-130.13333333333333
26,29.866666666666667,-539.7333333333333,-136.53333333333333
27,27.733333333333334,-533.3333333333334,-153.6
28,25.6,-531.2,-130.13333333333333
29,32.0,-533.3333333333334,-132.26666666666665
30,29.866666666666667,-537.6,-128.0
31,36.266666666666666,-535.4666666666667,-138.66666666666666
32,29.866666666666667,-526.9333333333333,-125.86666666666666
33,29.866666666666667,-529.0666666666666,-132.26666666666665
34,34.13333333333333,-531.2,-142.93333333333334
35,25.6,-524.8,-136.53333333333333
36,34.13333333333333,-529.0666666666666,-134.4
37,36.266666666666666,-524.8,-136.53333333333333
38,29.866666666666667,-529.0666666666666,-140.8
39,36.266666666666666,-524.8,-136.53333333333333
40,25.6,-524.8,-138.66666666666666
41,32.0,-522.6666666666666,-145.06666666666666
42,27.733333333333334,-520.5333333333333,-140.8
43,29.866666666666667,-529.0666666666666,-145.06666666666666
44,19.2,-529.0666666666666,-142.93333333333334
45,27.733333333333334,-531.2,-138.66666666666666
46,25.6,-535.4666666666667,-132.26666666666665
47,27.733333333333334,-535.4666666666667,-145.06666666666666
48,25.6,-537.6,-132.26666666666665
49,19.2,-539.7333333333333,-138.66666666666666
50,17.066666666666666,-535.4666666666667,-138.66666666666666
51,23.466666666666665,-537.6,-136.53333333333333
52,21.333333333333332,-541.8666666666667,-136.53333333333333
53,17.066666666666666,-533.3333333333334,-138.66666666666666
54,19.2,-539.7333333333333,-134.4
55,17.066666666666666,-537.6,-136.53333333333333
56,23.466666666666665,-537.6,-136.53333333333333
57,23.466666666666665,-531.2,-138.66666666666666
58,21.333333333333332,-535.4666666666667,-138.66666666666666
59,25.6,-541.8666666666667,-132.26666666666665
60,25.6,-533.3333333333334,-140.8
61,19.2,-526.9333333333333,-138.66666666666666
62,23.466666666666665,-533.3333333333334,-140.8
63,21.333333333333332,-535.4666666666667,-142.93333333333334
64,23.466666666666665,-529.0666666666666,-134.4
65,23.466666666666665,-533.3333333333334,-132.26666666666665
66,29.866666666666667,-531.2,-136.53333333333333
67,29.866666666666667,-533.3333333333334,-134.4
68,23.466666666666665,-531.2,-128.0
69,27.733333333333334,-529.0666666666666,-134.4
70,29.866666666666667,-531.2,-125.86666666666666
71,21.333333333333332,-526.9333333333333,-134.4
72,21.333333333333332,-531.2,-142.93333333333334
73,25.6,-533.3333333333334,-130.13333333333333
74,25.6,-529.0666666666666,-132.26666666666665
75,25.6,-531.2,-134.4
76,25.6,-533.3333333333334,-138.66666666666666
77,23.466666666666665,-529.0666666666666,-134.4
78,21.333333333333332,-539.7333333333333,-140.8
79,23.466666666666665,-535.4666666666667,-138.66666666666666
80,23.466666666666665,-533.3333333333334,-132.26666666666665
81,29.866666666666667,-533.3333333333334,-136.53333333333333
82,23.466666666666665,-531.2,-134.4
83,34.13333333333333,-537.6,-140.8
84,32.0,-529.0666666666666,-142.93333333333334
85,32.0,-537.6,-140.8
86,29.866666666666667,-526.9333333333333,-136.53333333333333
87,27.733333333333334,-535.4666666666667,-125.86666666666666
88,27.733333333333334,-522.6666666666666,-132.26666666666665
89,34.13333333333333,-529.0666666666666,-134.4
90,32.0,-531.2,-134.4
91,29.866666666666667,-531.2,-138.66666666666666
92,23.466666666666665,-520.5333333333333,-138.66666666666666
93,25.6,-522.6666666666666,-140.8
94,25.6,-524.8,-134.4
95,29.866666666666667,-529.0666666666666,-130.13333333333333
96,32.0,-526.9333333333333,-136.53333333333333
97,23.466666666666665,-518.4,-134.4
98,29.866666666666667,-529.0666666666666,-134.4
99,25.6,-531.2,-140.8
100,27.733333333333334,-529.0666666666666,-132.26666666666665
101,23.466666666666665,-533.3333333333334,-132.26666666666665
102,32.0,-535.4666666666667,-130.13333333333333
103,32.0,-539.7333333333333,-125.86666666666666
104,36.266666666666666,-535.4666666666667,-130.13333333333333
105,29.866666666666667,-541.8666666666667,-132.26666666666665
106,27.733333333333334,-537.6,-128.0
107,34.13333333333333,-533.3333333333334,-132.26666666666665
108,29.866666666666667,-531.2,-132.26666666666665
109,29.866666666666667,-531.2,-128.0
110,29.866666666666667,-531.2,-125.86666666666666
111,32.0,-531.2,-125.86666666666666
112,25.6,-535.4666666666667,-134.4
113,29.866666666666667,-535.4666666666667,-134.4
114,27.733333333333334,-533.3333333333334,-132.26666666666665
115,29.866666666666667,-533.3333333333334,-134.4
116,25.6,-535.4666666666667,-134.4
117,29.866666666666667,-529.0666666666666,-130.13333333333333
118,23.466666666666665,-526.9333333333333,-134.4
119,29.866666666666667,-529.0666666666666,-134.4
120,34.13333333333333,-531.2,-130.13333333333333
121,25.6,-531.2,-136.53333333333333
122,34.13333333333333,-533.3333333333334,-125.86666666666666
123,34.13333333333333,-533.3333333333334,-132.26666666666665
124,32.0,-535.4666666666667,-134.4
125,32.0,-537.6,-128.0
126,29.866666666666667,-537.6,-125.86666666666666
127,27.733333333333334,-535.4666666666667,-132.26666666666665
128,27.733333333333334,-535.4666666666667,-130.13333333333333
129,25.6,-544.0,-128.0
130,29.866666666666667,-544.0,-134.4
131,25.6,-541.8666666666667,-125.86666666666666
132,23.466666666666665,-537.6,-128.0
133,23.466666666666665,-533.3333333333334,-138.66666666666666
134,23.466666666666665,-531.2,-130.13333333333333
135,23.466666666666665,-535.4666666666667,-128.0
136,32.0,-535.4666666666667,-128.0
137,29.866666666666667,-526.9333333333333,-136.53333333333333
138,23.466666666666665,-526.9333333333333,-132.26666666666665
139,27.733333333333334,-524.8,-138.66666666666666
140,25.6,-524.8,-132.26666666666665
141,25.6,-529.0666666666666,-140.8
142,29.866666666666667,-533.3333333333334,-134.4
143,36.266666666666666,-533.3333333333334,-128.0
144,32.0,-535.4666666666667,-134.4
145,23.466666666666665,-531.2,-128.0
146,27.733333333333334,-526.9333333333333,-136.53333333333333
147,34.13333333333333,-535.4666666666667,-128.0
148,29.866666666666667,-531.2,-134.4
149,27.733333333333334,-535.4666666666667,-130.13333333333333
150,32.0,-531.2,-138.66666666666666
151,34.13333333333333,-531.2,-134.4
152,29.866666666666667,-529.0666666666666,-136.53333333333333
153,29.866666666666667,-529.0666666666666,-134.4
154,29.866666666666667,-533.3333333333334,-132.26666666666665
155,29.866666666666667,-533.3333333333334,-134.4
156,32.0,-529.0666666666666,-138.66666666666666
157,27.733333333333334,-541.8666666666667,-132.26666666666665
158,27.733333333333334,-533.3333333333334,-130.13333333333333
159,27.733333333333334,-533.3333333333334,-134.4
160,25.6,-537.6,-132.26666666666665
161,23.466666666666665,-537.6,-134.4
162,25.6,-535.4666666666667,-136.53333333333333
163,25.6,-531.2,-132.26666666666665
164,21.333333333333332,-535.4666666666667,-136.53333333333333
165,21.333333333333332,-535.4666666666667,-136.53333333333333
166,25.6,-535.4666666666667,-128.0
167,27.733333333333334,-535.4666666666667,-136.53333333333333
168,21.333333333333332,-533.3333333333334,-130.13333333333333
169,27.733333333333334,-537.6,-132.26666666666665
170,25.6,-533.3333333333334,-125.86666666666666
171,27.733333333333334,-539.7333333333333,-136.53333333333333
172,23.466666666666665,-533.3333333333334,-136.53333333333333
173,27.733333333333334,-531.2,-138.66666666666666
174,34.13333333333333,-537.6,-138.66666666666666
175,29.866666666666667,-535.4666666666667,-138.66666666666666
176,29.866666666666667,-535.4666666666667,-136.53333333333333
177,27.733333333333334,-533.3333333333334,-142.93333333333334
178,23.466666666666665,-531.2,-140.8
179,29.866666666666667,-535.4666666666667,-138.66666666666666
180,25.6,-531.2,-138.66666666666666
181,32.0,-533.3333333333334,-138.66666666666666
182,25.6,-531.2,-136.53333333333333
183,27.733333333333334,-533.3333333333334,-132.26666666666665
184,29.866666666666667,-529.0666666666666,-138.66666666666666
185,32.0,-533.3333333333334,-136.53333333333333
186,21.333333333333332,-526.9333333333333,-145.06666666666666
187,34.13333333333333,-526.9333333333333,-134.4
188,34.13333333333333,-533.3333333333334,-134.4
189,29.866666666666667,-531.2,-142.93333333333334
190,32.0,-526.9333333333333,-132.26666666666665
191,27.733333333333334,-531.2,-134.4
192,25.6,-529.0666666666666,-134.4
193,29.866666666666667,-531.2,-130.13333333333333
194,29.866666666666667,-533.3333333333334,-132.26666666666665
195,27.733333333333334,-531.2,-142.93333333333334
196,25.6,-529.0666666666666,-140.8
197,27.733333333333334,-537.6,-147.2
198,29.866666666666667,-535.4666666666667,-130.13333333333333
199,25.6,-533.3333333333334,-138.66666666666666
200,32.0,-535.4666666666667,-147.2
201,27.733333333333334,-531.2,-140.8
202,29.866666666666667,-535.4666666666667,-136.53333333333333
203,27.733333333333334,-533.3333333333334,-145.06666666666666
204,29.866666666666667,-533.3333333333334,-145.06666666666666
205,27.733333333333334,-524.8,-140.8
206,27.733333333333334,-526.9333333333333,-142.93333333333334
207,29.866666666666667,-526.9333333333333,-145.06666666666666
208,25.6,-526.9333333333333,-140.8
209,29.866666666666667,-524.8,-149.33333333333334
210,25.6,-529.0666666666666,-138.66666666666666
211,34.13333333333333,-531.2,-145.06666666666666
212,27.733333333333334,-529.0666666666666,-138.66666666666666
213,34.13333333333333,-529.0666666666666,-140.8
214,27.733333333333334,-533.3333333333334,-138.66666666666666
215,32.0,-537.6,-138.66666666666666
216,29.866666666666667,-535.4666666666667,-136.53333333333333
217,23.466666666666665,-533.3333333333334,-134.4
218,21.333333333333332,-531.2,-130.13333333333333
219,29.866666666666667,-537.6,-136.53333333333333
220,25.6,-533.3333333333334,-134.4
221,21.333333333333332,-535.4666666666667,-138.66666666666666
222,27.733333333333334,-539.7333333333333,-142.93333333333334
223,29.866666666666667,-531.2,-130.13333333333333
224,25.6,-533.3333333333334,-130.13333333333333
225,25.6,-535.4666666666667,-134.4
226,17.066666666666666,-535.4666666666667,-138.66666666666666
227,23.466666666666665,-533.3333333333334,-140.8
228,21.333333333333332,-526.9333333333333,-138.66666666666666
229,23.466666666666665,-531.2,-134.4
230,17.066666666666666,-529.0666666666666,-136.53333333333333
231,21.333333333333332,-526.9333333333333,-136.53333333333333
232,19.2,-526.9333333333333,-142.93333333333334
233,21.333333333333332,-535.4666666666667,-145.06666666666666
234,21.333333333333332,-533.3333333333334,-138.66666666666666
235,21.333333333333332,-533.3333333333334,-138.66666666666666
236,25.6,-531.2,-140.8
237,21.333333333333332,-526.9333333333333,-151.46666666666667
238,29.866666666666667,-531.2,-145.06666666666666
239,25.6,-533.3333333333334,-147.2
240,25.6,-531.2,-142.93333333333334
241,23.466666666666665,-535.4666666666667,-145.06666666666666
242,25.6,-526.9333333333333,-128.0
243,25.6,-531.2,-136.53333333333333
244,21.333333333333332,-537.6,-136.53333333333333
245,17.066666666666666,-537.6,-136.53333333333333
246,21.333333333333332,-535.4666666666667,-134.4
247,19.2,-537.6,-136.53333333333333
248,21.333333333333332,-537.6,-138.66666666666666
249,23.466666666666665,-533.3333333333334,-134.4
250,21.333333333333332,-537.6,-140.8
251,25.6,-537.6,-145.06666666666666
252,21.333333333333332,-533.3333333333334,-130.13333333333333
253,23.466666666666665,-535.4666666666667,-145.06666666666666
254,23.466666666666665,-535.4666666666667,-130.13333333333333
255,23.466666666666665,-539.7333333333333,-142.93333333333334
256,23.466666666666665,-531.2,-138.66666666666666
257,21.333333333333332,-524.8,-145.06666666666666
258,19.2,-531.2,-136.53333333333333
259,25.6,-535.4666666666667,-142.93333333333334
260,23.466666666666665,-533.3333333333334,-138.66666666666666
261,21.333333333333332,-531.2,-128.0
262,25.6,-531.2,-142.93333333333334
263,25.6,-529.0666666666666,-140.8
264,27.733333333333334,-531.2,-136.53333333333333
265,27.733333333333334,-524.8,-136.53333333333333
266,29.866666666666667,-526.9333333333333,-136.53333333333333
267,27.733333333333334,-529.0666666666666,-142.93333333333334
268,32.0,-524.8,-136.53333333333333
269,29.866666666666667,-531.2,-138.66666666666666
270,25.6,-531.2,-132.26666666666665
271,23.466666666666665,-533.3333333333334,-138.66666666666666
272,27.733333333333334,-529.0666666666666,-136.53333333333333
273,23.466666666666665,-529.0666666666666,-136.53333333333333
274,27.733333333333334,-529.0666666666666,-142.93333333333334
275,27.733333333333334,-535.4666666666667,-138.66666666666666
276,23.466666666666665,-531.2,-132.26666666666665
277,25.6,-533.3333333333334,-147.2
278,23.466666666666665,-533.3333333333334,-134.4
279,23.466666666666665,-533.3333333333334,-136.53333333333333
280,23.466666666666665,-531.2,-140.8
281,23.466666666666665,-535.4666666666667,-142.93333333333334
282,19.2,-533.3333333333334,-140.8
283,25.6,-535.4666666666667,-134.4
284,23.466666666666665,-533.3333333333334,-138.66666666666666
285,21.333333333333332,-533.3333333333334,-142.93333333333334
286,21.333333333333332,-537.6,-145.06666666666666
287,23.466666666666665,-535.4666666666667,-134.4
288,23.466666666666665,-533.3333333333334,-138.66666666666666
289,23.466666666666665,-533.3333333333334,-136.53333333333333
290,23.466666666666665,-524.8,-145.06666666666666
291,21.333333333333332,-533.3333333333334,-138.66666666666666
292,23.466666666666665,-531.2,-142.93333333333334
293,25.6,-533.3333333333334,-138.66666666666666
294,23.466666666666665,-533.3333333333334,-136.53333333333333
295,25.6,-529.0666666666666,-136.53333333333333
296,23.466666666666665,-535.4666666666667,-140.8
297,27.733333333333334,-535.4666666666667,-134.4
298,27.733333333333334,-533.3333333333334,-136.53333333333333
299,27.733333333333334,-529.0666666666666,-134.4
300,29.866666666666667,-531.2,-134.4
301,25.6,-535.4666666666667,-136.53333333333333
302,21.333333333333332,-524.8,-128.0
303,21.333333333333332,-529.0666666666666,-136.53333333333333
304,23.466666666666665,-531.2,-128.0
305,27.733333333333334,-533.3333333333334,-136.53333333333333
306,27.733333333333334,-537.6,-142.93333333333334
307,32.0,-533.3333333333334,-145.06666666666666
308,25.6,-529.0666666666666,-136.53333333333333
309,34.13333333333333,-533.3333333333334,-147.2
310,29.866666666666667,-533.3333333333334,-142.93333333333334
311,34.13333333333333,-541.8666666666667,-149.33333333333334
312,27.733333333333334,-531.2,-149.33333333333334
313,29.866666666666667,-531.2,-145.06666666666666
314,27.733333333333334,-533.3333333333334,-142.93333333333334
315,32.0,-537.6,-145.06666666666666
316,25.6,-533.3333333333334,-140.8
317,25.6,-526.9333333333333,-149.33333333333334
318,32.0,-531.2,-142.93333333333334
319,27.733333333333334,-524.8,-149.33333333333334
320,29.866666666666667,-524.8,-140.8
321,23.466666666666665,-516.2666666666667,-142.93333333333334
322,27.733333333333334,-522.6666666666666,-145.06666666666666
323,27.733333333333334,-524.8,-142.93333333333334
324,25.6,-524.8,-142.93333333333334
325,25.6,-524.8,-142.93333333333334
326,23.466666666666665,-524.8,-145.06666666666666
327,36.266666666666666,-537.6,-142.93333333333334
328,36.266666666666666,-537.6,-140.8
329,25.6,-535.4666666666667,-134.4
330,29.866666666666667,-537.6,-134.4
331,27.733333333333334,-535.4666666666667,-130.13333333333333
332,32.0,-541.8666666666667,-138.66666666666666
333,25.6,-535.4666666666667,-136.53333333333333
334,34.13333333333333,-548.2666666666667,-140.8
335,32.0,-535.4666666666667,-140.8
336,29.866666666666667,-537.6,-134.4
337,21.333333333333332,-537.6,-134.4
338,27.733333333333334,-537.6,-140.8
339,25.6,-535.4666666666667,-138.66666666666666
340,21.333333333333332,-531.2,-138.66666666666666
341,27.733333333333334,-533.3333333333334,-128.0
342,25.6,-533.3333333333334,-140.8
343,29.866666666666667,-524.8,-136.53333333333333
344,27.733333333333334,-529.0666666666666,-138.66666666666666
345,29.866666666666667,-529.0666666666666,-134.4
346,27.733333333333334,-529.0666666666666,-136.53333333333333
347,27.733333333333334,-533.3333333333334,-128.0
348,21.333333333333332,-533.3333333333334,-142.93333333333334
349,25.6,-529.0666666666666,-147.2
350,21.333333333333332,-526.9333333333333,-128.0
351,34.13333333333333,-535.4666666666667,-138.66666666666666
352,27.733333333333334,-529.0666666666666,-132.26666666666665
353,34.13333333333333,-537.6,-132.26666666666665
354,29.866666666666667,-535.4666666666667,-138.66666666666666
355,27.733333333333334,-529.0666666666666,-138.66666666666666
356,29.866666666666667,-531.2,-132.26666666666665
357,23.466666666666665,-531.2,-136.53333333333333
358,27.733333333333334,-533.3333333333334,-134.4
359,25.6,-535.4666666666667,-145.06666666666666
360,25.6,-533.3333333333334,-136.53333333333333
361,27.733333333333334,-533.3333333333334,-136.53333333333333
362,23.466666666666665,-531.2,-130.13333333333333
363,23.466666666666665,-535.4666666666667,-134.4
364,32.0,-533.3333333333334,-138.66666666666666
365,29.866666666666667,-533.3333333333334,-138.66666666666666
366,25.6,-526.9333333333333,-140.8
367,32.0,-529.0666666666666,-136.53333333333333
368,32.0,-524.8,-140.8
369,23.466666666666665,-529.0666666666666,-134.4
370,29.866666666666667,-531.2,-140.8
371,27.733333333333334,-522.6666666666666,-136.53333333333333
372,27.733333333333334,-529.0666666666666,-134.4
373,23.466666666666665,-524.8,-140.8
374,32.0,-526.9333333333333,-140.8
375,32.0,-531.2,-134.4
376,23.466666666666665,-535.4666666666667,-130.13333333333333
377,25.6,-535.4666666666667,-130.13333333333333
378,29.866666666666667,-539.7333333333333,-142.93333333333334
379,29.866666666666667,-533.3333333333334,-134.4
380,25.6,-539.7333333333333,-142.93333333333334
381,29.866666666666667,-539.7333333333333,-142.93333333333334
382,29.866666666666667,-539.7333333333333,-130.13333333333333
383,27.733333333333334,-537.6,-134.4
384,27.733333333333334,-535.4666666666667,-128.0
385,29.866666666666667,-533.3333333333334,-138.66666666666666
386,21.333333333333332,-535.4666666666667,-136.53333333333333
387,27.733333333333334,-526.9333333333333,-138.66666666666666
388,27.733333333333334,-535.4666666666667,-134.4
389,25.6,-533.3333333333334,-138.66666666666666
390,27.733333333333334,-531.2,-142.93333333333334
391,27.733333333333334,-529.0666666666666,-138.66666666666666
392,25.6,-529.0666666666666,-138.66666666666666
393,25.6,-529.0666666666666,-132.26666666666665
394,19.2,-529.0666666666666,-132.26666666666665
395,27.733333333333334,-529.0666666666666,-142.93333333333334
396,21.333333333333332,-529.0666666666666,-132.26666666666665
397,29.866666666666667,-533.3333333333334,-142.93333333333334
398,27.733333333333334,-531.2,-134.4
399,29.866666666666667,-531.2,-136.53333333333333
400,29.866666666666667,-533.3333333333334,-142.93333333333334
401,27.733333333333334,-533.3333333333334,-136.53333333333333
402,32.0,-533.3333333333334,-142.93333333333334
403,34.13333333333333,-533.3333333333334,-138.66666666666666
404,25.6,-531.2,-136.53333333333333
405,23.466666666666665,-535.4666666666667,-140.8
406,25.6,-533.3333333333334,-134.4
407,27.733333333333334,-531.2,-147.2
408,23.466666666666665,-531.2,-140.8
409,29.866666666666667,-539.7333333333333,-145.06666666666666
410,25.6,-537.6,-136.53333333333333
411,29.866666666666667,-541.8666666666667,-145.06666666666666
412,23.466666666666665,-537.6,-138.66666666666666
413,27.733333333333334,-546.1333333333333,-130.13333333333333
414,25.6,-558.9333333333333,-125.86666666666666
415,36.266666666666666,-565.3333333333334,-121.6
416,38.4,-578.1333333333333,-115.2
417,34.13333333333333,-582.4,-117.33333333333333
418,38.4,-588.8,-136.53333333333333
419,42.666666666666664,-584.5333333333333,-181.33333333333334
420,42.666666666666664,-569.6,-213.33333333333334
421,51.2,-556.8,-251.73333333333332
422,44.8,-529.0666666666666,-285.8666666666667
423,46.93333333333333,-494.93333333333334,-298.6666666666667
424,34.13333333333333,-473.59999999999997,-296.5333333333333
425,36.266666666666666,-458.6666666666667,-275.2
426,25.6,-458.6666666666667,-260.26666666666665
427,23.466666666666665,-454.4,-236.79999999999998
428,12.8,-460.8,-211.2
429,10.666666666666666,-465.06666666666666,-196.26666666666665
430,12.8,-473.59999999999997,-189.86666666666667
431,0.0,-469.3333333333333,-200.53333333333333
432,8.533333333333333,-477.8666666666667,-204.8
433,10.666666666666666,-469.3333333333333,-204.8
434,14.933333333333334,-460.8,-204.8
435,21.333333333333332,-460.8,-228.26666666666665
436,23.466666666666665,-456.5333333333333,-221.86666666666667
437,25.6,-458.6666666666667,-226.13333333333333
438,19.2,-458.6666666666667,-228.26666666666665
439,34.13333333333333,-460.8,-226.13333333333333
440,32.0,-462.93333333333334,-234.66666666666666
441,40.53333333333333,-462.93333333333334,-241.06666666666666
442,34.13333333333333,-452.26666666666665,-249.6
443,36.266666666666666,-437.3333333333333,-260.26666666666665
444,36.266666666666666,-426.6666666666667,-275.2
445,40.53333333333333,-426.6666666666667,-285.8666666666667
446,40.53333333333333,-426.6666666666667,-292.26666666666665
447,38.4,-418.1333333333333,-298.6666666666667
448,34.13333333333333,-413.8666666666667,-302.93333333333334
449,34.13333333333333,-413.8666666666667,-296.5333333333333
450,27.733333333333334,-403.2,-302.93333333333334
451,27.733333333333334,-398.93333333333334,-288.0
452,23.466666666666665,-379.73333333333335,-281.6
453,21.333333333333332,-375.46666666666664,-283.73333333333335
454,12.8,-356.26666666666665,-275.2
455,12.8,-352.0,-268.8
456,10.666666666666666,-341.3333333333333,-262.4
457,12.8,-332.8,-258.1333333333333
458,6.4,-324.26666666666665,-247.46666666666667
459,4.266666666666667,-315.73333333333335,-251.73333333333332
460,6.4,-317.8666666666667,-238.93333333333334
461,-2.1333333333333333,-322.1333333333333,-224.0
462,-4.266666666666667,-315.73333333333335,-211.2
463,-2.1333333333333333,-322.1333333333333,-204.8
464,-10.666666666666666,-328.5333333333333,-185.6
465,-4.266666666666667,-343.46666666666664,-168.53333333333333
466,0.0,-347.73333333333335,-155.73333333333332
467,-8.533333333333333,-356.26666666666665,-151.46666666666667
468,0.0,-371.2,-145.06666666666666
469,6.4,-379.73333333333335,-132.26666666666665
470,12.8,-381.8666666666667,-134.4
471,14.933333333333334,-384.0,-162.13333333333333
472,32.0,-386.1333333333333,-179.2
473,38.4,-388.26666666666665,-215.46666666666667
474,42.666666666666664,-388.26666666666665,-260.26666666666665
475,53.333333333333336,-384.0,-296.5333333333333
476,51.2,-379.73333333333335,-330.6666666666667
477,55.46666666666667,-377.6,-356.26666666666665
478,53.333333333333336,-384.0,-386.1333333333333
479,55.46666666666667,-386.1333333333333,-392.5333333333333
480,36.266666666666666,-392.5333333333333,-390.4
481,32.0,-386.1333333333333,-381.8666666666667
482,29.866666666666667,-398.93333333333334,-347.73333333333335
483,23.466666666666665,-407.46666666666664,-309.3333333333333
484,27.733333333333334,-420.26666666666665,-266.6666666666667
485,14.933333333333334,-443.73333333333335,-253.86666666666667
486,12.8,-454.4,-206.93333333333334
487,6.4,-467.2,-170.66666666666666
488,32.0,-492.8,-185.6
489,27.733333333333334,-480.0,-211.2
490,10.666666666666666,-488.5333333333333,-226.13333333333333
491,46.93333333333333,-490.6666666666667,-268.8
492,42.666666666666664,-477.8666666666667,-305.06666666666666
493,51.2,-471.46666666666664,-326.4
494,61.86666666666667,-458.6666666666667,-349.8666666666667
495,68.26666666666667,-448.0,-354.1333333333333
496,70.4,-443.73333333333335,-345.6
497,66.13333333333333,-430.93333333333334,-341.3333333333333
498,66.13333333333333,-422.4,-322.1333333333333
499,64.0,-420.26666666666665,-300.8
500,57.6,-411.73333333333335,-275.2
501,51.2,-416.0,-249.6
502,34.13333333333333,-413.8666666666667,-219.73333333333332
503,23.466666666666665,-428.8,-168.53333333333333
504,12.8,-437.3333333333333,-123.73333333333333
505,4.266666666666667,-448.0,-98.13333333333333
506,8.533333333333333,-454.4,-100.26666666666667
507,2.1333333333333333,-445.8666666666667,-130.13333333333333
508,10.666666666666666,-424.5333333333333,-183.46666666666667
509,25.6,-394.6666666666667,-234.66666666666666
510,34.13333333333333,-366.93333333333334,-292.26666666666665
511,36.266666666666666,-332.8,-326.4
512,40.53333333333333,-307.2,-354.1333333333333
513,38.4,-300.8,-364.8
514,36.266666666666666,-288.0,-352.0
515,36.266666666666666,-292.26666666666665,-345.6
516,19.2,-300.8,-330.6666666666667
517,17.066666666666666,-313.6,-328.5333333333333
518,0.0,-328.5333333333333,-328.5333333333333
519,-4.266666666666667,-360.5333333333333,-313.6
520,-4.266666666666667,-384.0,-302.93333333333334
521,-6.4,-403.2,-300.8
522,-2.1333333333333333,-416.0,-305.06666666666666
523,2.1333333333333333,-424.5333333333333,-296.5333333333333
524,-4.266666666666667,-426.6666666666667,-281.6
525,-6.4,-435.2,-262.4
526,-4.266666666666667,-443.73333333333335,-230.4
527,-4.266666666666667,-441.59999999999997,-194.13333333333333
528,0.0,-452.26666666666665,-170.66666666666666
529,17.066666666666666,-460.8,-149.33333333333334
530,29.866666666666667,-454.4,-151.46666666666667
531,32.0,-454.4,-140.8
532,36.266666666666666,-441.59999999999997,-142.93333333333334
533,44.8,-437.3333333333333,-164.26666666666665
534,44.8,-407.46666666666664,-192.0
535,42.666666666666664,-390.4,-219.73333333333332
536,46.93333333333333,-362.6666666666667,-249.6
537,46.93333333333333,-341.3333333333333,-273.06666666666666
538,40.53333333333333,-322.1333333333333,-302.93333333333334
539,32.0,-302.93333333333334,-317.8666666666667
540,21.333333333333332,-288.0,-332.8
541,14.933333333333334,-281.6,-330.6666666666667
542,6.4,-283.73333333333335,-339.2
543,4.266666666666667,-283.73333333333335,-345.6
544,4.266666666666667,-290.1333333333333,-349.8666666666667
545,10.666666666666666,-298.6666666666667,-360.5333333333333
546,6.4,-302.93333333333334,-369.06666666666666
547,25.6,-328.5333333333333,-362.6666666666667
548,34.13333333333333,-362.6666666666667,-341.3333333333333
549,40.53333333333333,-403.2,-326.4
550,68.26666666666667,-435.2,-311.46666666666664
551,81.06666666666666,-462.93333333333334,-292.26666666666665
552,93.86666666666666,-488.5333333333333,-285.8666666666667
553,110.93333333333334,-509.8666666666667,-302.93333333333334
554,106.66666666666667,-520.5333333333333,-311.46666666666664
555,110.93333333333334,-522.6666666666666,-311.46666666666664
556,113.06666666666666,-507.73333333333335,-337.06666666666666
557,104.53333333333333,-499.2,-349.8666666666667
558,93.86666666666666,-486.4,-369.06666666666666
559,85.33333333333333,-462.93333333333334,-403.2
560,70.4,-456.5333333333333,-416.0
561,49.06666666666666,-441.59999999999997,-416.0
562,34.13333333333333,-433.06666666666666,-416.0
563,14.933333333333334,-418.1333333333333,-416.0
564,-25.6,-411.73333333333335,-405.3333333333333
565,-44.8,-405.3333333333333,-386.1333333333333
566,-78.93333333333334,-409.6,-366.93333333333334
567,-96.0,-411.73333333333335,-364.8
568,-121.6,-418.1333333333333,-349.8666666666667
569,-138.66666666666666,-416.0,-343.46666666666664
570,-151.46666666666667,-422.4,-356.26666666666665
571,-147.2,-428.8,-369.06666666666666
572,-136.53333333333333,-439.46666666666664,-369.06666666666666
573,-117.33333333333333,-460.8,-388.26666666666665
574,-100.26666666666667,-467.2,-396.8
575,-55.46666666666667,-486.4,-405.3333333333333
576,-40.53333333333333,-484.26666666666665,-418.1333333333333
577,-21.333333333333332,-492.8,-409.6
578,-2.1333333333333333,-486.4,-426.6666666666667
579,21.333333333333332,-490.6666666666667,-450.1333333333333
580,29.866666666666667,-484.26666666666665,-437.3333333333333
581,38.4,-490.6666666666667,-424.5333333333333
582,51.2,-475.73333333333335,-439.46666666666664
583,57.6,-477.8666666666667,-435.2
584,66.13333333333333,-471.46666666666664,-448.0
585,76.8,-469.3333333333333,-441.59999999999997
586,72.53333333333333,-454.4,-424.5333333333333
587,61.86666666666667,-439.46666666666664,-403.2
588,57.6,-443.73333333333335,-401.06666666666666
589,44.8,-430.93333333333334,-386.1333333333333
590,25.6,-433.06666666666666,-392.5333333333333
591,19.2,-422.4,-398.93333333333334
592,0.0,-430.93333333333334,-394.6666666666667
593,-4.266666666666667,-437.3333333333333,-384.0
594,-23.466666666666665,-450.1333333333333,-396.8
595,-40.53333333333333,-439.46666666666664,-398.93333333333334
596,-53.333333333333336,-458.6666666666667,-411.73333333333335
597,-44.8,-462.93333333333334,-435.2
598,-42.666666666666664,-477.8666666666667,-454.4
599,-36.266666666666666,-497.06666666666666,-448.0
600,-27.733333333333334,-509.8666666666667,-462.93333333333334
601,-25.6,-522.6666666666666,-458.6666666666667
602,2.1333333333333333,-541.8666666666667,-462.93333333333334
603,10.666666666666666,-541.8666666666667,-445.8666666666667
604,8.533333333333333,-539.7333333333333,-454.4
605,2.1333333333333333,-535.4666666666667,-435.2
606,4.266666666666667,-529.0666666666666,-441.59999999999997
607,-19.2,-529.0666666666666,-435.2
608,-23.466666666666665,-529.0666666666666,-422.4
609,-46.93333333333333,-526.9333333333333,-401.06666666666666
610,-44.8,-546.1333333333333,-407.46666666666664
611,-25.6,-544.0,-426.6666666666667
612,-17.066666666666666,-548.2666666666667,-409.6
613,-14.933333333333334,-548.2666666666667,-416.0
614,-8.533333333333333,-544.0,-420.26666666666665
615,-14.933333333333334,-535.4666666666667,-413.8666666666667
616,-25.6,-546.1333333333333,-401.06666666666666
617,-34.13333333333333,-550.4,-403.2
618,-29.866666666666667,-552.5333333333333,-405.3333333333333
619,-27.733333333333334,-563.2,-394.6666666666667
620,-25.6,-569.6,-407.46666666666664
621,-21.333333333333332,-573.8666666666667,-398.93333333333334
622,-17.066666666666666,-567.4666666666667,-396.8
623,-10.666666666666666,-571.7333333333333,-396.8
624,12.8,-580.2666666666667,-392.5333333333333
625,10.666666666666666,-582.4,-390.4
626,8.533333333333333,-576.0,-373.3333333333333
627,10.666666666666666,-582.4,-366.93333333333334
628,2.1333333333333333,-576.0,-352.0
629,-2.1333333333333333,-561.0666666666666,-322.1333333333333
630,-17.066666666666666,-561.0666666666666,-311.46666666666664
631,-14.933333333333334,-558.9333333333333,-324.26666666666665
632,-19.2,-556.8,-302.93333333333334
633,-14.933333333333334,-558.9333333333333,-309.3333333333333
634,-29.866666666666667,-563.2,-294.4
635,-21.333333333333332,-586.6666666666666,-290.1333333333333
636,-10.666666666666666,-595.2,-309.3333333333333
637,-2.1333333333333333,-593.0666666666666,-305.06666666666666
638,6.4,-599.4666666666667,-305.06666666666666
639,21.333333333333332,-590.9333333333333,-313.6
640,21.333333333333332,-586.6666666666666,-298.6666666666667
641,27.733333333333334,-573.8666666666667,-288.0
642,-27.733333333333334,-593.0666666666666,-266.6666666666667
643,27.733333333333334,-584.5333333333333,-268.8
644,19.2,-595.2,-245.33333333333334
645,10.666666666666666,-597.3333333333334,-238.93333333333334
646,4.266666666666667,-605.8666666666667,-230.4
647,4.266666666666667,-610.1333333333333,-234.66666666666666
648,-14.933333333333334,-603.7333333333333,-241.06666666666666
649,-6.4,-590.9333333333333,-238.93333333333334
650,-8.533333333333333,-576.0,-251.73333333333332
651,-4.266666666666667,-567.4666666666667,-251.73333333333332
652,4.266666666666667,-567.4666666666667,-241.06666666666666
653,2.1333333333333333,-565.3333333333334,-232.53333333333333
654,8.533333333333333,-561.0666666666666,-226.13333333333333
655,6.4,-552.5333333333333,-221.86666666666667
656,19.2,-552.5333333333333,-219.73333333333332
657,19.2,-550.4,-215.46666666666667
658,21.333333333333332,-548.2666666666667,-202.66666666666666
659,21.333333333333332,-552.5333333333333,-209.06666666666666
660,25.6,-563.2,-174.93333333333334
661,29.866666666666667,-558.9333333333333,-187.73333333333332
662,27.733333333333334,-556.8,-206.93333333333334
663,23.466666666666665,-580.2666666666667,-204.8
664,21.333333333333332,-608.0,-221.86666666666667
665,25.6,-648.5333333333333,-245.33333333333334
666,29.866666666666667,-682.6666666666666,-285.8666666666667
667,46.93333333333333,-723.2,-358.4
668,57.6,-785.0666666666666,-396.8
669,55.46666666666667,-849.0666666666666,-424.5333333333333
670,66.13333333333333,-928.0,-448.0
671,68.26666666666667,-970.6666666666666,-420.26666666666665
672,59.733333333333334,-972.8,-379.73333333333335
673,40.53333333333333,-923.7333333333333,-320.0
674,25.6,-838.4,-270.93333333333334
675,2.1333333333333333,-723.2,-226.13333333333333
676,-4.266666666666667,-635.7333333333333,-206.93333333333334
677,-21.333333333333332,-526.9333333333333,-187.73333333333332
678,-17.066666666666666,-426.6666666666667,-164.26666666666665
679,-10.666666666666666,-341.3333333333333,-151.46666666666667
680,-6.4,-277.3333333333333,-138.66666666666666
681,10.666666666666666,-249.6,-119.46666666666667
682,14.933333333333334,-247.46666666666667,-104.53333333333333
683,25.6,-266.6666666666667,-102.4
684,36.266666666666666,-302.93333333333334,-96.0
685,44.8,-356.26666666666665,-98.13333333333333
686,40.53333333333333,-407.46666666666664,-106.66666666666667
687,38.4,-441.59999999999997,-102.4
688,32.0,-477.8666666666667,-96.0
689,27.733333333333334,-505.59999999999997,-104.53333333333333
690,14.933333333333334,-516.2666666666667,-98.13333333333333
691,12.8,-533.3333333333334,-93.86666666666666
692,12.8,-546.1333333333333,-100.26666666666667
693,12.8,-554.6666666666666,-98.13333333333333
694,10.666666666666666,-556.8,-91.73333333333333
695,2.1333333333333333,-556.8,-93.86666666666666
696,4.266666666666667,-576.0,-102.4
697,2.1333333333333333,-580.2666666666667,-117.33333333333333
698,8.533333333333333,-590.9333333333333,-130.13333333333333
699,10.666666666666666,-597.3333333333334,-136.53333333333333
700,23.466666666666665,-608.0,-145.06666666666666
701,25.6,-616.5333333333333,-155.73333333333332
702,32.0,-618.6666666666666,-149.33333333333334
703,34.13333333333333,-622.9333333333333,-160.0
704,44.8,-605.8666666666667,-147.2
705,51.2,-584.5333333333333,-155.73333333333332
706,49.06666666666666,-571.7333333333333,-149.33333333333334
707,55.46666666666667,-548.2666666666667,-140.8
708,51.2,-516.2666666666667,-140.8
709,46.93333333333333,-490.6666666666667,-136.53333333333333
710,59.733333333333334,-465.06666666666666,-130.13333333333333
711,59.733333333333334,-456.5333333333333,-128.0
712,57.6,-439.46666666666664,-119.46666666666667
713,61.86666666666667,-448.0,-117.33333333333333
714,68.26666666666667,-445.8666666666667,-115.2
715,72.53333333333333,-465.06666666666666,-113.06666666666666
716,66.13333333333333,-469.3333333333333,-119.46666666666667
717,70.4,-488.5333333333333,-108.8
718,70.4,-501.3333333333333,-102.4
719,74.66666666666667,-516.2666666666667,-100.26666666666667
720,78.93333333333334,-524.8,-91.73333333333333
721,76.8,-535.4666666666667,-89.6
722,68.26666666666667,-539.7333333333333,-85.33333333333333
723,72.53333333333333,-541.8666666666667,-81.06666666666666
724,66.13333333333333,-539.7333333333333,-72.53333333333333
725,57.6,-531.2,-59.733333333333334
726,70.4,-535.4666666666667,-70.4
727,70.4,-533.3333333333334,-66.13333333333333
728,70.4,-526.9333333333333,-59.733333333333334
729,68.26666666666667,-520.5333333333333,-70.4
730,68.26666666666667,-524.8,-61.86666666666667
731,66.13333333333333,-518.4,-61.86666666666667
732,74.66666666666667,-514.1333333333333,-68.26666666666667
733,76.8,-516.2666666666667,-74.66666666666667
734,74.66666666666667,-518.4,-83.2
735,78.93333333333334,-526.9333333333333,-78.93333333333334
736,81.06666666666666,-535.4666666666667,-96.0
737,78.93333333333334,-548.2666666666667,-96.0
738,74.66666666666667,-554.6666666666666,-87.46666666666667
739,72.53333333333333,-556.8,-96.0
740,70.4,-567.4666666666667,-100.26666666666667
741,66.13333333333333,-567.4666666666667,-98.13333333333333
742,72.53333333333333,-567.4666666666667,-91.73333333333333
743,64.0,-578.1333333333333,-89.6
744,70.4,-571.7333333333333,-83.2
745,64.0,-567.4666666666667,-78.93333333333334
746,59.733333333333334,-569.6,-57.6
747,55.46666666666667,-558.9333333333333,-66.13333333333333
748,51.2,-548.2666666666667,-44.8
749,57.6,-537.6,-46.93333333333333
750,57.6,-516.2666666666667,-44.8
751,64.0,-509.8666666666667,-32.0
752,55.46666666666667,-497.06666666666666,-21.333333333333332
753,57.6,-494.93333333333334,-14.933333333333334
754,57.6,-486.4,-8.533333333333333
755,55.46666666666667,-484.26666666666665,-6.4
756,55.46666666666667,-480.0,-12.8
757,42.666666666666664,-475.73333333333335,-19.2
758,55.46666666666667,-488.5333333333333,-6.4
759,55.46666666666667,-494.93333333333334,-19.2
760,55.46666666666667,-499.2,-29.866666666666667
761,53.333333333333336,-514.1333333333333,-19.2
762,53.333333333333336,-516.2666666666667,-21.333333333333332
763,53.333333333333336,-526.9333333333333,-32.0
764,59.733333333333334,-535.4666666666667,-42.666666666666664
765,57.6,-546.1333333333333,-38.4
766,61.86666666666667,-546.1333333333333,-40.53333333333333
767,57.6,-546.1333333333333,-49.06666666666666
768,55.46666666666667,-548.2666666666667,-46.93333333333333
769,57.6,-546.1333333333333,-51.2
770,53.333333333333336,-552.5333333333333,-57.6
771,57.6,-546.1333333333333,-64.0
772,49.06666666666666,-535.4666666666667,-61.86666666666667
773,46.93333333333333,-533.3333333333334,-64.0
774,42.666666666666664,-535.4666666666667,-46.93333333333333
775,44.8,-531.2,-55.46666666666667
776,40.53333333333333,-533.3333333333334,-57.6
777,36.266666666666666,-529.0666666666666,-53.333333333333336
778,38.4,-520.5333333333333,-49.06666666666666
779,40.53333333333333,-524.8,-46.93333333333333
780,49.06666666666666,-531.2,-46.93333333333333
781,36.266666666666666,-524.8,-46.93333333333333
782,49.06666666666666,-526.9333333333333,-46.93333333333333
783,46.93333333333333,-533.3333333333334,-49.06666666666666
784,49.06666666666666,-539.7333333333333,-57.6
785,55.46666666666667,-537.6,-64.0
786,46.93333333333333,-548.2666666666667,-66.13333333333333
787,40.53333333333333,-548.2666666666667,-61.86666666666667
788,42.666666666666664,-546.1333333333333,-68.26666666666667
789,40.53333333333333,-550.4,-74.66666666666667
790,36.266666666666666,-554.6666666666666,-70.4
791,44.8,-554.6666666666666,-72.53333333333333
792,36.266666666666666,-556.8,-72.53333333333333
793,32.0,-552.5333333333333,-57.6
794,29.866666666666667,-554.6666666666666,-53.333333333333336
795,27.733333333333334,-548.2666666666667,-53.333333333333336
796,23.466666666666665,-546.1333333333333,-46.93333333333333
797,19.2,-546.1333333333333,-49.06666666666666
798,14.933333333333334,-544.0,-49.06666666666666
799,17.066666666666666,-537.6,-42.666666666666664
800,14.933333333333334,-537.6,-29.866666666666667
801,12.8,-531.2,-38.4
802,17.066666666666666,-533.3333333333334,-27.733333333333334
803,17.066666666666666,-531.2,-32.0
804,12.8,-526.9333333333333,-27.733333333333334
805,21.333333333333332,-526.9333333333333,-34.13333333333333
806,19.2,-522.6666666666666,-27.733333333333334
807,25.6,-533.3333333333334,-25.6
808,21.333333333333332,-529.0666666666666,-27.733333333333334
809,27.733333333333334,-529.0666666666666,-29.866666666666667
810,32.0,-533.3333333333334,-23.466666666666665
811,34.13333333333333,-531.2,-29.866666666666667
812,38.4,-533.3333333333334,-34.13333333333333
813,40.53333333333333,-537.6,-38.4
814,42.666666666666664,-533.3333333333334,-36.266666666666666
815,44.8,-531.2,-38.4
816,44.8,-533.3333333333334,-42.666666666666664
817,49.06666666666666,-541.8666666666667,-49.06666666666666
818,49.06666666666666,-535.4666666666667,-51.2
819,46.93333333333333,-546.1333333333333,-32.0
820,44.8,-541.8666666666667,-42.666666666666664
821,49.06666666666666,-550.4,-40.53333333333333
822,40.53333333333333,-548.2666666666667,-27.733333333333334
823,40.53333333333333,-552.5333333333333,-38.4
824,44.8,-550.4,-36.266666666666666
825,36.266666666666666,-541.8666666666667,-40.53333333333333
826,36.266666666666666,-548.2666666666667,-40.53333333333333
827,40.53333333333333,-544.0,-42.666666666666664
828,32.0,-544.0,-42.666666666666664
829,32.0,-546.1333333333333,-36.266666666666666
830,34.13333333333333,-546.1333333333333,-40.53333333333333
831,32.0,-541.8666666666667,-38.4
832,23.466666666666665,-533.3333333333334,-38.4
833,27.733333333333334,-541.8666666666667,-40.53333333333333
834,27.733333333333334,-535.4666666666667,-34.13333333333333
835,23.466666666666665,-531.2,-34.13333333333333
836,23.466666666666665,-529.0666666666666,-34.13333333333333
837,34.13333333333333,-535.4666666666667,-44.8
838,32.0,-537.6,-38.4
839,29.866666666666667,-535.4666666666667,-46.93333333333333
840,32.0,-546.1333333333333,-44.8
841,23.466666666666665,-544.0,-53.333333333333336
842,29.866666666666667,-550.4,-46.93333333333333
843,27.733333333333334,-544.0,-44.8
844,29.866666666666667,-548.2666666666667,-44.8
845,27.733333333333334,-550.4,-42.666666666666664
846,25.6,-544.0,-49.06666666666666
847,27.733333333333334,-546.1333333333333,-42.666666666666664
848,27.733333333333334,-546.1333333333333,-34.13333333333333
849,21.333333333333332,-539.7333333333333,-36.266666666666666
850,17.066666666666666,-546.1333333333333,-42.666666666666664
851,27.733333333333334,-539.7333333333333,-36.266666666666666
852,29.866666666666667,-539.7333333333333,-42.666666666666664
853,32.0,-537.6,-42.666666666666664
854,32.0,-539.7333333333333,-34.13333333333333
855,21.333333333333332,-539.7333333333333,-32.0
856,25.6,-535.4666666666667,-38.4
857,32.0,-541.8666666666667,-32.0
858,29.866666666666667,-539.7333333333333,-34.13333333333333
859,27.733333333333334,-541.8666666666667,-36.266666666666666
860,29.866666666666667,-544.0,-32.0
861,32.0,-548.2666666666667,-21.333333333333332
862,23.466666666666665,-546.1333333333333,-25.6
863,21.333333333333332,-544.0,-27.733333333333334
864,23.466666666666665,-546.1333333333333,-25.6
865,25.6,-544.0,-34.13333333333333
866,17.066666666666666,-548.2666666666667,-23.466666666666665
867,19.2,-546.1333333333333,-32.0
868,25.6,-550.4,-29.866666666666667
869,25.6,-554.6666666666666,-40.53333333333333
870,21.333333333333332,-550.4,-51.2
871,25.6,-558.9333333333333,-49.06666666666666
872,23.466666666666665,-558.9333333333333,-51.2
873,21.333333333333332,-556.8,-44.8
874,17.066666666666666,-537.6,-74.66666666666667
875,23.466666666666665,-558.9333333333333,-55.46666666666667
876,21.333333333333332,-554.6666666666666,-51.2
877,23.466666666666665,-552.5333333333333,-46.93333333333333
878,27.733333333333334,-550.4,-55.46666666666667
879,32.0,-550.4,-42.666666666666664
880,32.0,-544.0,-38.4
881,29.866666666666667,-539.7333333333333,-44.8
882,36.266666666666666,-537.6,-38.4
883,34.13333333333333,-537.6,-38.4
884,36.266666666666666,-539.7333333333333,-42.666666666666664
885,34.13333333333333,-526.9333333333333,-38.4
886,34.13333333333333,-531.2,-32.0
887,21.333333333333332,-526.9333333333333,-36.266666666666666
888,27.733333333333334,-529.0666666666666,-32.0
889,25.6,-526.9333333333333,-29.866666666666667
890,25.6,-529.0666666666666,-34.13333333333333
891,27.733333333333334,-526.9333333333333,-21.333333333333332
892,27.733333333333334,-529.0666666666666,-21.333333333333332
893,14.933333333333334,-529.0666666666666,-21.333333333333332
894,21.333333333333332,-539.7333333333333,-10.666666666666666
895,21.333333333333332,-533.3333333333334,-17.066666666666666
896,14.933333333333334,-548.2666666666667,-8.533333333333333
897,14.933333333333334,-548.2666666666667,-14.933333333333334
898,21.333333333333332,-550.4,-17.066666666666666
899,19.2,-546.1333333333333,-21.333333333333332
900,27.733333333333334,-550.4,-29.866666666666667
901,29.866666666666667,-554.6666666666666,-34.13333333333333
902,32.0,-554.6666666666666,-38.4
903,38.4,-554.6666666666666,-40.53333333333333
904,36.266666666666666,-552.5333333333333,-49.06666666666666
905,36.266666666666666,-552.5333333333333,-42.666666666666664
906,32.0,-546.1333333333333,-49.06666666666666
907,32.0,-550.4,-53.333333333333336
908,34.13333333333333,-550.4,-49.06666666666666
909,29.866666666666667,-546.1333333333333,-59.733333333333334
910,32.0,-546.1333333333333,-53.333333333333336
911,36.266666666666666,-541.8666666666667,-55.46666666666667
912,32.0,-552.5333333333333,-55.46666666666667
913,32.0,-544.0,-51.2
914,29.866666666666667,-539.7333333333333,-51.2
915,32.0,-548.2666666666667,-51.2
916,34.13333333333333,-548.2666666666667,-49.06666666666666
917,29.866666666666667,-541.8666666666667,-44.8
918,36.266666666666666,-544.0,-44.8
919,27.733333333333334,-544.0,-40.53333333333333
920,36.266666666666666,-535.4666666666667,-40.53333333333333
921,32.0,-541.8666666666667,-36.266666666666666
922,27.733333333333334,-539.7333333333333,-40.53333333333333
923,27.733333333333334,-541.8666666666667,-27.733333333333334
924,25.6,-535.4666666666667,-34.13333333333333
925,23.466666666666665,-539.7333333333333,-23.466666666666665
926,25.6,-541.8666666666667,-27.733333333333334
927,23.466666666666665,-539.7333333333333,-32.0
928,32.0,-537.6,-32.0
929,27.733333333333334,-535.4666666666667,-27.733333333333334
930,29.866666666666667,-541.8666666666667,-27.733333333333334
931,34.13333333333333,-541.8666666666667,-32.0
932,34.13333333333333,-541.8666666666667,-40.53333333333333
933,29.866666666666667,-548.2666666666667,-23.466666666666665
934,29.866666666666667,-548.2666666666667,-38.4
935,34.13333333333333,-552.5333333333333,-36.266666666666666
936,36.266666666666666,-554.6666666666666,-36.266666666666666
937,34.13333333333333,-554.6666666666666,-38.4
938,38.4,-554.6666666666666,-32.0
939,29.866666666666667,-552.5333333333333,-38.4
940,29.866666666666667,-550.4,-36.266666666666666
941,29.866666666666667,-550.4,-32.0
942,27.733333333333334,-548.2666666666667,-27.733333333333334
943,27.733333333333334,-550.4,-36.266666666666666
944,27.733333333333334,-544.0,-36.266666666666666
945,27.733333333333334,-548.2666666666667,-40.53333333333333
946,29.866666666666667,-539.7333333333333,-29.866666666666667
947,27.733333333333334,-546.1333333333333,-25.6
948,27.733333333333334,-541.8666666666667,-27.733333333333334
949,32.0,-541.8666666666667,-34.13333333333333
950,32.0,-548.2666666666667,-25.6
951,29.866666666666667,-546.1333333333333,-34.13333333333333
952,36.266666666666666,-539.7333333333333,-29.866666666666667
953,32.0,-541.8666666666667,-36.266666666666666
954,32.0,-539.7333333333333,-36.266666666666666
955,29.866666666666667,-541.8666666666667,-36.266666666666666
956,29.866666666666667,-546.1333333333333,-38.4
957,27.733333333333334,-546.1333333333333,-40.53333333333333
958,29.866666666666667,-546.1333333333333,-36.266666666666666
959,27.733333333333334,-541.8666666666667,-40.53333333333333
960,29.866666666666667,-544.0,-29.866666666666667
961,36.266666666666666,-548.2666666666667,-29.866666666666667
962,25.6,-544.0,-32.0
963,32.0,-544.0,-36.266666666666666
964,32.0,-539.7333333333333,-34.13333333333333
965,32.0,-539.7333333333333,-38.4
966,32.0,-541.8666666666667,-27.733333333333334
967,34.13333333333333,-539.7333333333333,-29.866666666666667
968,29.866666666666667,-539.7333333333333,-32.0
969,27.733333333333334,-537.6,-25.6
970,23.466666666666665,-537.6,-25.6
971,29.866666666666667,-537.6,-27.733333333333334
972,29.866666666666667,-533.3333333333334,-29.866666666666667
973,34.13333333333333,-541.8666666666667,-32.0
974,29.866666666666667,-535.4666666666667,-34.13333333333333
975,29.866666666666667,-541.8666666666667,-32.0
976,29.866666666666667,-544.0,-10.666666666666666
977,23.466666666666665,-541.8666666666667,-27.733333333333334
978,27.733333333333334,-539.7333333333333,-25.6
979,32.0,-544.0,-32.0
980,27.733333333333334,-537.6,-23.466666666666665
981,25.6,-550.4,-23.466666666666665
982,27.733333333333334,-550.4,-25.6
983,32.0,-552.5333333333333,-27.733333333333334
984,25.6,-554.6666666666666,-34.13333333333333
985,27.733333333333334,-552.5333333333333,-38.4
986,32.0,-552.5333333333333,-40.53333333333333
987,29.866666666666667,-556.8,-42.666666666666664
988,34.13333333333333,-550.4,-38.4
989,34.13333333333333,-554.6666666666666,-44.8
990,36.266666666666666,-552.5333333333333,-40.53333333333333
991,29.866666666666667,-552.5333333333333,-27.733333333333334
992,29.866666666666667,-552.5333333333333,-38.4
993,29.866666666666667,-552.5333333333333,-36.266666666666666
994,27.733333333333334,-552.5333333333333,-23.466666666666665
995,25.6,-552.5333333333333,-23.466666666666665
996,23.466666666666665,-544.0,-34.13333333333333
997,29.866666666666667,-552.5333333333333,-23.466666666666665
998,27.733333333333334,-550.4,-23.466666666666665
999,32.0,-537.6,-21.333333333333332
1000,29.866666666666667,-539.7333333333333,-25.6
1001,27.733333333333334,-539.7333333333333,-19.2
1002,27.733333333333334,-541.8666666666667,-25.6
1003,25.6,-544.0,-27.733333333333334
1004,34.13333333333333,-541.8666666666667,-25.6
1005,32.0,-537.6,-23.466666666666665
1006,34.13333333333333,-533.3333333333334,-23.466666666666665
1007,32.0,-537.6,-29.866666666666667
1008,27.733333333333334,-535.4666666666667,-29.866666666666667
1009,36.266666666666666,-539.7333333333333,-27.733333333333334
1010,32.0,-541.8666666666667,-23.466666666666665
1011,32.0,-546.1333333333333,-21.333333333333332
1012,27.733333333333334,-544.0,-29.866666666666667
1013,36.266666666666666,-546.1333333333333,-17.066666666666666
1014,29.866666666666667,-544.0,-21.333333333333332
1015,27.733333333333334,-537.6,-29.866666666666667
1016,29.866666666666667,-548.2666666666667,-23.466666666666665
1017,27.733333333333334,-546.1333333333333,-29.866666666666667
1018,29.866666666666667,-541.8666666666667,-27.733333333333334
1019,29.866666666666667,-550.4,-29.866666666666667
1020,32.0,-546.1333333333333,-27.733333333333334
1021,34.13333333333333,-550.4,-29.866666666666667
1022,27.733333333333334,-541.8666666666667,-23.466666666666665
1023,29.866666666666667,-548.2666666666667,-19.2
1024,25.6,-541.8666666666667,-25.6
1025,32.0,-548.2666666666667,-23.466666666666665
1026,27.733333333333334,-546.1333333333333,-21.333333333333332
1027,34.13333333333333,-544.0,-21.333333333333332
1028,32.0,-548.2666666666667,-19.2
1029,27.733333333333334,-539.7333333333333,-19.2
1030,32.0,-541.8666666666667,-12.8
1031,32.0,-539.7333333333333,-23.466666666666665
1032,27.733333333333334,-550.4,-21.333333333333332
1033,23.466666666666665,-539.7333333333333,-14.933333333333334
1034,27.733333333333334,-541.8666666666667,-17.066666666666666
1035,25.6,-544.0,-12.8
1036,29.866666666666667,-546.1333333333333,-17.066666666666666
1037,29.866666666666667,-548.2666666666667,-25.6
1038,27.733333333333334,-552.5333333333333,-23.466666666666665
1039,29.866666666666667,-548.2666666666667,-29.866666666666667
1040,32.0,-544.0,-29.866666666666667
1041,40.53333333333333,-548.2666666666667,-25.6
1042,32.0,-548.2666666666667,-27.733333333333334
1043,34.13333333333333,-546.1333333333333,-27.733333333333334
1044,34.13333333333333,-548.2666666666667,-25.6
1045,32.0,-546.1333333333333,-21.333333333333332
1046,29.866666666666667,-544.0,-17.066666666666666
1047,25.6,-544.0,-21.333333333333332
1048,34.13333333333333,-539.7333333333333,-25.6
1049,29.866666666666667,-544.0,-12.8
1050,29.866666666666667,-548.2666666666667,-19.2
1051,25.6,-539.7333333333333,-19.2
1052,21.333333333333332,-535.4666666666667,-10.666666666666666
1053,32.0,-544.0,-17.066666666666666
1054,17.066666666666666,-537.6,-17.066666666666666
1055,19.2,-533.3333333333334,-19.2
1056,19.2,-537.6,-21.333333333333332
1057,23.466666666666665,-539.7333333333333,-14.933333333333334
1058,21.333333333333332,-541.8666666666667,-21.333333333333332
1059,21.333333333333332,-548.2666666666667,-19.2
1060,25.6,-548.2666666666667,-21.333333333333332
1061,21.333333333333332,-541.8666666666667,-17.066666666666666
1062,19.2,-539.7333333333333,-25.6
1063,25.6,-541.8666666666667,-21.333333333333332
1064,27.733333333333334,-537.6,-14.933333333333334
1065,29.866666666666667,-541.8666666666667,-14.933333333333334
1066,25.6,-546.1333333333333,-27.733333333333334
1067,27.733333333333334,-544.0,-21.333333333333332
1068,21.333333333333332,-539.7333333333333,-21.333333333333332
1069,27.733333333333334,-541.8666666666667,-19.2
1070,34.13333333333333,-548.2666666666667,-21.333333333333332
1071,32.0,-548.2666666666667,-17.066666666666666
1072,32.0,-548.2666666666667,-23.466666666666665
1073,32.0,-550.4,-21.333333333333332
1074,27.733333333333334,-548.2666666666667,-14.933333333333334
1075,25.6,-544.0,-17.066666666666666
1076,29.866666666666667,-546.1333333333333,-21.333333333333332
1077,27.733333333333334,-552.5333333333333,-19.2
1078,25.6,-544.0,-14.933333333333334
1079,42.666666666666664,-539.7333333333333,-23.466666666666665
1080,44.8,-546.1333333333333,2.1333333333333333
1081,55.46666666666667,-546.1333333333333,2.1333333333333333
1082,40.53333333333333,-546.1333333333333,32.0
1083,32.0,-533.3333333333334,-40.53333333333333
1084,42.666666666666664,-541.8666666666667,-21.333333333333332
1085,38.4,-544.0,-29.866666666666667
1086,27.733333333333334,-539.7333333333333,-14.933333333333334
1087,25.6,-537.6,-14.933333333333334
1088,25.6,-541.8666666666667,-19.2
1089,27.733333333333334,-544.0,-8.533333333333333
1090,32.0,-550.4,-6.4
1091,25.6,-539.7333333333333,-17.066666666666666
1092,29.866666666666667,-539.7333333333333,-8.533333333333333
1093,32.0,-548.2666666666667,-21.333333333333332
1094,34.13333333333333,-544.0,-17.066666666666666
1095,29.866666666666667,-550.4,-21.333333333333332
1096,34.13333333333333,-546.1333333333333,-12.8
1097,34.13333333333333,-546.1333333333333,-23.466666666666665
1098,36.266666666666666,-546.1333333333333,-23.466666666666665
1099,32.0,-541.8666666666667,-19.2
1100,29.866666666666667,-544.0,-17.066666666666666
1101,27.733333333333334,-544.0,-17.066666666666666
1102,27.733333333333334,-544.0,-25.6
1103,29.866666666666667,-544.0,-14.933333333333334
1104,25.6,-544.0,-19.2
1105,23.466666666666665,-544.0,-17.066666666666666
1106,14.933333333333334,-544.0,-17.066666666666666
1107,23.466666666666665,-546.1333333333333,-17.066666666666666
1108,27.733333333333334,-541.8666666666667,-14.933333333333334
1109,23.466666666666665,-541.8666666666667,-8.533333333333333
1110,25.6,-544.0,-12.8
1111,27.733333333333334,-541.8666666666667,-8.533333333333333
1112,25.6,-544.0,-14.933333333333334
1113,36.266666666666666,-541.8666666666667,-25.6
1114,32.0,-548.2666666666667,-17.066666666666666
1115,32.0,-546.1333333333333,-23.466666666666665
1116,29.866666666666667,-539.7333333333333,-14.933333333333334
1117,29.866666666666667,-537.6,-12.8
1118,27.733333333333334,-539.7333333333333,-19.2
1119,32.0,-541.8666666666667,-19.2
1120,29.866666666666667,-548.2666666666667,-17.066666666666666
1121,34.13333333333333,-541.8666666666667,-23.466666666666665
1122,32.0,-544.0,-14.933333333333334
1123,32.0,-548.2666666666667,-23.466666666666665
1124,29.866666666666667,-544.0,-23.466666666666665
1125,34.13333333333333,-537.6,-23.466666666666665
1126,29.866666666666667,-544.0,-19.2
1127,25.6,-541.8666666666667,-19.2
1128,32.0,-546.1333333333333,-4.266666666666667
1129,25.6,-539.7333333333333,-17.066666666666666
1130,27.733333333333334,-544.0,-14.933333333333334
1131,29.866666666666667,-548.2666666666667,-25.6
1132,27.733333333333334,-548.2666666666667,-17.066666666666666
1133,25.6,-546.1333333333333,-19.2
1134,25.6,-541.8666666666667,-12.8
1135,27.733333333333334,-544.0,-19.2
1136,27.733333333333334,-541.8666666666667,-14.933333333333334
1137,25.6,-546.1333333333333,-14.933333333333334
1138,29.866666666666667,-550.4,-14.933333333333334
1139,29.866666666666667,-550.4,-23.466666666666665
1140,27.733333333333334,-541.8666666666667,-17.066666666666666
1141,29.866666666666667,-539.7333333333333,-14.933333333333334
1142,29.866666666666667,-539.7333333333333,-17.066666666666666
1143,23.466666666666665,-541.8666666666667,-12.8
1144,17.066666666666666,-539.7333333333333,-14.933333333333334
1145,23.466666666666665,-544.0,-12.8
1146,32.0,-544.0,-12.8
1147,23.466666666666665,-541.8666666666667,-6.4
1148,23.466666666666665,-541.8666666666667,-17.066666666666666
1149,23.466666666666665,-544.0,-12.8
1150,27.733333333333334,-541.8666666666667,-17.066666666666666
1151,29.866666666666667,-546.1333333333333,-17.066666666666666
1152,25.6,-539.7333333333333,-21.333333333333332
1153,27.733333333333334,-544.0,-21.333333333333332
1154,27.733333333333334,-544.0,-19.2
1155,36.266666666666666,-550.4,-25.6
1156,29.866666666666667,-546.1333333333333,-17.066666666666666
1157,25.6,-548.2666666666667,-17.066666666666666
1158,29.866666666666667,-544.0,-14.933333333333334
1159,25.6,-546.1333333333333,-19.2
1160,23.466666666666665,-546.1333333333333,-19.2
1161,29.866666666666667,-546.1333333333333,-10.666666666666666
1162,21.333333333333332,-537.6,-10.666666666666666
1163,25.6,-541.8666666666667,-27.733333333333334
1164,25.6,-544.0,-17.066666666666666
1165,25.6,-544.0,-17.066666666666666
1166,29.866666666666667,-550.4,-17.066666666666666
1167,27.733333333333334,-548.2666666666667,-12.8
1168,34.13333333333333,-544.0,-8.533333333333333
1169,29.866666666666667,-544.0,-14.933333333333334
1170,32.0,-550.4,-14.933333333333334
1171,29.866666666666667,-552.5333333333333,-21.333333333333332
1172,25.6,-546.1333333333333,-12.8
1173,29.866666666666667,-552.5333333333333,-21.333333333333332
1174,29.866666666666667,-546.1333333333333,-17.066666666666666
1175,40.53333333333333,-544.0,-21.333333333333332
1176,34.13333333333333,-550.4,-21.333333333333332
1177,27.733333333333334,-546.1333333333333,-10.666666666666666
1178,29.866666666666667,-541.8666666666667,-19.2
1179,27.733333333333334,-544.0,-12.8
1180,25.6,-546.1333333333333,-14.933333333333334
1181,27.733333333333334,-546.1333333333333,-17.066666666666666
1182,27.733333333333334,-541.8666666666667,-12.8
1183,27.733333333333334,-544.0,-19.2
1184,27.733333333333334,-546.1333333333333,-12.8
1185,23.466666666666665,-539.7333333333333,-17.066666666666666
1186,29.866666666666667,-544.0,-17.066666666666666
1187,25.6,-544.0,-17.066666666666666
1188,23.466666666666665,-541.8666666666667,-17.066666666666666
1189,29.866666666666667,-548.2666666666667,-19.2
1190,25.6,-548.2666666666667,-12.8
1191,25.6,-544.0,-8.533333333333333
1192,23.466666666666665,-541.8666666666667,-12.8
1193,29.866666666666667,-539.7333333333333,-14.933333333333334
1194,32.0,-544.0,-10.666666666666666
1195,29.866666666666667,-544.0,-17.066666666666666
1196,25.6,-544.0,-12.8
1197,27.733333333333334,-539.7333333333333,-14.933333333333334
1198,29.866666666666667,-546.1333333333333,-12.8
1199,27.733333333333334,-548.2666666666667,-8.533333333333333
1200,25.6,-541.8666666666667,-14.933333333333334
1201,25.6,-539.7333333333333,-19.2
1202,25.6,-546.1333333333333,-12.8
1203,25.6,-548.2666666666667,-23.466666666666665
1204,25.6,-552.5333333333333,-10.666666666666666
1205,34.13333333333333,-548.2666666666667,-25.6
1206,29.866666666666667,-544.0,-19.2
1207,32.0,-548.2666666666667,-23.466666666666665
1208,29.866666666666667,-552.5333333333333,-19.2
1209,32.0,-548.2666666666667,-14.933333333333334
1210,27.733333333333334,-544.0,-27.733333333333334
1211,32.0,-546.1333333333333,-23.466666666666665
1212,27.733333333333334,-544.0,-17.066666666666666
1213,27.733333333333334,-546.1333333333333,-21.333333333333332
1214,27.733333333333334,-544.0,-21.333333333333332
1215,25.6,-544.0,-21.333333333333332
1216,23.466666666666665,-541.8666666666667,-23.466666666666665
1217,23.466666666666665,-544.0,-14.933333333333334
1218,21.333333333333332,-539.7333333333333,-21.333333333333332
1219,21.333333333333332,-546.1333333333333,-14.933333333333334
1220,19.2,-546.1333333333333,-10.666666666666666
1221,19.2,-544.0,-14.933333333333334
1222,21.333333333333332,-546.1333333333333,-8.533333333333333
1223,23.466666666666665,-548.2666666666667,-17.066666666666666
1224,23.466666666666665,-539.7333333333333,-17.066666666666666
1225,27.733333333333334,-539.7333333333333,-14.933333333333334
1226,25.6,-539.7333333333333,-17.066666666666666
1227,23.466666666666665,-548.2666666666667,-17.066666666666666
1228,27.733333333333334,-539.7333333333333,-17.066666666666666
1229,25.6,-541.8666666666667,-14.933333333333334
1230,27.733333333333334,-544.0,-12.8
1231,27.733333333333334,-539.7333333333333,-21.333333333333332
1232,29.866666666666667,-537.6,-21.333333333333332
1233,21.333333333333332,-537.6,-17.066666666666666
1234,27.733333333333334,-548.2666666666667,-12.8
1235,25.6,-541.8666666666667,-10.666666666666666
1236,27.733333333333334,-539.7333333333333,-12.8
1237,32.0,-544.0,-19.2
1238,34.13333333333333,-544.0,-14.933333333333334
1239,23.466666666666665,-541.8666666666667,-25.6
1240,27.733333333333334,-544.0,-10.666666666666666
1241,27.733333333333334,-546.1333333333333,-14.933333333333334
1242,25.6,-548.2666666666667,-14.933333333333334
1243,34.13333333333333,-550.4,-10.666666666666666
1244,25.6,-544.0,-14.933333333333334
1245,29.866666666666667,-548.2666666666667,-12.8
1246,29.866666666666667,-548.2666666666667,-17.066666666666666
1247,29.866666666666667,-541.8666666666667,-6.4
1248,27.733333333333334,-546.1333333333333,-12.8
1249,29.866666666666667,-541.8666666666667,-12.8
1250,23.466666666666665,-539.7333333333333,-17.066666666666666
1251,27.733333333333334,-539.7333333333333,-12.8
1252,34.13333333333333,-539.7333333333333,-8.533333333333333
1253,32.0,-541.8666666666667,-17.066666666666666
1254,21.333333333333332,-548.2666666666667,-12.8
1255,29.866666666666667,-544.0,-14.933333333333334
1256,27.733333333333334,-544.0,-4.266666666666667
1257,23.466666666666665,-539.7333333333333,-17.066666666666666
1258,27.733333333333334,-544.0,-14.933333333333334
1259,25.6,-541.8666666666667,-14.933333333333334
1260,32.0,-541.8666666666667,-10.666666666666666
1261,25.6,-535.4666666666667,-10.666666666666666
1262,25.6,-537.6,-12.8
1263,29.866666666666667,-537.6,-21.333333333333332
1264,27.733333333333334,-541.8666666666667,-14.933333333333334
1265,32.0,-537.6,-19.2
1266,25.6,-535.4666666666667,-8.533333333333333
1267,29.866666666666667,-539.7333333333333,-10.666666666666666
1268,25.6,-535.4666666666667,-10.666666666666666
1269,27.733333333333334,-541.8666666666667,-12.8
1270,32.0,-548.2666666666667,-23.466666666666665
1271,32.0,-546.1333333333333,-14.933333333333334
1272,25.6,-550.4,-14.933333333333334
1273,29.866666666666667,-546.1333333333333,-19.2
1274,34.13333333333333,-550.4,-12.8
1275,32.0,-552.5333333333333,-27.733333333333334
1276,27.733333333333334,-546.1333333333333,-14.933333333333334
1277,29.866666666666667,-552.5333333333333,-14.933333333333334
1278,25.6,-546.1333333333333,-12.8
1279,25.6,-548.2666666666667,-21.333333333333332
1280,27.733333333333334,-552.5333333333333,-21.333333333333332
1281,19.2,-548.2666666666667,-21.333333333333332
1282,27.733333333333334,-550.4,-17.066666666666666
1283,23.466666666666665,-548.2666666666667,-10.666666666666666
1284,25.6,-552.5333333333333,-17.066666666666666
1285,23.466666666666665,-544.0,-19.2
1286,25.6,-544.0,-12.8
1287,23.466666666666665,-539.7333333333333,-14.933333333333334
1288,23.466666666666665,-544.0,-8.533333333333333
1289,25.6,-546.1333333333333,-8.533333333333333
1290,23.466666666666665,-548.2666666666667,-14.933333333333334
1291,23.466666666666665,-548.2666666666667,-12.8
1292,21.333333333333332,-537.6,-19.2
1293,21.333333333333332,-546.1333333333333,-14.933333333333334
1294,21.333333333333332,-550.4,-4.266666666666667
1295,23.466666666666665,-548.2666666666667,-10.666666666666666
1296,29.866666666666667,-544.0,-19.2
1297,23.466666666666665,-548.2666666666667,-8.533333333333333
1298,32.0,-548.2666666666667,-23.466666666666665
1299,32.0,-548.2666666666667,-17.066666666666666
1300,25.6,-550.4,-12.8
1301,27.733333333333334,-550.4,-17.066666666666666
1302,29.866666666666667,-546.1333333333333,-14.933333333333334
1303,29.866666666666667,-546.1333333333333,-12.8
1304,23.466666666666665,-544.0,-21.333333333333332
1305,19.2,-544.0,-19.2
1306,23.466666666666665,-546.1333333333333,-8.533333333333333
1307,19.2,-541.8666666666667,-12.8
1308,19.2,-539.7333333333333,-21.333333333333332
1309,25.6,-537.6,-19.2
1310,21.333333333333332,-539.7333333333333,-8.533333333333333
1311,23.466666666666665,-539.7333333333333,-12.8
1312,21.333333333333332,-535.4666666666667,-6.4
1313,23.466666666666665,-539.7333333333333,-8.533333333333333
1314,27.733333333333334,-535.4666666666667,-8.533333333333333
1315,21.333333333333332,-539.7333333333333,-8.533333333333333
1316,25.6,-537.6,-8.533333333333333
1317,25.6,-541.8666666666667,-4.266666666666667
1318,27.733333333333334,-535.4666666666667,-17.066666666666666
1319,29.866666666666667,-539.7333333333333,2.1333333333333333
1320,29.866666666666667,-539.7333333333333,2.1333333333333333
1321,32.0,-544.0,-10.666666666666666
1322,34.13333333333333,-541.8666666666667,-10.666666666666666
1323,29.866666666666667,-544.0,-12.8
1324,32.0,-541.8666666666667,-23.466666666666665
1325,27.733333333333334,-541.8666666666667,-17.066666666666666
1326,27.733333333333334,-546.1333333333333,-12.8
1327,29.866666666666667,-550.4,-8.533333333333333
1328,34.13333333333333,-552.5333333333333,-12.8
1329,27.733333333333334,-548.2666666666667,-19.2
1330,32.0,-552.5333333333333,-14.933333333333334
1331,32.0,-548.2666666666667,-10.666666666666666
1332,25.6,-550.4,-4.266666666666667
1333,27.733333333333334,-546.1333333333333,-6.4
1334,23.466666666666665,-546.1333333333333,-2.1333333333333333
1335,23.466666666666665,-541.8666666666667,-14.933333333333334
1336,25.6,-544.0,-6.4
1337,32.0,-544.0,-2.1333333333333333
1338,23.466666666666665,-533.3333333333334,-2.1333333333333333
1339,25.6,-535.4666666666667,0.0
1340,32.0,-537.6,-10.666666666666666
1341,27.733333333333334,-529.0666666666666,-2.1333333333333333
1342,25.6,-535.4666666666667,-2.1333333333333333
1343,27.733333333333334,-535.4666666666667,-12.8
1344,27.733333333333334,-537.6,-4.266666666666667
1345,25.6,-531.2,-6.4
1346,27.733333333333334,-537.6,-8.533333333333333
1347,23.466666666666665,-533.3333333333334,-8.533333333333333
1348,29.866666666666667,-537.6,-10.666666666666666
1349,32.0,-537.6,-6.4
1350,27.733333333333334,-544.0,-8.533333333333333
1351,27.733333333333334,-548.2666666666667,-8.533333333333333
1352,27.733333333333334,-548.2666666666667,-12.8
1353,25.6,-546.1333333333333,0.0
1354,27.733333333333334,-550.4,-12.8
1355,32.0,-546.1333333333333,-6.4
1356,25.6,-552.5333333333333,-17.066666666666666
1357,27.733333333333334,-550.4,-12.8
1358,25.6,-546.1333333333333,-10.666666666666666
1359,29.866666666666667,-554.6666666666666,0.0
1360,21.333333333333332,-550.4,-6.4
1361,19.2,-552.5333333333333,-10.666666666666666
1362,19.2,-550.4,-12.8
1363,27.733333333333334,-550.4,-8.533333333333333
1364,21.333333333333332,-544.0,-12.8
1365,23.466666666666665,-544.0,-4.266666666666667
1366,21.333333333333332,-546.1333333333333,-2.1333333333333333
1367,23.466666666666665,-537.6,-12.8
1368,21.333333333333332,-539.7333333333333,-8.533333333333333
1369,23.466666666666665,-541.8666666666667,-2.1333333333333333
1370,25.6,-539.7333333333333,-4.266666666666667
1371,23.466666666666665,-541.8666666666667,6.4
1372,21.333333333333332,-541.8666666666667,-2.1333333333333333
1373,21.333333333333332,-537.6,-10.666666666666666
1374,17.066666666666666,-544.0,-4.266666666666667
1375,27.733333333333334,-544.0,2.1333333333333333
1376,27.733333333333334,-544.0,-8.533333333333333
1377,27.733333333333334,-539.7333333333333,-8.533333333333333
1378,23.466666666666665,-541.8666666666667,-10.666666666666666
1379,23.466666666666665,-539.7333333333333,0.0
1380,25.6,-539.7333333333333,-4.266666666666667
1381,29.866666666666667,-539.7333333333333,-8.533333333333333
1382,21.333333333333332,-546.1333333333333,0.0
1383,23.466666666666665,-544.0,-4.266666666666667
1384,19.2,-539.7333333333333,-8.533333333333333
1385,25.6,-544.0,-8.533333333333333
1386,23.466666666666665,-550.4,0.0
1387,23.466666666666665,-544.0,-4.266666666666667
1388,25.6,-546.1333333333333,-8.533333333333333
1389,27.733333333333334,-541.8666666666667,-10.666666666666666
1390,23.466666666666665,-544.0,-6.4
1391,21.333333333333332,-544.0,-8.533333333333333
1392,23.466666666666665,-541.8666666666667,-2.1333333333333333
1393,25.6,-544.0,-12.8
1394,25.6,-544.0,-6.4
1395,29.866666666666667,-544.0,-2.1333333333333333
1396,23.466666666666665,-544.0,-12.8
1397,25.6,-544.0,-4.266666666666667
1398,21.333333333333332,-546.1333333333333,-2.1333333333333333
1399,25.6,-548.2666666666667,-8.533333333333333
1400,21.333333333333332,-546.1333333333333,-6.4
1401,23.466666666666665,-539.7333333333333,-6.4
1402,25.6,-541.8666666666667,-14.933333333333334
1403,19.2,-541.8666666666667,-6.4
1404,23.466666666666665,-544.0,-2.1333333333333333
1405,21.333333333333332,-541.8666666666667,-12.8
1406,23.466666666666665,-550.4,-2.1333333333333333
1407,23.466666666666665,-546.1333333333333,-4.266666666666667
1408,21.333333333333332,-544.0,0.0
1409,29.866666666666667,-548.2666666666667,-6.4
1410,25.6,-535.4666666666667,-4.266666666666667
1411,21.333333333333332,-544.0,-6.4
1412,25.6,-544.0,-6.4
1413,27.733333333333334,-544.0,-10.666666666666666
1414,34.13333333333333,-546.1333333333333,-6.4
1415,25.6,-539.7333333333333,-6.4
1416,32.0,-539.7333333333333,-4.266666666666667
1417,19.2,-546.1333333333333,-4.266666666666667
1418,19.2,-541.8666666666667,-12.8
1419,25.6,-548.2666666666667,-6.4
1420,23.466666666666665,-544.0,-12.8
1421,19.2,-546.1333333333333,-4.266666666666667
1422,23.466666666666665,-548.2666666666667,-4.266666666666667
1423,19.2,-546.1333333333333,-2.1333333333333333
1424,19.2,-544.0,-4.266666666666667
1425,19.2,-546.1333333333333,-4.266666666666667
1426,17.066666666666666,-546.1333333333333,2.1333333333333333
1427,21.333333333333332,-544.0,-4.266666666666667
1428,23.466666666666665,-544.0,-4.266666666666667
1429,21.333333333333332,-548.2666666666667,-8.533333333333333
1430,23.466666666666665,-541.8666666666667,-8.533333333333333
1431,27.733333333333334,-546.1333333333333,-12.8
1432,29.866666666666667,-550.4,-14.933333333333334
1433,32.0,-546.1333333333333,-8.533333333333333
1434,29.866666666666667,-546.1333333333333,-10.666666666666666
1435,32.0,-544.0,-14.933333333333334
1436,23.466666666666665,-544.0,-12.8
1437,25.6,-548.2666666666667,-2.1333333333333333
1438,25.6,-539.7333333333333,-8.533333333333333
1439,19.2,-537.6,-2.1333333333333333
1440,23.466666666666665,-541.8666666666667,-10.666666666666666
1441,19.2,-544.0,-4.266666666666667
1442,23.466666666666665,-546.1333333333333,-6.4
1443,23.466666666666665,-550.4,-2.1333333333333333
1444,27.733333333333334,-544.0,-2.1333333333333333
1445,21.333333333333332,-544.0,-4.266666666666667
1446,27.733333333333334,-539.7333333333333,-10.666666666666666
1447,25.6,-541.8666666666667,-4.266666666666667
1448,19.2,-550.4,-12.8
1449,17.066666666666666,-544.0,-14.933333333333334
1450,23.466666666666665,-548.2666666666667,2.1333333333333333
1451,23.466666666666665,-544.0,-4.266666666666667
1452,27.733333333333334,-548.2666666666667,-6.4
1453,21.333333333333332,-541.8666666666667,-6.4
1454,23.466666666666665,-544.0,0.0
1455,25.6,-548.2666666666667,-10.666666666666666
1456,23.466666666666665,-550.4,-4.266666666666667
1457,29.866666666666667,-546.1333333333333,-12.8
1458,23.466666666666665,-548.2666666666667,-12.8
1459,27.733333333333334,-544.0,-17.066666666666666
1460,25.6,-548.2666666666667,-8.533333333333333
1461,32.0,-546.1333333333333,-2.1333333333333333
1462,27.733333333333334,-552.5333333333333,-4.266666666666667
1463,32.0,-550.4,-8.533333333333333
1464,25.6,-546.1333333333333,-4.266666666666667
1465,27.733333333333334,-550.4,0.0
1466,21.333333333333332,-546.1333333333333,-2.1333333333333333
1467,23.466666666666665,-546.1333333333333,-4.266666666666667
1468,23.466666666666665,-539.7333333333333,-2.1333333333333333
1469,23.466666666666665,-539.7333333333333,-8.533333333333333
1470,32.0,-541.8666666666667,-6.4
1471,32.0,-550.4,-6.4
1472,25.6,-550.4,2.1333333333333333
1473,25.6,-556.8,2.1333333333333333
1474,23.466666666666665,-569.6,6.4
1475,23.466666666666665,-567.4666666666667,6.4
1476,19.2,-563.2,6.4
1477,12.8,-563.2,17.066666666666666
1478,8.533333333333333,-552.5333333333333,21.333333333333332
1479,4.266666666666667,-531.2,29.866666666666667
1480,10.666666666666666,-524.8,32.0
1481,12.8,-509.8666666666667,27.733333333333334
1482,6.4,-509.8666666666667,17.066666666666666
1483,14.933333333333334,-509.8666666666667,17.066666666666666
1484,17.066666666666666,-507.73333333333335,8.533333333333333
1485,17.066666666666666,-492.8,14.933333333333334
1486,10.666666666666666,-473.59999999999997,12.8
1487,25.6,-456.5333333333333,-17.066666666666666
1488,36.266666666666666,-448.0,-29.866666666666667
1489,34.13333333333333,-420.26666666666665,-49.06666666666666
1490,38.4,-394.6666666666667,-44.8
1491,38.4,-360.5333333333333,-61.86666666666667
1492,38.4,-354.1333333333333,-87.46666666666667
1493,42.666666666666664,-354.1333333333333,-115.2
1494,46.93333333333333,-403.2,-134.4
1495,57.6,-484.26666666666665,-155.73333333333332
1496,61.86666666666667,-595.2,-160.0
1497,64.0,-695.4666666666667,-136.53333333333333
1498,64.0,-750.9333333333333,-130.13333333333333
1499,44.8,-772.2666666666667,-117.33333333333333
1500,36.266666666666666,-755.2,-102.4
1501,27.733333333333334,-704.0,-100.26666666666667
1502,10.666666666666666,-648.5333333333333,-102.4
1503,6.4,-610.1333333333333,-96.0
1504,-2.1333333333333333,-565.3333333333334,-93.86666666666666
1505,-10.666666666666666,-552.5333333333333,-93.86666666666666
1506,-14.933333333333334,-535.4666666666667,-93.86666666666666
1507,-19.2,-507.73333333333335,-87.46666666666667
1508,-23.466666666666665,-486.4,-68.26666666666667
1509,-17.066666666666666,-482.1333333333333,-49.06666666666666
1510,-19.2,-484.26666666666665,-32.0
1511,-21.333333333333332,-494.93333333333334,-6.4
1512,-19.2,-501.3333333333333,-4.266666666666667
1513,-21.333333333333332,-512.0,14.933333333333334
1514,-21.333333333333332,-526.9333333333333,25.6
1515,-19.2,-529.0666666666666,34.13333333333333
1516,-12.8,-535.4666666666667,23.466666666666665
1517,0.0,-526.9333333333333,19.2
1518,8.533333333333333,-518.4,14.933333333333334
1519,25.6,-503.46666666666664,8.533333333333333
1520,32.0,-490.6666666666667,-10.666666666666666
1521,36.266666666666666,-475.73333333333335,-21.333333333333332
1522,44.8,-467.2,-23.466666666666665
1523,49.06666666666666,-458.6666666666667,-40.53333333333333
1524,46.93333333333333,-454.4,-49.06666666666666
1525,44.8,-448.0,-57.6
1526,44.8,-445.8666666666667,-57.6
1527,44.8,-448.0,-59.733333333333334
1528,36.266666666666666,-448.0,-76.8
1529,34.13333333333333,-450.1333333333333,-70.4
1530,34.13333333333333,-454.4,-59.733333333333334
1531,36.266666666666666,-458.6666666666667,-66.13333333333333
1532,21.333333333333332,-475.73333333333335,-53.333333333333336
1533,-4.266666666666667,-486.4,-46.93333333333333
1534,-10.666666666666666,-512.0,-38.4
1535,-14.933333333333334,-520.5333333333333,-36.266666666666666
1536,2.1333333333333333,-535.4666666666667,-34.13333333333333
1537,8.533333333333333,-541.8666666666667,-38.4
1538,14.933333333333334,-548.2666666666667,-53.333333333333336
1539,10.666666666666666,-550.4,-59.733333333333334
1540,21.333333333333332,-554.6666666666666,-78.93333333333334
1541,27.733333333333334,-554.6666666666666,-85.33333333333333
1542,34.13333333333333,-554.6666666666666,-102.4
1543,27.733333333333334,-561.0666666666666,-117.33333333333333
1544,25.6,-556.8,-119.46666666666667
1545,25.6,-573.8666666666667,-115.2
1546,17.066666666666666,-584.5333333333333,-117.33333333333333
1547,14.933333333333334,-597.3333333333334,-104.53333333333333
1548,10.666666666666666,-601.6,-100.26666666666667
1549,17.066666666666666,-608.0,-76.8
1550,10.666666666666666,-610.1333333333333,-53.333333333333336
1551,2.1333333333333333,-620.8,-38.4
1552,-4.266666666666667,-620.8,-17.066666666666666
1553,-21.333333333333332,-625.0666666666666,-21.333333333333332
1554,-23.466666666666665,-605.8666666666667,-38.4
1555,-23.466666666666665,-569.6,-70.4
1556,-46.93333333333333,-512.0,-113.06666666666666
1557,-53.333333333333336,-443.73333333333335,-160.0
1558,-70.4,-369.06666666666666,-219.73333333333332
1559,-76.8,-317.8666666666667,-266.6666666666667
1560,-76.8,-292.26666666666665,-324.26666666666665
1561,-72.53333333333333,-309.3333333333333,-328.5333333333333
1562,-59.733333333333334,-405.3333333333333,-292.26666666666665
1563,-36.266666666666666,-503.46666666666664,-224.0
1564,-6.4,-597.3333333333334,-174.93333333333334
1565,46.93333333333333,-665.6,-149.33333333333334
1566,70.4,-667.7333333333333,-145.06666666666666
1567,78.93333333333334,-672.0,-179.2
1568,78.93333333333334,-691.2,-241.06666666666666
1569,70.4,-699.7333333333333,-285.8666666666667
1570,66.13333333333333,-738.1333333333333,-315.73333333333335
1571,53.333333333333336,-755.2,-320.0
1572,23.466666666666665,-776.5333333333333,-302.93333333333334
1573,-6.4,-776.5333333333333,-283.73333333333335
1574,-27.733333333333334,-793.6,-264.5333333333333
1575,-59.733333333333334,-791.4666666666667,-256.0
1576,-78.93333333333334,-780.8,-283.73333333333335
1577,-76.8,-772.2666666666667,-334.93333333333334
1578,-51.2,-750.9333333333333,-356.26666666666665
1579,-34.13333333333333,-731.7333333333333,-371.2
1580,-14.933333333333334,-716.8,-360.5333333333333
1581,-4.266666666666667,-704.0,-341.3333333333333
1582,-2.1333333333333333,-701.8666666666667,-345.6
1583,-2.1333333333333333,-704.0,-345.6
1584,-12.8,-714.6666666666666,-356.26666666666665
1585,-19.2,-706.1333333333333,-358.4
1586,-29.866666666666667,-704.0,-362.6666666666667
1587,-55.46666666666667,-686.9333333333333,-366.93333333333334
1588,-59.733333333333334,-669.8666666666667,-390.4
1589,-61.86666666666667,-657.0666666666666,-388.26666666666665
1590,-66.13333333333333,-631.4666666666667,-392.5333333333333
1591,-74.66666666666667,-620.8,-398.93333333333334
1592,-64.0,-599.4666666666667,-394.6666666666667
1593,-53.333333333333336,-578.1333333333333,-407.46666666666664
1594,-55.46666666666667,-558.9333333333333,-411.73333333333335
1595,-51.2,-565.3333333333334,-433.06666666666666
1596,-46.93333333333333,-565.3333333333334,-430.93333333333334
1597,-59.733333333333334,-558.9333333333333,-437.3333333333333
1598,-55.46666666666667,-567.4666666666667,-424.5333333333333
1599,-61.86666666666667,-567.4666666666667,-433.06666666666666
1600,-74.66666666666667,-561.0666666666666,-416.0
1601,-72.53333333333333,-563.2,-424.5333333333333
1602,-76.8,-556.8,-435.2
1603,-78.93333333333334,-561.0666666666666,-439.46666666666664
1604,-81.06666666666666,-565.3333333333334,-439.46666666666664
1605,-72.53333333333333,-561.0666666666666,-448.0
1606,-70.4,-569.6,-456.5333333333333
1607,-59.733333333333334,-593.0666666666666,-469.3333333333333
1608,-61.86666666666667,-603.7333333333333,-471.46666666666664
1609,-53.333333333333336,-608.0,-473.59999999999997
1610,-44.8,-599.4666666666667,-469.3333333333333
1611,-49.06666666666666,-578.1333333333333,-458.6666666666667
1612,-44.8,-569.6,-467.2
1613,-42.666666666666664,-561.0666666666666,-443.73333333333335
1614,-46.93333333333333,-561.0666666666666,-437.3333333333333
1615,-49.06666666666666,-554.6666666666666,-433.06666666666666
1616,-49.06666666666666,-550.4,-445.8666666666667
1617,-44.8,-535.4666666666667,-460.8
1618,-44.8,-518.4,-465.06666666666666
1619,-32.0,-501.3333333333333,-460.8
1620,-32.0,-499.2,-465.06666666666666
1621,-25.6,-488.5333333333333,-467.2
1622,-12.8,-488.5333333333333,-443.73333333333335
1623,4.266666666666667,-475.73333333333335,-439.46666666666664
1624,6.4,-471.46666666666664,-433.06666666666666
1625,14.933333333333334,-469.3333333333333,-424.5333333333333
1626,10.666666666666666,-454.4,-409.6
1627,14.933333333333334,-450.1333333333333,-405.3333333333333
1628,4.266666666666667,-433.06666666666666,-381.8666666666667
1629,12.8,-437.3333333333333,-381.8666666666667
1630,6.4,-450.1333333333333,-375.46666666666664
1631,21.333333333333332,-443.73333333333335,-364.8
1632,12.8,-454.4,-354.1333333333333
1633,23.466666666666665,-460.8,-341.3333333333333
1634,23.466666666666665,-460.8,-352.0
1635,32.0,-467.2,-356.26666666666665
1636,29.866666666666667,-462.93333333333334,-381.8666666666667
1637,14.933333333333334,-467.2,-386.1333333333333
1638,17.066666666666666,-471.46666666666664,-396.8
1639,2.1333333333333333,-469.3333333333333,-422.4
1640,-2.1333333333333333,-473.59999999999997,-420.26666666666665
1641,-21.333333333333332,-460.8,-422.4
1642,-12.8,-462.93333333333334,-411.73333333333335
1643,-25.6,-450.1333333333333,-416.0
1644,-25.6,-435.2,-401.06666666666666
1645,-32.0,-433.06666666666666,-403.2
1646,-23.466666666666665,-439.46666666666664,-392.5333333333333
1647,-25.6,-441.59999999999997,-390.4
1648,-14.933333333333334,-450.1333333333333,-407.46666666666664
1649,-6.4,-452.26666666666665,-405.3333333333333
1650,0.0,-456.5333333333333,-411.73333333333335
1651,10.666666666666666,-465.06666666666666,-401.06666666666666
1652,21.333333333333332,-465.06666666666666,-407.46666666666664
1653,34.13333333333333,-443.73333333333335,-416.0
1654,46.93333333333333,-448.0,-401.06666666666666
1655,27.733333333333334,-435.2,-405.3333333333333
1656,34.13333333333333,-411.73333333333335,-409.6
1657,55.46666666666667,-430.93333333333334,-401.06666666666666
1658,8.533333333333333,-403.2,-424.5333333333333
1659,34.13333333333333,-377.6,-428.8
1660,42.666666666666664,-398.93333333333334,-411.73333333333335
1661,42.666666666666664,-411.73333333333335,-416.0
1662,38.4,-413.8666666666667,-409.6
1663,36.266666666666666,-420.26666666666665,-401.06666666666666
1664,38.4,-422.4,-398.93333333333334
1665,38.4,-428.8,-394.6666666666667
1666,27.733333333333334,-428.8,-384.0
1667,25.6,-426.6666666666667,-371.2
1668,29.866666666666667,-437.3333333333333,-369.06666666666666
1669,27.733333333333334,-435.2,-362.6666666666667
1670,34.13333333333333,-443.73333333333335,-360.5333333333333
1671,29.866666666666667,-430.93333333333334,-360.5333333333333
1672,29.866666666666667,-433.06666666666666,-362.6666666666667
1673,44.8,-435.2,-356.26666666666665
1674,40.53333333333333,-435.2,-364.8
1675,55.46666666666667,-430.93333333333334,-358.4
1676,55.46666666666667,-430.93333333333334,-356.26666666666665
1677,66.13333333333333,-433.06666666666666,-356.26666666666665
1678,61.86666666666667,-422.4,-343.46666666666664
1679,66.13333333333333,-420.26666666666665,-337.06666666666666
1680,68.26666666666667,-420.26666666666665,-341.3333333333333
1681,78.93333333333334,-420.26666666666665,-334.93333333333334
1682,78.93333333333334,-413.8666666666667,-345.6
1683,78.93333333333334,-416.0,-339.2
1684,72.53333333333333,-411.73333333333335,-337.06666666666666
1685,68.26666666666667,-409.6,-332.8
1686,64.0,-407.46666666666664,-330.6666666666667
1687,59.733333333333334,-405.3333333333333,-298.6666666666667
1688,51.2,-418.1333333333333,-313.6
1689,44.8,-411.73333333333335,-302.93333333333334
1690,34.13333333333333,-420.26666666666665,-275.2
1691,29.866666666666667,-420.26666666666665,-275.2
1692,14.933333333333334,-420.26666666666665,-253.86666666666667
1693,2.1333333333333333,-420.26666666666665,-249.6
1694,-10.666666666666666,-420.26666666666665,-228.26666666666665
1695,-14.933333333333334,-424.5333333333333,-213.33333333333334
1696,-19.2,-426.6666666666667,-202.66666666666666
1697,-14.933333333333334,-420.26666666666665,-185.6
1698,-10.666666666666666,-418.1333333333333,-162.13333333333333
1699,-14.933333333333334,-409.6,-153.6
1700,-14.933333333333334,-405.3333333333333,-149.33333333333334
1701,-14.933333333333334,-384.0,-140.8
1702,-6.4,-362.6666666666667,-132.26666666666665
1703,6.4,-352.0,-134.4
1704,8.533333333333333,-326.4,-142.93333333333334
1705,12.8,-311.46666666666664,-149.33333333333334
1706,17.066666666666666,-283.73333333333335,-147.2
1707,14.933333333333334,-253.86666666666667,-153.6
1708,17.066666666666666,-241.06666666666666,-162.13333333333333
1709,-2.1333333333333333,-206.93333333333334,-149.33333333333334
1710,36.266666666666666,-204.8,-160.0
1711,32.0,-187.73333333333332,-166.4
1712,32.0,-177.06666666666666,-162.13333333333333
1713,25.6,-162.13333333333333,-168.53333333333333
1714,25.6,-145.06666666666666,-149.33333333333334
1715,27.733333333333334,-121.6,-142.93333333333334
1716,32.0,-117.33333333333333,-136.53333333333333
1717,32.0,-100.26666666666667,-119.46666666666667
1718,17.066666666666666,-81.06666666666666,-113.06666666666666
1719,21.333333333333332,-72.53333333333333,-119.46666666666667
1720,29.866666666666667,-57.6,-151.46666666666667
1721,14.933333333333334,-44.8,-166.4
1722,8.533333333333333,-36.266666666666666,-183.46666666666667
1723,21.333333333333332,-27.733333333333334,-196.26666666666665
1724,36.266666666666666,-36.266666666666666,-238.93333333333334
1725,44.8,-46.93333333333333,-251.73333333333332
1726,44.8,-53.333333333333336,-249.6
1727,49.06666666666666,-70.4,-247.46666666666667
1728,44.8,-87.46666666666667,-253.86666666666667
1729,38.4,-110.93333333333334,-268.8
1730,32.0,-140.8,-268.8
1731,23.466666666666665,-166.4,-281.6
1732,17.066666666666666,-192.0,-294.4
1733,6.4,-228.26666666666665,-309.3333333333333
1734,2.1333333333333333,-260.26666666666665,-317.8666666666667
1735,-4.266666666666667,-296.5333333333333,-328.5333333333333
1736,0.0,-332.8,-354.1333333333333
1737,17.066666666666666,-390.4,-377.6
1738,23.466666666666665,-426.6666666666667,-396.8
1739,27.733333333333334,-477.8666666666667,-433.06666666666666
1740,40.53333333333333,-531.2,-460.8
1741,42.666666666666664,-573.8666666666667,-469.3333333333333
1742,51.2,-627.2,-486.4
1743,64.0,-686.9333333333333,-477.8666666666667
1744,83.2,-729.6,-460.8
1745,93.86666666666666,-776.5333333333333,-422.4
1746,110.93333333333334,-814.9333333333333,-379.73333333333335
1747,119.46666666666667,-834.1333333333333,-324.26666666666665
1748,117.33333333333333,-832.0,-277.3333333333333
1749,115.2,-823.4666666666667,-249.6
1750,110.93333333333334,-797.8666666666667,-228.26666666666665
1751,108.8,-748.8,-215.46666666666667
1752,104.53333333333333,-704.0,-217.6
1753,110.93333333333334,-659.2,-215.46666666666667
1754,108.8,-603.7333333333333,-217.6
1755,108.8,-550.4,-228.26666666666665
1756,108.8,-497.06666666666666,-228.26666666666665
1757,108.8,-452.26666666666665,-226.13333333333333
1758,104.53333333333333,-405.3333333333333,-226.13333333333333
1759,83.2,-358.4,-215.46666666666667
1760,61.86666666666667,-320.0,-209.06666666666666
1761,42.666666666666664,-283.73333333333335,-200.53333333333333
1762,19.2,-268.8,-170.66666666666666
1763,-8.533333333333333,-256.0,-162.13333333333333
1764,-25.6,-258.1333333333333,-151.46666666666667
1765,-38.4,-256.0,-136.53333333333333
1766,-51.2,-258.1333333333333,-125.86666666666666
1767,-66.13333333333333,-260.26666666666665,-119.46666666666667
1768,-66.13333333333333,-273.06666666666666,-134.4
1769,-51.2,-281.6,-145.06666666666666
1770,-32.0,-300.8,-177.06666666666666
1771,-12.8,-334.93333333333334,-202.66666666666666
1772,12.8,-360.5333333333333,-202.66666666666666
1773,40.53333333333333,-403.2,-215.46666666666667
1774,68.26666666666667,-441.59999999999997,-217.6
1775,78.93333333333334,-492.8,-217.6
1776,102.4,-535.4666666666667,-232.53333333333333
1777,110.93333333333334,-569.6,-258.1333333333333
1778,119.46666666666667,-595.2,-283.73333333333335
1779,130.13333333333333,-610.1333333333333,-300.8
1780,130.13333333333333,-625.0666666666666,-320.0
1781,140.8,-629.3333333333334,-341.3333333333333
1782,134.4,-629.3333333333334,-345.6
1783,121.6,-622.9333333333333,-345.6
1784,110.93333333333334,-612.2666666666667,-328.5333333333333
1785,93.86666666666666,-590.9333333333333,-313.6
1786,70.4,-573.8666666666667,-298.6666666666667
1787,57.6,-561.0666666666666,-296.5333333333333
1788,40.53333333333333,-548.2666666666667,-279.46666666666664
1789,25.6,-529.0666666666666,-262.4
1790,14.933333333333334,-526.9333333333333,-251.73333333333332
1791,-2.1333333333333333,-512.0,-232.53333333333333
1792,-6.4,-512.0,-217.6
1793,-14.933333333333334,-507.73333333333335,-202.66666666666666
1794,-10.666666666666666,-503.46666666666664,-181.33333333333334
1795,-12.8,-494.93333333333334,-183.46666666666667
1796,-12.8,-486.4,-166.4
1797,-14.933333333333334,-484.26666666666665,-151.46666666666667
1798,-8.533333333333333,-484.26666666666665,-142.93333333333334
1799,2.1333333333333333,-486.4,-134.4
1800,17.066666666666666,-484.26666666666665,-128.0
1801,21.333333333333332,-492.8,-130.13333333333333
1802,21.333333333333332,-490.6666666666667,-130.13333333333333
1803,34.13333333333333,-490.6666666666667,-136.53333333333333
1804,32.0,-492.8,-130.13333333333333
1805,36.266666666666666,-494.93333333333334,-142.93333333333334
1806,34.13333333333333,-490.6666666666667,-157.86666666666667
1807,34.13333333333333,-494.93333333333334,-172.8
1808,29.866666666666667,-499.2,-168.53333333333333
1809,21.333333333333332,-492.8,-177.06666666666666
1810,21.333333333333332,-501.3333333333333,-179.2
1811,21.333333333333332,-494.93333333333334,-177.06666666666666
1812,21.333333333333332,-505.59999999999997,-181.33333333333334
1813,25.6,-512.0,-181.33333333333334
1814,25.6,-507.73333333333335,-181.33333333333334
1815,27.733333333333334,-516.2666666666667,-185.6
1816,29.866666666666667,-512.0,-189.86666666666667
1817,36.266666666666666,-516.2666666666667,-187.73333333333332
1818,36.266666666666666,-514.1333333333333,-192.0
1819,44.8,-516.2666666666667,-185.6
1820,46.93333333333333,-514.1333333333333,-196.26666666666665
1821,49.06666666666666,-520.5333333333333,-198.4
1822,42.666666666666664,-509.8666666666667,-196.26666666666665
1823,57.6,-524.8,-187.73333333333332
1824,59.733333333333334,-514.1333333333333,-192.0
1825,55.46666666666667,-512.0,-177.06666666666666
1826,57.6,-514.1333333333333,-179.2
1827,68.26666666666667,-522.6666666666666,-181.33333333333334
1828,70.4,-512.0,-181.33333333333334
1829,74.66666666666667,-522.6666666666666,-177.06666666666666
1830,70.4,-522.6666666666666,-185.6
1831,70.4,-526.9333333333333,-185.6
1832,64.0,-524.8,-192.0
1833,61.86666666666667,-529.0666666666666,-185.6
1834,55.46666666666667,-526.9333333333333,-187.73333333333332
1835,49.06666666666666,-531.2,-183.46666666666667
1836,49.06666666666666,-526.9333333333333,-185.6
1837,38.4,-533.3333333333334,-185.6
1838,36.266666666666666,-535.4666666666667,-179.2
1839,27.733333333333334,-526.9333333333333,-181.33333333333334
1840,32.0,-533.3333333333334,-183.46666666666667
1841,25.6,-529.0666666666666,-179.2
1842,21.333333333333332,-522.6666666666666,-174.93333333333334
1843,25.6,-529.0666666666666,-177.06666666666666
1844,19.2,-522.6666666666666,-174.93333333333334
1845,17.066666666666666,-522.6666666666666,-172.8
1846,19.2,-522.6666666666666,-168.53333333333333
1847,19.2,-535.4666666666667,-164.26666666666665
1848,19.2,-533.3333333333334,-168.53333333333333
1849,14.933333333333334,-533.3333333333334,-166.4
1850,21.333333333333332,-539.7333333333333,-177.06666666666666
1851,27.733333333333334,-539.7333333333333,-172.8
1852,21.333333333333332,-529.0666666666666,-172.8
1853,32.0,-535.4666666666667,-172.8
1854,32.0,-537.6,-166.4
1855,29.866666666666667,-526.9333333333333,-181.33333333333334
1856,32.0,-526.9333333333333,-177.06666666666666
1857,36.266666666666666,-524.8,-168.53333333333333
1858,34.13333333333333,-518.4,-177.06666666666666
1859,36.266666666666666,-520.5333333333333,-174.93333333333334
1860,38.4,-520.5333333333333,-166.4
1861,42.666666666666664,-522.6666666666666,-177.06666666666666
1862,46.93333333333333,-522.6666666666666,-177.06666666666666
1863,46.93333333333333,-522.6666666666666,-166.4
1864,46.93333333333333,-526.9333333333333,-170.66666666666666
1865,51.2,-524.8,-170.66666666666666
1866,49.06666666666666,-524.8,-177.06666666666666
1867,51.2,-520.5333333333333,-183.46666666666667
1868,46.93333333333333,-518.4,-183.46666666666667
1869,42.666666666666664,-512.0,-187.73333333333332
1870,42.666666666666664,-512.0,-192.0
1871,46.93333333333333,-514.1333333333333,-181.33333333333334
1872,40.53333333333333,-512.0,-183.46666666666667
1873,40.53333333333333,-512.0,-183.46666666666667
1874,44.8,-522.6666666666666,-174.93333333333334
1875,38.4,-518.4,-183.46666666666667
1876,42.666666666666664,-522.6666666666666,-179.2
1877,49.06666666666666,-522.6666666666666,-183.46666666666667
1878,42.666666666666664,-526.9333333333333,-177.06666666666666
1879,46.93333333333333,-526.9333333333333,-189.86666666666667
1880,42.666666666666664,-529.0666666666666,-181.33333333333334
1881,40.53333333333333,-529.0666666666666,-185.6
1882,40.53333333333333,-522.6666666666666,-185.6
1883,40.53333333333333,-529.0666666666666,-181.33333333333334
1884,38.4,-522.6666666666666,-183.46666666666667
1885,36.266666666666666,-526.9333333333333,-194.13333333333333
1886,38.4,-518.4,-179.2
1887,38.4,-518.4,-185.6
1888,34.13333333333333,-520.5333333333333,-183.46666666666667
1889,36.266666666666666,-516.2666666666667,-179.2
1890,34.13333333333333,-518.4,-185.6
1891,34.13333333333333,-512.0,-181.33333333333334
1892,40.53333333333333,-514.1333333333333,-174.93333333333334
1893,46.93333333333333,-512.0,-179.2
1894,42.666666666666664,-520.5333333333333,-181.33333333333334
1895,38.4,-512.0,-179.2
1896,49.06666666666666,-522.6666666666666,-177.06666666666666
1897,40.53333333333333,-520.5333333333333,-185.6
1898,44.8,-522.6666666666666,-189.86666666666667
1899,40.53333333333333,-522.6666666666666,-181.33333333333334
1900,36.266666666666666,-529.0666666666666,-183.46666666666667
1901,40.53333333333333,-520.5333333333333,-189.86666666666667
1902,40.53333333333333,-520.5333333333333,-187.73333333333332
1903,38.4,-520.5333333333333,-183.46666666666667
1904,40.53333333333333,-526.9333333333333,-185.6
1905,34.13333333333333,-516.2666666666667,-185.6
1906,29.866666666666667,-516.2666666666667,-181.33333333333334
1907,32.0,-522.6666666666666,-185.6
1908,32.0,-518.4,-177.06666666666666
1909,29.866666666666667,-514.1333333333333,-172.8
1910,32.0,-514.1333333333333,-168.53333333333333
1911,27.733333333333334,-518.4,-177.06666666666666
1912,34.13333333333333,-518.4,-166.4
1913,36.266666666666666,-520.5333333333333,-174.93333333333334
1914,29.866666666666667,-518.4,-172.8
1915,38.4,-516.2666666666667,-174.93333333333334
1916,32.0,-520.5333333333333,-168.53333333333333
1917,34.13333333333333,-518.4,-172.8
1918,36.266666666666666,-524.8,-172.8
1919,29.866666666666667,-524.8,-172.8
1920,27.733333333333334,-526.9333333333333,-177.06666666666666
1921,27.733333333333334,-524.8,-162.13333333333333
1922,25.6,-529.0666666666666,-164.26666666666665
1923,32.0,-535.4666666666667,-160.0
1924,32.0,-537.6,-162.13333333333333
1925,38.4,-537.6,-177.06666666666666
1926,36.266666666666666,-541.8666666666667,-174.93333333333334
1927,40.53333333333333,-537.6,-183.46666666666667
1928,38.4,-541.8666666666667,-183.46666666666667
1929,36.266666666666666,-537.6,-185.6
1930,42.666666666666664,-535.4666666666667,-181.33333333333334
1931,36.266666666666666,-539.7333333333333,-192.0
1932,32.0,-533.3333333333334,-183.46666666666667
1933,32.0,-533.3333333333334,-181.33333333333334
1934,29.866666666666667,-526.9333333333333,-183.46666666666667
1935,29.866666666666667,-520.5333333333333,-181.33333333333334
1936,27.733333333333334,-524.8,-185.6
1937,27.733333333333334,-520.5333333333333,-181.33333333333334
1938,27.733333333333334,-516.2666666666667,-177.06666666666666
1939,23.466666666666665,-505.59999999999997,-183.46666666666667
1940,27.733333333333334,-505.59999999999997,-174.93333333333334
1941,27.733333333333334,-509.8666666666667,-170.66666666666666
1942,23.466666666666665,-509.8666666666667,-177.06666666666666
1943,27.733333333333334,-505.59999999999997,-168.53333333333333
1944,27.733333333333334,-505.59999999999997,-166.4
1945,27.733333333333334,-512.0,-172.8
1946,34.13333333333333,-514.1333333333333,-172.8
1947,27.733333333333334,-512.0,-177.06666666666666
1948,32.0,-514.1333333333333,-170.66666666666666
1949,27.733333333333334,-514.1333333333333,-174.93333333333334
1950,34.13333333333333,-514.1333333333333,-174.93333333333334
1951,29.866666666666667,-520.5333333333333,-172.8
1952,32.0,-518.4,-168.53333333333333
1953,27.733333333333334,-516.2666666666667,-166.4
1954,27.733333333333334,-522.6666666666666,-170.66666666666666
1955,27.733333333333334,-531.2,-164.26666666666665
1956,27.733333333333334,-533.3333333333334,-162.13333333333333
1957,38.4,-544.0,-164.26666666666665
1958,38.4,-541.8666666666667,-168.53333333333333
1959,21.333333333333332,-535.4666666666667,-174.93333333333334
1960,32.0,-535.4666666666667,-177.06666666666666
1961,29.866666666666667,-539.7333333333333,-172.8
1962,32.0,-537.6,-174.93333333333334
1963,25.6,-533.3333333333334,-174.93333333333334
1964,29.866666666666667,-526.9333333333333,-183.46666666666667
1965,27.733333333333334,-531.2,-177.06666666666666
1966,21.333333333333332,-529.0666666666666,-174.93333333333334
1967,25.6,-524.8,-174.93333333333334
1968,25.6,-520.5333333333333,-172.8
1969,27.733333333333334,-524.8,-162.13333333333333
1970,23.466666666666665,-518.4,-166.4
1971,23.466666666666665,-514.1333333333333,-162.13333333333333
1972,34.13333333333333,-526.9333333333333,-168.53333333333333
1973,27.733333333333334,-518.4,-168.53333333333333
1974,27.733333333333334,-524.8,-179.2
1975,36.266666666666666,-518.4,-177.06666666666666
1976,38.4,-524.8,-174.93333333333334
1977,34.13333333333333,-520.5333333333333,-168.53333333333333
1978,40.53333333333333,-524.8,-170.66666666666666
1979,34.13333333333333,-522.6666666666666,-172.8
1980,38.4,-522.6666666666666,-172.8
1981,34.13333333333333,-522.6666666666666,-174.93333333333334
1982,34.13333333333333,-522.6666666666666,-164.26666666666665
1983,34.13333333333333,-524.8,-164.26666666666665
1984,36.266666666666666,-526.9333333333333,-172.8
1985,34.13333333333333,-518.4,-172.8
1986,32.0,-524.8,-164.26666666666665
1987,36.266666666666666,-526.9333333333333,-168.53333333333333
1988,34.13333333333333,-522.6666666666666,-168.53333333333333
1989,34.13333333333333,-520.5333333333333,-172.8
1990,34.13333333333333,-524.8,-179.2
1991,34.13333333333333,-520.5333333333333,-177.06666666666666
1992,34.13333333333333,-520.5333333333333,-166.4
1993,34.13333333333333,-522.6666666666666,-170.66666666666666
1994,34.13333333333333,-520.5333333333333,-172.8
1995,38.4,-531.2,-174.93333333333334
1996,34.13333333333333,-531.2,-168.53333333333333
1997,34.13333333333333,-531.2,-170.66666666666666
1998,34.13333333333333,-533.3333333333334,-179.2
1999,27.733333333333334,-526.9333333333333,-166.4
2000,29.866666666666667,-526.9333333333333,-164.26666666666665
2001,36.266666666666666,-531.2,-166.4
2002,23.466666666666665,-520.5333333333333,-170.66666666666666
2003,27.733333333333334,-516.2666666666667,-166.4
2004,32.0,-518.4,-174.93333333333334
2005,34.13333333333333,-512.0,-177.06666666666666
2006,40.53333333333333,-520.5333333333333,-177.06666666666666
2007,36.266666666666666,-509.8666666666667,-166.4
2008,38.4,-512.0,-164.26666666666665
2009,42.666666666666664,-509.8666666666667,-166.4
2010,38.4,-512.0,-177.06666666666666
2011,42.666666666666664,-522.6666666666666,-164.26666666666665
2012,44.8,-522.6666666666666,-170.66666666666666
2013,42.666666666666664,-522.6666666666666,-162.13333333333333
2014,36.266666666666666,-535.4666666666667,-162.13333333333333
2015,36.266666666666666,-533.3333333333334,-162.13333333333333
2016,42.666666666666664,-531.2,-170.66666666666666
2017,42.666666666666664,-535.4666666666667,-174.93333333333334
2018,36.266666666666666,-524.8,-162.13333333333333
2019,44.8,-524.8,-162.13333333333333
2020,46.93333333333333,-526.9333333333333,-179.2
2021,49.06666666666666,-524.8,-174.93333333333334
2022,38.4,-520.5333333333333,-172.8
2023,42.666666666666664,-522.6666666666666,-170.66666666666666
2024,44.8,-529.0666666666666,-166.4
2025,46.93333333333333,-526.9333333333333,-170.66666666666666
2026,46.93333333333333,-526.9333333333333,-168.53333333333333
2027,40.53333333333333,-524.8,-172.8
2028,44.8,-524.8,-164.26666666666665
2029,46.93333333333333,-526.9333333333333,-168.53333333333333
2030,40.53333333333333,-522.6666666666666,-172.8
2031,42.666666666666664,-522.6666666666666,-170.66666666666666
2032,38.4,-524.8,-172.8
2033,44.8,-524.8,-162.13333333333333
2034,38.4,-518.4,-164.26666666666665
2035,42.666666666666664,-524.8,-164.26666666666665
2036,42.666666666666664,-526.9333333333333,-168.53333333333333
2037,38.4,-522.6666666666666,-160.0
2038,38.4,-516.2666666666667,-162.13333333333333
2039,42.666666666666664,-520.5333333333333,-168.53333333333333
2040,42.666666666666664,-518.4,-166.4
2041,42.666666666666664,-518.4,-160.0
2042,38.4,-518.4,-166.4
2043,36.266666666666666,-518.4,-166.4
2044,34.13333333333333,-516.2666666666667,-168.53333333333333
2045,36.266666666666666,-524.8,-170.66666666666666
2046,36.266666666666666,-529.0666666666666,-160.0
2047,32.0,-524.8,-164.26666666666665
2048,32.0,-529.0666666666666,-166.4
2049,32.0,-524.8,-162.13333333333333
2050,27.733333333333334,-526.9333333333333,-168.53333333333333
2051,36.266666666666666,-526.9333333333333,-166.4
2052,27.733333333333334,-520.5333333333333,-168.53333333333333
2053,32.0,-531.2,-166.4
2054,29.866666666666667,-520.5333333333333,-170.66666666666666
2055,34.13333333333333,-522.6666666666666,-174.93333333333334
2056,36.266666666666666,-526.9333333333333,-170.66666666666666
2057,38.4,-529.0666666666666,-170.66666666666666
2058,34.13333333333333,-529.0666666666666,-172.8
2059,40.53333333333333,-529.0666666666666,-177.06666666666666
2060,36.266666666666666,-533.3333333333334,-164.26666666666665
2061,38.4,-533.3333333333334,-170.66666666666666
2062,38.4,-531.2,-168.53333333333333
2063,44.8,-529.0666666666666,-170.66666666666666
2064,36.266666666666666,-529.0666666666666,-168.53333333333333
2065,42.666666666666664,-522.6666666666666,-166.4
2066,42.666666666666664,-526.9333333333333,-170.66666666666666
2067,36.266666666666666,-524.8,-172.8
2068,38.4,-522.6666666666666,-164.26666666666665
2069,36.266666666666666,-526.9333333333333,-166.4
2070,36.266666666666666,-518.4,-168.53333333333333
2071,40.53333333333333,-520.5333333333333,-168.53333333333333
2072,40.53333333333333,-520.5333333333333,-172.8
2073,40.53333333333333,-522.6666666666666,-174.93333333333334
2074,38.4,-507.73333333333335,-170.66666666666666
2075,42.666666666666664,-518.4,-170.66666666666666
2076,34.13333333333333,-514.1333333333333,-181.33333333333334
2077,36.266666666666666,-518.4,-166.4
2078,32.0,-520.5333333333333,-168.53333333333333
2079,32.0,-520.5333333333333,-179.2
2080,36.266666666666666,-526.9333333333333,-164.26666666666665
2081,34.13333333333333,-518.4,-168.53333333333333
2082,32.0,-524.8,-172.8
2083,36.266666666666666,-518.4,-172.8
2084,34.13333333333333,-518.4,-174.93333333333334
2085,38.4,-518.4,-170.66666666666666
2086,25.6,-518.4,-181.33333333333334
2087,32.0,-518.4,-174.93333333333334
2088,34.13333333333333,-520.5333333333333,-164.26666666666665
2089,32.0,-520.5333333333333,-170.66666666666666
2090,36.266666666666666,-516.2666666666667,-172.8
2091,36.266666666666666,-520.5333333333333,-168.53333333333333
2092,34.13333333333333,-524.8,-170.66666666666666
2093,42.666666666666664,-529.0666666666666,-174.93333333333334
2094,40.53333333333333,-524.8,-177.06666666666666
2095,36.266666666666666,-524.8,-172.8
2096,38.4,-529.0666666666666,-177.06666666666666
2097,42.666666666666664,-526.9333333333333,-162.13333333333333
2098,42.666666666666664,-529.0666666666666,-170.66666666666666
2099,40.53333333333333,-526.9333333333333,-174.93333333333334
2100,36.266666666666666,-524.8,-177.06666666666666
2101,36.266666666666666,-520.5333333333333,-183.46666666666667
2102,40.53333333333333,-524.8,-174.93333333333334
2103,34.13333333333333,-516.2666666666667,-172.8
2104,38.4,-520.5333333333333,-181.33333333333334
2105,40.53333333333333,-520.5333333333333,-166.4
2106,34.13333333333333,-518.4,-179.2
2107,34.13333333333333,-516.2666666666667,-172.8
2108,38.4,-522.6666666666666,-174.93333333333334
2109,36.266666666666666,-518.4,-177.06666666666666
2110,32.0,-520.5333333333333,-160.0
2111,34.13333333333333,-520.5333333333333,-181.33333333333334
2112,32.0,-522.6666666666666,-170.66666666666666
2113,36.266666666666666,-529.0666666666666,-172.8
2114,27.733333333333334,-522.6666666666666,-174.93333333333334
2115,29.866666666666667,-520.5333333333333,-177.06666666666666
2116,32.0,-518.4,-179.2
2117,38.4,-522.6666666666666,-174.93333333333334
2118,34.13333333333333,-522.6666666666666,-170.66666666666666
2119,36.266666666666666,-524.8,-170.66666666666666
2120,32.0,-522.6666666666666,-172.8
2121,40.53333333333333,-520.5333333333333,-174.93333333333334
2122,40.53333333333333,-522.6666666666666,-172.8
2123,44.8,-531.2,-177.06666666666666
2124,36.266666666666666,-518.4,-177.06666666666666
2125,42.666666666666664,-524.8,-179.2
2126,40.53333333333333,-526.9333333333333,-170.66666666666666
2127,38.4,-526.9333333333333,-179.2
2128,36.266666666666666,-522.6666666666666,-177.06666666666666
2129,34.13333333333333,-529.0666666666666,-177.06666666666666
2130,38.4,-533.3333333333334,-177.06666666666666
2131,32.0,-522.6666666666666,-174.93333333333334
2132,32.0,-520.5333333333333,-172.8
2133,29.866666666666667,-522.6666666666666,-183.46666666666667
2134,32.0,-526.9333333333333,-179.2
2135,29.866666666666667,-522.6666666666666,-179.2
2136,32.0,-526.9333333333333,-174.93333333333334
2137,27.733333333333334,-524.8,-185.6
2138,27.733333333333334,-520.5333333333333,-174.93333333333334
2139,34.13333333333333,-522.6666666666666,-177.06666666666666
2140,27.733333333333334,-522.6666666666666,-179.2
2141,34.13333333333333,-526.9333333333333,-185.6
2142,38.4,-516.2666666666667,-181.33333333333334
2143,34.13333333333333,-522.6666666666666,-185.6
2144,34.13333333333333,-524.8,-181.33333333333334
2145,32.0,-516.2666666666667,-181.33333333333334
2146,32.0,-516.2666666666667,-187.73333333333332
2147,29.866666666666667,-520.5333333333333,-185.6
2148,34.13333333333333,-520.5333333333333,-174.93333333333334
2149,32.0,-514.1333333333333,-172.8
2150,25.6,-514.1333333333333,-177.06666666666666
2151,32.0,-518.4,-181.33333333333334
2152,32.0,-516.2666666666667,-172.8
2153,32.0,-516.2666666666667,-170.66666666666666
2154,34.13333333333333,-514.1333333333333,-168.53333333333333
2155,32.0,-520.5333333333333,-168.53333333333333
2156,29.866666666666667,-520.5333333333333,-166.4
2157,40.53333333333333,-520.5333333333333,-166.4
2158,38.4,-520.5333333333333,-172.8
2159,34.13333333333333,-518.4,-172.8
2160,36.266666666666666,-529.0666666666666,-170.66666666666666
2161,34.13333333333333,-529.0666666666666,-170.66666666666666
2162,38.4,-524.8,-164.26666666666665
2163,36.266666666666666,-520.5333333333333,-183.46666666666667
2164,36.266666666666666,-520.5333333333333,-181.33333333333334
2165,32.0,-524.8,-170.66666666666666
2166,34.13333333333333,-520.5333333333333,-170.66666666666666
2167,36.266666666666666,-516.2666666666667,-179.2
2168,34.13333333333333,-516.2666666666667,-174.93333333333334
2169,32.0,-516.2666666666667,-170.66666666666666
2170,32.0,-516.2666666666667,-168.53333333333333
2171,32.0,-524.8,-179.2
2172,32.0,-514.1333333333333,-181.33333333333334
2173,38.4,-518.4,-183.46666666666667
2174,34.13333333333333,-529.0666666666666,-183.46666666666667
2175,27.733333333333334,-524.8,-181.33333333333334
2176,27.733333333333334,-526.9333333333333,-174.93333333333334
2177,32.0,-516.2666666666667,-172.8
2178,34.13333333333333,-522.6666666666666,-189.86666666666667
2179,27.733333333333334,-516.2666666666667,-177.06666666666666
2180,34.13333333333333,-518.4,-181.33333333333334
2181,32.0,-520.5333333333333,-177.06666666666666
2182,34.13333333333333,-526.9333333333333,-177.06666666666666
2183,34.13333333333333,-522.6666666666666,-177.06666666666666
2184,23.466666666666665,-514.1333333333333,-181.33333333333334
2185,40.53333333333333,-520.5333333333333,-174.93333333333334
2186,34.13333333333333,-522.6666666666666,-170.66666666666666
2187,29.866666666666667,-512.0,-170.66666666666666
2188,38.4,-524.8,-172.8
2189,32.0,-524.8,-164.26666666666665
2190,36.266666666666666,-522.6666666666666,-168.53333333333333
2191,25.6,-518.4,-170.66666666666666
2192,25.6,-522.6666666666666,-174.93333333333334
2193,38.4,-524.8,-172.8
2194,34.13333333333333,-524.8,-166.4
2195,32.0,-526.9333333333333,-172.8
2196,32.0,-522.6666666666666,-177.06666666666666
2197,36.266666666666666,-526.9333333333333,-179.2
2198,29.866666666666667,-524.8,-179.2
2199,36.266666666666666,-524.8,-172.8
2200,34.13333333333333,-526.9333333333333,-177.06666666666666
2201,32.0,-524.8,-177.06666666666666
2202,36.266666666666666,-522.6666666666666,-174.93333333333334
2203,36.266666666666666,-522.6666666666666,-177.06666666666666
2204,36.266666666666666,-524.8,-170.66666666666666
2205,36.266666666666666,-522.6666666666666,-179.2
2206,34.13333333333333,-520.5333333333333,-172.8
2207,34.13333333333333,-526.9333333333333,-177.06666666666666
2208,40.53333333333333,-522.6666666666666,-179.2
2209,38.4,-520.5333333333333,-174.93333333333334
2210,38.4,-526.9333333333333,-172.8
2211,38.4,-526.9333333333333,-172.8
2212,44.8,-531.2,-177.06666666666666
2213,38.4,-526.9333333333333,-179.2
2214,36.266666666666666,-529.0666666666666,-183.46666666666667
2215,34.13333333333333,-524.8,-181.33333333333334
2216,36.266666666666666,-522.6666666666666,-168.53333333333333
2217,34.13333333333333,-518.4,-185.6
2218,34.13333333333333,-524.8,-170.66666666666666
2219,29.866666666666667,-544.0,-166.4
2220,25.6,-535.4666666666667,-179.2
2221,49.06666666666666,-522.6666666666666,-168.53333333333333
2222,34.13333333333333,-501.3333333333333,-177.06666666666666
2223,38.4,-520.5333333333333,-153.6
2224,40.53333333333333,-524.8,-149.33333333333334
2225,38.4,-556.8,-164.26666666666665
2226,25.6,-512.0,-160.0
2227,34.13333333333333,-524.8,-168.53333333333333
2228,25.6,-522.6666666666666,-168.53333333333333
2229,29.866666666666667,-520.5333333333333,-174.93333333333334
2230,32.0,-520.5333333333333,-164.26666666666665
2231,34.13333333333333,-518.4,-172.8
2232,32.0,-520.5333333333333,-174.93333333333334
2233,29.866666666666667,-514.1333333333333,-174.93333333333334
2234,36.266666666666666,-518.4,-174.93333333333334
2235,27.733333333333334,-512.0,-179.2
2236,27.733333333333334,-514.1333333333333,-168.53333333333333
2237,29.866666666666667,-514.1333333333333,-174.93333333333334
2238,32.0,-512.0,-172.8
2239,29.866666666666667,-516.2666666666667,-179.2
2240,32.0,-518.4,-183.46666666666667
2241,34.13333333333333,-524.8,-177.06666666666666
2242,38.4,-526.9333333333333,-179.2
2243,34.13333333333333,-524.8,-181.33333333333334
2244,32.0,-526.9333333333333,-172.8
2245,38.4,-533.3333333333334,-174.93333333333334
2246,36.266666666666666,-533.3333333333334,-179.2
2247,32.0,-529.0666666666666,-177.06666666666666
2248,40.53333333333333,-526.9333333333333,-185.6
2249,44.8,-531.2,-177.06666666666666
2250,36.266666666666666,-524.8,-177.06666666666666
2251,34.13333333333333,-526.9333333333333,-168.53333333333333
2252,34.13333333333333,-522.6666666666666,-177.06666666666666
2253,38.4,-522.6666666666666,-168.53333333333333
2254,32.0,-516.2666666666667,-174.93333333333334
2255,29.866666666666667,-514.1333333333333,-168.53333333333333
2256,23.466666666666665,-514.1333333333333,-166.4
2257,27.733333333333334,-516.2666666666667,-174.93333333333334
2258,32.0,-518.4,-162.13333333333333
2259,27.733333333333334,-520.5333333333333,-170.66666666666666
2260,29.866666666666667,-522.6666666666666,-174.93333333333334
2261,29.866666666666667,-522.6666666666666,-168.53333333333333
2262,38.4,-524.8,-174.93333333333334
2263,27.733333333333334,-524.8,-177.06666666666666
2264,36.266666666666666,-524.8,-170.66666666666666
2265,32.0,-520.5333333333333,-179.2
2266,36.266666666666666,-520.5333333333333,-168.53333333333333
2267,25.6,-522.6666666666666,-174.93333333333334
2268,34.13333333333333,-522.6666666666666,-177.06666666666666
2269,29.866666666666667,-520.5333333333333,-177.06666666666666
2270,34.13333333333333,-522.6666666666666,-177.06666666666666
2271,38.4,-526.9333333333333,-174.93333333333334
2272,34.13333333333333,-520.5333333333333,-181.33333333333334
2273,34.13333333333333,-522.6666666666666,-168.53333333333333
2274,34.13333333333333,-520.5333333333333,-166.4
2275,29.866666666666667,-522.6666666666666,-170.66666666666666
2276,29.866666666666667,-520.5333333333333,-177.06666666666666
2277,36.266666666666666,-522.6666666666666,-179.2
2278,21.333333333333332,-520.5333333333333,-183.46666666666667
2279,29.866666666666667,-522.6666666666666,-174.93333333333334
2280,34.13333333333333,-522.6666666666666,-166.4
2281,34.13333333333333,-520.5333333333333,-172.8
2282,27.733333333333334,-520.5333333333333,-170.66666666666666
2283,32.0,-522.6666666666666,-170.66666666666666
2284,36.266666666666666,-529.0666666666666,-179.2
2285,40.53333333333333,-520.5333333333333,-181.33333333333334
2286,32.0,-520.5333333333333,-179.2
2287,34.13333333333333,-524.8,-172.8
2288,29.866666666666667,-524.8,-177.06666666666666
2289,34.13333333333333,-526.9333333333333,-172.8
2290,32.0,-524.8,-170.66666666666666
2291,32.0,-526.9333333333333,-164.26666666666665
2292,27.733333333333334,-524.8,-162.13333333333333
2293,36.266666666666666,-529.0666666666666,-170.66666666666666
2294,32.0,-524.8,-166.4
2295,29.866666666666667,-524.8,-170.66666666666666
2296,32.0,-533.3333333333334,-172.8
2297,32.0,-524.8,-172.8
2298,34.13333333333333,-529.0666666666666,-177.06666666666666
2299,29.866666666666667,-524.8,-172.8
2300,34.13333333333333,-520.5333333333333,-166.4
2301,36.266666666666666,-522.6666666666666,-174.93333333333334
2302,29.866666666666667,-522.6666666666666,-172.8
2303,34.13333333333333,-518.4,-166.4
2304,29.866666666666667,-520.5333333333333,-168.53333333333333
2305,29.866666666666667,-512.0,-183.46666666666667
2306,27.733333333333334,-526.9333333333333,-168.53333333333333
2307,27.733333333333334,-522.6666666666666,-174.93333333333334
2308,32.0,-522.6666666666666,-172.8
2309,34.13333333333333,-524.8,-170.66666666666666
2310,36.266666666666666,-522.6666666666666,-172.8
2311,32.0,-526.9333333333333,-179.2
2312,32.0,-522.6666666666666,-170.66666666666666
2313,38.4,-526.9333333333333,-170.66666666666666
2314,34.13333333333333,-524.8,-172.8
2315,36.266666666666666,-524.8,-177.06666666666666
2316,36.266666666666666,-524.8,-177.06666666666666
2317,34.13333333333333,-520.5333333333333,-172.8
2318,38.4,-524.8,-174.93333333333334
2319,29.866666666666667,-522.6666666666666,-172.8
2320,34.13333333333333,-520.5333333333333,-174.93333333333334
2321,38.4,-520.5333333333333,-177.06666666666666
2322,36.266666666666666,-520.5333333333333,-174.93333333333334
2323,32.0,-509.8666666666667,-177.06666666666666
2324,29.866666666666667,-514.1333333333333,-177.06666666666666
2325,34.13333333333333,-518.4,-179.2
2326,34.13333333333333,-518.4,-179.2
2327,36.266666666666666,-518.4,-181.33333333333334
2328,38.4,-522.6666666666666,-170.66666666666666
2329,38.4,-524.8,-179.2
2330,36.266666666666666,-524.8,-164.26666666666665
2331,32.0,-522.6666666666666,-168.53333333333333
2332,32.0,-526.9333333333333,-172.8
2333,29.866666666666667,-522.6666666666666,-172.8
2334,32.0,-518.4,-168.53333333333333
2335,40.53333333333333,-524.8,-166.4
2336,29.866666666666667,-522.6666666666666,-174.93333333333334
2337,34.13333333333333,-529.0666666666666,-166.4
2338,29.866666666666667,-531.2,-168.53333333333333
2339,32.0,-531.2,-164.26666666666665
2340,34.13333333333333,-526.9333333333333,-164.26666666666665
2341,32.0,-529.0666666666666,-170.66666666666666
2342,34.13333333333333,-524.8,-162.13333333333333
2343,32.0,-524.8,-164.26666666666665
2344,29.866666666666667,-526.9333333333333,-166.4
2345,34.13333333333333,-524.8,-170.66666666666666
2346,29.866666666666667,-524.8,-168.53333333333333
2347,32.0,-526.9333333333333,-166.4
2348,27.733333333333334,-520.5333333333333,-162.13333333333333
2349,29.866666666666667,-522.6666666666666,-168.53333333333333
2350,34.13333333333333,-526.9333333333333,-166.4
2351,38.4,-522.6666666666666,-166.4
2352,29.866666666666667,-516.2666666666667,-168.53333333333333
2353,27.733333333333334,-526.9333333333333,-168.53333333333333
2354,32.0,-520.5333333333333,-160.0
2355,27.733333333333334,-522.6666666666666,-164.26666666666665
2356,32.0,-524.8,-172.8
2357,29.866666666666667,-520.5333333333333,-168.53333333333333
2358,25.6,-526.9333333333333,-168.53333333333333
2359,32.0,-526.9333333333333,-162.13333333333333
2360,27.733333333333334,-529.0666666666666,-155.73333333333332
2361,32.0,-529.0666666666666,-177.06666666666666
2362,32.0,-531.2,-172.8
2363,29.866666666666667,-524.8,-157.86666666666667
2364,32.0,-522.6666666666666,-168.53333333333333
2365,29.866666666666667,-526.9333333333333,-168.53333333333333
2366,29.866666666666667,-529.0666666666666,-160.0
2367,23.466666666666665,-524.8,-170.66666666666666
2368,25.6,-526.9333333333333,-166.4
2369,23.466666666666665,-522.6666666666666,-164.26666666666665
2370,23.466666666666665,-522.6666666666666,-166.4
2371,32.0,-524.8,-168.53333333333333
2372,29.866666666666667,-529.0666666666666,-162.13333333333333
2373,23.466666666666665,-516.2666666666667,-162.13333333333333
2374,29.866666666666667,-522.6666666666666,-164.26666666666665
2375,34.13333333333333,-522.6666666666666,-164.26666666666665
2376,27.733333333333334,-524.8,-168.53333333333333
2377,21.333333333333332,-524.8,-168.53333333333333
2378,27.733333333333334,-514.1333333333333,-166.4
2379,29.866666666666667,-522.6666666666666,-170.66666666666666
2380,32.0,-526.9333333333333,-166.4
2381,34.13333333333333,-524.8,-168.53333333333333
2382,32.0,-522.6666666666666,-174.93333333333334
2383,27.733333333333334,-526.9333333333333,-166.4
2384,36.266666666666666,-520.5333333333333,-164.26666666666665
2385,27.733333333333334,-524.8,-170.66666666666666
2386,32.0,-524.8,-164.26666666666665
2387,32.0,-522.6666666666666,-172.8
2388,34.13333333333333,-520.5333333333333,-168.53333333333333
2389,27.733333333333334,-522.6666666666666,-170.66666666666666
2390,32.0,-529.0666666666666,-166.4
2391,34.13333333333333,-520.5333333333333,-164.26666666666665
2392,29.866666666666667,-524.8,-164.26666666666665
2393,32.0,-520.5333333333333,-166.4
2394,34.13333333333333,-531.2,-166.4
2395,36.266666666666666,-524.8,-172.8
2396,29.866666666666667,-520.5333333333333,-168.53333333333333
2397,36.266666666666666,-524.8,-162.13333333333333
2398,34.13333333333333,-522.6666666666666,-168.53333333333333
2399,36.266666666666666,-526.9333333333333,-168.53333333333333
