,accelerometerAccelerationX(G),accelerometerAccelerationY(G),accelerometerAccelerationZ(G)
0,-4.266666666666667,-512.0,-189.86666666666667
1,-4.266666666666667,-514.1333333333333,-185.6
2,-2.1333333333333333,-512.0,-194.13333333333333
3,-6.4,-516.2666666666667,-187.73333333333332
4,-10.666666666666666,-514.1333333333333,-196.26666666666665
5,-2.1333333333333333,-526.9333333333333,-198.4
6,-2.1333333333333333,-518.4,-194.13333333333333
7,-8.533333333333333,-512.0,-185.6
8,-6.4,-518.4,-187.73333333333332
9,-6.4,-512.0,-185.6
10,-4.266666666666667,-516.2666666666667,-194.13333333333333
11,-2.1333333333333333,-509.8666666666667,-187.73333333333332
12,-2.1333333333333333,-522.6666666666666,-189.86666666666667
13,-2.1333333333333333,-518.4,-194.13333333333333
14,-4.266666666666667,-516.2666666666667,-189.86666666666667
15,-10.666666666666666,-520.5333333333333,-192.0
16,-4.266666666666667,-522.6666666666666,-187.73333333333332
17,-4.266666666666667,-520.5333333333333,-189.86666666666667
18,0.0,-520.5333333333333,-194.13333333333333
19,-2.1333333333333333,-520.5333333333333,-189.86666666666667
20,-8.533333333333333,-516.2666666666667,-189.86666666666667
21,-8.533333333333333,-524.8,-189.86666666666667
22,-10.666666666666666,-514.1333333333333,-185.6
23,-8.533333333333333,-520.5333333333333,-185.6
24,-10.666666666666666,-516.2666666666667,-192.0
25,-10.666666666666666,-520.5333333333333,-189.86666666666667
26,-8.533333333333333,-526.9333333333333,-183.46666666666667
27,-8.533333333333333,-524.8,-189.86666666666667
28,-8.533333333333333,-526.9333333333333,-187.73333333333332
29,-2.1333333333333333,-524.8,-192.0
30,-2.1333333333333333,-529.0666666666666,-194.13333333333333
31,-6.4,-526.9333333333333,-200.53333333333333
32,-6.4,-524.8,-194.13333333333333
33,-2.1333333333333333,-524.8,-194.13333333333333
34,-4.266666666666667,-520.5333333333333,-198.4
35,0.0,-514.1333333333333,-196.26666666666665
36,-4.266666666666667,-509.8666666666667,-192.0
37,0.0,-512.0,-204.8
38,-2.1333333333333333,-509.8666666666667,-189.86666666666667
39,-2.1333333333333333,-505.59999999999997,-187.73333333333332
40,-8.533333333333333,-512.0,-183.46666666666667
41,0.0,-509.8666666666667,-174.93333333333334
42,-8.533333333333333,-518.4,-181.33333333333334
43,-8.533333333333333,-518.4,-183.46666666666667
44,-4.266666666666667,-520.5333333333333,-198.4
45,-6.4,-518.4,-187.73333333333332
46,0.0,-520.5333333333333,-189.86666666666667
47,-10.666666666666666,-522.6666666666666,-185.6
48,-6.4,-522.6666666666666,-187.73333333333332
49,-4.266666666666667,-522.6666666666666,-192.0
50,-6.4,-522.6666666666666,-198.4
51,-8.533333333333333,-522.6666666666666,-187.73333333333332
52,-4.266666666666667,-520.5333333333333,-192.0
53,-10.666666666666666,-516.2666666666667,-183.46666666666667
54,-2.1333333333333333,-520.5333333333333,-194.13333333333333
55,-10.666666666666666,-516.2666666666667,-187.73333333333332
56,-6.4,-514.1333333333333,-192.0
57,-4.266666666666667,-516.2666666666667,-192.0
58,-8.533333333333333,-514.1333333333333,-192.0
59,-4.266666666666667,-512.0,-198.4
60,-2.1333333333333333,-516.2666666666667,-187.73333333333332
61,-8.533333333333333,-514.1333333333333,-187.73333333333332
62,-4.266666666666667,-512.0,-189.86666666666667
63,-4.266666666666667,-518.4,-187.73333333333332
64,-6.4,-522.6666666666666,-185.6
65,-12.8,-520.5333333333333,-185.6
66,-8.533333333333333,-522.6666666666666,-189.86666666666667
67,-14.933333333333334,-516.2666666666667,-192.0
68,-14.933333333333334,-516.2666666666667,-196.26666666666665
69,-8.533333333333333,-514.1333333333333,-196.26666666666665
70,-10.666666666666666,-524.8,-187.73333333333332
71,-8.533333333333333,-516.2666666666667,-189.86666666666667
72,-8.533333333333333,-524.8,-189.86666666666667
73,-6.4,-516.2666666666667,-187.73333333333332
74,-4.266666666666667,-522.6666666666666,-187.73333333333332
75,-10.666666666666666,-518.4,-185.6
76,-6.4,-514.1333333333333,-183.46666666666667
77,-10.666666666666666,-518.4,-189.86666666666667
78,-4.266666666666667,-516.2666666666667,-183.46666666666667
79,-4.266666666666667,-522.6666666666666,-192.0
80,-2.1333333333333333,-516.2666666666667,-187.73333333333332
81,-8.533333333333333,-512.0,-194.13333333333333
82,-6.4,-509.8666666666667,-181.33333333333334
83,-4.266666666666667,-516.2666666666667,-192.0
84,-4.266666666666667,-509.8666666666667,-189.86666666666667
85,-4.266666666666667,-512.0,-187.73333333333332
86,-6.4,-520.5333333333333,-185.6
87,0.0,-516.2666666666667,-189.86666666666667
88,2.1333333333333333,-518.4,-189.86666666666667
89,-4.266666666666667,-518.4,-185.6
90,-2.1333333333333333,-520.5333333333333,-185.6
91,-2.1333333333333333,-522.6666666666666,-183.46666666666667
92,-4.266666666666667,-524.8,-187.73333333333332
93,2.1333333333333333,-526.9333333333333,-181.33333333333334
94,-4.266666666666667,-529.0666666666666,-185.6
95,0.0,-526.9333333333333,-189.86666666666667
96,-2.1333333333333333,-524.8,-183.46666666666667
97,2.1333333333333333,-526.9333333333333,-187.73333333333332
98,0.0,-522.6666666666666,-185.6
99,-4.266666666666667,-524.8,-192.0
100,-4.266666666666667,-524.8,-189.86666666666667
101,-2.1333333333333333,-520.5333333333333,-181.33333333333334
102,-2.1333333333333333,-522.6666666666666,-192.0
103,-6.4,-518.4,-187.73333333333332
104,-6.4,-526.9333333333333,-162.13333333333333
105,-2.1333333333333333,-518.4,-192.0
106,-6.4,-516.2666666666667,-189.86666666666667
107,-6.4,-516.2666666666667,-192.0
108,-4.266666666666667,-507.73333333333335,-187.73333333333332
109,-12.8,-509.8666666666667,-196.26666666666665
110,-2.1333333333333333,-514.1333333333333,-198.4
111,-8.533333333333333,-514.1333333333333,-196.26666666666665
112,-2.1333333333333333,-518.4,-187.73333333333332
113,-4.266666666666667,-514.1333333333333,-185.6
114,-6.4,-514.1333333333333,-189.86666666666667
115,-4.266666666666667,-520.5333333333333,-189.86666666666667
116,2.1333333333333333,-520.5333333333333,-187.73333333333332
117,-6.4,-520.5333333333333,-185.6
118,-2.1333333333333333,-518.4,-189.86666666666667
119,0.0,-518.4,-187.73333333333332
120,2.1333333333333333,-526.9333333333333,-189.86666666666667
121,-4.266666666666667,-516.2666666666667,-185.6
122,-6.4,-512.0,-185.6
123,-8.533333333333333,-512.0,-187.73333333333332
124,-6.4,-518.4,-196.26666666666665
125,-4.266666666666667,-522.6666666666666,-198.4
126,-2.1333333333333333,-516.2666666666667,-183.46666666666667
127,2.1333333333333333,-520.5333333333333,-192.0
128,0.0,-514.1333333333333,-192.0
129,-8.533333333333333,-516.2666666666667,-187.73333333333332
130,-6.4,-516.2666666666667,-174.93333333333334
131,-8.533333333333333,-516.2666666666667,-185.6
132,-8.533333333333333,-518.4,-181.33333333333334
133,-2.1333333333333333,-522.6666666666666,-185.6
134,-4.266666666666667,-516.2666666666667,-181.33333333333334
135,-6.4,-518.4,-192.0
136,-2.1333333333333333,-520.5333333333333,-189.86666666666667
137,-10.666666666666666,-522.6666666666666,-189.86666666666667
138,-4.266666666666667,-514.1333333333333,-198.4
139,-6.4,-516.2666666666667,-189.86666666666667
140,-6.4,-514.1333333333333,-185.6
141,-2.1333333333333333,-520.5333333333333,-187.73333333333332
142,-2.1333333333333333,-522.6666666666666,-202.66666666666666
143,-6.4,-524.8,-192.0
144,-4.266666666666667,-520.5333333333333,-200.53333333333333
145,-6.4,-522.6666666666666,-187.73333333333332
146,2.1333333333333333,-529.0666666666666,-194.13333333333333
147,-8.533333333333333,-524.8,-187.73333333333332
148,-10.666666666666666,-516.2666666666667,-202.66666666666666
149,-8.533333333333333,-514.1333333333333,-189.86666666666667
150,-4.266666666666667,-520.5333333333333,-198.4
151,-6.4,-520.5333333333333,-200.53333333333333
152,0.0,-518.4,-194.13333333333333
153,4.266666666666667,-524.8,-194.13333333333333
154,-6.4,-516.2666666666667,-194.13333333333333
155,-4.266666666666667,-516.2666666666667,-192.0
156,-12.8,-509.8666666666667,-194.13333333333333
157,-8.533333333333333,-518.4,-187.73333333333332
158,-2.1333333333333333,-509.8666666666667,-189.86666666666667
159,-4.266666666666667,-505.59999999999997,-187.73333333333332
160,-4.266666666666667,-503.46666666666664,-187.73333333333332
161,-10.666666666666666,-516.2666666666667,-189.86666666666667
162,-6.4,-507.73333333333335,-181.33333333333334
163,-8.533333333333333,-516.2666666666667,-187.73333333333332
164,-6.4,-522.6666666666666,-192.0
165,-8.533333333333333,-516.2666666666667,-187.73333333333332
166,-2.1333333333333333,-522.6666666666666,-196.26666666666665
167,-6.4,-524.8,-194.13333333333333
168,-4.266666666666667,-522.6666666666666,-200.53333333333333
169,0.0,-526.9333333333333,-198.4
170,-8.533333333333333,-522.6666666666666,-200.53333333333333
171,-8.533333333333333,-526.9333333333333,-202.66666666666666
172,-10.666666666666666,-522.6666666666666,-202.66666666666666
173,-4.266666666666667,-524.8,-194.13333333333333
174,-4.266666666666667,-526.9333333333333,-202.66666666666666
175,-6.4,-520.5333333333333,-202.66666666666666
176,-4.266666666666667,-522.6666666666666,-187.73333333333332
177,0.0,-520.5333333333333,-196.26666666666665
178,-10.666666666666666,-518.4,-189.86666666666667
179,-10.666666666666666,-518.4,-196.26666666666665
180,-6.4,-514.1333333333333,-192.0
181,-2.1333333333333333,-518.4,-192.0
182,-6.4,-514.1333333333333,-187.73333333333332
183,-2.1333333333333333,-509.8666666666667,-192.0
184,-6.4,-514.1333333333333,-192.0
185,-8.533333333333333,-518.4,-187.73333333333332
186,-10.666666666666666,-505.59999999999997,-194.13333333333333
187,-8.533333333333333,-518.4,-181.33333333333334
188,-6.4,-516.2666666666667,-185.6
189,-8.533333333333333,-509.8666666666667,-196.26666666666665
190,0.0,-518.4,-192.0
191,-6.4,-512.0,-189.86666666666667
192,-2.1333333333333333,-514.1333333333333,-196.26666666666665
193,0.0,-518.4,-192.0
194,-6.4,-520.5333333333333,-196.26666666666665
195,-2.1333333333333333,-516.2666666666667,-198.4
196,-2.1333333333333333,-520.5333333333333,-194.13333333333333
197,-6.4,-520.5333333333333,-196.26666666666665
198,-8.533333333333333,-518.4,-194.13333333333333
199,-2.1333333333333333,-522.6666666666666,-198.4
200,-4.266666666666667,-520.5333333333333,-189.86666666666667
201,-4.266666666666667,-522.6666666666666,-194.13333333333333
202,-4.266666666666667,-524.8,-196.26666666666665
203,-2.1333333333333333,-522.6666666666666,-194.13333333333333
204,-10.666666666666666,-518.4,-194.13333333333333
205,0.0,-522.6666666666666,-194.13333333333333
206,-6.4,-518.4,-192.0
207,-6.4,-520.5333333333333,-189.86666666666667
208,-14.933333333333334,-514.1333333333333,-189.86666666666667
209,-8.533333333333333,-518.4,-198.4
210,-8.533333333333333,-518.4,-196.26666666666665
211,-4.266666666666667,-516.2666666666667,-194.13333333333333
212,-4.266666666666667,-522.6666666666666,-189.86666666666667
213,-4.266666666666667,-514.1333333333333,-185.6
214,-4.266666666666667,-518.4,-192.0
215,-6.4,-516.2666666666667,-194.13333333333333
216,-8.533333333333333,-516.2666666666667,-192.0
217,0.0,-516.2666666666667,-192.0
218,-6.4,-514.1333333333333,-187.73333333333332
219,-4.266666666666667,-518.4,-202.66666666666666
220,-8.533333333333333,-512.0,-189.86666666666667
221,-6.4,-522.6666666666666,-189.86666666666667
222,-2.1333333333333333,-520.5333333333333,-196.26666666666665
223,-10.666666666666666,-520.5333333333333,-202.66666666666666
224,-2.1333333333333333,-518.4,-196.26666666666665
225,-8.533333333333333,-522.6666666666666,-194.13333333333333
226,-12.8,-526.9333333333333,-185.6
227,-8.533333333333333,-524.8,-200.53333333333333
228,-10.666666666666666,-516.2666666666667,-192.0
229,-10.666666666666666,-518.4,-196.26666666666665
230,-4.266666666666667,-526.9333333333333,-189.86666666666667
231,-10.666666666666666,-524.8,-192.0
232,-10.666666666666666,-520.5333333333333,-189.86666666666667
233,-2.1333333333333333,-516.2666666666667,-187.73333333333332
234,-6.4,-516.2666666666667,-187.73333333333332
235,-8.533333333333333,-514.1333333333333,-183.46666666666667
236,-10.666666666666666,-516.2666666666667,-192.0
237,-10.666666666666666,-512.0,-189.86666666666667
238,-4.266666666666667,-520.5333333333333,-187.73333333333332
239,-6.4,-520.5333333333333,-177.06666666666666
240,-6.4,-518.4,-179.2
241,-12.8,-512.0,-198.4
242,-14.933333333333334,-522.6666666666666,-189.86666666666667
243,-6.4,-514.1333333333333,-187.73333333333332
244,-8.533333333333333,-522.6666666666666,-198.4
245,-10.666666666666666,-518.4,-194.13333333333333
246,4.266666666666667,-522.6666666666666,-196.26666666666665
247,-4.266666666666667,-526.9333333333333,-189.86666666666667
248,-6.4,-520.5333333333333,-187.73333333333332
249,-6.4,-522.6666666666666,-185.6
250,-4.266666666666667,-520.5333333333333,-192.0
251,-6.4,-522.6666666666666,-187.73333333333332
252,-6.4,-520.5333333333333,-187.73333333333332
253,-12.8,-522.6666666666666,-185.6
254,-2.1333333333333333,-522.6666666666666,-194.13333333333333
255,-8.533333333333333,-524.8,-192.0
256,-6.4,-522.6666666666666,-189.86666666666667
257,-6.4,-516.2666666666667,-189.86666666666667
258,-4.266666666666667,-522.6666666666666,-187.73333333333332
259,-14.933333333333334,-520.5333333333333,-189.86666666666667
260,-8.533333333333333,-514.1333333333333,-181.33333333333334
261,-4.266666666666667,-524.8,-187.73333333333332
262,-10.666666666666666,-524.8,-181.33333333333334
263,-8.533333333333333,-520.5333333333333,-192.0
264,-10.666666666666666,-524.8,-187.73333333333332
265,-6.4,-520.5333333333333,-189.86666666666667
266,-6.4,-520.5333333333333,-192.0
267,-4.266666666666667,-520.5333333333333,-181.33333333333334
268,-2.1333333333333333,-522.6666666666666,-192.0
269,2.1333333333333333,-516.2666666666667,-189.86666666666667
270,-4.266666666666667,-520.5333333333333,-187.73333333333332
271,-4.266666666666667,-522.6666666666666,-192.0
272,-4.266666666666667,-516.2666666666667,-185.6
273,-4.266666666666667,-518.4,-179.2
274,-6.4,-514.1333333333333,-181.33333333333334
275,-6.4,-509.8666666666667,-187.73333333333332
276,-4.266666666666667,-514.1333333333333,-179.2
277,0.0,-516.2666666666667,-185.6
278,2.1333333333333333,-514.1333333333333,-185.6
279,-2.1333333333333333,-512.0,-187.73333333333332
280,0.0,-518.4,-181.33333333333334
281,-6.4,-520.5333333333333,-179.2
282,2.1333333333333333,-514.1333333333333,-177.06666666666666
283,-8.533333333333333,-526.9333333333333,-183.46666666666667
284,-6.4,-524.8,-187.73333333333332
285,-2.1333333333333333,-518.4,-189.86666666666667
286,-8.533333333333333,-520.5333333333333,-187.73333333333332
287,-2.1333333333333333,-518.4,-187.73333333333332
288,-12.8,-514.1333333333333,-185.6
289,-10.666666666666666,-516.2666666666667,-181.33333333333334
290,-2.1333333333333333,-522.6666666666666,-179.2
291,-6.4,-520.5333333333333,-187.73333333333332
292,-6.4,-518.4,-192.0
293,-8.533333333333333,-520.5333333333333,-179.2
294,-12.8,-520.5333333333333,-189.86666666666667
295,-12.8,-518.4,-183.46666666666667
296,-8.533333333333333,-526.9333333333333,-183.46666666666667
297,-6.4,-520.5333333333333,-183.46666666666667
298,-10.666666666666666,-520.5333333333333,-192.0
299,-8.533333333333333,-520.5333333333333,-189.86666666666667
300,-10.666666666666666,-520.5333333333333,-192.0
301,-2.1333333333333333,-526.9333333333333,-194.13333333333333
302,-8.533333333333333,-524.8,-185.6
303,-8.533333333333333,-526.9333333333333,-183.46666666666667
304,-6.4,-524.8,-177.06666666666666
305,-2.1333333333333333,-522.6666666666666,-177.06666666666666
306,-4.266666666666667,-531.2,-179.2
307,-2.1333333333333333,-529.0666666666666,-177.06666666666666
308,-6.4,-524.8,-181.33333333333334
309,-4.266666666666667,-522.6666666666666,-189.86666666666667
310,-8.533333333333333,-520.5333333333333,-185.6
311,0.0,-526.9333333333333,-189.86666666666667
312,-2.1333333333333333,-522.6666666666666,-192.0
313,-4.266666666666667,-520.5333333333333,-183.46666666666667
314,-2.1333333333333333,-524.8,-187.73333333333332
315,-4.266666666666667,-524.8,-181.33333333333334
316,-4.266666666666667,-526.9333333333333,-185.6
317,-8.533333333333333,-520.5333333333333,-181.33333333333334
318,-8.533333333333333,-526.9333333333333,-179.2
319,0.0,-531.2,-172.8
320,-6.4,-522.6666666666666,-174.93333333333334
321,0.0,-516.2666666666667,-177.06666666666666
322,-4.266666666666667,-520.5333333333333,-185.6
323,6.4,-520.5333333333333,-179.2
324,-2.1333333333333333,-518.4,-189.86666666666667
325,-6.4,-518.4,-181.33333333333334
326,-2.1333333333333333,-522.6666666666666,-187.73333333333332
327,-4.266666666666667,-520.5333333333333,-181.33333333333334
328,-6.4,-518.4,-185.6
329,-8.533333333333333,-524.8,-181.33333333333334
330,-6.4,-526.9333333333333,-174.93333333333334
331,-4.266666666666667,-522.6666666666666,-183.46666666666667
332,-10.666666666666666,-520.5333333333333,-179.2
333,-10.666666666666666,-526.9333333333333,-181.33333333333334
334,-6.4,-524.8,-192.0
335,-6.4,-522.6666666666666,-183.46666666666667
336,-12.8,-524.8,-189.86666666666667
337,-10.666666666666666,-526.9333333333333,-187.73333333333332
338,-10.666666666666666,-522.6666666666666,-189.86666666666667
339,-10.666666666666666,-526.9333333333333,-181.33333333333334
340,-10.666666666666666,-522.6666666666666,-183.46666666666667
341,-6.4,-526.9333333333333,-183.46666666666667
342,-8.533333333333333,-520.5333333333333,-187.73333333333332
343,-6.4,-518.4,-189.86666666666667
344,-6.4,-514.1333333333333,-185.6
345,-6.4,-514.1333333333333,-179.2
346,-6.4,-520.5333333333333,-185.6
347,-2.1333333333333333,-520.5333333333333,-189.86666666666667
348,-10.666666666666666,-516.2666666666667,-172.8
349,-4.266666666666667,-518.4,-185.6
350,-4.266666666666667,-516.2666666666667,-183.46666666666667
351,-8.533333333333333,-516.2666666666667,-181.33333333333334
352,-4.266666666666667,-520.5333333333333,-174.93333333333334
353,-10.666666666666666,-518.4,-181.33333333333334
354,-6.4,-522.6666666666666,-174.93333333333334
355,-8.533333333333333,-520.5333333333333,-183.46666666666667
356,-6.4,-524.8,-183.46666666666667
357,-6.4,-533.3333333333334,-179.2
358,-8.533333333333333,-526.9333333333333,-181.33333333333334
359,-4.266666666666667,-522.6666666666666,-174.93333333333334
360,-2.1333333333333333,-524.8,-181.33333333333334
361,-6.4,-524.8,-183.46666666666667
362,-4.266666666666667,-526.9333333333333,-179.2
363,-4.266666666666667,-524.8,-177.06666666666666
364,-6.4,-518.4,-177.06666666666666
365,-2.1333333333333333,-520.5333333333333,-179.2
366,-6.4,-514.1333333333333,-183.46666666666667
367,-4.266666666666667,-516.2666666666667,-179.2
368,-6.4,-522.6666666666666,-187.73333333333332
369,-10.666666666666666,-520.5333333333333,-181.33333333333334
370,-10.666666666666666,-514.1333333333333,-174.93333333333334
371,-4.266666666666667,-522.6666666666666,-187.73333333333332
372,-8.533333333333333,-514.1333333333333,-185.6
373,-8.533333333333333,-516.2666666666667,-172.8
374,-2.1333333333333333,-518.4,-177.06666666666666
375,-6.4,-520.5333333333333,-179.2
376,-2.1333333333333333,-520.5333333333333,-181.33333333333334
377,-6.4,-518.4,-187.73333333333332
378,-4.266666666666667,-520.5333333333333,-179.2
379,-2.1333333333333333,-524.8,-185.6
380,-6.4,-518.4,-174.93333333333334
381,-10.666666666666666,-524.8,-174.93333333333334
382,-10.666666666666666,-522.6666666666666,-181.33333333333334
383,-2.1333333333333333,-524.8,-172.8
384,-2.1333333333333333,-524.8,-174.93333333333334
385,-10.666666666666666,-522.6666666666666,-179.2
386,-2.1333333333333333,-522.6666666666666,-181.33333333333334
387,-6.4,-518.4,-185.6
388,-10.666666666666666,-524.8,-177.06666666666666
389,-12.8,-516.2666666666667,-168.53333333333333
390,-8.533333333333333,-518.4,-183.46666666666667
391,-6.4,-522.6666666666666,-181.33333333333334
392,-10.666666666666666,-516.2666666666667,-177.06666666666666
393,-8.533333333333333,-520.5333333333333,-179.2
394,-8.533333333333333,-516.2666666666667,-179.2
395,-8.533333333333333,-524.8,-187.73333333333332
396,-6.4,-520.5333333333333,-177.06666666666666
397,-8.533333333333333,-520.5333333333333,-181.33333333333334
398,-8.533333333333333,-520.5333333333333,-179.2
399,-6.4,-520.5333333333333,-177.06666666666666
400,-8.533333333333333,-522.6666666666666,-170.66666666666666
401,-8.533333333333333,-514.1333333333333,-177.06666666666666
402,-4.266666666666667,-520.5333333333333,-177.06666666666666
403,-10.666666666666666,-514.1333333333333,-174.93333333333334
404,-6.4,-520.5333333333333,-179.2
405,-10.666666666666666,-518.4,-174.93333333333334
406,-12.8,-516.2666666666667,-168.53333333333333
407,-6.4,-520.5333333333333,-181.33333333333334
408,-4.266666666666667,-520.5333333333333,-177.06666666666666
409,-4.266666666666667,-522.6666666666666,-168.53333333333333
410,-4.266666666666667,-522.6666666666666,-172.8
411,-2.1333333333333333,-522.6666666666666,-170.66666666666666
412,0.0,-524.8,-181.33333333333334
413,-4.266666666666667,-522.6666666666666,-181.33333333333334
414,2.1333333333333333,-526.9333333333333,-179.2
415,-8.533333333333333,-516.2666666666667,-183.46666666666667
416,-6.4,-520.5333333333333,-172.8
417,-2.1333333333333333,-522.6666666666666,-166.4
418,-2.1333333333333333,-524.8,-174.93333333333334
419,-6.4,-522.6666666666666,-166.4
420,-4.266666666666667,-524.8,-172.8
421,-4.266666666666667,-524.8,-183.46666666666667
422,-10.666666666666666,-522.6666666666666,-170.66666666666666
423,-6.4,-524.8,-172.8
424,0.0,-524.8,-166.4
425,-10.666666666666666,-526.9333333333333,-183.46666666666667
426,-6.4,-526.9333333333333,-174.93333333333334
427,-8.533333333333333,-526.9333333333333,-174.93333333333334
428,-8.533333333333333,-526.9333333333333,-172.8
429,-8.533333333333333,-526.9333333333333,-181.33333333333334
430,-2.1333333333333333,-531.2,-185.6
431,-4.266666666666667,-522.6666666666666,-185.6
432,-4.266666666666667,-526.9333333333333,-177.06666666666666
433,-8.533333333333333,-522.6666666666666,-187.73333333333332
434,-2.1333333333333333,-522.6666666666666,-179.2
435,2.1333333333333333,-520.5333333333333,-185.6
436,-4.266666666666667,-522.6666666666666,-185.6
437,-4.266666666666667,-524.8,-183.46666666666667
438,-2.1333333333333333,-531.2,-174.93333333333334
439,-8.533333333333333,-522.6666666666666,-172.8
440,-4.266666666666667,-526.9333333333333,-168.53333333333333
441,-10.666666666666666,-514.1333333333333,-170.66666666666666
442,-6.4,-524.8,-177.06666666666666
443,2.1333333333333333,-531.2,-168.53333333333333
444,-8.533333333333333,-524.8,-179.2
445,-6.4,-520.5333333333333,-179.2
446,4.266666666666667,-526.9333333333333,-170.66666666666666
447,-4.266666666666667,-518.4,-174.93333333333334
448,-4.266666666666667,-524.8,-177.06666666666666
449,-8.533333333333333,-520.5333333333333,-177.06666666666666
450,-14.933333333333334,-516.2666666666667,-172.8
451,-8.533333333333333,-518.4,-168.53333333333333
452,-6.4,-520.5333333333333,-179.2
453,-2.1333333333333333,-531.2,-179.2
454,-6.4,-518.4,-172.8
455,-10.666666666666666,-522.6666666666666,-170.66666666666666
456,-4.266666666666667,-520.5333333333333,-172.8
457,-2.1333333333333333,-518.4,-172.8
458,-8.533333333333333,-522.6666666666666,-172.8
459,-4.266666666666667,-520.5333333333333,-172.8
460,-8.533333333333333,-518.4,-168.53333333333333
461,-6.4,-522.6666666666666,-181.33333333333334
462,-6.4,-520.5333333333333,-177.06666666666666
463,-10.666666666666666,-524.8,-183.46666666666667
464,-2.1333333333333333,-522.6666666666666,-174.93333333333334
465,-6.4,-522.6666666666666,-181.33333333333334
466,-4.266666666666667,-529.0666666666666,-183.46666666666667
467,-4.266666666666667,-526.9333333333333,-183.46666666666667
468,-10.666666666666666,-522.6666666666666,-177.06666666666666
469,0.0,-522.6666666666666,-177.06666666666666
470,-6.4,-524.8,-166.4
471,-2.1333333333333333,-522.6666666666666,-174.93333333333334
472,-2.1333333333333333,-526.9333333333333,-179.2
473,-6.4,-526.9333333333333,-172.8
474,0.0,-524.8,-177.06666666666666
475,-8.533333333333333,-522.6666666666666,-181.33333333333334
476,-4.266666666666667,-526.9333333333333,-185.6
477,-6.4,-518.4,-183.46666666666667
478,-4.266666666666667,-522.6666666666666,-185.6
479,-6.4,-524.8,-174.93333333333334
480,-8.533333333333333,-522.6666666666666,-179.2
481,-6.4,-520.5333333333333,-185.6
482,-2.1333333333333333,-522.6666666666666,-179.2
483,-4.266666666666667,-520.5333333333333,-177.06666666666666
484,-10.666666666666666,-522.6666666666666,-181.33333333333334
485,-8.533333333333333,-518.4,-179.2
486,-4.266666666666667,-518.4,-174.93333333333334
487,-2.1333333333333333,-526.9333333333333,-183.46666666666667
488,-2.1333333333333333,-526.9333333333333,-185.6
489,0.0,-526.9333333333333,-181.33333333333334
490,-2.1333333333333333,-518.4,-183.46666666666667
491,-10.666666666666666,-518.4,-185.6
492,-4.266666666666667,-522.6666666666666,-183.46666666666667
493,-4.266666666666667,-522.6666666666666,-185.6
494,-2.1333333333333333,-522.6666666666666,-183.46666666666667
495,-6.4,-526.9333333333333,-183.46666666666667
496,-6.4,-520.5333333333333,-189.86666666666667
497,-21.333333333333332,-492.8,-202.66666666666666
498,8.533333333333333,-522.6666666666666,-200.53333333333333
499,-8.533333333333333,-509.8666666666667,-192.0
500,0.0,-516.2666666666667,-179.2
501,4.266666666666667,-531.2,-177.06666666666666
502,14.933333333333334,-512.0,-172.8
503,21.333333333333332,-518.4,-172.8
504,-6.4,-512.0,-177.06666666666666
505,-4.266666666666667,-520.5333333333333,-185.6
506,-10.666666666666666,-516.2666666666667,-177.06666666666666
507,-2.1333333333333333,-518.4,-183.46666666666667
508,-10.666666666666666,-522.6666666666666,-183.46666666666667
509,-6.4,-520.5333333333333,-187.73333333333332
510,-2.1333333333333333,-520.5333333333333,-185.6
511,-2.1333333333333333,-512.0,-181.33333333333334
512,-4.266666666666667,-520.5333333333333,-181.33333333333334
513,-4.266666666666667,-524.8,-189.86666666666667
514,-6.4,-524.8,-181.33333333333334
515,-6.4,-524.8,-183.46666666666667
516,-6.4,-526.9333333333333,-185.6
517,-12.8,-526.9333333333333,-187.73333333333332
518,0.0,-529.0666666666666,-187.73333333333332
519,-6.4,-522.6666666666666,-192.0
520,-14.933333333333334,-518.4,-185.6
521,-6.4,-520.5333333333333,-192.0
522,-4.266666666666667,-518.4,-194.13333333333333
523,-10.666666666666666,-514.1333333333333,-198.4
524,-8.533333333333333,-516.2666666666667,-196.26666666666665
525,-14.933333333333334,-512.0,-192.0
526,-4.266666666666667,-518.4,-202.66666666666666
527,-10.666666666666666,-514.1333333333333,-200.53333333333333
528,-8.533333333333333,-512.0,-187.73333333333332
529,-6.4,-509.8666666666667,-200.53333333333333
530,-10.666666666666666,-516.2666666666667,-200.53333333333333
531,-10.666666666666666,-509.8666666666667,-189.86666666666667
532,-10.666666666666666,-512.0,-196.26666666666665
533,-8.533333333333333,-509.8666666666667,-196.26666666666665
534,-10.666666666666666,-516.2666666666667,-204.8
535,-14.933333333333334,-509.8666666666667,-196.26666666666665
536,-8.533333333333333,-507.73333333333335,-202.66666666666666
537,-14.933333333333334,-512.0,-202.66666666666666
538,-8.533333333333333,-514.1333333333333,-192.0
539,-12.8,-514.1333333333333,-211.2
540,-12.8,-516.2666666666667,-200.53333333333333
541,-8.533333333333333,-514.1333333333333,-204.8
542,-10.666666666666666,-507.73333333333335,-209.06666666666666
543,-6.4,-509.8666666666667,-206.93333333333334
544,-6.4,-507.73333333333335,-213.33333333333334
545,-4.266666666666667,-505.59999999999997,-213.33333333333334
546,-10.666666666666666,-505.59999999999997,-217.6
547,-4.266666666666667,-505.59999999999997,-230.4
548,-4.266666666666667,-503.46666666666664,-234.66666666666666
549,-6.4,-501.3333333333333,-232.53333333333333
550,-4.266666666666667,-501.3333333333333,-230.4
551,-4.266666666666667,-501.3333333333333,-238.93333333333334
552,-2.1333333333333333,-507.73333333333335,-234.66666666666666
553,-10.666666666666666,-505.59999999999997,-243.2
554,-8.533333333333333,-507.73333333333335,-243.2
555,-8.533333333333333,-509.8666666666667,-249.6
556,-10.666666666666666,-505.59999999999997,-245.33333333333334
557,-10.666666666666666,-503.46666666666664,-245.33333333333334
558,-6.4,-499.2,-253.86666666666667
559,-14.933333333333334,-492.8,-262.4
560,-12.8,-494.93333333333334,-260.26666666666665
561,-19.2,-486.4,-266.6666666666667
562,-23.466666666666665,-490.6666666666667,-260.26666666666665
563,-21.333333333333332,-494.93333333333334,-268.8
564,-23.466666666666665,-488.5333333333333,-270.93333333333334
565,-23.466666666666665,-490.6666666666667,-268.8
566,-23.466666666666665,-484.26666666666665,-275.2
567,-23.466666666666665,-469.3333333333333,-281.6
568,-21.333333333333332,-465.06666666666666,-285.8666666666667
569,-21.333333333333332,-458.6666666666667,-294.4
570,-19.2,-456.5333333333333,-294.4
571,-14.933333333333334,-443.73333333333335,-298.6666666666667
572,-6.4,-443.73333333333335,-309.3333333333333
573,-10.666666666666666,-430.93333333333334,-311.46666666666664
574,-6.4,-428.8,-317.8666666666667
575,-8.533333333333333,-426.6666666666667,-324.26666666666665
576,-2.1333333333333333,-424.5333333333333,-322.1333333333333
577,-4.266666666666667,-416.0,-320.0
578,-6.4,-418.1333333333333,-322.1333333333333
579,-6.4,-411.73333333333335,-324.26666666666665
580,-6.4,-413.8666666666667,-322.1333333333333
581,-6.4,-401.06666666666666,-328.5333333333333
582,-2.1333333333333333,-403.2,-334.93333333333334
583,-2.1333333333333333,-392.5333333333333,-341.3333333333333
584,0.0,-384.0,-345.6
585,-4.266666666666667,-366.93333333333334,-341.3333333333333
586,-4.266666666666667,-352.0,-354.1333333333333
587,-6.4,-330.6666666666667,-349.8666666666667
588,0.0,-317.8666666666667,-352.0
589,12.8,-309.3333333333333,-366.93333333333334
590,12.8,-279.46666666666664,-375.46666666666664
591,21.333333333333332,-256.0,-405.3333333333333
592,23.466666666666665,-224.0,-418.1333333333333
593,29.866666666666667,-196.26666666666665,-433.06666666666666
594,38.4,-170.66666666666666,-437.3333333333333
595,36.266666666666666,-147.2,-443.73333333333335
596,42.666666666666664,-132.26666666666665,-433.06666666666666
597,42.666666666666664,-110.93333333333334,-437.3333333333333
598,44.8,-89.6,-428.8
599,53.333333333333336,-70.4,-418.1333333333333
600,49.06666666666666,-57.6,-405.3333333333333
601,46.93333333333333,-42.666666666666664,-384.0
602,44.8,-32.0,-381.8666666666667
603,44.8,-27.733333333333334,-364.8
604,49.06666666666666,-21.333333333333332,-356.26666666666665
605,38.4,-8.533333333333333,-326.4
606,38.4,-19.2,-315.73333333333335
607,29.866666666666667,-23.466666666666665,-285.8666666666667
608,17.066666666666666,-36.266666666666666,-258.1333333333333
609,12.8,-40.53333333333333,-243.2
610,4.266666666666667,-59.733333333333334,-211.2
611,0.0,-72.53333333333333,-189.86666666666667
612,-8.533333333333333,-93.86666666666666,-145.06666666666666
613,-12.8,-128.0,-78.93333333333334
614,-21.333333333333332,-153.6,-36.266666666666666
615,-23.466666666666665,-183.46666666666667,17.066666666666666
616,-25.6,-200.53333333333333,44.8
617,-25.6,-219.73333333333332,64.0
618,-25.6,-226.13333333333333,81.06666666666666
619,-29.866666666666667,-245.33333333333334,85.33333333333333
620,-42.666666666666664,-251.73333333333332,72.53333333333333
621,-49.06666666666666,-251.73333333333332,44.8
622,-32.0,-262.4,17.066666666666666
623,-32.0,-279.46666666666664,-12.8
624,-25.6,-285.8666666666667,-44.8
625,-14.933333333333334,-296.5333333333333,-93.86666666666666
626,14.933333333333334,-313.6,-151.46666666666667
627,23.466666666666665,-313.6,-194.13333333333333
628,27.733333333333334,-317.8666666666667,-266.6666666666667
629,23.466666666666665,-324.26666666666665,-317.8666666666667
630,14.933333333333334,-324.26666666666665,-360.5333333333333
631,2.1333333333333333,-322.1333333333333,-403.2
632,-2.1333333333333333,-322.1333333333333,-426.6666666666667
633,0.0,-315.73333333333335,-428.8
634,21.333333333333332,-307.2,-418.1333333333333
635,57.6,-313.6,-403.2
636,96.0,-317.8666666666667,-373.3333333333333
637,115.2,-358.4,-320.0
638,132.26666666666665,-392.5333333333333,-273.06666666666666
639,123.73333333333333,-452.26666666666665,-206.93333333333334
640,113.06666666666666,-533.3333333333334,-177.06666666666666
641,100.26666666666667,-610.1333333333333,-162.13333333333333
642,70.4,-667.7333333333333,-187.73333333333332
643,40.53333333333333,-704.0,-251.73333333333332
644,2.1333333333333333,-716.8,-298.6666666666667
645,-19.2,-716.8,-360.5333333333333
646,-49.06666666666666,-680.5333333333333,-452.26666666666665
647,-57.6,-650.6666666666666,-509.8666666666667
648,-57.6,-616.5333333333333,-537.6
649,-44.8,-584.5333333333333,-529.0666666666666
650,-27.733333333333334,-565.3333333333334,-480.0
651,-4.266666666666667,-550.4,-413.8666666666667
652,2.1333333333333333,-522.6666666666666,-356.26666666666665
653,6.4,-507.73333333333335,-315.73333333333335
654,-4.266666666666667,-475.73333333333335,-277.3333333333333
655,-8.533333333333333,-418.1333333333333,-300.8
656,-6.4,-379.73333333333335,-358.4
657,-21.333333333333332,-407.46666666666664,-369.06666666666666
658,-53.333333333333336,-390.4,-424.5333333333333
659,-64.0,-386.1333333333333,-454.4
660,-51.2,-396.8,-486.4
661,-27.733333333333334,-428.8,-492.8
662,-14.933333333333334,-469.3333333333333,-467.2
663,2.1333333333333333,-529.0666666666666,-411.73333333333335
664,23.466666666666665,-597.3333333333334,-364.8
665,61.86666666666667,-654.9333333333333,-347.73333333333335
666,70.4,-697.6,-349.8666666666667
667,83.2,-701.8666666666667,-386.1333333333333
668,66.13333333333333,-665.6,-426.6666666666667
669,61.86666666666667,-612.2666666666667,-475.73333333333335
670,29.866666666666667,-554.6666666666666,-501.3333333333333
671,10.666666666666666,-514.1333333333333,-505.59999999999997
672,6.4,-494.93333333333334,-501.3333333333333
673,-10.666666666666666,-458.6666666666667,-503.46666666666664
674,-19.2,-435.2,-505.59999999999997
675,0.0,-416.0,-514.1333333333333
676,-10.666666666666666,-394.6666666666667,-531.2
677,-19.2,-371.2,-512.0
678,14.933333333333334,-360.5333333333333,-537.6
679,49.06666666666666,-401.06666666666666,-522.6666666666666
680,49.06666666666666,-426.6666666666667,-514.1333333333333
681,74.66666666666667,-467.2,-497.06666666666666
682,57.6,-458.6666666666667,-482.1333333333333
683,59.733333333333334,-462.93333333333334,-505.59999999999997
684,53.333333333333336,-488.5333333333333,-522.6666666666666
685,44.8,-445.8666666666667,-514.1333333333333
686,36.266666666666666,-411.73333333333335,-505.59999999999997
687,96.0,-471.46666666666664,-514.1333333333333
688,115.2,-448.0,-535.4666666666667
689,153.6,-501.3333333333333,-550.4
690,160.0,-456.5333333333333,-563.2
691,136.53333333333333,-475.73333333333335,-544.0
692,134.4,-435.2,-544.0
693,121.6,-480.0,-546.1333333333333
694,76.8,-405.3333333333333,-541.8666666666667
695,98.13333333333333,-486.4,-552.5333333333333
696,123.73333333333333,-595.2,-595.2
697,89.6,-473.59999999999997,-573.8666666666667
698,14.933333333333334,-458.6666666666667,-561.0666666666666
699,36.266666666666666,-537.6,-535.4666666666667
700,42.666666666666664,-448.0,-582.4
701,40.53333333333333,-473.59999999999997,-567.4666666666667
702,0.0,-426.6666666666667,-501.3333333333333
703,42.666666666666664,-445.8666666666667,-595.2
704,68.26666666666667,-494.93333333333334,-584.5333333333333
705,23.466666666666665,-571.7333333333333,-601.6
706,72.53333333333333,-467.2,-576.0
707,59.733333333333334,-482.1333333333333,-586.6666666666666
708,49.06666666666666,-494.93333333333334,-580.2666666666667
709,34.13333333333333,-456.5333333333333,-578.1333333333333
710,66.13333333333333,-469.3333333333333,-561.0666666666666
711,46.93333333333333,-488.5333333333333,-567.4666666666667
712,49.06666666666666,-494.93333333333334,-550.4
713,40.53333333333333,-488.5333333333333,-548.2666666666667
714,-21.333333333333332,-490.6666666666667,-499.2
715,66.13333333333333,-458.6666666666667,-526.9333333333333
716,40.53333333333333,-471.46666666666664,-524.8
717,44.8,-467.2,-509.8666666666667
718,40.53333333333333,-477.8666666666667,-499.2
719,42.666666666666664,-480.0,-492.8
720,42.666666666666664,-480.0,-475.73333333333335
721,46.93333333333333,-473.59999999999997,-482.1333333333333
722,46.93333333333333,-475.73333333333335,-467.2
723,42.666666666666664,-486.4,-460.8
724,38.4,-494.93333333333334,-445.8666666666667
725,32.0,-512.0,-452.26666666666665
726,34.13333333333333,-539.7333333333333,-450.1333333333333
727,29.866666666666667,-578.1333333333333,-471.46666666666664
728,17.066666666666666,-657.0666666666666,-509.8666666666667
729,-19.2,-750.9333333333333,-593.0666666666666
730,-53.333333333333336,-883.1999999999999,-736.0
731,-27.733333333333334,-1021.8666666666667,-864.0
732,6.4,-1068.8,-938.6666666666666
733,149.33333333333334,-945.0666666666666,-953.6
734,170.66666666666666,-802.1333333333333,-748.8
735,164.26666666666665,-665.6,-558.9333333333333
736,172.8,-584.5333333333333,-475.73333333333335
737,155.73333333333332,-533.3333333333334,-477.8666666666667
738,136.53333333333333,-480.0,-492.8
739,123.73333333333333,-441.59999999999997,-477.8666666666667
740,110.93333333333334,-401.06666666666666,-456.5333333333333
741,83.2,-354.1333333333333,-369.06666666666666
742,55.46666666666667,-307.2,-241.06666666666666
743,57.6,-247.46666666666667,-157.86666666666667
744,32.0,-189.86666666666667,-117.33333333333333
745,19.2,-162.13333333333333,-119.46666666666667
746,-2.1333333333333333,-177.06666666666666,-153.6
747,-27.733333333333334,-213.33333333333334,-181.33333333333334
748,-32.0,-275.2,-206.93333333333334
749,-36.266666666666666,-324.26666666666665,-213.33333333333334
750,-34.13333333333333,-381.8666666666667,-219.73333333333332
751,-40.53333333333333,-409.6,-202.66666666666666
752,-55.46666666666667,-439.46666666666664,-209.06666666666666
753,-46.93333333333333,-452.26666666666665,-196.26666666666665
754,-34.13333333333333,-480.0,-189.86666666666667
755,-46.93333333333333,-482.1333333333333,-196.26666666666665
756,-46.93333333333333,-497.06666666666666,-192.0
757,-51.2,-512.0,-204.8
758,-44.8,-546.1333333333333,-226.13333333333333
759,-25.6,-565.3333333333334,-243.2
760,-25.6,-588.8,-249.6
761,-19.2,-610.1333333333333,-262.4
762,-2.1333333333333333,-625.0666666666666,-264.5333333333333
763,6.4,-620.8,-270.93333333333334
764,27.733333333333334,-599.4666666666667,-270.93333333333334
765,44.8,-582.4,-273.06666666666666
766,57.6,-554.6666666666666,-275.2
767,68.26666666666667,-548.2666666666667,-277.3333333333333
768,59.733333333333334,-526.9333333333333,-275.2
769,61.86666666666667,-501.3333333333333,-292.26666666666665
770,51.2,-486.4,-275.2
771,55.46666666666667,-473.59999999999997,-281.6
772,53.333333333333336,-465.06666666666666,-264.5333333333333
773,46.93333333333333,-454.4,-245.33333333333334
774,29.866666666666667,-435.2,-230.4
775,27.733333333333334,-443.73333333333335,-217.6
776,19.2,-430.93333333333334,-213.33333333333334
777,27.733333333333334,-433.06666666666666,-209.06666666666666
778,6.4,-424.5333333333333,-206.93333333333334
779,8.533333333333333,-428.8,-211.2
780,-10.666666666666666,-437.3333333333333,-206.93333333333334
781,-4.266666666666667,-448.0,-194.13333333333333
782,-2.1333333333333333,-456.5333333333333,-200.53333333333333
783,-14.933333333333334,-462.93333333333334,-196.26666666666665
784,-19.2,-488.5333333333333,-181.33333333333334
785,-21.333333333333332,-494.93333333333334,-179.2
786,-14.933333333333334,-509.8666666666667,-177.06666666666666
787,-19.2,-518.4,-164.26666666666665
788,-21.333333333333332,-520.5333333333333,-157.86666666666667
789,-23.466666666666665,-522.6666666666666,-155.73333333333332
790,-21.333333333333332,-524.8,-162.13333333333333
791,-21.333333333333332,-518.4,-142.93333333333334
792,-14.933333333333334,-522.6666666666666,-149.33333333333334
793,-12.8,-514.1333333333333,-147.2
794,-4.266666666666667,-512.0,-149.33333333333334
795,-4.266666666666667,-514.1333333333333,-149.33333333333334
796,0.0,-516.2666666666667,-147.2
797,2.1333333333333333,-516.2666666666667,-153.6
798,-14.933333333333334,-505.59999999999997,-145.06666666666666
799,-6.4,-509.8666666666667,-147.2
800,-14.933333333333334,-512.0,-151.46666666666667
801,-19.2,-518.4,-160.0
802,-21.333333333333332,-529.0666666666666,-151.46666666666667
803,-23.466666666666665,-516.2666666666667,-160.0
804,-25.6,-529.0666666666666,-147.2
805,-27.733333333333334,-520.5333333333333,-155.73333333333332
806,-23.466666666666665,-526.9333333333333,-142.93333333333334
807,-25.6,-516.2666666666667,-147.2
808,-27.733333333333334,-524.8,-132.26666666666665
809,-38.4,-522.6666666666666,-132.26666666666665
810,-29.866666666666667,-516.2666666666667,-119.46666666666667
811,-34.13333333333333,-514.1333333333333,-128.0
812,-29.866666666666667,-512.0,-119.46666666666667
813,-46.93333333333333,-503.46666666666664,-119.46666666666667
814,-40.53333333333333,-518.4,-117.33333333333333
815,-44.8,-516.2666666666667,-113.06666666666666
816,-44.8,-518.4,-119.46666666666667
817,-46.93333333333333,-522.6666666666666,-123.73333333333333
818,-42.666666666666664,-526.9333333333333,-125.86666666666666
819,-44.8,-522.6666666666666,-119.46666666666667
820,-42.666666666666664,-529.0666666666666,-125.86666666666666
821,-32.0,-531.2,-128.0
822,-34.13333333333333,-529.0666666666666,-123.73333333333333
823,-32.0,-524.8,-132.26666666666665
824,-29.866666666666667,-520.5333333333333,-134.4
825,-25.6,-524.8,-140.8
826,-29.866666666666667,-518.4,-149.33333333333334
827,-25.6,-518.4,-140.8
828,-21.333333333333332,-524.8,-145.06666666666666
829,-19.2,-526.9333333333333,-132.26666666666665
830,-14.933333333333334,-520.5333333333333,-145.06666666666666
831,-2.1333333333333333,-526.9333333333333,-134.4
832,-2.1333333333333333,-533.3333333333334,-134.4
833,6.4,-533.3333333333334,-142.93333333333334
834,10.666666666666666,-535.4666666666667,-140.8
835,21.333333333333332,-539.7333333333333,-138.66666666666666
836,12.8,-541.8666666666667,-145.06666666666666
837,17.066666666666666,-541.8666666666667,-145.06666666666666
838,10.666666666666666,-539.7333333333333,-138.66666666666666
839,4.266666666666667,-537.6,-147.2
840,2.1333333333333333,-535.4666666666667,-140.8
841,-12.8,-535.4666666666667,-151.46666666666667
842,-10.666666666666666,-531.2,-153.6
843,-19.2,-522.6666666666666,-153.6
844,-23.466666666666665,-526.9333333333333,-157.86666666666667
845,-25.6,-520.5333333333333,-160.0
846,-25.6,-522.6666666666666,-164.26666666666665
847,-25.6,-522.6666666666666,-164.26666666666665
848,-25.6,-520.5333333333333,-157.86666666666667
849,-25.6,-522.6666666666666,-172.8
850,-21.333333333333332,-522.6666666666666,-164.26666666666665
851,-17.066666666666666,-524.8,-174.93333333333334
852,-14.933333333333334,-526.9333333333333,-177.06666666666666
853,-12.8,-526.9333333333333,-164.26666666666665
854,-10.666666666666666,-526.9333333333333,-179.2
855,-8.533333333333333,-524.8,-166.4
856,-4.266666666666667,-524.8,-168.53333333333333
857,0.0,-533.3333333333334,-174.93333333333334
858,-6.4,-518.4,-174.93333333333334
859,-8.533333333333333,-529.0666666666666,-166.4
860,-8.533333333333333,-518.4,-170.66666666666666
861,-6.4,-522.6666666666666,-172.8
862,-14.933333333333334,-529.0666666666666,-168.53333333333333
863,-10.666666666666666,-522.6666666666666,-170.66666666666666
864,-8.533333333333333,-526.9333333333333,-172.8
865,-10.666666666666666,-531.2,-170.66666666666666
866,-17.066666666666666,-522.6666666666666,-168.53333333333333
867,-12.8,-531.2,-166.4
868,-17.066666666666666,-529.0666666666666,-170.66666666666666
869,-19.2,-531.2,-166.4
870,-21.333333333333332,-537.6,-174.93333333333334
871,-14.933333333333334,-535.4666666666667,-170.66666666666666
872,-14.933333333333334,-535.4666666666667,-179.2
873,-14.933333333333334,-529.0666666666666,-166.4
874,-10.666666666666666,-529.0666666666666,-170.66666666666666
875,-6.4,-539.7333333333333,-157.86666666666667
876,-4.266666666666667,-535.4666666666667,-157.86666666666667
877,-12.8,-529.0666666666666,-157.86666666666667
878,-8.533333333333333,-544.0,-164.26666666666665
879,-12.8,-535.4666666666667,-160.0
880,-6.4,-529.0666666666666,-155.73333333333332
881,-17.066666666666666,-531.2,-162.13333333333333
882,-10.666666666666666,-526.9333333333333,-155.73333333333332
883,-17.066666666666666,-526.9333333333333,-162.13333333333333
884,-12.8,-533.3333333333334,-164.26666666666665
885,-14.933333333333334,-524.8,-155.73333333333332
886,-12.8,-522.6666666666666,-153.6
887,-10.666666666666666,-524.8,-160.0
888,-14.933333333333334,-522.6666666666666,-157.86666666666667
889,-17.066666666666666,-526.9333333333333,-151.46666666666667
890,-14.933333333333334,-522.6666666666666,-155.73333333333332
891,-10.666666666666666,-531.2,-157.86666666666667
892,-12.8,-526.9333333333333,-166.4
893,-6.4,-531.2,-162.13333333333333
894,-17.066666666666666,-531.2,-151.46666666666667
895,-10.666666666666666,-533.3333333333334,-160.0
896,-12.8,-533.3333333333334,-160.0
897,-12.8,-539.7333333333333,-149.33333333333334
898,-17.066666666666666,-537.6,-166.4
899,-10.666666666666666,-537.6,-164.26666666666665
900,-12.8,-539.7333333333333,-164.26666666666665
901,-12.8,-535.4666666666667,-157.86666666666667
902,-10.666666666666666,-535.4666666666667,-172.8
903,-8.533333333333333,-537.6,-160.0
904,-14.933333333333334,-539.7333333333333,-155.73333333333332
905,-8.533333333333333,-535.4666666666667,-157.86666666666667
906,-10.666666666666666,-531.2,-162.13333333333333
907,-8.533333333333333,-531.2,-157.86666666666667
908,-12.8,-531.2,-157.86666666666667
909,-12.8,-524.8,-153.6
910,-12.8,-539.7333333333333,-153.6
911,-12.8,-526.9333333333333,-157.86666666666667
912,-10.666666666666666,-531.2,-153.6
913,-4.266666666666667,-531.2,-155.73333333333332
914,-10.666666666666666,-531.2,-155.73333333333332
915,-17.066666666666666,-524.8,-157.86666666666667
916,-14.933333333333334,-524.8,-153.6
917,-14.933333333333334,-524.8,-164.26666666666665
918,-17.066666666666666,-524.8,-153.6
919,-10.666666666666666,-529.0666666666666,-155.73333333333332
920,-14.933333333333334,-529.0666666666666,-155.73333333333332
921,-14.933333333333334,-526.9333333333333,-155.73333333333332
922,-17.066666666666666,-531.2,-155.73333333333332
923,-12.8,-533.3333333333334,-157.86666666666667
924,-12.8,-533.3333333333334,-160.0
925,-17.066666666666666,-535.4666666666667,-160.0
926,-21.333333333333332,-531.2,-153.6
927,-12.8,-533.3333333333334,-160.0
928,-14.933333333333334,-526.9333333333333,-155.73333333333332
929,-25.6,-526.9333333333333,-157.86666666666667
930,-19.2,-535.4666666666667,-153.6
931,-21.333333333333332,-531.2,-140.8
932,-21.333333333333332,-529.0666666666666,-149.33333333333334
933,-17.066666666666666,-524.8,-142.93333333333334
934,-17.066666666666666,-526.9333333333333,-149.33333333333334
935,-17.066666666666666,-520.5333333333333,-149.33333333333334
936,-12.8,-520.5333333333333,-155.73333333333332
937,-12.8,-531.2,-142.93333333333334
938,-4.266666666666667,-522.6666666666666,-145.06666666666666
939,-12.8,-526.9333333333333,-151.46666666666667
940,-21.333333333333332,-539.7333333333333,-130.13333333333333
941,-6.4,-533.3333333333334,-155.73333333333332
942,-8.533333333333333,-531.2,-151.46666666666667
943,-12.8,-529.0666666666666,-151.46666666666667
944,-12.8,-529.0666666666666,-155.73333333333332
945,-10.666666666666666,-526.9333333333333,-140.8
946,-14.933333333333334,-529.0666666666666,-149.33333333333334
947,-14.933333333333334,-531.2,-147.2
948,-21.333333333333332,-531.2,-157.86666666666667
949,-17.066666666666666,-535.4666666666667,-153.6
950,-17.066666666666666,-535.4666666666667,-151.46666666666667
951,-14.933333333333334,-539.7333333333333,-155.73333333333332
952,-14.933333333333334,-535.4666666666667,-147.2
953,-10.666666666666666,-535.4666666666667,-149.33333333333334
954,-8.533333333333333,-526.9333333333333,-162.13333333333333
955,-14.933333333333334,-526.9333333333333,-151.46666666666667
956,-4.266666666666667,-529.0666666666666,-149.33333333333334
957,-19.2,-526.9333333333333,-157.86666666666667
958,-12.8,-522.6666666666666,-155.73333333333332
959,-10.666666666666666,-520.5333333333333,-160.0
960,-12.8,-522.6666666666666,-151.46666666666667
961,-8.533333333333333,-526.9333333333333,-151.46666666666667
962,-4.266666666666667,-529.0666666666666,-160.0
963,-19.2,-531.2,-157.86666666666667
964,-10.666666666666666,-531.2,-164.26666666666665
965,-12.8,-533.3333333333334,-162.13333333333333
966,-14.933333333333334,-526.9333333333333,-162.13333333333333
967,-8.533333333333333,-529.0666666666666,-157.86666666666667
968,-6.4,-522.6666666666666,-162.13333333333333
969,-12.8,-526.9333333333333,-160.0
970,-6.4,-531.2,-157.86666666666667
971,-8.533333333333333,-529.0666666666666,-153.6
972,8.533333333333333,-541.8666666666667,-134.4
973,0.0,-531.2,-153.6
974,-6.4,-535.4666666666667,-125.86666666666666
975,2.1333333333333333,-535.4666666666667,-121.6
976,-10.666666666666666,-518.4,-149.33333333333334
977,-8.533333333333333,-526.9333333333333,-145.06666666666666
978,-8.533333333333333,-526.9333333333333,-164.26666666666665
979,29.866666666666667,-518.4,-134.4
980,-4.266666666666667,-548.2666666666667,-140.8
981,-4.266666666666667,-522.6666666666666,-142.93333333333334
982,-10.666666666666666,-526.9333333333333,-147.2
983,-8.533333333333333,-524.8,-142.93333333333334
984,-10.666666666666666,-524.8,-140.8
985,-32.0,-541.8666666666667,-128.0
986,-14.933333333333334,-522.6666666666666,-147.2
987,-6.4,-524.8,-140.8
988,-8.533333333333333,-526.9333333333333,-145.06666666666666
989,-8.533333333333333,-520.5333333333333,-145.06666666666666
990,-4.266666666666667,-520.5333333333333,-140.8
991,-14.933333333333334,-520.5333333333333,-149.33333333333334
992,-4.266666666666667,-524.8,-147.2
993,-2.1333333333333333,-529.0666666666666,-142.93333333333334
994,-4.266666666666667,-524.8,-155.73333333333332
995,-6.4,-520.5333333333333,-147.2
996,2.1333333333333333,-529.0666666666666,-155.73333333333332
997,8.533333333333333,-533.3333333333334,-155.73333333333332
998,2.1333333333333333,-526.9333333333333,-162.13333333333333
999,0.0,-522.6666666666666,-151.46666666666667
1000,-2.1333333333333333,-529.0666666666666,-155.73333333333332
1001,-6.4,-529.0666666666666,-157.86666666666667
1002,-8.533333333333333,-537.6,-157.86666666666667
1003,-12.8,-531.2,-157.86666666666667
1004,-17.066666666666666,-529.0666666666666,-151.46666666666667
1005,-10.666666666666666,-531.2,-162.13333333333333
1006,-14.933333333333334,-535.4666666666667,-160.0
1007,-19.2,-524.8,-155.73333333333332
1008,-12.8,-531.2,-155.73333333333332
1009,-10.666666666666666,-531.2,-155.73333333333332
1010,-19.2,-522.6666666666666,-157.86666666666667
1011,-10.666666666666666,-526.9333333333333,-151.46666666666667
1012,-8.533333333333333,-531.2,-164.26666666666665
1013,-12.8,-533.3333333333334,-155.73333333333332
1014,-4.266666666666667,-531.2,-160.0
1015,-2.1333333333333333,-520.5333333333333,-160.0
1016,-4.266666666666667,-520.5333333333333,-162.13333333333333
1017,-4.266666666666667,-522.6666666666666,-172.8
1018,-4.266666666666667,-524.8,-153.6
1019,-2.1333333333333333,-526.9333333333333,-160.0
1020,-8.533333333333333,-524.8,-168.53333333333333
1021,-12.8,-522.6666666666666,-157.86666666666667
1022,-12.8,-522.6666666666666,-153.6
1023,-6.4,-526.9333333333333,-162.13333333333333
1024,-14.933333333333334,-520.5333333333333,-166.4
1025,-12.8,-529.0666666666666,-166.4
1026,-17.066666666666666,-522.6666666666666,-168.53333333333333
1027,-17.066666666666666,-529.0666666666666,-168.53333333333333
1028,-10.666666666666666,-533.3333333333334,-168.53333333333333
1029,-14.933333333333334,-529.0666666666666,-166.4
1030,-14.933333333333334,-535.4666666666667,-162.13333333333333
1031,-19.2,-535.4666666666667,-168.53333333333333
1032,-19.2,-535.4666666666667,-162.13333333333333
1033,-21.333333333333332,-535.4666666666667,-160.0
1034,-12.8,-533.3333333333334,-160.0
1035,-19.2,-529.0666666666666,-160.0
1036,-14.933333333333334,-531.2,-170.66666666666666
1037,-14.933333333333334,-522.6666666666666,-172.8
1038,-14.933333333333334,-524.8,-164.26666666666665
1039,-19.2,-529.0666666666666,-162.13333333333333
1040,-17.066666666666666,-524.8,-166.4
1041,-12.8,-522.6666666666666,-164.26666666666665
1042,-12.8,-524.8,-164.26666666666665
1043,-19.2,-518.4,-172.8
1044,-17.066666666666666,-520.5333333333333,-162.13333333333333
1045,-19.2,-514.1333333333333,-170.66666666666666
1046,-17.066666666666666,-520.5333333333333,-168.53333333333333
1047,-14.933333333333334,-522.6666666666666,-168.53333333333333
1048,-14.933333333333334,-520.5333333333333,-168.53333333333333
1049,-14.933333333333334,-520.5333333333333,-164.26666666666665
1050,-6.4,-524.8,-166.4
1051,-4.266666666666667,-522.6666666666666,-168.53333333333333
1052,-2.1333333333333333,-524.8,-170.66666666666666
1053,-2.1333333333333333,-524.8,-170.66666666666666
1054,0.0,-524.8,-174.93333333333334
1055,6.4,-526.9333333333333,-168.53333333333333
1056,8.533333333333333,-524.8,-177.06666666666666
1057,2.1333333333333333,-526.9333333333333,-168.53333333333333
1058,4.266666666666667,-524.8,-170.66666666666666
1059,4.266666666666667,-520.5333333333333,-170.66666666666666
1060,12.8,-522.6666666666666,-170.66666666666666
1061,2.1333333333333333,-524.8,-179.2
1062,12.8,-522.6666666666666,-172.8
1063,10.666666666666666,-524.8,-174.93333333333334
1064,10.666666666666666,-520.5333333333333,-170.66666666666666
1065,14.933333333333334,-529.0666666666666,-181.33333333333334
1066,14.933333333333334,-524.8,-177.06666666666666
1067,12.8,-526.9333333333333,-177.06666666666666
1068,6.4,-524.8,-179.2
1069,12.8,-522.6666666666666,-181.33333333333334
1070,10.666666666666666,-522.6666666666666,-179.2
1071,10.666666666666666,-526.9333333333333,-177.06666666666666
1072,4.266666666666667,-516.2666666666667,-187.73333333333332
1073,12.8,-522.6666666666666,-177.06666666666666
1074,10.666666666666666,-518.4,-187.73333333333332
1075,14.933333333333334,-520.5333333333333,-179.2
1076,6.4,-518.4,-177.06666666666666
1077,14.933333333333334,-522.6666666666666,-187.73333333333332
1078,10.666666666666666,-518.4,-189.86666666666667
1079,12.8,-524.8,-177.06666666666666
1080,12.8,-524.8,-179.2
1081,6.4,-520.5333333333333,-181.33333333333334
1082,8.533333333333333,-520.5333333333333,-181.33333333333334
1083,6.4,-524.8,-189.86666666666667
1084,6.4,-529.0666666666666,-177.06666666666666
1085,6.4,-524.8,-185.6
1086,0.0,-526.9333333333333,-181.33333333333334
1087,-2.1333333333333333,-520.5333333333333,-189.86666666666667
1088,2.1333333333333333,-531.2,-192.0
1089,-6.4,-526.9333333333333,-181.33333333333334
1090,-4.266666666666667,-522.6666666666666,-181.33333333333334
1091,-14.933333333333334,-518.4,-183.46666666666667
1092,-4.266666666666667,-526.9333333333333,-183.46666666666667
1093,-6.4,-522.6666666666666,-185.6
1094,-10.666666666666666,-520.5333333333333,-183.46666666666667
1095,-4.266666666666667,-518.4,-181.33333333333334
1096,-2.1333333333333333,-518.4,-189.86666666666667
1097,-4.266666666666667,-524.8,-185.6
1098,-2.1333333333333333,-524.8,-177.06666666666666
1099,2.1333333333333333,-529.0666666666666,-187.73333333333332
1100,4.266666666666667,-531.2,-189.86666666666667
1101,4.266666666666667,-529.0666666666666,-183.46666666666667
1102,8.533333333333333,-531.2,-185.6
1103,6.4,-526.9333333333333,-189.86666666666667
1104,4.266666666666667,-522.6666666666666,-183.46666666666667
1105,0.0,-518.4,-189.86666666666667
1106,2.1333333333333333,-518.4,-192.0
1107,2.1333333333333333,-526.9333333333333,-187.73333333333332
1108,2.1333333333333333,-524.8,-183.46666666666667
1109,-2.1333333333333333,-524.8,-183.46666666666667
1110,0.0,-520.5333333333333,-185.6
1111,0.0,-524.8,-183.46666666666667
1112,2.1333333333333333,-520.5333333333333,-183.46666666666667
1113,0.0,-522.6666666666666,-189.86666666666667
1114,-2.1333333333333333,-522.6666666666666,-177.06666666666666
1115,-4.266666666666667,-520.5333333333333,-187.73333333333332
1116,-10.666666666666666,-518.4,-181.33333333333334
1117,-6.4,-516.2666666666667,-172.8
1118,-4.266666666666667,-522.6666666666666,-177.06666666666666
1119,-4.266666666666667,-524.8,-183.46666666666667
1120,-4.266666666666667,-520.5333333333333,-181.33333333333334
1121,-8.533333333333333,-520.5333333333333,-181.33333333333334
1122,-4.266666666666667,-522.6666666666666,-181.33333333333334
1123,-6.4,-524.8,-181.33333333333334
1124,-6.4,-526.9333333333333,-185.6
1125,0.0,-526.9333333333333,-181.33333333333334
1126,-10.666666666666666,-529.0666666666666,-185.6
1127,-2.1333333333333333,-524.8,-177.06666666666666
1128,-10.666666666666666,-526.9333333333333,-179.2
1129,-2.1333333333333333,-522.6666666666666,-189.86666666666667
1130,-8.533333333333333,-522.6666666666666,-183.46666666666667
1131,0.0,-529.0666666666666,-183.46666666666667
1132,2.1333333333333333,-518.4,-181.33333333333334
1133,0.0,-524.8,-189.86666666666667
1134,-4.266666666666667,-524.8,-179.2
1135,4.266666666666667,-529.0666666666666,-179.2
1136,2.1333333333333333,-524.8,-181.33333333333334
1137,0.0,-522.6666666666666,-185.6
1138,0.0,-518.4,-181.33333333333334
1139,2.1333333333333333,-524.8,-183.46666666666667
1140,2.1333333333333333,-524.8,-177.06666666666666
1141,0.0,-524.8,-170.66666666666666
1142,-4.266666666666667,-524.8,-168.53333333333333
1143,-4.266666666666667,-526.9333333333333,-170.66666666666666
1144,0.0,-526.9333333333333,-170.66666666666666
1145,-2.1333333333333333,-531.2,-177.06666666666666
1146,-8.533333333333333,-524.8,-172.8
1147,-6.4,-518.4,-162.13333333333333
1148,-8.533333333333333,-520.5333333333333,-164.26666666666665
1149,-6.4,-518.4,-164.26666666666665
1150,-17.066666666666666,-518.4,-162.13333333333333
1151,-8.533333333333333,-520.5333333333333,-162.13333333333333
1152,-12.8,-524.8,-160.0
1153,-6.4,-518.4,-160.0
1154,-12.8,-522.6666666666666,-164.26666666666665
1155,-4.266666666666667,-526.9333333333333,-160.0
1156,-2.1333333333333333,-522.6666666666666,-166.4
1157,-12.8,-524.8,-170.66666666666666
1158,-6.4,-539.7333333333333,-172.8
1159,-4.266666666666667,-531.2,-168.53333333333333
1160,-2.1333333333333333,-524.8,-170.66666666666666
1161,-4.266666666666667,-526.9333333333333,-166.4
1162,-2.1333333333333333,-522.6666666666666,-166.4
1163,-2.1333333333333333,-526.9333333333333,-177.06666666666666
1164,-8.533333333333333,-529.0666666666666,-168.53333333333333
1165,-6.4,-529.0666666666666,-168.53333333333333
1166,-8.533333333333333,-526.9333333333333,-166.4
1167,-8.533333333333333,-524.8,-170.66666666666666
1168,-14.933333333333334,-524.8,-162.13333333333333
1169,-10.666666666666666,-529.0666666666666,-157.86666666666667
1170,-10.666666666666666,-533.3333333333334,-162.13333333333333
1171,-17.066666666666666,-524.8,-160.0
1172,-8.533333333333333,-526.9333333333333,-166.4
1173,-17.066666666666666,-524.8,-164.26666666666665
1174,-12.8,-533.3333333333334,-160.0
1175,-10.666666666666666,-526.9333333333333,-157.86666666666667
1176,-4.266666666666667,-537.6,-164.26666666666665
1177,-12.8,-529.0666666666666,-157.86666666666667
1178,-8.533333333333333,-529.0666666666666,-155.73333333333332
1179,-8.533333333333333,-524.8,-157.86666666666667
1180,-12.8,-524.8,-162.13333333333333
1181,-8.533333333333333,-526.9333333333333,-157.86666666666667
1182,-12.8,-520.5333333333333,-157.86666666666667
1183,-10.666666666666666,-512.0,-153.6
1184,-4.266666666666667,-522.6666666666666,-166.4
1185,-6.4,-526.9333333333333,-157.86666666666667
1186,-6.4,-526.9333333333333,-166.4
1187,-4.266666666666667,-524.8,-164.26666666666665
1188,-4.266666666666667,-514.1333333333333,-157.86666666666667
1189,-4.266666666666667,-524.8,-166.4
1190,-10.666666666666666,-522.6666666666666,-162.13333333333333
1191,-10.666666666666666,-522.6666666666666,-174.93333333333334
1192,-10.666666666666666,-524.8,-162.13333333333333
1193,-8.533333333333333,-529.0666666666666,-160.0
1194,-4.266666666666667,-526.9333333333333,-174.93333333333334
1195,-10.666666666666666,-526.9333333333333,-170.66666666666666
1196,-14.933333333333334,-526.9333333333333,-162.13333333333333
1197,-12.8,-529.0666666666666,-166.4
1198,-14.933333333333334,-531.2,-162.13333333333333
1199,-10.666666666666666,-526.9333333333333,-168.53333333333333
1200,-12.8,-524.8,-162.13333333333333
1201,-8.533333333333333,-526.9333333333333,-164.26666666666665
1202,-12.8,-526.9333333333333,-162.13333333333333
1203,-17.066666666666666,-522.6666666666666,-162.13333333333333
1204,-12.8,-526.9333333333333,-162.13333333333333
1205,-14.933333333333334,-520.5333333333333,-168.53333333333333
1206,-4.266666666666667,-526.9333333333333,-160.0
1207,-12.8,-529.0666666666666,-166.4
1208,-6.4,-529.0666666666666,-160.0
1209,-12.8,-524.8,-162.13333333333333
1210,-4.266666666666667,-529.0666666666666,-162.13333333333333
1211,-4.266666666666667,-531.2,-155.73333333333332
1212,-2.1333333333333333,-526.9333333333333,-160.0
1213,-10.666666666666666,-518.4,-157.86666666666667
1214,-8.533333333333333,-524.8,-160.0
1215,-10.666666666666666,-522.6666666666666,-162.13333333333333
1216,-12.8,-524.8,-160.0
1217,-14.933333333333334,-526.9333333333333,-162.13333333333333
1218,-12.8,-526.9333333333333,-160.0
1219,-14.933333333333334,-529.0666666666666,-168.53333333333333
1220,-14.933333333333334,-529.0666666666666,-168.53333333333333
1221,-6.4,-529.0666666666666,-155.73333333333332
1222,-12.8,-529.0666666666666,-162.13333333333333
1223,-10.666666666666666,-529.0666666666666,-162.13333333333333
1224,-17.066666666666666,-524.8,-168.53333333333333
1225,-4.266666666666667,-529.0666666666666,-166.4
1226,-6.4,-524.8,-166.4
1227,-4.266666666666667,-522.6666666666666,-166.4
1228,-4.266666666666667,-526.9333333333333,-170.66666666666666
1229,-8.533333333333333,-524.8,-168.53333333333333
1230,-8.533333333333333,-520.5333333333333,-162.13333333333333
1231,-10.666666666666666,-526.9333333333333,-164.26666666666665
1232,-12.8,-529.0666666666666,-162.13333333333333
1233,-10.666666666666666,-529.0666666666666,-160.0
1234,-8.533333333333333,-529.0666666666666,-168.53333333333333
1235,-12.8,-526.9333333333333,-164.26666666666665
1236,-4.266666666666667,-526.9333333333333,-164.26666666666665
1237,-8.533333333333333,-520.5333333333333,-168.53333333333333
1238,-8.533333333333333,-516.2666666666667,-177.06666666666666
1239,-12.8,-531.2,-164.26666666666665
1240,-8.533333333333333,-522.6666666666666,-168.53333333333333
1241,-10.666666666666666,-522.6666666666666,-164.26666666666665
1242,-8.533333333333333,-529.0666666666666,-166.4
1243,-14.933333333333334,-520.5333333333333,-168.53333333333333
1244,-6.4,-529.0666666666666,-162.13333333333333
1245,-6.4,-529.0666666666666,-160.0
1246,-10.666666666666666,-526.9333333333333,-153.6
1247,-14.933333333333334,-529.0666666666666,-147.2
1248,-8.533333333333333,-522.6666666666666,-147.2
1249,-6.4,-531.2,-160.0
1250,-14.933333333333334,-526.9333333333333,-151.46666666666667
1251,-12.8,-520.5333333333333,-151.46666666666667
1252,-6.4,-526.9333333333333,-155.73333333333332
1253,-8.533333333333333,-522.6666666666666,-155.73333333333332
1254,-10.666666666666666,-529.0666666666666,-153.6
1255,-6.4,-529.0666666666666,-160.0
1256,-10.666666666666666,-526.9333333333333,-153.6
1257,-12.8,-524.8,-168.53333333333333
1258,-6.4,-533.3333333333334,-155.73333333333332
1259,-8.533333333333333,-526.9333333333333,-162.13333333333333
1260,-10.666666666666666,-522.6666666666666,-166.4
1261,-6.4,-524.8,-170.66666666666666
1262,-8.533333333333333,-522.6666666666666,-162.13333333333333
1263,-14.933333333333334,-524.8,-168.53333333333333
1264,-8.533333333333333,-524.8,-170.66666666666666
1265,-10.666666666666666,-529.0666666666666,-164.26666666666665
1266,-10.666666666666666,-522.6666666666666,-170.66666666666666
1267,-8.533333333333333,-533.3333333333334,-168.53333333333333
1268,-10.666666666666666,-533.3333333333334,-162.13333333333333
1269,-8.533333333333333,-526.9333333333333,-164.26666666666665
1270,-17.066666666666666,-531.2,-166.4
1271,-4.266666666666667,-529.0666666666666,-168.53333333333333
1272,-6.4,-524.8,-164.26666666666665
1273,-10.666666666666666,-526.9333333333333,-164.26666666666665
1274,-17.066666666666666,-529.0666666666666,-155.73333333333332
1275,-4.266666666666667,-524.8,-164.26666666666665
1276,-8.533333333333333,-524.8,-168.53333333333333
1277,-6.4,-522.6666666666666,-164.26666666666665
1278,-8.533333333333333,-524.8,-164.26666666666665
1279,-12.8,-524.8,-166.4
1280,-10.666666666666666,-524.8,-162.13333333333333
1281,-14.933333333333334,-522.6666666666666,-153.6
1282,-8.533333333333333,-526.9333333333333,-157.86666666666667
1283,-8.533333333333333,-526.9333333333333,-157.86666666666667
1284,-8.533333333333333,-531.2,-153.6
1285,-12.8,-522.6666666666666,-164.26666666666665
1286,-8.533333333333333,-529.0666666666666,-153.6
1287,-6.4,-529.0666666666666,-157.86666666666667
1288,-8.533333333333333,-531.2,-166.4
1289,-6.4,-531.2,-160.0
1290,-10.666666666666666,-531.2,-166.4
1291,-14.933333333333334,-531.2,-168.53333333333333
1292,-12.8,-522.6666666666666,-170.66666666666666
1293,-12.8,-524.8,-166.4
1294,-12.8,-524.8,-164.26666666666665
1295,-17.066666666666666,-522.6666666666666,-168.53333333333333
1296,-10.666666666666666,-526.9333333333333,-166.4
1297,-6.4,-524.8,-160.0
1298,-10.666666666666666,-529.0666666666666,-166.4
1299,-10.666666666666666,-524.8,-164.26666666666665
1300,-8.533333333333333,-526.9333333333333,-164.26666666666665
1301,-6.4,-529.0666666666666,-166.4
1302,-6.4,-526.9333333333333,-170.66666666666666
1303,-10.666666666666666,-529.0666666666666,-162.13333333333333
1304,-10.666666666666666,-520.5333333333333,-164.26666666666665
1305,-14.933333333333334,-529.0666666666666,-166.4
1306,-8.533333333333333,-520.5333333333333,-162.13333333333333
1307,-8.533333333333333,-526.9333333333333,-164.26666666666665
1308,-2.1333333333333333,-524.8,-168.53333333333333
1309,-8.533333333333333,-522.6666666666666,-164.26666666666665
1310,-8.533333333333333,-526.9333333333333,-170.66666666666666
1311,-10.666666666666666,-518.4,-166.4
1312,-10.666666666666666,-529.0666666666666,-160.0
1313,-10.666666666666666,-526.9333333333333,-164.26666666666665
1314,-10.666666666666666,-531.2,-164.26666666666665
1315,-10.666666666666666,-524.8,-164.26666666666665
1316,-14.933333333333334,-522.6666666666666,-162.13333333333333
1317,-6.4,-526.9333333333333,-160.0
1318,-8.533333333333333,-529.0666666666666,-168.53333333333333
1319,-12.8,-531.2,-170.66666666666666
1320,-8.533333333333333,-526.9333333333333,-168.53333333333333
1321,-6.4,-526.9333333333333,-177.06666666666666
1322,-8.533333333333333,-526.9333333333333,-168.53333333333333
1323,-8.533333333333333,-524.8,-157.86666666666667
1324,-6.4,-524.8,-172.8
1325,-6.4,-524.8,-166.4
1326,-2.1333333333333333,-531.2,-172.8
1327,-10.666666666666666,-524.8,-168.53333333333333
1328,-10.666666666666666,-524.8,-168.53333333333333
1329,-8.533333333333333,-524.8,-164.26666666666665
1330,-8.533333333333333,-526.9333333333333,-162.13333333333333
1331,-8.533333333333333,-526.9333333333333,-166.4
1332,-8.533333333333333,-529.0666666666666,-157.86666666666667
1333,-8.533333333333333,-529.0666666666666,-170.66666666666666
1334,-10.666666666666666,-526.9333333333333,-170.66666666666666
1335,-8.533333333333333,-526.9333333333333,-170.66666666666666
1336,-8.533333333333333,-526.9333333333333,-168.53333333333333
1337,-4.266666666666667,-524.8,-168.53333333333333
1338,-12.8,-524.8,-170.66666666666666
1339,-6.4,-526.9333333333333,-166.4
1340,-6.4,-526.9333333333333,-162.13333333333333
1341,-10.666666666666666,-524.8,-164.26666666666665
1342,-10.666666666666666,-518.4,-168.53333333333333
1343,-10.666666666666666,-529.0666666666666,-168.53333333333333
1344,-12.8,-518.4,-164.26666666666665
1345,-8.533333333333333,-529.0666666666666,-166.4
1346,-8.533333333333333,-524.8,-168.53333333333333
1347,-8.533333333333333,-522.6666666666666,-172.8
1348,-8.533333333333333,-520.5333333333333,-168.53333333333333
1349,-2.1333333333333333,-524.8,-172.8
1350,-4.266666666666667,-526.9333333333333,-162.13333333333333
1351,-10.666666666666666,-531.2,-170.66666666666666
1352,-6.4,-524.8,-168.53333333333333
1353,-10.666666666666666,-529.0666666666666,-170.66666666666666
1354,-10.666666666666666,-524.8,-174.93333333333334
1355,-10.666666666666666,-529.0666666666666,-166.4
1356,-6.4,-522.6666666666666,-174.93333333333334
1357,-2.1333333333333333,-535.4666666666667,-170.66666666666666
1358,-8.533333333333333,-526.9333333333333,-164.26666666666665
1359,-6.4,-531.2,-168.53333333333333
1360,-10.666666666666666,-522.6666666666666,-164.26666666666665
1361,-10.666666666666666,-526.9333333333333,-166.4
1362,-6.4,-529.0666666666666,-160.0
1363,-12.8,-524.8,-174.93333333333334
1364,-8.533333333333333,-526.9333333333333,-166.4
1365,-8.533333333333333,-535.4666666666667,-172.8
1366,-4.266666666666667,-529.0666666666666,-174.93333333333334
1367,-2.1333333333333333,-524.8,-174.93333333333334
1368,-6.4,-526.9333333333333,-170.66666666666666
1369,-6.4,-524.8,-166.4
1370,-4.266666666666667,-529.0666666666666,-168.53333333333333
1371,-4.266666666666667,-524.8,-164.26666666666665
1372,-10.666666666666666,-526.9333333333333,-172.8
1373,-10.666666666666666,-520.5333333333333,-177.06666666666666
1374,-6.4,-524.8,-170.66666666666666
1375,-2.1333333333333333,-531.2,-170.66666666666666
1376,-10.666666666666666,-529.0666666666666,-172.8
1377,-4.266666666666667,-529.0666666666666,-177.06666666666666
1378,-6.4,-529.0666666666666,-179.2
1379,-10.666666666666666,-522.6666666666666,-174.93333333333334
1380,-2.1333333333333333,-531.2,-172.8
1381,-2.1333333333333333,-524.8,-172.8
1382,-8.533333333333333,-518.4,-172.8
1383,-8.533333333333333,-518.4,-172.8
1384,-10.666666666666666,-522.6666666666666,-174.93333333333334
1385,-8.533333333333333,-522.6666666666666,-177.06666666666666
1386,-12.8,-529.0666666666666,-174.93333333333334
1387,-8.533333333333333,-524.8,-170.66666666666666
1388,-10.666666666666666,-529.0666666666666,-164.26666666666665
1389,-17.066666666666666,-520.5333333333333,-168.53333333333333
1390,-10.666666666666666,-524.8,-162.13333333333333
1391,-12.8,-526.9333333333333,-164.26666666666665
1392,-4.266666666666667,-529.0666666666666,-164.26666666666665
1393,-4.266666666666667,-524.8,-166.4
1394,-2.1333333333333333,-531.2,-164.26666666666665
1395,-8.533333333333333,-522.6666666666666,-164.26666666666665
1396,-2.1333333333333333,-531.2,-170.66666666666666
1397,-6.4,-529.0666666666666,-172.8
1398,-6.4,-524.8,-181.33333333333334
1399,-6.4,-526.9333333333333,-170.66666666666666
1400,-8.533333333333333,-522.6666666666666,-172.8
1401,-6.4,-526.9333333333333,-172.8
1402,-4.266666666666667,-524.8,-172.8
1403,-4.266666666666667,-524.8,-168.53333333333333
1404,-6.4,-524.8,-166.4
1405,-6.4,-531.2,-172.8
1406,0.0,-526.9333333333333,-164.26666666666665
1407,-10.666666666666666,-522.6666666666666,-162.13333333333333
1408,-12.8,-526.9333333333333,-177.06666666666666
1409,-6.4,-524.8,-174.93333333333334
1410,-8.533333333333333,-529.0666666666666,-170.66666666666666
1411,-19.2,-520.5333333333333,-166.4
1412,-12.8,-514.1333333333333,-172.8
1413,-12.8,-522.6666666666666,-164.26666666666665
1414,-10.666666666666666,-520.5333333333333,-166.4
1415,-8.533333333333333,-526.9333333333333,-162.13333333333333
1416,-10.666666666666666,-524.8,-168.53333333333333
1417,-10.666666666666666,-526.9333333333333,-166.4
1418,-12.8,-529.0666666666666,-166.4
1419,-19.2,-526.9333333333333,-168.53333333333333
1420,-14.933333333333334,-526.9333333333333,-172.8
1421,-6.4,-524.8,-168.53333333333333
1422,-14.933333333333334,-526.9333333333333,-172.8
1423,-14.933333333333334,-526.9333333333333,-166.4
1424,-14.933333333333334,-535.4666666666667,-164.26666666666665
1425,-10.666666666666666,-529.0666666666666,-164.26666666666665
1426,-8.533333333333333,-529.0666666666666,-164.26666666666665
1427,-10.666666666666666,-520.5333333333333,-170.66666666666666
1428,-10.666666666666666,-522.6666666666666,-164.26666666666665
1429,-2.1333333333333333,-524.8,-174.93333333333334
1430,-6.4,-529.0666666666666,-174.93333333333334
1431,-6.4,-524.8,-172.8
1432,-8.533333333333333,-522.6666666666666,-168.53333333333333
1433,-6.4,-524.8,-172.8
1434,-8.533333333333333,-516.2666666666667,-183.46666666666667
1435,-6.4,-518.4,-168.53333333333333
1436,-6.4,-516.2666666666667,-170.66666666666666
1437,-2.1333333333333333,-529.0666666666666,-179.2
1438,-12.8,-526.9333333333333,-168.53333333333333
1439,-12.8,-520.5333333333333,-170.66666666666666
1440,0.0,-514.1333333333333,-174.93333333333334
1441,-19.2,-516.2666666666667,-213.33333333333334
1442,-14.933333333333334,-522.6666666666666,-160.0
1443,-17.066666666666666,-526.9333333333333,-194.13333333333333
1444,-10.666666666666666,-535.4666666666667,-215.46666666666667
1445,-8.533333333333333,-518.4,-172.8
1446,-6.4,-522.6666666666666,-168.53333333333333
1447,-17.066666666666666,-539.7333333333333,-174.93333333333334
1448,-17.066666666666666,-535.4666666666667,-157.86666666666667
1449,-19.2,-526.9333333333333,-164.26666666666665
1450,-17.066666666666666,-524.8,-168.53333333333333
1451,-17.066666666666666,-522.6666666666666,-166.4
1452,-12.8,-524.8,-168.53333333333333
1453,-14.933333333333334,-529.0666666666666,-170.66666666666666
1454,-8.533333333333333,-522.6666666666666,-160.0
1455,-12.8,-526.9333333333333,-166.4
1456,-10.666666666666666,-526.9333333333333,-162.13333333333333
1457,-8.533333333333333,-529.0666666666666,-172.8
1458,-10.666666666666666,-524.8,-166.4
1459,-8.533333333333333,-526.9333333333333,-164.26666666666665
1460,-6.4,-526.9333333333333,-168.53333333333333
1461,-12.8,-524.8,-170.66666666666666
1462,-14.933333333333334,-529.0666666666666,-157.86666666666667
1463,-12.8,-526.9333333333333,-170.66666666666666
1464,-8.533333333333333,-522.6666666666666,-166.4
1465,-12.8,-518.4,-160.0
1466,-17.066666666666666,-524.8,-166.4
1467,-14.933333333333334,-522.6666666666666,-172.8
1468,-19.2,-526.9333333333333,-168.53333333333333
1469,-19.2,-518.4,-172.8
1470,-23.466666666666665,-520.5333333333333,-177.06666666666666
1471,-14.933333333333334,-526.9333333333333,-168.53333333333333
1472,-14.933333333333334,-529.0666666666666,-172.8
1473,-10.666666666666666,-535.4666666666667,-172.8
1474,-10.666666666666666,-531.2,-170.66666666666666
1475,-8.533333333333333,-533.3333333333334,-164.26666666666665
1476,-4.266666666666667,-531.2,-162.13333333333333
1477,-12.8,-529.0666666666666,-170.66666666666666
1478,-2.1333333333333333,-526.9333333333333,-164.26666666666665
1479,-6.4,-531.2,-160.0
1480,-6.4,-529.0666666666666,-166.4
1481,-4.266666666666667,-531.2,-166.4
1482,-8.533333333333333,-529.0666666666666,-160.0
1483,-14.933333333333334,-518.4,-166.4
1484,-8.533333333333333,-524.8,-166.4
1485,-12.8,-520.5333333333333,-164.26666666666665
1486,-10.666666666666666,-516.2666666666667,-168.53333333333333
1487,-6.4,-531.2,-166.4
1488,-10.666666666666666,-520.5333333333333,-162.13333333333333
1489,-12.8,-533.3333333333334,-160.0
1490,-14.933333333333334,-524.8,-168.53333333333333
1491,-17.066666666666666,-529.0666666666666,-168.53333333333333
1492,-8.533333333333333,-522.6666666666666,-172.8
1493,-8.533333333333333,-526.9333333333333,-170.66666666666666
1494,-12.8,-526.9333333333333,-170.66666666666666
1495,-6.4,-520.5333333333333,-177.06666666666666
1496,-10.666666666666666,-526.9333333333333,-172.8
1497,-6.4,-526.9333333333333,-168.53333333333333
1498,-10.666666666666666,-526.9333333333333,-164.26666666666665
1499,-8.533333333333333,-526.9333333333333,-177.06666666666666
1500,-8.533333333333333,-531.2,-168.53333333333333
1501,-8.533333333333333,-526.9333333333333,-179.2
1502,-10.666666666666666,-526.9333333333333,-168.53333333333333
1503,-12.8,-524.8,-172.8
1504,-12.8,-524.8,-170.66666666666666
1505,-10.666666666666666,-522.6666666666666,-160.0
1506,-14.933333333333334,-520.5333333333333,-172.8
1507,-19.2,-518.4,-168.53333333333333
1508,-10.666666666666666,-524.8,-170.66666666666666
1509,-14.933333333333334,-522.6666666666666,-166.4
1510,-12.8,-526.9333333333333,-166.4
1511,-17.066666666666666,-524.8,-170.66666666666666
1512,-14.933333333333334,-522.6666666666666,-168.53333333333333
1513,-10.666666666666666,-529.0666666666666,-172.8
1514,-8.533333333333333,-524.8,-160.0
1515,-8.533333333333333,-524.8,-170.66666666666666
1516,-12.8,-524.8,-166.4
1517,-4.266666666666667,-524.8,-160.0
1518,-12.8,-520.5333333333333,-164.26666666666665
1519,-12.8,-524.8,-160.0
1520,-14.933333333333334,-526.9333333333333,-166.4
1521,-10.666666666666666,-531.2,-164.26666666666665
1522,-12.8,-533.3333333333334,-162.13333333333333
1523,-8.533333333333333,-535.4666666666667,-157.86666666666667
1524,-12.8,-526.9333333333333,-170.66666666666666
1525,-8.533333333333333,-533.3333333333334,-164.26666666666665
1526,-8.533333333333333,-535.4666666666667,-170.66666666666666
1527,-6.4,-535.4666666666667,-162.13333333333333
1528,-4.266666666666667,-535.4666666666667,-174.93333333333334
1529,-17.066666666666666,-524.8,-170.66666666666666
1530,-12.8,-520.5333333333333,-177.06666666666666
1531,-4.266666666666667,-526.9333333333333,-174.93333333333334
1532,-8.533333333333333,-520.5333333333333,-185.6
1533,-14.933333333333334,-516.2666666666667,-181.33333333333334
1534,-4.266666666666667,-520.5333333333333,-174.93333333333334
1535,-8.533333333333333,-520.5333333333333,-168.53333333333333
1536,-12.8,-516.2666666666667,-164.26666666666665
1537,-14.933333333333334,-520.5333333333333,-160.0
1538,-8.533333333333333,-522.6666666666666,-166.4
1539,-12.8,-522.6666666666666,-164.26666666666665
1540,-10.666666666666666,-524.8,-170.66666666666666
1541,-17.066666666666666,-524.8,-168.53333333333333
1542,-14.933333333333334,-526.9333333333333,-160.0
1543,-10.666666666666666,-524.8,-160.0
1544,-10.666666666666666,-535.4666666666667,-166.4
1545,-10.666666666666666,-526.9333333333333,-160.0
1546,-10.666666666666666,-529.0666666666666,-168.53333333333333
1547,-8.533333333333333,-529.0666666666666,-164.26666666666665
1548,-10.666666666666666,-526.9333333333333,-172.8
1549,-10.666666666666666,-522.6666666666666,-168.53333333333333
1550,-8.533333333333333,-524.8,-164.26666666666665
1551,-14.933333333333334,-529.0666666666666,-164.26666666666665
1552,-6.4,-529.0666666666666,-166.4
1553,-12.8,-529.0666666666666,-168.53333333333333
1554,-10.666666666666666,-533.3333333333334,-166.4
1555,-10.666666666666666,-531.2,-179.2
1556,-8.533333333333333,-529.0666666666666,-168.53333333333333
1557,-6.4,-533.3333333333334,-170.66666666666666
1558,-8.533333333333333,-526.9333333333333,-164.26666666666665
1559,-4.266666666666667,-529.0666666666666,-170.66666666666666
1560,-10.666666666666666,-529.0666666666666,-168.53333333333333
1561,-6.4,-531.2,-164.26666666666665
1562,-4.266666666666667,-533.3333333333334,-168.53333333333333
1563,-8.533333333333333,-531.2,-162.13333333333333
1564,-6.4,-524.8,-170.66666666666666
1565,-4.266666666666667,-526.9333333333333,-168.53333333333333
1566,-8.533333333333333,-520.5333333333333,-168.53333333333333
1567,-8.533333333333333,-524.8,-168.53333333333333
1568,-2.1333333333333333,-522.6666666666666,-162.13333333333333
1569,-8.533333333333333,-522.6666666666666,-157.86666666666667
1570,-12.8,-516.2666666666667,-164.26666666666665
1571,-12.8,-512.0,-168.53333333333333
1572,-10.666666666666666,-514.1333333333333,-164.26666666666665
1573,-6.4,-514.1333333333333,-162.13333333333333
1574,-6.4,-520.5333333333333,-172.8
1575,-4.266666666666667,-516.2666666666667,-166.4
1576,-6.4,-516.2666666666667,-170.66666666666666
1577,-2.1333333333333333,-520.5333333333333,-166.4
1578,-2.1333333333333333,-522.6666666666666,-168.53333333333333
1579,-6.4,-520.5333333333333,-168.53333333333333
1580,-10.666666666666666,-520.5333333333333,-166.4
1581,-4.266666666666667,-522.6666666666666,-170.66666666666666
1582,-6.4,-518.4,-166.4
1583,-6.4,-518.4,-166.4
1584,-2.1333333333333333,-522.6666666666666,-174.93333333333334
1585,2.1333333333333333,-524.8,-172.8
1586,0.0,-529.0666666666666,-177.06666666666666
1587,-2.1333333333333333,-531.2,-170.66666666666666
1588,0.0,-529.0666666666666,-168.53333333333333
1589,6.4,-535.4666666666667,-172.8
1590,12.8,-529.0666666666666,-177.06666666666666
1591,12.8,-524.8,-181.33333333333334
1592,12.8,-533.3333333333334,-185.6
1593,8.533333333333333,-535.4666666666667,-196.26666666666665
1594,6.4,-541.8666666666667,-202.66666666666666
1595,8.533333333333333,-546.1333333333333,-206.93333333333334
1596,0.0,-550.4,-213.33333333333334
1597,0.0,-550.4,-213.33333333333334
1598,-2.1333333333333333,-544.0,-215.46666666666667
1599,-8.533333333333333,-539.7333333333333,-211.2
1600,-12.8,-535.4666666666667,-219.73333333333332
1601,-12.8,-522.6666666666666,-213.33333333333334
1602,-8.533333333333333,-509.8666666666667,-221.86666666666667
1603,-10.666666666666666,-492.8,-221.86666666666667
1604,-8.533333333333333,-480.0,-213.33333333333334
1605,-14.933333333333334,-473.59999999999997,-211.2
1606,-14.933333333333334,-467.2,-198.4
1607,-17.066666666666666,-471.46666666666664,-192.0
1608,-17.066666666666666,-467.2,-194.13333333333333
1609,-21.333333333333332,-473.59999999999997,-185.6
1610,-21.333333333333332,-467.2,-177.06666666666666
1611,-21.333333333333332,-469.3333333333333,-172.8
1612,-10.666666666666666,-475.73333333333335,-168.53333333333333
1613,-12.8,-473.59999999999997,-177.06666666666666
1614,-6.4,-480.0,-174.93333333333334
1615,-6.4,-475.73333333333335,-179.2
1616,-2.1333333333333333,-484.26666666666665,-189.86666666666667
1617,0.0,-484.26666666666665,-189.86666666666667
1618,2.1333333333333333,-486.4,-202.66666666666666
1619,4.266666666666667,-490.6666666666667,-196.26666666666665
1620,12.8,-492.8,-198.4
1621,10.666666666666666,-497.06666666666666,-198.4
1622,10.666666666666666,-497.06666666666666,-192.0
1623,6.4,-494.93333333333334,-181.33333333333334
1624,8.533333333333333,-497.06666666666666,-183.46666666666667
1625,6.4,-492.8,-172.8
1626,8.533333333333333,-499.2,-172.8
1627,8.533333333333333,-494.93333333333334,-151.46666666666667
1628,12.8,-497.06666666666666,-149.33333333333334
1629,2.1333333333333333,-490.6666666666667,-149.33333333333334
1630,-10.666666666666666,-486.4,-138.66666666666666
1631,-8.533333333333333,-486.4,-123.73333333333333
1632,-12.8,-482.1333333333333,-115.2
1633,-21.333333333333332,-477.8666666666667,-76.8
1634,-25.6,-448.0,-59.733333333333334
1635,-32.0,-422.4,-40.53333333333333
1636,-53.333333333333336,-407.46666666666664,-46.93333333333333
1637,-59.733333333333334,-424.5333333333333,-55.46666666666667
1638,-74.66666666666667,-430.93333333333334,-66.13333333333333
1639,-61.86666666666667,-452.26666666666665,-119.46666666666667
1640,-64.0,-450.1333333333333,-157.86666666666667
1641,-36.266666666666666,-486.4,-215.46666666666667
1642,12.8,-465.06666666666666,-253.86666666666667
1643,12.8,-413.8666666666667,-264.5333333333333
1644,36.266666666666666,-541.8666666666667,-339.2
1645,19.2,-369.06666666666666,-277.3333333333333
1646,32.0,-420.26666666666665,-379.73333333333335
1647,8.533333333333333,-392.5333333333333,-379.73333333333335
1648,29.866666666666667,-452.26666666666665,-420.26666666666665
1649,8.533333333333333,-454.4,-390.4
1650,74.66666666666667,-497.06666666666666,-445.8666666666667
1651,27.733333333333334,-482.1333333333333,-435.2
1652,61.86666666666667,-435.2,-443.73333333333335
1653,78.93333333333334,-439.46666666666664,-428.8
1654,36.266666666666666,-416.0,-413.8666666666667
1655,108.8,-497.06666666666666,-443.73333333333335
1656,44.8,-567.4666666666667,-448.0
1657,25.6,-503.46666666666664,-398.93333333333334
1658,57.6,-616.5333333333333,-430.93333333333334
1659,25.6,-678.4,-460.8
1660,-23.466666666666665,-652.8,-454.4
1661,6.4,-789.3333333333334,-550.4
1662,-21.333333333333332,-802.1333333333333,-494.93333333333334
1663,-57.6,-765.8666666666667,-494.93333333333334
1664,17.066666666666666,-817.0666666666666,-556.8
1665,8.533333333333333,-872.5333333333333,-578.1333333333333
1666,-49.06666666666666,-949.3333333333334,-597.3333333333334
1667,44.8,-802.1333333333333,-550.4
1668,12.8,-780.8,-573.8666666666667
1669,6.4,-908.8,-633.6
1670,55.46666666666667,-701.8666666666667,-616.5333333333333
1671,42.666666666666664,-689.0666666666666,-622.9333333333333
1672,27.733333333333334,-616.5333333333333,-556.8
1673,51.2,-608.0,-633.6
1674,40.53333333333333,-576.0,-605.8666666666667
1675,83.2,-507.73333333333335,-659.2
1676,49.06666666666666,-490.6666666666667,-650.6666666666666
1677,87.46666666666667,-422.4,-644.2666666666667
1678,59.733333333333334,-413.8666666666667,-637.8666666666667
1679,64.0,-405.3333333333333,-648.5333333333333
1680,59.733333333333334,-384.0,-631.4666666666667
1681,59.733333333333334,-381.8666666666667,-640.0
1682,64.0,-366.93333333333334,-642.1333333333333
1683,61.86666666666667,-379.73333333333335,-640.0
1684,74.66666666666667,-384.0,-646.4
1685,83.2,-373.3333333333333,-644.2666666666667
1686,76.8,-384.0,-633.6
1687,78.93333333333334,-405.3333333333333,-622.9333333333333
1688,87.46666666666667,-420.26666666666665,-605.8666666666667
1689,66.13333333333333,-441.59999999999997,-603.7333333333333
1690,66.13333333333333,-458.6666666666667,-616.5333333333333
1691,81.06666666666666,-484.26666666666665,-590.9333333333333
1692,83.2,-494.93333333333334,-601.6
1693,104.53333333333333,-492.8,-584.5333333333333
1694,83.2,-482.1333333333333,-605.8666666666667
1695,104.53333333333333,-473.59999999999997,-612.2666666666667
1696,74.66666666666667,-452.26666666666665,-622.9333333333333
1697,87.46666666666667,-454.4,-612.2666666666667
1698,59.733333333333334,-460.8,-593.0666666666666
1699,59.733333333333334,-456.5333333333333,-561.0666666666666
1700,51.2,-465.06666666666666,-565.3333333333334
1701,27.733333333333334,-443.73333333333335,-556.8
1702,14.933333333333334,-448.0,-535.4666666666667
1703,21.333333333333332,-452.26666666666665,-529.0666666666666
1704,6.4,-443.73333333333335,-520.5333333333333
1705,-12.8,-439.46666666666664,-514.1333333333333
1706,-21.333333333333332,-448.0,-524.8
1707,-19.2,-433.06666666666666,-518.4
1708,0.0,-458.6666666666667,-507.73333333333335
1709,8.533333333333333,-450.1333333333333,-499.2
1710,0.0,-462.93333333333334,-473.59999999999997
1711,14.933333333333334,-467.2,-467.2
1712,14.933333333333334,-469.3333333333333,-445.8666666666667
1713,23.466666666666665,-477.8666666666667,-416.0
1714,8.533333333333333,-501.3333333333333,-407.46666666666664
1715,2.1333333333333333,-514.1333333333333,-388.26666666666665
1716,2.1333333333333333,-526.9333333333333,-373.3333333333333
1717,8.533333333333333,-533.3333333333334,-366.93333333333334
1718,6.4,-529.0666666666666,-360.5333333333333
1719,0.0,-535.4666666666667,-375.46666666666664
1720,8.533333333333333,-539.7333333333333,-379.73333333333335
1721,10.666666666666666,-544.0,-390.4
1722,10.666666666666666,-554.6666666666666,-390.4
1723,6.4,-554.6666666666666,-394.6666666666667
1724,2.1333333333333333,-556.8,-396.8
1725,8.533333333333333,-563.2,-394.6666666666667
1726,-8.533333333333333,-571.7333333333333,-375.46666666666664
1727,-6.4,-582.4,-371.2
1728,-12.8,-601.6,-349.8666666666667
1729,-10.666666666666666,-605.8666666666667,-345.6
1730,-14.933333333333334,-620.8,-345.6
1731,-19.2,-633.6,-332.8
1732,-21.333333333333332,-640.0,-311.46666666666664
1733,-25.6,-644.2666666666667,-302.93333333333334
1734,-27.733333333333334,-654.9333333333333,-305.06666666666666
1735,-34.13333333333333,-657.0666666666666,-313.6
1736,-38.4,-652.8,-320.0
1737,-38.4,-654.9333333333333,-334.93333333333334
1738,-40.53333333333333,-642.1333333333333,-334.93333333333334
1739,-49.06666666666666,-629.3333333333334,-343.46666666666664
1740,-44.8,-620.8,-330.6666666666667
1741,-40.53333333333333,-603.7333333333333,-343.46666666666664
1742,-25.6,-582.4,-343.46666666666664
1743,-17.066666666666666,-571.7333333333333,-339.2
1744,-12.8,-552.5333333333333,-320.0
1745,4.266666666666667,-524.8,-328.5333333333333
1746,10.666666666666666,-501.3333333333333,-322.1333333333333
1747,25.6,-450.1333333333333,-315.73333333333335
1748,46.93333333333333,-413.8666666666667,-324.26666666666665
1749,70.4,-369.06666666666666,-315.73333333333335
1750,70.4,-334.93333333333334,-230.4
1751,74.66666666666667,-298.6666666666667,-211.2
1752,70.4,-275.2,-226.13333333333333
1753,72.53333333333333,-266.6666666666667,-238.93333333333334
1754,81.06666666666666,-253.86666666666667,-243.2
1755,85.33333333333333,-234.66666666666666,-238.93333333333334
1756,85.33333333333333,-224.0,-219.73333333333332
1757,81.06666666666666,-219.73333333333332,-206.93333333333334
1758,76.8,-211.2,-181.33333333333334
1759,81.06666666666666,-215.46666666666667,-168.53333333333333
1760,76.8,-209.06666666666666,-162.13333333333333
1761,70.4,-202.66666666666666,-147.2
1762,66.13333333333333,-181.33333333333334,-130.13333333333333
1763,66.13333333333333,-179.2,-113.06666666666666
1764,61.86666666666667,-172.8,-108.8
1765,61.86666666666667,-164.26666666666665,-102.4
1766,40.53333333333333,-149.33333333333334,-136.53333333333333
1767,59.733333333333334,-155.73333333333332,-93.86666666666666
1768,59.733333333333334,-149.33333333333334,-91.73333333333333
1769,51.2,-136.53333333333333,-100.26666666666667
1770,53.333333333333336,-130.13333333333333,-106.66666666666667
1771,53.333333333333336,-119.46666666666667,-119.46666666666667
1772,53.333333333333336,-110.93333333333334,-125.86666666666666
1773,51.2,-104.53333333333333,-132.26666666666665
1774,40.53333333333333,-100.26666666666667,-130.13333333333333
1775,40.53333333333333,-93.86666666666666,-132.26666666666665
1776,40.53333333333333,-91.73333333333333,-151.46666666666667
1777,44.8,-78.93333333333334,-162.13333333333333
1778,53.333333333333336,-89.6,-166.4
1779,49.06666666666666,-76.8,-196.26666666666665
1780,40.53333333333333,-74.66666666666667,-217.6
1781,46.93333333333333,-64.0,-219.73333333333332
1782,57.6,-59.733333333333334,-217.6
1783,55.46666666666667,-59.733333333333334,-236.79999999999998
1784,55.46666666666667,-59.733333333333334,-228.26666666666665
1785,42.666666666666664,-64.0,-230.4
1786,27.733333333333334,-49.06666666666666,-236.79999999999998
1787,25.6,-51.2,-243.2
1788,10.666666666666666,-55.46666666666667,-249.6
1789,17.066666666666666,-53.333333333333336,-251.73333333333332
1790,4.266666666666667,-72.53333333333333,-260.26666666666665
1791,-2.1333333333333333,-89.6,-268.8
1792,-19.2,-108.8,-288.0
1793,-23.466666666666665,-128.0,-298.6666666666667
1794,-25.6,-147.2,-302.93333333333334
1795,-25.6,-172.8,-307.2
1796,-25.6,-198.4,-300.8
1797,-42.666666666666664,-219.73333333333332,-296.5333333333333
1798,-40.53333333333333,-253.86666666666667,-281.6
1799,-44.8,-298.6666666666667,-268.8
1800,-49.06666666666666,-330.6666666666667,-258.1333333333333
1801,-42.666666666666664,-371.2,-245.33333333333334
1802,-46.93333333333333,-405.3333333333333,-243.2
1803,-44.8,-435.2,-224.0
1804,-59.733333333333334,-456.5333333333333,-230.4
1805,-55.46666666666667,-503.46666666666664,-232.53333333333333
1806,-51.2,-550.4,-256.0
1807,-36.266666666666666,-588.8,-268.8
1808,-25.6,-625.0666666666666,-296.5333333333333
1809,-23.466666666666665,-663.4666666666667,-328.5333333333333
1810,-12.8,-701.8666666666667,-358.4
1811,0.0,-727.4666666666667,-366.93333333333334
1812,23.466666666666665,-774.4,-388.26666666666665
1813,42.666666666666664,-821.3333333333334,-422.4
1814,44.8,-859.7333333333333,-428.8
1815,36.266666666666666,-881.0666666666666,-413.8666666666667
1816,25.6,-883.1999999999999,-360.5333333333333
1817,19.2,-870.4,-332.8
1818,19.2,-834.1333333333333,-309.3333333333333
1819,14.933333333333334,-776.5333333333333,-283.73333333333335
1820,2.1333333333333333,-708.2666666666667,-260.26666666666665
1821,-4.266666666666667,-631.4666666666667,-245.33333333333334
1822,-8.533333333333333,-556.8,-238.93333333333334
1823,-17.066666666666666,-484.26666666666665,-219.73333333333332
1824,-25.6,-416.0,-209.06666666666666
1825,-32.0,-369.06666666666666,-192.0
1826,-46.93333333333333,-317.8666666666667,-185.6
1827,-49.06666666666666,-283.73333333333335,-172.8
1828,-55.46666666666667,-249.6,-157.86666666666667
1829,-53.333333333333336,-226.13333333333333,-162.13333333333333
1830,-46.93333333333333,-226.13333333333333,-147.2
1831,-38.4,-238.93333333333334,-151.46666666666667
1832,-38.4,-260.26666666666665,-145.06666666666666
1833,-34.13333333333333,-279.46666666666664,-145.06666666666666
1834,-21.333333333333332,-320.0,-145.06666666666666
1835,-10.666666666666666,-362.6666666666667,-147.2
1836,0.0,-407.46666666666664,-140.8
1837,8.533333333333333,-445.8666666666667,-130.13333333333333
1838,14.933333333333334,-488.5333333333333,-134.4
1839,25.6,-533.3333333333334,-128.0
1840,32.0,-558.9333333333333,-130.13333333333333
1841,36.266666666666666,-588.8,-147.2
1842,27.733333333333334,-616.5333333333333,-153.6
1843,25.6,-631.4666666666667,-160.0
1844,27.733333333333334,-642.1333333333333,-172.8
1845,23.466666666666665,-652.8,-192.0
1846,27.733333333333334,-654.9333333333333,-189.86666666666667
1847,10.666666666666666,-650.6666666666666,-194.13333333333333
1848,4.266666666666667,-633.6,-185.6
1849,-4.266666666666667,-631.4666666666667,-185.6
1850,-8.533333333333333,-622.9333333333333,-194.13333333333333
1851,-8.533333333333333,-605.8666666666667,-196.26666666666665
1852,-14.933333333333334,-584.5333333333333,-209.06666666666666
1853,-19.2,-558.9333333333333,-213.33333333333334
1854,-19.2,-546.1333333333333,-213.33333333333334
1855,-17.066666666666666,-520.5333333333333,-219.73333333333332
1856,-14.933333333333334,-507.73333333333335,-215.46666666666667
1857,-8.533333333333333,-492.8,-215.46666666666667
1858,-4.266666666666667,-475.73333333333335,-211.2
1859,-2.1333333333333333,-477.8666666666667,-196.26666666666665
1860,2.1333333333333333,-462.93333333333334,-185.6
1861,2.1333333333333333,-465.06666666666666,-177.06666666666666
1862,8.533333333333333,-467.2,-166.4
1863,6.4,-465.06666666666666,-160.0
1864,17.066666666666666,-462.93333333333334,-166.4
1865,12.8,-473.59999999999997,-162.13333333333333
1866,14.933333333333334,-477.8666666666667,-164.26666666666665
1867,14.933333333333334,-473.59999999999997,-164.26666666666665
1868,19.2,-480.0,-172.8
1869,14.933333333333334,-488.5333333333333,-179.2
1870,14.933333333333334,-497.06666666666666,-183.46666666666667
1871,6.4,-497.06666666666666,-179.2
1872,-4.266666666666667,-501.3333333333333,-181.33333333333334
1873,-14.933333333333334,-514.1333333333333,-174.93333333333334
1874,-17.066666666666666,-516.2666666666667,-172.8
1875,-19.2,-520.5333333333333,-170.66666666666666
1876,-19.2,-529.0666666666666,-168.53333333333333
1877,-12.8,-539.7333333333333,-164.26666666666665
1878,-17.066666666666666,-541.8666666666667,-164.26666666666665
1879,-10.666666666666666,-548.2666666666667,-172.8
1880,-12.8,-548.2666666666667,-160.0
1881,-8.533333333333333,-550.4,-183.46666666666667
1882,-14.933333333333334,-539.7333333333333,-179.2
1883,-12.8,-535.4666666666667,-189.86666666666667
1884,-10.666666666666666,-529.0666666666666,-196.26666666666665
1885,-8.533333333333333,-529.0666666666666,-198.4
1886,10.666666666666666,-514.1333333333333,-183.46666666666667
1887,-8.533333333333333,-526.9333333333333,-211.2
1888,-17.066666666666666,-518.4,-185.6
1889,-21.333333333333332,-535.4666666666667,-194.13333333333333
1890,-14.933333333333334,-501.3333333333333,-204.8
1891,-17.066666666666666,-516.2666666666667,-189.86666666666667
1892,-23.466666666666665,-526.9333333333333,-217.6
1893,-21.333333333333332,-512.0,-202.66666666666666
1894,-14.933333333333334,-535.4666666666667,-213.33333333333334
1895,-6.4,-550.4,-209.06666666666666
1896,-2.1333333333333333,-548.2666666666667,-209.06666666666666
1897,-2.1333333333333333,-544.0,-209.06666666666666
1898,0.0,-539.7333333333333,-198.4
1899,0.0,-535.4666666666667,-202.66666666666666
1900,-4.266666666666667,-537.6,-209.06666666666666
1901,8.533333333333333,-541.8666666666667,-196.26666666666665
1902,6.4,-537.6,-200.53333333333333
1903,2.1333333333333333,-526.9333333333333,-194.13333333333333
1904,2.1333333333333333,-526.9333333333333,-204.8
1905,4.266666666666667,-526.9333333333333,-196.26666666666665
1906,6.4,-516.2666666666667,-187.73333333333332
1907,4.266666666666667,-520.5333333333333,-189.86666666666667
1908,2.1333333333333333,-520.5333333333333,-192.0
1909,2.1333333333333333,-518.4,-194.13333333333333
1910,4.266666666666667,-516.2666666666667,-196.26666666666665
1911,-4.266666666666667,-505.59999999999997,-202.66666666666666
1912,0.0,-509.8666666666667,-198.4
1913,-2.1333333333333333,-512.0,-187.73333333333332
1914,-6.4,-512.0,-187.73333333333332
1915,-8.533333333333333,-507.73333333333335,-192.0
1916,-6.4,-503.46666666666664,-192.0
1917,-12.8,-490.6666666666667,-196.26666666666665
1918,-14.933333333333334,-492.8,-194.13333333333333
1919,-17.066666666666666,-488.5333333333333,-198.4
1920,-8.533333333333333,-484.26666666666665,-198.4
1921,-17.066666666666666,-484.26666666666665,-206.93333333333334
1922,-19.2,-484.26666666666665,-211.2
1923,-19.2,-484.26666666666665,-194.13333333333333
1924,-21.333333333333332,-490.6666666666667,-204.8
1925,-21.333333333333332,-492.8,-211.2
1926,-12.8,-501.3333333333333,-209.06666666666666
1927,-23.466666666666665,-492.8,-211.2
1928,-12.8,-499.2,-213.33333333333334
1929,-14.933333333333334,-503.46666666666664,-213.33333333333334
1930,-12.8,-503.46666666666664,-217.6
1931,-17.066666666666666,-514.1333333333333,-215.46666666666667
1932,-12.8,-512.0,-217.6
1933,-10.666666666666666,-514.1333333333333,-206.93333333333334
1934,-10.666666666666666,-509.8666666666667,-217.6
1935,-4.266666666666667,-516.2666666666667,-215.46666666666667
1936,2.1333333333333333,-520.5333333333333,-213.33333333333334
1937,0.0,-518.4,-219.73333333333332
1938,-6.4,-518.4,-224.0
1939,-2.1333333333333333,-518.4,-209.06666666666666
1940,-2.1333333333333333,-518.4,-219.73333333333332
1941,-4.266666666666667,-514.1333333333333,-213.33333333333334
1942,-2.1333333333333333,-514.1333333333333,-217.6
1943,0.0,-516.2666666666667,-213.33333333333334
1944,0.0,-518.4,-209.06666666666666
1945,0.0,-512.0,-215.46666666666667
1946,0.0,-509.8666666666667,-221.86666666666667
1947,-2.1333333333333333,-501.3333333333333,-215.46666666666667
1948,-6.4,-503.46666666666664,-224.0
1949,-2.1333333333333333,-503.46666666666664,-215.46666666666667
1950,-2.1333333333333333,-503.46666666666664,-213.33333333333334
1951,-6.4,-503.46666666666664,-213.33333333333334
1952,-6.4,-505.59999999999997,-211.2
1953,4.266666666666667,-516.2666666666667,-211.2
1954,-10.666666666666666,-514.1333333333333,-204.8
1955,-6.4,-520.5333333333333,-209.06666666666666
1956,-2.1333333333333333,-520.5333333333333,-198.4
1957,-4.266666666666667,-524.8,-204.8
1958,-4.266666666666667,-520.5333333333333,-211.2
1959,-4.266666666666667,-520.5333333333333,-206.93333333333334
1960,-4.266666666666667,-509.8666666666667,-200.53333333333333
1961,0.0,-516.2666666666667,-209.06666666666666
1962,-4.266666666666667,-503.46666666666664,-217.6
1963,-4.266666666666667,-503.46666666666664,-215.46666666666667
1964,-6.4,-501.3333333333333,-213.33333333333334
1965,-4.266666666666667,-497.06666666666666,-209.06666666666666
1966,-2.1333333333333333,-501.3333333333333,-206.93333333333334
1967,-14.933333333333334,-499.2,-196.26666666666665
1968,-6.4,-503.46666666666664,-206.93333333333334
1969,-12.8,-501.3333333333333,-209.06666666666666
1970,-17.066666666666666,-501.3333333333333,-204.8
1971,-17.066666666666666,-507.73333333333335,-202.66666666666666
1972,-12.8,-509.8666666666667,-211.2
1973,-10.666666666666666,-518.4,-221.86666666666667
1974,-12.8,-514.1333333333333,-215.46666666666667
1975,-6.4,-520.5333333333333,-213.33333333333334
1976,-6.4,-526.9333333333333,-206.93333333333334
1977,-8.533333333333333,-522.6666666666666,-202.66666666666666
1978,-6.4,-531.2,-209.06666666666666
1979,-4.266666666666667,-526.9333333333333,-213.33333333333334
1980,-2.1333333333333333,-522.6666666666666,-215.46666666666667
1981,-4.266666666666667,-518.4,-213.33333333333334
1982,-4.266666666666667,-514.1333333333333,-209.06666666666666
1983,-6.4,-512.0,-209.06666666666666
1984,-12.8,-512.0,-211.2
1985,-12.8,-509.8666666666667,-211.2
1986,-8.533333333333333,-509.8666666666667,-209.06666666666666
1987,-4.266666666666667,-509.8666666666667,-209.06666666666666
1988,-2.1333333333333333,-507.73333333333335,-209.06666666666666
1989,-6.4,-501.3333333333333,-206.93333333333334
1990,-8.533333333333333,-503.46666666666664,-202.66666666666666
1991,-2.1333333333333333,-499.2,-202.66666666666666
1992,-6.4,-499.2,-200.53333333333333
1993,-6.4,-503.46666666666664,-206.93333333333334
1994,-8.533333333333333,-516.2666666666667,-200.53333333333333
1995,-17.066666666666666,-507.73333333333335,-202.66666666666666
1996,-12.8,-512.0,-202.66666666666666
1997,-14.933333333333334,-516.2666666666667,-209.06666666666666
1998,-19.2,-516.2666666666667,-215.46666666666667
1999,-19.2,-518.4,-206.93333333333334
2000,-14.933333333333334,-518.4,-213.33333333333334
2001,-8.533333333333333,-524.8,-211.2
2002,-14.933333333333334,-518.4,-215.46666666666667
2003,-14.933333333333334,-524.8,-219.73333333333332
2004,-6.4,-522.6666666666666,-213.33333333333334
2005,-8.533333333333333,-524.8,-221.86666666666667
2006,-6.4,-520.5333333333333,-213.33333333333334
2007,-10.666666666666666,-518.4,-217.6
2008,-14.933333333333334,-514.1333333333333,-217.6
2009,-2.1333333333333333,-520.5333333333333,-209.06666666666666
2010,-6.4,-516.2666666666667,-219.73333333333332
2011,-10.666666666666666,-514.1333333333333,-211.2
2012,-2.1333333333333333,-514.1333333333333,-213.33333333333334
2013,-6.4,-512.0,-206.93333333333334
2014,-2.1333333333333333,-518.4,-213.33333333333334
2015,-2.1333333333333333,-524.8,-215.46666666666667
2016,-2.1333333333333333,-516.2666666666667,-209.06666666666666
2017,-4.266666666666667,-518.4,-211.2
2018,-6.4,-509.8666666666667,-202.66666666666666
2019,-2.1333333333333333,-516.2666666666667,-209.06666666666666
2020,-6.4,-514.1333333333333,-217.6
2021,0.0,-507.73333333333335,-204.8
2022,0.0,-507.73333333333335,-213.33333333333334
2023,2.1333333333333333,-509.8666666666667,-215.46666666666667
2024,-2.1333333333333333,-507.73333333333335,-219.73333333333332
2025,-4.266666666666667,-505.59999999999997,-211.2
2026,0.0,-505.59999999999997,-206.93333333333334
2027,-2.1333333333333333,-494.93333333333334,-219.73333333333332
2028,2.1333333333333333,-501.3333333333333,-213.33333333333334
2029,-2.1333333333333333,-499.2,-206.93333333333334
2030,-4.266666666666667,-494.93333333333334,-204.8
2031,0.0,-501.3333333333333,-209.06666666666666
2032,-2.1333333333333333,-503.46666666666664,-215.46666666666667
2033,0.0,-501.3333333333333,-217.6
2034,-4.266666666666667,-503.46666666666664,-213.33333333333334
2035,-2.1333333333333333,-501.3333333333333,-219.73333333333332
2036,-10.666666666666666,-507.73333333333335,-215.46666666666667
2037,-4.266666666666667,-507.73333333333335,-224.0
2038,-4.266666666666667,-507.73333333333335,-215.46666666666667
2039,-10.666666666666666,-507.73333333333335,-211.2
2040,-2.1333333333333333,-507.73333333333335,-213.33333333333334
2041,-6.4,-514.1333333333333,-209.06666666666666
2042,-6.4,-520.5333333333333,-202.66666666666666
2043,2.1333333333333333,-518.4,-202.66666666666666
2044,-2.1333333333333333,-518.4,-213.33333333333334
2045,0.0,-522.6666666666666,-213.33333333333334
2046,4.266666666666667,-518.4,-209.06666666666666
2047,-6.4,-514.1333333333333,-206.93333333333334
2048,4.266666666666667,-524.8,-211.2
2049,4.266666666666667,-522.6666666666666,-209.06666666666666
2050,0.0,-518.4,-215.46666666666667
2051,4.266666666666667,-522.6666666666666,-211.2
2052,4.266666666666667,-520.5333333333333,-209.06666666666666
2053,0.0,-520.5333333333333,-213.33333333333334
2054,2.1333333333333333,-522.6666666666666,-209.06666666666666
2055,0.0,-522.6666666666666,-206.93333333333334
2056,2.1333333333333333,-522.6666666666666,-209.06666666666666
2057,6.4,-520.5333333333333,-211.2
2058,4.266666666666667,-514.1333333333333,-198.4
2059,2.1333333333333333,-514.1333333333333,-206.93333333333334
2060,4.266666666666667,-518.4,-206.93333333333334
2061,6.4,-518.4,-202.66666666666666
2062,8.533333333333333,-518.4,-206.93333333333334
2063,6.4,-516.2666666666667,-202.66666666666666
2064,2.1333333333333333,-507.73333333333335,-211.2
2065,4.266666666666667,-514.1333333333333,-213.33333333333334
2066,0.0,-512.0,-213.33333333333334
2067,4.266666666666667,-507.73333333333335,-213.33333333333334
2068,-6.4,-514.1333333333333,-213.33333333333334
2069,-6.4,-512.0,-211.2
2070,-8.533333333333333,-509.8666666666667,-217.6
2071,-6.4,-516.2666666666667,-206.93333333333334
2072,-6.4,-514.1333333333333,-206.93333333333334
2073,-8.533333333333333,-522.6666666666666,-209.06666666666666
2074,-8.533333333333333,-516.2666666666667,-204.8
2075,-8.533333333333333,-518.4,-202.66666666666666
2076,-8.533333333333333,-514.1333333333333,-213.33333333333334
2077,0.0,-518.4,-209.06666666666666
2078,-6.4,-512.0,-211.2
2079,-4.266666666666667,-516.2666666666667,-213.33333333333334
2080,4.266666666666667,-518.4,-213.33333333333334
2081,2.1333333333333333,-522.6666666666666,-217.6
2082,-4.266666666666667,-516.2666666666667,-213.33333333333334
2083,2.1333333333333333,-522.6666666666666,-213.33333333333334
2084,2.1333333333333333,-518.4,-209.06666666666666
2085,4.266666666666667,-518.4,-221.86666666666667
2086,8.533333333333333,-520.5333333333333,-204.8
2087,6.4,-522.6666666666666,-204.8
2088,8.533333333333333,-512.0,-211.2
2089,10.666666666666666,-514.1333333333333,-211.2
2090,10.666666666666666,-516.2666666666667,-206.93333333333334
2091,14.933333333333334,-512.0,-200.53333333333333
2092,14.933333333333334,-514.1333333333333,-202.66666666666666
2093,10.666666666666666,-507.73333333333335,-196.26666666666665
2094,4.266666666666667,-512.0,-198.4
2095,8.533333333333333,-516.2666666666667,-196.26666666666665
2096,6.4,-520.5333333333333,-200.53333333333333
2097,6.4,-522.6666666666666,-211.2
2098,4.266666666666667,-514.1333333333333,-204.8
2099,12.8,-520.5333333333333,-204.8
2100,2.1333333333333333,-516.2666666666667,-198.4
2101,8.533333333333333,-514.1333333333333,-200.53333333333333
2102,8.533333333333333,-520.5333333333333,-209.06666666666666
2103,8.533333333333333,-518.4,-204.8
2104,-2.1333333333333333,-512.0,-200.53333333333333
2105,2.1333333333333333,-520.5333333333333,-189.86666666666667
2106,8.533333333333333,-520.5333333333333,-206.93333333333334
2107,0.0,-509.8666666666667,-196.26666666666665
2108,0.0,-509.8666666666667,-200.53333333333333
2109,4.266666666666667,-509.8666666666667,-198.4
2110,2.1333333333333333,-514.1333333333333,-198.4
2111,0.0,-509.8666666666667,-202.66666666666666
2112,2.1333333333333333,-509.8666666666667,-196.26666666666665
2113,2.1333333333333333,-512.0,-200.53333333333333
2114,2.1333333333333333,-509.8666666666667,-211.2
2115,0.0,-512.0,-202.66666666666666
2116,2.1333333333333333,-509.8666666666667,-206.93333333333334
2117,2.1333333333333333,-509.8666666666667,-204.8
2118,-2.1333333333333333,-518.4,-206.93333333333334
2119,4.266666666666667,-518.4,-206.93333333333334
2120,2.1333333333333333,-514.1333333333333,-202.66666666666666
2121,0.0,-514.1333333333333,-194.13333333333333
2122,-4.266666666666667,-514.1333333333333,-202.66666666666666
2123,0.0,-518.4,-198.4
2124,2.1333333333333333,-514.1333333333333,-200.53333333333333
2125,8.533333333333333,-512.0,-211.2
2126,6.4,-516.2666666666667,-196.26666666666665
2127,0.0,-514.1333333333333,-194.13333333333333
2128,0.0,-514.1333333333333,-192.0
2129,-10.666666666666666,-512.0,-194.13333333333333
2130,-2.1333333333333333,-512.0,-202.66666666666666
2131,-2.1333333333333333,-512.0,-196.26666666666665
2132,-4.266666666666667,-516.2666666666667,-185.6
2133,4.266666666666667,-514.1333333333333,-189.86666666666667
2134,-2.1333333333333333,-509.8666666666667,-200.53333333333333
2135,0.0,-507.73333333333335,-200.53333333333333
2136,4.266666666666667,-509.8666666666667,-194.13333333333333
2137,0.0,-512.0,-198.4
2138,2.1333333333333333,-512.0,-194.13333333333333
2139,6.4,-509.8666666666667,-189.86666666666667
2140,0.0,-512.0,-189.86666666666667
2141,-2.1333333333333333,-512.0,-185.6
2142,-2.1333333333333333,-514.1333333333333,-196.26666666666665
2143,0.0,-529.0666666666666,-187.73333333333332
2144,2.1333333333333333,-531.2,-196.26666666666665
2145,2.1333333333333333,-535.4666666666667,-189.86666666666667
2146,2.1333333333333333,-539.7333333333333,-192.0
2147,0.0,-531.2,-196.26666666666665
2148,6.4,-535.4666666666667,-196.26666666666665
2149,10.666666666666666,-535.4666666666667,-200.53333333333333
2150,2.1333333333333333,-533.3333333333334,-202.66666666666666
2151,8.533333333333333,-535.4666666666667,-202.66666666666666
2152,6.4,-520.5333333333333,-198.4
2153,6.4,-524.8,-192.0
2154,8.533333333333333,-524.8,-204.8
2155,8.533333333333333,-524.8,-198.4
2156,4.266666666666667,-518.4,-198.4
2157,2.1333333333333333,-512.0,-192.0
2158,8.533333333333333,-516.2666666666667,-198.4
2159,0.0,-514.1333333333333,-192.0
2160,-2.1333333333333333,-512.0,-189.86666666666667
2161,-6.4,-509.8666666666667,-198.4
2162,4.266666666666667,-512.0,-202.66666666666666
2163,0.0,-509.8666666666667,-204.8
2164,-8.533333333333333,-512.0,-204.8
2165,4.266666666666667,-518.4,-204.8
2166,2.1333333333333333,-509.8666666666667,-198.4
2167,2.1333333333333333,-520.5333333333333,-202.66666666666666
2168,2.1333333333333333,-512.0,-204.8
2169,2.1333333333333333,-524.8,-189.86666666666667
2170,8.533333333333333,-524.8,-194.13333333333333
2171,2.1333333333333333,-522.6666666666666,-196.26666666666665
2172,0.0,-522.6666666666666,-200.53333333333333
2173,4.266666666666667,-524.8,-204.8
2174,4.266666666666667,-524.8,-192.0
2175,2.1333333333333333,-524.8,-196.26666666666665
2176,0.0,-526.9333333333333,-196.26666666666665
2177,0.0,-529.0666666666666,-194.13333333333333
2178,2.1333333333333333,-529.0666666666666,-202.66666666666666
2179,0.0,-531.2,-192.0
2180,-2.1333333333333333,-524.8,-194.13333333333333
2181,2.1333333333333333,-522.6666666666666,-198.4
2182,2.1333333333333333,-518.4,-198.4
2183,0.0,-520.5333333333333,-189.86666666666667
2184,0.0,-520.5333333333333,-196.26666666666665
2185,-2.1333333333333333,-518.4,-189.86666666666667
2186,4.266666666666667,-520.5333333333333,-189.86666666666667
2187,2.1333333333333333,-514.1333333333333,-194.13333333333333
2188,2.1333333333333333,-507.73333333333335,-187.73333333333332
2189,2.1333333333333333,-505.59999999999997,-185.6
2190,-2.1333333333333333,-499.2,-187.73333333333332
2191,0.0,-499.2,-181.33333333333334
2192,2.1333333333333333,-501.3333333333333,-181.33333333333334
2193,-4.266666666666667,-501.3333333333333,-187.73333333333332
2194,-6.4,-507.73333333333335,-192.0
2195,-8.533333333333333,-497.06666666666666,-179.2
2196,-2.1333333333333333,-501.3333333333333,-192.0
2197,-6.4,-503.46666666666664,-194.13333333333333
2198,-2.1333333333333333,-514.1333333333333,-183.46666666666667
2199,-4.266666666666667,-509.8666666666667,-183.46666666666667
2200,-6.4,-514.1333333333333,-181.33333333333334
2201,2.1333333333333333,-522.6666666666666,-183.46666666666667
2202,0.0,-518.4,-187.73333333333332
2203,0.0,-520.5333333333333,-181.33333333333334
2204,-6.4,-520.5333333333333,-189.86666666666667
2205,0.0,-522.6666666666666,-185.6
2206,-2.1333333333333333,-518.4,-185.6
2207,4.266666666666667,-524.8,-181.33333333333334
2208,6.4,-524.8,-185.6
2209,4.266666666666667,-518.4,-185.6
2210,10.666666666666666,-526.9333333333333,-183.46666666666667
2211,0.0,-522.6666666666666,-185.6
2212,2.1333333333333333,-529.0666666666666,-185.6
2213,0.0,-524.8,-183.46666666666667
2214,0.0,-526.9333333333333,-172.8
2215,0.0,-524.8,-179.2
2216,6.4,-526.9333333333333,-177.06666666666666
2217,4.266666666666667,-522.6666666666666,-179.2
2218,-2.1333333333333333,-529.0666666666666,-185.6
2219,8.533333333333333,-529.0666666666666,-189.86666666666667
2220,4.266666666666667,-518.4,-189.86666666666667
2221,4.266666666666667,-516.2666666666667,-196.26666666666665
2222,-4.266666666666667,-518.4,-194.13333333333333
2223,2.1333333333333333,-516.2666666666667,-192.0
2224,2.1333333333333333,-512.0,-194.13333333333333
2225,4.266666666666667,-518.4,-187.73333333333332
2226,2.1333333333333333,-514.1333333333333,-198.4
2227,0.0,-516.2666666666667,-194.13333333333333
2228,4.266666666666667,-514.1333333333333,-192.0
2229,4.266666666666667,-522.6666666666666,-187.73333333333332
2230,2.1333333333333333,-524.8,-187.73333333333332
2231,2.1333333333333333,-524.8,-185.6
2232,0.0,-520.5333333333333,-179.2
2233,8.533333333333333,-516.2666666666667,-181.33333333333334
2234,12.8,-518.4,-183.46666666666667
2235,4.266666666666667,-514.1333333333333,-177.06666666666666
2236,6.4,-514.1333333333333,-189.86666666666667
2237,6.4,-512.0,-189.86666666666667
2238,10.666666666666666,-516.2666666666667,-192.0
2239,4.266666666666667,-505.59999999999997,-189.86666666666667
2240,0.0,-507.73333333333335,-181.33333333333334
2241,6.4,-516.2666666666667,-174.93333333333334
2242,6.4,-512.0,-196.26666666666665
2243,6.4,-518.4,-187.73333333333332
2244,14.933333333333334,-518.4,-189.86666666666667
2245,4.266666666666667,-512.0,-198.4
2246,6.4,-512.0,-189.86666666666667
2247,2.1333333333333333,-518.4,-194.13333333333333
2248,4.266666666666667,-514.1333333333333,-194.13333333333333
2249,6.4,-520.5333333333333,-202.66666666666666
2250,-2.1333333333333333,-514.1333333333333,-189.86666666666667
2251,-2.1333333333333333,-518.4,-185.6
2252,4.266666666666667,-518.4,-185.6
2253,2.1333333333333333,-516.2666666666667,-174.93333333333334
2254,2.1333333333333333,-514.1333333333333,-189.86666666666667
2255,2.1333333333333333,-514.1333333333333,-198.4
2256,-2.1333333333333333,-518.4,-196.26666666666665
2257,2.1333333333333333,-516.2666666666667,-206.93333333333334
2258,-2.1333333333333333,-518.4,-200.53333333333333
2259,-2.1333333333333333,-518.4,-204.8
2260,-4.266666666666667,-516.2666666666667,-209.06666666666666
2261,-4.266666666666667,-514.1333333333333,-198.4
2262,-4.266666666666667,-520.5333333333333,-200.53333333333333
2263,-6.4,-520.5333333333333,-198.4
2264,6.4,-524.8,-196.26666666666665
2265,2.1333333333333333,-526.9333333333333,-206.93333333333334
2266,4.266666666666667,-520.5333333333333,-200.53333333333333
2267,2.1333333333333333,-524.8,-198.4
2268,8.533333333333333,-520.5333333333333,-194.13333333333333
2269,4.266666666666667,-522.6666666666666,-200.53333333333333
2270,4.266666666666667,-516.2666666666667,-198.4
2271,8.533333333333333,-514.1333333333333,-192.0
2272,2.1333333333333333,-512.0,-196.26666666666665
2273,8.533333333333333,-522.6666666666666,-189.86666666666667
2274,6.4,-512.0,-189.86666666666667
2275,2.1333333333333333,-516.2666666666667,-192.0
2276,0.0,-514.1333333333333,-198.4
2277,0.0,-509.8666666666667,-192.0
2278,2.1333333333333333,-512.0,-187.73333333333332
2279,2.1333333333333333,-512.0,-200.53333333333333
2280,2.1333333333333333,-514.1333333333333,-192.0
2281,8.533333333333333,-518.4,-202.66666666666666
2282,2.1333333333333333,-516.2666666666667,-202.66666666666666
2283,2.1333333333333333,-518.4,-202.66666666666666
2284,0.0,-514.1333333333333,-196.26666666666665
2285,0.0,-518.4,-194.13333333333333
2286,-6.4,-518.4,-202.66666666666666
2287,6.4,-524.8,-194.13333333333333
2288,2.1333333333333333,-516.2666666666667,-198.4
2289,4.266666666666667,-518.4,-198.4
2290,2.1333333333333333,-512.0,-198.4
2291,4.266666666666667,-512.0,-189.86666666666667
2292,-2.1333333333333333,-518.4,-200.53333333333333
2293,-2.1333333333333333,-507.73333333333335,-194.13333333333333
2294,0.0,-514.1333333333333,-194.13333333333333
2295,0.0,-509.8666666666667,-185.6
2296,0.0,-507.73333333333335,-185.6
2297,2.1333333333333333,-509.8666666666667,-192.0
2298,4.266666666666667,-505.59999999999997,-189.86666666666667
2299,2.1333333333333333,-518.4,-181.33333333333334
2300,2.1333333333333333,-514.1333333333333,-194.13333333333333
2301,0.0,-516.2666666666667,-187.73333333333332
2302,6.4,-520.5333333333333,-200.53333333333333
2303,4.266666666666667,-518.4,-187.73333333333332
2304,6.4,-524.8,-194.13333333333333
2305,4.266666666666667,-522.6666666666666,-198.4
2306,4.266666666666667,-520.5333333333333,-206.93333333333334
2307,2.1333333333333333,-522.6666666666666,-200.53333333333333
2308,2.1333333333333333,-526.9333333333333,-198.4
2309,2.1333333333333333,-524.8,-202.66666666666666
2310,6.4,-526.9333333333333,-200.53333333333333
2311,2.1333333333333333,-522.6666666666666,-192.0
2312,0.0,-520.5333333333333,-204.8
2313,0.0,-522.6666666666666,-194.13333333333333
2314,4.266666666666667,-524.8,-200.53333333333333
2315,4.266666666666667,-526.9333333333333,-198.4
2316,-6.4,-518.4,-198.4
2317,2.1333333333333333,-520.5333333333333,-196.26666666666665
2318,8.533333333333333,-520.5333333333333,-202.66666666666666
2319,19.2,-509.8666666666667,-198.4
2320,2.1333333333333333,-518.4,-224.0
2321,-8.533333333333333,-512.0,-198.4
2322,8.533333333333333,-520.5333333333333,-194.13333333333333
2323,-12.8,-512.0,-200.53333333333333
2324,4.266666666666667,-499.2,-198.4
2325,4.266666666666667,-529.0666666666666,-211.2
2326,0.0,-520.5333333333333,-211.2
2327,23.466666666666665,-514.1333333333333,-164.26666666666665
2328,-10.666666666666666,-514.1333333333333,-206.93333333333334
2329,2.1333333333333333,-518.4,-206.93333333333334
2330,-2.1333333333333333,-522.6666666666666,-202.66666666666666
2331,-2.1333333333333333,-509.8666666666667,-198.4
2332,4.266666666666667,-518.4,-196.26666666666665
2333,-2.1333333333333333,-514.1333333333333,-200.53333333333333
2334,0.0,-516.2666666666667,-204.8
2335,0.0,-514.1333333333333,-198.4
2336,0.0,-512.0,-200.53333333333333
2337,-2.1333333333333333,-509.8666666666667,-200.53333333333333
2338,0.0,-512.0,-206.93333333333334
2339,0.0,-518.4,-198.4
2340,4.266666666666667,-514.1333333333333,-200.53333333333333
2341,2.1333333333333333,-512.0,-198.4
2342,4.266666666666667,-512.0,-200.53333333333333
2343,2.1333333333333333,-512.0,-200.53333333333333
2344,-2.1333333333333333,-514.1333333333333,-206.93333333333334
2345,-6.4,-507.73333333333335,-202.66666666666666
2346,-2.1333333333333333,-514.1333333333333,-194.13333333333333
2347,-8.533333333333333,-516.2666666666667,-200.53333333333333
2348,-8.533333333333333,-507.73333333333335,-204.8
2349,-6.4,-512.0,-206.93333333333334
2350,4.266666666666667,-518.4,-204.8
2351,-2.1333333333333333,-516.2666666666667,-198.4
2352,0.0,-520.5333333333333,-202.66666666666666
2353,0.0,-509.8666666666667,-206.93333333333334
2354,0.0,-518.4,-204.8
2355,2.1333333333333333,-518.4,-202.66666666666666
2356,-4.266666666666667,-518.4,-198.4
2357,0.0,-514.1333333333333,-211.2
2358,4.266666666666667,-518.4,-194.13333333333333
2359,6.4,-514.1333333333333,-202.66666666666666
2360,0.0,-514.1333333333333,-202.66666666666666
2361,-2.1333333333333333,-518.4,-194.13333333333333
2362,2.1333333333333333,-509.8666666666667,-185.6
2363,4.266666666666667,-520.5333333333333,-204.8
2364,0.0,-514.1333333333333,-196.26666666666665
2365,4.266666666666667,-518.4,-198.4
2366,0.0,-516.2666666666667,-189.86666666666667
2367,-2.1333333333333333,-514.1333333333333,-198.4
2368,4.266666666666667,-509.8666666666667,-202.66666666666666
2369,10.666666666666666,-514.1333333333333,-198.4
2370,8.533333333333333,-516.2666666666667,-200.53333333333333
2371,0.0,-516.2666666666667,-202.66666666666666
2372,4.266666666666667,-514.1333333333333,-198.4
2373,2.1333333333333333,-514.1333333333333,-198.4
2374,2.1333333333333333,-516.2666666666667,-198.4
2375,0.0,-518.4,-196.26666666666665
2376,0.0,-516.2666666666667,-196.26666666666665
2377,2.1333333333333333,-512.0,-189.86666666666667
2378,6.4,-512.0,-192.0
2379,6.4,-518.4,-198.4
2380,6.4,-520.5333333333333,-185.6
2381,6.4,-522.6666666666666,-196.26666666666665
2382,2.1333333333333333,-524.8,-189.86666666666667
2383,6.4,-520.5333333333333,-192.0
2384,0.0,-526.9333333333333,-187.73333333333332
2385,4.266666666666667,-526.9333333333333,-194.13333333333333
2386,2.1333333333333333,-522.6666666666666,-196.26666666666665
2387,-2.1333333333333333,-518.4,-200.53333333333333
2388,6.4,-520.5333333333333,-206.93333333333334
2389,6.4,-520.5333333333333,-202.66666666666666
2390,2.1333333333333333,-522.6666666666666,-200.53333333333333
2391,8.533333333333333,-512.0,-194.13333333333333
2392,4.266666666666667,-516.2666666666667,-198.4
2393,4.266666666666667,-518.4,-194.13333333333333
2394,-2.1333333333333333,-509.8666666666667,-200.53333333333333
2395,2.1333333333333333,-514.1333333333333,-196.26666666666665
2396,4.266666666666667,-514.1333333333333,-183.46666666666667
2397,-2.1333333333333333,-512.0,-196.26666666666665
