,accelerometerAccelerationX(G),accelerometerAccelerationY(G),accelerometerAccelerationZ(G)
0,66.13333333333333,-450.1333333333333,266.6666666666667
1,64.0,-452.26666666666665,273.06666666666666
2,68.26666666666667,-450.1333333333333,266.6666666666667
3,68.26666666666667,-450.1333333333333,273.06666666666666
4,66.13333333333333,-452.26666666666665,270.93333333333334
5,64.0,-473.59999999999997,260.26666666666665
6,61.86666666666667,-452.26666666666665,270.93333333333334
7,66.13333333333333,-454.4,266.6666666666667
8,64.0,-454.4,264.5333333333333
9,68.26666666666667,-454.4,268.8
10,68.26666666666667,-456.5333333333333,273.06666666666666
11,66.13333333333333,-448.0,273.06666666666666
12,68.26666666666667,-452.26666666666665,270.93333333333334
13,68.26666666666667,-445.8666666666667,266.6666666666667
14,59.733333333333334,-448.0,262.4
15,59.733333333333334,-462.93333333333334,273.06666666666666
16,59.733333333333334,-445.8666666666667,273.06666666666666
17,61.86666666666667,-448.0,273.06666666666666
18,61.86666666666667,-445.8666666666667,270.93333333333334
19,59.733333333333334,-445.8666666666667,273.06666666666666
20,61.86666666666667,-445.8666666666667,273.06666666666666
21,57.6,-441.59999999999997,266.6666666666667
22,61.86666666666667,-439.46666666666664,268.8
23,53.333333333333336,-437.3333333333333,273.06666666666666
24,49.06666666666666,-428.8,273.06666666666666
25,57.6,-441.59999999999997,275.2
26,68.26666666666667,-441.59999999999997,285.8666666666667
27,49.06666666666666,-443.73333333333335,277.3333333333333
28,51.2,-443.73333333333335,275.2
29,51.2,-448.0,270.93333333333334
30,53.333333333333336,-450.1333333333333,275.2
31,49.06666666666666,-452.26666666666665,266.6666666666667
32,51.2,-452.26666666666665,268.8
33,46.93333333333333,-452.26666666666665,266.6666666666667
34,46.93333333333333,-445.8666666666667,273.06666666666666
35,49.06666666666666,-448.0,275.2
36,59.733333333333334,-445.8666666666667,262.4
37,51.2,-456.5333333333333,264.5333333333333
38,61.86666666666667,-452.26666666666665,273.06666666666666
39,51.2,-452.26666666666665,266.6666666666667
40,55.46666666666667,-448.0,270.93333333333334
41,57.6,-441.59999999999997,264.5333333333333
42,59.733333333333334,-450.1333333333333,273.06666666666666
43,57.6,-443.73333333333335,268.8
44,68.26666666666667,-452.26666666666665,270.93333333333334
45,70.4,-452.26666666666665,273.06666666666666
46,72.53333333333333,-456.5333333333333,275.2
47,72.53333333333333,-445.8666666666667,266.6666666666667
48,57.6,-450.1333333333333,275.2
49,74.66666666666667,-454.4,270.93333333333334
50,74.66666666666667,-454.4,275.2
51,61.86666666666667,-456.5333333333333,270.93333333333334
52,72.53333333333333,-456.5333333333333,270.93333333333334
53,72.53333333333333,-460.8,273.06666666666666
54,64.0,-456.5333333333333,275.2
55,72.53333333333333,-454.4,270.93333333333334
56,70.4,-458.6666666666667,260.26666666666665
57,66.13333333333333,-454.4,270.93333333333334
58,68.26666666666667,-445.8666666666667,262.4
59,64.0,-452.26666666666665,268.8
60,66.13333333333333,-452.26666666666665,273.06666666666666
61,68.26666666666667,-439.46666666666664,270.93333333333334
62,68.26666666666667,-433.06666666666666,270.93333333333334
63,72.53333333333333,-437.3333333333333,266.6666666666667
64,66.13333333333333,-437.3333333333333,270.93333333333334
65,64.0,-439.46666666666664,275.2
66,59.733333333333334,-437.3333333333333,270.93333333333334
67,66.13333333333333,-437.3333333333333,268.8
68,72.53333333333333,-445.8666666666667,275.2
69,68.26666666666667,-439.46666666666664,273.06666666666666
70,53.333333333333336,-456.5333333333333,273.06666666666666
71,57.6,-448.0,268.8
72,46.93333333333333,-452.26666666666665,270.93333333333334
73,44.8,-443.73333333333335,275.2
74,51.2,-450.1333333333333,279.46666666666664
75,46.93333333333333,-448.0,277.3333333333333
76,40.53333333333333,-445.8666666666667,266.6666666666667
77,36.266666666666666,-445.8666666666667,270.93333333333334
78,46.93333333333333,-450.1333333333333,275.2
79,46.93333333333333,-452.26666666666665,270.93333333333334
80,38.4,-450.1333333333333,266.6666666666667
81,59.733333333333334,-443.73333333333335,264.5333333333333
82,53.333333333333336,-452.26666666666665,270.93333333333334
83,44.8,-441.59999999999997,266.6666666666667
84,51.2,-450.1333333333333,268.8
85,53.333333333333336,-450.1333333333333,273.06666666666666
86,59.733333333333334,-448.0,268.8
87,57.6,-445.8666666666667,279.46666666666664
88,57.6,-443.73333333333335,270.93333333333334
89,64.0,-450.1333333333333,266.6666666666667
90,53.333333333333336,-443.73333333333335,270.93333333333334
91,57.6,-443.73333333333335,277.3333333333333
92,49.06666666666666,-445.8666666666667,268.8
93,59.733333333333334,-439.46666666666664,273.06666666666666
94,61.86666666666667,-450.1333333333333,264.5333333333333
95,66.13333333333333,-448.0,273.06666666666666
96,64.0,-448.0,268.8
97,59.733333333333334,-450.1333333333333,264.5333333333333
98,59.733333333333334,-448.0,275.2
99,57.6,-443.73333333333335,264.5333333333333
100,64.0,-448.0,268.8
101,66.13333333333333,-450.1333333333333,275.2
102,68.26666666666667,-445.8666666666667,273.06666666666666
103,74.66666666666667,-458.6666666666667,262.4
104,61.86666666666667,-443.73333333333335,268.8
105,59.733333333333334,-439.46666666666664,277.3333333333333
106,57.6,-441.59999999999997,273.06666666666666
107,64.0,-443.73333333333335,275.2
108,61.86666666666667,-443.73333333333335,262.4
109,64.0,-441.59999999999997,264.5333333333333
110,66.13333333333333,-452.26666666666665,266.6666666666667
111,66.13333333333333,-452.26666666666665,273.06666666666666
112,55.46666666666667,-445.8666666666667,268.8
113,72.53333333333333,-456.5333333333333,264.5333333333333
114,57.6,-443.73333333333335,268.8
115,53.333333333333336,-439.46666666666664,270.93333333333334
116,59.733333333333334,-445.8666666666667,277.3333333333333
117,59.733333333333334,-443.73333333333335,277.3333333333333
118,64.0,-448.0,270.93333333333334
119,59.733333333333334,-443.73333333333335,275.2
120,64.0,-441.59999999999997,275.2
121,53.333333333333336,-441.59999999999997,270.93333333333334
122,57.6,-439.46666666666664,270.93333333333334
123,64.0,-443.73333333333335,277.3333333333333
124,49.06666666666666,-439.46666666666664,275.2
125,59.733333333333334,-445.8666666666667,275.2
126,66.13333333333333,-445.8666666666667,273.06666666666666
127,57.6,-448.0,281.6
128,55.46666666666667,-448.0,273.06666666666666
129,59.733333333333334,-452.26666666666665,273.06666666666666
130,55.46666666666667,-450.1333333333333,275.2
131,66.13333333333333,-452.26666666666665,266.6666666666667
132,55.46666666666667,-462.93333333333334,275.2
133,55.46666666666667,-458.6666666666667,270.93333333333334
134,53.333333333333336,-450.1333333333333,270.93333333333334
135,49.06666666666666,-450.1333333333333,264.5333333333333
136,64.0,-460.8,279.46666666666664
137,55.46666666666667,-454.4,273.06666666666666
138,57.6,-452.26666666666665,273.06666666666666
139,55.46666666666667,-450.1333333333333,268.8
140,55.46666666666667,-448.0,273.06666666666666
141,55.46666666666667,-450.1333333333333,266.6666666666667
142,57.6,-452.26666666666665,270.93333333333334
143,55.46666666666667,-448.0,260.26666666666665
144,55.46666666666667,-445.8666666666667,266.6666666666667
145,55.46666666666667,-445.8666666666667,268.8
146,53.333333333333336,-445.8666666666667,270.93333333333334
147,55.46666666666667,-445.8666666666667,266.6666666666667
148,57.6,-454.4,266.6666666666667
149,59.733333333333334,-448.0,264.5333333333333
150,55.46666666666667,-448.0,270.93333333333334
151,57.6,-441.59999999999997,268.8
152,59.733333333333334,-445.8666666666667,273.06666666666666
153,61.86666666666667,-448.0,273.06666666666666
154,57.6,-450.1333333333333,277.3333333333333
155,51.2,-441.59999999999997,264.5333333333333
156,61.86666666666667,-448.0,270.93333333333334
157,57.6,-448.0,270.93333333333334
158,53.333333333333336,-448.0,270.93333333333334
159,61.86666666666667,-445.8666666666667,270.93333333333334
160,64.0,-448.0,273.06666666666666
161,61.86666666666667,-450.1333333333333,273.06666666666666
162,68.26666666666667,-450.1333333333333,266.6666666666667
163,61.86666666666667,-443.73333333333335,266.6666666666667
164,61.86666666666667,-448.0,268.8
165,57.6,-448.0,275.2
166,68.26666666666667,-452.26666666666665,273.06666666666666
167,55.46666666666667,-448.0,275.2
168,53.333333333333336,-443.73333333333335,251.73333333333332
169,66.13333333333333,-448.0,268.8
170,70.4,-448.0,262.4
171,66.13333333333333,-450.1333333333333,262.4
172,64.0,-448.0,268.8
173,57.6,-445.8666666666667,258.1333333333333
174,68.26666666666667,-448.0,270.93333333333334
175,61.86666666666667,-452.26666666666665,266.6666666666667
176,64.0,-458.6666666666667,264.5333333333333
177,64.0,-456.5333333333333,266.6666666666667
178,57.6,-454.4,268.8
179,66.13333333333333,-460.8,268.8
180,57.6,-454.4,266.6666666666667
181,53.333333333333336,-450.1333333333333,262.4
182,59.733333333333334,-452.26666666666665,268.8
183,55.46666666666667,-450.1333333333333,270.93333333333334
184,53.333333333333336,-443.73333333333335,264.5333333333333
185,55.46666666666667,-454.4,266.6666666666667
186,55.46666666666667,-443.73333333333335,266.6666666666667
187,57.6,-456.5333333333333,262.4
188,59.733333333333334,-452.26666666666665,273.06666666666666
189,59.733333333333334,-445.8666666666667,273.06666666666666
190,51.2,-448.0,260.26666666666665
191,57.6,-443.73333333333335,264.5333333333333
192,57.6,-448.0,275.2
193,61.86666666666667,-443.73333333333335,266.6666666666667
194,64.0,-450.1333333333333,270.93333333333334
195,64.0,-450.1333333333333,266.6666666666667
196,59.733333333333334,-448.0,266.6666666666667
197,59.733333333333334,-452.26666666666665,266.6666666666667
198,68.26666666666667,-456.5333333333333,260.26666666666665
199,66.13333333333333,-458.6666666666667,270.93333333333334
200,59.733333333333334,-456.5333333333333,264.5333333333333
201,64.0,-443.73333333333335,260.26666666666665
202,57.6,-452.26666666666665,258.1333333333333
203,61.86666666666667,-452.26666666666665,262.4
204,55.46666666666667,-450.1333333333333,262.4
205,53.333333333333336,-448.0,270.93333333333334
206,57.6,-450.1333333333333,268.8
207,57.6,-452.26666666666665,266.6666666666667
208,64.0,-452.26666666666665,270.93333333333334
209,64.0,-452.26666666666665,270.93333333333334
210,51.2,-445.8666666666667,273.06666666666666
211,57.6,-450.1333333333333,256.0
212,57.6,-445.8666666666667,262.4
213,55.46666666666667,-450.1333333333333,268.8
214,57.6,-450.1333333333333,264.5333333333333
215,57.6,-452.26666666666665,266.6666666666667
216,61.86666666666667,-445.8666666666667,275.2
217,59.733333333333334,-452.26666666666665,268.8
218,55.46666666666667,-445.8666666666667,268.8
219,51.2,-445.8666666666667,260.26666666666665
220,55.46666666666667,-443.73333333333335,270.93333333333334
221,55.46666666666667,-445.8666666666667,262.4
222,59.733333333333334,-456.5333333333333,266.6666666666667
223,53.333333333333336,-448.0,264.5333333333333
224,61.86666666666667,-452.26666666666665,270.93333333333334
225,59.733333333333334,-450.1333333333333,262.4
226,61.86666666666667,-458.6666666666667,273.06666666666666
227,61.86666666666667,-454.4,270.93333333333334
228,61.86666666666667,-456.5333333333333,258.1333333333333
229,66.13333333333333,-454.4,266.6666666666667
230,57.6,-456.5333333333333,258.1333333333333
231,61.86666666666667,-454.4,253.86666666666667
232,57.6,-460.8,260.26666666666665
233,55.46666666666667,-465.06666666666666,251.73333333333332
234,55.46666666666667,-445.8666666666667,258.1333333333333
235,59.733333333333334,-458.6666666666667,258.1333333333333
236,59.733333333333334,-454.4,260.26666666666665
237,64.0,-456.5333333333333,258.1333333333333
238,57.6,-450.1333333333333,266.6666666666667
239,59.733333333333334,-450.1333333333333,262.4
240,64.0,-456.5333333333333,264.5333333333333
241,64.0,-452.26666666666665,258.1333333333333
242,59.733333333333334,-445.8666666666667,258.1333333333333
243,61.86666666666667,-454.4,273.06666666666666
244,59.733333333333334,-454.4,268.8
245,59.733333333333334,-452.26666666666665,262.4
246,57.6,-456.5333333333333,266.6666666666667
247,61.86666666666667,-456.5333333333333,266.6666666666667
248,61.86666666666667,-460.8,264.5333333333333
249,57.6,-454.4,260.26666666666665
250,59.733333333333334,-458.6666666666667,264.5333333333333
251,66.13333333333333,-450.1333333333333,270.93333333333334
252,68.26666666666667,-460.8,262.4
253,46.93333333333333,-450.1333333333333,258.1333333333333
254,53.333333333333336,-458.6666666666667,256.0
255,51.2,-439.46666666666664,258.1333333333333
256,55.46666666666667,-452.26666666666665,264.5333333333333
257,57.6,-460.8,266.6666666666667
258,59.733333333333334,-450.1333333333333,258.1333333333333
259,61.86666666666667,-454.4,264.5333333333333
260,53.333333333333336,-454.4,264.5333333333333
261,57.6,-456.5333333333333,268.8
262,59.733333333333334,-458.6666666666667,262.4
263,53.333333333333336,-456.5333333333333,266.6666666666667
264,57.6,-452.26666666666665,258.1333333333333
265,55.46666666666667,-458.6666666666667,256.0
266,70.4,-469.3333333333333,256.0
267,51.2,-458.6666666666667,260.26666666666665
268,59.733333333333334,-458.6666666666667,258.1333333333333
269,55.46666666666667,-460.8,262.4
270,55.46666666666667,-445.8666666666667,262.4
271,55.46666666666667,-452.26666666666665,260.26666666666665
272,61.86666666666667,-456.5333333333333,266.6666666666667
273,53.333333333333336,-454.4,258.1333333333333
274,64.0,-454.4,258.1333333333333
275,55.46666666666667,-456.5333333333333,260.26666666666665
276,64.0,-450.1333333333333,258.1333333333333
277,57.6,-456.5333333333333,258.1333333333333
278,57.6,-452.26666666666665,262.4
279,61.86666666666667,-452.26666666666665,258.1333333333333
280,57.6,-454.4,268.8
281,59.733333333333334,-456.5333333333333,258.1333333333333
282,61.86666666666667,-456.5333333333333,266.6666666666667
283,61.86666666666667,-454.4,266.6666666666667
284,53.333333333333336,-445.8666666666667,264.5333333333333
285,64.0,-452.26666666666665,264.5333333333333
286,66.13333333333333,-456.5333333333333,262.4
287,61.86666666666667,-458.6666666666667,260.26666666666665
288,59.733333333333334,-448.0,270.93333333333334
289,53.333333333333336,-452.26666666666665,264.5333333333333
290,66.13333333333333,-450.1333333333333,260.26666666666665
291,57.6,-452.26666666666665,258.1333333333333
292,53.333333333333336,-452.26666666666665,262.4
293,57.6,-450.1333333333333,258.1333333333333
294,61.86666666666667,-448.0,260.26666666666665
295,66.13333333333333,-456.5333333333333,262.4
296,55.46666666666667,-448.0,260.26666666666665
297,49.06666666666666,-452.26666666666665,251.73333333333332
298,59.733333333333334,-458.6666666666667,253.86666666666667
299,53.333333333333336,-445.8666666666667,256.0
300,55.46666666666667,-452.26666666666665,260.26666666666665
301,59.733333333333334,-456.5333333333333,262.4
302,53.333333333333336,-448.0,268.8
303,61.86666666666667,-454.4,268.8
304,49.06666666666666,-458.6666666666667,260.26666666666665
305,53.333333333333336,-450.1333333333333,264.5333333333333
306,51.2,-450.1333333333333,264.5333333333333
307,57.6,-450.1333333333333,256.0
308,51.2,-448.0,275.2
309,59.733333333333334,-452.26666666666665,253.86666666666667
310,55.46666666666667,-454.4,247.46666666666667
311,53.333333333333336,-456.5333333333333,264.5333333333333
312,57.6,-452.26666666666665,258.1333333333333
313,55.46666666666667,-456.5333333333333,264.5333333333333
314,57.6,-454.4,262.4
315,59.733333333333334,-456.5333333333333,266.6666666666667
316,51.2,-454.4,253.86666666666667
317,53.333333333333336,-452.26666666666665,258.1333333333333
318,55.46666666666667,-439.46666666666664,262.4
319,57.6,-441.59999999999997,266.6666666666667
320,49.06666666666666,-450.1333333333333,266.6666666666667
321,55.46666666666667,-445.8666666666667,260.26666666666665
322,53.333333333333336,-450.1333333333333,264.5333333333333
323,55.46666666666667,-448.0,266.6666666666667
324,49.06666666666666,-441.59999999999997,268.8
325,55.46666666666667,-450.1333333333333,266.6666666666667
326,57.6,-448.0,268.8
327,57.6,-445.8666666666667,268.8
328,59.733333333333334,-448.0,266.6666666666667
329,59.733333333333334,-456.5333333333333,268.8
330,59.733333333333334,-450.1333333333333,270.93333333333334
331,57.6,-448.0,262.4
332,57.6,-456.5333333333333,268.8
333,59.733333333333334,-456.5333333333333,270.93333333333334
334,64.0,-454.4,266.6666666666667
335,57.6,-448.0,253.86666666666667
336,55.46666666666667,-448.0,268.8
337,59.733333333333334,-452.26666666666665,268.8
338,55.46666666666667,-452.26666666666665,266.6666666666667
339,64.0,-448.0,273.06666666666666
340,55.46666666666667,-450.1333333333333,264.5333333333333
341,57.6,-450.1333333333333,275.2
342,51.2,-465.06666666666666,262.4
343,53.333333333333336,-454.4,268.8
344,53.333333333333336,-450.1333333333333,262.4
345,57.6,-448.0,268.8
346,55.46666666666667,-454.4,264.5333333333333
347,61.86666666666667,-456.5333333333333,268.8
348,55.46666666666667,-452.26666666666665,268.8
349,59.733333333333334,-452.26666666666665,266.6666666666667
350,61.86666666666667,-458.6666666666667,262.4
351,51.2,-452.26666666666665,264.5333333333333
352,55.46666666666667,-450.1333333333333,258.1333333333333
353,59.733333333333334,-458.6666666666667,262.4
354,57.6,-450.1333333333333,262.4
355,59.733333333333334,-454.4,260.26666666666665
356,57.6,-445.8666666666667,260.26666666666665
357,57.6,-448.0,268.8
358,57.6,-452.26666666666665,264.5333333333333
359,57.6,-448.0,268.8
360,64.0,-448.0,275.2
361,59.733333333333334,-454.4,270.93333333333334
362,59.733333333333334,-456.5333333333333,266.6666666666667
363,61.86666666666667,-456.5333333333333,270.93333333333334
364,55.46666666666667,-445.8666666666667,251.73333333333332
365,55.46666666666667,-456.5333333333333,290.1333333333333
366,61.86666666666667,-456.5333333333333,260.26666666666665
367,59.733333333333334,-445.8666666666667,270.93333333333334
368,57.6,-450.1333333333333,262.4
369,57.6,-448.0,270.93333333333334
370,64.0,-450.1333333333333,266.6666666666667
371,61.86666666666667,-445.8666666666667,270.93333333333334
372,51.2,-445.8666666666667,268.8
373,61.86666666666667,-456.5333333333333,268.8
374,59.733333333333334,-458.6666666666667,279.46666666666664
375,64.0,-456.5333333333333,268.8
376,55.46666666666667,-452.26666666666665,279.46666666666664
377,57.6,-448.0,268.8
378,57.6,-450.1333333333333,275.2
379,59.733333333333334,-450.1333333333333,264.5333333333333
380,59.733333333333334,-452.26666666666665,275.2
381,61.86666666666667,-450.1333333333333,275.2
382,53.333333333333336,-454.4,262.4
383,66.13333333333333,-456.5333333333333,268.8
384,57.6,-450.1333333333333,270.93333333333334
385,53.333333333333336,-452.26666666666665,270.93333333333334
386,57.6,-460.8,262.4
387,51.2,-452.26666666666665,270.93333333333334
388,55.46666666666667,-448.0,264.5333333333333
389,53.333333333333336,-450.1333333333333,264.5333333333333
390,64.0,-456.5333333333333,270.93333333333334
391,53.333333333333336,-448.0,264.5333333333333
392,55.46666666666667,-452.26666666666665,264.5333333333333
393,53.333333333333336,-450.1333333333333,264.5333333333333
394,59.733333333333334,-452.26666666666665,258.1333333333333
395,51.2,-448.0,260.26666666666665
396,61.86666666666667,-445.8666666666667,275.2
397,57.6,-460.8,268.8
398,57.6,-450.1333333333333,270.93333333333334
399,57.6,-452.26666666666665,268.8
400,57.6,-450.1333333333333,266.6666666666667
401,57.6,-441.59999999999997,260.26666666666665
402,59.733333333333334,-445.8666666666667,273.06666666666666
403,55.46666666666667,-439.46666666666664,268.8
404,59.733333333333334,-450.1333333333333,273.06666666666666
405,49.06666666666666,-456.5333333333333,266.6666666666667
406,53.333333333333336,-439.46666666666664,270.93333333333334
407,55.46666666666667,-435.2,264.5333333333333
408,42.666666666666664,-435.2,266.6666666666667
409,57.6,-445.8666666666667,270.93333333333334
410,53.333333333333336,-445.8666666666667,268.8
411,55.46666666666667,-448.0,270.93333333333334
412,55.46666666666667,-448.0,270.93333333333334
413,59.733333333333334,-450.1333333333333,273.06666666666666
414,57.6,-445.8666666666667,264.5333333333333
415,61.86666666666667,-452.26666666666665,266.6666666666667
416,55.46666666666667,-445.8666666666667,268.8
417,59.733333333333334,-450.1333333333333,268.8
418,57.6,-458.6666666666667,260.26666666666665
419,61.86666666666667,-452.26666666666665,268.8
420,59.733333333333334,-454.4,270.93333333333334
421,59.733333333333334,-448.0,270.93333333333334
422,61.86666666666667,-445.8666666666667,266.6666666666667
423,57.6,-450.1333333333333,266.6666666666667
424,61.86666666666667,-448.0,270.93333333333334
425,61.86666666666667,-448.0,268.8
426,53.333333333333336,-445.8666666666667,275.2
427,57.6,-445.8666666666667,266.6666666666667
428,61.86666666666667,-456.5333333333333,266.6666666666667
429,66.13333333333333,-452.26666666666665,270.93333333333334
430,53.333333333333336,-445.8666666666667,270.93333333333334
431,55.46666666666667,-452.26666666666665,268.8
432,57.6,-448.0,264.5333333333333
433,53.333333333333336,-450.1333333333333,264.5333333333333
434,57.6,-448.0,273.06666666666666
435,57.6,-448.0,270.93333333333334
436,53.333333333333336,-448.0,266.6666666666667
437,49.06666666666666,-443.73333333333335,268.8
438,59.733333333333334,-448.0,268.8
439,55.46666666666667,-450.1333333333333,281.6
440,53.333333333333336,-448.0,266.6666666666667
441,59.733333333333334,-445.8666666666667,273.06666666666666
442,59.733333333333334,-445.8666666666667,273.06666666666666
443,55.46666666666667,-443.73333333333335,266.6666666666667
444,51.2,-445.8666666666667,273.06666666666666
445,53.333333333333336,-448.0,270.93333333333334
446,55.46666666666667,-450.1333333333333,264.5333333333333
447,57.6,-452.26666666666665,260.26666666666665
448,53.333333333333336,-450.1333333333333,273.06666666666666
449,59.733333333333334,-445.8666666666667,273.06666666666666
450,68.26666666666667,-456.5333333333333,273.06666666666666
451,55.46666666666667,-445.8666666666667,275.2
452,57.6,-450.1333333333333,270.93333333333334
453,59.733333333333334,-445.8666666666667,264.5333333333333
454,64.0,-443.73333333333335,273.06666666666666
455,51.2,-445.8666666666667,264.5333333333333
456,59.733333333333334,-445.8666666666667,266.6666666666667
457,57.6,-445.8666666666667,275.2
458,61.86666666666667,-450.1333333333333,273.06666666666666
459,55.46666666666667,-450.1333333333333,268.8
460,55.46666666666667,-443.73333333333335,258.1333333333333
461,55.46666666666667,-445.8666666666667,268.8
462,57.6,-460.8,273.06666666666666
463,57.6,-448.0,266.6666666666667
464,59.733333333333334,-443.73333333333335,273.06666666666666
465,55.46666666666667,-443.73333333333335,262.4
466,61.86666666666667,-450.1333333333333,270.93333333333334
467,57.6,-448.0,277.3333333333333
468,57.6,-441.59999999999997,275.2
469,61.86666666666667,-452.26666666666665,273.06666666666666
470,64.0,-454.4,279.46666666666664
471,64.0,-458.6666666666667,268.8
472,57.6,-443.73333333333335,273.06666666666666
473,53.333333333333336,-445.8666666666667,266.6666666666667
474,59.733333333333334,-445.8666666666667,273.06666666666666
475,57.6,-448.0,270.93333333333334
476,59.733333333333334,-443.73333333333335,268.8
477,57.6,-445.8666666666667,266.6666666666667
478,55.46666666666667,-445.8666666666667,273.06666666666666
479,57.6,-448.0,270.93333333333334
480,51.2,-448.0,273.06666666666666
481,49.06666666666666,-441.59999999999997,268.8
482,57.6,-450.1333333333333,268.8
483,51.2,-441.59999999999997,270.93333333333334
484,61.86666666666667,-450.1333333333333,277.3333333333333
485,59.733333333333334,-452.26666666666665,275.2
486,66.13333333333333,-450.1333333333333,273.06666666666666
487,59.733333333333334,-452.26666666666665,270.93333333333334
488,61.86666666666667,-443.73333333333335,273.06666666666666
489,57.6,-445.8666666666667,273.06666666666666
490,55.46666666666667,-445.8666666666667,268.8
491,55.46666666666667,-441.59999999999997,273.06666666666666
492,68.26666666666667,-448.0,275.2
493,59.733333333333334,-443.73333333333335,273.06666666666666
494,57.6,-452.26666666666665,268.8
495,55.46666666666667,-445.8666666666667,294.4
496,51.2,-443.73333333333335,275.2
497,57.6,-443.73333333333335,273.06666666666666
498,55.46666666666667,-443.73333333333335,268.8
499,61.86666666666667,-445.8666666666667,262.4
500,59.733333333333334,-454.4,270.93333333333334
501,55.46666666666667,-452.26666666666665,270.93333333333334
502,55.46666666666667,-448.0,270.93333333333334
503,55.46666666666667,-448.0,266.6666666666667
504,61.86666666666667,-445.8666666666667,268.8
505,57.6,-450.1333333333333,270.93333333333334
506,55.46666666666667,-437.3333333333333,273.06666666666666
507,57.6,-450.1333333333333,268.8
508,57.6,-445.8666666666667,268.8
509,59.733333333333334,-450.1333333333333,273.06666666666666
510,53.333333333333336,-448.0,268.8
511,55.46666666666667,-441.59999999999997,275.2
512,57.6,-448.0,270.93333333333334
513,59.733333333333334,-454.4,273.06666666666666
514,46.93333333333333,-445.8666666666667,270.93333333333334
515,59.733333333333334,-448.0,277.3333333333333
516,64.0,-456.5333333333333,268.8
517,53.333333333333336,-445.8666666666667,270.93333333333334
518,53.333333333333336,-443.73333333333335,266.6666666666667
519,59.733333333333334,-445.8666666666667,268.8
520,55.46666666666667,-445.8666666666667,264.5333333333333
521,59.733333333333334,-443.73333333333335,268.8
522,59.733333333333334,-445.8666666666667,264.5333333333333
523,55.46666666666667,-450.1333333333333,260.26666666666665
524,59.733333333333334,-443.73333333333335,270.93333333333334
525,49.06666666666666,-439.46666666666664,275.2
526,51.2,-450.1333333333333,281.6
527,57.6,-452.26666666666665,283.73333333333335
528,64.0,-448.0,273.06666666666666
529,61.86666666666667,-450.1333333333333,273.06666666666666
530,57.6,-450.1333333333333,277.3333333333333
531,53.333333333333336,-441.59999999999997,270.93333333333334
532,59.733333333333334,-443.73333333333335,268.8
533,55.46666666666667,-441.59999999999997,273.06666666666666
534,64.0,-445.8666666666667,270.93333333333334
535,64.0,-443.73333333333335,264.5333333333333
536,57.6,-441.59999999999997,273.06666666666666
537,57.6,-437.3333333333333,268.8
538,81.06666666666666,-445.8666666666667,292.26666666666665
539,61.86666666666667,-441.59999999999997,270.93333333333334
540,57.6,-441.59999999999997,273.06666666666666
541,57.6,-445.8666666666667,270.93333333333334
542,57.6,-445.8666666666667,273.06666666666666
543,61.86666666666667,-448.0,273.06666666666666
544,57.6,-448.0,273.06666666666666
545,55.46666666666667,-445.8666666666667,262.4
546,61.86666666666667,-443.73333333333335,270.93333333333334
547,53.333333333333336,-439.46666666666664,268.8
548,59.733333333333334,-450.1333333333333,262.4
549,57.6,-441.59999999999997,268.8
550,59.733333333333334,-439.46666666666664,273.06666666666666
551,57.6,-443.73333333333335,262.4
552,57.6,-445.8666666666667,262.4
553,66.13333333333333,-441.59999999999997,266.6666666666667
554,53.333333333333336,-443.73333333333335,264.5333333333333
555,59.733333333333334,-443.73333333333335,270.93333333333334
556,51.2,-450.1333333333333,268.8
557,51.2,-445.8666666666667,258.1333333333333
558,59.733333333333334,-448.0,262.4
559,53.333333333333336,-448.0,256.0
560,57.6,-456.5333333333333,262.4
561,57.6,-450.1333333333333,262.4
562,55.46666666666667,-460.8,266.6666666666667
563,55.46666666666667,-452.26666666666665,264.5333333333333
564,53.333333333333336,-454.4,268.8
565,57.6,-454.4,256.0
566,55.46666666666667,-452.26666666666665,270.93333333333334
567,57.6,-452.26666666666665,258.1333333333333
568,57.6,-452.26666666666665,253.86666666666667
569,51.2,-445.8666666666667,258.1333333333333
570,61.86666666666667,-448.0,262.4
571,57.6,-448.0,258.1333333333333
572,51.2,-448.0,262.4
573,53.333333333333336,-454.4,264.5333333333333
574,61.86666666666667,-458.6666666666667,264.5333333333333
575,53.333333333333336,-445.8666666666667,260.26666666666665
576,64.0,-454.4,258.1333333333333
577,55.46666666666667,-443.73333333333335,268.8
578,57.6,-450.1333333333333,260.26666666666665
579,51.2,-445.8666666666667,260.26666666666665
580,59.733333333333334,-454.4,256.0
581,61.86666666666667,-454.4,268.8
582,55.46666666666667,-452.26666666666665,266.6666666666667
583,59.733333333333334,-454.4,251.73333333333332
584,57.6,-445.8666666666667,256.0
585,57.6,-450.1333333333333,256.0
586,64.0,-450.1333333333333,262.4
587,59.733333333333334,-452.26666666666665,256.0
588,61.86666666666667,-450.1333333333333,258.1333333333333
589,49.06666666666666,-441.59999999999997,256.0
590,51.2,-437.3333333333333,247.46666666666667
591,64.0,-448.0,253.86666666666667
592,64.0,-443.73333333333335,251.73333333333332
593,61.86666666666667,-450.1333333333333,245.33333333333334
594,59.733333333333334,-441.59999999999997,256.0
595,55.46666666666667,-450.1333333333333,247.46666666666667
596,55.46666666666667,-445.8666666666667,245.33333333333334
597,59.733333333333334,-450.1333333333333,247.46666666666667
598,59.733333333333334,-456.5333333333333,249.6
599,57.6,-454.4,258.1333333333333
600,66.13333333333333,-465.06666666666666,238.93333333333334
601,57.6,-462.93333333333334,245.33333333333334
602,61.86666666666667,-458.6666666666667,236.79999999999998
603,74.66666666666667,-456.5333333333333,249.6
604,64.0,-460.8,238.93333333333334
605,57.6,-452.26666666666665,245.33333333333334
606,55.46666666666667,-460.8,243.2
607,55.46666666666667,-467.2,247.46666666666667
608,51.2,-456.5333333333333,241.06666666666666
609,53.333333333333336,-462.93333333333334,238.93333333333334
610,53.333333333333336,-458.6666666666667,243.2
611,51.2,-465.06666666666666,243.2
612,51.2,-465.06666666666666,232.53333333333333
613,46.93333333333333,-458.6666666666667,236.79999999999998
614,55.46666666666667,-465.06666666666666,238.93333333333334
615,49.06666666666666,-445.8666666666667,232.53333333333333
616,51.2,-462.93333333333334,230.4
617,55.46666666666667,-460.8,234.66666666666666
618,59.733333333333334,-460.8,232.53333333333333
619,57.6,-462.93333333333334,226.13333333333333
620,55.46666666666667,-458.6666666666667,224.0
621,57.6,-458.6666666666667,224.0
622,46.93333333333333,-456.5333333333333,217.6
623,55.46666666666667,-454.4,230.4
624,46.93333333333333,-454.4,211.2
625,57.6,-448.0,236.79999999999998
626,57.6,-458.6666666666667,219.73333333333332
627,61.86666666666667,-460.8,219.73333333333332
628,55.46666666666667,-458.6666666666667,228.26666666666665
629,51.2,-465.06666666666666,219.73333333333332
630,55.46666666666667,-467.2,219.73333333333332
631,53.333333333333336,-469.3333333333333,228.26666666666665
632,64.0,-471.46666666666664,230.4
633,57.6,-475.73333333333335,217.6
634,57.6,-480.0,238.93333333333334
635,57.6,-484.26666666666665,224.0
636,49.06666666666666,-482.1333333333333,215.46666666666667
637,53.333333333333336,-480.0,219.73333333333332
638,66.13333333333333,-490.6666666666667,221.86666666666667
639,55.46666666666667,-488.5333333333333,221.86666666666667
640,57.6,-484.26666666666665,215.46666666666667
641,61.86666666666667,-488.5333333333333,211.2
642,57.6,-488.5333333333333,194.13333333333333
643,57.6,-482.1333333333333,183.46666666666667
644,57.6,-480.0,168.53333333333333
645,59.733333333333334,-477.8666666666667,160.0
646,59.733333333333334,-480.0,172.8
647,61.86666666666667,-462.93333333333334,157.86666666666667
648,70.4,-471.46666666666664,157.86666666666667
649,64.0,-458.6666666666667,174.93333333333334
650,55.46666666666667,-462.93333333333334,164.26666666666665
651,55.46666666666667,-454.4,155.73333333333332
652,53.333333333333336,-454.4,153.6
653,44.8,-454.4,160.0
654,36.266666666666666,-454.4,147.2
655,46.93333333333333,-462.93333333333334,147.2
656,40.53333333333333,-462.93333333333334,147.2
657,40.53333333333333,-473.59999999999997,164.26666666666665
658,42.666666666666664,-477.8666666666667,151.46666666666667
659,42.666666666666664,-482.1333333333333,166.4
660,51.2,-497.06666666666666,166.4
661,51.2,-503.46666666666664,174.93333333333334
662,44.8,-509.8666666666667,179.2
663,44.8,-514.1333333333333,174.93333333333334
664,49.06666666666666,-520.5333333333333,179.2
665,46.93333333333333,-512.0,177.06666666666666
666,51.2,-531.2,174.93333333333334
667,51.2,-531.2,166.4
668,57.6,-526.9333333333333,177.06666666666666
669,53.333333333333336,-526.9333333333333,164.26666666666665
670,51.2,-509.8666666666667,157.86666666666667
671,46.93333333333333,-503.46666666666664,157.86666666666667
672,46.93333333333333,-499.2,140.8
673,46.93333333333333,-499.2,136.53333333333333
674,36.266666666666666,-503.46666666666664,138.66666666666666
675,32.0,-507.73333333333335,132.26666666666665
676,34.13333333333333,-516.2666666666667,132.26666666666665
677,42.666666666666664,-514.1333333333333,136.53333333333333
678,38.4,-516.2666666666667,136.53333333333333
679,40.53333333333333,-518.4,138.66666666666666
680,44.8,-520.5333333333333,134.4
681,49.06666666666666,-518.4,134.4
682,51.2,-518.4,130.13333333333333
683,61.86666666666667,-526.9333333333333,119.46666666666667
684,70.4,-537.6,113.06666666666666
685,78.93333333333334,-541.8666666666667,115.2
686,76.8,-546.1333333333333,108.8
687,85.33333333333333,-561.0666666666666,100.26666666666667
688,76.8,-573.8666666666667,102.4
689,64.0,-573.8666666666667,91.73333333333333
690,57.6,-588.8,87.46666666666667
691,51.2,-588.8,87.46666666666667
692,42.666666666666664,-601.6,87.46666666666667
693,36.266666666666666,-612.2666666666667,85.33333333333333
694,23.466666666666665,-616.5333333333333,78.93333333333334
695,34.13333333333333,-629.3333333333334,81.06666666666666
696,34.13333333333333,-637.8666666666667,70.4
697,38.4,-644.2666666666667,68.26666666666667
698,32.0,-635.7333333333333,61.86666666666667
699,38.4,-635.7333333333333,61.86666666666667
700,32.0,-625.0666666666666,64.0
701,25.6,-610.1333333333333,61.86666666666667
702,27.733333333333334,-597.3333333333334,64.0
703,32.0,-584.5333333333333,64.0
704,36.266666666666666,-576.0,44.8
705,34.13333333333333,-563.2,51.2
706,34.13333333333333,-558.9333333333333,49.06666666666666
707,34.13333333333333,-561.0666666666666,44.8
708,44.8,-567.4666666666667,27.733333333333334
709,38.4,-567.4666666666667,27.733333333333334
710,49.06666666666666,-571.7333333333333,23.466666666666665
711,53.333333333333336,-571.7333333333333,10.666666666666666
712,64.0,-569.6,2.1333333333333333
713,66.13333333333333,-584.5333333333333,-2.1333333333333333
714,68.26666666666667,-580.2666666666667,-6.4
715,64.0,-578.1333333333333,-6.4
716,59.733333333333334,-580.2666666666667,-6.4
717,53.333333333333336,-582.4,-14.933333333333334
718,38.4,-586.6666666666666,-25.6
719,29.866666666666667,-588.8,-36.266666666666666
720,25.6,-586.6666666666666,-34.13333333333333
721,4.266666666666667,-576.0,-51.2
722,-10.666666666666666,-571.7333333333333,-49.06666666666666
723,4.266666666666667,-569.6,-64.0
724,-10.666666666666666,-567.4666666666667,-61.86666666666667
725,-6.4,-573.8666666666667,-61.86666666666667
726,-12.8,-576.0,-64.0
727,-6.4,-590.9333333333333,-70.4
728,4.266666666666667,-601.6,-66.13333333333333
729,2.1333333333333333,-612.2666666666667,-51.2
730,-6.4,-622.9333333333333,-51.2
731,-2.1333333333333333,-631.4666666666667,-44.8
732,0.0,-633.6,-38.4
733,-14.933333333333334,-618.6666666666666,-23.466666666666665
734,2.1333333333333333,-625.0666666666666,-42.666666666666664
735,4.266666666666667,-614.4,-36.266666666666666
736,2.1333333333333333,-610.1333333333333,-46.93333333333333
737,8.533333333333333,-597.3333333333334,-57.6
738,10.666666666666666,-597.3333333333334,-49.06666666666666
739,12.8,-590.9333333333333,-53.333333333333336
740,6.4,-588.8,-70.4
741,12.8,-580.2666666666667,-64.0
742,-2.1333333333333333,-576.0,-78.93333333333334
743,2.1333333333333333,-578.1333333333333,-72.53333333333333
744,6.4,-571.7333333333333,-72.53333333333333
745,14.933333333333334,-578.1333333333333,-76.8
746,10.666666666666666,-582.4,-70.4
747,17.066666666666666,-588.8,-68.26666666666667
748,14.933333333333334,-599.4666666666667,-61.86666666666667
749,17.066666666666666,-608.0,-61.86666666666667
750,14.933333333333334,-616.5333333333333,-51.2
751,10.666666666666666,-616.5333333333333,-49.06666666666666
752,8.533333333333333,-616.5333333333333,-49.06666666666666
753,14.933333333333334,-618.6666666666666,-49.06666666666666
754,19.2,-616.5333333333333,-55.46666666666667
755,12.8,-608.0,-61.86666666666667
756,8.533333333333333,-605.8666666666667,-68.26666666666667
757,10.666666666666666,-601.6,-68.26666666666667
758,10.666666666666666,-590.9333333333333,-68.26666666666667
759,17.066666666666666,-590.9333333333333,-70.4
760,8.533333333333333,-582.4,-70.4
761,6.4,-582.4,-53.333333333333336
762,6.4,-582.4,-55.46666666666667
763,8.533333333333333,-593.0666666666666,-53.333333333333336
764,2.1333333333333333,-593.0666666666666,-40.53333333333333
765,0.0,-599.4666666666667,-27.733333333333334
766,4.266666666666667,-595.2,-29.866666666666667
767,4.266666666666667,-593.0666666666666,-21.333333333333332
768,4.266666666666667,-582.4,-25.6
769,10.666666666666666,-576.0,-19.2
770,17.066666666666666,-552.5333333333333,-46.93333333333333
771,6.4,-526.9333333333333,-51.2
772,2.1333333333333333,-516.2666666666667,-51.2
773,0.0,-494.93333333333334,-74.66666666666667
774,-4.266666666666667,-482.1333333333333,-83.2
775,6.4,-462.93333333333334,-78.93333333333334
776,19.2,-450.1333333333333,-81.06666666666666
777,17.066666666666666,-443.73333333333335,-83.2
778,8.533333333333333,-433.06666666666666,-93.86666666666666
779,6.4,-428.8,-85.33333333333333
780,2.1333333333333333,-426.6666666666667,-76.8
781,2.1333333333333333,-430.93333333333334,-72.53333333333333
782,2.1333333333333333,-428.8,-93.86666666666666
783,6.4,-422.4,-70.4
784,2.1333333333333333,-426.6666666666667,-87.46666666666667
785,2.1333333333333333,-422.4,-98.13333333333333
786,0.0,-409.6,-121.6
787,2.1333333333333333,-411.73333333333335,-115.2
788,4.266666666666667,-394.6666666666667,-125.86666666666666
789,0.0,-379.73333333333335,-134.4
790,6.4,-349.8666666666667,-138.66666666666666
791,6.4,-330.6666666666667,-138.66666666666666
792,2.1333333333333333,-302.93333333333334,-149.33333333333334
793,8.533333333333333,-275.2,-149.33333333333334
794,2.1333333333333333,-245.33333333333334,-155.73333333333332
795,2.1333333333333333,-219.73333333333332,-147.2
796,2.1333333333333333,-209.06666666666666,-157.86666666666667
797,23.466666666666665,-213.33333333333334,-172.8
798,2.1333333333333333,-170.66666666666666,-168.53333333333333
799,4.266666666666667,-162.13333333333333,-177.06666666666666
800,6.4,-136.53333333333333,-172.8
801,17.066666666666666,-125.86666666666666,-177.06666666666666
802,19.2,-108.8,-181.33333333333334
803,23.466666666666665,-78.93333333333334,-194.13333333333333
804,29.866666666666667,-46.93333333333333,-200.53333333333333
805,38.4,-32.0,-206.93333333333334
806,34.13333333333333,-25.6,-200.53333333333333
807,25.6,-29.866666666666667,-164.26666666666665
808,6.4,-32.0,-115.2
809,-2.1333333333333333,-59.733333333333334,-102.4
810,-4.266666666666667,-91.73333333333333,-66.13333333333333
811,-12.8,-119.46666666666667,-42.666666666666664
812,6.4,-145.06666666666666,-23.466666666666665
813,25.6,-162.13333333333333,6.4
814,46.93333333333333,-185.6,25.6
815,64.0,-196.26666666666665,32.0
816,81.06666666666666,-215.46666666666667,32.0
817,93.86666666666666,-251.73333333333332,23.466666666666665
818,81.06666666666666,-270.93333333333334,27.733333333333334
819,87.46666666666667,-298.6666666666667,27.733333333333334
820,83.2,-315.73333333333335,40.53333333333333
821,68.26666666666667,-326.4,49.06666666666666
822,74.66666666666667,-339.2,51.2
823,66.13333333333333,-334.93333333333334,57.6
824,61.86666666666667,-343.46666666666664,74.66666666666667
825,68.26666666666667,-347.73333333333335,89.6
826,59.733333333333334,-356.26666666666665,110.93333333333334
827,68.26666666666667,-349.8666666666667,128.0
828,76.8,-362.6666666666667,138.66666666666666
829,89.6,-356.26666666666665,172.8
830,96.0,-352.0,177.06666666666666
831,98.13333333333333,-364.8,247.46666666666667
832,91.73333333333333,-413.8666666666667,290.1333333333333
833,38.4,-503.46666666666664,437.3333333333333
834,-78.93333333333334,-612.2666666666667,640.0
835,-204.8,-861.8666666666667,977.0666666666666
836,-247.46666666666667,-1164.8,1026.1333333333332
837,-320.0,-1593.6,1160.5333333333333
838,-332.8,-2109.866666666667,1134.9333333333334
839,-40.53333333333333,-2333.866666666667,1002.6666666666666
840,535.4666666666667,-2348.8,450.1333333333333
841,680.5333333333333,-2434.133333333333,-6.4
842,228.26666666666665,-2376.5333333333333,605.8666666666667
843,104.53333333333333,-2163.2,846.9333333333333
844,83.2,-1924.2666666666667,595.2
845,12.8,-1504.0,386.1333333333333
846,59.733333333333334,-1096.5333333333333,288.0
847,128.0,-736.0,251.73333333333332
848,121.6,-435.2,170.66666666666666
849,64.0,-230.4,17.066666666666666
850,-14.933333333333334,57.6,-104.53333333333333
851,-145.06666666666666,352.0,-110.93333333333334
852,-311.46666666666664,631.4666666666667,-64.0
853,-375.46666666666664,800.0,-8.533333333333333
854,-360.5333333333333,923.7333333333333,32.0
855,-283.73333333333335,883.1999999999999,40.53333333333333
856,-192.0,697.6,70.4
857,-110.93333333333334,379.73333333333335,142.93333333333334
858,-61.86666666666667,89.6,204.8
859,2.1333333333333333,-341.3333333333333,270.93333333333334
860,53.333333333333336,-590.9333333333333,251.73333333333332
861,83.2,-780.8,187.73333333333332
862,23.466666666666665,-806.4,189.86666666666667
863,-6.4,-755.2,181.33333333333334
864,-4.266666666666667,-716.8,213.33333333333334
865,-4.266666666666667,-680.5333333333333,249.6
866,4.266666666666667,-650.6666666666666,243.2
867,42.666666666666664,-640.0,221.86666666666667
868,46.93333333333333,-644.2666666666667,219.73333333333332
869,64.0,-644.2666666666667,213.33333333333334
870,98.13333333333333,-635.7333333333333,217.6
871,121.6,-610.1333333333333,221.86666666666667
872,132.26666666666665,-590.9333333333333,228.26666666666665
873,136.53333333333333,-563.2,245.33333333333334
874,134.4,-533.3333333333334,277.3333333333333
875,136.53333333333333,-512.0,296.5333333333333
876,140.8,-507.73333333333335,313.6
877,136.53333333333333,-494.93333333333334,313.6
878,125.86666666666666,-486.4,294.4
879,117.33333333333333,-471.46666666666664,279.46666666666664
880,93.86666666666666,-452.26666666666665,266.6666666666667
881,89.6,-437.3333333333333,260.26666666666665
882,91.73333333333333,-426.6666666666667,273.06666666666666
883,81.06666666666666,-411.73333333333335,273.06666666666666
884,68.26666666666667,-413.8666666666667,298.6666666666667
885,49.06666666666666,-405.3333333333333,326.4
886,42.666666666666664,-405.3333333333333,334.93333333333334
887,36.266666666666666,-396.8,341.3333333333333
888,38.4,-392.5333333333333,315.73333333333335
889,34.13333333333333,-377.6,298.6666666666667
890,40.53333333333333,-362.6666666666667,279.46666666666664
891,55.46666666666667,-371.2,253.86666666666667
892,72.53333333333333,-377.6,249.6
893,87.46666666666667,-407.46666666666664,236.79999999999998
894,74.66666666666667,-439.46666666666664,247.46666666666667
895,89.6,-471.46666666666664,253.86666666666667
896,87.46666666666667,-492.8,258.1333333333333
897,74.66666666666667,-522.6666666666666,251.73333333333332
898,57.6,-548.2666666666667,249.6
899,38.4,-561.0666666666666,256.0
900,10.666666666666666,-576.0,245.33333333333334
901,2.1333333333333333,-569.6,234.66666666666666
902,0.0,-565.3333333333334,221.86666666666667
903,-12.8,-546.1333333333333,206.93333333333334
904,-6.4,-518.4,196.26666666666665
905,0.0,-484.26666666666665,198.4
906,0.0,-452.26666666666665,189.86666666666667
907,6.4,-424.5333333333333,192.0
908,12.8,-407.46666666666664,187.73333333333332
909,27.733333333333334,-392.5333333333333,185.6
910,29.866666666666667,-373.3333333333333,172.8
911,40.53333333333333,-373.3333333333333,172.8
912,51.2,-375.46666666666664,185.6
913,49.06666666666666,-375.46666666666664,202.66666666666666
914,53.333333333333336,-379.73333333333335,221.86666666666667
915,57.6,-386.1333333333333,226.13333333333333
916,44.8,-403.2,209.06666666666666
917,59.733333333333334,-416.0,217.6
918,64.0,-428.8,209.06666666666666
919,66.13333333333333,-454.4,226.13333333333333
920,68.26666666666667,-462.93333333333334,232.53333333333333
921,72.53333333333333,-477.8666666666667,260.26666666666665
922,66.13333333333333,-492.8,262.4
923,68.26666666666667,-509.8666666666667,268.8
924,70.4,-507.73333333333335,277.3333333333333
925,68.26666666666667,-505.59999999999997,277.3333333333333
926,59.733333333333334,-497.06666666666666,275.2
927,40.53333333333333,-488.5333333333333,279.46666666666664
928,42.666666666666664,-482.1333333333333,273.06666666666666
929,40.53333333333333,-469.3333333333333,273.06666666666666
930,36.266666666666666,-469.3333333333333,279.46666666666664
931,42.666666666666664,-454.4,273.06666666666666
932,42.666666666666664,-443.73333333333335,275.2
933,38.4,-430.93333333333334,273.06666666666666
934,34.13333333333333,-422.4,281.6
935,42.666666666666664,-420.26666666666665,279.46666666666664
936,38.4,-424.5333333333333,275.2
937,38.4,-416.0,281.6
938,57.6,-422.4,279.46666666666664
939,53.333333333333336,-416.0,277.3333333333333
940,55.46666666666667,-413.8666666666667,281.6
941,66.13333333333333,-418.1333333333333,281.6
942,64.0,-413.8666666666667,294.4
943,59.733333333333334,-411.73333333333335,292.26666666666665
944,57.6,-409.6,300.8
945,68.26666666666667,-405.3333333333333,305.06666666666666
946,70.4,-409.6,296.5333333333333
947,72.53333333333333,-418.1333333333333,302.93333333333334
948,70.4,-422.4,302.93333333333334
949,57.6,-428.8,290.1333333333333
950,64.0,-439.46666666666664,292.26666666666665
951,72.53333333333333,-439.46666666666664,292.26666666666665
952,76.8,-452.26666666666665,292.26666666666665
953,76.8,-458.6666666666667,290.1333333333333
954,74.66666666666667,-460.8,292.26666666666665
955,83.2,-469.3333333333333,298.6666666666667
956,85.33333333333333,-465.06666666666666,296.5333333333333
957,76.8,-473.59999999999997,300.8
958,74.66666666666667,-467.2,285.8666666666667
959,66.13333333333333,-471.46666666666664,285.8666666666667
960,64.0,-469.3333333333333,292.26666666666665
961,59.733333333333334,-458.6666666666667,273.06666666666666
962,61.86666666666667,-458.6666666666667,270.93333333333334
963,46.93333333333333,-443.73333333333335,275.2
964,46.93333333333333,-445.8666666666667,275.2
965,44.8,-439.46666666666664,273.06666666666666
966,36.266666666666666,-437.3333333333333,270.93333333333334
967,34.13333333333333,-430.93333333333334,268.8
968,29.866666666666667,-422.4,277.3333333333333
969,29.866666666666667,-413.8666666666667,279.46666666666664
970,34.13333333333333,-416.0,279.46666666666664
971,23.466666666666665,-416.0,268.8
972,36.266666666666666,-411.73333333333335,270.93333333333334
973,46.93333333333333,-420.26666666666665,270.93333333333334
974,66.13333333333333,-424.5333333333333,266.6666666666667
975,78.93333333333334,-426.6666666666667,268.8
976,91.73333333333333,-439.46666666666664,264.5333333333333
977,102.4,-445.8666666666667,275.2
978,106.66666666666667,-450.1333333333333,266.6666666666667
979,110.93333333333334,-452.26666666666665,273.06666666666666
980,113.06666666666666,-462.93333333333334,264.5333333333333
981,108.8,-471.46666666666664,270.93333333333334
982,110.93333333333334,-469.3333333333333,270.93333333333334
983,104.53333333333333,-473.59999999999997,275.2
984,100.26666666666667,-462.93333333333334,264.5333333333333
985,89.6,-467.2,273.06666666666666
986,81.06666666666666,-460.8,264.5333333333333
987,74.66666666666667,-460.8,268.8
988,83.2,-458.6666666666667,266.6666666666667
989,76.8,-450.1333333333333,264.5333333333333
990,66.13333333333333,-445.8666666666667,262.4
991,66.13333333333333,-443.73333333333335,264.5333333333333
992,72.53333333333333,-445.8666666666667,264.5333333333333
993,57.6,-443.73333333333335,256.0
994,64.0,-443.73333333333335,253.86666666666667
995,64.0,-443.73333333333335,256.0
996,66.13333333333333,-450.1333333333333,253.86666666666667
997,59.733333333333334,-452.26666666666665,236.79999999999998
998,59.733333333333334,-452.26666666666665,251.73333333333332
999,64.0,-456.5333333333333,247.46666666666667
1000,53.333333333333336,-460.8,247.46666666666667
1001,53.333333333333336,-469.3333333333333,253.86666666666667
1002,46.93333333333333,-460.8,253.86666666666667
1003,38.4,-467.2,264.5333333333333
1004,51.2,-467.2,253.86666666666667
1005,51.2,-465.06666666666666,256.0
1006,49.06666666666666,-465.06666666666666,253.86666666666667
1007,51.2,-465.06666666666666,258.1333333333333
1008,55.46666666666667,-458.6666666666667,253.86666666666667
1009,59.733333333333334,-456.5333333333333,249.6
1010,57.6,-458.6666666666667,256.0
1011,68.26666666666667,-460.8,260.26666666666665
1012,61.86666666666667,-458.6666666666667,260.26666666666665
1013,64.0,-456.5333333333333,266.6666666666667
1014,64.0,-456.5333333333333,249.6
1015,64.0,-460.8,258.1333333333333
1016,70.4,-454.4,258.1333333333333
1017,66.13333333333333,-462.93333333333334,260.26666666666665
1018,68.26666666666667,-456.5333333333333,253.86666666666667
1019,72.53333333333333,-469.3333333333333,249.6
1020,72.53333333333333,-460.8,251.73333333333332
1021,70.4,-462.93333333333334,249.6
1022,68.26666666666667,-454.4,258.1333333333333
1023,64.0,-465.06666666666666,247.46666666666667
1024,61.86666666666667,-454.4,258.1333333333333
1025,74.66666666666667,-465.06666666666666,249.6
1026,70.4,-460.8,251.73333333333332
1027,70.4,-458.6666666666667,258.1333333333333
1028,70.4,-454.4,249.6
1029,61.86666666666667,-456.5333333333333,251.73333333333332
1030,64.0,-458.6666666666667,243.2
1031,70.4,-458.6666666666667,251.73333333333332
1032,61.86666666666667,-462.93333333333334,253.86666666666667
1033,68.26666666666667,-462.93333333333334,260.26666666666665
1034,64.0,-469.3333333333333,251.73333333333332
1035,76.8,-471.46666666666664,258.1333333333333
1036,74.66666666666667,-477.8666666666667,256.0
1037,74.66666666666667,-469.3333333333333,256.0
1038,68.26666666666667,-471.46666666666664,264.5333333333333
1039,68.26666666666667,-475.73333333333335,262.4
1040,68.26666666666667,-469.3333333333333,260.26666666666665
1041,68.26666666666667,-471.46666666666664,258.1333333333333
1042,64.0,-467.2,260.26666666666665
1043,61.86666666666667,-460.8,262.4
1044,55.46666666666667,-450.1333333333333,262.4
1045,57.6,-452.26666666666665,266.6666666666667
1046,55.46666666666667,-441.59999999999997,268.8
1047,44.8,-441.59999999999997,275.2
1048,53.333333333333336,-433.06666666666666,273.06666666666666
1049,46.93333333333333,-430.93333333333334,275.2
1050,46.93333333333333,-430.93333333333334,275.2
1051,46.93333333333333,-428.8,279.46666666666664
1052,51.2,-437.3333333333333,277.3333333333333
1053,53.333333333333336,-433.06666666666666,273.06666666666666
1054,57.6,-439.46666666666664,268.8
1055,59.733333333333334,-448.0,268.8
1056,66.13333333333333,-443.73333333333335,270.93333333333334
1057,53.333333333333336,-439.46666666666664,277.3333333333333
1058,53.333333333333336,-445.8666666666667,279.46666666666664
1059,61.86666666666667,-445.8666666666667,273.06666666666666
1060,55.46666666666667,-445.8666666666667,266.6666666666667
1061,61.86666666666667,-445.8666666666667,281.6
1062,64.0,-448.0,277.3333333333333
1063,57.6,-452.26666666666665,264.5333333333333
1064,64.0,-445.8666666666667,264.5333333333333
1065,68.26666666666667,-450.1333333333333,260.26666666666665
1066,64.0,-443.73333333333335,268.8
1067,74.66666666666667,-450.1333333333333,273.06666666666666
1068,81.06666666666666,-450.1333333333333,273.06666666666666
1069,76.8,-460.8,277.3333333333333
1070,68.26666666666667,-458.6666666666667,258.1333333333333
1071,68.26666666666667,-460.8,268.8
1072,64.0,-452.26666666666665,260.26666666666665
1073,57.6,-456.5333333333333,266.6666666666667
1074,66.13333333333333,-454.4,264.5333333333333
1075,66.13333333333333,-454.4,268.8
1076,61.86666666666667,-450.1333333333333,264.5333333333333
1077,68.26666666666667,-465.06666666666666,275.2
1078,70.4,-445.8666666666667,262.4
1079,64.0,-450.1333333333333,256.0
1080,68.26666666666667,-462.93333333333334,256.0
1081,74.66666666666667,-454.4,264.5333333333333
1082,68.26666666666667,-450.1333333333333,260.26666666666665
1083,64.0,-454.4,260.26666666666665
1084,66.13333333333333,-452.26666666666665,260.26666666666665
1085,72.53333333333333,-458.6666666666667,262.4
1086,61.86666666666667,-460.8,264.5333333333333
1087,70.4,-465.06666666666666,270.93333333333334
1088,70.4,-458.6666666666667,266.6666666666667
1089,70.4,-460.8,268.8
1090,64.0,-448.0,268.8
1091,66.13333333333333,-465.06666666666666,264.5333333333333
1092,57.6,-450.1333333333333,258.1333333333333
1093,59.733333333333334,-456.5333333333333,262.4
1094,59.733333333333334,-452.26666666666665,260.26666666666665
1095,57.6,-448.0,260.26666666666665
1096,51.2,-448.0,256.0
1097,59.733333333333334,-454.4,264.5333333333333
1098,61.86666666666667,-452.26666666666665,264.5333333333333
1099,53.333333333333336,-454.4,273.06666666666666
1100,53.333333333333336,-456.5333333333333,266.6666666666667
1101,51.2,-441.59999999999997,262.4
1102,64.0,-454.4,266.6666666666667
1103,57.6,-456.5333333333333,270.93333333333334
1104,59.733333333333334,-460.8,279.46666666666664
1105,57.6,-454.4,270.93333333333334
1106,66.13333333333333,-458.6666666666667,273.06666666666666
1107,70.4,-467.2,273.06666666666666
1108,76.8,-460.8,275.2
1109,68.26666666666667,-467.2,277.3333333333333
1110,74.66666666666667,-465.06666666666666,273.06666666666666
1111,74.66666666666667,-458.6666666666667,270.93333333333334
1112,61.86666666666667,-465.06666666666666,277.3333333333333
1113,66.13333333333333,-450.1333333333333,258.1333333333333
1114,66.13333333333333,-445.8666666666667,273.06666666666666
1115,68.26666666666667,-439.46666666666664,268.8
1116,70.4,-445.8666666666667,275.2
1117,64.0,-448.0,266.6666666666667
1118,61.86666666666667,-441.59999999999997,270.93333333333334
1119,64.0,-443.73333333333335,262.4
1120,57.6,-437.3333333333333,273.06666666666666
1121,53.333333333333336,-445.8666666666667,260.26666666666665
1122,55.46666666666667,-439.46666666666664,266.6666666666667
1123,66.13333333333333,-435.2,268.8
1124,68.26666666666667,-441.59999999999997,266.6666666666667
1125,68.26666666666667,-437.3333333333333,260.26666666666665
1126,64.0,-441.59999999999997,266.6666666666667
1127,66.13333333333333,-441.59999999999997,262.4
1128,61.86666666666667,-441.59999999999997,262.4
1129,59.733333333333334,-452.26666666666665,262.4
1130,66.13333333333333,-443.73333333333335,268.8
1131,68.26666666666667,-448.0,270.93333333333334
1132,66.13333333333333,-456.5333333333333,266.6666666666667
1133,57.6,-448.0,268.8
1134,59.733333333333334,-443.73333333333335,256.0
1135,61.86666666666667,-445.8666666666667,273.06666666666666
1136,59.733333333333334,-454.4,268.8
1137,59.733333333333334,-448.0,268.8
1138,59.733333333333334,-445.8666666666667,268.8
1139,61.86666666666667,-443.73333333333335,270.93333333333334
1140,64.0,-450.1333333333333,262.4
1141,61.86666666666667,-448.0,266.6666666666667
1142,68.26666666666667,-458.6666666666667,266.6666666666667
1143,57.6,-450.1333333333333,270.93333333333334
1144,64.0,-456.5333333333333,273.06666666666666
1145,85.33333333333333,-450.1333333333333,262.4
1146,61.86666666666667,-450.1333333333333,268.8
1147,59.733333333333334,-450.1333333333333,266.6666666666667
1148,61.86666666666667,-454.4,273.06666666666666
1149,61.86666666666667,-445.8666666666667,270.93333333333334
1150,61.86666666666667,-439.46666666666664,270.93333333333334
1151,66.13333333333333,-448.0,273.06666666666666
1152,61.86666666666667,-439.46666666666664,264.5333333333333
1153,72.53333333333333,-441.59999999999997,275.2
1154,64.0,-439.46666666666664,262.4
1155,66.13333333333333,-441.59999999999997,268.8
1156,72.53333333333333,-450.1333333333333,268.8
1157,61.86666666666667,-443.73333333333335,270.93333333333334
1158,70.4,-445.8666666666667,260.26666666666665
1159,59.733333333333334,-450.1333333333333,262.4
1160,57.6,-454.4,270.93333333333334
1161,66.13333333333333,-454.4,270.93333333333334
1162,64.0,-456.5333333333333,268.8
1163,61.86666666666667,-452.26666666666665,270.93333333333334
1164,61.86666666666667,-443.73333333333335,268.8
1165,66.13333333333333,-443.73333333333335,270.93333333333334
1166,57.6,-452.26666666666665,268.8
1167,72.53333333333333,-458.6666666666667,270.93333333333334
1168,64.0,-452.26666666666665,270.93333333333334
1169,61.86666666666667,-445.8666666666667,268.8
1170,57.6,-445.8666666666667,268.8
1171,59.733333333333334,-441.59999999999997,264.5333333333333
1172,57.6,-445.8666666666667,262.4
1173,59.733333333333334,-448.0,273.06666666666666
1174,55.46666666666667,-448.0,264.5333333333333
1175,59.733333333333334,-452.26666666666665,270.93333333333334
1176,61.86666666666667,-454.4,266.6666666666667
1177,61.86666666666667,-450.1333333333333,262.4
1178,66.13333333333333,-450.1333333333333,266.6666666666667
1179,66.13333333333333,-454.4,268.8
1180,61.86666666666667,-450.1333333333333,270.93333333333334
1181,61.86666666666667,-443.73333333333335,268.8
1182,66.13333333333333,-445.8666666666667,260.26666666666665
1183,61.86666666666667,-445.8666666666667,264.5333333333333
1184,68.26666666666667,-448.0,270.93333333333334
1185,59.733333333333334,-441.59999999999997,258.1333333333333
1186,68.26666666666667,-445.8666666666667,256.0
1187,72.53333333333333,-445.8666666666667,270.93333333333334
1188,66.13333333333333,-445.8666666666667,253.86666666666667
1189,68.26666666666667,-443.73333333333335,268.8
1190,78.93333333333334,-445.8666666666667,268.8
1191,76.8,-450.1333333333333,264.5333333333333
1192,78.93333333333334,-452.26666666666665,273.06666666666666
1193,78.93333333333334,-456.5333333333333,273.06666666666666
1194,74.66666666666667,-454.4,270.93333333333334
1195,68.26666666666667,-445.8666666666667,277.3333333333333
1196,68.26666666666667,-448.0,279.46666666666664
1197,66.13333333333333,-452.26666666666665,268.8
1198,57.6,-448.0,253.86666666666667
1199,64.0,-452.26666666666665,270.93333333333334
1200,61.86666666666667,-443.73333333333335,275.2
1201,59.733333333333334,-441.59999999999997,268.8
1202,55.46666666666667,-435.2,273.06666666666666
1203,53.333333333333336,-439.46666666666664,273.06666666666666
1204,53.333333333333336,-441.59999999999997,268.8
1205,51.2,-441.59999999999997,270.93333333333334
1206,53.333333333333336,-443.73333333333335,281.6
1207,49.06666666666666,-439.46666666666664,270.93333333333334
1208,61.86666666666667,-445.8666666666667,277.3333333333333
1209,55.46666666666667,-448.0,273.06666666666666
1210,64.0,-454.4,268.8
1211,55.46666666666667,-448.0,273.06666666666666
1212,57.6,-443.73333333333335,268.8
1213,66.13333333333333,-448.0,264.5333333333333
1214,64.0,-445.8666666666667,270.93333333333334
1215,66.13333333333333,-445.8666666666667,268.8
1216,66.13333333333333,-448.0,270.93333333333334
1217,59.733333333333334,-439.46666666666664,266.6666666666667
1218,64.0,-439.46666666666664,273.06666666666666
1219,61.86666666666667,-435.2,268.8
1220,68.26666666666667,-448.0,270.93333333333334
1221,64.0,-443.73333333333335,273.06666666666666
1222,64.0,-443.73333333333335,277.3333333333333
1223,66.13333333333333,-452.26666666666665,273.06666666666666
1224,64.0,-443.73333333333335,273.06666666666666
1225,53.333333333333336,-439.46666666666664,270.93333333333334
1226,61.86666666666667,-441.59999999999997,275.2
1227,64.0,-441.59999999999997,270.93333333333334
1228,61.86666666666667,-443.73333333333335,270.93333333333334
1229,66.13333333333333,-448.0,275.2
1230,72.53333333333333,-445.8666666666667,273.06666666666666
1231,68.26666666666667,-448.0,279.46666666666664
1232,70.4,-452.26666666666665,256.0
1233,61.86666666666667,-450.1333333333333,273.06666666666666
1234,72.53333333333333,-450.1333333333333,275.2
1235,68.26666666666667,-450.1333333333333,273.06666666666666
1236,70.4,-450.1333333333333,273.06666666666666
1237,64.0,-448.0,273.06666666666666
1238,66.13333333333333,-450.1333333333333,273.06666666666666
1239,59.733333333333334,-450.1333333333333,273.06666666666666
1240,66.13333333333333,-443.73333333333335,275.2
1241,68.26666666666667,-454.4,268.8
1242,66.13333333333333,-441.59999999999997,270.93333333333334
1243,81.06666666666666,-445.8666666666667,268.8
1244,61.86666666666667,-450.1333333333333,277.3333333333333
1245,61.86666666666667,-441.59999999999997,273.06666666666666
1246,66.13333333333333,-445.8666666666667,275.2
1247,68.26666666666667,-445.8666666666667,273.06666666666666
1248,64.0,-443.73333333333335,270.93333333333334
1249,59.733333333333334,-441.59999999999997,266.6666666666667
1250,57.6,-441.59999999999997,264.5333333333333
1251,57.6,-441.59999999999997,264.5333333333333
1252,55.46666666666667,-445.8666666666667,260.26666666666665
1253,57.6,-441.59999999999997,266.6666666666667
1254,55.46666666666667,-448.0,266.6666666666667
1255,55.46666666666667,-445.8666666666667,270.93333333333334
1256,57.6,-445.8666666666667,270.93333333333334
1257,53.333333333333336,-448.0,275.2
1258,57.6,-448.0,273.06666666666666
1259,61.86666666666667,-443.73333333333335,273.06666666666666
1260,59.733333333333334,-443.73333333333335,275.2
1261,61.86666666666667,-454.4,279.46666666666664
1262,61.86666666666667,-445.8666666666667,281.6
1263,68.26666666666667,-443.73333333333335,279.46666666666664
1264,57.6,-445.8666666666667,279.46666666666664
1265,53.333333333333336,-441.59999999999997,275.2
1266,57.6,-441.59999999999997,273.06666666666666
1267,57.6,-445.8666666666667,273.06666666666666
1268,64.0,-445.8666666666667,273.06666666666666
1269,61.86666666666667,-443.73333333333335,270.93333333333334
1270,61.86666666666667,-450.1333333333333,270.93333333333334
1271,64.0,-445.8666666666667,275.2
1272,64.0,-448.0,281.6
1273,68.26666666666667,-448.0,270.93333333333334
1274,64.0,-448.0,285.8666666666667
1275,66.13333333333333,-443.73333333333335,273.06666666666666
1276,55.46666666666667,-443.73333333333335,275.2
1277,51.2,-439.46666666666664,277.3333333333333
1278,57.6,-439.46666666666664,279.46666666666664
1279,55.46666666666667,-435.2,277.3333333333333
1280,61.86666666666667,-435.2,268.8
1281,55.46666666666667,-430.93333333333334,277.3333333333333
1282,66.13333333333333,-445.8666666666667,275.2
1283,57.6,-445.8666666666667,275.2
1284,61.86666666666667,-448.0,283.73333333333335
1285,57.6,-448.0,275.2
1286,64.0,-460.8,294.4
1287,61.86666666666667,-448.0,275.2
1288,57.6,-448.0,273.06666666666666
1289,66.13333333333333,-450.1333333333333,270.93333333333334
1290,64.0,-448.0,275.2
1291,59.733333333333334,-443.73333333333335,279.46666666666664
1292,59.733333333333334,-445.8666666666667,273.06666666666666
1293,57.6,-443.73333333333335,277.3333333333333
1294,61.86666666666667,-443.73333333333335,283.73333333333335
1295,55.46666666666667,-435.2,277.3333333333333
1296,53.333333333333336,-430.93333333333334,277.3333333333333
1297,44.8,-428.8,277.3333333333333
1298,57.6,-439.46666666666664,273.06666666666666
1299,57.6,-441.59999999999997,275.2
1300,57.6,-439.46666666666664,279.46666666666664
1301,64.0,-441.59999999999997,279.46666666666664
1302,61.86666666666667,-445.8666666666667,273.06666666666666
1303,64.0,-441.59999999999997,277.3333333333333
1304,59.733333333333334,-439.46666666666664,273.06666666666666
1305,61.86666666666667,-445.8666666666667,270.93333333333334
1306,64.0,-443.73333333333335,273.06666666666666
1307,59.733333333333334,-443.73333333333335,281.6
1308,49.06666666666666,-439.46666666666664,275.2
1309,55.46666666666667,-437.3333333333333,281.6
1310,55.46666666666667,-445.8666666666667,275.2
1311,57.6,-439.46666666666664,270.93333333333334
1312,57.6,-448.0,279.46666666666664
1313,61.86666666666667,-448.0,275.2
1314,61.86666666666667,-450.1333333333333,273.06666666666666
1315,61.86666666666667,-441.59999999999997,285.8666666666667
1316,64.0,-445.8666666666667,277.3333333333333
1317,66.13333333333333,-445.8666666666667,273.06666666666666
1318,64.0,-443.73333333333335,279.46666666666664
1319,57.6,-430.93333333333334,273.06666666666666
1320,59.733333333333334,-443.73333333333335,277.3333333333333
1321,61.86666666666667,-443.73333333333335,283.73333333333335
1322,59.733333333333334,-437.3333333333333,277.3333333333333
1323,55.46666666666667,-441.59999999999997,270.93333333333334
1324,57.6,-437.3333333333333,270.93333333333334
1325,57.6,-435.2,273.06666666666666
1326,61.86666666666667,-433.06666666666666,281.6
1327,55.46666666666667,-433.06666666666666,277.3333333333333
1328,64.0,-437.3333333333333,279.46666666666664
1329,57.6,-439.46666666666664,279.46666666666664
1330,55.46666666666667,-439.46666666666664,273.06666666666666
1331,61.86666666666667,-437.3333333333333,281.6
1332,61.86666666666667,-441.59999999999997,277.3333333333333
1333,53.333333333333336,-439.46666666666664,281.6
1334,64.0,-439.46666666666664,275.2
1335,66.13333333333333,-448.0,277.3333333333333
1336,64.0,-445.8666666666667,281.6
1337,64.0,-437.3333333333333,275.2
1338,57.6,-448.0,285.8666666666667
1339,61.86666666666667,-441.59999999999997,288.0
1340,53.333333333333336,-437.3333333333333,279.46666666666664
1341,53.333333333333336,-439.46666666666664,277.3333333333333
1342,53.333333333333336,-435.2,283.73333333333335
1343,61.86666666666667,-437.3333333333333,283.73333333333335
1344,59.733333333333334,-437.3333333333333,279.46666666666664
1345,55.46666666666667,-437.3333333333333,279.46666666666664
1346,57.6,-437.3333333333333,277.3333333333333
1347,51.2,-435.2,285.8666666666667
1348,55.46666666666667,-450.1333333333333,281.6
1349,55.46666666666667,-430.93333333333334,277.3333333333333
1350,51.2,-437.3333333333333,279.46666666666664
1351,53.333333333333336,-443.73333333333335,279.46666666666664
1352,66.13333333333333,-439.46666666666664,277.3333333333333
1353,59.733333333333334,-437.3333333333333,279.46666666666664
1354,64.0,-445.8666666666667,277.3333333333333
1355,55.46666666666667,-441.59999999999997,277.3333333333333
1356,61.86666666666667,-441.59999999999997,279.46666666666664
1357,59.733333333333334,-439.46666666666664,277.3333333333333
1358,61.86666666666667,-439.46666666666664,281.6
1359,64.0,-445.8666666666667,279.46666666666664
1360,66.13333333333333,-443.73333333333335,277.3333333333333
1361,64.0,-443.73333333333335,277.3333333333333
1362,55.46666666666667,-439.46666666666664,283.73333333333335
1363,57.6,-450.1333333333333,273.06666666666666
1364,64.0,-441.59999999999997,285.8666666666667
1365,61.86666666666667,-441.59999999999997,277.3333333333333
1366,57.6,-441.59999999999997,285.8666666666667
1367,61.86666666666667,-439.46666666666664,281.6
1368,61.86666666666667,-443.73333333333335,277.3333333333333
1369,59.733333333333334,-441.59999999999997,277.3333333333333
1370,66.13333333333333,-443.73333333333335,290.1333333333333
1371,64.0,-433.06666666666666,275.2
1372,64.0,-443.73333333333335,277.3333333333333
1373,61.86666666666667,-437.3333333333333,275.2
1374,51.2,-435.2,270.93333333333334
1375,61.86666666666667,-435.2,277.3333333333333
1376,59.733333333333334,-435.2,279.46666666666664
1377,57.6,-435.2,285.8666666666667
1378,55.46666666666667,-439.46666666666664,281.6
1379,57.6,-439.46666666666664,281.6
1380,64.0,-435.2,275.2
1381,57.6,-433.06666666666666,275.2
1382,57.6,-441.59999999999997,270.93333333333334
1383,57.6,-435.2,279.46666666666664
1384,57.6,-443.73333333333335,277.3333333333333
1385,59.733333333333334,-443.73333333333335,275.2
1386,53.333333333333336,-445.8666666666667,283.73333333333335
1387,55.46666666666667,-445.8666666666667,275.2
1388,59.733333333333334,-448.0,288.0
1389,53.333333333333336,-443.73333333333335,281.6
1390,55.46666666666667,-441.59999999999997,283.73333333333335
1391,66.13333333333333,-452.26666666666665,283.73333333333335
1392,57.6,-441.59999999999997,277.3333333333333
1393,64.0,-443.73333333333335,275.2
1394,64.0,-433.06666666666666,279.46666666666664
1395,59.733333333333334,-441.59999999999997,277.3333333333333
1396,59.733333333333334,-439.46666666666664,279.46666666666664
1397,59.733333333333334,-435.2,281.6
1398,61.86666666666667,-435.2,277.3333333333333
1399,57.6,-439.46666666666664,279.46666666666664
1400,61.86666666666667,-428.8,279.46666666666664
1401,51.2,-435.2,285.8666666666667
1402,68.26666666666667,-437.3333333333333,292.26666666666665
1403,72.53333333333333,-439.46666666666664,285.8666666666667
1404,61.86666666666667,-441.59999999999997,277.3333333333333
1405,61.86666666666667,-452.26666666666665,279.46666666666664
1406,64.0,-450.1333333333333,279.46666666666664
1407,46.93333333333333,-439.46666666666664,290.1333333333333
1408,53.333333333333336,-437.3333333333333,285.8666666666667
1409,61.86666666666667,-441.59999999999997,281.6
1410,57.6,-445.8666666666667,275.2
1411,55.46666666666667,-441.59999999999997,281.6
1412,59.733333333333334,-441.59999999999997,273.06666666666666
1413,64.0,-452.26666666666665,275.2
1414,68.26666666666667,-443.73333333333335,273.06666666666666
1415,59.733333333333334,-437.3333333333333,273.06666666666666
1416,59.733333333333334,-435.2,277.3333333333333
1417,55.46666666666667,-445.8666666666667,290.1333333333333
1418,61.86666666666667,-437.3333333333333,285.8666666666667
1419,61.86666666666667,-437.3333333333333,281.6
1420,64.0,-437.3333333333333,288.0
1421,59.733333333333334,-435.2,277.3333333333333
1422,51.2,-435.2,279.46666666666664
1423,70.4,-445.8666666666667,281.6
1424,55.46666666666667,-437.3333333333333,283.73333333333335
1425,53.333333333333336,-435.2,281.6
1426,59.733333333333334,-433.06666666666666,281.6
1427,55.46666666666667,-441.59999999999997,279.46666666666664
1428,53.333333333333336,-441.59999999999997,279.46666666666664
1429,57.6,-437.3333333333333,277.3333333333333
1430,59.733333333333334,-445.8666666666667,285.8666666666667
1431,59.733333333333334,-437.3333333333333,279.46666666666664
1432,61.86666666666667,-441.59999999999997,285.8666666666667
1433,53.333333333333336,-435.2,288.0
1434,59.733333333333334,-441.59999999999997,279.46666666666664
1435,57.6,-439.46666666666664,292.26666666666665
1436,61.86666666666667,-439.46666666666664,281.6
1437,64.0,-437.3333333333333,285.8666666666667
1438,59.733333333333334,-435.2,279.46666666666664
1439,61.86666666666667,-445.8666666666667,279.46666666666664
1440,55.46666666666667,-433.06666666666666,275.2
1441,57.6,-435.2,277.3333333333333
1442,66.13333333333333,-439.46666666666664,279.46666666666664
1443,59.733333333333334,-439.46666666666664,277.3333333333333
1444,64.0,-448.0,283.73333333333335
1445,59.733333333333334,-439.46666666666664,279.46666666666664
1446,68.26666666666667,-441.59999999999997,281.6
1447,59.733333333333334,-450.1333333333333,281.6
1448,59.733333333333334,-439.46666666666664,279.46666666666664
1449,53.333333333333336,-428.8,275.2
1450,53.333333333333336,-424.5333333333333,285.8666666666667
1451,59.733333333333334,-435.2,277.3333333333333
1452,61.86666666666667,-439.46666666666664,275.2
1453,55.46666666666667,-439.46666666666664,285.8666666666667
1454,59.733333333333334,-437.3333333333333,277.3333333333333
1455,59.733333333333334,-439.46666666666664,288.0
1456,59.733333333333334,-441.59999999999997,290.1333333333333
1457,59.733333333333334,-439.46666666666664,290.1333333333333
1458,55.46666666666667,-439.46666666666664,296.5333333333333
1459,59.733333333333334,-441.59999999999997,298.6666666666667
1460,61.86666666666667,-441.59999999999997,281.6
1461,57.6,-439.46666666666664,292.26666666666665
1462,57.6,-439.46666666666664,285.8666666666667
1463,57.6,-439.46666666666664,281.6
1464,57.6,-441.59999999999997,277.3333333333333
1465,64.0,-437.3333333333333,279.46666666666664
1466,57.6,-439.46666666666664,283.73333333333335
1467,55.46666666666667,-439.46666666666664,288.0
1468,51.2,-435.2,285.8666666666667
1469,59.733333333333334,-430.93333333333334,283.73333333333335
1470,59.733333333333334,-437.3333333333333,283.73333333333335
1471,64.0,-433.06666666666666,290.1333333333333
1472,55.46666666666667,-439.46666666666664,281.6
1473,61.86666666666667,-439.46666666666664,283.73333333333335
1474,57.6,-435.2,290.1333333333333
1475,53.333333333333336,-433.06666666666666,281.6
1476,55.46666666666667,-433.06666666666666,279.46666666666664
1477,57.6,-428.8,283.73333333333335
1478,66.13333333333333,-439.46666666666664,279.46666666666664
1479,55.46666666666667,-424.5333333333333,277.3333333333333
1480,55.46666666666667,-426.6666666666667,288.0
1481,55.46666666666667,-439.46666666666664,288.0
1482,53.333333333333336,-441.59999999999997,281.6
1483,51.2,-448.0,292.26666666666665
1484,55.46666666666667,-437.3333333333333,285.8666666666667
1485,61.86666666666667,-437.3333333333333,283.73333333333335
1486,59.733333333333334,-441.59999999999997,285.8666666666667
1487,59.733333333333334,-443.73333333333335,290.1333333333333
1488,59.733333333333334,-441.59999999999997,279.46666666666664
1489,49.06666666666666,-443.73333333333335,279.46666666666664
1490,59.733333333333334,-437.3333333333333,283.73333333333335
1491,64.0,-433.06666666666666,277.3333333333333
1492,53.333333333333336,-441.59999999999997,275.2
1493,64.0,-443.73333333333335,275.2
1494,57.6,-433.06666666666666,283.73333333333335
1495,59.733333333333334,-439.46666666666664,288.0
1496,61.86666666666667,-441.59999999999997,292.26666666666665
1497,57.6,-437.3333333333333,279.46666666666664
1498,61.86666666666667,-433.06666666666666,281.6
1499,59.733333333333334,-443.73333333333335,281.6
1500,66.13333333333333,-441.59999999999997,277.3333333333333
1501,57.6,-437.3333333333333,290.1333333333333
1502,55.46666666666667,-433.06666666666666,279.46666666666664
1503,55.46666666666667,-437.3333333333333,283.73333333333335
1504,64.0,-454.4,281.6
1505,57.6,-439.46666666666664,281.6
1506,59.733333333333334,-428.8,279.46666666666664
1507,61.86666666666667,-435.2,281.6
1508,61.86666666666667,-439.46666666666664,285.8666666666667
1509,66.13333333333333,-441.59999999999997,290.1333333333333
1510,61.86666666666667,-437.3333333333333,285.8666666666667
1511,53.333333333333336,-433.06666666666666,283.73333333333335
1512,64.0,-435.2,279.46666666666664
1513,57.6,-435.2,281.6
1514,68.26666666666667,-435.2,290.1333333333333
1515,55.46666666666667,-448.0,275.2
1516,64.0,-435.2,290.1333333333333
1517,64.0,-435.2,285.8666666666667
1518,64.0,-437.3333333333333,292.26666666666665
1519,59.733333333333334,-437.3333333333333,288.0
1520,55.46666666666667,-433.06666666666666,288.0
1521,61.86666666666667,-435.2,281.6
1522,59.733333333333334,-435.2,279.46666666666664
1523,55.46666666666667,-433.06666666666666,285.8666666666667
1524,55.46666666666667,-435.2,277.3333333333333
1525,57.6,-437.3333333333333,294.4
1526,55.46666666666667,-443.73333333333335,279.46666666666664
1527,57.6,-437.3333333333333,279.46666666666664
1528,57.6,-439.46666666666664,283.73333333333335
1529,57.6,-430.93333333333334,275.2
1530,57.6,-435.2,292.26666666666665
1531,57.6,-433.06666666666666,288.0
1532,61.86666666666667,-437.3333333333333,281.6
1533,57.6,-437.3333333333333,283.73333333333335
1534,59.733333333333334,-437.3333333333333,283.73333333333335
1535,64.0,-433.06666666666666,288.0
1536,57.6,-443.73333333333335,285.8666666666667
1537,51.2,-430.93333333333334,277.3333333333333
1538,53.333333333333336,-439.46666666666664,283.73333333333335
1539,55.46666666666667,-437.3333333333333,283.73333333333335
1540,53.333333333333336,-430.93333333333334,277.3333333333333
1541,61.86666666666667,-437.3333333333333,285.8666666666667
1542,59.733333333333334,-443.73333333333335,283.73333333333335
1543,64.0,-441.59999999999997,288.0
1544,61.86666666666667,-445.8666666666667,277.3333333333333
1545,64.0,-441.59999999999997,273.06666666666666
1546,68.26666666666667,-435.2,285.8666666666667
1547,53.333333333333336,-439.46666666666664,281.6
1548,57.6,-439.46666666666664,275.2
1549,57.6,-428.8,283.73333333333335
1550,53.333333333333336,-428.8,279.46666666666664
1551,51.2,-435.2,281.6
1552,55.46666666666667,-437.3333333333333,285.8666666666667
1553,61.86666666666667,-428.8,290.1333333333333
1554,53.333333333333336,-435.2,288.0
1555,42.666666666666664,-433.06666666666666,275.2
1556,57.6,-443.73333333333335,288.0
1557,51.2,-428.8,283.73333333333335
1558,59.733333333333334,-441.59999999999997,294.4
1559,61.86666666666667,-437.3333333333333,285.8666666666667
1560,55.46666666666667,-430.93333333333334,283.73333333333335
1561,59.733333333333334,-439.46666666666664,285.8666666666667
1562,55.46666666666667,-435.2,294.4
1563,55.46666666666667,-435.2,283.73333333333335
1564,59.733333333333334,-433.06666666666666,283.73333333333335
1565,61.86666666666667,-439.46666666666664,279.46666666666664
1566,66.13333333333333,-443.73333333333335,285.8666666666667
1567,61.86666666666667,-443.73333333333335,279.46666666666664
1568,59.733333333333334,-437.3333333333333,277.3333333333333
1569,61.86666666666667,-437.3333333333333,277.3333333333333
1570,57.6,-445.8666666666667,268.8
1571,59.733333333333334,-441.59999999999997,283.73333333333335
1572,59.733333333333334,-437.3333333333333,285.8666666666667
1573,55.46666666666667,-433.06666666666666,281.6
1574,55.46666666666667,-437.3333333333333,279.46666666666664
1575,59.733333333333334,-433.06666666666666,285.8666666666667
1576,61.86666666666667,-445.8666666666667,279.46666666666664
1577,51.2,-441.59999999999997,283.73333333333335
1578,53.333333333333336,-439.46666666666664,277.3333333333333
1579,61.86666666666667,-439.46666666666664,285.8666666666667
1580,51.2,-445.8666666666667,283.73333333333335
1581,57.6,-445.8666666666667,275.2
1582,59.733333333333334,-435.2,279.46666666666664
1583,55.46666666666667,-433.06666666666666,283.73333333333335
1584,55.46666666666667,-435.2,285.8666666666667
1585,51.2,-435.2,283.73333333333335
1586,57.6,-430.93333333333334,283.73333333333335
1587,61.86666666666667,-441.59999999999997,277.3333333333333
1588,51.2,-435.2,273.06666666666666
1589,66.13333333333333,-441.59999999999997,281.6
1590,61.86666666666667,-435.2,275.2
1591,66.13333333333333,-454.4,275.2
1592,55.46666666666667,-439.46666666666664,281.6
1593,61.86666666666667,-445.8666666666667,283.73333333333335
1594,64.0,-439.46666666666664,283.73333333333335
1595,59.733333333333334,-445.8666666666667,283.73333333333335
1596,59.733333333333334,-435.2,281.6
1597,55.46666666666667,-435.2,283.73333333333335
1598,64.0,-441.59999999999997,277.3333333333333
1599,57.6,-445.8666666666667,283.73333333333335
1600,59.733333333333334,-441.59999999999997,277.3333333333333
1601,64.0,-439.46666666666664,277.3333333333333
1602,51.2,-445.8666666666667,283.73333333333335
1603,68.26666666666667,-437.3333333333333,283.73333333333335
1604,64.0,-435.2,290.1333333333333
1605,55.46666666666667,-433.06666666666666,281.6
1606,57.6,-430.93333333333334,281.6
1607,57.6,-437.3333333333333,285.8666666666667
1608,57.6,-437.3333333333333,288.0
1609,51.2,-430.93333333333334,288.0
1610,59.733333333333334,-445.8666666666667,283.73333333333335
1611,55.46666666666667,-435.2,283.73333333333335
1612,57.6,-433.06666666666666,277.3333333333333
1613,55.46666666666667,-437.3333333333333,288.0
1614,55.46666666666667,-435.2,288.0
1615,57.6,-437.3333333333333,279.46666666666664
1616,57.6,-433.06666666666666,285.8666666666667
1617,55.46666666666667,-433.06666666666666,283.73333333333335
1618,55.46666666666667,-437.3333333333333,285.8666666666667
1619,64.0,-437.3333333333333,281.6
1620,57.6,-445.8666666666667,288.0
1621,64.0,-435.2,290.1333333333333
1622,49.06666666666666,-437.3333333333333,279.46666666666664
1623,70.4,-441.59999999999997,281.6
1624,55.46666666666667,-433.06666666666666,285.8666666666667
1625,61.86666666666667,-437.3333333333333,279.46666666666664
1626,64.0,-435.2,281.6
1627,57.6,-435.2,281.6
1628,57.6,-439.46666666666664,277.3333333333333
1629,55.46666666666667,-439.46666666666664,279.46666666666664
1630,57.6,-437.3333333333333,281.6
1631,61.86666666666667,-435.2,281.6
1632,57.6,-435.2,279.46666666666664
1633,55.46666666666667,-441.59999999999997,279.46666666666664
1634,55.46666666666667,-439.46666666666664,283.73333333333335
1635,64.0,-437.3333333333333,298.6666666666667
1636,53.333333333333336,-430.93333333333334,281.6
1637,51.2,-437.3333333333333,283.73333333333335
1638,46.93333333333333,-435.2,281.6
1639,55.46666666666667,-437.3333333333333,288.0
1640,57.6,-441.59999999999997,281.6
1641,53.333333333333336,-433.06666666666666,283.73333333333335
1642,68.26666666666667,-445.8666666666667,285.8666666666667
1643,55.46666666666667,-437.3333333333333,279.46666666666664
1644,57.6,-428.8,277.3333333333333
1645,59.733333333333334,-443.73333333333335,281.6
1646,57.6,-441.59999999999997,279.46666666666664
1647,57.6,-443.73333333333335,281.6
1648,64.0,-439.46666666666664,283.73333333333335
1649,55.46666666666667,-433.06666666666666,277.3333333333333
1650,57.6,-430.93333333333334,277.3333333333333
1651,57.6,-433.06666666666666,285.8666666666667
1652,57.6,-437.3333333333333,283.73333333333335
1653,59.733333333333334,-435.2,281.6
1654,53.333333333333336,-437.3333333333333,281.6
1655,57.6,-439.46666666666664,288.0
1656,68.26666666666667,-443.73333333333335,292.26666666666665
1657,59.733333333333334,-443.73333333333335,288.0
1658,59.733333333333334,-439.46666666666664,279.46666666666664
1659,59.733333333333334,-437.3333333333333,279.46666666666664
1660,57.6,-437.3333333333333,283.73333333333335
1661,59.733333333333334,-437.3333333333333,275.2
1662,49.06666666666666,-435.2,279.46666666666664
1663,59.733333333333334,-439.46666666666664,279.46666666666664
1664,61.86666666666667,-443.73333333333335,281.6
1665,59.733333333333334,-435.2,283.73333333333335
1666,57.6,-437.3333333333333,283.73333333333335
1667,68.26666666666667,-445.8666666666667,279.46666666666664
1668,49.06666666666666,-441.59999999999997,288.0
1669,64.0,-439.46666666666664,275.2
1670,61.86666666666667,-430.93333333333334,279.46666666666664
1671,61.86666666666667,-439.46666666666664,279.46666666666664
1672,61.86666666666667,-443.73333333333335,279.46666666666664
1673,59.733333333333334,-437.3333333333333,277.3333333333333
1674,59.733333333333334,-433.06666666666666,285.8666666666667
1675,59.733333333333334,-435.2,279.46666666666664
1676,64.0,-439.46666666666664,283.73333333333335
1677,59.733333333333334,-435.2,279.46666666666664
1678,57.6,-439.46666666666664,277.3333333333333
1679,55.46666666666667,-437.3333333333333,273.06666666666666
1680,64.0,-437.3333333333333,279.46666666666664
1681,57.6,-439.46666666666664,275.2
1682,57.6,-437.3333333333333,279.46666666666664
1683,57.6,-441.59999999999997,281.6
1684,53.333333333333336,-437.3333333333333,292.26666666666665
1685,49.06666666666666,-435.2,281.6
1686,59.733333333333334,-443.73333333333335,290.1333333333333
1687,59.733333333333334,-439.46666666666664,283.73333333333335
1688,66.13333333333333,-452.26666666666665,298.6666666666667
1689,40.53333333333333,-452.26666666666665,294.4
1690,55.46666666666667,-443.73333333333335,290.1333333333333
1691,61.86666666666667,-450.1333333333333,294.4
1692,55.46666666666667,-445.8666666666667,285.8666666666667
1693,57.6,-443.73333333333335,288.0
1694,57.6,-445.8666666666667,292.26666666666665
1695,55.46666666666667,-439.46666666666664,279.46666666666664
1696,66.13333333333333,-441.59999999999997,279.46666666666664
1697,57.6,-435.2,270.93333333333334
1698,57.6,-433.06666666666666,279.46666666666664
1699,61.86666666666667,-430.93333333333334,275.2
1700,55.46666666666667,-426.6666666666667,281.6
1701,61.86666666666667,-428.8,285.8666666666667
1702,57.6,-426.6666666666667,275.2
1703,61.86666666666667,-424.5333333333333,279.46666666666664
1704,66.13333333333333,-433.06666666666666,288.0
1705,57.6,-426.6666666666667,283.73333333333335
1706,59.733333333333334,-428.8,285.8666666666667
1707,57.6,-426.6666666666667,283.73333333333335
1708,61.86666666666667,-433.06666666666666,292.26666666666665
1709,68.26666666666667,-430.93333333333334,288.0
1710,68.26666666666667,-439.46666666666664,281.6
1711,57.6,-430.93333333333334,296.5333333333333
1712,55.46666666666667,-433.06666666666666,281.6
1713,55.46666666666667,-437.3333333333333,285.8666666666667
1714,66.13333333333333,-437.3333333333333,288.0
1715,57.6,-433.06666666666666,285.8666666666667
1716,59.733333333333334,-435.2,285.8666666666667
1717,55.46666666666667,-435.2,290.1333333333333
1718,61.86666666666667,-439.46666666666664,298.6666666666667
1719,46.93333333333333,-433.06666666666666,292.26666666666665
1720,51.2,-439.46666666666664,296.5333333333333
1721,51.2,-437.3333333333333,283.73333333333335
1722,59.733333333333334,-439.46666666666664,288.0
1723,57.6,-435.2,290.1333333333333
1724,53.333333333333336,-435.2,294.4
1725,51.2,-433.06666666666666,285.8666666666667
1726,51.2,-433.06666666666666,285.8666666666667
1727,49.06666666666666,-433.06666666666666,285.8666666666667
1728,55.46666666666667,-435.2,283.73333333333335
1729,49.06666666666666,-430.93333333333334,290.1333333333333
1730,53.333333333333336,-433.06666666666666,283.73333333333335
1731,49.06666666666666,-426.6666666666667,298.6666666666667
1732,51.2,-430.93333333333334,288.0
1733,44.8,-433.06666666666666,290.1333333333333
1734,57.6,-426.6666666666667,292.26666666666665
1735,57.6,-428.8,296.5333333333333
1736,59.733333333333334,-430.93333333333334,298.6666666666667
1737,64.0,-426.6666666666667,302.93333333333334
1738,57.6,-433.06666666666666,294.4
1739,57.6,-428.8,309.3333333333333
1740,57.6,-428.8,296.5333333333333
1741,64.0,-433.06666666666666,281.6
1742,59.733333333333334,-443.73333333333335,290.1333333333333
1743,61.86666666666667,-428.8,296.5333333333333
1744,59.733333333333334,-433.06666666666666,294.4
1745,64.0,-426.6666666666667,294.4
1746,61.86666666666667,-433.06666666666666,298.6666666666667
1747,61.86666666666667,-439.46666666666664,292.26666666666665
1748,59.733333333333334,-428.8,298.6666666666667
1749,57.6,-428.8,300.8
1750,57.6,-430.93333333333334,300.8
1751,57.6,-426.6666666666667,285.8666666666667
1752,59.733333333333334,-420.26666666666665,296.5333333333333
1753,55.46666666666667,-418.1333333333333,292.26666666666665
1754,53.333333333333336,-430.93333333333334,281.6
1755,55.46666666666667,-435.2,288.0
1756,64.0,-445.8666666666667,279.46666666666664
1757,53.333333333333336,-426.6666666666667,288.0
1758,55.46666666666667,-428.8,288.0
1759,59.733333333333334,-430.93333333333334,290.1333333333333
1760,53.333333333333336,-426.6666666666667,288.0
1761,55.46666666666667,-433.06666666666666,290.1333333333333
1762,61.86666666666667,-435.2,275.2
1763,64.0,-439.46666666666664,290.1333333333333
1764,55.46666666666667,-433.06666666666666,281.6
1765,57.6,-435.2,283.73333333333335
1766,55.46666666666667,-450.1333333333333,277.3333333333333
1767,55.46666666666667,-441.59999999999997,292.26666666666665
1768,55.46666666666667,-433.06666666666666,290.1333333333333
1769,55.46666666666667,-435.2,290.1333333333333
1770,53.333333333333336,-430.93333333333334,288.0
1771,61.86666666666667,-433.06666666666666,292.26666666666665
1772,59.733333333333334,-433.06666666666666,288.0
1773,42.666666666666664,-430.93333333333334,296.5333333333333
1774,61.86666666666667,-441.59999999999997,292.26666666666665
1775,66.13333333333333,-435.2,285.8666666666667
1776,57.6,-437.3333333333333,292.26666666666665
1777,57.6,-430.93333333333334,292.26666666666665
1778,59.733333333333334,-430.93333333333334,285.8666666666667
1779,53.333333333333336,-437.3333333333333,288.0
1780,53.333333333333336,-433.06666666666666,285.8666666666667
1781,66.13333333333333,-433.06666666666666,288.0
1782,57.6,-433.06666666666666,290.1333333333333
1783,55.46666666666667,-426.6666666666667,292.26666666666665
1784,59.733333333333334,-439.46666666666664,294.4
1785,49.06666666666666,-428.8,288.0
1786,55.46666666666667,-437.3333333333333,285.8666666666667
1787,55.46666666666667,-430.93333333333334,283.73333333333335
1788,68.26666666666667,-426.6666666666667,290.1333333333333
1789,51.2,-439.46666666666664,294.4
1790,57.6,-435.2,281.6
1791,49.06666666666666,-430.93333333333334,281.6
1792,61.86666666666667,-430.93333333333334,283.73333333333335
1793,61.86666666666667,-437.3333333333333,283.73333333333335
1794,53.333333333333336,-430.93333333333334,283.73333333333335
1795,49.06666666666666,-433.06666666666666,300.8
1796,55.46666666666667,-437.3333333333333,292.26666666666665
1797,61.86666666666667,-441.59999999999997,296.5333333333333
1798,53.333333333333336,-433.06666666666666,288.0
1799,61.86666666666667,-433.06666666666666,285.8666666666667
1800,55.46666666666667,-435.2,296.5333333333333
1801,59.733333333333334,-424.5333333333333,285.8666666666667
1802,59.733333333333334,-433.06666666666666,290.1333333333333
1803,64.0,-435.2,292.26666666666665
1804,57.6,-424.5333333333333,292.26666666666665
1805,59.733333333333334,-430.93333333333334,296.5333333333333
1806,59.733333333333334,-437.3333333333333,298.6666666666667
1807,59.733333333333334,-437.3333333333333,294.4
1808,61.86666666666667,-435.2,296.5333333333333
1809,66.13333333333333,-437.3333333333333,285.8666666666667
1810,57.6,-433.06666666666666,285.8666666666667
1811,57.6,-437.3333333333333,288.0
1812,61.86666666666667,-437.3333333333333,292.26666666666665
1813,57.6,-430.93333333333334,290.1333333333333
1814,57.6,-430.93333333333334,285.8666666666667
1815,53.333333333333336,-433.06666666666666,294.4
1816,53.333333333333336,-430.93333333333334,296.5333333333333
1817,51.2,-430.93333333333334,292.26666666666665
1818,57.6,-426.6666666666667,292.26666666666665
1819,55.46666666666667,-430.93333333333334,300.8
1820,55.46666666666667,-430.93333333333334,283.73333333333335
1821,55.46666666666667,-433.06666666666666,283.73333333333335
1822,55.46666666666667,-433.06666666666666,292.26666666666665
1823,49.06666666666666,-426.6666666666667,292.26666666666665
1824,57.6,-439.46666666666664,296.5333333333333
1825,51.2,-433.06666666666666,290.1333333333333
1826,44.8,-428.8,290.1333333333333
1827,46.93333333333333,-437.3333333333333,290.1333333333333
1828,53.333333333333336,-435.2,288.0
1829,59.733333333333334,-430.93333333333334,300.8
1830,66.13333333333333,-437.3333333333333,302.93333333333334
1831,55.46666666666667,-435.2,288.0
1832,55.46666666666667,-435.2,298.6666666666667
1833,57.6,-428.8,292.26666666666665
1834,61.86666666666667,-422.4,294.4
1835,57.6,-426.6666666666667,298.6666666666667
1836,66.13333333333333,-430.93333333333334,296.5333333333333
1837,61.86666666666667,-422.4,294.4
1838,66.13333333333333,-428.8,302.93333333333334
1839,68.26666666666667,-428.8,281.6
1840,66.13333333333333,-428.8,294.4
1841,64.0,-426.6666666666667,292.26666666666665
1842,55.46666666666667,-424.5333333333333,283.73333333333335
1843,61.86666666666667,-426.6666666666667,294.4
1844,61.86666666666667,-433.06666666666666,292.26666666666665
1845,59.733333333333334,-428.8,292.26666666666665
1846,57.6,-426.6666666666667,296.5333333333333
1847,53.333333333333336,-430.93333333333334,296.5333333333333
1848,59.733333333333334,-428.8,298.6666666666667
1849,59.733333333333334,-437.3333333333333,302.93333333333334
1850,66.13333333333333,-441.59999999999997,305.06666666666666
1851,57.6,-430.93333333333334,307.2
1852,59.733333333333334,-430.93333333333334,298.6666666666667
1853,42.666666666666664,-428.8,300.8
1854,59.733333333333334,-428.8,307.2
1855,57.6,-435.2,296.5333333333333
1856,57.6,-426.6666666666667,302.93333333333334
1857,55.46666666666667,-433.06666666666666,296.5333333333333
1858,55.46666666666667,-428.8,298.6666666666667
1859,64.0,-430.93333333333334,300.8
1860,51.2,-428.8,296.5333333333333
1861,51.2,-426.6666666666667,305.06666666666666
1862,55.46666666666667,-426.6666666666667,294.4
1863,66.13333333333333,-430.93333333333334,305.06666666666666
1864,55.46666666666667,-428.8,285.8666666666667
1865,53.333333333333336,-433.06666666666666,294.4
1866,57.6,-424.5333333333333,296.5333333333333
1867,61.86666666666667,-428.8,292.26666666666665
1868,53.333333333333336,-428.8,288.0
1869,53.333333333333336,-430.93333333333334,292.26666666666665
1870,51.2,-426.6666666666667,290.1333333333333
1871,59.733333333333334,-430.93333333333334,300.8
1872,59.733333333333334,-433.06666666666666,294.4
1873,64.0,-430.93333333333334,300.8
1874,61.86666666666667,-435.2,307.2
1875,51.2,-426.6666666666667,288.0
1876,57.6,-433.06666666666666,298.6666666666667
1877,53.333333333333336,-428.8,298.6666666666667
1878,55.46666666666667,-426.6666666666667,294.4
1879,51.2,-430.93333333333334,296.5333333333333
1880,57.6,-424.5333333333333,290.1333333333333
1881,49.06666666666666,-428.8,296.5333333333333
1882,64.0,-430.93333333333334,292.26666666666665
1883,59.733333333333334,-437.3333333333333,296.5333333333333
1884,53.333333333333336,-426.6666666666667,300.8
1885,57.6,-441.59999999999997,296.5333333333333
1886,42.666666666666664,-433.06666666666666,281.6
1887,55.46666666666667,-433.06666666666666,294.4
1888,51.2,-430.93333333333334,296.5333333333333
1889,53.333333333333336,-430.93333333333334,298.6666666666667
1890,51.2,-433.06666666666666,294.4
1891,61.86666666666667,-435.2,290.1333333333333
1892,53.333333333333336,-437.3333333333333,296.5333333333333
1893,64.0,-430.93333333333334,300.8
1894,59.733333333333334,-439.46666666666664,294.4
1895,59.733333333333334,-433.06666666666666,302.93333333333334
1896,57.6,-428.8,283.73333333333335
1897,64.0,-433.06666666666666,288.0
1898,57.6,-426.6666666666667,294.4
1899,55.46666666666667,-422.4,298.6666666666667
1900,59.733333333333334,-424.5333333333333,288.0
1901,64.0,-435.2,290.1333333333333
1902,57.6,-428.8,292.26666666666665
1903,46.93333333333333,-426.6666666666667,298.6666666666667
1904,59.733333333333334,-428.8,288.0
1905,59.733333333333334,-437.3333333333333,290.1333333333333
1906,53.333333333333336,-428.8,298.6666666666667
1907,57.6,-437.3333333333333,292.26666666666665
1908,55.46666666666667,-433.06666666666666,292.26666666666665
1909,53.333333333333336,-430.93333333333334,296.5333333333333
1910,59.733333333333334,-430.93333333333334,294.4
1911,53.333333333333336,-430.93333333333334,300.8
1912,61.86666666666667,-430.93333333333334,292.26666666666665
1913,55.46666666666667,-428.8,294.4
1914,55.46666666666667,-439.46666666666664,307.2
1915,59.733333333333334,-430.93333333333334,290.1333333333333
1916,61.86666666666667,-430.93333333333334,305.06666666666666
1917,53.333333333333336,-433.06666666666666,307.2
1918,66.13333333333333,-435.2,288.0
1919,59.733333333333334,-430.93333333333334,292.26666666666665
1920,61.86666666666667,-435.2,296.5333333333333
1921,57.6,-428.8,300.8
1922,59.733333333333334,-426.6666666666667,300.8
1923,57.6,-433.06666666666666,294.4
1924,51.2,-424.5333333333333,300.8
1925,53.333333333333336,-426.6666666666667,296.5333333333333
1926,53.333333333333336,-426.6666666666667,302.93333333333334
1927,64.0,-426.6666666666667,305.06666666666666
1928,57.6,-422.4,292.26666666666665
1929,51.2,-418.1333333333333,285.8666666666667
1930,51.2,-424.5333333333333,302.93333333333334
1931,55.46666666666667,-422.4,294.4
1932,59.733333333333334,-426.6666666666667,292.26666666666665
1933,53.333333333333336,-426.6666666666667,298.6666666666667
1934,61.86666666666667,-424.5333333333333,294.4
1935,61.86666666666667,-433.06666666666666,296.5333333333333
1936,53.333333333333336,-428.8,292.26666666666665
1937,57.6,-428.8,294.4
1938,51.2,-424.5333333333333,309.3333333333333
1939,51.2,-430.93333333333334,309.3333333333333
1940,53.333333333333336,-437.3333333333333,309.3333333333333
1941,59.733333333333334,-437.3333333333333,298.6666666666667
1942,61.86666666666667,-433.06666666666666,294.4
1943,61.86666666666667,-430.93333333333334,294.4
1944,53.333333333333336,-428.8,298.6666666666667
1945,59.733333333333334,-433.06666666666666,292.26666666666665
1946,57.6,-433.06666666666666,290.1333333333333
1947,57.6,-426.6666666666667,292.26666666666665
1948,55.46666666666667,-424.5333333333333,292.26666666666665
1949,64.0,-428.8,298.6666666666667
1950,49.06666666666666,-422.4,300.8
1951,44.8,-424.5333333333333,302.93333333333334
1952,55.46666666666667,-420.26666666666665,296.5333333333333
1953,59.733333333333334,-420.26666666666665,305.06666666666666
1954,55.46666666666667,-426.6666666666667,292.26666666666665
1955,55.46666666666667,-426.6666666666667,305.06666666666666
1956,59.733333333333334,-422.4,307.2
1957,57.6,-430.93333333333334,296.5333333333333
1958,59.733333333333334,-428.8,309.3333333333333
1959,49.06666666666666,-424.5333333333333,296.5333333333333
1960,55.46666666666667,-424.5333333333333,290.1333333333333
1961,57.6,-420.26666666666665,300.8
1962,46.93333333333333,-420.26666666666665,288.0
1963,55.46666666666667,-430.93333333333334,296.5333333333333
1964,46.93333333333333,-424.5333333333333,307.2
1965,59.733333333333334,-430.93333333333334,309.3333333333333
1966,53.333333333333336,-424.5333333333333,298.6666666666667
1967,57.6,-430.93333333333334,305.06666666666666
1968,53.333333333333336,-426.6666666666667,296.5333333333333
1969,53.333333333333336,-428.8,294.4
1970,64.0,-424.5333333333333,305.06666666666666
1971,49.06666666666666,-426.6666666666667,296.5333333333333
1972,64.0,-420.26666666666665,296.5333333333333
1973,53.333333333333336,-428.8,296.5333333333333
1974,61.86666666666667,-424.5333333333333,298.6666666666667
1975,57.6,-428.8,296.5333333333333
1976,55.46666666666667,-422.4,294.4
1977,55.46666666666667,-420.26666666666665,296.5333333333333
1978,55.46666666666667,-428.8,290.1333333333333
1979,51.2,-426.6666666666667,302.93333333333334
1980,57.6,-424.5333333333333,307.2
1981,53.333333333333336,-424.5333333333333,292.26666666666665
1982,53.333333333333336,-428.8,285.8666666666667
1983,55.46666666666667,-426.6666666666667,298.6666666666667
1984,57.6,-426.6666666666667,294.4
1985,55.46666666666667,-426.6666666666667,305.06666666666666
1986,59.733333333333334,-428.8,298.6666666666667
1987,55.46666666666667,-430.93333333333334,300.8
1988,61.86666666666667,-430.93333333333334,305.06666666666666
1989,55.46666666666667,-424.5333333333333,298.6666666666667
1990,55.46666666666667,-428.8,305.06666666666666
1991,55.46666666666667,-426.6666666666667,290.1333333333333
1992,57.6,-424.5333333333333,294.4
1993,61.86666666666667,-439.46666666666664,294.4
1994,61.86666666666667,-435.2,302.93333333333334
1995,61.86666666666667,-424.5333333333333,300.8
1996,57.6,-435.2,305.06666666666666
1997,57.6,-428.8,307.2
1998,61.86666666666667,-433.06666666666666,307.2
1999,53.333333333333336,-433.06666666666666,302.93333333333334
2000,57.6,-433.06666666666666,302.93333333333334
2001,51.2,-428.8,296.5333333333333
2002,57.6,-424.5333333333333,296.5333333333333
2003,51.2,-424.5333333333333,290.1333333333333
2004,53.333333333333336,-428.8,300.8
2005,46.93333333333333,-433.06666666666666,296.5333333333333
2006,51.2,-424.5333333333333,294.4
2007,51.2,-422.4,294.4
2008,53.333333333333336,-420.26666666666665,294.4
2009,57.6,-430.93333333333334,302.93333333333334
2010,51.2,-422.4,300.8
2011,61.86666666666667,-424.5333333333333,300.8
2012,61.86666666666667,-422.4,285.8666666666667
2013,53.333333333333336,-424.5333333333333,296.5333333333333
2014,59.733333333333334,-428.8,307.2
2015,61.86666666666667,-426.6666666666667,302.93333333333334
2016,59.733333333333334,-430.93333333333334,296.5333333333333
2017,61.86666666666667,-430.93333333333334,300.8
2018,66.13333333333333,-439.46666666666664,307.2
2019,61.86666666666667,-426.6666666666667,300.8
2020,55.46666666666667,-426.6666666666667,296.5333333333333
2021,57.6,-433.06666666666666,307.2
2022,53.333333333333336,-424.5333333333333,302.93333333333334
2023,64.0,-430.93333333333334,305.06666666666666
2024,61.86666666666667,-428.8,305.06666666666666
2025,66.13333333333333,-433.06666666666666,298.6666666666667
2026,57.6,-424.5333333333333,300.8
2027,57.6,-420.26666666666665,309.3333333333333
2028,57.6,-424.5333333333333,305.06666666666666
2029,61.86666666666667,-424.5333333333333,294.4
2030,55.46666666666667,-422.4,294.4
2031,59.733333333333334,-428.8,300.8
2032,55.46666666666667,-416.0,300.8
2033,53.333333333333336,-430.93333333333334,290.1333333333333
2034,57.6,-426.6666666666667,298.6666666666667
2035,57.6,-428.8,285.8666666666667
2036,57.6,-426.6666666666667,292.26666666666665
2037,59.733333333333334,-426.6666666666667,290.1333333333333
2038,57.6,-424.5333333333333,305.06666666666666
2039,57.6,-433.06666666666666,302.93333333333334
2040,61.86666666666667,-426.6666666666667,294.4
2041,61.86666666666667,-426.6666666666667,302.93333333333334
2042,64.0,-424.5333333333333,298.6666666666667
2043,61.86666666666667,-428.8,300.8
2044,59.733333333333334,-422.4,302.93333333333334
2045,59.733333333333334,-437.3333333333333,302.93333333333334
2046,57.6,-424.5333333333333,292.26666666666665
2047,64.0,-430.93333333333334,300.8
2048,57.6,-435.2,298.6666666666667
2049,59.733333333333334,-424.5333333333333,305.06666666666666
2050,57.6,-426.6666666666667,298.6666666666667
2051,59.733333333333334,-426.6666666666667,300.8
2052,53.333333333333336,-428.8,298.6666666666667
2053,55.46666666666667,-426.6666666666667,302.93333333333334
2054,55.46666666666667,-424.5333333333333,302.93333333333334
2055,55.46666666666667,-430.93333333333334,300.8
2056,61.86666666666667,-430.93333333333334,302.93333333333334
2057,51.2,-437.3333333333333,300.8
2058,53.333333333333336,-428.8,302.93333333333334
2059,49.06666666666666,-424.5333333333333,290.1333333333333
2060,59.733333333333334,-437.3333333333333,298.6666666666667
2061,59.733333333333334,-433.06666666666666,305.06666666666666
2062,57.6,-424.5333333333333,300.8
2063,57.6,-430.93333333333334,298.6666666666667
2064,51.2,-420.26666666666665,298.6666666666667
2065,53.333333333333336,-424.5333333333333,302.93333333333334
2066,53.333333333333336,-426.6666666666667,296.5333333333333
2067,59.733333333333334,-428.8,298.6666666666667
2068,61.86666666666667,-426.6666666666667,302.93333333333334
2069,64.0,-428.8,300.8
2070,57.6,-433.06666666666666,302.93333333333334
2071,51.2,-422.4,292.26666666666665
2072,59.733333333333334,-426.6666666666667,302.93333333333334
2073,51.2,-428.8,305.06666666666666
2074,59.733333333333334,-428.8,313.6
2075,55.46666666666667,-424.5333333333333,302.93333333333334
2076,55.46666666666667,-435.2,302.93333333333334
2077,57.6,-433.06666666666666,300.8
2078,55.46666666666667,-433.06666666666666,294.4
2079,57.6,-426.6666666666667,292.26666666666665
2080,55.46666666666667,-428.8,294.4
2081,55.46666666666667,-420.26666666666665,300.8
2082,53.333333333333336,-426.6666666666667,294.4
2083,59.733333333333334,-428.8,292.26666666666665
2084,64.0,-428.8,292.26666666666665
2085,57.6,-430.93333333333334,300.8
2086,57.6,-422.4,298.6666666666667
2087,57.6,-428.8,300.8
2088,55.46666666666667,-426.6666666666667,296.5333333333333
2089,61.86666666666667,-418.1333333333333,302.93333333333334
2090,57.6,-426.6666666666667,296.5333333333333
2091,55.46666666666667,-437.3333333333333,296.5333333333333
2092,51.2,-428.8,298.6666666666667
2093,55.46666666666667,-430.93333333333334,296.5333333333333
2094,53.333333333333336,-426.6666666666667,305.06666666666666
2095,57.6,-426.6666666666667,300.8
2096,57.6,-426.6666666666667,298.6666666666667
2097,55.46666666666667,-424.5333333333333,292.26666666666665
2098,51.2,-418.1333333333333,298.6666666666667
2099,53.333333333333336,-424.5333333333333,298.6666666666667
2100,57.6,-418.1333333333333,290.1333333333333
2101,55.46666666666667,-422.4,288.0
2102,55.46666666666667,-420.26666666666665,305.06666666666666
2103,51.2,-426.6666666666667,307.2
2104,76.8,-437.3333333333333,294.4
2105,57.6,-424.5333333333333,300.8
2106,64.0,-428.8,302.93333333333334
2107,64.0,-426.6666666666667,302.93333333333334
2108,57.6,-426.6666666666667,296.5333333333333
2109,61.86666666666667,-430.93333333333334,300.8
2110,66.13333333333333,-433.06666666666666,292.26666666666665
2111,66.13333333333333,-435.2,288.0
2112,68.26666666666667,-433.06666666666666,298.6666666666667
2113,55.46666666666667,-422.4,292.26666666666665
2114,66.13333333333333,-426.6666666666667,300.8
2115,55.46666666666667,-420.26666666666665,296.5333333333333
2116,57.6,-433.06666666666666,305.06666666666666
2117,55.46666666666667,-424.5333333333333,300.8
2118,57.6,-426.6666666666667,298.6666666666667
2119,55.46666666666667,-424.5333333333333,296.5333333333333
2120,55.46666666666667,-433.06666666666666,298.6666666666667
2121,59.733333333333334,-413.8666666666667,298.6666666666667
2122,66.13333333333333,-424.5333333333333,302.93333333333334
2123,66.13333333333333,-426.6666666666667,311.46666666666664
2124,53.333333333333336,-418.1333333333333,296.5333333333333
2125,72.53333333333333,-422.4,298.6666666666667
2126,57.6,-430.93333333333334,298.6666666666667
2127,51.2,-420.26666666666665,294.4
2128,55.46666666666667,-424.5333333333333,300.8
2129,59.733333333333334,-428.8,296.5333333333333
2130,57.6,-430.93333333333334,302.93333333333334
2131,51.2,-422.4,298.6666666666667
2132,51.2,-428.8,296.5333333333333
2133,49.06666666666666,-424.5333333333333,300.8
2134,66.13333333333333,-428.8,298.6666666666667
2135,61.86666666666667,-433.06666666666666,307.2
2136,61.86666666666667,-426.6666666666667,296.5333333333333
2137,59.733333333333334,-435.2,302.93333333333334
2138,49.06666666666666,-420.26666666666665,298.6666666666667
2139,51.2,-426.6666666666667,302.93333333333334
2140,59.733333333333334,-433.06666666666666,307.2
2141,59.733333333333334,-428.8,298.6666666666667
2142,61.86666666666667,-428.8,300.8
2143,59.733333333333334,-422.4,302.93333333333334
2144,51.2,-418.1333333333333,300.8
2145,57.6,-424.5333333333333,294.4
2146,64.0,-422.4,302.93333333333334
2147,76.8,-416.0,288.0
2148,59.733333333333334,-418.1333333333333,292.26666666666665
2149,51.2,-418.1333333333333,302.93333333333334
2150,59.733333333333334,-424.5333333333333,302.93333333333334
2151,59.733333333333334,-424.5333333333333,298.6666666666667
2152,59.733333333333334,-424.5333333333333,307.2
2153,59.733333333333334,-424.5333333333333,296.5333333333333
2154,57.6,-426.6666666666667,302.93333333333334
2155,64.0,-428.8,302.93333333333334
2156,53.333333333333336,-420.26666666666665,305.06666666666666
2157,61.86666666666667,-428.8,300.8
2158,51.2,-424.5333333333333,298.6666666666667
2159,49.06666666666666,-428.8,298.6666666666667
2160,53.333333333333336,-424.5333333333333,296.5333333333333
2161,55.46666666666667,-424.5333333333333,298.6666666666667
2162,57.6,-426.6666666666667,305.06666666666666
2163,61.86666666666667,-426.6666666666667,300.8
2164,55.46666666666667,-428.8,300.8
2165,57.6,-430.93333333333334,300.8
2166,55.46666666666667,-424.5333333333333,309.3333333333333
2167,51.2,-430.93333333333334,305.06666666666666
2168,57.6,-422.4,294.4
2169,57.6,-430.93333333333334,288.0
2170,57.6,-424.5333333333333,298.6666666666667
2171,57.6,-426.6666666666667,294.4
2172,55.46666666666667,-422.4,302.93333333333334
2173,57.6,-428.8,294.4
2174,55.46666666666667,-428.8,300.8
2175,55.46666666666667,-420.26666666666665,296.5333333333333
2176,53.333333333333336,-424.5333333333333,302.93333333333334
2177,57.6,-426.6666666666667,300.8
2178,53.333333333333336,-428.8,302.93333333333334
2179,64.0,-430.93333333333334,296.5333333333333
2180,70.4,-418.1333333333333,277.3333333333333
2181,61.86666666666667,-433.06666666666666,300.8
2182,55.46666666666667,-426.6666666666667,300.8
2183,61.86666666666667,-428.8,292.26666666666665
2184,55.46666666666667,-426.6666666666667,296.5333333333333
2185,61.86666666666667,-430.93333333333334,296.5333333333333
2186,66.13333333333333,-435.2,298.6666666666667
2187,59.733333333333334,-430.93333333333334,294.4
2188,64.0,-426.6666666666667,300.8
2189,59.733333333333334,-430.93333333333334,292.26666666666665
2190,55.46666666666667,-428.8,298.6666666666667
2191,74.66666666666667,-428.8,290.1333333333333
2192,59.733333333333334,-424.5333333333333,296.5333333333333
2193,55.46666666666667,-424.5333333333333,298.6666666666667
2194,61.86666666666667,-430.93333333333334,298.6666666666667
2195,59.733333333333334,-426.6666666666667,294.4
2196,57.6,-428.8,296.5333333333333
2197,61.86666666666667,-433.06666666666666,300.8
2198,64.0,-428.8,302.93333333333334
2199,57.6,-424.5333333333333,300.8
2200,66.13333333333333,-424.5333333333333,300.8
2201,53.333333333333336,-426.6666666666667,296.5333333333333
2202,57.6,-428.8,302.93333333333334
2203,61.86666666666667,-428.8,315.73333333333335
2204,59.733333333333334,-426.6666666666667,300.8
2205,55.46666666666667,-426.6666666666667,305.06666666666666
2206,59.733333333333334,-435.2,311.46666666666664
2207,55.46666666666667,-430.93333333333334,300.8
2208,49.06666666666666,-428.8,307.2
2209,57.6,-424.5333333333333,309.3333333333333
2210,53.333333333333336,-426.6666666666667,305.06666666666666
2211,57.6,-424.5333333333333,296.5333333333333
2212,61.86666666666667,-418.1333333333333,305.06666666666666
2213,49.06666666666666,-424.5333333333333,294.4
2214,42.666666666666664,-426.6666666666667,300.8
2215,49.06666666666666,-428.8,294.4
2216,59.733333333333334,-426.6666666666667,285.8666666666667
2217,53.333333333333336,-426.6666666666667,294.4
2218,57.6,-428.8,298.6666666666667
2219,55.46666666666667,-428.8,294.4
2220,61.86666666666667,-430.93333333333334,292.26666666666665
2221,66.13333333333333,-439.46666666666664,296.5333333333333
2222,64.0,-424.5333333333333,298.6666666666667
2223,55.46666666666667,-424.5333333333333,296.5333333333333
2224,61.86666666666667,-430.93333333333334,302.93333333333334
2225,64.0,-433.06666666666666,298.6666666666667
2226,57.6,-437.3333333333333,292.26666666666665
2227,57.6,-428.8,300.8
2228,53.333333333333336,-428.8,292.26666666666665
2229,55.46666666666667,-422.4,292.26666666666665
2230,61.86666666666667,-422.4,290.1333333333333
2231,57.6,-424.5333333333333,305.06666666666666
2232,61.86666666666667,-430.93333333333334,290.1333333333333
2233,61.86666666666667,-433.06666666666666,300.8
2234,46.93333333333333,-422.4,290.1333333333333
2235,57.6,-428.8,296.5333333333333
2236,57.6,-426.6666666666667,292.26666666666665
2237,55.46666666666667,-426.6666666666667,294.4
2238,55.46666666666667,-428.8,294.4
2239,51.2,-428.8,285.8666666666667
2240,61.86666666666667,-433.06666666666666,294.4
2241,59.733333333333334,-430.93333333333334,292.26666666666665
2242,55.46666666666667,-437.3333333333333,300.8
2243,55.46666666666667,-433.06666666666666,290.1333333333333
2244,55.46666666666667,-430.93333333333334,288.0
2245,57.6,-430.93333333333334,313.6
2246,59.733333333333334,-433.06666666666666,292.26666666666665
2247,55.46666666666667,-437.3333333333333,296.5333333333333
2248,57.6,-441.59999999999997,288.0
2249,57.6,-437.3333333333333,283.73333333333335
2250,53.333333333333336,-430.93333333333334,277.3333333333333
2251,59.733333333333334,-433.06666666666666,288.0
2252,57.6,-439.46666666666664,298.6666666666667
2253,59.733333333333334,-430.93333333333334,296.5333333333333
2254,59.733333333333334,-430.93333333333334,290.1333333333333
2255,49.06666666666666,-418.1333333333333,285.8666666666667
2256,49.06666666666666,-430.93333333333334,281.6
2257,57.6,-430.93333333333334,296.5333333333333
2258,61.86666666666667,-426.6666666666667,285.8666666666667
2259,59.733333333333334,-428.8,292.26666666666665
2260,55.46666666666667,-428.8,281.6
2261,55.46666666666667,-430.93333333333334,294.4
2262,59.733333333333334,-430.93333333333334,294.4
2263,55.46666666666667,-430.93333333333334,290.1333333333333
2264,53.333333333333336,-433.06666666666666,290.1333333333333
2265,55.46666666666667,-422.4,298.6666666666667
2266,59.733333333333334,-428.8,298.6666666666667
2267,55.46666666666667,-428.8,281.6
2268,61.86666666666667,-435.2,294.4
2269,53.333333333333336,-433.06666666666666,294.4
2270,51.2,-430.93333333333334,298.6666666666667
2271,55.46666666666667,-430.93333333333334,296.5333333333333
2272,64.0,-435.2,294.4
2273,61.86666666666667,-445.8666666666667,294.4
2274,49.06666666666666,-433.06666666666666,298.6666666666667
2275,53.333333333333336,-433.06666666666666,294.4
2276,53.333333333333336,-435.2,285.8666666666667
2277,61.86666666666667,-439.46666666666664,298.6666666666667
2278,51.2,-430.93333333333334,285.8666666666667
2279,55.46666666666667,-433.06666666666666,296.5333333333333
2280,59.733333333333334,-433.06666666666666,296.5333333333333
2281,55.46666666666667,-430.93333333333334,296.5333333333333
2282,61.86666666666667,-428.8,298.6666666666667
2283,59.733333333333334,-433.06666666666666,296.5333333333333
2284,57.6,-424.5333333333333,290.1333333333333
2285,57.6,-430.93333333333334,298.6666666666667
2286,64.0,-426.6666666666667,290.1333333333333
2287,57.6,-430.93333333333334,298.6666666666667
2288,59.733333333333334,-428.8,292.26666666666665
2289,61.86666666666667,-428.8,281.6
2290,66.13333333333333,-433.06666666666666,294.4
2291,61.86666666666667,-435.2,296.5333333333333
2292,55.46666666666667,-424.5333333333333,292.26666666666665
2293,66.13333333333333,-430.93333333333334,283.73333333333335
2294,57.6,-430.93333333333334,300.8
2295,53.333333333333336,-435.2,294.4
2296,59.733333333333334,-428.8,288.0
2297,57.6,-428.8,292.26666666666665
2298,53.333333333333336,-430.93333333333334,294.4
2299,59.733333333333334,-435.2,294.4
2300,59.733333333333334,-448.0,273.06666666666666
2301,59.733333333333334,-435.2,283.73333333333335
2302,64.0,-437.3333333333333,283.73333333333335
2303,53.333333333333336,-428.8,285.8666666666667
2304,64.0,-435.2,283.73333333333335
2305,57.6,-437.3333333333333,288.0
2306,64.0,-430.93333333333334,294.4
2307,53.333333333333336,-422.4,296.5333333333333
2308,64.0,-433.06666666666666,288.0
2309,61.86666666666667,-435.2,290.1333333333333
2310,55.46666666666667,-428.8,292.26666666666665
2311,57.6,-435.2,288.0
2312,61.86666666666667,-437.3333333333333,288.0
2313,61.86666666666667,-435.2,290.1333333333333
2314,66.13333333333333,-426.6666666666667,290.1333333333333
2315,64.0,-433.06666666666666,288.0
2316,64.0,-433.06666666666666,296.5333333333333
2317,61.86666666666667,-428.8,283.73333333333335
2318,55.46666666666667,-433.06666666666666,288.0
2319,66.13333333333333,-433.06666666666666,290.1333333333333
2320,57.6,-428.8,292.26666666666665
2321,53.333333333333336,-437.3333333333333,300.8
2322,55.46666666666667,-433.06666666666666,298.6666666666667
2323,55.46666666666667,-435.2,288.0
2324,59.733333333333334,-435.2,296.5333333333333
2325,53.333333333333336,-433.06666666666666,290.1333333333333
2326,51.2,-424.5333333333333,294.4
2327,55.46666666666667,-430.93333333333334,292.26666666666665
2328,55.46666666666667,-430.93333333333334,300.8
2329,61.86666666666667,-426.6666666666667,298.6666666666667
2330,57.6,-430.93333333333334,290.1333333333333
2331,59.733333333333334,-430.93333333333334,296.5333333333333
2332,55.46666666666667,-430.93333333333334,285.8666666666667
2333,57.6,-428.8,296.5333333333333
2334,55.46666666666667,-428.8,285.8666666666667
2335,57.6,-424.5333333333333,294.4
2336,64.0,-435.2,294.4
2337,61.86666666666667,-430.93333333333334,294.4
2338,66.13333333333333,-433.06666666666666,292.26666666666665
2339,66.13333333333333,-426.6666666666667,300.8
2340,66.13333333333333,-433.06666666666666,292.26666666666665
2341,61.86666666666667,-433.06666666666666,294.4
2342,61.86666666666667,-435.2,292.26666666666665
2343,55.46666666666667,-439.46666666666664,288.0
2344,51.2,-428.8,298.6666666666667
2345,61.86666666666667,-433.06666666666666,292.26666666666665
2346,55.46666666666667,-435.2,281.6
2347,51.2,-435.2,296.5333333333333
2348,57.6,-435.2,294.4
2349,51.2,-430.93333333333334,292.26666666666665
2350,51.2,-424.5333333333333,296.5333333333333
2351,53.333333333333336,-433.06666666666666,288.0
2352,49.06666666666666,-424.5333333333333,292.26666666666665
2353,59.733333333333334,-424.5333333333333,292.26666666666665
2354,53.333333333333336,-433.06666666666666,296.5333333333333
2355,57.6,-428.8,294.4
2356,53.333333333333336,-433.06666666666666,290.1333333333333
2357,59.733333333333334,-433.06666666666666,294.4
2358,55.46666666666667,-430.93333333333334,292.26666666666665
2359,55.46666666666667,-435.2,290.1333333333333
2360,66.13333333333333,-441.59999999999997,288.0
2361,68.26666666666667,-439.46666666666664,294.4
2362,64.0,-433.06666666666666,285.8666666666667
2363,61.86666666666667,-435.2,281.6
2364,53.333333333333336,-437.3333333333333,290.1333333333333
2365,55.46666666666667,-426.6666666666667,285.8666666666667
2366,59.733333333333334,-428.8,294.4
2367,57.6,-433.06666666666666,281.6
2368,55.46666666666667,-428.8,285.8666666666667
2369,57.6,-428.8,294.4
2370,59.733333333333334,-430.93333333333334,290.1333333333333
2371,61.86666666666667,-430.93333333333334,288.0
2372,55.46666666666667,-428.8,292.26666666666665
2373,64.0,-430.93333333333334,281.6
2374,68.26666666666667,-435.2,288.0
2375,57.6,-433.06666666666666,292.26666666666665
2376,68.26666666666667,-430.93333333333334,283.73333333333335
2377,59.733333333333334,-435.2,294.4
2378,64.0,-437.3333333333333,292.26666666666665
2379,59.733333333333334,-428.8,290.1333333333333
2380,57.6,-437.3333333333333,281.6
2381,59.733333333333334,-435.2,279.46666666666664
2382,59.733333333333334,-437.3333333333333,288.0
2383,59.733333333333334,-433.06666666666666,290.1333333333333
2384,61.86666666666667,-439.46666666666664,288.0
2385,57.6,-430.93333333333334,290.1333333333333
2386,57.6,-439.46666666666664,296.5333333333333
2387,55.46666666666667,-437.3333333333333,288.0
2388,57.6,-433.06666666666666,288.0
2389,51.2,-433.06666666666666,296.5333333333333
2390,59.733333333333334,-437.3333333333333,292.26666666666665
2391,57.6,-428.8,292.26666666666665
2392,66.13333333333333,-437.3333333333333,290.1333333333333
2393,64.0,-430.93333333333334,283.73333333333335
2394,64.0,-430.93333333333334,294.4
2395,61.86666666666667,-437.3333333333333,294.4
2396,59.733333333333334,-437.3333333333333,290.1333333333333
2397,53.333333333333336,-430.93333333333334,294.4
2398,66.13333333333333,-439.46666666666664,307.2
2399,59.733333333333334,-426.6666666666667,298.6666666666667
