,accelerometerAccelerationX(G),accelerometerAccelerationY(G),accelerometerAccelerationZ(G)
0,23.466666666666665,-503.46666666666664,185.6
1,23.466666666666665,-509.8666666666667,185.6
2,27.733333333333334,-505.59999999999997,187.73333333333332
3,25.6,-507.73333333333335,183.46666666666667
4,21.333333333333332,-499.2,187.73333333333332
5,19.2,-512.0,185.6
6,23.466666666666665,-507.73333333333335,189.86666666666667
7,21.333333333333332,-505.59999999999997,185.6
8,19.2,-503.46666666666664,192.0
9,12.8,-509.8666666666667,187.73333333333332
10,23.466666666666665,-507.73333333333335,183.46666666666667
11,10.666666666666666,-505.59999999999997,194.13333333333333
12,21.333333333333332,-499.2,192.0
13,19.2,-503.46666666666664,202.66666666666666
14,12.8,-518.4,174.93333333333334
15,21.333333333333332,-507.73333333333335,187.73333333333332
16,25.6,-507.73333333333335,194.13333333333333
17,14.933333333333334,-501.3333333333333,200.53333333333333
18,21.333333333333332,-507.73333333333335,196.26666666666665
19,21.333333333333332,-501.3333333333333,200.53333333333333
20,21.333333333333332,-507.73333333333335,196.26666666666665
21,17.066666666666666,-505.59999999999997,200.53333333333333
22,14.933333333333334,-503.46666666666664,192.0
23,17.066666666666666,-503.46666666666664,192.0
24,19.2,-509.8666666666667,189.86666666666667
25,21.333333333333332,-501.3333333333333,196.26666666666665
26,12.8,-501.3333333333333,192.0
27,23.466666666666665,-503.46666666666664,183.46666666666667
28,19.2,-501.3333333333333,189.86666666666667
29,14.933333333333334,-503.46666666666664,194.13333333333333
30,17.066666666666666,-507.73333333333335,189.86666666666667
31,14.933333333333334,-503.46666666666664,194.13333333333333
32,14.933333333333334,-509.8666666666667,198.4
33,21.333333333333332,-509.8666666666667,196.26666666666665
34,19.2,-505.59999999999997,192.0
35,17.066666666666666,-507.73333333333335,187.73333333333332
36,19.2,-507.73333333333335,198.4
37,17.066666666666666,-501.3333333333333,185.6
38,19.2,-505.59999999999997,196.26666666666665
39,14.933333333333334,-501.3333333333333,181.33333333333334
40,19.2,-501.3333333333333,202.66666666666666
41,14.933333333333334,-501.3333333333333,194.13333333333333
42,19.2,-505.59999999999997,194.13333333333333
43,23.466666666666665,-509.8666666666667,192.0
44,19.2,-509.8666666666667,187.73333333333332
45,19.2,-507.73333333333335,196.26666666666665
46,19.2,-505.59999999999997,194.13333333333333
47,17.066666666666666,-503.46666666666664,196.26666666666665
48,12.8,-505.59999999999997,198.4
49,12.8,-505.59999999999997,187.73333333333332
50,25.6,-509.8666666666667,194.13333333333333
51,19.2,-501.3333333333333,194.13333333333333
52,17.066666666666666,-499.2,194.13333333333333
53,17.066666666666666,-507.73333333333335,185.6
54,14.933333333333334,-497.06666666666666,187.73333333333332
55,12.8,-503.46666666666664,192.0
56,17.066666666666666,-497.06666666666666,194.13333333333333
57,19.2,-507.73333333333335,187.73333333333332
58,17.066666666666666,-505.59999999999997,192.0
59,14.933333333333334,-503.46666666666664,196.26666666666665
60,17.066666666666666,-505.59999999999997,194.13333333333333
61,19.2,-505.59999999999997,189.86666666666667
62,14.933333333333334,-503.46666666666664,192.0
63,14.933333333333334,-507.73333333333335,183.46666666666667
64,14.933333333333334,-503.46666666666664,194.13333333333333
65,17.066666666666666,-497.06666666666666,194.13333333333333
66,12.8,-512.0,181.33333333333334
67,14.933333333333334,-507.73333333333335,192.0
68,14.933333333333334,-505.59999999999997,187.73333333333332
69,17.066666666666666,-505.59999999999997,189.86666666666667
70,12.8,-505.59999999999997,185.6
71,19.2,-503.46666666666664,187.73333333333332
72,12.8,-505.59999999999997,187.73333333333332
73,17.066666666666666,-509.8666666666667,179.2
74,10.666666666666666,-499.2,192.0
75,10.666666666666666,-503.46666666666664,189.86666666666667
76,17.066666666666666,-509.8666666666667,196.26666666666665
77,14.933333333333334,-509.8666666666667,189.86666666666667
78,17.066666666666666,-507.73333333333335,192.0
79,19.2,-503.46666666666664,185.6
80,10.666666666666666,-509.8666666666667,189.86666666666667
81,14.933333333333334,-503.46666666666664,192.0
82,19.2,-501.3333333333333,192.0
83,21.333333333333332,-501.3333333333333,192.0
84,23.466666666666665,-503.46666666666664,189.86666666666667
85,17.066666666666666,-501.3333333333333,187.73333333333332
86,19.2,-509.8666666666667,198.4
87,25.6,-512.0,200.53333333333333
88,19.2,-509.8666666666667,194.13333333333333
89,12.8,-501.3333333333333,183.46666666666667
90,10.666666666666666,-509.8666666666667,185.6
91,19.2,-501.3333333333333,192.0
92,23.466666666666665,-505.59999999999997,189.86666666666667
93,17.066666666666666,-509.8666666666667,192.0
94,21.333333333333332,-503.46666666666664,189.86666666666667
95,21.333333333333332,-501.3333333333333,179.2
96,17.066666666666666,-505.59999999999997,192.0
97,23.466666666666665,-501.3333333333333,194.13333333333333
98,23.466666666666665,-503.46666666666664,192.0
99,19.2,-505.59999999999997,192.0
100,21.333333333333332,-505.59999999999997,194.13333333333333
101,14.933333333333334,-505.59999999999997,194.13333333333333
102,14.933333333333334,-503.46666666666664,198.4
103,14.933333333333334,-505.59999999999997,189.86666666666667
104,17.066666666666666,-505.59999999999997,202.66666666666666
105,14.933333333333334,-503.46666666666664,192.0
106,14.933333333333334,-512.0,196.26666666666665
107,14.933333333333334,-499.2,196.26666666666665
108,14.933333333333334,-505.59999999999997,187.73333333333332
109,19.2,-505.59999999999997,194.13333333333333
110,12.8,-505.59999999999997,194.13333333333333
111,19.2,-497.06666666666666,189.86666666666667
112,19.2,-501.3333333333333,192.0
113,17.066666666666666,-501.3333333333333,196.26666666666665
114,14.933333333333334,-501.3333333333333,187.73333333333332
115,14.933333333333334,-505.59999999999997,189.86666666666667
116,17.066666666666666,-503.46666666666664,196.26666666666665
117,19.2,-501.3333333333333,189.86666666666667
118,17.066666666666666,-497.06666666666666,189.86666666666667
119,14.933333333333334,-503.46666666666664,192.0
120,12.8,-507.73333333333335,194.13333333333333
121,23.466666666666665,-507.73333333333335,192.0
122,14.933333333333334,-514.1333333333333,185.6
123,14.933333333333334,-494.93333333333334,202.66666666666666
124,27.733333333333334,-505.59999999999997,198.4
125,25.6,-507.73333333333335,194.13333333333333
126,14.933333333333334,-505.59999999999997,189.86666666666667
127,17.066666666666666,-503.46666666666664,200.53333333333333
128,14.933333333333334,-505.59999999999997,192.0
129,10.666666666666666,-499.2,196.26666666666665
130,14.933333333333334,-503.46666666666664,196.26666666666665
131,19.2,-505.59999999999997,192.0
132,17.066666666666666,-501.3333333333333,192.0
133,21.333333333333332,-503.46666666666664,196.26666666666665
134,17.066666666666666,-509.8666666666667,198.4
135,19.2,-509.8666666666667,196.26666666666665
136,19.2,-501.3333333333333,196.26666666666665
137,21.333333333333332,-509.8666666666667,194.13333333333333
138,17.066666666666666,-505.59999999999997,202.66666666666666
139,10.666666666666666,-501.3333333333333,198.4
140,21.333333333333332,-507.73333333333335,192.0
141,14.933333333333334,-509.8666666666667,194.13333333333333
142,14.933333333333334,-505.59999999999997,202.66666666666666
143,12.8,-509.8666666666667,198.4
144,19.2,-505.59999999999997,196.26666666666665
145,23.466666666666665,-509.8666666666667,200.53333333333333
146,23.466666666666665,-509.8666666666667,192.0
147,21.333333333333332,-512.0,196.26666666666665
148,14.933333333333334,-503.46666666666664,192.0
149,21.333333333333332,-494.93333333333334,200.53333333333333
150,19.2,-499.2,192.0
151,19.2,-501.3333333333333,192.0
152,21.333333333333332,-505.59999999999997,187.73333333333332
153,14.933333333333334,-503.46666666666664,196.26666666666665
154,21.333333333333332,-503.46666666666664,198.4
155,21.333333333333332,-505.59999999999997,198.4
156,21.333333333333332,-507.73333333333335,194.13333333333333
157,19.2,-507.73333333333335,196.26666666666665
158,23.466666666666665,-507.73333333333335,204.8
159,27.733333333333334,-503.46666666666664,189.86666666666667
160,19.2,-505.59999999999997,194.13333333333333
161,21.333333333333332,-507.73333333333335,194.13333333333333
162,17.066666666666666,-499.2,185.6
163,17.066666666666666,-501.3333333333333,198.4
164,19.2,-499.2,192.0
165,12.8,-503.46666666666664,198.4
166,17.066666666666666,-499.2,202.66666666666666
167,36.266666666666666,-499.2,183.46666666666667
168,12.8,-499.2,196.26666666666665
169,19.2,-499.2,196.26666666666665
170,14.933333333333334,-503.46666666666664,189.86666666666667
171,21.333333333333332,-505.59999999999997,194.13333333333333
172,25.6,-503.46666666666664,198.4
173,23.466666666666665,-507.73333333333335,194.13333333333333
174,17.066666666666666,-503.46666666666664,194.13333333333333
175,14.933333333333334,-499.2,200.53333333333333
176,21.333333333333332,-503.46666666666664,198.4
177,21.333333333333332,-509.8666666666667,194.13333333333333
178,17.066666666666666,-501.3333333333333,200.53333333333333
179,23.466666666666665,-514.1333333333333,189.86666666666667
180,23.466666666666665,-505.59999999999997,194.13333333333333
181,17.066666666666666,-501.3333333333333,189.86666666666667
182,21.333333333333332,-499.2,196.26666666666665
183,17.066666666666666,-503.46666666666664,196.26666666666665
184,10.666666666666666,-503.46666666666664,198.4
185,21.333333333333332,-505.59999999999997,194.13333333333333
186,23.466666666666665,-499.2,192.0
187,21.333333333333332,-505.59999999999997,200.53333333333333
188,23.466666666666665,-505.59999999999997,194.13333333333333
189,23.466666666666665,-505.59999999999997,198.4
190,17.066666666666666,-507.73333333333335,196.26666666666665
191,14.933333333333334,-499.2,206.93333333333334
192,19.2,-509.8666666666667,196.26666666666665
193,19.2,-501.3333333333333,194.13333333333333
194,19.2,-503.46666666666664,194.13333333333333
195,19.2,-501.3333333333333,198.4
196,21.333333333333332,-494.93333333333334,194.13333333333333
197,23.466666666666665,-503.46666666666664,198.4
198,14.933333333333334,-494.93333333333334,194.13333333333333
199,19.2,-503.46666666666664,192.0
200,29.866666666666667,-505.59999999999997,202.66666666666666
201,21.333333333333332,-499.2,189.86666666666667
202,25.6,-503.46666666666664,192.0
203,23.466666666666665,-503.46666666666664,185.6
204,27.733333333333334,-509.8666666666667,196.26666666666665
205,17.066666666666666,-499.2,187.73333333333332
206,19.2,-503.46666666666664,200.53333333333333
207,19.2,-505.59999999999997,194.13333333333333
208,19.2,-509.8666666666667,198.4
209,19.2,-509.8666666666667,194.13333333333333
210,12.8,-509.8666666666667,183.46666666666667
211,21.333333333333332,-503.46666666666664,196.26666666666665
212,25.6,-497.06666666666666,194.13333333333333
213,21.333333333333332,-497.06666666666666,196.26666666666665
214,25.6,-501.3333333333333,198.4
215,19.2,-503.46666666666664,196.26666666666665
216,19.2,-503.46666666666664,185.6
217,19.2,-509.8666666666667,204.8
218,21.333333333333332,-509.8666666666667,189.86666666666667
219,17.066666666666666,-509.8666666666667,194.13333333333333
220,21.333333333333332,-503.46666666666664,204.8
221,19.2,-509.8666666666667,194.13333333333333
222,17.066666666666666,-503.46666666666664,194.13333333333333
223,19.2,-505.59999999999997,189.86666666666667
224,17.066666666666666,-501.3333333333333,185.6
225,14.933333333333334,-503.46666666666664,194.13333333333333
226,19.2,-497.06666666666666,189.86666666666667
227,19.2,-499.2,200.53333333333333
228,21.333333333333332,-494.93333333333334,194.13333333333333
229,25.6,-505.59999999999997,198.4
230,19.2,-497.06666666666666,198.4
231,25.6,-499.2,204.8
232,19.2,-505.59999999999997,206.93333333333334
233,23.466666666666665,-512.0,200.53333333333333
234,23.466666666666665,-503.46666666666664,196.26666666666665
235,19.2,-503.46666666666664,202.66666666666666
236,14.933333333333334,-507.73333333333335,200.53333333333333
237,23.466666666666665,-501.3333333333333,200.53333333333333
238,21.333333333333332,-509.8666666666667,200.53333333333333
239,21.333333333333332,-505.59999999999997,194.13333333333333
240,17.066666666666666,-503.46666666666664,194.13333333333333
241,19.2,-497.06666666666666,196.26666666666665
242,25.6,-501.3333333333333,192.0
243,14.933333333333334,-512.0,192.0
244,21.333333333333332,-501.3333333333333,194.13333333333333
245,19.2,-505.59999999999997,196.26666666666665
246,23.466666666666665,-503.46666666666664,192.0
247,17.066666666666666,-501.3333333333333,198.4
248,21.333333333333332,-507.73333333333335,189.86666666666667
249,17.066666666666666,-503.46666666666664,189.86666666666667
250,23.466666666666665,-505.59999999999997,192.0
251,25.6,-505.59999999999997,194.13333333333333
252,21.333333333333332,-507.73333333333335,194.13333333333333
253,19.2,-501.3333333333333,198.4
254,19.2,-507.73333333333335,189.86666666666667
255,19.2,-509.8666666666667,183.46666666666667
256,21.333333333333332,-507.73333333333335,192.0
257,21.333333333333332,-505.59999999999997,187.73333333333332
258,19.2,-509.8666666666667,198.4
259,19.2,-503.46666666666664,198.4
260,19.2,-503.46666666666664,196.26666666666665
261,21.333333333333332,-503.46666666666664,194.13333333333333
262,14.933333333333334,-492.8,192.0
263,19.2,-499.2,198.4
264,19.2,-503.46666666666664,196.26666666666665
265,19.2,-497.06666666666666,202.66666666666666
266,19.2,-499.2,196.26666666666665
267,17.066666666666666,-505.59999999999997,194.13333333333333
268,23.466666666666665,-505.59999999999997,198.4
269,17.066666666666666,-501.3333333333333,198.4
270,19.2,-499.2,202.66666666666666
271,19.2,-503.46666666666664,198.4
272,17.066666666666666,-503.46666666666664,196.26666666666665
273,19.2,-505.59999999999997,189.86666666666667
274,21.333333333333332,-501.3333333333333,196.26666666666665
275,23.466666666666665,-509.8666666666667,196.26666666666665
276,12.8,-497.06666666666666,200.53333333333333
277,25.6,-503.46666666666664,196.26666666666665
278,17.066666666666666,-497.06666666666666,200.53333333333333
279,23.466666666666665,-503.46666666666664,196.26666666666665
280,23.466666666666665,-505.59999999999997,200.53333333333333
281,25.6,-505.59999999999997,196.26666666666665
282,21.333333333333332,-503.46666666666664,194.13333333333333
283,19.2,-497.06666666666666,202.66666666666666
284,25.6,-503.46666666666664,200.53333333333333
285,14.933333333333334,-503.46666666666664,194.13333333333333
286,23.466666666666665,-507.73333333333335,198.4
287,21.333333333333332,-505.59999999999997,189.86666666666667
288,21.333333333333332,-505.59999999999997,194.13333333333333
289,14.933333333333334,-501.3333333333333,192.0
290,23.466666666666665,-505.59999999999997,202.66666666666666
291,21.333333333333332,-503.46666666666664,198.4
292,23.466666666666665,-501.3333333333333,196.26666666666665
293,23.466666666666665,-507.73333333333335,192.0
294,21.333333333333332,-503.46666666666664,204.8
295,14.933333333333334,-501.3333333333333,200.53333333333333
296,23.466666666666665,-499.2,198.4
297,23.466666666666665,-501.3333333333333,196.26666666666665
298,19.2,-501.3333333333333,202.66666666666666
299,19.2,-501.3333333333333,194.13333333333333
300,17.066666666666666,-503.46666666666664,194.13333333333333
301,19.2,-501.3333333333333,196.26666666666665
302,21.333333333333332,-509.8666666666667,204.8
303,19.2,-497.06666666666666,202.66666666666666
304,23.466666666666665,-501.3333333333333,189.86666666666667
305,17.066666666666666,-505.59999999999997,192.0
306,27.733333333333334,-505.59999999999997,192.0
307,21.333333333333332,-509.8666666666667,194.13333333333333
308,14.933333333333334,-509.8666666666667,198.4
309,19.2,-499.2,198.4
310,17.066666666666666,-503.46666666666664,198.4
311,25.6,-509.8666666666667,196.26666666666665
312,19.2,-503.46666666666664,200.53333333333333
313,14.933333333333334,-505.59999999999997,192.0
314,21.333333333333332,-503.46666666666664,198.4
315,21.333333333333332,-505.59999999999997,198.4
316,19.2,-501.3333333333333,196.26666666666665
317,14.933333333333334,-501.3333333333333,194.13333333333333
318,23.466666666666665,-501.3333333333333,196.26666666666665
319,23.466666666666665,-505.59999999999997,189.86666666666667
320,21.333333333333332,-503.46666666666664,192.0
321,17.066666666666666,-499.2,198.4
322,19.2,-503.46666666666664,194.13333333333333
323,25.6,-501.3333333333333,194.13333333333333
324,21.333333333333332,-499.2,189.86666666666667
325,25.6,-505.59999999999997,200.53333333333333
326,17.066666666666666,-505.59999999999997,200.53333333333333
327,17.066666666666666,-499.2,194.13333333333333
328,21.333333333333332,-507.73333333333335,198.4
329,23.466666666666665,-505.59999999999997,189.86666666666667
330,23.466666666666665,-499.2,202.66666666666666
331,21.333333333333332,-505.59999999999997,200.53333333333333
332,23.466666666666665,-503.46666666666664,206.93333333333334
333,19.2,-503.46666666666664,202.66666666666666
334,19.2,-499.2,194.13333333333333
335,17.066666666666666,-505.59999999999997,189.86666666666667
336,23.466666666666665,-503.46666666666664,198.4
337,17.066666666666666,-501.3333333333333,198.4
338,14.933333333333334,-499.2,204.8
339,19.2,-503.46666666666664,196.26666666666665
340,21.333333333333332,-503.46666666666664,206.93333333333334
341,23.466666666666665,-501.3333333333333,202.66666666666666
342,25.6,-505.59999999999997,198.4
343,21.333333333333332,-503.46666666666664,202.66666666666666
344,14.933333333333334,-501.3333333333333,196.26666666666665
345,21.333333333333332,-503.46666666666664,206.93333333333334
346,25.6,-501.3333333333333,204.8
347,17.066666666666666,-503.46666666666664,198.4
348,21.333333333333332,-499.2,196.26666666666665
349,19.2,-497.06666666666666,206.93333333333334
350,14.933333333333334,-499.2,200.53333333333333
351,17.066666666666666,-501.3333333333333,198.4
352,23.466666666666665,-505.59999999999997,202.66666666666666
353,6.4,-494.93333333333334,226.13333333333333
354,23.466666666666665,-501.3333333333333,204.8
355,19.2,-503.46666666666664,209.06666666666666
356,23.466666666666665,-514.1333333333333,202.66666666666666
357,21.333333333333332,-509.8666666666667,200.53333333333333
358,14.933333333333334,-512.0,202.66666666666666
359,19.2,-505.59999999999997,189.86666666666667
360,12.8,-507.73333333333335,194.13333333333333
361,21.333333333333332,-505.59999999999997,194.13333333333333
362,17.066666666666666,-494.93333333333334,198.4
363,14.933333333333334,-518.4,179.2
364,23.466666666666665,-501.3333333333333,194.13333333333333
365,21.333333333333332,-503.46666666666664,200.53333333333333
366,29.866666666666667,-492.8,209.06666666666666
367,19.2,-494.93333333333334,206.93333333333334
368,21.333333333333332,-490.6666666666667,200.53333333333333
369,21.333333333333332,-505.59999999999997,209.06666666666666
370,17.066666666666666,-494.93333333333334,202.66666666666666
371,17.066666666666666,-494.93333333333334,202.66666666666666
372,17.066666666666666,-499.2,209.06666666666666
373,25.6,-503.46666666666664,200.53333333333333
374,27.733333333333334,-499.2,209.06666666666666
375,17.066666666666666,-497.06666666666666,194.13333333333333
376,23.466666666666665,-501.3333333333333,206.93333333333334
377,19.2,-499.2,213.33333333333334
378,23.466666666666665,-501.3333333333333,209.06666666666666
379,17.066666666666666,-499.2,211.2
380,25.6,-494.93333333333334,202.66666666666666
381,21.333333333333332,-499.2,209.06666666666666
382,21.333333333333332,-501.3333333333333,206.93333333333334
383,21.333333333333332,-499.2,200.53333333333333
384,19.2,-494.93333333333334,200.53333333333333
385,23.466666666666665,-501.3333333333333,202.66666666666666
386,23.466666666666665,-499.2,204.8
387,23.466666666666665,-503.46666666666664,202.66666666666666
388,23.466666666666665,-505.59999999999997,202.66666666666666
389,19.2,-499.2,200.53333333333333
390,21.333333333333332,-499.2,206.93333333333334
391,23.466666666666665,-501.3333333333333,194.13333333333333
392,19.2,-505.59999999999997,200.53333333333333
393,21.333333333333332,-507.73333333333335,202.66666666666666
394,25.6,-503.46666666666664,194.13333333333333
395,21.333333333333332,-501.3333333333333,204.8
396,27.733333333333334,-488.5333333333333,211.2
397,23.466666666666665,-501.3333333333333,198.4
398,21.333333333333332,-499.2,206.93333333333334
399,23.466666666666665,-499.2,196.26666666666665
400,25.6,-492.8,209.06666666666666
401,17.066666666666666,-499.2,198.4
402,23.466666666666665,-499.2,209.06666666666666
403,19.2,-503.46666666666664,200.53333333333333
404,29.866666666666667,-507.73333333333335,206.93333333333334
405,17.066666666666666,-501.3333333333333,200.53333333333333
406,17.066666666666666,-499.2,200.53333333333333
407,23.466666666666665,-505.59999999999997,200.53333333333333
408,29.866666666666667,-512.0,200.53333333333333
409,23.466666666666665,-501.3333333333333,213.33333333333334
410,14.933333333333334,-497.06666666666666,206.93333333333334
411,25.6,-503.46666666666664,198.4
412,23.466666666666665,-497.06666666666666,206.93333333333334
413,19.2,-497.06666666666666,206.93333333333334
414,17.066666666666666,-505.59999999999997,200.53333333333333
415,21.333333333333332,-505.59999999999997,204.8
416,21.333333333333332,-505.59999999999997,204.8
417,19.2,-503.46666666666664,204.8
418,21.333333333333332,-499.2,209.06666666666666
419,21.333333333333332,-501.3333333333333,204.8
420,21.333333333333332,-497.06666666666666,209.06666666666666
421,25.6,-501.3333333333333,211.2
422,21.333333333333332,-503.46666666666664,209.06666666666666
423,21.333333333333332,-499.2,211.2
424,21.333333333333332,-503.46666666666664,209.06666666666666
425,25.6,-499.2,202.66666666666666
426,23.466666666666665,-497.06666666666666,204.8
427,25.6,-490.6666666666667,200.53333333333333
428,14.933333333333334,-497.06666666666666,202.66666666666666
429,23.466666666666665,-492.8,206.93333333333334
430,23.466666666666665,-501.3333333333333,209.06666666666666
431,19.2,-497.06666666666666,204.8
432,19.2,-507.73333333333335,194.13333333333333
433,17.066666666666666,-490.6666666666667,206.93333333333334
434,23.466666666666665,-501.3333333333333,213.33333333333334
435,19.2,-499.2,202.66666666666666
436,25.6,-497.06666666666666,204.8
437,21.333333333333332,-497.06666666666666,198.4
438,21.333333333333332,-497.06666666666666,202.66666666666666
439,29.866666666666667,-509.8666666666667,219.73333333333332
440,14.933333333333334,-492.8,202.66666666666666
441,19.2,-492.8,204.8
442,12.8,-494.93333333333334,198.4
443,14.933333333333334,-503.46666666666664,206.93333333333334
444,21.333333333333332,-499.2,209.06666666666666
445,21.333333333333332,-501.3333333333333,198.4
446,21.333333333333332,-499.2,198.4
447,23.466666666666665,-501.3333333333333,202.66666666666666
448,23.466666666666665,-497.06666666666666,202.66666666666666
449,12.8,-505.59999999999997,200.53333333333333
450,14.933333333333334,-499.2,198.4
451,19.2,-509.8666666666667,194.13333333333333
452,14.933333333333334,-507.73333333333335,196.26666666666665
453,19.2,-505.59999999999997,194.13333333333333
454,14.933333333333334,-499.2,198.4
455,25.6,-505.59999999999997,196.26666666666665
456,17.066666666666666,-499.2,192.0
457,21.333333333333332,-499.2,198.4
458,21.333333333333332,-509.8666666666667,192.0
459,19.2,-501.3333333333333,196.26666666666665
460,17.066666666666666,-497.06666666666666,194.13333333333333
461,23.466666666666665,-499.2,196.26666666666665
462,21.333333333333332,-499.2,183.46666666666667
463,27.733333333333334,-507.73333333333335,198.4
464,23.466666666666665,-503.46666666666664,187.73333333333332
465,29.866666666666667,-499.2,185.6
466,23.466666666666665,-501.3333333333333,185.6
467,19.2,-494.93333333333334,181.33333333333334
468,21.333333333333332,-503.46666666666664,183.46666666666667
469,19.2,-505.59999999999997,179.2
470,19.2,-503.46666666666664,179.2
471,17.066666666666666,-499.2,189.86666666666667
472,19.2,-503.46666666666664,200.53333333333333
473,17.066666666666666,-499.2,177.06666666666666
474,14.933333333333334,-501.3333333333333,181.33333333333334
475,19.2,-501.3333333333333,183.46666666666667
476,19.2,-501.3333333333333,183.46666666666667
477,17.066666666666666,-501.3333333333333,189.86666666666667
478,21.333333333333332,-507.73333333333335,185.6
479,17.066666666666666,-503.46666666666664,189.86666666666667
480,17.066666666666666,-505.59999999999997,187.73333333333332
481,17.066666666666666,-512.0,183.46666666666667
482,19.2,-509.8666666666667,181.33333333333334
483,23.466666666666665,-516.2666666666667,181.33333333333334
484,27.733333333333334,-522.6666666666666,189.86666666666667
485,17.066666666666666,-518.4,185.6
486,12.8,-520.5333333333333,179.2
487,21.333333333333332,-520.5333333333333,183.46666666666667
488,17.066666666666666,-516.2666666666667,174.93333333333334
489,14.933333333333334,-518.4,177.06666666666666
490,14.933333333333334,-520.5333333333333,174.93333333333334
491,12.8,-520.5333333333333,174.93333333333334
492,14.933333333333334,-522.6666666666666,172.8
493,17.066666666666666,-524.8,172.8
494,19.2,-524.8,170.66666666666666
495,23.466666666666665,-524.8,164.26666666666665
496,17.066666666666666,-518.4,172.8
497,17.066666666666666,-514.1333333333333,162.13333333333333
498,12.8,-514.1333333333333,168.53333333333333
499,14.933333333333334,-512.0,170.66666666666666
500,12.8,-516.2666666666667,174.93333333333334
501,10.666666666666666,-518.4,179.2
502,17.066666666666666,-516.2666666666667,172.8
503,17.066666666666666,-516.2666666666667,168.53333333333333
504,14.933333333333334,-518.4,164.26666666666665
505,12.8,-518.4,164.26666666666665
506,17.066666666666666,-507.73333333333335,160.0
507,21.333333333333332,-520.5333333333333,155.73333333333332
508,10.666666666666666,-514.1333333333333,160.0
509,21.333333333333332,-505.59999999999997,157.86666666666667
510,17.066666666666666,-516.2666666666667,160.0
511,23.466666666666665,-522.6666666666666,164.26666666666665
512,19.2,-514.1333333333333,170.66666666666666
513,14.933333333333334,-514.1333333333333,170.66666666666666
514,12.8,-522.6666666666666,166.4
515,14.933333333333334,-469.3333333333333,164.26666666666665
516,14.933333333333334,-520.5333333333333,166.4
517,19.2,-514.1333333333333,168.53333333333333
518,19.2,-512.0,168.53333333333333
519,21.333333333333332,-518.4,164.26666666666665
520,21.333333333333332,-514.1333333333333,166.4
521,19.2,-520.5333333333333,170.66666666666666
522,19.2,-516.2666666666667,168.53333333333333
523,21.333333333333332,-514.1333333333333,151.46666666666667
524,21.333333333333332,-516.2666666666667,155.73333333333332
525,25.6,-520.5333333333333,160.0
526,25.6,-516.2666666666667,162.13333333333333
527,21.333333333333332,-514.1333333333333,162.13333333333333
528,25.6,-516.2666666666667,162.13333333333333
529,21.333333333333332,-518.4,160.0
530,23.466666666666665,-512.0,155.73333333333332
531,27.733333333333334,-512.0,166.4
532,19.2,-518.4,160.0
533,23.466666666666665,-518.4,153.6
534,17.066666666666666,-516.2666666666667,164.26666666666665
535,12.8,-518.4,157.86666666666667
536,23.466666666666665,-507.73333333333335,155.73333333333332
537,14.933333333333334,-514.1333333333333,160.0
538,17.066666666666666,-516.2666666666667,157.86666666666667
539,17.066666666666666,-518.4,162.13333333333333
540,14.933333333333334,-518.4,157.86666666666667
541,12.8,-516.2666666666667,162.13333333333333
542,21.333333333333332,-526.9333333333333,168.53333333333333
543,25.6,-516.2666666666667,155.73333333333332
544,6.4,-514.1333333333333,149.33333333333334
545,14.933333333333334,-516.2666666666667,157.86666666666667
546,14.933333333333334,-514.1333333333333,155.73333333333332
547,12.8,-512.0,151.46666666666667
548,14.933333333333334,-518.4,155.73333333333332
549,14.933333333333334,-522.6666666666666,155.73333333333332
550,10.666666666666666,-516.2666666666667,157.86666666666667
551,10.666666666666666,-522.6666666666666,153.6
552,12.8,-522.6666666666666,136.53333333333333
553,8.533333333333333,-526.9333333333333,145.06666666666666
554,14.933333333333334,-518.4,145.06666666666666
555,14.933333333333334,-522.6666666666666,145.06666666666666
556,10.666666666666666,-522.6666666666666,145.06666666666666
557,14.933333333333334,-518.4,142.93333333333334
558,6.4,-518.4,138.66666666666666
559,4.266666666666667,-518.4,142.93333333333334
560,8.533333333333333,-520.5333333333333,149.33333333333334
561,6.4,-512.0,149.33333333333334
562,8.533333333333333,-514.1333333333333,138.66666666666666
563,10.666666666666666,-512.0,149.33333333333334
564,17.066666666666666,-516.2666666666667,151.46666666666667
565,2.1333333333333333,-512.0,153.6
566,4.266666666666667,-514.1333333333333,149.33333333333334
567,8.533333333333333,-512.0,145.06666666666666
568,4.266666666666667,-516.2666666666667,149.33333333333334
569,10.666666666666666,-512.0,142.93333333333334
570,8.533333333333333,-512.0,142.93333333333334
571,10.666666666666666,-514.1333333333333,138.66666666666666
572,12.8,-516.2666666666667,142.93333333333334
573,12.8,-505.59999999999997,140.8
574,14.933333333333334,-514.1333333333333,147.2
575,14.933333333333334,-524.8,138.66666666666666
576,19.2,-509.8666666666667,134.4
577,17.066666666666666,-522.6666666666666,138.66666666666666
578,21.333333333333332,-524.8,145.06666666666666
579,12.8,-524.8,145.06666666666666
580,17.066666666666666,-522.6666666666666,138.66666666666666
581,21.333333333333332,-522.6666666666666,136.53333333333333
582,19.2,-524.8,134.4
583,23.466666666666665,-514.1333333333333,145.06666666666666
584,34.13333333333333,-524.8,134.4
585,23.466666666666665,-518.4,132.26666666666665
586,25.6,-516.2666666666667,136.53333333333333
587,36.266666666666666,-516.2666666666667,142.93333333333334
588,12.8,-505.59999999999997,134.4
589,29.866666666666667,-509.8666666666667,140.8
590,34.13333333333333,-520.5333333333333,142.93333333333334
591,29.866666666666667,-512.0,136.53333333333333
592,14.933333333333334,-509.8666666666667,125.86666666666666
593,34.13333333333333,-520.5333333333333,130.13333333333333
594,36.266666666666666,-516.2666666666667,113.06666666666666
595,23.466666666666665,-520.5333333333333,108.8
596,17.066666666666666,-518.4,96.0
597,17.066666666666666,-531.2,87.46666666666667
598,19.2,-531.2,93.86666666666666
599,14.933333333333334,-531.2,83.2
600,14.933333333333334,-541.8666666666667,72.53333333333333
601,8.533333333333333,-537.6,78.93333333333334
602,12.8,-541.8666666666667,81.06666666666666
603,2.1333333333333333,-539.7333333333333,85.33333333333333
604,10.666666666666666,-546.1333333333333,83.2
605,8.533333333333333,-539.7333333333333,87.46666666666667
606,14.933333333333334,-537.6,98.13333333333333
607,14.933333333333334,-537.6,87.46666666666667
608,12.8,-529.0666666666666,81.06666666666666
609,10.666666666666666,-520.5333333333333,89.6
610,19.2,-526.9333333333333,87.46666666666667
611,6.4,-520.5333333333333,91.73333333333333
612,4.266666666666667,-522.6666666666666,91.73333333333333
613,4.266666666666667,-522.6666666666666,87.46666666666667
614,4.266666666666667,-524.8,85.33333333333333
615,-4.266666666666667,-524.8,74.66666666666667
616,4.266666666666667,-529.0666666666666,68.26666666666667
617,0.0,-529.0666666666666,74.66666666666667
618,-2.1333333333333333,-531.2,70.4
619,-4.266666666666667,-533.3333333333334,68.26666666666667
620,4.266666666666667,-529.0666666666666,61.86666666666667
621,2.1333333333333333,-531.2,72.53333333333333
622,4.266666666666667,-533.3333333333334,61.86666666666667
623,2.1333333333333333,-529.0666666666666,57.6
624,0.0,-526.9333333333333,57.6
625,-2.1333333333333333,-531.2,55.46666666666667
626,4.266666666666667,-529.0666666666666,57.6
627,4.266666666666667,-533.3333333333334,55.46666666666667
628,2.1333333333333333,-535.4666666666667,55.46666666666667
629,8.533333333333333,-529.0666666666666,51.2
630,12.8,-531.2,57.6
631,10.666666666666666,-529.0666666666666,51.2
632,2.1333333333333333,-522.6666666666666,59.733333333333334
633,6.4,-520.5333333333333,55.46666666666667
634,8.533333333333333,-516.2666666666667,53.333333333333336
635,19.2,-509.8666666666667,68.26666666666667
636,6.4,-526.9333333333333,57.6
637,12.8,-529.0666666666666,49.06666666666666
638,4.266666666666667,-520.5333333333333,40.53333333333333
639,12.8,-524.8,44.8
640,12.8,-520.5333333333333,44.8
641,8.533333333333333,-522.6666666666666,55.46666666666667
642,12.8,-526.9333333333333,51.2
643,10.666666666666666,-524.8,42.666666666666664
644,21.333333333333332,-522.6666666666666,53.333333333333336
645,21.333333333333332,-522.6666666666666,42.666666666666664
646,8.533333333333333,-520.5333333333333,49.06666666666666
647,12.8,-516.2666666666667,55.46666666666667
648,10.666666666666666,-516.2666666666667,44.8
649,8.533333333333333,-509.8666666666667,51.2
650,19.2,-514.1333333333333,55.46666666666667
651,19.2,-520.5333333333333,57.6
652,12.8,-518.4,55.46666666666667
653,23.466666666666665,-522.6666666666666,55.46666666666667
654,14.933333333333334,-526.9333333333333,57.6
655,12.8,-522.6666666666666,51.2
656,19.2,-529.0666666666666,42.666666666666664
657,14.933333333333334,-539.7333333333333,25.6
658,10.666666666666666,-539.7333333333333,19.2
659,10.666666666666666,-544.0,21.333333333333332
660,10.666666666666666,-552.5333333333333,17.066666666666666
661,-4.266666666666667,-550.4,14.933333333333334
662,4.266666666666667,-552.5333333333333,14.933333333333334
663,2.1333333333333333,-554.6666666666666,2.1333333333333333
664,0.0,-556.8,-12.8
665,2.1333333333333333,-563.2,-10.666666666666666
666,6.4,-563.2,-23.466666666666665
667,0.0,-573.8666666666667,-32.0
668,0.0,-586.6666666666666,-27.733333333333334
669,4.266666666666667,-588.8,-34.13333333333333
670,6.4,-590.9333333333333,-29.866666666666667
671,19.2,-588.8,-34.13333333333333
672,23.466666666666665,-593.0666666666666,-40.53333333333333
673,27.733333333333334,-582.4,-42.666666666666664
674,25.6,-582.4,-53.333333333333336
675,34.13333333333333,-590.9333333333333,-59.733333333333334
676,34.13333333333333,-599.4666666666667,-76.8
677,42.666666666666664,-614.4,-78.93333333333334
678,44.8,-627.2,-78.93333333333334
679,38.4,-644.2666666666667,-78.93333333333334
680,32.0,-648.5333333333333,-85.33333333333333
681,23.466666666666665,-657.0666666666666,-85.33333333333333
682,8.533333333333333,-665.6,-93.86666666666666
683,4.266666666666667,-676.2666666666667,-102.4
684,-6.4,-680.5333333333333,-106.66666666666667
685,-14.933333333333334,-682.6666666666666,-108.8
686,-23.466666666666665,-672.0,-115.2
687,-34.13333333333333,-680.5333333333333,-115.2
688,-38.4,-672.0,-117.33333333333333
689,-34.13333333333333,-667.7333333333333,-113.06666666666666
690,-49.06666666666666,-659.2,-113.06666666666666
691,-40.53333333333333,-667.7333333333333,-117.33333333333333
692,-46.93333333333333,-661.3333333333334,-117.33333333333333
693,-40.53333333333333,-654.9333333333333,-121.6
694,-36.266666666666666,-650.6666666666666,-138.66666666666666
695,-21.333333333333332,-652.8,-149.33333333333334
696,-14.933333333333334,-646.4,-164.26666666666665
697,-8.533333333333333,-642.1333333333333,-168.53333333333333
698,-4.266666666666667,-635.7333333333333,-162.13333333333333
699,-2.1333333333333333,-629.3333333333334,-151.46666666666667
700,2.1333333333333333,-618.6666666666666,-174.93333333333334
701,6.4,-605.8666666666667,-181.33333333333334
702,14.933333333333334,-603.7333333333333,-174.93333333333334
703,19.2,-595.2,-179.2
704,23.466666666666665,-590.9333333333333,-187.73333333333332
705,14.933333333333334,-573.8666666666667,-196.26666666666665
706,10.666666666666666,-571.7333333333333,-194.13333333333333
707,2.1333333333333333,-567.4666666666667,-206.93333333333334
708,0.0,-563.2,-196.26666666666665
709,-4.266666666666667,-554.6666666666666,-202.66666666666666
710,-8.533333333333333,-554.6666666666666,-196.26666666666665
711,-14.933333333333334,-544.0,-200.53333333333333
712,-17.066666666666666,-548.2666666666667,-215.46666666666667
713,-25.6,-535.4666666666667,-211.2
714,-34.13333333333333,-522.6666666666666,-228.26666666666665
715,-34.13333333333333,-514.1333333333333,-238.93333333333334
716,-27.733333333333334,-505.59999999999997,-247.46666666666667
717,-25.6,-509.8666666666667,-251.73333333333332
718,-49.06666666666666,-484.26666666666665,-247.46666666666667
719,-29.866666666666667,-492.8,-270.93333333333334
720,-40.53333333333333,-492.8,-273.06666666666666
721,-44.8,-475.73333333333335,-296.5333333333333
722,-42.666666666666664,-475.73333333333335,-307.2
723,-53.333333333333336,-471.46666666666664,-305.06666666666666
724,-59.733333333333334,-471.46666666666664,-322.1333333333333
725,-66.13333333333333,-477.8666666666667,-326.4
726,-70.4,-482.1333333333333,-334.93333333333334
727,-68.26666666666667,-480.0,-341.3333333333333
728,-64.0,-477.8666666666667,-341.3333333333333
729,-70.4,-475.73333333333335,-343.46666666666664
730,-76.8,-473.59999999999997,-343.46666666666664
731,-70.4,-469.3333333333333,-345.6
732,-59.733333333333334,-471.46666666666664,-339.2
733,-59.733333333333334,-477.8666666666667,-341.3333333333333
734,-55.46666666666667,-494.93333333333334,-326.4
735,-70.4,-503.46666666666664,-309.3333333333333
736,-64.0,-494.93333333333334,-285.8666666666667
737,-61.86666666666667,-503.46666666666664,-273.06666666666666
738,-61.86666666666667,-494.93333333333334,-268.8
739,-59.733333333333334,-492.8,-253.86666666666667
740,-49.06666666666666,-473.59999999999997,-249.6
741,-44.8,-460.8,-232.53333333333333
742,-42.666666666666664,-441.59999999999997,-221.86666666666667
743,-44.8,-416.0,-213.33333333333334
744,-34.13333333333333,-394.6666666666667,-213.33333333333334
745,-19.2,-373.3333333333333,-221.86666666666667
746,-21.333333333333332,-373.3333333333333,-213.33333333333334
747,-10.666666666666666,-360.5333333333333,-211.2
748,-12.8,-354.1333333333333,-206.93333333333334
749,-8.533333333333333,-341.3333333333333,-179.2
750,-8.533333333333333,-341.3333333333333,-153.6
751,2.1333333333333333,-341.3333333333333,-151.46666666666667
752,10.666666666666666,-326.4,-145.06666666666666
753,6.4,-320.0,-138.66666666666666
754,8.533333333333333,-324.26666666666665,-136.53333333333333
755,6.4,-317.8666666666667,-136.53333333333333
756,6.4,-313.6,-145.06666666666666
757,-8.533333333333333,-298.6666666666667,-136.53333333333333
758,-8.533333333333333,-288.0,-132.26666666666665
759,-19.2,-283.73333333333335,-130.13333333333333
760,-21.333333333333332,-281.6,-119.46666666666667
761,-25.6,-273.06666666666666,-115.2
762,-27.733333333333334,-264.5333333333333,-100.26666666666667
763,-29.866666666666667,-243.2,-93.86666666666666
764,-36.266666666666666,-234.66666666666666,-89.6
765,-40.53333333333333,-224.0,-91.73333333333333
766,-55.46666666666667,-196.26666666666665,-102.4
767,-59.733333333333334,-177.06666666666666,-108.8
768,-40.53333333333333,-164.26666666666665,-117.33333333333333
769,-25.6,-166.4,-128.0
770,-21.333333333333332,-162.13333333333333,-119.46666666666667
771,-23.466666666666665,-153.6,-93.86666666666666
772,-21.333333333333332,-157.86666666666667,-81.06666666666666
773,-23.466666666666665,-149.33333333333334,-68.26666666666667
774,-21.333333333333332,-153.6,-72.53333333333333
775,-12.8,-153.6,-70.4
776,-4.266666666666667,-157.86666666666667,-72.53333333333333
777,-2.1333333333333333,-168.53333333333333,-76.8
778,6.4,-183.46666666666667,-74.66666666666667
779,10.666666666666666,-185.6,-76.8
780,27.733333333333334,-211.2,-68.26666666666667
781,17.066666666666666,-213.33333333333334,-85.33333333333333
782,8.533333333333333,-224.0,-74.66666666666667
783,6.4,-241.06666666666666,-59.733333333333334
784,4.266666666666667,-262.4,-46.93333333333333
785,4.266666666666667,-270.93333333333334,-46.93333333333333
786,6.4,-273.06666666666666,-61.86666666666667
787,-4.266666666666667,-264.5333333333333,-70.4
788,-8.533333333333333,-249.6,-81.06666666666666
789,-8.533333333333333,-236.79999999999998,-85.33333333333333
790,-8.533333333333333,-219.73333333333332,-93.86666666666666
791,-2.1333333333333333,-194.13333333333333,-102.4
792,25.6,-177.06666666666666,-115.2
793,42.666666666666664,-177.06666666666666,-113.06666666666666
794,55.46666666666667,-177.06666666666666,-110.93333333333334
795,64.0,-177.06666666666666,-100.26666666666667
796,29.866666666666667,-179.2,-147.2
797,-46.93333333333333,-142.93333333333334,-200.53333333333333
798,-189.86666666666667,-117.33333333333333,-332.8
799,-358.4,-157.86666666666667,-433.06666666666666
800,-371.2,-356.26666666666665,-373.3333333333333
801,-140.8,-663.4666666666667,-59.733333333333334
802,78.93333333333334,-921.6,326.4
803,170.66666666666666,-1102.9333333333334,563.2
804,181.33333333333334,-1299.2,740.2666666666667
805,204.8,-1521.0666666666666,949.3333333333334
806,160.0,-1659.7333333333333,706.1333333333333
807,53.333333333333336,-1779.2,390.4
808,8.533333333333333,-2041.6,582.4
809,61.86666666666667,-2329.6,960.0
810,29.866666666666667,-2280.5333333333333,373.3333333333333
811,-305.06666666666666,-2120.5333333333333,-1239.4666666666667
812,-571.7333333333333,-2156.8,-1422.9333333333334
813,-582.4,-2060.8,-473.59999999999997
814,-213.33333333333334,-1730.1333333333332,356.26666666666665
815,-76.8,-1312.0,571.7333333333333
816,-128.0,-925.8666666666667,578.1333333333333
817,-81.06666666666666,-674.1333333333333,484.26666666666665
818,29.866666666666667,-345.6,68.26666666666667
819,29.866666666666667,-104.53333333333333,-514.1333333333333
820,-70.4,46.93333333333333,-802.1333333333333
821,-145.06666666666666,134.4,-603.7333333333333
822,-147.2,185.6,-328.5333333333333
823,-74.66666666666667,262.4,-23.466666666666665
824,19.2,281.6,59.733333333333334
825,96.0,236.79999999999998,-19.2
826,113.06666666666666,96.0,-121.6
827,93.86666666666666,-81.06666666666666,-157.86666666666667
828,29.866666666666667,-320.0,-142.93333333333334
829,6.4,-497.06666666666666,-87.46666666666667
830,32.0,-593.0666666666666,-14.933333333333334
831,76.8,-605.8666666666667,49.06666666666666
832,132.26666666666665,-631.4666666666667,85.33333333333333
833,172.8,-631.4666666666667,149.33333333333334
834,192.0,-637.8666666666667,211.2
835,192.0,-595.2,245.33333333333334
836,198.4,-554.6666666666666,251.73333333333332
837,181.33333333333334,-514.1333333333333,270.93333333333334
838,164.26666666666665,-490.6666666666667,307.2
839,108.8,-499.2,347.73333333333335
840,40.53333333333333,-533.3333333333334,379.73333333333335
841,-2.1333333333333333,-554.6666666666666,398.93333333333334
842,-40.53333333333333,-580.2666666666667,409.6
843,-61.86666666666667,-612.2666666666667,428.8
844,-46.93333333333333,-601.6,422.4
845,-38.4,-588.8,413.8666666666667
846,-17.066666666666666,-563.2,418.1333333333333
847,-8.533333333333333,-541.8666666666667,428.8
848,-4.266666666666667,-516.2666666666667,450.1333333333333
849,23.466666666666665,-484.26666666666665,480.0
850,70.4,-435.2,484.26666666666665
851,91.73333333333333,-411.73333333333335,475.73333333333335
852,110.93333333333334,-362.6666666666667,452.26666666666665
853,108.8,-332.8,411.73333333333335
854,89.6,-300.8,381.8666666666667
855,72.53333333333333,-294.4,364.8
856,59.733333333333334,-290.1333333333333,352.0
857,44.8,-300.8,360.5333333333333
858,21.333333333333332,-296.5333333333333,362.6666666666667
859,10.666666666666666,-311.46666666666664,366.93333333333334
860,4.266666666666667,-324.26666666666665,371.2
861,-6.4,-337.06666666666666,369.06666666666666
862,-8.533333333333333,-360.5333333333333,362.6666666666667
863,-10.666666666666666,-379.73333333333335,343.46666666666664
864,-12.8,-420.26666666666665,337.06666666666666
865,-17.066666666666666,-439.46666666666664,330.6666666666667
866,-29.866666666666667,-467.2,309.3333333333333
867,-34.13333333333333,-486.4,300.8
868,-32.0,-503.46666666666664,290.1333333333333
869,-32.0,-494.93333333333334,296.5333333333333
870,-38.4,-490.6666666666667,292.26666666666665
871,-34.13333333333333,-482.1333333333333,290.1333333333333
872,-34.13333333333333,-460.8,281.6
873,-32.0,-454.4,277.3333333333333
874,-29.866666666666667,-439.46666666666664,264.5333333333333
875,-42.666666666666664,-441.59999999999997,251.73333333333332
876,-32.0,-439.46666666666664,241.06666666666666
877,-51.2,-450.1333333333333,256.0
878,-55.46666666666667,-469.3333333333333,253.86666666666667
879,-61.86666666666667,-477.8666666666667,260.26666666666665
880,-57.6,-501.3333333333333,243.2
881,-53.333333333333336,-512.0,234.66666666666666
882,-59.733333333333334,-524.8,226.13333333333333
883,-57.6,-524.8,228.26666666666665
884,-51.2,-533.3333333333334,221.86666666666667
885,-46.93333333333333,-535.4666666666667,243.2
886,-53.333333333333336,-520.5333333333333,204.8
887,-46.93333333333333,-512.0,217.6
888,-42.666666666666664,-492.8,213.33333333333334
889,-51.2,-473.59999999999997,236.79999999999998
890,-38.4,-467.2,217.6
891,-40.53333333333333,-456.5333333333333,226.13333333333333
892,-40.53333333333333,-454.4,217.6
893,-38.4,-454.4,221.86666666666667
894,-21.333333333333332,-454.4,219.73333333333332
895,-17.066666666666666,-456.5333333333333,232.53333333333333
896,-23.466666666666665,-460.8,234.66666666666666
897,-27.733333333333334,-471.46666666666664,224.0
898,-12.8,-482.1333333333333,224.0
899,-23.466666666666665,-473.59999999999997,226.13333333333333
900,-27.733333333333334,-473.59999999999997,234.66666666666666
901,-25.6,-473.59999999999997,232.53333333333333
902,-46.93333333333333,-465.06666666666666,251.73333333333332
903,-38.4,-467.2,245.33333333333334
904,-38.4,-469.3333333333333,249.6
905,-44.8,-471.46666666666664,245.33333333333334
906,-44.8,-475.73333333333335,251.73333333333332
907,-46.93333333333333,-475.73333333333335,247.46666666666667
908,-42.666666666666664,-467.2,256.0
909,-38.4,-473.59999999999997,258.1333333333333
910,-36.266666666666666,-475.73333333333335,253.86666666666667
911,-36.266666666666666,-477.8666666666667,258.1333333333333
912,-38.4,-471.46666666666664,266.6666666666667
913,-42.666666666666664,-484.26666666666665,275.2
914,-44.8,-482.1333333333333,264.5333333333333
915,-44.8,-482.1333333333333,268.8
916,-49.06666666666666,-480.0,277.3333333333333
917,-55.46666666666667,-467.2,283.73333333333335
918,-57.6,-456.5333333333333,285.8666666666667
919,-72.53333333333333,-448.0,288.0
920,-89.6,-433.06666666666666,275.2
921,-100.26666666666667,-418.1333333333333,281.6
922,-106.66666666666667,-413.8666666666667,281.6
923,-110.93333333333334,-413.8666666666667,279.46666666666664
924,-110.93333333333334,-416.0,296.5333333333333
925,-108.8,-413.8666666666667,292.26666666666665
926,-87.46666666666667,-416.0,298.6666666666667
927,-96.0,-420.26666666666665,296.5333333333333
928,-74.66666666666667,-420.26666666666665,302.93333333333334
929,-68.26666666666667,-430.93333333333334,298.6666666666667
930,-51.2,-435.2,292.26666666666665
931,-51.2,-441.59999999999997,294.4
932,-46.93333333333333,-445.8666666666667,296.5333333333333
933,-46.93333333333333,-454.4,309.3333333333333
934,-42.666666666666664,-460.8,298.6666666666667
935,-32.0,-462.93333333333334,298.6666666666667
936,-25.6,-469.3333333333333,300.8
937,-17.066666666666666,-462.93333333333334,296.5333333333333
938,-2.1333333333333333,-462.93333333333334,311.46666666666664
939,8.533333333333333,-456.5333333333333,315.73333333333335
940,21.333333333333332,-452.26666666666665,313.6
941,29.866666666666667,-467.2,324.26666666666665
942,25.6,-458.6666666666667,326.4
943,29.866666666666667,-469.3333333333333,339.2
944,38.4,-462.93333333333334,326.4
945,38.4,-460.8,324.26666666666665
946,36.266666666666666,-458.6666666666667,317.8666666666667
947,36.266666666666666,-452.26666666666665,307.2
948,32.0,-448.0,290.1333333333333
949,21.333333333333332,-437.3333333333333,288.0
950,14.933333333333334,-437.3333333333333,266.6666666666667
951,2.1333333333333333,-437.3333333333333,260.26666666666665
952,-4.266666666666667,-441.59999999999997,260.26666666666665
953,-10.666666666666666,-448.0,264.5333333333333
954,-27.733333333333334,-452.26666666666665,266.6666666666667
955,-40.53333333333333,-465.06666666666666,283.73333333333335
956,-42.666666666666664,-469.3333333333333,283.73333333333335
957,-51.2,-477.8666666666667,279.46666666666664
958,-53.333333333333336,-480.0,288.0
959,-55.46666666666667,-450.1333333333333,300.8
960,-46.93333333333333,-486.4,288.0
961,-44.8,-488.5333333333333,281.6
962,-44.8,-473.59999999999997,290.1333333333333
963,-4.266666666666667,-477.8666666666667,281.6
964,-17.066666666666666,-467.2,288.0
965,-8.533333333333333,-465.06666666666666,283.73333333333335
966,2.1333333333333333,-462.93333333333334,292.26666666666665
967,17.066666666666666,-456.5333333333333,298.6666666666667
968,29.866666666666667,-454.4,292.26666666666665
969,49.06666666666666,-452.26666666666665,294.4
970,53.333333333333336,-448.0,300.8
971,61.86666666666667,-454.4,294.4
972,59.733333333333334,-458.6666666666667,294.4
973,66.13333333333333,-460.8,296.5333333333333
974,64.0,-462.93333333333334,298.6666666666667
975,57.6,-465.06666666666666,298.6666666666667
976,61.86666666666667,-469.3333333333333,300.8
977,55.46666666666667,-469.3333333333333,311.46666666666664
978,53.333333333333336,-471.46666666666664,298.6666666666667
979,38.4,-471.46666666666664,298.6666666666667
980,34.13333333333333,-456.5333333333333,302.93333333333334
981,14.933333333333334,-462.93333333333334,302.93333333333334
982,23.466666666666665,-454.4,296.5333333333333
983,8.533333333333333,-448.0,285.8666666666667
984,0.0,-441.59999999999997,288.0
985,0.0,-443.73333333333335,290.1333333333333
986,2.1333333333333333,-435.2,288.0
987,-4.266666666666667,-439.46666666666664,285.8666666666667
988,2.1333333333333333,-439.46666666666664,281.6
989,-2.1333333333333333,-448.0,277.3333333333333
990,4.266666666666667,-445.8666666666667,285.8666666666667
991,2.1333333333333333,-448.0,283.73333333333335
992,-2.1333333333333333,-458.6666666666667,277.3333333333333
993,4.266666666666667,-467.2,270.93333333333334
994,4.266666666666667,-469.3333333333333,275.2
995,-2.1333333333333333,-471.46666666666664,279.46666666666664
996,0.0,-477.8666666666667,275.2
997,-6.4,-477.8666666666667,279.46666666666664
998,-4.266666666666667,-484.26666666666665,277.3333333333333
999,-6.4,-482.1333333333333,279.46666666666664
1000,-6.4,-484.26666666666665,270.93333333333334
1001,-4.266666666666667,-480.0,270.93333333333334
1002,-6.4,-480.0,270.93333333333334
1003,-8.533333333333333,-477.8666666666667,270.93333333333334
1004,-8.533333333333333,-471.46666666666664,270.93333333333334
1005,-8.533333333333333,-467.2,264.5333333333333
1006,-12.8,-467.2,273.06666666666666
1007,-21.333333333333332,-452.26666666666665,270.93333333333334
1008,-17.066666666666666,-454.4,281.6
1009,-29.866666666666667,-454.4,285.8666666666667
1010,-32.0,-458.6666666666667,288.0
1011,-27.733333333333334,-456.5333333333333,275.2
1012,-32.0,-458.6666666666667,288.0
1013,-25.6,-462.93333333333334,285.8666666666667
1014,-29.866666666666667,-471.46666666666664,288.0
1015,-25.6,-469.3333333333333,281.6
1016,-27.733333333333334,-458.6666666666667,281.6
1017,-27.733333333333334,-471.46666666666664,290.1333333333333
1018,-25.6,-467.2,294.4
1019,-21.333333333333332,-467.2,285.8666666666667
1020,-29.866666666666667,-465.06666666666666,283.73333333333335
1021,-23.466666666666665,-465.06666666666666,281.6
1022,-23.466666666666665,-465.06666666666666,281.6
1023,-19.2,-458.6666666666667,285.8666666666667
1024,-14.933333333333334,-456.5333333333333,281.6
1025,-8.533333333333333,-458.6666666666667,281.6
1026,-8.533333333333333,-454.4,285.8666666666667
1027,-4.266666666666667,-454.4,275.2
1028,-6.4,-452.26666666666665,283.73333333333335
1029,-2.1333333333333333,-450.1333333333333,283.73333333333335
1030,-6.4,-448.0,279.46666666666664
1031,-4.266666666666667,-454.4,281.6
1032,-4.266666666666667,-452.26666666666665,277.3333333333333
1033,0.0,-456.5333333333333,281.6
1034,0.0,-458.6666666666667,277.3333333333333
1035,0.0,-454.4,279.46666666666664
1036,4.266666666666667,-460.8,268.8
1037,17.066666666666666,-462.93333333333334,279.46666666666664
1038,8.533333333333333,-458.6666666666667,268.8
1039,10.666666666666666,-462.93333333333334,270.93333333333334
1040,14.933333333333334,-465.06666666666666,275.2
1041,23.466666666666665,-465.06666666666666,264.5333333333333
1042,27.733333333333334,-467.2,260.26666666666665
1043,25.6,-471.46666666666664,264.5333333333333
1044,23.466666666666665,-471.46666666666664,262.4
1045,23.466666666666665,-471.46666666666664,264.5333333333333
1046,27.733333333333334,-469.3333333333333,258.1333333333333
1047,38.4,-465.06666666666666,251.73333333333332
1048,32.0,-482.1333333333333,251.73333333333332
1049,32.0,-482.1333333333333,243.2
1050,38.4,-482.1333333333333,243.2
1051,38.4,-482.1333333333333,243.2
1052,29.866666666666667,-480.0,245.33333333333334
1053,34.13333333333333,-488.5333333333333,245.33333333333334
1054,34.13333333333333,-494.93333333333334,241.06666666666666
1055,27.733333333333334,-490.6666666666667,245.33333333333334
1056,36.266666666666666,-490.6666666666667,245.33333333333334
1057,34.13333333333333,-494.93333333333334,238.93333333333334
1058,34.13333333333333,-488.5333333333333,230.4
1059,32.0,-499.2,228.26666666666665
1060,34.13333333333333,-494.93333333333334,232.53333333333333
1061,34.13333333333333,-497.06666666666666,226.13333333333333
1062,29.866666666666667,-494.93333333333334,230.4
1063,38.4,-492.8,236.79999999999998
1064,36.266666666666666,-494.93333333333334,232.53333333333333
1065,40.53333333333333,-503.46666666666664,228.26666666666665
1066,44.8,-499.2,228.26666666666665
1067,36.266666666666666,-499.2,224.0
1068,46.93333333333333,-499.2,219.73333333333332
1069,40.53333333333333,-499.2,232.53333333333333
1070,59.733333333333334,-488.5333333333333,226.13333333333333
1071,44.8,-488.5333333333333,221.86666666666667
1072,38.4,-492.8,226.13333333333333
1073,36.266666666666666,-494.93333333333334,245.33333333333334
1074,32.0,-499.2,230.4
1075,29.866666666666667,-501.3333333333333,234.66666666666666
1076,25.6,-503.46666666666664,232.53333333333333
1077,29.866666666666667,-499.2,249.6
1078,42.666666666666664,-503.46666666666664,258.1333333333333
1079,40.53333333333333,-503.46666666666664,260.26666666666665
1080,42.666666666666664,-501.3333333333333,264.5333333333333
1081,40.53333333333333,-492.8,262.4
1082,38.4,-488.5333333333333,273.06666666666666
1083,29.866666666666667,-475.73333333333335,264.5333333333333
1084,32.0,-480.0,260.26666666666665
1085,17.066666666666666,-467.2,266.6666666666667
1086,19.2,-458.6666666666667,256.0
1087,12.8,-456.5333333333333,268.8
1088,12.8,-454.4,273.06666666666666
1089,10.666666666666666,-456.5333333333333,275.2
1090,4.266666666666667,-460.8,279.46666666666664
1091,4.266666666666667,-465.06666666666666,275.2
1092,-6.4,-462.93333333333334,275.2
1093,-4.266666666666667,-471.46666666666664,277.3333333333333
1094,-8.533333333333333,-475.73333333333335,279.46666666666664
1095,-8.533333333333333,-475.73333333333335,285.8666666666667
1096,-6.4,-480.0,277.3333333333333
1097,-4.266666666666667,-486.4,273.06666666666666
1098,-8.533333333333333,-482.1333333333333,266.6666666666667
1099,-2.1333333333333333,-475.73333333333335,266.6666666666667
1100,-4.266666666666667,-469.3333333333333,256.0
1101,-6.4,-467.2,260.26666666666665
1102,-4.266666666666667,-452.26666666666665,258.1333333333333
1103,-6.4,-456.5333333333333,258.1333333333333
1104,-6.4,-452.26666666666665,253.86666666666667
1105,-2.1333333333333333,-452.26666666666665,251.73333333333332
1106,-4.266666666666667,-450.1333333333333,249.6
1107,2.1333333333333333,-467.2,256.0
1108,4.266666666666667,-469.3333333333333,253.86666666666667
1109,6.4,-475.73333333333335,264.5333333333333
1110,0.0,-480.0,258.1333333333333
1111,-8.533333333333333,-488.5333333333333,253.86666666666667
1112,4.266666666666667,-494.93333333333334,256.0
1113,0.0,-494.93333333333334,245.33333333333334
1114,-2.1333333333333333,-503.46666666666664,253.86666666666667
1115,-2.1333333333333333,-497.06666666666666,249.6
1116,0.0,-501.3333333333333,247.46666666666667
1117,8.533333333333333,-499.2,247.46666666666667
1118,6.4,-507.73333333333335,251.73333333333332
1119,8.533333333333333,-507.73333333333335,245.33333333333334
1120,10.666666666666666,-505.59999999999997,241.06666666666666
1121,8.533333333333333,-505.59999999999997,234.66666666666666
1122,8.533333333333333,-497.06666666666666,245.33333333333334
1123,10.666666666666666,-499.2,234.66666666666666
1124,6.4,-497.06666666666666,234.66666666666666
1125,14.933333333333334,-494.93333333333334,221.86666666666667
1126,6.4,-490.6666666666667,221.86666666666667
1127,10.666666666666666,-480.0,213.33333333333334
1128,6.4,-480.0,213.33333333333334
1129,4.266666666666667,-480.0,221.86666666666667
1130,12.8,-490.6666666666667,224.0
1131,17.066666666666666,-494.93333333333334,221.86666666666667
1132,17.066666666666666,-494.93333333333334,234.66666666666666
1133,14.933333333333334,-486.4,228.26666666666665
1134,14.933333333333334,-486.4,236.79999999999998
1135,17.066666666666666,-484.26666666666665,247.46666666666667
1136,10.666666666666666,-469.3333333333333,256.0
1137,14.933333333333334,-471.46666666666664,258.1333333333333
1138,23.466666666666665,-454.4,277.3333333333333
1139,23.466666666666665,-450.1333333333333,290.1333333333333
1140,23.466666666666665,-441.59999999999997,296.5333333333333
1141,23.466666666666665,-435.2,298.6666666666667
1142,17.066666666666666,-426.6666666666667,309.3333333333333
1143,21.333333333333332,-433.06666666666666,313.6
1144,25.6,-439.46666666666664,311.46666666666664
1145,19.2,-441.59999999999997,320.0
1146,14.933333333333334,-441.59999999999997,322.1333333333333
1147,19.2,-445.8666666666667,317.8666666666667
1148,14.933333333333334,-445.8666666666667,311.46666666666664
1149,8.533333333333333,-452.26666666666665,305.06666666666666
1150,17.066666666666666,-458.6666666666667,300.8
1151,8.533333333333333,-458.6666666666667,290.1333333333333
1152,6.4,-454.4,288.0
1153,10.666666666666666,-471.46666666666664,288.0
1154,12.8,-475.73333333333335,281.6
1155,14.933333333333334,-475.73333333333335,279.46666666666664
1156,8.533333333333333,-473.59999999999997,288.0
1157,10.666666666666666,-482.1333333333333,273.06666666666666
1158,6.4,-482.1333333333333,270.93333333333334
1159,10.666666666666666,-484.26666666666665,262.4
1160,14.933333333333334,-480.0,260.26666666666665
1161,2.1333333333333333,-475.73333333333335,270.93333333333334
1162,4.266666666666667,-477.8666666666667,262.4
1163,2.1333333333333333,-477.8666666666667,245.33333333333334
1164,0.0,-486.4,245.33333333333334
1165,0.0,-482.1333333333333,249.6
1166,-6.4,-475.73333333333335,243.2
1167,-8.533333333333333,-477.8666666666667,236.79999999999998
1168,-10.666666666666666,-484.26666666666665,234.66666666666666
1169,-8.533333333333333,-480.0,245.33333333333334
1170,-6.4,-475.73333333333335,234.66666666666666
1171,-8.533333333333333,-488.5333333333333,236.79999999999998
1172,-6.4,-486.4,232.53333333333333
1173,-6.4,-482.1333333333333,243.2
1174,0.0,-494.93333333333334,226.13333333333333
1175,-4.266666666666667,-488.5333333333333,232.53333333333333
1176,4.266666666666667,-484.26666666666665,241.06666666666666
1177,6.4,-492.8,236.79999999999998
1178,8.533333333333333,-480.0,236.79999999999998
1179,10.666666666666666,-490.6666666666667,238.93333333333334
1180,12.8,-488.5333333333333,249.6
1181,14.933333333333334,-490.6666666666667,241.06666666666666
1182,10.666666666666666,-486.4,247.46666666666667
1183,17.066666666666666,-484.26666666666665,247.46666666666667
1184,14.933333333333334,-475.73333333333335,236.79999999999998
1185,14.933333333333334,-490.6666666666667,236.79999999999998
1186,10.666666666666666,-482.1333333333333,241.06666666666666
1187,8.533333333333333,-490.6666666666667,234.66666666666666
1188,4.266666666666667,-488.5333333333333,238.93333333333334
1189,12.8,-490.6666666666667,228.26666666666665
1190,12.8,-501.3333333333333,243.2
1191,17.066666666666666,-499.2,234.66666666666666
1192,12.8,-490.6666666666667,234.66666666666666
1193,14.933333333333334,-492.8,243.2
1194,17.066666666666666,-494.93333333333334,245.33333333333334
1195,17.066666666666666,-494.93333333333334,249.6
1196,12.8,-494.93333333333334,251.73333333333332
1197,27.733333333333334,-494.93333333333334,262.4
1198,34.13333333333333,-482.1333333333333,258.1333333333333
1199,19.2,-482.1333333333333,258.1333333333333
1200,21.333333333333332,-475.73333333333335,260.26666666666665
1201,21.333333333333332,-469.3333333333333,260.26666666666665
1202,23.466666666666665,-469.3333333333333,253.86666666666667
1203,23.466666666666665,-471.46666666666664,256.0
1204,21.333333333333332,-467.2,247.46666666666667
1205,19.2,-462.93333333333334,251.73333333333332
1206,12.8,-469.3333333333333,251.73333333333332
1207,12.8,-471.46666666666664,256.0
1208,19.2,-475.73333333333335,251.73333333333332
1209,12.8,-475.73333333333335,262.4
1210,8.533333333333333,-480.0,258.1333333333333
1211,12.8,-480.0,264.5333333333333
1212,12.8,-490.6666666666667,256.0
1213,14.933333333333334,-494.93333333333334,268.8
1214,12.8,-490.6666666666667,251.73333333333332
1215,6.4,-488.5333333333333,253.86666666666667
1216,10.666666666666666,-488.5333333333333,249.6
1217,4.266666666666667,-492.8,256.0
1218,8.533333333333333,-492.8,247.46666666666667
1219,10.666666666666666,-488.5333333333333,234.66666666666666
1220,8.533333333333333,-482.1333333333333,249.6
1221,10.666666666666666,-477.8666666666667,256.0
1222,10.666666666666666,-486.4,236.79999999999998
1223,6.4,-482.1333333333333,238.93333333333334
1224,6.4,-480.0,243.2
1225,6.4,-480.0,241.06666666666666
1226,8.533333333333333,-471.46666666666664,243.2
1227,0.0,-482.1333333333333,236.79999999999998
1228,8.533333333333333,-475.73333333333335,243.2
1229,6.4,-480.0,243.2
1230,6.4,-475.73333333333335,238.93333333333334
1231,-2.1333333333333333,-499.2,226.13333333333333
1232,2.1333333333333333,-482.1333333333333,249.6
1233,6.4,-475.73333333333335,258.1333333333333
1234,-2.1333333333333333,-475.73333333333335,253.86666666666667
1235,0.0,-480.0,264.5333333333333
1236,4.266666666666667,-473.59999999999997,258.1333333333333
1237,6.4,-480.0,256.0
1238,0.0,-471.46666666666664,253.86666666666667
1239,0.0,-482.1333333333333,262.4
1240,4.266666666666667,-475.73333333333335,251.73333333333332
1241,0.0,-477.8666666666667,253.86666666666667
1242,2.1333333333333333,-477.8666666666667,251.73333333333332
1243,-6.4,-475.73333333333335,264.5333333333333
1244,-2.1333333333333333,-471.46666666666664,262.4
1245,0.0,-471.46666666666664,256.0
1246,0.0,-471.46666666666664,256.0
1247,0.0,-475.73333333333335,258.1333333333333
1248,0.0,-477.8666666666667,256.0
1249,-4.266666666666667,-477.8666666666667,253.86666666666667
1250,0.0,-482.1333333333333,253.86666666666667
1251,4.266666666666667,-486.4,251.73333333333332
1252,-2.1333333333333333,-477.8666666666667,253.86666666666667
1253,2.1333333333333333,-480.0,258.1333333333333
1254,-2.1333333333333333,-477.8666666666667,251.73333333333332
1255,0.0,-482.1333333333333,256.0
1256,6.4,-482.1333333333333,262.4
1257,4.266666666666667,-482.1333333333333,260.26666666666665
1258,4.266666666666667,-482.1333333333333,258.1333333333333
1259,10.666666666666666,-490.6666666666667,256.0
1260,6.4,-482.1333333333333,268.8
1261,4.266666666666667,-480.0,253.86666666666667
1262,8.533333333333333,-484.26666666666665,238.93333333333334
1263,10.666666666666666,-480.0,232.53333333333333
1264,10.666666666666666,-486.4,245.33333333333334
1265,10.666666666666666,-480.0,245.33333333333334
1266,17.066666666666666,-482.1333333333333,249.6
1267,14.933333333333334,-477.8666666666667,247.46666666666667
1268,12.8,-477.8666666666667,251.73333333333332
1269,21.333333333333332,-480.0,253.86666666666667
1270,14.933333333333334,-480.0,256.0
1271,14.933333333333334,-480.0,262.4
1272,17.066666666666666,-482.1333333333333,249.6
1273,14.933333333333334,-475.73333333333335,249.6
1274,12.8,-467.2,228.26666666666665
1275,21.333333333333332,-475.73333333333335,249.6
1276,14.933333333333334,-473.59999999999997,258.1333333333333
1277,8.533333333333333,-473.59999999999997,249.6
1278,14.933333333333334,-477.8666666666667,247.46666666666667
1279,17.066666666666666,-477.8666666666667,251.73333333333332
1280,12.8,-480.0,253.86666666666667
1281,14.933333333333334,-480.0,253.86666666666667
1282,19.2,-477.8666666666667,241.06666666666666
1283,8.533333333333333,-477.8666666666667,247.46666666666667
1284,17.066666666666666,-482.1333333333333,251.73333333333332
1285,14.933333333333334,-482.1333333333333,247.46666666666667
1286,8.533333333333333,-480.0,243.2
1287,14.933333333333334,-477.8666666666667,251.73333333333332
1288,14.933333333333334,-480.0,247.46666666666667
1289,10.666666666666666,-484.26666666666665,251.73333333333332
1290,17.066666666666666,-477.8666666666667,238.93333333333334
1291,12.8,-480.0,247.46666666666667
1292,12.8,-482.1333333333333,251.73333333333332
1293,6.4,-480.0,256.0
1294,19.2,-486.4,249.6
1295,19.2,-486.4,251.73333333333332
1296,23.466666666666665,-492.8,241.06666666666666
1297,17.066666666666666,-488.5333333333333,251.73333333333332
1298,17.066666666666666,-486.4,251.73333333333332
1299,17.066666666666666,-486.4,243.2
1300,17.066666666666666,-486.4,249.6
1301,8.533333333333333,-480.0,253.86666666666667
1302,17.066666666666666,-482.1333333333333,258.1333333333333
1303,17.066666666666666,-482.1333333333333,251.73333333333332
1304,12.8,-475.73333333333335,253.86666666666667
1305,12.8,-477.8666666666667,249.6
1306,8.533333333333333,-471.46666666666664,245.33333333333334
1307,14.933333333333334,-452.26666666666665,245.33333333333334
1308,10.666666666666666,-473.59999999999997,253.86666666666667
1309,14.933333333333334,-473.59999999999997,251.73333333333332
1310,8.533333333333333,-469.3333333333333,253.86666666666667
1311,8.533333333333333,-475.73333333333335,256.0
1312,12.8,-477.8666666666667,253.86666666666667
1313,14.933333333333334,-477.8666666666667,256.0
1314,12.8,-475.73333333333335,260.26666666666665
1315,12.8,-482.1333333333333,256.0
1316,8.533333333333333,-473.59999999999997,264.5333333333333
1317,10.666666666666666,-471.46666666666664,256.0
1318,12.8,-475.73333333333335,253.86666666666667
1319,6.4,-473.59999999999997,260.26666666666665
1320,14.933333333333334,-473.59999999999997,258.1333333333333
1321,17.066666666666666,-480.0,251.73333333333332
1322,17.066666666666666,-480.0,262.4
1323,8.533333333333333,-473.59999999999997,264.5333333333333
1324,10.666666666666666,-480.0,262.4
1325,10.666666666666666,-480.0,264.5333333333333
1326,12.8,-473.59999999999997,266.6666666666667
1327,14.933333333333334,-471.46666666666664,264.5333333333333
1328,12.8,-480.0,268.8
1329,17.066666666666666,-480.0,273.06666666666666
1330,17.066666666666666,-471.46666666666664,264.5333333333333
1331,14.933333333333334,-475.73333333333335,266.6666666666667
1332,12.8,-471.46666666666664,264.5333333333333
1333,10.666666666666666,-475.73333333333335,264.5333333333333
1334,12.8,-475.73333333333335,260.26666666666665
1335,10.666666666666666,-469.3333333333333,262.4
1336,23.466666666666665,-475.73333333333335,258.1333333333333
1337,14.933333333333334,-475.73333333333335,262.4
1338,10.666666666666666,-475.73333333333335,258.1333333333333
1339,14.933333333333334,-475.73333333333335,260.26666666666665
1340,17.066666666666666,-480.0,264.5333333333333
1341,17.066666666666666,-475.73333333333335,256.0
1342,17.066666666666666,-477.8666666666667,258.1333333333333
1343,12.8,-475.73333333333335,264.5333333333333
1344,17.066666666666666,-477.8666666666667,253.86666666666667
1345,10.666666666666666,-486.4,251.73333333333332
1346,10.666666666666666,-475.73333333333335,256.0
1347,10.666666666666666,-469.3333333333333,253.86666666666667
1348,19.2,-477.8666666666667,258.1333333333333
1349,17.066666666666666,-473.59999999999997,260.26666666666665
1350,14.933333333333334,-486.4,247.46666666666667
1351,10.666666666666666,-471.46666666666664,256.0
1352,17.066666666666666,-480.0,247.46666666666667
1353,17.066666666666666,-477.8666666666667,247.46666666666667
1354,10.666666666666666,-477.8666666666667,249.6
1355,21.333333333333332,-475.73333333333335,251.73333333333332
1356,17.066666666666666,-480.0,247.46666666666667
1357,14.933333333333334,-477.8666666666667,249.6
1358,6.4,-475.73333333333335,247.46666666666667
1359,12.8,-480.0,258.1333333333333
1360,12.8,-484.26666666666665,260.26666666666665
1361,14.933333333333334,-484.26666666666665,253.86666666666667
1362,21.333333333333332,-482.1333333333333,256.0
1363,10.666666666666666,-482.1333333333333,262.4
1364,14.933333333333334,-486.4,251.73333333333332
1365,12.8,-477.8666666666667,249.6
1366,17.066666666666666,-484.26666666666665,260.26666666666665
1367,8.533333333333333,-482.1333333333333,253.86666666666667
1368,12.8,-477.8666666666667,256.0
1369,12.8,-480.0,253.86666666666667
1370,17.066666666666666,-473.59999999999997,258.1333333333333
1371,17.066666666666666,-480.0,256.0
1372,14.933333333333334,-475.73333333333335,260.26666666666665
1373,19.2,-480.0,256.0
1374,17.066666666666666,-473.59999999999997,260.26666666666665
1375,14.933333333333334,-482.1333333333333,262.4
1376,14.933333333333334,-477.8666666666667,264.5333333333333
1377,12.8,-477.8666666666667,256.0
1378,10.666666666666666,-480.0,258.1333333333333
1379,14.933333333333334,-473.59999999999997,249.6
1380,17.066666666666666,-480.0,256.0
1381,17.066666666666666,-482.1333333333333,256.0
1382,17.066666666666666,-475.73333333333335,258.1333333333333
1383,8.533333333333333,-471.46666666666664,260.26666666666665
1384,14.933333333333334,-480.0,258.1333333333333
1385,19.2,-480.0,253.86666666666667
1386,10.666666666666666,-475.73333333333335,258.1333333333333
1387,10.666666666666666,-480.0,260.26666666666665
1388,14.933333333333334,-480.0,258.1333333333333
1389,21.333333333333332,-477.8666666666667,253.86666666666667
1390,19.2,-475.73333333333335,262.4
1391,4.266666666666667,-477.8666666666667,264.5333333333333
1392,14.933333333333334,-475.73333333333335,262.4
1393,12.8,-475.73333333333335,258.1333333333333
1394,17.066666666666666,-475.73333333333335,258.1333333333333
1395,8.533333333333333,-456.5333333333333,273.06666666666666
1396,10.666666666666666,-471.46666666666664,258.1333333333333
1397,12.8,-482.1333333333333,256.0
1398,12.8,-482.1333333333333,253.86666666666667
1399,17.066666666666666,-482.1333333333333,256.0
1400,12.8,-480.0,253.86666666666667
1401,12.8,-484.26666666666665,245.33333333333334
1402,17.066666666666666,-480.0,262.4
1403,14.933333333333334,-480.0,260.26666666666665
1404,17.066666666666666,-482.1333333333333,251.73333333333332
1405,10.666666666666666,-475.73333333333335,251.73333333333332
1406,14.933333333333334,-473.59999999999997,258.1333333333333
1407,10.666666666666666,-471.46666666666664,253.86666666666667
1408,19.2,-477.8666666666667,256.0
1409,14.933333333333334,-473.59999999999997,251.73333333333332
1410,21.333333333333332,-475.73333333333335,253.86666666666667
1411,17.066666666666666,-480.0,253.86666666666667
1412,14.933333333333334,-484.26666666666665,253.86666666666667
1413,14.933333333333334,-480.0,256.0
1414,10.666666666666666,-477.8666666666667,256.0
1415,14.933333333333334,-477.8666666666667,251.73333333333332
1416,6.4,-482.1333333333333,258.1333333333333
1417,17.066666666666666,-490.6666666666667,253.86666666666667
1418,12.8,-477.8666666666667,258.1333333333333
1419,8.533333333333333,-484.26666666666665,251.73333333333332
1420,10.666666666666666,-482.1333333333333,253.86666666666667
1421,19.2,-482.1333333333333,243.2
1422,12.8,-488.5333333333333,249.6
1423,17.066666666666666,-482.1333333333333,251.73333333333332
1424,21.333333333333332,-482.1333333333333,245.33333333333334
1425,14.933333333333334,-477.8666666666667,253.86666666666667
1426,19.2,-484.26666666666665,251.73333333333332
1427,17.066666666666666,-480.0,256.0
1428,6.4,-482.1333333333333,253.86666666666667
1429,19.2,-480.0,251.73333333333332
1430,14.933333333333334,-480.0,249.6
1431,10.666666666666666,-480.0,256.0
1432,12.8,-482.1333333333333,253.86666666666667
1433,23.466666666666665,-482.1333333333333,260.26666666666665
1434,17.066666666666666,-484.26666666666665,256.0
1435,19.2,-482.1333333333333,253.86666666666667
1436,19.2,-482.1333333333333,251.73333333333332
1437,17.066666666666666,-484.26666666666665,247.46666666666667
1438,21.333333333333332,-486.4,247.46666666666667
1439,12.8,-475.73333333333335,245.33333333333334
1440,21.333333333333332,-475.73333333333335,249.6
1441,17.066666666666666,-480.0,253.86666666666667
1442,14.933333333333334,-477.8666666666667,249.6
1443,17.066666666666666,-475.73333333333335,258.1333333333333
1444,19.2,-475.73333333333335,262.4
1445,17.066666666666666,-471.46666666666664,264.5333333333333
1446,14.933333333333334,-482.1333333333333,260.26666666666665
1447,19.2,-482.1333333333333,256.0
1448,19.2,-482.1333333333333,262.4
1449,19.2,-482.1333333333333,264.5333333333333
1450,17.066666666666666,-477.8666666666667,262.4
1451,12.8,-477.8666666666667,262.4
1452,17.066666666666666,-484.26666666666665,256.0
1453,17.066666666666666,-484.26666666666665,262.4
1454,12.8,-471.46666666666664,258.1333333333333
1455,6.4,-477.8666666666667,253.86666666666667
1456,8.533333333333333,-475.73333333333335,256.0
1457,17.066666666666666,-475.73333333333335,253.86666666666667
1458,17.066666666666666,-473.59999999999997,256.0
1459,10.666666666666666,-477.8666666666667,256.0
1460,12.8,-473.59999999999997,256.0
1461,10.666666666666666,-477.8666666666667,245.33333333333334
1462,12.8,-480.0,253.86666666666667
1463,21.333333333333332,-480.0,258.1333333333333
1464,12.8,-482.1333333333333,249.6
1465,17.066666666666666,-480.0,249.6
1466,10.666666666666666,-477.8666666666667,258.1333333333333
1467,17.066666666666666,-488.5333333333333,258.1333333333333
1468,12.8,-477.8666666666667,251.73333333333332
1469,19.2,-484.26666666666665,247.46666666666667
1470,17.066666666666666,-482.1333333333333,247.46666666666667
1471,8.533333333333333,-480.0,243.2
1472,14.933333333333334,-477.8666666666667,243.2
1473,10.666666666666666,-486.4,245.33333333333334
1474,12.8,-482.1333333333333,245.33333333333334
1475,17.066666666666666,-482.1333333333333,241.06666666666666
1476,12.8,-484.26666666666665,232.53333333333333
1477,17.066666666666666,-480.0,243.2
1478,14.933333333333334,-477.8666666666667,243.2
1479,17.066666666666666,-484.26666666666665,243.2
1480,17.066666666666666,-488.5333333333333,243.2
1481,4.266666666666667,-482.1333333333333,241.06666666666666
1482,19.2,-482.1333333333333,249.6
1483,14.933333333333334,-482.1333333333333,245.33333333333334
1484,10.666666666666666,-484.26666666666665,243.2
1485,17.066666666666666,-484.26666666666665,245.33333333333334
1486,14.933333333333334,-480.0,236.79999999999998
1487,10.666666666666666,-486.4,249.6
1488,6.4,-482.1333333333333,256.0
1489,14.933333333333334,-482.1333333333333,243.2
1490,14.933333333333334,-484.26666666666665,245.33333333333334
1491,10.666666666666666,-480.0,251.73333333333332
1492,10.666666666666666,-482.1333333333333,249.6
1493,17.066666666666666,-484.26666666666665,236.79999999999998
1494,14.933333333333334,-486.4,243.2
1495,12.8,-482.1333333333333,253.86666666666667
1496,19.2,-482.1333333333333,251.73333333333332
1497,8.533333333333333,-477.8666666666667,247.46666666666667
1498,17.066666666666666,-477.8666666666667,264.5333333333333
1499,10.666666666666666,-480.0,243.2
1500,6.4,-475.73333333333335,249.6
1501,12.8,-475.73333333333335,249.6
1502,17.066666666666666,-480.0,253.86666666666667
1503,14.933333333333334,-492.8,249.6
1504,12.8,-482.1333333333333,247.46666666666667
1505,8.533333333333333,-480.0,251.73333333333332
1506,10.666666666666666,-482.1333333333333,241.06666666666666
1507,12.8,-484.26666666666665,251.73333333333332
1508,17.066666666666666,-486.4,249.6
1509,17.066666666666666,-482.1333333333333,251.73333333333332
1510,17.066666666666666,-486.4,247.46666666666667
1511,14.933333333333334,-482.1333333333333,260.26666666666665
1512,14.933333333333334,-484.26666666666665,251.73333333333332
1513,17.066666666666666,-488.5333333333333,247.46666666666667
1514,17.066666666666666,-480.0,251.73333333333332
1515,21.333333333333332,-480.0,243.2
1516,12.8,-480.0,249.6
1517,12.8,-484.26666666666665,245.33333333333334
1518,19.2,-486.4,253.86666666666667
1519,10.666666666666666,-475.73333333333335,253.86666666666667
1520,10.666666666666666,-480.0,247.46666666666667
1521,10.666666666666666,-484.26666666666665,243.2
1522,10.666666666666666,-480.0,245.33333333333334
1523,6.4,-482.1333333333333,247.46666666666667
1524,19.2,-494.93333333333334,247.46666666666667
1525,8.533333333333333,-486.4,238.93333333333334
1526,19.2,-482.1333333333333,241.06666666666666
1527,14.933333333333334,-488.5333333333333,253.86666666666667
1528,12.8,-484.26666666666665,238.93333333333334
1529,12.8,-480.0,243.2
1530,12.8,-477.8666666666667,256.0
1531,10.666666666666666,-488.5333333333333,247.46666666666667
1532,17.066666666666666,-484.26666666666665,243.2
1533,14.933333333333334,-484.26666666666665,249.6
1534,17.066666666666666,-477.8666666666667,249.6
1535,6.4,-488.5333333333333,243.2
1536,21.333333333333332,-484.26666666666665,275.2
1537,8.533333333333333,-488.5333333333333,247.46666666666667
1538,10.666666666666666,-480.0,241.06666666666666
1539,12.8,-473.59999999999997,256.0
1540,10.666666666666666,-477.8666666666667,245.33333333333334
1541,8.533333333333333,-480.0,251.73333333333332
1542,10.666666666666666,-494.93333333333334,251.73333333333332
1543,6.4,-477.8666666666667,253.86666666666667
1544,6.4,-475.73333333333335,247.46666666666667
1545,10.666666666666666,-488.5333333333333,245.33333333333334
1546,12.8,-488.5333333333333,247.46666666666667
1547,8.533333333333333,-482.1333333333333,251.73333333333332
1548,21.333333333333332,-488.5333333333333,238.93333333333334
1549,12.8,-482.1333333333333,247.46666666666667
1550,12.8,-486.4,249.6
1551,12.8,-482.1333333333333,247.46666666666667
1552,10.666666666666666,-484.26666666666665,241.06666666666666
1553,10.666666666666666,-488.5333333333333,236.79999999999998
1554,12.8,-488.5333333333333,249.6
1555,8.533333333333333,-484.26666666666665,245.33333333333334
1556,10.666666666666666,-490.6666666666667,236.79999999999998
1557,10.666666666666666,-490.6666666666667,230.4
1558,8.533333333333333,-482.1333333333333,243.2
1559,12.8,-482.1333333333333,230.4
1560,12.8,-482.1333333333333,238.93333333333334
1561,17.066666666666666,-486.4,234.66666666666666
1562,10.666666666666666,-484.26666666666665,232.53333333333333
1563,12.8,-484.26666666666665,236.79999999999998
1564,17.066666666666666,-488.5333333333333,241.06666666666666
1565,17.066666666666666,-486.4,234.66666666666666
1566,14.933333333333334,-490.6666666666667,236.79999999999998
1567,14.933333333333334,-480.0,236.79999999999998
1568,17.066666666666666,-490.6666666666667,234.66666666666666
1569,12.8,-482.1333333333333,243.2
1570,19.2,-484.26666666666665,238.93333333333334
1571,21.333333333333332,-490.6666666666667,234.66666666666666
1572,23.466666666666665,-484.26666666666665,245.33333333333334
1573,17.066666666666666,-482.1333333333333,245.33333333333334
1574,17.066666666666666,-488.5333333333333,243.2
1575,14.933333333333334,-480.0,249.6
1576,21.333333333333332,-477.8666666666667,243.2
1577,14.933333333333334,-482.1333333333333,249.6
1578,19.2,-484.26666666666665,241.06666666666666
1579,21.333333333333332,-486.4,273.06666666666666
1580,17.066666666666666,-488.5333333333333,247.46666666666667
1581,23.466666666666665,-486.4,243.2
1582,14.933333333333334,-477.8666666666667,249.6
1583,12.8,-488.5333333333333,253.86666666666667
1584,19.2,-480.0,247.46666666666667
1585,12.8,-490.6666666666667,251.73333333333332
1586,12.8,-482.1333333333333,247.46666666666667
1587,17.066666666666666,-486.4,249.6
1588,19.2,-490.6666666666667,245.33333333333334
1589,10.666666666666666,-484.26666666666665,238.93333333333334
1590,8.533333333333333,-477.8666666666667,245.33333333333334
1591,19.2,-480.0,243.2
1592,14.933333333333334,-482.1333333333333,249.6
1593,12.8,-480.0,251.73333333333332
1594,12.8,-473.59999999999997,245.33333333333334
1595,12.8,-475.73333333333335,249.6
1596,14.933333333333334,-477.8666666666667,249.6
1597,19.2,-482.1333333333333,253.86666666666667
1598,8.533333333333333,-475.73333333333335,260.26666666666665
1599,12.8,-482.1333333333333,245.33333333333334
1600,14.933333333333334,-484.26666666666665,262.4
1601,10.666666666666666,-480.0,251.73333333333332
1602,17.066666666666666,-482.1333333333333,243.2
1603,17.066666666666666,-477.8666666666667,249.6
1604,10.666666666666666,-484.26666666666665,247.46666666666667
1605,8.533333333333333,-480.0,243.2
1606,8.533333333333333,-480.0,253.86666666666667
1607,8.533333333333333,-477.8666666666667,243.2
1608,14.933333333333334,-484.26666666666665,253.86666666666667
1609,17.066666666666666,-482.1333333333333,253.86666666666667
1610,8.533333333333333,-477.8666666666667,251.73333333333332
1611,8.533333333333333,-480.0,243.2
1612,14.933333333333334,-477.8666666666667,251.73333333333332
1613,14.933333333333334,-486.4,245.33333333333334
1614,10.666666666666666,-486.4,243.2
1615,12.8,-482.1333333333333,251.73333333333332
1616,10.666666666666666,-488.5333333333333,241.06666666666666
1617,12.8,-482.1333333333333,253.86666666666667
1618,14.933333333333334,-480.0,245.33333333333334
1619,17.066666666666666,-482.1333333333333,245.33333333333334
1620,10.666666666666666,-477.8666666666667,251.73333333333332
1621,10.666666666666666,-477.8666666666667,262.4
1622,6.4,-486.4,260.26666666666665
1623,8.533333333333333,-480.0,262.4
1624,8.533333333333333,-484.26666666666665,253.86666666666667
1625,8.533333333333333,-482.1333333333333,249.6
1626,10.666666666666666,-480.0,249.6
1627,8.533333333333333,-480.0,251.73333333333332
1628,8.533333333333333,-484.26666666666665,249.6
1629,6.4,-473.59999999999997,251.73333333333332
1630,12.8,-480.0,249.6
1631,10.666666666666666,-482.1333333333333,249.6
1632,12.8,-482.1333333333333,247.46666666666667
1633,10.666666666666666,-480.0,251.73333333333332
1634,10.666666666666666,-484.26666666666665,251.73333333333332
1635,12.8,-469.3333333333333,260.26666666666665
1636,4.266666666666667,-480.0,258.1333333333333
1637,8.533333333333333,-477.8666666666667,249.6
1638,6.4,-477.8666666666667,258.1333333333333
1639,12.8,-477.8666666666667,249.6
1640,12.8,-475.73333333333335,256.0
1641,8.533333333333333,-469.3333333333333,251.73333333333332
1642,10.666666666666666,-480.0,253.86666666666667
1643,12.8,-477.8666666666667,249.6
1644,14.933333333333334,-475.73333333333335,251.73333333333332
1645,10.666666666666666,-475.73333333333335,251.73333333333332
1646,10.666666666666666,-480.0,251.73333333333332
1647,23.466666666666665,-480.0,258.1333333333333
1648,12.8,-477.8666666666667,253.86666666666667
1649,14.933333333333334,-480.0,253.86666666666667
1650,10.666666666666666,-475.73333333333335,258.1333333333333
1651,10.666666666666666,-477.8666666666667,256.0
1652,10.666666666666666,-480.0,251.73333333333332
1653,6.4,-477.8666666666667,262.4
1654,12.8,-473.59999999999997,251.73333333333332
1655,14.933333333333334,-480.0,249.6
1656,17.066666666666666,-484.26666666666665,256.0
1657,14.933333333333334,-484.26666666666665,247.46666666666667
1658,12.8,-477.8666666666667,253.86666666666667
1659,17.066666666666666,-480.0,258.1333333333333
1660,21.333333333333332,-477.8666666666667,256.0
1661,6.4,-477.8666666666667,251.73333333333332
1662,19.2,-475.73333333333335,260.26666666666665
1663,12.8,-482.1333333333333,262.4
1664,12.8,-477.8666666666667,253.86666666666667
1665,14.933333333333334,-480.0,256.0
1666,17.066666666666666,-477.8666666666667,251.73333333333332
1667,17.066666666666666,-482.1333333333333,253.86666666666667
1668,17.066666666666666,-480.0,249.6
1669,17.066666666666666,-482.1333333333333,253.86666666666667
1670,12.8,-480.0,249.6
1671,17.066666666666666,-480.0,247.46666666666667
1672,8.533333333333333,-482.1333333333333,256.0
1673,6.4,-473.59999999999997,256.0
1674,21.333333333333332,-484.26666666666665,258.1333333333333
1675,10.666666666666666,-475.73333333333335,258.1333333333333
1676,10.666666666666666,-477.8666666666667,251.73333333333332
1677,19.2,-484.26666666666665,245.33333333333334
1678,10.666666666666666,-482.1333333333333,253.86666666666667
1679,12.8,-475.73333333333335,253.86666666666667
1680,19.2,-480.0,247.46666666666667
1681,19.2,-484.26666666666665,264.5333333333333
1682,17.066666666666666,-482.1333333333333,253.86666666666667
1683,14.933333333333334,-475.73333333333335,253.86666666666667
1684,14.933333333333334,-477.8666666666667,256.0
1685,10.666666666666666,-475.73333333333335,245.33333333333334
1686,12.8,-484.26666666666665,249.6
1687,8.533333333333333,-482.1333333333333,260.26666666666665
1688,10.666666666666666,-473.59999999999997,256.0
1689,12.8,-477.8666666666667,251.73333333333332
1690,12.8,-480.0,253.86666666666667
1691,14.933333333333334,-473.59999999999997,256.0
1692,10.666666666666666,-480.0,251.73333333333332
1693,8.533333333333333,-471.46666666666664,260.26666666666665
1694,17.066666666666666,-475.73333333333335,253.86666666666667
1695,17.066666666666666,-473.59999999999997,253.86666666666667
1696,10.666666666666666,-471.46666666666664,253.86666666666667
1697,17.066666666666666,-477.8666666666667,264.5333333333333
1698,14.933333333333334,-473.59999999999997,260.26666666666665
1699,17.066666666666666,-480.0,262.4
1700,21.333333333333332,-477.8666666666667,260.26666666666665
1701,10.666666666666666,-473.59999999999997,260.26666666666665
1702,14.933333333333334,-473.59999999999997,258.1333333333333
1703,17.066666666666666,-475.73333333333335,260.26666666666665
1704,8.533333333333333,-473.59999999999997,264.5333333333333
1705,10.666666666666666,-473.59999999999997,258.1333333333333
1706,12.8,-475.73333333333335,249.6
1707,10.666666666666666,-473.59999999999997,260.26666666666665
1708,17.066666666666666,-480.0,262.4
1709,12.8,-475.73333333333335,262.4
1710,14.933333333333334,-480.0,253.86666666666667
1711,8.533333333333333,-477.8666666666667,260.26666666666665
1712,14.933333333333334,-477.8666666666667,258.1333333333333
1713,8.533333333333333,-467.2,260.26666666666665
1714,17.066666666666666,-473.59999999999997,258.1333333333333
1715,14.933333333333334,-475.73333333333335,262.4
1716,6.4,-469.3333333333333,256.0
1717,10.666666666666666,-475.73333333333335,268.8
1718,12.8,-477.8666666666667,256.0
1719,8.533333333333333,-475.73333333333335,258.1333333333333
1720,8.533333333333333,-477.8666666666667,253.86666666666667
1721,8.533333333333333,-477.8666666666667,258.1333333333333
1722,0.0,-475.73333333333335,260.26666666666665
1723,6.4,-475.73333333333335,256.0
1724,14.933333333333334,-484.26666666666665,266.6666666666667
1725,14.933333333333334,-480.0,266.6666666666667
1726,12.8,-490.6666666666667,260.26666666666665
1727,6.4,-480.0,251.73333333333332
1728,10.666666666666666,-480.0,256.0
1729,12.8,-482.1333333333333,258.1333333333333
1730,12.8,-482.1333333333333,247.46666666666667
1731,17.066666666666666,-471.46666666666664,264.5333333333333
1732,10.666666666666666,-477.8666666666667,253.86666666666667
1733,10.666666666666666,-477.8666666666667,253.86666666666667
1734,21.333333333333332,-475.73333333333335,262.4
1735,14.933333333333334,-477.8666666666667,258.1333333333333
1736,19.2,-477.8666666666667,262.4
1737,6.4,-473.59999999999997,264.5333333333333
1738,17.066666666666666,-473.59999999999997,264.5333333333333
1739,10.666666666666666,-473.59999999999997,266.6666666666667
1740,12.8,-475.73333333333335,266.6666666666667
1741,19.2,-477.8666666666667,258.1333333333333
1742,19.2,-475.73333333333335,256.0
1743,19.2,-482.1333333333333,262.4
1744,4.266666666666667,-475.73333333333335,268.8
1745,6.4,-475.73333333333335,260.26666666666665
1746,19.2,-471.46666666666664,256.0
1747,19.2,-471.46666666666664,262.4
1748,14.933333333333334,-473.59999999999997,256.0
1749,14.933333333333334,-471.46666666666664,266.6666666666667
1750,17.066666666666666,-477.8666666666667,260.26666666666665
1751,14.933333333333334,-480.0,260.26666666666665
1752,14.933333333333334,-475.73333333333335,256.0
1753,17.066666666666666,-473.59999999999997,258.1333333333333
1754,17.066666666666666,-475.73333333333335,268.8
1755,14.933333333333334,-473.59999999999997,260.26666666666665
1756,12.8,-475.73333333333335,260.26666666666665
1757,14.933333333333334,-471.46666666666664,258.1333333333333
1758,14.933333333333334,-471.46666666666664,258.1333333333333
1759,12.8,-475.73333333333335,256.0
1760,10.666666666666666,-482.1333333333333,268.8
1761,10.666666666666666,-484.26666666666665,262.4
1762,17.066666666666666,-469.3333333333333,256.0
1763,14.933333333333334,-473.59999999999997,262.4
1764,12.8,-475.73333333333335,262.4
1765,14.933333333333334,-473.59999999999997,266.6666666666667
1766,10.666666666666666,-471.46666666666664,256.0
1767,17.066666666666666,-475.73333333333335,264.5333333333333
1768,14.933333333333334,-471.46666666666664,256.0
1769,12.8,-473.59999999999997,264.5333333333333
1770,14.933333333333334,-477.8666666666667,262.4
1771,12.8,-475.73333333333335,258.1333333333333
1772,14.933333333333334,-477.8666666666667,249.6
1773,12.8,-469.3333333333333,258.1333333333333
1774,14.933333333333334,-473.59999999999997,260.26666666666665
1775,8.533333333333333,-469.3333333333333,260.26666666666665
1776,12.8,-471.46666666666664,260.26666666666665
1777,17.066666666666666,-473.59999999999997,268.8
1778,12.8,-477.8666666666667,262.4
1779,14.933333333333334,-473.59999999999997,268.8
1780,12.8,-471.46666666666664,260.26666666666665
1781,17.066666666666666,-486.4,264.5333333333333
1782,21.333333333333332,-480.0,262.4
1783,12.8,-477.8666666666667,262.4
1784,21.333333333333332,-477.8666666666667,258.1333333333333
1785,19.2,-482.1333333333333,256.0
1786,19.2,-480.0,253.86666666666667
1787,19.2,-480.0,253.86666666666667
1788,19.2,-475.73333333333335,266.6666666666667
1789,25.6,-480.0,258.1333333333333
1790,21.333333333333332,-482.1333333333333,253.86666666666667
1791,19.2,-477.8666666666667,256.0
1792,19.2,-473.59999999999997,264.5333333333333
1793,23.466666666666665,-475.73333333333335,266.6666666666667
1794,21.333333333333332,-477.8666666666667,260.26666666666665
1795,21.333333333333332,-473.59999999999997,262.4
1796,12.8,-473.59999999999997,253.86666666666667
1797,19.2,-473.59999999999997,262.4
1798,17.066666666666666,-473.59999999999997,262.4
1799,17.066666666666666,-465.06666666666666,266.6666666666667
1800,12.8,-465.06666666666666,256.0
1801,21.333333333333332,-471.46666666666664,266.6666666666667
1802,21.333333333333332,-469.3333333333333,260.26666666666665
1803,21.333333333333332,-460.8,262.4
1804,14.933333333333334,-465.06666666666666,262.4
1805,14.933333333333334,-462.93333333333334,268.8
1806,14.933333333333334,-462.93333333333334,277.3333333333333
1807,12.8,-467.2,273.06666666666666
1808,2.1333333333333333,-469.3333333333333,260.26666666666665
1809,2.1333333333333333,-465.06666666666666,266.6666666666667
1810,8.533333333333333,-471.46666666666664,266.6666666666667
1811,6.4,-465.06666666666666,268.8
1812,6.4,-473.59999999999997,260.26666666666665
1813,8.533333333333333,-475.73333333333335,260.26666666666665
1814,12.8,-473.59999999999997,264.5333333333333
1815,19.2,-475.73333333333335,264.5333333333333
1816,14.933333333333334,-473.59999999999997,273.06666666666666
1817,14.933333333333334,-475.73333333333335,260.26666666666665
1818,6.4,-465.06666666666666,262.4
1819,14.933333333333334,-475.73333333333335,264.5333333333333
1820,8.533333333333333,-471.46666666666664,266.6666666666667
1821,12.8,-473.59999999999997,262.4
1822,8.533333333333333,-475.73333333333335,256.0
1823,6.4,-471.46666666666664,256.0
1824,6.4,-469.3333333333333,264.5333333333333
1825,12.8,-471.46666666666664,264.5333333333333
1826,8.533333333333333,-469.3333333333333,264.5333333333333
1827,4.266666666666667,-471.46666666666664,266.6666666666667
1828,10.666666666666666,-467.2,273.06666666666666
1829,17.066666666666666,-473.59999999999997,260.26666666666665
1830,10.666666666666666,-473.59999999999997,253.86666666666667
1831,14.933333333333334,-473.59999999999997,268.8
1832,17.066666666666666,-475.73333333333335,273.06666666666666
1833,21.333333333333332,-475.73333333333335,270.93333333333334
1834,10.666666666666666,-477.8666666666667,268.8
1835,19.2,-480.0,266.6666666666667
1836,19.2,-477.8666666666667,264.5333333333333
1837,23.466666666666665,-471.46666666666664,270.93333333333334
1838,23.466666666666665,-477.8666666666667,273.06666666666666
1839,21.333333333333332,-484.26666666666665,273.06666666666666
1840,19.2,-471.46666666666664,264.5333333333333
1841,27.733333333333334,-482.1333333333333,277.3333333333333
1842,21.333333333333332,-473.59999999999997,258.1333333333333
1843,27.733333333333334,-475.73333333333335,264.5333333333333
1844,25.6,-473.59999999999997,264.5333333333333
1845,23.466666666666665,-475.73333333333335,258.1333333333333
1846,19.2,-475.73333333333335,264.5333333333333
1847,27.733333333333334,-477.8666666666667,256.0
1848,25.6,-473.59999999999997,260.26666666666665
1849,21.333333333333332,-480.0,251.73333333333332
1850,27.733333333333334,-482.1333333333333,258.1333333333333
1851,23.466666666666665,-471.46666666666664,260.26666666666665
1852,27.733333333333334,-473.59999999999997,258.1333333333333
1853,23.466666666666665,-475.73333333333335,262.4
1854,21.333333333333332,-475.73333333333335,256.0
1855,23.466666666666665,-469.3333333333333,251.73333333333332
1856,25.6,-473.59999999999997,260.26666666666665
1857,25.6,-473.59999999999997,253.86666666666667
1858,29.866666666666667,-475.73333333333335,251.73333333333332
1859,23.466666666666665,-473.59999999999997,251.73333333333332
1860,29.866666666666667,-473.59999999999997,258.1333333333333
1861,19.2,-480.0,258.1333333333333
1862,21.333333333333332,-482.1333333333333,258.1333333333333
1863,19.2,-480.0,258.1333333333333
1864,21.333333333333332,-477.8666666666667,262.4
1865,23.466666666666665,-486.4,243.2
1866,17.066666666666666,-488.5333333333333,251.73333333333332
1867,21.333333333333332,-480.0,251.73333333333332
1868,14.933333333333334,-482.1333333333333,256.0
1869,21.333333333333332,-484.26666666666665,238.93333333333334
1870,17.066666666666666,-482.1333333333333,238.93333333333334
1871,10.666666666666666,-484.26666666666665,247.46666666666667
1872,21.333333333333332,-484.26666666666665,236.79999999999998
1873,19.2,-482.1333333333333,258.1333333333333
1874,23.466666666666665,-477.8666666666667,253.86666666666667
1875,23.466666666666665,-475.73333333333335,253.86666666666667
1876,14.933333333333334,-480.0,258.1333333333333
1877,19.2,-480.0,251.73333333333332
1878,17.066666666666666,-475.73333333333335,258.1333333333333
1879,17.066666666666666,-477.8666666666667,268.8
1880,17.066666666666666,-477.8666666666667,256.0
1881,14.933333333333334,-473.59999999999997,249.6
1882,17.066666666666666,-475.73333333333335,260.26666666666665
1883,17.066666666666666,-477.8666666666667,253.86666666666667
1884,17.066666666666666,-469.3333333333333,264.5333333333333
1885,21.333333333333332,-482.1333333333333,256.0
1886,25.6,-477.8666666666667,253.86666666666667
1887,21.333333333333332,-480.0,260.26666666666665
1888,17.066666666666666,-477.8666666666667,260.26666666666665
1889,12.8,-480.0,262.4
1890,23.466666666666665,-482.1333333333333,262.4
1891,19.2,-477.8666666666667,264.5333333333333
1892,12.8,-471.46666666666664,262.4
1893,14.933333333333334,-475.73333333333335,256.0
1894,17.066666666666666,-486.4,264.5333333333333
1895,14.933333333333334,-473.59999999999997,266.6666666666667
1896,19.2,-480.0,258.1333333333333
1897,14.933333333333334,-475.73333333333335,262.4
1898,17.066666666666666,-475.73333333333335,253.86666666666667
1899,19.2,-477.8666666666667,260.26666666666665
1900,14.933333333333334,-475.73333333333335,260.26666666666665
1901,19.2,-480.0,251.73333333333332
1902,19.2,-475.73333333333335,260.26666666666665
1903,23.466666666666665,-467.2,258.1333333333333
1904,25.6,-462.93333333333334,256.0
1905,14.933333333333334,-452.26666666666665,270.93333333333334
1906,12.8,-477.8666666666667,262.4
1907,17.066666666666666,-507.73333333333335,264.5333333333333
1908,23.466666666666665,-512.0,262.4
1909,23.466666666666665,-492.8,264.5333333333333
1910,17.066666666666666,-486.4,273.06666666666666
1911,19.2,-484.26666666666665,262.4
1912,19.2,-471.46666666666664,258.1333333333333
1913,17.066666666666666,-469.3333333333333,258.1333333333333
1914,25.6,-456.5333333333333,258.1333333333333
1915,23.466666666666665,-458.6666666666667,258.1333333333333
1916,23.466666666666665,-456.5333333333333,258.1333333333333
1917,34.13333333333333,-462.93333333333334,264.5333333333333
1918,23.466666666666665,-456.5333333333333,268.8
1919,27.733333333333334,-462.93333333333334,268.8
1920,21.333333333333332,-462.93333333333334,264.5333333333333
1921,25.6,-467.2,270.93333333333334
1922,25.6,-471.46666666666664,268.8
1923,21.333333333333332,-465.06666666666666,273.06666666666666
1924,17.066666666666666,-469.3333333333333,275.2
1925,19.2,-480.0,277.3333333333333
1926,19.2,-480.0,273.06666666666666
1927,19.2,-482.1333333333333,268.8
1928,19.2,-473.59999999999997,275.2
1929,19.2,-471.46666666666664,270.93333333333334
1930,19.2,-471.46666666666664,277.3333333333333
1931,23.466666666666665,-473.59999999999997,279.46666666666664
1932,21.333333333333332,-469.3333333333333,275.2
1933,17.066666666666666,-462.93333333333334,273.06666666666666
1934,25.6,-473.59999999999997,268.8
1935,23.466666666666665,-473.59999999999997,277.3333333333333
1936,23.466666666666665,-477.8666666666667,273.06666666666666
1937,21.333333333333332,-443.73333333333335,268.8
1938,10.666666666666666,-460.8,275.2
1939,19.2,-514.1333333333333,281.6
1940,17.066666666666666,-516.2666666666667,279.46666666666664
1941,25.6,-477.8666666666667,273.06666666666666
1942,19.2,-460.8,268.8
1943,17.066666666666666,-448.0,273.06666666666666
1944,14.933333333333334,-448.0,270.93333333333334
1945,17.066666666666666,-445.8666666666667,264.5333333333333
1946,29.866666666666667,-450.1333333333333,264.5333333333333
1947,25.6,-450.1333333333333,262.4
1948,14.933333333333334,-458.6666666666667,262.4
1949,27.733333333333334,-471.46666666666664,266.6666666666667
1950,29.866666666666667,-452.26666666666665,253.86666666666667
1951,25.6,-473.59999999999997,266.6666666666667
1952,29.866666666666667,-488.5333333333333,262.4
1953,25.6,-492.8,268.8
1954,19.2,-488.5333333333333,260.26666666666665
1955,27.733333333333334,-494.93333333333334,277.3333333333333
1956,21.333333333333332,-497.06666666666666,275.2
1957,25.6,-488.5333333333333,273.06666666666666
1958,23.466666666666665,-482.1333333333333,273.06666666666666
1959,17.066666666666666,-477.8666666666667,275.2
1960,25.6,-480.0,281.6
1961,27.733333333333334,-462.93333333333334,266.6666666666667
1962,23.466666666666665,-462.93333333333334,279.46666666666664
1963,29.866666666666667,-462.93333333333334,270.93333333333334
1964,17.066666666666666,-465.06666666666666,268.8
1965,25.6,-460.8,266.6666666666667
1966,25.6,-454.4,279.46666666666664
1967,23.466666666666665,-458.6666666666667,275.2
1968,25.6,-460.8,281.6
1969,23.466666666666665,-460.8,277.3333333333333
1970,23.466666666666665,-462.93333333333334,275.2
1971,21.333333333333332,-460.8,283.73333333333335
1972,25.6,-456.5333333333333,277.3333333333333
1973,25.6,-456.5333333333333,277.3333333333333
1974,25.6,-462.93333333333334,270.93333333333334
1975,14.933333333333334,-458.6666666666667,277.3333333333333
1976,14.933333333333334,-458.6666666666667,279.46666666666664
1977,21.333333333333332,-462.93333333333334,283.73333333333335
1978,23.466666666666665,-469.3333333333333,277.3333333333333
1979,17.066666666666666,-465.06666666666666,285.8666666666667
1980,19.2,-467.2,283.73333333333335
1981,19.2,-469.3333333333333,283.73333333333335
1982,17.066666666666666,-467.2,277.3333333333333
1983,19.2,-465.06666666666666,288.0
1984,21.333333333333332,-458.6666666666667,273.06666666666666
1985,14.933333333333334,-458.6666666666667,275.2
1986,19.2,-452.26666666666665,277.3333333333333
1987,19.2,-452.26666666666665,273.06666666666666
1988,19.2,-448.0,277.3333333333333
1989,19.2,-450.1333333333333,281.6
1990,19.2,-454.4,275.2
1991,10.666666666666666,-456.5333333333333,283.73333333333335
1992,19.2,-454.4,275.2
1993,12.8,-456.5333333333333,270.93333333333334
1994,19.2,-462.93333333333334,283.73333333333335
1995,21.333333333333332,-467.2,285.8666666666667
1996,19.2,-462.93333333333334,279.46666666666664
1997,21.333333333333332,-465.06666666666666,275.2
1998,17.066666666666666,-469.3333333333333,279.46666666666664
1999,23.466666666666665,-469.3333333333333,283.73333333333335
2000,21.333333333333332,-465.06666666666666,283.73333333333335
2001,25.6,-469.3333333333333,288.0
2002,19.2,-467.2,270.93333333333334
2003,17.066666666666666,-467.2,277.3333333333333
2004,21.333333333333332,-471.46666666666664,279.46666666666664
2005,19.2,-473.59999999999997,273.06666666666666
2006,19.2,-467.2,275.2
2007,12.8,-460.8,270.93333333333334
2008,14.933333333333334,-465.06666666666666,277.3333333333333
2009,23.466666666666665,-465.06666666666666,273.06666666666666
2010,17.066666666666666,-456.5333333333333,277.3333333333333
2011,21.333333333333332,-454.4,283.73333333333335
2012,17.066666666666666,-458.6666666666667,288.0
2013,29.866666666666667,-467.2,283.73333333333335
2014,21.333333333333332,-465.06666666666666,283.73333333333335
2015,21.333333333333332,-469.3333333333333,290.1333333333333
2016,21.333333333333332,-467.2,285.8666666666667
2017,17.066666666666666,-462.93333333333334,285.8666666666667
2018,23.466666666666665,-465.06666666666666,277.3333333333333
2019,21.333333333333332,-462.93333333333334,277.3333333333333
2020,23.466666666666665,-465.06666666666666,281.6
2021,23.466666666666665,-462.93333333333334,273.06666666666666
2022,27.733333333333334,-469.3333333333333,277.3333333333333
2023,21.333333333333332,-467.2,281.6
2024,29.866666666666667,-465.06666666666666,277.3333333333333
2025,25.6,-469.3333333333333,283.73333333333335
2026,25.6,-450.1333333333333,273.06666666666666
2027,27.733333333333334,-460.8,277.3333333333333
2028,21.333333333333332,-458.6666666666667,279.46666666666664
2029,25.6,-458.6666666666667,273.06666666666666
2030,23.466666666666665,-467.2,279.46666666666664
2031,27.733333333333334,-475.73333333333335,264.5333333333333
2032,19.2,-467.2,268.8
2033,25.6,-475.73333333333335,279.46666666666664
2034,-2.1333333333333333,-462.93333333333334,264.5333333333333
2035,27.733333333333334,-471.46666666666664,260.26666666666665
2036,19.2,-471.46666666666664,273.06666666666666
2037,23.466666666666665,-471.46666666666664,270.93333333333334
2038,19.2,-460.8,270.93333333333334
2039,23.466666666666665,-465.06666666666666,264.5333333333333
2040,27.733333333333334,-462.93333333333334,275.2
2041,25.6,-458.6666666666667,270.93333333333334
2042,21.333333333333332,-458.6666666666667,266.6666666666667
2043,17.066666666666666,-458.6666666666667,268.8
2044,17.066666666666666,-458.6666666666667,270.93333333333334
2045,17.066666666666666,-465.06666666666666,277.3333333333333
2046,25.6,-465.06666666666666,279.46666666666664
2047,23.466666666666665,-475.73333333333335,281.6
2048,14.933333333333334,-465.06666666666666,270.93333333333334
2049,17.066666666666666,-460.8,283.73333333333335
2050,21.333333333333332,-462.93333333333334,283.73333333333335
2051,23.466666666666665,-467.2,279.46666666666664
2052,25.6,-462.93333333333334,281.6
2053,27.733333333333334,-467.2,279.46666666666664
2054,14.933333333333334,-467.2,279.46666666666664
2055,25.6,-462.93333333333334,283.73333333333335
2056,23.466666666666665,-465.06666666666666,277.3333333333333
2057,29.866666666666667,-467.2,279.46666666666664
2058,23.466666666666665,-460.8,279.46666666666664
2059,23.466666666666665,-465.06666666666666,279.46666666666664
2060,27.733333333333334,-460.8,275.2
2061,23.466666666666665,-462.93333333333334,283.73333333333335
2062,23.466666666666665,-465.06666666666666,279.46666666666664
2063,21.333333333333332,-465.06666666666666,279.46666666666664
2064,19.2,-458.6666666666667,285.8666666666667
2065,29.866666666666667,-458.6666666666667,273.06666666666666
2066,25.6,-456.5333333333333,281.6
2067,29.866666666666667,-458.6666666666667,281.6
2068,25.6,-458.6666666666667,279.46666666666664
2069,23.466666666666665,-456.5333333333333,277.3333333333333
2070,23.466666666666665,-460.8,275.2
2071,27.733333333333334,-452.26666666666665,277.3333333333333
2072,32.0,-456.5333333333333,277.3333333333333
2073,29.866666666666667,-458.6666666666667,279.46666666666664
2074,32.0,-465.06666666666666,275.2
2075,23.466666666666665,-469.3333333333333,273.06666666666666
2076,25.6,-473.59999999999997,279.46666666666664
2077,21.333333333333332,-473.59999999999997,279.46666666666664
2078,21.333333333333332,-473.59999999999997,277.3333333333333
2079,17.066666666666666,-482.1333333333333,283.73333333333335
2080,23.466666666666665,-486.4,279.46666666666664
2081,21.333333333333332,-486.4,281.6
2082,23.466666666666665,-486.4,283.73333333333335
2083,10.666666666666666,-477.8666666666667,279.46666666666664
2084,14.933333333333334,-471.46666666666664,285.8666666666667
2085,12.8,-467.2,277.3333333333333
2086,23.466666666666665,-465.06666666666666,281.6
2087,14.933333333333334,-450.1333333333333,279.46666666666664
2088,17.066666666666666,-456.5333333333333,275.2
2089,19.2,-452.26666666666665,262.4
2090,19.2,-454.4,266.6666666666667
2091,14.933333333333334,-448.0,277.3333333333333
2092,10.666666666666666,-460.8,258.1333333333333
2093,19.2,-456.5333333333333,273.06666666666666
2094,19.2,-452.26666666666665,277.3333333333333
2095,23.466666666666665,-452.26666666666665,275.2
2096,23.466666666666665,-460.8,281.6
2097,21.333333333333332,-465.06666666666666,277.3333333333333
2098,25.6,-467.2,277.3333333333333
2099,21.333333333333332,-462.93333333333334,283.73333333333335
2100,17.066666666666666,-473.59999999999997,285.8666666666667
2101,14.933333333333334,-465.06666666666666,281.6
2102,21.333333333333332,-469.3333333333333,277.3333333333333
2103,23.466666666666665,-465.06666666666666,277.3333333333333
2104,17.066666666666666,-473.59999999999997,281.6
2105,19.2,-465.06666666666666,273.06666666666666
2106,27.733333333333334,-460.8,279.46666666666664
2107,32.0,-469.3333333333333,279.46666666666664
2108,23.466666666666665,-477.8666666666667,281.6
2109,23.466666666666665,-477.8666666666667,283.73333333333335
2110,21.333333333333332,-473.59999999999997,275.2
2111,23.466666666666665,-467.2,279.46666666666664
2112,17.066666666666666,-462.93333333333334,281.6
2113,21.333333333333332,-460.8,273.06666666666666
2114,21.333333333333332,-460.8,275.2
2115,23.466666666666665,-454.4,273.06666666666666
2116,21.333333333333332,-454.4,268.8
2117,25.6,-450.1333333333333,270.93333333333334
2118,23.466666666666665,-452.26666666666665,273.06666666666666
2119,23.466666666666665,-450.1333333333333,275.2
2120,25.6,-452.26666666666665,273.06666666666666
2121,19.2,-454.4,277.3333333333333
2122,23.466666666666665,-462.93333333333334,281.6
2123,21.333333333333332,-469.3333333333333,279.46666666666664
2124,25.6,-469.3333333333333,281.6
2125,23.466666666666665,-480.0,283.73333333333335
2126,21.333333333333332,-477.8666666666667,275.2
2127,25.6,-477.8666666666667,279.46666666666664
2128,17.066666666666666,-469.3333333333333,279.46666666666664
2129,27.733333333333334,-473.59999999999997,283.73333333333335
2130,25.6,-460.8,285.8666666666667
2131,27.733333333333334,-467.2,281.6
2132,17.066666666666666,-462.93333333333334,290.1333333333333
2133,19.2,-462.93333333333334,290.1333333333333
2134,25.6,-473.59999999999997,292.26666666666665
2135,32.0,-460.8,288.0
2136,19.2,-460.8,288.0
2137,23.466666666666665,-460.8,281.6
2138,25.6,-467.2,279.46666666666664
2139,21.333333333333332,-467.2,268.8
2140,27.733333333333334,-467.2,277.3333333333333
2141,27.733333333333334,-471.46666666666664,281.6
2142,21.333333333333332,-456.5333333333333,268.8
2143,34.13333333333333,-469.3333333333333,277.3333333333333
2144,21.333333333333332,-456.5333333333333,279.46666666666664
2145,25.6,-456.5333333333333,273.06666666666666
2146,19.2,-460.8,277.3333333333333
2147,23.466666666666665,-460.8,285.8666666666667
2148,23.466666666666665,-458.6666666666667,273.06666666666666
2149,23.466666666666665,-460.8,283.73333333333335
2150,23.466666666666665,-462.93333333333334,283.73333333333335
2151,21.333333333333332,-462.93333333333334,281.6
2152,21.333333333333332,-458.6666666666667,277.3333333333333
2153,23.466666666666665,-462.93333333333334,283.73333333333335
2154,19.2,-460.8,285.8666666666667
2155,23.466666666666665,-456.5333333333333,285.8666666666667
2156,21.333333333333332,-454.4,285.8666666666667
2157,25.6,-458.6666666666667,288.0
2158,12.8,-458.6666666666667,288.0
2159,25.6,-450.1333333333333,288.0
2160,34.13333333333333,-456.5333333333333,281.6
2161,27.733333333333334,-458.6666666666667,277.3333333333333
2162,23.466666666666665,-467.2,290.1333333333333
2163,21.333333333333332,-465.06666666666666,288.0
2164,23.466666666666665,-473.59999999999997,290.1333333333333
2165,23.466666666666665,-475.73333333333335,292.26666666666665
2166,23.466666666666665,-480.0,283.73333333333335
2167,17.066666666666666,-482.1333333333333,292.26666666666665
2168,17.066666666666666,-475.73333333333335,279.46666666666664
2169,17.066666666666666,-484.26666666666665,285.8666666666667
2170,21.333333333333332,-475.73333333333335,285.8666666666667
2171,23.466666666666665,-467.2,283.73333333333335
2172,10.666666666666666,-458.6666666666667,285.8666666666667
2173,19.2,-460.8,283.73333333333335
2174,21.333333333333332,-462.93333333333334,281.6
2175,17.066666666666666,-458.6666666666667,277.3333333333333
2176,25.6,-458.6666666666667,279.46666666666664
2177,19.2,-456.5333333333333,279.46666666666664
2178,21.333333333333332,-450.1333333333333,281.6
2179,21.333333333333332,-456.5333333333333,279.46666666666664
2180,23.466666666666665,-460.8,285.8666666666667
2181,19.2,-448.0,283.73333333333335
2182,32.0,-462.93333333333334,285.8666666666667
2183,17.066666666666666,-458.6666666666667,277.3333333333333
2184,17.066666666666666,-465.06666666666666,290.1333333333333
2185,23.466666666666665,-465.06666666666666,288.0
2186,23.466666666666665,-460.8,279.46666666666664
2187,21.333333333333332,-465.06666666666666,290.1333333333333
2188,25.6,-462.93333333333334,285.8666666666667
2189,23.466666666666665,-467.2,292.26666666666665
2190,23.466666666666665,-465.06666666666666,285.8666666666667
2191,27.733333333333334,-462.93333333333334,277.3333333333333
2192,21.333333333333332,-456.5333333333333,288.0
2193,27.733333333333334,-460.8,292.26666666666665
2194,29.866666666666667,-460.8,285.8666666666667
2195,29.866666666666667,-456.5333333333333,281.6
2196,32.0,-465.06666666666666,277.3333333333333
2197,27.733333333333334,-460.8,288.0
2198,27.733333333333334,-456.5333333333333,290.1333333333333
2199,27.733333333333334,-469.3333333333333,283.73333333333335
2200,29.866666666666667,-465.06666666666666,288.0
2201,32.0,-462.93333333333334,292.26666666666665
2202,32.0,-456.5333333333333,283.73333333333335
2203,25.6,-458.6666666666667,288.0
2204,25.6,-458.6666666666667,283.73333333333335
2205,25.6,-460.8,285.8666666666667
2206,27.733333333333334,-456.5333333333333,275.2
2207,27.733333333333334,-452.26666666666665,285.8666666666667
2208,27.733333333333334,-458.6666666666667,283.73333333333335
2209,25.6,-454.4,285.8666666666667
2210,29.866666666666667,-465.06666666666666,285.8666666666667
2211,21.333333333333332,-460.8,285.8666666666667
2212,27.733333333333334,-460.8,285.8666666666667
2213,25.6,-465.06666666666666,288.0
2214,29.866666666666667,-462.93333333333334,288.0
2215,32.0,-467.2,285.8666666666667
2216,27.733333333333334,-471.46666666666664,290.1333333333333
2217,25.6,-462.93333333333334,290.1333333333333
2218,23.466666666666665,-458.6666666666667,283.73333333333335
2219,25.6,-458.6666666666667,292.26666666666665
2220,23.466666666666665,-456.5333333333333,285.8666666666667
2221,19.2,-454.4,283.73333333333335
2222,27.733333333333334,-477.8666666666667,264.5333333333333
2223,27.733333333333334,-456.5333333333333,285.8666666666667
2224,27.733333333333334,-462.93333333333334,283.73333333333335
2225,23.466666666666665,-456.5333333333333,288.0
2226,23.466666666666665,-462.93333333333334,283.73333333333335
2227,27.733333333333334,-458.6666666666667,288.0
2228,32.0,-465.06666666666666,290.1333333333333
2229,23.466666666666665,-454.4,290.1333333333333
2230,29.866666666666667,-465.06666666666666,285.8666666666667
2231,29.866666666666667,-456.5333333333333,283.73333333333335
2232,25.6,-460.8,290.1333333333333
2233,21.333333333333332,-462.93333333333334,285.8666666666667
2234,19.2,-450.1333333333333,290.1333333333333
2235,29.866666666666667,-450.1333333333333,281.6
2236,25.6,-454.4,288.0
2237,25.6,-456.5333333333333,290.1333333333333
2238,19.2,-462.93333333333334,288.0
2239,19.2,-452.26666666666665,292.26666666666665
2240,23.466666666666665,-458.6666666666667,288.0
2241,27.733333333333334,-460.8,288.0
2242,25.6,-458.6666666666667,285.8666666666667
2243,17.066666666666666,-454.4,288.0
2244,25.6,-456.5333333333333,283.73333333333335
2245,21.333333333333332,-456.5333333333333,290.1333333333333
2246,25.6,-458.6666666666667,292.26666666666665
2247,25.6,-452.26666666666665,285.8666666666667
2248,25.6,-454.4,285.8666666666667
2249,27.733333333333334,-456.5333333333333,288.0
2250,19.2,-456.5333333333333,292.26666666666665
2251,21.333333333333332,-462.93333333333334,285.8666666666667
2252,25.6,-456.5333333333333,283.73333333333335
2253,14.933333333333334,-460.8,292.26666666666665
2254,25.6,-462.93333333333334,290.1333333333333
2255,25.6,-448.0,307.2
2256,25.6,-462.93333333333334,294.4
2257,21.333333333333332,-456.5333333333333,290.1333333333333
2258,19.2,-452.26666666666665,292.26666666666665
2259,23.466666666666665,-462.93333333333334,290.1333333333333
2260,21.333333333333332,-452.26666666666665,290.1333333333333
2261,25.6,-454.4,288.0
2262,25.6,-465.06666666666666,294.4
2263,23.466666666666665,-460.8,288.0
2264,19.2,-450.1333333333333,294.4
2265,25.6,-460.8,290.1333333333333
2266,29.866666666666667,-460.8,298.6666666666667
2267,21.333333333333332,-460.8,296.5333333333333
2268,21.333333333333332,-452.26666666666665,285.8666666666667
2269,25.6,-458.6666666666667,288.0
2270,29.866666666666667,-456.5333333333333,288.0
2271,19.2,-454.4,285.8666666666667
2272,23.466666666666665,-456.5333333333333,288.0
2273,25.6,-454.4,283.73333333333335
2274,21.333333333333332,-450.1333333333333,294.4
2275,25.6,-460.8,288.0
2276,25.6,-456.5333333333333,292.26666666666665
2277,32.0,-456.5333333333333,290.1333333333333
2278,23.466666666666665,-450.1333333333333,292.26666666666665
2279,25.6,-456.5333333333333,296.5333333333333
2280,36.266666666666666,-454.4,290.1333333333333
2281,29.866666666666667,-450.1333333333333,292.26666666666665
2282,27.733333333333334,-454.4,292.26666666666665
2283,27.733333333333334,-454.4,290.1333333333333
2284,25.6,-456.5333333333333,292.26666666666665
2285,25.6,-460.8,283.73333333333335
2286,23.466666666666665,-458.6666666666667,288.0
2287,23.466666666666665,-458.6666666666667,290.1333333333333
2288,29.866666666666667,-456.5333333333333,285.8666666666667
2289,27.733333333333334,-458.6666666666667,290.1333333333333
2290,21.333333333333332,-456.5333333333333,290.1333333333333
2291,23.466666666666665,-456.5333333333333,288.0
2292,25.6,-462.93333333333334,288.0
2293,29.866666666666667,-462.93333333333334,288.0
2294,29.866666666666667,-462.93333333333334,294.4
2295,29.866666666666667,-471.46666666666664,285.8666666666667
2296,25.6,-450.1333333333333,288.0
2297,29.866666666666667,-458.6666666666667,292.26666666666665
2298,25.6,-486.4,296.5333333333333
2299,29.866666666666667,-458.6666666666667,290.1333333333333
2300,29.866666666666667,-458.6666666666667,290.1333333333333
2301,27.733333333333334,-465.06666666666666,290.1333333333333
2302,21.333333333333332,-460.8,290.1333333333333
2303,25.6,-467.2,283.73333333333335
2304,25.6,-465.06666666666666,290.1333333333333
2305,21.333333333333332,-462.93333333333334,290.1333333333333
2306,27.733333333333334,-460.8,283.73333333333335
2307,21.333333333333332,-454.4,290.1333333333333
2308,14.933333333333334,-452.26666666666665,290.1333333333333
2309,23.466666666666665,-452.26666666666665,285.8666666666667
2310,25.6,-448.0,288.0
2311,23.466666666666665,-454.4,290.1333333333333
2312,23.466666666666665,-460.8,292.26666666666665
2313,25.6,-462.93333333333334,283.73333333333335
2314,25.6,-458.6666666666667,290.1333333333333
2315,27.733333333333334,-460.8,292.26666666666665
2316,21.333333333333332,-452.26666666666665,294.4
2317,23.466666666666665,-456.5333333333333,290.1333333333333
2318,25.6,-456.5333333333333,294.4
2319,25.6,-452.26666666666665,294.4
2320,21.333333333333332,-448.0,298.6666666666667
2321,25.6,-448.0,285.8666666666667
2322,23.466666666666665,-448.0,294.4
2323,25.6,-443.73333333333335,290.1333333333333
2324,21.333333333333332,-454.4,292.26666666666665
2325,19.2,-454.4,294.4
2326,23.466666666666665,-454.4,290.1333333333333
2327,25.6,-456.5333333333333,290.1333333333333
2328,29.866666666666667,-454.4,290.1333333333333
2329,25.6,-458.6666666666667,296.5333333333333
2330,25.6,-448.0,292.26666666666665
2331,32.0,-448.0,281.6
2332,32.0,-452.26666666666665,292.26666666666665
2333,29.866666666666667,-458.6666666666667,288.0
2334,25.6,-456.5333333333333,292.26666666666665
2335,29.866666666666667,-452.26666666666665,290.1333333333333
2336,21.333333333333332,-450.1333333333333,294.4
2337,25.6,-450.1333333333333,294.4
2338,32.0,-450.1333333333333,290.1333333333333
2339,25.6,-445.8666666666667,290.1333333333333
2340,21.333333333333332,-441.59999999999997,294.4
2341,21.333333333333332,-443.73333333333335,288.0
2342,25.6,-450.1333333333333,290.1333333333333
2343,27.733333333333334,-452.26666666666665,290.1333333333333
2344,27.733333333333334,-452.26666666666665,294.4
2345,25.6,-452.26666666666665,288.0
2346,27.733333333333334,-462.93333333333334,290.1333333333333
2347,27.733333333333334,-465.06666666666666,290.1333333333333
2348,23.466666666666665,-467.2,290.1333333333333
2349,25.6,-465.06666666666666,288.0
2350,23.466666666666665,-465.06666666666666,292.26666666666665
2351,21.333333333333332,-460.8,292.26666666666665
2352,27.733333333333334,-460.8,294.4
2353,34.13333333333333,-465.06666666666666,292.26666666666665
2354,25.6,-465.06666666666666,296.5333333333333
2355,27.733333333333334,-458.6666666666667,294.4
2356,23.466666666666665,-460.8,294.4
2357,29.866666666666667,-465.06666666666666,294.4
2358,32.0,-460.8,290.1333333333333
2359,27.733333333333334,-456.5333333333333,290.1333333333333
2360,23.466666666666665,-443.73333333333335,292.26666666666665
2361,23.466666666666665,-448.0,288.0
2362,29.866666666666667,-454.4,285.8666666666667
2363,27.733333333333334,-452.26666666666665,288.0
2364,29.866666666666667,-454.4,298.6666666666667
2365,21.333333333333332,-443.73333333333335,288.0
2366,29.866666666666667,-452.26666666666665,288.0
2367,21.333333333333332,-452.26666666666665,290.1333333333333
2368,29.866666666666667,-452.26666666666665,294.4
2369,36.266666666666666,-456.5333333333333,296.5333333333333
2370,27.733333333333334,-462.93333333333334,285.8666666666667
2371,29.866666666666667,-467.2,292.26666666666665
2372,25.6,-465.06666666666666,288.0
2373,17.066666666666666,-465.06666666666666,294.4
2374,32.0,-462.93333333333334,290.1333333333333
2375,29.866666666666667,-462.93333333333334,296.5333333333333
2376,29.866666666666667,-454.4,292.26666666666665
2377,25.6,-454.4,294.4
2378,19.2,-450.1333333333333,292.26666666666665
2379,27.733333333333334,-456.5333333333333,288.0
2380,29.866666666666667,-456.5333333333333,285.8666666666667
2381,25.6,-452.26666666666665,290.1333333333333
2382,23.466666666666665,-450.1333333333333,288.0
2383,23.466666666666665,-452.26666666666665,290.1333333333333
2384,25.6,-454.4,294.4
2385,27.733333333333334,-452.26666666666665,294.4
2386,25.6,-460.8,294.4
2387,29.866666666666667,-456.5333333333333,296.5333333333333
2388,25.6,-458.6666666666667,292.26666666666665
2389,27.733333333333334,-454.4,294.4
2390,27.733333333333334,-458.6666666666667,281.6
2391,23.466666666666665,-456.5333333333333,292.26666666666665
2392,27.733333333333334,-458.6666666666667,290.1333333333333
2393,23.466666666666665,-460.8,292.26666666666665
2394,23.466666666666665,-458.6666666666667,294.4
2395,23.466666666666665,-460.8,296.5333333333333
