,accelerometerAccelerationX(G),accelerometerAccelerationY(G),accelerometerAccelerationZ(G)
0,23.466666666666665,-539.7333333333333,96.0
1,23.466666666666665,-533.3333333333334,100.26666666666667
2,21.333333333333332,-539.7333333333333,100.26666666666667
3,21.333333333333332,-541.8666666666667,93.86666666666666
4,6.4,-539.7333333333333,91.73333333333333
5,27.733333333333334,-546.1333333333333,89.6
6,17.066666666666666,-541.8666666666667,89.6
7,17.066666666666666,-539.7333333333333,96.0
8,14.933333333333334,-535.4666666666667,102.4
9,14.933333333333334,-535.4666666666667,91.73333333333333
10,14.933333333333334,-535.4666666666667,93.86666666666666
11,14.933333333333334,-537.6,102.4
12,14.933333333333334,-539.7333333333333,100.26666666666667
13,17.066666666666666,-537.6,100.26666666666667
14,12.8,-539.7333333333333,96.0
15,14.933333333333334,-535.4666666666667,98.13333333333333
16,12.8,-535.4666666666667,87.46666666666667
17,14.933333333333334,-524.8,100.26666666666667
18,8.533333333333333,-535.4666666666667,96.0
19,12.8,-531.2,91.73333333333333
20,14.933333333333334,-539.7333333333333,87.46666666666667
21,8.533333333333333,-533.3333333333334,96.0
22,14.933333333333334,-541.8666666666667,89.6
23,10.666666666666666,-531.2,98.13333333333333
24,12.8,-535.4666666666667,89.6
25,17.066666666666666,-539.7333333333333,93.86666666666666
26,17.066666666666666,-552.5333333333333,87.46666666666667
27,19.2,-544.0,89.6
28,19.2,-537.6,85.33333333333333
29,12.8,-544.0,89.6
30,10.666666666666666,-544.0,87.46666666666667
31,14.933333333333334,-544.0,91.73333333333333
32,12.8,-539.7333333333333,96.0
33,12.8,-544.0,87.46666666666667
34,12.8,-535.4666666666667,91.73333333333333
35,10.666666666666666,-535.4666666666667,83.2
36,8.533333333333333,-544.0,89.6
37,10.666666666666666,-531.2,96.0
38,8.533333333333333,-537.6,91.73333333333333
39,10.666666666666666,-541.8666666666667,83.2
40,8.533333333333333,-539.7333333333333,91.73333333333333
41,10.666666666666666,-533.3333333333334,89.6
42,8.533333333333333,-546.1333333333333,89.6
43,8.533333333333333,-539.7333333333333,96.0
44,4.266666666666667,-539.7333333333333,85.33333333333333
45,12.8,-539.7333333333333,81.06666666666666
46,14.933333333333334,-535.4666666666667,96.0
47,12.8,-535.4666666666667,89.6
48,25.6,-550.4,104.53333333333333
49,14.933333333333334,-537.6,87.46666666666667
50,14.933333333333334,-541.8666666666667,91.73333333333333
51,8.533333333333333,-535.4666666666667,93.86666666666666
52,14.933333333333334,-535.4666666666667,85.33333333333333
53,19.2,-541.8666666666667,85.33333333333333
54,6.4,-537.6,96.0
55,12.8,-535.4666666666667,98.13333333333333
56,19.2,-548.2666666666667,89.6
57,14.933333333333334,-539.7333333333333,89.6
58,21.333333333333332,-531.2,87.46666666666667
59,21.333333333333332,-529.0666666666666,87.46666666666667
60,14.933333333333334,-539.7333333333333,98.13333333333333
61,21.333333333333332,-539.7333333333333,93.86666666666666
62,8.533333333333333,-539.7333333333333,87.46666666666667
63,19.2,-537.6,91.73333333333333
64,12.8,-535.4666666666667,98.13333333333333
65,17.066666666666666,-533.3333333333334,93.86666666666666
66,14.933333333333334,-541.8666666666667,98.13333333333333
67,17.066666666666666,-535.4666666666667,93.86666666666666
68,4.266666666666667,-533.3333333333334,91.73333333333333
69,17.066666666666666,-537.6,91.73333333333333
70,17.066666666666666,-537.6,78.93333333333334
71,12.8,-537.6,98.13333333333333
72,21.333333333333332,-541.8666666666667,85.33333333333333
73,17.066666666666666,-533.3333333333334,91.73333333333333
74,21.333333333333332,-533.3333333333334,89.6
75,17.066666666666666,-541.8666666666667,93.86666666666666
76,17.066666666666666,-537.6,83.2
77,12.8,-537.6,93.86666666666666
78,12.8,-535.4666666666667,91.73333333333333
79,19.2,-541.8666666666667,83.2
80,12.8,-535.4666666666667,91.73333333333333
81,14.933333333333334,-535.4666666666667,81.06666666666666
82,10.666666666666666,-541.8666666666667,96.0
83,14.933333333333334,-535.4666666666667,89.6
84,19.2,-539.7333333333333,91.73333333333333
85,12.8,-541.8666666666667,85.33333333333333
86,12.8,-535.4666666666667,89.6
87,14.933333333333334,-537.6,85.33333333333333
88,10.666666666666666,-541.8666666666667,91.73333333333333
89,17.066666666666666,-539.7333333333333,100.26666666666667
90,14.933333333333334,-531.2,91.73333333333333
91,10.666666666666666,-535.4666666666667,96.0
92,14.933333333333334,-533.3333333333334,100.26666666666667
93,12.8,-537.6,89.6
94,17.066666666666666,-539.7333333333333,96.0
95,19.2,-541.8666666666667,89.6
96,17.066666666666666,-537.6,98.13333333333333
97,14.933333333333334,-539.7333333333333,85.33333333333333
98,17.066666666666666,-541.8666666666667,87.46666666666667
99,12.8,-535.4666666666667,98.13333333333333
100,23.466666666666665,-539.7333333333333,83.2
101,17.066666666666666,-541.8666666666667,91.73333333333333
102,17.066666666666666,-546.1333333333333,87.46666666666667
103,21.333333333333332,-539.7333333333333,89.6
104,14.933333333333334,-539.7333333333333,89.6
105,10.666666666666666,-537.6,87.46666666666667
106,10.666666666666666,-539.7333333333333,89.6
107,17.066666666666666,-537.6,93.86666666666666
108,8.533333333333333,-539.7333333333333,83.2
109,17.066666666666666,-537.6,91.73333333333333
110,12.8,-539.7333333333333,89.6
111,8.533333333333333,-535.4666666666667,93.86666666666666
112,17.066666666666666,-539.7333333333333,98.13333333333333
113,12.8,-529.0666666666666,89.6
114,8.533333333333333,-537.6,93.86666666666666
115,12.8,-539.7333333333333,100.26666666666667
116,14.933333333333334,-535.4666666666667,98.13333333333333
117,17.066666666666666,-535.4666666666667,96.0
118,17.066666666666666,-541.8666666666667,102.4
119,12.8,-537.6,96.0
120,14.933333333333334,-531.2,91.73333333333333
121,8.533333333333333,-535.4666666666667,81.06666666666666
122,14.933333333333334,-533.3333333333334,98.13333333333333
123,21.333333333333332,-535.4666666666667,93.86666666666666
124,12.8,-526.9333333333333,85.33333333333333
125,10.666666666666666,-535.4666666666667,87.46666666666667
126,14.933333333333334,-535.4666666666667,93.86666666666666
127,12.8,-539.7333333333333,96.0
128,17.066666666666666,-539.7333333333333,93.86666666666666
129,14.933333333333334,-535.4666666666667,96.0
130,10.666666666666666,-533.3333333333334,89.6
131,12.8,-539.7333333333333,89.6
132,17.066666666666666,-537.6,78.93333333333334
133,17.066666666666666,-541.8666666666667,85.33333333333333
134,14.933333333333334,-539.7333333333333,96.0
135,21.333333333333332,-522.6666666666666,110.93333333333334
136,8.533333333333333,-533.3333333333334,93.86666666666666
137,17.066666666666666,-544.0,93.86666666666666
138,6.4,-539.7333333333333,89.6
139,10.666666666666666,-539.7333333333333,89.6
140,12.8,-537.6,100.26666666666667
141,14.933333333333334,-537.6,93.86666666666666
142,12.8,-544.0,93.86666666666666
143,14.933333333333334,-539.7333333333333,93.86666666666666
144,14.933333333333334,-539.7333333333333,89.6
145,12.8,-535.4666666666667,96.0
146,14.933333333333334,-533.3333333333334,91.73333333333333
147,17.066666666666666,-541.8666666666667,96.0
148,14.933333333333334,-544.0,91.73333333333333
149,12.8,-541.8666666666667,89.6
150,14.933333333333334,-539.7333333333333,87.46666666666667
151,14.933333333333334,-539.7333333333333,91.73333333333333
152,19.2,-541.8666666666667,81.06666666666666
153,14.933333333333334,-537.6,89.6
154,14.933333333333334,-539.7333333333333,96.0
155,17.066666666666666,-535.4666666666667,91.73333333333333
156,25.6,-548.2666666666667,81.06666666666666
157,6.4,-535.4666666666667,98.13333333333333
158,6.4,-537.6,89.6
159,14.933333333333334,-537.6,93.86666666666666
160,17.066666666666666,-533.3333333333334,87.46666666666667
161,10.666666666666666,-535.4666666666667,93.86666666666666
162,14.933333333333334,-535.4666666666667,100.26666666666667
163,8.533333333333333,-535.4666666666667,96.0
164,19.2,-539.7333333333333,85.33333333333333
165,12.8,-535.4666666666667,93.86666666666666
166,14.933333333333334,-535.4666666666667,102.4
167,12.8,-541.8666666666667,100.26666666666667
168,8.533333333333333,-531.2,89.6
169,14.933333333333334,-535.4666666666667,96.0
170,17.066666666666666,-531.2,96.0
171,17.066666666666666,-546.1333333333333,91.73333333333333
172,19.2,-539.7333333333333,102.4
173,17.066666666666666,-539.7333333333333,98.13333333333333
174,19.2,-541.8666666666667,102.4
175,14.933333333333334,-539.7333333333333,89.6
176,19.2,-537.6,100.26666666666667
177,17.066666666666666,-537.6,89.6
178,8.533333333333333,-535.4666666666667,91.73333333333333
179,8.533333333333333,-524.8,102.4
180,12.8,-535.4666666666667,96.0
181,17.066666666666666,-537.6,98.13333333333333
182,14.933333333333334,-535.4666666666667,85.33333333333333
183,19.2,-533.3333333333334,96.0
184,17.066666666666666,-535.4666666666667,96.0
185,17.066666666666666,-541.8666666666667,85.33333333333333
186,12.8,-541.8666666666667,102.4
187,17.066666666666666,-539.7333333333333,89.6
188,21.333333333333332,-544.0,87.46666666666667
189,17.066666666666666,-541.8666666666667,98.13333333333333
190,8.533333333333333,-520.5333333333333,81.06666666666666
191,12.8,-541.8666666666667,89.6
192,12.8,-537.6,85.33333333333333
193,19.2,-537.6,93.86666666666666
194,17.066666666666666,-537.6,91.73333333333333
195,12.8,-537.6,87.46666666666667
196,19.2,-537.6,93.86666666666666
197,21.333333333333332,-544.0,85.33333333333333
198,19.2,-535.4666666666667,98.13333333333333
199,19.2,-539.7333333333333,87.46666666666667
200,14.933333333333334,-539.7333333333333,74.66666666666667
201,-2.1333333333333333,-544.0,91.73333333333333
202,14.933333333333334,-535.4666666666667,93.86666666666666
203,12.8,-541.8666666666667,87.46666666666667
204,19.2,-546.1333333333333,91.73333333333333
205,21.333333333333332,-539.7333333333333,89.6
206,14.933333333333334,-541.8666666666667,91.73333333333333
207,14.933333333333334,-541.8666666666667,102.4
208,14.933333333333334,-537.6,87.46666666666667
209,19.2,-539.7333333333333,89.6
210,8.533333333333333,-533.3333333333334,85.33333333333333
211,32.0,-537.6,91.73333333333333
212,14.933333333333334,-533.3333333333334,91.73333333333333
213,12.8,-539.7333333333333,96.0
214,8.533333333333333,-539.7333333333333,98.13333333333333
215,10.666666666666666,-531.2,85.33333333333333
216,8.533333333333333,-537.6,98.13333333333333
217,12.8,-535.4666666666667,91.73333333333333
218,6.4,-535.4666666666667,87.46666666666667
219,17.066666666666666,-533.3333333333334,91.73333333333333
220,23.466666666666665,-537.6,96.0
221,14.933333333333334,-537.6,96.0
222,12.8,-537.6,89.6
223,10.666666666666666,-537.6,98.13333333333333
224,12.8,-544.0,93.86666666666666
225,12.8,-537.6,100.26666666666667
226,17.066666666666666,-533.3333333333334,96.0
227,19.2,-539.7333333333333,87.46666666666667
228,10.666666666666666,-533.3333333333334,96.0
229,12.8,-541.8666666666667,93.86666666666666
230,12.8,-533.3333333333334,91.73333333333333
231,17.066666666666666,-539.7333333333333,96.0
232,10.666666666666666,-535.4666666666667,93.86666666666666
233,21.333333333333332,-526.9333333333333,93.86666666666666
234,12.8,-535.4666666666667,87.46666666666667
235,19.2,-544.0,89.6
236,10.666666666666666,-537.6,96.0
237,12.8,-541.8666666666667,89.6
238,14.933333333333334,-537.6,93.86666666666666
239,14.933333333333334,-541.8666666666667,85.33333333333333
240,14.933333333333334,-537.6,85.33333333333333
241,17.066666666666666,-539.7333333333333,87.46666666666667
242,14.933333333333334,-541.8666666666667,91.73333333333333
243,14.933333333333334,-535.4666666666667,91.73333333333333
244,32.0,-539.7333333333333,89.6
245,14.933333333333334,-544.0,87.46666666666667
246,17.066666666666666,-537.6,93.86666666666666
247,19.2,-541.8666666666667,96.0
248,12.8,-539.7333333333333,91.73333333333333
249,10.666666666666666,-541.8666666666667,93.86666666666666
250,19.2,-546.1333333333333,93.86666666666666
251,17.066666666666666,-544.0,91.73333333333333
252,14.933333333333334,-539.7333333333333,91.73333333333333
253,10.666666666666666,-535.4666666666667,85.33333333333333
254,17.066666666666666,-533.3333333333334,93.86666666666666
255,10.666666666666666,-546.1333333333333,89.6
256,17.066666666666666,-533.3333333333334,100.26666666666667
257,14.933333333333334,-537.6,91.73333333333333
258,19.2,-544.0,91.73333333333333
259,19.2,-537.6,85.33333333333333
260,17.066666666666666,-539.7333333333333,91.73333333333333
261,10.666666666666666,-535.4666666666667,91.73333333333333
262,14.933333333333334,-537.6,98.13333333333333
263,12.8,-529.0666666666666,91.73333333333333
264,14.933333333333334,-539.7333333333333,91.73333333333333
265,14.933333333333334,-544.0,96.0
266,27.733333333333334,-539.7333333333333,100.26666666666667
267,12.8,-537.6,91.73333333333333
268,8.533333333333333,-533.3333333333334,87.46666666666667
269,21.333333333333332,-544.0,96.0
270,14.933333333333334,-537.6,87.46666666666667
271,17.066666666666666,-541.8666666666667,100.26666666666667
272,14.933333333333334,-541.8666666666667,91.73333333333333
273,21.333333333333332,-537.6,93.86666666666666
274,14.933333333333334,-537.6,87.46666666666667
275,19.2,-537.6,89.6
276,21.333333333333332,-535.4666666666667,100.26666666666667
277,64.0,-541.8666666666667,104.53333333333333
278,-6.4,-533.3333333333334,87.46666666666667
279,14.933333333333334,-537.6,98.13333333333333
280,14.933333333333334,-539.7333333333333,89.6
281,17.066666666666666,-537.6,102.4
282,14.933333333333334,-533.3333333333334,91.73333333333333
283,21.333333333333332,-539.7333333333333,96.0
284,12.8,-537.6,89.6
285,17.066666666666666,-535.4666666666667,96.0
286,21.333333333333332,-541.8666666666667,93.86666666666666
287,21.333333333333332,-539.7333333333333,89.6
288,14.933333333333334,-546.1333333333333,93.86666666666666
289,17.066666666666666,-535.4666666666667,96.0
290,17.066666666666666,-541.8666666666667,98.13333333333333
291,17.066666666666666,-539.7333333333333,85.33333333333333
292,17.066666666666666,-541.8666666666667,93.86666666666666
293,14.933333333333334,-539.7333333333333,93.86666666666666
294,14.933333333333334,-539.7333333333333,87.46666666666667
295,19.2,-535.4666666666667,83.2
296,21.333333333333332,-529.0666666666666,96.0
297,23.466666666666665,-539.7333333333333,85.33333333333333
298,14.933333333333334,-533.3333333333334,87.46666666666667
299,27.733333333333334,-544.0,91.73333333333333
300,23.466666666666665,-544.0,91.73333333333333
301,21.333333333333332,-541.8666666666667,93.86666666666666
302,25.6,-541.8666666666667,91.73333333333333
303,17.066666666666666,-541.8666666666667,91.73333333333333
304,21.333333333333332,-544.0,96.0
305,17.066666666666666,-539.7333333333333,96.0
306,8.533333333333333,-535.4666666666667,93.86666666666666
307,19.2,-539.7333333333333,98.13333333333333
308,14.933333333333334,-539.7333333333333,91.73333333333333
309,10.666666666666666,-529.0666666666666,96.0
310,19.2,-539.7333333333333,96.0
311,19.2,-537.6,93.86666666666666
312,12.8,-535.4666666666667,98.13333333333333
313,17.066666666666666,-537.6,100.26666666666667
314,19.2,-541.8666666666667,91.73333333333333
315,17.066666666666666,-537.6,96.0
316,19.2,-531.2,96.0
317,14.933333333333334,-533.3333333333334,85.33333333333333
318,12.8,-533.3333333333334,91.73333333333333
319,17.066666666666666,-539.7333333333333,96.0
320,14.933333333333334,-535.4666666666667,87.46666666666667
321,19.2,-539.7333333333333,91.73333333333333
322,19.2,-541.8666666666667,96.0
323,14.933333333333334,-535.4666666666667,91.73333333333333
324,19.2,-537.6,89.6
325,23.466666666666665,-541.8666666666667,85.33333333333333
326,17.066666666666666,-544.0,87.46666666666667
327,17.066666666666666,-541.8666666666667,98.13333333333333
328,12.8,-539.7333333333333,93.86666666666666
329,12.8,-531.2,83.2
330,23.466666666666665,-535.4666666666667,87.46666666666667
331,10.666666666666666,-537.6,93.86666666666666
332,12.8,-533.3333333333334,102.4
333,21.333333333333332,-539.7333333333333,93.86666666666666
334,19.2,-541.8666666666667,91.73333333333333
335,21.333333333333332,-539.7333333333333,100.26666666666667
336,23.466666666666665,-535.4666666666667,93.86666666666666
337,12.8,-539.7333333333333,93.86666666666666
338,12.8,-537.6,89.6
339,14.933333333333334,-533.3333333333334,96.0
340,19.2,-535.4666666666667,100.26666666666667
341,17.066666666666666,-535.4666666666667,96.0
342,25.6,-535.4666666666667,93.86666666666666
343,12.8,-537.6,93.86666666666666
344,19.2,-541.8666666666667,89.6
345,10.666666666666666,-537.6,91.73333333333333
346,19.2,-539.7333333333333,87.46666666666667
347,21.333333333333332,-541.8666666666667,100.26666666666667
348,14.933333333333334,-539.7333333333333,89.6
349,19.2,-537.6,98.13333333333333
350,17.066666666666666,-544.0,91.73333333333333
351,21.333333333333332,-546.1333333333333,93.86666666666666
352,21.333333333333332,-541.8666666666667,85.33333333333333
353,21.333333333333332,-539.7333333333333,87.46666666666667
354,12.8,-535.4666666666667,98.13333333333333
355,21.333333333333332,-544.0,98.13333333333333
356,17.066666666666666,-535.4666666666667,87.46666666666667
357,17.066666666666666,-531.2,100.26666666666667
358,17.066666666666666,-544.0,100.26666666666667
359,19.2,-539.7333333333333,104.53333333333333
360,19.2,-535.4666666666667,93.86666666666666
361,14.933333333333334,-537.6,89.6
362,12.8,-533.3333333333334,96.0
363,14.933333333333334,-533.3333333333334,96.0
364,21.333333333333332,-539.7333333333333,98.13333333333333
365,19.2,-539.7333333333333,93.86666666666666
366,14.933333333333334,-535.4666666666667,91.73333333333333
367,14.933333333333334,-537.6,93.86666666666666
368,21.333333333333332,-539.7333333333333,98.13333333333333
369,17.066666666666666,-541.8666666666667,98.13333333333333
370,23.466666666666665,-541.8666666666667,98.13333333333333
371,17.066666666666666,-535.4666666666667,100.26666666666667
372,19.2,-539.7333333333333,100.26666666666667
373,14.933333333333334,-537.6,98.13333333333333
374,17.066666666666666,-535.4666666666667,83.2
375,19.2,-531.2,85.33333333333333
376,10.666666666666666,-537.6,81.06666666666666
377,14.933333333333334,-539.7333333333333,89.6
378,17.066666666666666,-533.3333333333334,87.46666666666667
379,21.333333333333332,-535.4666666666667,93.86666666666666
380,14.933333333333334,-535.4666666666667,98.13333333333333
381,17.066666666666666,-537.6,96.0
382,25.6,-539.7333333333333,93.86666666666666
383,19.2,-537.6,85.33333333333333
384,17.066666666666666,-537.6,91.73333333333333
385,12.8,-537.6,96.0
386,8.533333333333333,-533.3333333333334,89.6
387,10.666666666666666,-531.2,98.13333333333333
388,17.066666666666666,-537.6,81.06666666666666
389,14.933333333333334,-535.4666666666667,96.0
390,12.8,-535.4666666666667,98.13333333333333
391,21.333333333333332,-533.3333333333334,96.0
392,14.933333333333334,-537.6,89.6
393,14.933333333333334,-537.6,96.0
394,17.066666666666666,-539.7333333333333,89.6
395,6.4,-535.4666666666667,81.06666666666666
396,17.066666666666666,-541.8666666666667,93.86666666666666
397,19.2,-526.9333333333333,89.6
398,19.2,-544.0,87.46666666666667
399,17.066666666666666,-541.8666666666667,91.73333333333333
400,21.333333333333332,-539.7333333333333,96.0
401,12.8,-539.7333333333333,100.26666666666667
402,21.333333333333332,-539.7333333333333,83.2
403,12.8,-537.6,93.86666666666666
404,12.8,-531.2,85.33333333333333
405,19.2,-541.8666666666667,93.86666666666666
406,17.066666666666666,-533.3333333333334,89.6
407,17.066666666666666,-535.4666666666667,85.33333333333333
408,21.333333333333332,-539.7333333333333,91.73333333333333
409,14.933333333333334,-537.6,89.6
410,17.066666666666666,-541.8666666666667,96.0
411,19.2,-541.8666666666667,89.6
412,21.333333333333332,-535.4666666666667,93.86666666666666
413,14.933333333333334,-539.7333333333333,93.86666666666666
414,19.2,-537.6,100.26666666666667
415,14.933333333333334,-529.0666666666666,93.86666666666666
416,17.066666666666666,-541.8666666666667,98.13333333333333
417,14.933333333333334,-533.3333333333334,96.0
418,17.066666666666666,-539.7333333333333,85.33333333333333
419,14.933333333333334,-541.8666666666667,91.73333333333333
420,14.933333333333334,-537.6,91.73333333333333
421,17.066666666666666,-537.6,93.86666666666666
422,17.066666666666666,-535.4666666666667,93.86666666666666
423,19.2,-539.7333333333333,85.33333333333333
424,14.933333333333334,-535.4666666666667,93.86666666666666
425,17.066666666666666,-537.6,81.06666666666666
426,21.333333333333332,-539.7333333333333,96.0
427,17.066666666666666,-541.8666666666667,91.73333333333333
428,23.466666666666665,-535.4666666666667,87.46666666666667
429,12.8,-529.0666666666666,83.2
430,12.8,-544.0,87.46666666666667
431,19.2,-537.6,81.06666666666666
432,14.933333333333334,-539.7333333333333,96.0
433,17.066666666666666,-533.3333333333334,91.73333333333333
434,10.666666666666666,-537.6,93.86666666666666
435,19.2,-544.0,83.2
436,12.8,-539.7333333333333,91.73333333333333
437,17.066666666666666,-537.6,93.86666666666666
438,21.333333333333332,-541.8666666666667,91.73333333333333
439,17.066666666666666,-537.6,100.26666666666667
440,14.933333333333334,-535.4666666666667,83.2
441,12.8,-533.3333333333334,89.6
442,19.2,-544.0,91.73333333333333
443,19.2,-541.8666666666667,98.13333333333333
444,17.066666666666666,-539.7333333333333,91.73333333333333
445,21.333333333333332,-537.6,100.26666666666667
446,14.933333333333334,-539.7333333333333,93.86666666666666
447,23.466666666666665,-541.8666666666667,91.73333333333333
448,10.666666666666666,-541.8666666666667,89.6
449,12.8,-533.3333333333334,98.13333333333333
450,14.933333333333334,-531.2,108.8
451,21.333333333333332,-541.8666666666667,104.53333333333333
452,14.933333333333334,-533.3333333333334,89.6
453,19.2,-539.7333333333333,91.73333333333333
454,12.8,-535.4666666666667,98.13333333333333
455,19.2,-541.8666666666667,98.13333333333333
456,21.333333333333332,-541.8666666666667,100.26666666666667
457,17.066666666666666,-535.4666666666667,98.13333333333333
458,14.933333333333334,-537.6,89.6
459,19.2,-539.7333333333333,100.26666666666667
460,12.8,-539.7333333333333,89.6
461,12.8,-541.8666666666667,91.73333333333333
462,14.933333333333334,-539.7333333333333,93.86666666666666
463,17.066666666666666,-544.0,93.86666666666666
464,21.333333333333332,-537.6,89.6
465,14.933333333333334,-539.7333333333333,87.46666666666667
466,12.8,-539.7333333333333,100.26666666666667
467,17.066666666666666,-533.3333333333334,85.33333333333333
468,21.333333333333332,-539.7333333333333,96.0
469,17.066666666666666,-537.6,100.26666666666667
470,17.066666666666666,-535.4666666666667,91.73333333333333
471,14.933333333333334,-541.8666666666667,85.33333333333333
472,17.066666666666666,-537.6,98.13333333333333
473,12.8,-558.9333333333333,98.13333333333333
474,17.066666666666666,-546.1333333333333,89.6
475,12.8,-535.4666666666667,93.86666666666666
476,14.933333333333334,-539.7333333333333,91.73333333333333
477,17.066666666666666,-541.8666666666667,87.46666666666667
478,14.933333333333334,-539.7333333333333,85.33333333333333
479,23.466666666666665,-533.3333333333334,93.86666666666666
480,23.466666666666665,-541.8666666666667,91.73333333333333
481,12.8,-539.7333333333333,87.46666666666667
482,21.333333333333332,-535.4666666666667,91.73333333333333
483,17.066666666666666,-539.7333333333333,102.4
484,19.2,-544.0,87.46666666666667
485,14.933333333333334,-539.7333333333333,89.6
486,19.2,-544.0,87.46666666666667
487,19.2,-537.6,98.13333333333333
488,10.666666666666666,-537.6,91.73333333333333
489,17.066666666666666,-541.8666666666667,83.2
490,19.2,-541.8666666666667,98.13333333333333
491,10.666666666666666,-535.4666666666667,93.86666666666666
492,17.066666666666666,-539.7333333333333,98.13333333333333
493,21.333333333333332,-539.7333333333333,78.93333333333334
494,17.066666666666666,-535.4666666666667,87.46666666666667
495,29.866666666666667,-537.6,87.46666666666667
496,8.533333333333333,-541.8666666666667,93.86666666666666
497,23.466666666666665,-544.0,91.73333333333333
498,14.933333333333334,-537.6,100.26666666666667
499,14.933333333333334,-537.6,91.73333333333333
500,19.2,-539.7333333333333,89.6
501,17.066666666666666,-541.8666666666667,91.73333333333333
502,14.933333333333334,-541.8666666666667,104.53333333333333
503,21.333333333333332,-544.0,87.46666666666667
504,14.933333333333334,-535.4666666666667,89.6
505,14.933333333333334,-535.4666666666667,98.13333333333333
506,14.933333333333334,-526.9333333333333,91.73333333333333
507,14.933333333333334,-535.4666666666667,98.13333333333333
508,17.066666666666666,-537.6,89.6
509,14.933333333333334,-539.7333333333333,89.6
510,19.2,-539.7333333333333,93.86666666666666
511,14.933333333333334,-535.4666666666667,91.73333333333333
512,17.066666666666666,-544.0,91.73333333333333
513,12.8,-539.7333333333333,96.0
514,14.933333333333334,-539.7333333333333,93.86666666666666
515,12.8,-539.7333333333333,93.86666666666666
516,14.933333333333334,-535.4666666666667,98.13333333333333
517,12.8,-535.4666666666667,87.46666666666667
518,19.2,-539.7333333333333,89.6
519,14.933333333333334,-541.8666666666667,91.73333333333333
520,8.533333333333333,-535.4666666666667,85.33333333333333
521,12.8,-537.6,93.86666666666666
522,17.066666666666666,-539.7333333333333,93.86666666666666
523,14.933333333333334,-539.7333333333333,89.6
524,19.2,-541.8666666666667,93.86666666666666
525,14.933333333333334,-541.8666666666667,87.46666666666667
526,17.066666666666666,-535.4666666666667,93.86666666666666
527,6.4,-526.9333333333333,72.53333333333333
528,17.066666666666666,-535.4666666666667,93.86666666666666
529,19.2,-537.6,89.6
530,12.8,-533.3333333333334,89.6
531,14.933333333333334,-539.7333333333333,93.86666666666666
532,14.933333333333334,-546.1333333333333,93.86666666666666
533,12.8,-535.4666666666667,89.6
534,19.2,-533.3333333333334,93.86666666666666
535,17.066666666666666,-539.7333333333333,98.13333333333333
536,23.466666666666665,-539.7333333333333,93.86666666666666
537,14.933333333333334,-535.4666666666667,87.46666666666667
538,17.066666666666666,-537.6,91.73333333333333
539,17.066666666666666,-539.7333333333333,87.46666666666667
540,14.933333333333334,-541.8666666666667,100.26666666666667
541,14.933333333333334,-533.3333333333334,93.86666666666666
542,12.8,-541.8666666666667,98.13333333333333
543,10.666666666666666,-537.6,96.0
544,17.066666666666666,-537.6,91.73333333333333
545,17.066666666666666,-537.6,98.13333333333333
546,14.933333333333334,-539.7333333333333,93.86666666666666
547,10.666666666666666,-531.2,96.0
548,12.8,-533.3333333333334,102.4
549,4.266666666666667,-539.7333333333333,106.66666666666667
550,17.066666666666666,-537.6,91.73333333333333
551,8.533333333333333,-541.8666666666667,93.86666666666666
552,21.333333333333332,-541.8666666666667,96.0
553,17.066666666666666,-537.6,87.46666666666667
554,14.933333333333334,-539.7333333333333,93.86666666666666
555,14.933333333333334,-539.7333333333333,87.46666666666667
556,14.933333333333334,-541.8666666666667,96.0
557,19.2,-539.7333333333333,96.0
558,17.066666666666666,-537.6,104.53333333333333
559,19.2,-535.4666666666667,96.0
560,23.466666666666665,-544.0,96.0
561,14.933333333333334,-539.7333333333333,87.46666666666667
562,14.933333333333334,-535.4666666666667,96.0
563,19.2,-535.4666666666667,89.6
564,12.8,-537.6,96.0
565,19.2,-541.8666666666667,98.13333333333333
566,10.666666666666666,-535.4666666666667,83.2
567,14.933333333333334,-533.3333333333334,91.73333333333333
568,21.333333333333332,-537.6,91.73333333333333
569,14.933333333333334,-541.8666666666667,91.73333333333333
570,14.933333333333334,-539.7333333333333,98.13333333333333
571,25.6,-544.0,98.13333333333333
572,12.8,-544.0,93.86666666666666
573,17.066666666666666,-535.4666666666667,91.73333333333333
574,21.333333333333332,-541.8666666666667,87.46666666666667
575,14.933333333333334,-535.4666666666667,96.0
576,14.933333333333334,-539.7333333333333,89.6
577,12.8,-535.4666666666667,85.33333333333333
578,17.066666666666666,-531.2,96.0
579,17.066666666666666,-541.8666666666667,89.6
580,21.333333333333332,-541.8666666666667,98.13333333333333
581,23.466666666666665,-537.6,91.73333333333333
582,14.933333333333334,-537.6,96.0
583,14.933333333333334,-535.4666666666667,91.73333333333333
584,17.066666666666666,-537.6,96.0
585,19.2,-539.7333333333333,98.13333333333333
586,14.933333333333334,-539.7333333333333,93.86666666666666
587,12.8,-541.8666666666667,89.6
588,23.466666666666665,-544.0,91.73333333333333
589,12.8,-537.6,91.73333333333333
590,14.933333333333334,-533.3333333333334,93.86666666666666
591,25.6,-544.0,91.73333333333333
592,6.4,-539.7333333333333,91.73333333333333
593,14.933333333333334,-541.8666666666667,96.0
594,17.066666666666666,-537.6,89.6
595,14.933333333333334,-539.7333333333333,91.73333333333333
596,17.066666666666666,-531.2,98.13333333333333
597,21.333333333333332,-537.6,83.2
598,19.2,-537.6,98.13333333333333
599,19.2,-539.7333333333333,91.73333333333333
600,14.933333333333334,-533.3333333333334,98.13333333333333
601,10.666666666666666,-539.7333333333333,96.0
602,12.8,-537.6,93.86666666666666
603,17.066666666666666,-539.7333333333333,87.46666666666667
604,19.2,-537.6,91.73333333333333
605,12.8,-537.6,96.0
606,21.333333333333332,-539.7333333333333,91.73333333333333
607,14.933333333333334,-539.7333333333333,98.13333333333333
608,14.933333333333334,-535.4666666666667,91.73333333333333
609,14.933333333333334,-539.7333333333333,104.53333333333333
610,21.333333333333332,-539.7333333333333,96.0
611,12.8,-541.8666666666667,96.0
612,17.066666666666666,-531.2,98.13333333333333
613,14.933333333333334,-539.7333333333333,89.6
614,19.2,-533.3333333333334,91.73333333333333
615,21.333333333333332,-541.8666666666667,91.73333333333333
616,14.933333333333334,-539.7333333333333,93.86666666666666
617,17.066666666666666,-535.4666666666667,102.4
618,21.333333333333332,-541.8666666666667,96.0
619,21.333333333333332,-544.0,100.26666666666667
620,19.2,-531.2,89.6
621,14.933333333333334,-539.7333333333333,100.26666666666667
622,12.8,-541.8666666666667,96.0
623,14.933333333333334,-535.4666666666667,93.86666666666666
624,12.8,-526.9333333333333,87.46666666666667
625,19.2,-537.6,100.26666666666667
626,17.066666666666666,-537.6,93.86666666666666
627,17.066666666666666,-537.6,93.86666666666666
628,17.066666666666666,-533.3333333333334,91.73333333333333
629,14.933333333333334,-535.4666666666667,96.0
630,12.8,-531.2,93.86666666666666
631,12.8,-535.4666666666667,91.73333333333333
632,17.066666666666666,-531.2,91.73333333333333
633,14.933333333333334,-533.3333333333334,91.73333333333333
634,17.066666666666666,-535.4666666666667,93.86666666666666
635,23.466666666666665,-541.8666666666667,98.13333333333333
636,25.6,-531.2,93.86666666666666
637,10.666666666666666,-537.6,96.0
638,23.466666666666665,-537.6,89.6
639,17.066666666666666,-537.6,96.0
640,12.8,-541.8666666666667,89.6
641,21.333333333333332,-541.8666666666667,98.13333333333333
642,17.066666666666666,-539.7333333333333,89.6
643,14.933333333333334,-535.4666666666667,96.0
644,17.066666666666666,-539.7333333333333,93.86666666666666
645,17.066666666666666,-533.3333333333334,93.86666666666666
646,25.6,-541.8666666666667,91.73333333333333
647,19.2,-537.6,89.6
648,17.066666666666666,-537.6,87.46666666666667
649,12.8,-541.8666666666667,93.86666666666666
650,14.933333333333334,-539.7333333333333,91.73333333333333
651,14.933333333333334,-537.6,98.13333333333333
652,21.333333333333332,-544.0,93.86666666666666
653,14.933333333333334,-539.7333333333333,91.73333333333333
654,17.066666666666666,-544.0,93.86666666666666
655,19.2,-537.6,96.0
656,19.2,-537.6,96.0
657,14.933333333333334,-541.8666666666667,91.73333333333333
658,19.2,-535.4666666666667,96.0
659,19.2,-539.7333333333333,89.6
660,14.933333333333334,-539.7333333333333,93.86666666666666
661,14.933333333333334,-533.3333333333334,89.6
662,14.933333333333334,-541.8666666666667,81.06666666666666
663,17.066666666666666,-541.8666666666667,91.73333333333333
664,17.066666666666666,-539.7333333333333,96.0
665,10.666666666666666,-539.7333333333333,100.26666666666667
666,14.933333333333334,-537.6,87.46666666666667
667,12.8,-539.7333333333333,83.2
668,10.666666666666666,-541.8666666666667,89.6
669,10.666666666666666,-546.1333333333333,93.86666666666666
670,14.933333333333334,-539.7333333333333,96.0
671,19.2,-544.0,98.13333333333333
672,14.933333333333334,-537.6,96.0
673,14.933333333333334,-541.8666666666667,89.6
674,17.066666666666666,-539.7333333333333,93.86666666666666
675,21.333333333333332,-535.4666666666667,83.2
676,10.666666666666666,-535.4666666666667,83.2
677,19.2,-546.1333333333333,91.73333333333333
678,19.2,-539.7333333333333,89.6
679,14.933333333333334,-539.7333333333333,83.2
680,32.0,-539.7333333333333,91.73333333333333
681,17.066666666666666,-539.7333333333333,91.73333333333333
682,12.8,-539.7333333333333,93.86666666666666
683,17.066666666666666,-539.7333333333333,98.13333333333333
684,21.333333333333332,-537.6,91.73333333333333
685,12.8,-537.6,87.46666666666667
686,14.933333333333334,-533.3333333333334,91.73333333333333
687,14.933333333333334,-537.6,87.46666666666667
688,10.666666666666666,-544.0,91.73333333333333
689,17.066666666666666,-537.6,93.86666666666666
690,12.8,-539.7333333333333,98.13333333333333
691,8.533333333333333,-550.4,85.33333333333333
692,19.2,-535.4666666666667,93.86666666666666
693,14.933333333333334,-537.6,91.73333333333333
694,14.933333333333334,-539.7333333333333,98.13333333333333
695,19.2,-539.7333333333333,89.6
696,17.066666666666666,-539.7333333333333,102.4
697,14.933333333333334,-537.6,96.0
698,8.533333333333333,-537.6,93.86666666666666
699,10.666666666666666,-535.4666666666667,83.2
700,12.8,-533.3333333333334,96.0
701,8.533333333333333,-535.4666666666667,100.26666666666667
702,17.066666666666666,-533.3333333333334,91.73333333333333
703,17.066666666666666,-539.7333333333333,96.0
704,10.666666666666666,-535.4666666666667,98.13333333333333
705,14.933333333333334,-531.2,91.73333333333333
706,17.066666666666666,-537.6,98.13333333333333
707,17.066666666666666,-539.7333333333333,91.73333333333333
708,17.066666666666666,-544.0,96.0
709,17.066666666666666,-546.1333333333333,93.86666666666666
710,23.466666666666665,-537.6,91.73333333333333
711,21.333333333333332,-537.6,98.13333333333333
712,12.8,-533.3333333333334,96.0
713,17.066666666666666,-531.2,74.66666666666667
714,17.066666666666666,-539.7333333333333,89.6
715,10.666666666666666,-535.4666666666667,93.86666666666666
716,10.666666666666666,-539.7333333333333,91.73333333333333
717,12.8,-541.8666666666667,98.13333333333333
718,14.933333333333334,-535.4666666666667,87.46666666666667
719,8.533333333333333,-535.4666666666667,91.73333333333333
720,14.933333333333334,-535.4666666666667,91.73333333333333
721,10.666666666666666,-539.7333333333333,87.46666666666667
722,14.933333333333334,-533.3333333333334,96.0
723,25.6,-531.2,87.46666666666667
724,19.2,-541.8666666666667,89.6
725,14.933333333333334,-537.6,96.0
726,12.8,-537.6,91.73333333333333
727,14.933333333333334,-533.3333333333334,93.86666666666666
728,17.066666666666666,-537.6,96.0
729,19.2,-541.8666666666667,91.73333333333333
730,14.933333333333334,-535.4666666666667,93.86666666666666
731,14.933333333333334,-537.6,87.46666666666667
732,12.8,-539.7333333333333,96.0
733,12.8,-537.6,89.6
734,12.8,-544.0,87.46666666666667
735,12.8,-537.6,91.73333333333333
736,8.533333333333333,-537.6,98.13333333333333
737,17.066666666666666,-539.7333333333333,96.0
738,12.8,-541.8666666666667,89.6
739,17.066666666666666,-541.8666666666667,91.73333333333333
740,12.8,-539.7333333333333,87.46666666666667
741,23.466666666666665,-539.7333333333333,100.26666666666667
742,10.666666666666666,-539.7333333333333,85.33333333333333
743,14.933333333333334,-535.4666666666667,93.86666666666666
744,12.8,-535.4666666666667,100.26666666666667
745,19.2,-537.6,123.73333333333333
746,17.066666666666666,-539.7333333333333,96.0
747,10.666666666666666,-533.3333333333334,96.0
748,19.2,-541.8666666666667,96.0
749,14.933333333333334,-539.7333333333333,87.46666666666667
750,14.933333333333334,-533.3333333333334,89.6
751,17.066666666666666,-541.8666666666667,96.0
752,17.066666666666666,-533.3333333333334,100.26666666666667
753,14.933333333333334,-535.4666666666667,98.13333333333333
754,21.333333333333332,-541.8666666666667,102.4
755,14.933333333333334,-541.8666666666667,100.26666666666667
756,21.333333333333332,-518.4,96.0
757,12.8,-535.4666666666667,93.86666666666666
758,19.2,-533.3333333333334,98.13333333333333
759,17.066666666666666,-537.6,96.0
760,17.066666666666666,-533.3333333333334,98.13333333333333
761,19.2,-539.7333333333333,100.26666666666667
762,12.8,-539.7333333333333,98.13333333333333
763,21.333333333333332,-539.7333333333333,96.0
764,21.333333333333332,-537.6,87.46666666666667
765,17.066666666666666,-539.7333333333333,93.86666666666666
766,23.466666666666665,-531.2,100.26666666666667
767,17.066666666666666,-537.6,102.4
768,10.666666666666666,-537.6,96.0
769,17.066666666666666,-537.6,89.6
770,17.066666666666666,-535.4666666666667,98.13333333333333
771,14.933333333333334,-541.8666666666667,98.13333333333333
772,14.933333333333334,-539.7333333333333,98.13333333333333
773,14.933333333333334,-537.6,102.4
774,17.066666666666666,-539.7333333333333,89.6
775,8.533333333333333,-539.7333333333333,100.26666666666667
776,17.066666666666666,-533.3333333333334,91.73333333333333
777,12.8,-541.8666666666667,91.73333333333333
778,32.0,-539.7333333333333,96.0
779,14.933333333333334,-535.4666666666667,91.73333333333333
780,12.8,-539.7333333333333,89.6
781,19.2,-539.7333333333333,100.26666666666667
782,8.533333333333333,-529.0666666666666,98.13333333333333
783,12.8,-537.6,98.13333333333333
784,17.066666666666666,-541.8666666666667,96.0
785,21.333333333333332,-537.6,100.26666666666667
786,8.533333333333333,-537.6,93.86666666666666
787,12.8,-535.4666666666667,91.73333333333333
788,17.066666666666666,-541.8666666666667,96.0
789,17.066666666666666,-533.3333333333334,87.46666666666667
790,17.066666666666666,-535.4666666666667,96.0
791,14.933333333333334,-537.6,91.73333333333333
792,12.8,-537.6,100.26666666666667
793,17.066666666666666,-535.4666666666667,96.0
794,14.933333333333334,-539.7333333333333,98.13333333333333
795,12.8,-537.6,96.0
796,14.933333333333334,-535.4666666666667,93.86666666666666
797,14.933333333333334,-537.6,96.0
798,23.466666666666665,-544.0,93.86666666666666
799,23.466666666666665,-541.8666666666667,89.6
800,4.266666666666667,-529.0666666666666,106.66666666666667
801,19.2,-537.6,96.0
802,14.933333333333334,-537.6,96.0
803,12.8,-533.3333333333334,93.86666666666666
804,19.2,-541.8666666666667,96.0
805,17.066666666666666,-537.6,87.46666666666667
806,19.2,-537.6,102.4
807,12.8,-539.7333333333333,100.26666666666667
808,14.933333333333334,-537.6,96.0
809,12.8,-541.8666666666667,100.26666666666667
810,12.8,-537.6,98.13333333333333
811,14.933333333333334,-539.7333333333333,89.6
812,8.533333333333333,-539.7333333333333,98.13333333333333
813,17.066666666666666,-535.4666666666667,104.53333333333333
814,14.933333333333334,-537.6,100.26666666666667
815,14.933333333333334,-535.4666666666667,85.33333333333333
816,12.8,-535.4666666666667,96.0
817,14.933333333333334,-539.7333333333333,98.13333333333333
818,17.066666666666666,-539.7333333333333,96.0
819,21.333333333333332,-529.0666666666666,93.86666666666666
820,12.8,-531.2,102.4
821,14.933333333333334,-537.6,108.8
822,19.2,-541.8666666666667,100.26666666666667
823,12.8,-539.7333333333333,102.4
824,12.8,-535.4666666666667,98.13333333333333
825,14.933333333333334,-537.6,102.4
826,12.8,-539.7333333333333,102.4
827,19.2,-535.4666666666667,96.0
828,25.6,-541.8666666666667,98.13333333333333
829,19.2,-535.4666666666667,96.0
830,10.666666666666666,-529.0666666666666,100.26666666666667
831,19.2,-537.6,102.4
832,19.2,-539.7333333333333,108.8
833,14.933333333333334,-537.6,91.73333333333333
834,12.8,-535.4666666666667,98.13333333333333
835,14.933333333333334,-539.7333333333333,96.0
836,14.933333333333334,-537.6,104.53333333333333
837,4.266666666666667,-531.2,91.73333333333333
838,12.8,-535.4666666666667,96.0
839,14.933333333333334,-544.0,98.13333333333333
840,17.066666666666666,-537.6,96.0
841,17.066666666666666,-535.4666666666667,104.53333333333333
842,17.066666666666666,-533.3333333333334,104.53333333333333
843,21.333333333333332,-533.3333333333334,100.26666666666667
844,19.2,-539.7333333333333,106.66666666666667
845,17.066666666666666,-533.3333333333334,106.66666666666667
846,17.066666666666666,-529.0666666666666,102.4
847,14.933333333333334,-535.4666666666667,96.0
848,14.933333333333334,-535.4666666666667,98.13333333333333
849,12.8,-539.7333333333333,110.93333333333334
850,10.666666666666666,-531.2,96.0
851,17.066666666666666,-539.7333333333333,100.26666666666667
852,14.933333333333334,-533.3333333333334,98.13333333333333
853,17.066666666666666,-533.3333333333334,113.06666666666666
854,27.733333333333334,-539.7333333333333,96.0
855,19.2,-537.6,102.4
856,19.2,-537.6,106.66666666666667
857,17.066666666666666,-533.3333333333334,100.26666666666667
858,14.933333333333334,-533.3333333333334,98.13333333333333
859,14.933333333333334,-537.6,106.66666666666667
860,17.066666666666666,-537.6,102.4
861,12.8,-533.3333333333334,96.0
862,14.933333333333334,-533.3333333333334,98.13333333333333
863,14.933333333333334,-535.4666666666667,98.13333333333333
864,17.066666666666666,-531.2,104.53333333333333
865,14.933333333333334,-541.8666666666667,102.4
866,12.8,-541.8666666666667,106.66666666666667
867,14.933333333333334,-537.6,108.8
868,19.2,-535.4666666666667,104.53333333333333
869,10.666666666666666,-533.3333333333334,117.33333333333333
870,8.533333333333333,-535.4666666666667,110.93333333333334
871,12.8,-537.6,108.8
872,19.2,-531.2,104.53333333333333
873,17.066666666666666,-537.6,108.8
874,17.066666666666666,-535.4666666666667,106.66666666666667
875,6.4,-537.6,100.26666666666667
876,10.666666666666666,-526.9333333333333,100.26666666666667
877,12.8,-531.2,104.53333333333333
878,17.066666666666666,-535.4666666666667,102.4
879,10.666666666666666,-535.4666666666667,113.06666666666666
880,12.8,-533.3333333333334,106.66666666666667
881,14.933333333333334,-535.4666666666667,104.53333333333333
882,8.533333333333333,-533.3333333333334,110.93333333333334
883,8.533333333333333,-535.4666666666667,91.73333333333333
884,10.666666666666666,-529.0666666666666,102.4
885,17.066666666666666,-537.6,108.8
886,23.466666666666665,-541.8666666666667,100.26666666666667
887,12.8,-535.4666666666667,100.26666666666667
888,14.933333333333334,-537.6,110.93333333333334
889,19.2,-541.8666666666667,100.26666666666667
890,12.8,-533.3333333333334,106.66666666666667
891,14.933333333333334,-533.3333333333334,113.06666666666666
892,21.333333333333332,-541.8666666666667,93.86666666666666
893,23.466666666666665,-539.7333333333333,102.4
894,12.8,-537.6,110.93333333333334
895,12.8,-535.4666666666667,104.53333333333333
896,19.2,-544.0,108.8
897,14.933333333333334,-548.2666666666667,108.8
898,14.933333333333334,-546.1333333333333,102.4
899,19.2,-541.8666666666667,110.93333333333334
900,12.8,-544.0,113.06666666666666
901,19.2,-541.8666666666667,100.26666666666667
902,21.333333333333332,-541.8666666666667,100.26666666666667
903,14.933333333333334,-537.6,104.53333333333333
904,12.8,-539.7333333333333,104.53333333333333
905,17.066666666666666,-537.6,106.66666666666667
906,17.066666666666666,-529.0666666666666,100.26666666666667
907,21.333333333333332,-526.9333333333333,89.6
908,32.0,-533.3333333333334,106.66666666666667
909,17.066666666666666,-524.8,98.13333333333333
910,17.066666666666666,-526.9333333333333,104.53333333333333
911,23.466666666666665,-526.9333333333333,100.26666666666667
912,17.066666666666666,-526.9333333333333,102.4
913,21.333333333333332,-526.9333333333333,106.66666666666667
914,17.066666666666666,-531.2,102.4
915,19.2,-531.2,106.66666666666667
916,12.8,-533.3333333333334,96.0
917,23.466666666666665,-535.4666666666667,110.93333333333334
918,14.933333333333334,-533.3333333333334,102.4
919,36.266666666666666,-539.7333333333333,113.06666666666666
920,23.466666666666665,-533.3333333333334,96.0
921,17.066666666666666,-533.3333333333334,104.53333333333333
922,21.333333333333332,-539.7333333333333,102.4
923,21.333333333333332,-537.6,104.53333333333333
924,21.333333333333332,-533.3333333333334,100.26666666666667
925,14.933333333333334,-533.3333333333334,98.13333333333333
926,12.8,-535.4666666666667,98.13333333333333
927,19.2,-537.6,102.4
928,19.2,-531.2,100.26666666666667
929,14.933333333333334,-526.9333333333333,98.13333333333333
930,27.733333333333334,-535.4666666666667,93.86666666666666
931,12.8,-531.2,93.86666666666666
932,19.2,-531.2,98.13333333333333
933,10.666666666666666,-529.0666666666666,93.86666666666666
934,19.2,-533.3333333333334,102.4
935,19.2,-531.2,91.73333333333333
936,21.333333333333332,-531.2,93.86666666666666
937,19.2,-537.6,100.26666666666667
938,19.2,-531.2,91.73333333333333
939,25.6,-537.6,91.73333333333333
940,17.066666666666666,-526.9333333333333,93.86666666666666
941,25.6,-537.6,100.26666666666667
942,21.333333333333332,-531.2,91.73333333333333
943,21.333333333333332,-539.7333333333333,93.86666666666666
944,21.333333333333332,-539.7333333333333,104.53333333333333
945,19.2,-535.4666666666667,98.13333333333333
946,10.666666666666666,-539.7333333333333,100.26666666666667
947,17.066666666666666,-533.3333333333334,96.0
948,17.066666666666666,-539.7333333333333,100.26666666666667
949,19.2,-539.7333333333333,98.13333333333333
950,12.8,-535.4666666666667,102.4
951,19.2,-533.3333333333334,106.66666666666667
952,12.8,-537.6,108.8
953,17.066666666666666,-535.4666666666667,104.53333333333333
954,19.2,-535.4666666666667,98.13333333333333
955,23.466666666666665,-535.4666666666667,100.26666666666667
956,19.2,-537.6,98.13333333333333
957,17.066666666666666,-535.4666666666667,93.86666666666666
958,14.933333333333334,-533.3333333333334,91.73333333333333
959,25.6,-539.7333333333333,102.4
960,21.333333333333332,-531.2,108.8
961,23.466666666666665,-537.6,96.0
962,14.933333333333334,-533.3333333333334,104.53333333333333
963,8.533333333333333,-544.0,110.93333333333334
964,14.933333333333334,-531.2,98.13333333333333
965,17.066666666666666,-535.4666666666667,93.86666666666666
966,19.2,-541.8666666666667,89.6
967,21.333333333333332,-539.7333333333333,91.73333333333333
968,19.2,-533.3333333333334,96.0
969,19.2,-533.3333333333334,96.0
970,14.933333333333334,-535.4666666666667,96.0
971,17.066666666666666,-531.2,117.33333333333333
972,19.2,-541.8666666666667,102.4
973,10.666666666666666,-529.0666666666666,113.06666666666666
974,6.4,-550.4,104.53333333333333
975,2.1333333333333333,-535.4666666666667,110.93333333333334
976,10.666666666666666,-537.6,108.8
977,10.666666666666666,-531.2,108.8
978,10.666666666666666,-526.9333333333333,98.13333333333333
979,12.8,-529.0666666666666,98.13333333333333
980,17.066666666666666,-531.2,93.86666666666666
981,12.8,-533.3333333333334,93.86666666666666
982,17.066666666666666,-526.9333333333333,85.33333333333333
983,17.066666666666666,-522.6666666666666,81.06666666666666
984,23.466666666666665,-524.8,89.6
985,17.066666666666666,-520.5333333333333,78.93333333333334
986,23.466666666666665,-531.2,76.8
987,21.333333333333332,-535.4666666666667,81.06666666666666
988,12.8,-529.0666666666666,85.33333333333333
989,19.2,-539.7333333333333,78.93333333333334
990,19.2,-535.4666666666667,91.73333333333333
991,17.066666666666666,-544.0,78.93333333333334
992,14.933333333333334,-541.8666666666667,96.0
993,17.066666666666666,-533.3333333333334,91.73333333333333
994,8.533333333333333,-544.0,91.73333333333333
995,10.666666666666666,-539.7333333333333,87.46666666666667
996,19.2,-531.2,104.53333333333333
997,17.066666666666666,-537.6,81.06666666666666
998,10.666666666666666,-539.7333333333333,76.8
999,8.533333333333333,-539.7333333333333,76.8
1000,4.266666666666667,-537.6,76.8
1001,4.266666666666667,-531.2,85.33333333333333
1002,4.266666666666667,-531.2,93.86666666666666
1003,6.4,-533.3333333333334,93.86666666666666
1004,17.066666666666666,-541.8666666666667,100.26666666666667
1005,14.933333333333334,-535.4666666666667,110.93333333333334
1006,21.333333333333332,-535.4666666666667,102.4
1007,23.466666666666665,-535.4666666666667,102.4
1008,21.333333333333332,-526.9333333333333,108.8
1009,23.466666666666665,-531.2,104.53333333333333
1010,27.733333333333334,-529.0666666666666,104.53333333333333
1011,25.6,-531.2,98.13333333333333
1012,21.333333333333332,-526.9333333333333,100.26666666666667
1013,19.2,-526.9333333333333,87.46666666666667
1014,14.933333333333334,-522.6666666666666,93.86666666666666
1015,19.2,-522.6666666666666,85.33333333333333
1016,8.533333333333333,-526.9333333333333,78.93333333333334
1017,10.666666666666666,-529.0666666666666,78.93333333333334
1018,0.0,-529.0666666666666,66.13333333333333
1019,8.533333333333333,-531.2,72.53333333333333
1020,-6.4,-529.0666666666666,70.4
1021,0.0,-539.7333333333333,57.6
1022,4.266666666666667,-535.4666666666667,66.13333333333333
1023,6.4,-541.8666666666667,61.86666666666667
1024,8.533333333333333,-537.6,66.13333333333333
1025,21.333333333333332,-548.2666666666667,64.0
1026,14.933333333333334,-546.1333333333333,74.66666666666667
1027,2.1333333333333333,-546.1333333333333,68.26666666666667
1028,19.2,-539.7333333333333,76.8
1029,23.466666666666665,-546.1333333333333,66.13333333333333
1030,23.466666666666665,-535.4666666666667,76.8
1031,21.333333333333332,-535.4666666666667,83.2
1032,25.6,-544.0,76.8
1033,19.2,-544.0,76.8
1034,44.8,-546.1333333333333,89.6
1035,10.666666666666666,-539.7333333333333,85.33333333333333
1036,17.066666666666666,-541.8666666666667,78.93333333333334
1037,21.333333333333332,-539.7333333333333,85.33333333333333
1038,10.666666666666666,-535.4666666666667,85.33333333333333
1039,21.333333333333332,-535.4666666666667,76.8
1040,17.066666666666666,-537.6,85.33333333333333
1041,10.666666666666666,-537.6,74.66666666666667
1042,10.666666666666666,-531.2,74.66666666666667
1043,8.533333333333333,-537.6,76.8
1044,8.533333333333333,-535.4666666666667,78.93333333333334
1045,8.533333333333333,-531.2,78.93333333333334
1046,0.0,-531.2,72.53333333333333
1047,4.266666666666667,-535.4666666666667,81.06666666666666
1048,4.266666666666667,-535.4666666666667,76.8
1049,-6.4,-539.7333333333333,85.33333333333333
1050,6.4,-535.4666666666667,85.33333333333333
1051,12.8,-531.2,85.33333333333333
1052,12.8,-537.6,78.93333333333334
1053,6.4,-531.2,76.8
1054,10.666666666666666,-529.0666666666666,78.93333333333334
1055,6.4,-526.9333333333333,74.66666666666667
1056,4.266666666666667,-529.0666666666666,70.4
1057,8.533333333333333,-529.0666666666666,78.93333333333334
1058,10.666666666666666,-531.2,72.53333333333333
1059,10.666666666666666,-531.2,72.53333333333333
1060,12.8,-529.0666666666666,66.13333333333333
1061,14.933333333333334,-537.6,85.33333333333333
1062,19.2,-522.6666666666666,59.733333333333334
1063,8.533333333333333,-533.3333333333334,68.26666666666667
1064,12.8,-533.3333333333334,76.8
1065,25.6,-535.4666666666667,70.4
1066,4.266666666666667,-531.2,55.46666666666667
1067,8.533333333333333,-533.3333333333334,57.6
1068,12.8,-526.9333333333333,81.06666666666666
1069,4.266666666666667,-531.2,66.13333333333333
1070,4.266666666666667,-526.9333333333333,68.26666666666667
1071,4.266666666666667,-529.0666666666666,78.93333333333334
1072,4.266666666666667,-533.3333333333334,83.2
1073,6.4,-529.0666666666666,66.13333333333333
1074,10.666666666666666,-535.4666666666667,64.0
1075,4.266666666666667,-526.9333333333333,61.86666666666667
1076,14.933333333333334,-529.0666666666666,61.86666666666667
1077,8.533333333333333,-524.8,59.733333333333334
1078,17.066666666666666,-524.8,61.86666666666667
1079,12.8,-526.9333333333333,53.333333333333336
1080,19.2,-516.2666666666667,51.2
1081,10.666666666666666,-522.6666666666666,61.86666666666667
1082,12.8,-524.8,70.4
1083,21.333333333333332,-531.2,74.66666666666667
1084,23.466666666666665,-520.5333333333333,51.2
1085,14.933333333333334,-535.4666666666667,51.2
1086,21.333333333333332,-539.7333333333333,55.46666666666667
1087,27.733333333333334,-535.4666666666667,59.733333333333334
1088,38.4,-550.4,57.6
1089,32.0,-556.8,40.53333333333333
1090,40.53333333333333,-563.2,38.4
1091,25.6,-565.3333333333334,36.266666666666666
1092,36.266666666666666,-582.4,25.6
1093,29.866666666666667,-584.5333333333333,8.533333333333333
1094,23.466666666666665,-590.9333333333333,10.666666666666666
1095,40.53333333333333,-614.4,2.1333333333333333
1096,44.8,-625.0666666666666,10.666666666666666
1097,36.266666666666666,-629.3333333333334,4.266666666666667
1098,42.666666666666664,-631.4666666666667,0.0
1099,42.666666666666664,-635.7333333333333,2.1333333333333333
1100,40.53333333333333,-637.8666666666667,-4.266666666666667
1101,51.2,-646.4,-6.4
1102,44.8,-646.4,-12.8
1103,55.46666666666667,-654.9333333333333,-19.2
1104,49.06666666666666,-650.6666666666666,-42.666666666666664
1105,68.26666666666667,-657.0666666666666,-46.93333333333333
1106,70.4,-667.7333333333333,-53.333333333333336
1107,61.86666666666667,-672.0,-55.46666666666667
1108,68.26666666666667,-674.1333333333333,-55.46666666666667
1109,51.2,-680.5333333333333,-64.0
1110,49.06666666666666,-689.0666666666666,-66.13333333333333
1111,44.8,-697.6,-81.06666666666666
1112,49.06666666666666,-718.9333333333333,-85.33333333333333
1113,44.8,-727.4666666666667,-98.13333333333333
1114,44.8,-731.7333333333333,-106.66666666666667
1115,14.933333333333334,-733.8666666666667,-117.33333333333333
1116,27.733333333333334,-731.7333333333333,-132.26666666666665
1117,17.066666666666666,-714.6666666666666,-142.93333333333334
1118,17.066666666666666,-704.0,-147.2
1119,17.066666666666666,-684.8,-166.4
1120,12.8,-676.2666666666667,-174.93333333333334
1121,19.2,-663.4666666666667,-181.33333333333334
1122,17.066666666666666,-654.9333333333333,-196.26666666666665
1123,29.866666666666667,-637.8666666666667,-192.0
1124,32.0,-631.4666666666667,-185.6
1125,40.53333333333333,-608.0,-168.53333333333333
1126,25.6,-618.6666666666666,-187.73333333333332
1127,36.266666666666666,-612.2666666666667,-179.2
1128,42.666666666666664,-610.1333333333333,-174.93333333333334
1129,38.4,-601.6,-181.33333333333334
1130,44.8,-593.0666666666666,-177.06666666666666
1131,44.8,-588.8,-187.73333333333332
1132,38.4,-571.7333333333333,-189.86666666666667
1133,42.666666666666664,-576.0,-192.0
1134,36.266666666666666,-573.8666666666667,-198.4
1135,46.93333333333333,-569.6,-206.93333333333334
1136,34.13333333333333,-563.2,-219.73333333333332
1137,40.53333333333333,-567.4666666666667,-221.86666666666667
1138,32.0,-565.3333333333334,-224.0
1139,34.13333333333333,-571.7333333333333,-232.53333333333333
1140,27.733333333333334,-567.4666666666667,-221.86666666666667
1141,32.0,-571.7333333333333,-232.53333333333333
1142,27.733333333333334,-550.4,-232.53333333333333
1143,27.733333333333334,-558.9333333333333,-236.79999999999998
1144,36.266666666666666,-567.4666666666667,-238.93333333333334
1145,27.733333333333334,-552.5333333333333,-245.33333333333334
1146,34.13333333333333,-546.1333333333333,-232.53333333333333
1147,23.466666666666665,-554.6666666666666,-236.79999999999998
1148,29.866666666666667,-550.4,-256.0
1149,34.13333333333333,-550.4,-253.86666666666667
1150,38.4,-546.1333333333333,-256.0
1151,32.0,-544.0,-260.26666666666665
1152,32.0,-548.2666666666667,-264.5333333333333
1153,29.866666666666667,-539.7333333333333,-270.93333333333334
1154,40.53333333333333,-548.2666666666667,-273.06666666666666
1155,46.93333333333333,-550.4,-270.93333333333334
1156,46.93333333333333,-548.2666666666667,-266.6666666666667
1157,46.93333333333333,-554.6666666666666,-270.93333333333334
1158,46.93333333333333,-544.0,-279.46666666666664
1159,44.8,-544.0,-281.6
1160,55.46666666666667,-546.1333333333333,-279.46666666666664
1161,51.2,-548.2666666666667,-283.73333333333335
1162,46.93333333333333,-546.1333333333333,-281.6
1163,38.4,-535.4666666666667,-292.26666666666665
1164,44.8,-533.3333333333334,-294.4
1165,44.8,-535.4666666666667,-279.46666666666664
1166,42.666666666666664,-524.8,-288.0
1167,38.4,-524.8,-288.0
1168,29.866666666666667,-526.9333333333333,-292.26666666666665
1169,29.866666666666667,-516.2666666666667,-288.0
1170,36.266666666666666,-509.8666666666667,-285.8666666666667
1171,38.4,-503.46666666666664,-277.3333333333333
1172,38.4,-503.46666666666664,-281.6
1173,29.866666666666667,-494.93333333333334,-283.73333333333335
1174,29.866666666666667,-497.06666666666666,-288.0
1175,23.466666666666665,-492.8,-279.46666666666664
1176,38.4,-499.2,-275.2
1177,27.733333333333334,-490.6666666666667,-277.3333333333333
1178,25.6,-484.26666666666665,-275.2
1179,36.266666666666666,-477.8666666666667,-292.26666666666665
1180,27.733333333333334,-484.26666666666665,-277.3333333333333
1181,21.333333333333332,-480.0,-275.2
1182,27.733333333333334,-482.1333333333333,-273.06666666666666
1183,25.6,-473.59999999999997,-275.2
1184,23.466666666666665,-471.46666666666664,-285.8666666666667
1185,27.733333333333334,-462.93333333333334,-281.6
1186,25.6,-462.93333333333334,-290.1333333333333
1187,25.6,-456.5333333333333,-288.0
1188,21.333333333333332,-452.26666666666665,-273.06666666666666
1189,19.2,-445.8666666666667,-279.46666666666664
1190,21.333333333333332,-441.59999999999997,-262.4
1191,25.6,-437.3333333333333,-277.3333333333333
1192,29.866666666666667,-435.2,-264.5333333333333
1193,25.6,-426.6666666666667,-264.5333333333333
1194,21.333333333333332,-422.4,-266.6666666666667
1195,29.866666666666667,-422.4,-258.1333333333333
1196,25.6,-424.5333333333333,-256.0
1197,25.6,-411.73333333333335,-264.5333333333333
1198,23.466666666666665,-409.6,-253.86666666666667
1199,21.333333333333332,-407.46666666666664,-260.26666666666665
1200,21.333333333333332,-403.2,-253.86666666666667
1201,25.6,-388.26666666666665,-247.46666666666667
1202,29.866666666666667,-392.5333333333333,-251.73333333333332
1203,34.13333333333333,-392.5333333333333,-247.46666666666667
1204,29.866666666666667,-379.73333333333335,-241.06666666666666
1205,40.53333333333333,-381.8666666666667,-241.06666666666666
1206,44.8,-375.46666666666664,-236.79999999999998
1207,36.266666666666666,-371.2,-238.93333333333334
1208,38.4,-371.2,-234.66666666666666
1209,38.4,-366.93333333333334,-224.0
1210,34.13333333333333,-352.0,-241.06666666666666
1211,51.2,-345.6,-217.6
1212,40.53333333333333,-345.6,-228.26666666666665
1213,38.4,-337.06666666666666,-215.46666666666667
1214,44.8,-330.6666666666667,-217.6
1215,51.2,-324.26666666666665,-228.26666666666665
1216,42.666666666666664,-315.73333333333335,-213.33333333333334
1217,46.93333333333333,-313.6,-213.33333333333334
1218,53.333333333333336,-309.3333333333333,-215.46666666666667
1219,46.93333333333333,-305.06666666666666,-209.06666666666666
1220,51.2,-290.1333333333333,-217.6
1221,40.53333333333333,-290.1333333333333,-221.86666666666667
1222,38.4,-281.6,-230.4
1223,36.266666666666666,-285.8666666666667,-221.86666666666667
1224,19.2,-281.6,-213.33333333333334
1225,38.4,-281.6,-211.2
1226,32.0,-281.6,-221.86666666666667
1227,19.2,-277.3333333333333,-219.73333333333332
1228,19.2,-283.73333333333335,-213.33333333333334
1229,10.666666666666666,-283.73333333333335,-219.73333333333332
1230,14.933333333333334,-279.46666666666664,-213.33333333333334
1231,14.933333333333334,-283.73333333333335,-211.2
1232,19.2,-288.0,-217.6
1233,17.066666666666666,-290.1333333333333,-215.46666666666667
1234,17.066666666666666,-285.8666666666667,-215.46666666666667
1235,8.533333333333333,-294.4,-215.46666666666667
1236,10.666666666666666,-294.4,-217.6
1237,8.533333333333333,-298.6666666666667,-211.2
1238,6.4,-302.93333333333334,-221.86666666666667
1239,12.8,-309.3333333333333,-213.33333333333334
1240,10.666666666666666,-313.6,-217.6
1241,12.8,-313.6,-215.46666666666667
1242,10.666666666666666,-324.26666666666665,-226.13333333333333
1243,6.4,-322.1333333333333,-217.6
1244,4.266666666666667,-320.0,-213.33333333333334
1245,4.266666666666667,-332.8,-219.73333333333332
1246,-4.266666666666667,-341.3333333333333,-224.0
1247,-14.933333333333334,-339.2,-219.73333333333332
1248,-12.8,-356.26666666666665,-221.86666666666667
1249,-12.8,-364.8,-221.86666666666667
1250,-19.2,-371.2,-219.73333333333332
1251,-10.666666666666666,-384.0,-215.46666666666667
1252,-2.1333333333333333,-381.8666666666667,-219.73333333333332
1253,-4.266666666666667,-398.93333333333334,-224.0
1254,6.4,-401.06666666666666,-224.0
1255,-2.1333333333333333,-403.2,-217.6
1256,14.933333333333334,-407.46666666666664,-211.2
1257,21.333333333333332,-405.3333333333333,-217.6
1258,25.6,-407.46666666666664,-209.06666666666666
1259,21.333333333333332,-401.06666666666666,-209.06666666666666
1260,36.266666666666666,-411.73333333333335,-206.93333333333334
1261,36.266666666666666,-416.0,-202.66666666666666
1262,36.266666666666666,-411.73333333333335,-194.13333333333333
1263,32.0,-420.26666666666665,-185.6
1264,36.266666666666666,-437.3333333333333,-174.93333333333334
1265,38.4,-450.1333333333333,-155.73333333333332
1266,38.4,-482.1333333333333,-145.06666666666666
1267,44.8,-509.8666666666667,-96.0
1268,51.2,-554.6666666666666,-29.866666666666667
1269,76.8,-646.4,59.733333333333334
1270,44.8,-748.8,194.13333333333333
1271,110.93333333333334,-928.0,529.0666666666666
1272,-68.26666666666667,-1593.6,1294.9333333333334
1273,-89.6,-2995.2,1892.2666666666667
1274,102.4,-4251.733333333334,1538.1333333333332
1275,366.93333333333334,-3400.5333333333333,-179.2
1276,411.73333333333335,-2316.8,-1141.3333333333333
1277,200.53333333333333,-1318.4,-1544.5333333333333
1278,-377.6,-556.8,-1655.4666666666667
1279,-582.4,-311.46666666666664,-1506.1333333333332
1280,-157.86666666666667,-633.6,-1024.0
1281,-36.266666666666666,-1002.6666666666666,-631.4666666666667
1282,-23.466666666666665,-1346.1333333333332,-172.8
1283,-72.53333333333333,-1544.5333333333333,288.0
1284,-66.13333333333333,-1489.0666666666666,558.9333333333333
1285,-83.2,-1143.4666666666667,661.3333333333334
1286,-134.4,-761.6,672.0
1287,-136.53333333333333,-441.59999999999997,612.2666666666667
1288,-2.1333333333333333,-264.5333333333333,509.8666666666667
1289,155.73333333333332,-155.73333333333332,407.46666666666664
1290,300.8,-72.53333333333333,341.3333333333333
1291,371.2,46.93333333333333,307.2
1292,349.8666666666667,166.4,264.5333333333333
1293,279.46666666666664,283.73333333333335,194.13333333333333
1294,162.13333333333333,356.26666666666665,106.66666666666667
1295,68.26666666666667,337.06666666666666,42.666666666666664
1296,57.6,243.2,32.0
1297,68.26666666666667,130.13333333333333,53.333333333333336
1298,57.6,59.733333333333334,108.8
1299,32.0,6.4,164.26666666666665
1300,2.1333333333333333,-81.06666666666666,253.86666666666667
1301,-23.466666666666665,-234.66666666666666,369.06666666666666
1302,-34.13333333333333,-396.8,422.4
1303,-34.13333333333333,-548.2666666666667,439.46666666666664
1304,-34.13333333333333,-674.1333333333333,469.3333333333333
1305,-34.13333333333333,-740.2666666666667,484.26666666666665
1306,-34.13333333333333,-772.2666666666667,501.3333333333333
1307,-14.933333333333334,-793.6,503.46666666666664
1308,12.8,-817.0666666666666,473.59999999999997
1309,19.2,-840.5333333333333,443.73333333333335
1310,51.2,-836.2666666666667,390.4
1311,53.333333333333336,-821.3333333333334,315.73333333333335
1312,51.2,-819.2,253.86666666666667
1313,57.6,-800.0,187.73333333333332
1314,42.666666666666664,-755.2,130.13333333333333
1315,29.866666666666667,-697.6,64.0
1316,12.8,-622.9333333333333,23.466666666666665
1317,19.2,-556.8,-19.2
1318,0.0,-473.59999999999997,-34.13333333333333
1319,4.266666666666667,-418.1333333333333,-61.86666666666667
1320,-8.533333333333333,-373.3333333333333,-68.26666666666667
1321,8.533333333333333,-362.6666666666667,-66.13333333333333
1322,23.466666666666665,-356.26666666666665,-49.06666666666666
1323,12.8,-373.3333333333333,-25.6
1324,17.066666666666666,-386.1333333333333,6.4
1325,8.533333333333333,-409.6,27.733333333333334
1326,6.4,-445.8666666666667,44.8
1327,14.933333333333334,-482.1333333333333,49.06666666666666
1328,6.4,-512.0,42.666666666666664
1329,8.533333333333333,-535.4666666666667,36.266666666666666
1330,25.6,-556.8,14.933333333333334
1331,14.933333333333334,-565.3333333333334,-4.266666666666667
1332,14.933333333333334,-582.4,-21.333333333333332
1333,12.8,-590.9333333333333,-25.6
1334,10.666666666666666,-608.0,-32.0
1335,8.533333333333333,-622.9333333333333,-36.266666666666666
1336,4.266666666666667,-633.6,-17.066666666666666
1337,2.1333333333333333,-637.8666666666667,-12.8
1338,2.1333333333333333,-646.4,12.8
1339,8.533333333333333,-637.8666666666667,21.333333333333332
1340,14.933333333333334,-622.9333333333333,38.4
1341,6.4,-590.9333333333333,53.333333333333336
1342,14.933333333333334,-584.5333333333333,59.733333333333334
1343,12.8,-558.9333333333333,72.53333333333333
1344,21.333333333333332,-537.6,91.73333333333333
1345,17.066666666666666,-516.2666666666667,102.4
1346,19.2,-497.06666666666666,110.93333333333334
1347,29.866666666666667,-482.1333333333333,119.46666666666667
1348,29.866666666666667,-471.46666666666664,130.13333333333333
1349,17.066666666666666,-469.3333333333333,132.26666666666665
1350,23.466666666666665,-467.2,134.4
1351,25.6,-471.46666666666664,130.13333333333333
1352,36.266666666666666,-480.0,145.06666666666666
1353,27.733333333333334,-477.8666666666667,147.2
1354,25.6,-486.4,153.6
1355,25.6,-501.3333333333333,160.0
1356,32.0,-501.3333333333333,166.4
1357,29.866666666666667,-514.1333333333333,172.8
1358,27.733333333333334,-512.0,172.8
1359,23.466666666666665,-512.0,181.33333333333334
1360,29.866666666666667,-516.2666666666667,183.46666666666667
1361,25.6,-507.73333333333335,183.46666666666667
1362,12.8,-503.46666666666664,183.46666666666667
1363,19.2,-505.59999999999997,187.73333333333332
1364,17.066666666666666,-497.06666666666666,189.86666666666667
1365,19.2,-488.5333333333333,185.6
1366,8.533333333333333,-488.5333333333333,187.73333333333332
1367,8.533333333333333,-490.6666666666667,187.73333333333332
1368,0.0,-490.6666666666667,181.33333333333334
1369,-8.533333333333333,-488.5333333333333,187.73333333333332
1370,0.0,-494.93333333333334,174.93333333333334
1371,-4.266666666666667,-492.8,170.66666666666666
1372,-8.533333333333333,-492.8,164.26666666666665
1373,-8.533333333333333,-505.59999999999997,157.86666666666667
1374,-10.666666666666666,-497.06666666666666,157.86666666666667
1375,-8.533333333333333,-505.59999999999997,155.73333333333332
1376,-4.266666666666667,-503.46666666666664,147.2
1377,-8.533333333333333,-505.59999999999997,151.46666666666667
1378,-2.1333333333333333,-509.8666666666667,140.8
1379,0.0,-518.4,153.6
1380,0.0,-516.2666666666667,147.2
1381,10.666666666666666,-518.4,147.2
1382,10.666666666666666,-522.6666666666666,136.53333333333333
1383,6.4,-514.1333333333333,134.4
1384,14.933333333333334,-522.6666666666666,130.13333333333333
1385,14.933333333333334,-522.6666666666666,132.26666666666665
1386,19.2,-522.6666666666666,123.73333333333333
1387,21.333333333333332,-520.5333333333333,134.4
1388,23.466666666666665,-520.5333333333333,121.6
1389,21.333333333333332,-516.2666666666667,117.33333333333333
1390,19.2,-514.1333333333333,117.33333333333333
1391,21.333333333333332,-516.2666666666667,110.93333333333334
1392,27.733333333333334,-522.6666666666666,117.33333333333333
1393,32.0,-522.6666666666666,110.93333333333334
1394,23.466666666666665,-529.0666666666666,110.93333333333334
1395,25.6,-526.9333333333333,113.06666666666666
1396,17.066666666666666,-531.2,128.0
1397,21.333333333333332,-533.3333333333334,115.2
1398,23.466666666666665,-529.0666666666666,125.86666666666666
1399,17.066666666666666,-531.2,123.73333333333333
1400,23.466666666666665,-533.3333333333334,125.86666666666666
1401,17.066666666666666,-526.9333333333333,128.0
1402,21.333333333333332,-533.3333333333334,128.0
1403,14.933333333333334,-529.0666666666666,130.13333333333333
1404,17.066666666666666,-522.6666666666666,140.8
1405,21.333333333333332,-531.2,130.13333333333333
1406,21.333333333333332,-520.5333333333333,130.13333333333333
1407,17.066666666666666,-522.6666666666666,136.53333333333333
1408,17.066666666666666,-526.9333333333333,140.8
1409,14.933333333333334,-526.9333333333333,138.66666666666666
1410,10.666666666666666,-518.4,136.53333333333333
1411,17.066666666666666,-516.2666666666667,138.66666666666666
1412,17.066666666666666,-518.4,134.4
1413,10.666666666666666,-522.6666666666666,136.53333333333333
1414,17.066666666666666,-522.6666666666666,132.26666666666665
1415,17.066666666666666,-516.2666666666667,136.53333333333333
1416,19.2,-520.5333333333333,138.66666666666666
1417,17.066666666666666,-507.73333333333335,132.26666666666665
1418,14.933333333333334,-516.2666666666667,138.66666666666666
1419,17.066666666666666,-520.5333333333333,140.8
1420,19.2,-522.6666666666666,140.8
1421,17.066666666666666,-520.5333333333333,145.06666666666666
1422,14.933333333333334,-518.4,142.93333333333334
1423,21.333333333333332,-522.6666666666666,149.33333333333334
1424,14.933333333333334,-518.4,138.66666666666666
1425,21.333333333333332,-531.2,138.66666666666666
1426,23.466666666666665,-522.6666666666666,142.93333333333334
1427,17.066666666666666,-522.6666666666666,142.93333333333334
1428,19.2,-524.8,145.06666666666666
1429,19.2,-520.5333333333333,142.93333333333334
1430,17.066666666666666,-520.5333333333333,147.2
1431,19.2,-516.2666666666667,136.53333333333333
1432,17.066666666666666,-516.2666666666667,134.4
1433,12.8,-514.1333333333333,138.66666666666666
1434,19.2,-522.6666666666666,125.86666666666666
1435,10.666666666666666,-518.4,134.4
1436,19.2,-524.8,130.13333333333333
1437,19.2,-520.5333333333333,136.53333333333333
1438,14.933333333333334,-516.2666666666667,128.0
1439,23.466666666666665,-509.8666666666667,128.0
1440,14.933333333333334,-514.1333333333333,132.26666666666665
1441,14.933333333333334,-524.8,134.4
1442,19.2,-522.6666666666666,134.4
1443,17.066666666666666,-520.5333333333333,123.73333333333333
1444,14.933333333333334,-524.8,132.26666666666665
1445,14.933333333333334,-522.6666666666666,134.4
1446,12.8,-522.6666666666666,136.53333333333333
1447,21.333333333333332,-526.9333333333333,132.26666666666665
1448,19.2,-529.0666666666666,128.0
1449,17.066666666666666,-524.8,121.6
1450,14.933333333333334,-526.9333333333333,155.73333333333332
1451,21.333333333333332,-529.0666666666666,130.13333333333333
1452,12.8,-522.6666666666666,136.53333333333333
1453,21.333333333333332,-529.0666666666666,134.4
1454,14.933333333333334,-529.0666666666666,136.53333333333333
1455,17.066666666666666,-526.9333333333333,128.0
1456,10.666666666666666,-524.8,132.26666666666665
1457,25.6,-529.0666666666666,142.93333333333334
1458,14.933333333333334,-526.9333333333333,128.0
1459,14.933333333333334,-520.5333333333333,138.66666666666666
1460,10.666666666666666,-516.2666666666667,125.86666666666666
1461,21.333333333333332,-533.3333333333334,121.6
1462,19.2,-526.9333333333333,125.86666666666666
1463,12.8,-524.8,138.66666666666666
1464,14.933333333333334,-524.8,138.66666666666666
1465,21.333333333333332,-531.2,136.53333333333333
1466,21.333333333333332,-529.0666666666666,138.66666666666666
1467,10.666666666666666,-526.9333333333333,134.4
1468,19.2,-526.9333333333333,138.66666666666666
1469,21.333333333333332,-529.0666666666666,138.66666666666666
1470,17.066666666666666,-533.3333333333334,123.73333333333333
1471,21.333333333333332,-529.0666666666666,136.53333333333333
1472,17.066666666666666,-522.6666666666666,142.93333333333334
1473,17.066666666666666,-526.9333333333333,125.86666666666666
1474,14.933333333333334,-520.5333333333333,134.4
1475,17.066666666666666,-522.6666666666666,130.13333333333333
1476,19.2,-526.9333333333333,130.13333333333333
1477,12.8,-522.6666666666666,123.73333333333333
1478,10.666666666666666,-524.8,117.33333333333333
1479,12.8,-533.3333333333334,121.6
1480,12.8,-526.9333333333333,119.46666666666667
1481,10.666666666666666,-524.8,125.86666666666666
1482,19.2,-526.9333333333333,121.6
1483,8.533333333333333,-522.6666666666666,123.73333333333333
1484,12.8,-529.0666666666666,115.2
1485,12.8,-531.2,125.86666666666666
1486,14.933333333333334,-535.4666666666667,123.73333333333333
1487,8.533333333333333,-526.9333333333333,121.6
1488,10.666666666666666,-531.2,119.46666666666667
1489,14.933333333333334,-526.9333333333333,121.6
1490,12.8,-533.3333333333334,123.73333333333333
1491,8.533333333333333,-529.0666666666666,117.33333333333333
1492,8.533333333333333,-531.2,123.73333333333333
1493,19.2,-539.7333333333333,128.0
1494,12.8,-531.2,117.33333333333333
1495,10.666666666666666,-529.0666666666666,121.6
1496,12.8,-531.2,128.0
1497,8.533333333333333,-524.8,125.86666666666666
1498,10.666666666666666,-520.5333333333333,125.86666666666666
1499,12.8,-529.0666666666666,119.46666666666667
1500,8.533333333333333,-531.2,119.46666666666667
1501,8.533333333333333,-529.0666666666666,136.53333333333333
1502,6.4,-524.8,121.6
1503,14.933333333333334,-531.2,132.26666666666665
1504,21.333333333333332,-522.6666666666666,125.86666666666666
1505,8.533333333333333,-524.8,119.46666666666667
1506,12.8,-529.0666666666666,121.6
1507,14.933333333333334,-533.3333333333334,119.46666666666667
1508,12.8,-526.9333333333333,121.6
1509,12.8,-526.9333333333333,125.86666666666666
1510,17.066666666666666,-526.9333333333333,119.46666666666667
1511,14.933333333333334,-531.2,128.0
1512,4.266666666666667,-533.3333333333334,113.06666666666666
1513,19.2,-531.2,128.0
1514,12.8,-529.0666666666666,134.4
1515,14.933333333333334,-520.5333333333333,110.93333333333334
1516,8.533333333333333,-526.9333333333333,123.73333333333333
1517,19.2,-535.4666666666667,121.6
1518,12.8,-526.9333333333333,121.6
1519,12.8,-526.9333333333333,117.33333333333333
1520,8.533333333333333,-529.0666666666666,123.73333333333333
1521,14.933333333333334,-526.9333333333333,123.73333333333333
1522,8.533333333333333,-526.9333333333333,119.46666666666667
1523,14.933333333333334,-531.2,119.46666666666667
1524,17.066666666666666,-531.2,134.4
1525,4.266666666666667,-516.2666666666667,136.53333333333333
1526,14.933333333333334,-524.8,136.53333333333333
1527,19.2,-535.4666666666667,132.26666666666665
1528,10.666666666666666,-533.3333333333334,123.73333333333333
1529,10.666666666666666,-526.9333333333333,123.73333333333333
1530,23.466666666666665,-533.3333333333334,119.46666666666667
1531,17.066666666666666,-533.3333333333334,130.13333333333333
1532,8.533333333333333,-526.9333333333333,123.73333333333333
1533,17.066666666666666,-526.9333333333333,128.0
1534,14.933333333333334,-520.5333333333333,128.0
1535,10.666666666666666,-524.8,117.33333333333333
1536,21.333333333333332,-524.8,113.06666666666666
1537,19.2,-524.8,134.4
1538,12.8,-533.3333333333334,121.6
1539,17.066666666666666,-531.2,123.73333333333333
1540,14.933333333333334,-526.9333333333333,123.73333333333333
1541,14.933333333333334,-529.0666666666666,123.73333333333333
1542,10.666666666666666,-526.9333333333333,121.6
1543,14.933333333333334,-526.9333333333333,121.6
1544,8.533333333333333,-524.8,123.73333333333333
1545,10.666666666666666,-533.3333333333334,121.6
1546,8.533333333333333,-522.6666666666666,128.0
1547,14.933333333333334,-524.8,134.4
1548,12.8,-524.8,123.73333333333333
1549,14.933333333333334,-529.0666666666666,121.6
1550,10.666666666666666,-531.2,130.13333333333333
1551,14.933333333333334,-529.0666666666666,130.13333333333333
1552,17.066666666666666,-526.9333333333333,128.0
1553,8.533333333333333,-524.8,123.73333333333333
1554,12.8,-526.9333333333333,123.73333333333333
1555,8.533333333333333,-529.0666666666666,119.46666666666667
1556,10.666666666666666,-520.5333333333333,119.46666666666667
1557,19.2,-526.9333333333333,132.26666666666665
1558,17.066666666666666,-531.2,136.53333333333333
1559,14.933333333333334,-526.9333333333333,132.26666666666665
1560,17.066666666666666,-526.9333333333333,130.13333333333333
1561,10.666666666666666,-529.0666666666666,128.0
1562,12.8,-524.8,125.86666666666666
1563,10.666666666666666,-526.9333333333333,121.6
1564,8.533333333333333,-518.4,123.73333333333333
1565,12.8,-522.6666666666666,134.4
1566,12.8,-522.6666666666666,128.0
1567,8.533333333333333,-524.8,134.4
1568,6.4,-524.8,128.0
1569,14.933333333333334,-531.2,125.86666666666666
1570,2.1333333333333333,-531.2,113.06666666666666
1571,10.666666666666666,-526.9333333333333,130.13333333333333
1572,8.533333333333333,-526.9333333333333,128.0
1573,14.933333333333334,-531.2,132.26666666666665
1574,10.666666666666666,-529.0666666666666,128.0
1575,12.8,-533.3333333333334,130.13333333333333
1576,12.8,-524.8,132.26666666666665
1577,6.4,-529.0666666666666,132.26666666666665
1578,14.933333333333334,-526.9333333333333,134.4
1579,12.8,-522.6666666666666,128.0
1580,10.666666666666666,-529.0666666666666,130.13333333333333
1581,8.533333333333333,-520.5333333333333,117.33333333333333
1582,21.333333333333332,-526.9333333333333,125.86666666666666
1583,10.666666666666666,-526.9333333333333,128.0
1584,2.1333333333333333,-522.6666666666666,125.86666666666666
1585,17.066666666666666,-533.3333333333334,134.4
1586,14.933333333333334,-526.9333333333333,125.86666666666666
1587,8.533333333333333,-526.9333333333333,132.26666666666665
1588,17.066666666666666,-531.2,125.86666666666666
1589,17.066666666666666,-526.9333333333333,134.4
1590,4.266666666666667,-518.4,125.86666666666666
1591,8.533333333333333,-541.8666666666667,128.0
1592,14.933333333333334,-526.9333333333333,128.0
1593,6.4,-524.8,134.4
1594,12.8,-531.2,130.13333333333333
1595,6.4,-526.9333333333333,130.13333333333333
1596,19.2,-533.3333333333334,130.13333333333333
1597,12.8,-529.0666666666666,125.86666666666666
1598,10.666666666666666,-524.8,119.46666666666667
1599,12.8,-529.0666666666666,128.0
1600,8.533333333333333,-526.9333333333333,121.6
1601,14.933333333333334,-533.3333333333334,125.86666666666666
1602,25.6,-526.9333333333333,134.4
1603,10.666666666666666,-526.9333333333333,123.73333333333333
1604,12.8,-524.8,130.13333333333333
1605,10.666666666666666,-520.5333333333333,130.13333333333333
1606,12.8,-524.8,132.26666666666665
1607,10.666666666666666,-526.9333333333333,125.86666666666666
1608,14.933333333333334,-522.6666666666666,130.13333333333333
1609,19.2,-526.9333333333333,128.0
1610,14.933333333333334,-522.6666666666666,128.0
1611,17.066666666666666,-524.8,134.4
1612,0.0,-524.8,125.86666666666666
1613,6.4,-526.9333333333333,134.4
1614,12.8,-526.9333333333333,130.13333333333333
1615,12.8,-531.2,125.86666666666666
1616,8.533333333333333,-522.6666666666666,128.0
1617,17.066666666666666,-524.8,123.73333333333333
1618,14.933333333333334,-524.8,128.0
1619,17.066666666666666,-524.8,128.0
1620,10.666666666666666,-524.8,130.13333333333333
1621,12.8,-522.6666666666666,130.13333333333333
1622,49.06666666666666,-529.0666666666666,136.53333333333333
1623,2.1333333333333333,-533.3333333333334,134.4
1624,0.0,-524.8,128.0
1625,10.666666666666666,-522.6666666666666,123.73333333333333
1626,14.933333333333334,-526.9333333333333,125.86666666666666
1627,19.2,-533.3333333333334,128.0
1628,14.933333333333334,-526.9333333333333,125.86666666666666
1629,14.933333333333334,-531.2,128.0
1630,19.2,-524.8,132.26666666666665
1631,17.066666666666666,-529.0666666666666,134.4
1632,17.066666666666666,-531.2,128.0
1633,12.8,-524.8,125.86666666666666
1634,19.2,-533.3333333333334,128.0
1635,-2.1333333333333333,-531.2,121.6
1636,6.4,-524.8,128.0
1637,10.666666666666666,-524.8,130.13333333333333
1638,8.533333333333333,-524.8,130.13333333333333
1639,19.2,-529.0666666666666,128.0
1640,14.933333333333334,-524.8,128.0
1641,12.8,-520.5333333333333,125.86666666666666
1642,14.933333333333334,-524.8,128.0
1643,14.933333333333334,-529.0666666666666,119.46666666666667
1644,12.8,-522.6666666666666,123.73333333333333
1645,12.8,-529.0666666666666,130.13333333333333
1646,4.266666666666667,-524.8,140.8
1647,8.533333333333333,-522.6666666666666,121.6
1648,12.8,-524.8,132.26666666666665
1649,17.066666666666666,-529.0666666666666,125.86666666666666
1650,14.933333333333334,-520.5333333333333,125.86666666666666
1651,14.933333333333334,-522.6666666666666,134.4
1652,12.8,-526.9333333333333,132.26666666666665
1653,6.4,-526.9333333333333,123.73333333333333
1654,10.666666666666666,-524.8,128.0
1655,17.066666666666666,-533.3333333333334,132.26666666666665
1656,17.066666666666666,-526.9333333333333,130.13333333333333
1657,14.933333333333334,-526.9333333333333,123.73333333333333
1658,10.666666666666666,-524.8,121.6
1659,8.533333333333333,-524.8,128.0
1660,8.533333333333333,-520.5333333333333,125.86666666666666
1661,14.933333333333334,-531.2,134.4
1662,8.533333333333333,-524.8,123.73333333333333
1663,8.533333333333333,-526.9333333333333,128.0
1664,12.8,-522.6666666666666,128.0
1665,17.066666666666666,-529.0666666666666,132.26666666666665
1666,14.933333333333334,-529.0666666666666,119.46666666666667
1667,17.066666666666666,-520.5333333333333,128.0
1668,14.933333333333334,-529.0666666666666,130.13333333333333
1669,12.8,-522.6666666666666,121.6
1670,12.8,-526.9333333333333,121.6
1671,12.8,-524.8,130.13333333333333
1672,10.666666666666666,-522.6666666666666,128.0
1673,14.933333333333334,-533.3333333333334,123.73333333333333
1674,14.933333333333334,-524.8,130.13333333333333
1675,17.066666666666666,-520.5333333333333,132.26666666666665
1676,8.533333333333333,-524.8,123.73333333333333
1677,10.666666666666666,-526.9333333333333,123.73333333333333
1678,10.666666666666666,-524.8,132.26666666666665
1679,17.066666666666666,-531.2,113.06666666666666
1680,10.666666666666666,-529.0666666666666,130.13333333333333
1681,14.933333333333334,-526.9333333333333,128.0
1682,12.8,-529.0666666666666,128.0
1683,6.4,-522.6666666666666,125.86666666666666
1684,14.933333333333334,-526.9333333333333,130.13333333333333
1685,4.266666666666667,-524.8,125.86666666666666
1686,17.066666666666666,-529.0666666666666,130.13333333333333
1687,10.666666666666666,-516.2666666666667,125.86666666666666
1688,17.066666666666666,-526.9333333333333,136.53333333333333
1689,12.8,-524.8,128.0
1690,14.933333333333334,-524.8,125.86666666666666
1691,17.066666666666666,-526.9333333333333,123.73333333333333
1692,19.2,-524.8,121.6
1693,19.2,-526.9333333333333,130.13333333333333
1694,10.666666666666666,-526.9333333333333,132.26666666666665
1695,19.2,-526.9333333333333,134.4
1696,8.533333333333333,-520.5333333333333,138.66666666666666
1697,17.066666666666666,-522.6666666666666,142.93333333333334
1698,12.8,-522.6666666666666,119.46666666666667
1699,10.666666666666666,-518.4,125.86666666666666
1700,6.4,-529.0666666666666,125.86666666666666
1701,19.2,-522.6666666666666,132.26666666666665
1702,14.933333333333334,-522.6666666666666,136.53333333333333
1703,12.8,-526.9333333333333,134.4
1704,12.8,-529.0666666666666,132.26666666666665
1705,14.933333333333334,-522.6666666666666,130.13333333333333
1706,12.8,-526.9333333333333,136.53333333333333
1707,14.933333333333334,-529.0666666666666,128.0
1708,8.533333333333333,-520.5333333333333,130.13333333333333
1709,12.8,-526.9333333333333,128.0
1710,6.4,-531.2,128.0
1711,27.733333333333334,-522.6666666666666,130.13333333333333
1712,19.2,-529.0666666666666,132.26666666666665
1713,10.666666666666666,-529.0666666666666,130.13333333333333
1714,10.666666666666666,-526.9333333333333,130.13333333333333
1715,10.666666666666666,-520.5333333333333,132.26666666666665
1716,12.8,-522.6666666666666,132.26666666666665
1717,12.8,-526.9333333333333,130.13333333333333
1718,6.4,-520.5333333333333,125.86666666666666
1719,14.933333333333334,-533.3333333333334,117.33333333333333
1720,17.066666666666666,-526.9333333333333,134.4
1721,10.666666666666666,-529.0666666666666,134.4
1722,17.066666666666666,-529.0666666666666,134.4
1723,10.666666666666666,-522.6666666666666,128.0
1724,8.533333333333333,-524.8,130.13333333333333
1725,19.2,-526.9333333333333,132.26666666666665
1726,12.8,-520.5333333333333,134.4
1727,6.4,-529.0666666666666,132.26666666666665
1728,14.933333333333334,-524.8,132.26666666666665
1729,21.333333333333332,-529.0666666666666,136.53333333333333
1730,14.933333333333334,-522.6666666666666,136.53333333333333
1731,12.8,-522.6666666666666,132.26666666666665
1732,12.8,-518.4,121.6
1733,17.066666666666666,-526.9333333333333,136.53333333333333
1734,14.933333333333334,-529.0666666666666,130.13333333333333
1735,19.2,-522.6666666666666,132.26666666666665
1736,17.066666666666666,-526.9333333333333,132.26666666666665
1737,12.8,-524.8,130.13333333333333
1738,12.8,-524.8,132.26666666666665
1739,10.666666666666666,-522.6666666666666,119.46666666666667
1740,8.533333333333333,-524.8,134.4
1741,14.933333333333334,-526.9333333333333,136.53333333333333
1742,4.266666666666667,-520.5333333333333,134.4
1743,12.8,-533.3333333333334,132.26666666666665
1744,14.933333333333334,-529.0666666666666,132.26666666666665
1745,14.933333333333334,-526.9333333333333,132.26666666666665
1746,14.933333333333334,-524.8,132.26666666666665
1747,14.933333333333334,-522.6666666666666,128.0
1748,14.933333333333334,-522.6666666666666,125.86666666666666
1749,10.666666666666666,-526.9333333333333,134.4
1750,14.933333333333334,-526.9333333333333,132.26666666666665
1751,12.8,-529.0666666666666,138.66666666666666
1752,17.066666666666666,-526.9333333333333,128.0
1753,17.066666666666666,-529.0666666666666,132.26666666666665
1754,12.8,-518.4,130.13333333333333
1755,6.4,-524.8,145.06666666666666
1756,19.2,-529.0666666666666,130.13333333333333
1757,10.666666666666666,-529.0666666666666,134.4
1758,8.533333333333333,-522.6666666666666,134.4
1759,14.933333333333334,-526.9333333333333,130.13333333333333
1760,12.8,-524.8,136.53333333333333
1761,8.533333333333333,-518.4,134.4
1762,17.066666666666666,-518.4,132.26666666666665
1763,10.666666666666666,-526.9333333333333,134.4
1764,17.066666666666666,-531.2,134.4
1765,12.8,-524.8,132.26666666666665
1766,14.933333333333334,-522.6666666666666,134.4
1767,17.066666666666666,-522.6666666666666,132.26666666666665
1768,17.066666666666666,-524.8,138.66666666666666
1769,14.933333333333334,-522.6666666666666,132.26666666666665
1770,6.4,-531.2,132.26666666666665
1771,8.533333333333333,-535.4666666666667,130.13333333333333
1772,17.066666666666666,-529.0666666666666,125.86666666666666
1773,12.8,-529.0666666666666,132.26666666666665
1774,12.8,-522.6666666666666,136.53333333333333
1775,10.666666666666666,-526.9333333333333,132.26666666666665
1776,12.8,-524.8,138.66666666666666
1777,14.933333333333334,-529.0666666666666,119.46666666666667
1778,12.8,-526.9333333333333,132.26666666666665
1779,14.933333333333334,-524.8,132.26666666666665
1780,8.533333333333333,-526.9333333333333,134.4
1781,6.4,-529.0666666666666,125.86666666666666
1782,12.8,-522.6666666666666,136.53333333333333
1783,14.933333333333334,-529.0666666666666,136.53333333333333
1784,10.666666666666666,-529.0666666666666,132.26666666666665
1785,12.8,-524.8,140.8
1786,12.8,-526.9333333333333,130.13333333333333
1787,14.933333333333334,-529.0666666666666,134.4
1788,10.666666666666666,-526.9333333333333,125.86666666666666
1789,12.8,-524.8,130.13333333333333
1790,19.2,-529.0666666666666,130.13333333333333
1791,19.2,-524.8,128.0
1792,21.333333333333332,-522.6666666666666,134.4
1793,17.066666666666666,-526.9333333333333,128.0
1794,14.933333333333334,-522.6666666666666,136.53333333333333
1795,17.066666666666666,-526.9333333333333,136.53333333333333
1796,17.066666666666666,-524.8,134.4
1797,14.933333333333334,-526.9333333333333,132.26666666666665
1798,6.4,-516.2666666666667,147.2
1799,6.4,-520.5333333333333,138.66666666666666
1800,8.533333333333333,-526.9333333333333,123.73333333333333
1801,8.533333333333333,-524.8,123.73333333333333
1802,10.666666666666666,-520.5333333333333,130.13333333333333
1803,12.8,-520.5333333333333,128.0
1804,12.8,-524.8,134.4
1805,12.8,-533.3333333333334,130.13333333333333
1806,14.933333333333334,-529.0666666666666,138.66666666666666
1807,10.666666666666666,-522.6666666666666,134.4
1808,12.8,-522.6666666666666,140.8
1809,19.2,-529.0666666666666,132.26666666666665
1810,17.066666666666666,-526.9333333333333,130.13333333333333
1811,8.533333333333333,-520.5333333333333,125.86666666666666
1812,12.8,-522.6666666666666,136.53333333333333
1813,14.933333333333334,-522.6666666666666,134.4
1814,17.066666666666666,-518.4,134.4
1815,14.933333333333334,-526.9333333333333,140.8
1816,14.933333333333334,-520.5333333333333,123.73333333333333
1817,8.533333333333333,-518.4,132.26666666666665
1818,17.066666666666666,-518.4,134.4
1819,17.066666666666666,-531.2,136.53333333333333
1820,19.2,-518.4,121.6
1821,17.066666666666666,-526.9333333333333,130.13333333333333
1822,12.8,-522.6666666666666,136.53333333333333
1823,14.933333333333334,-526.9333333333333,134.4
1824,14.933333333333334,-533.3333333333334,132.26666666666665
1825,8.533333333333333,-524.8,138.66666666666666
1826,12.8,-522.6666666666666,132.26666666666665
1827,14.933333333333334,-520.5333333333333,132.26666666666665
1828,10.666666666666666,-531.2,125.86666666666666
1829,10.666666666666666,-518.4,128.0
1830,12.8,-535.4666666666667,132.26666666666665
1831,14.933333333333334,-533.3333333333334,125.86666666666666
1832,14.933333333333334,-526.9333333333333,138.66666666666666
1833,8.533333333333333,-520.5333333333333,136.53333333333333
1834,12.8,-529.0666666666666,130.13333333333333
1835,12.8,-522.6666666666666,128.0
1836,10.666666666666666,-522.6666666666666,132.26666666666665
1837,10.666666666666666,-520.5333333333333,134.4
1838,4.266666666666667,-526.9333333333333,140.8
1839,17.066666666666666,-524.8,128.0
1840,14.933333333333334,-529.0666666666666,132.26666666666665
1841,10.666666666666666,-526.9333333333333,132.26666666666665
1842,4.266666666666667,-535.4666666666667,138.66666666666666
1843,14.933333333333334,-529.0666666666666,134.4
1844,14.933333333333334,-524.8,130.13333333333333
1845,29.866666666666667,-522.6666666666666,136.53333333333333
1846,4.266666666666667,-526.9333333333333,123.73333333333333
1847,14.933333333333334,-526.9333333333333,128.0
1848,14.933333333333334,-522.6666666666666,136.53333333333333
1849,12.8,-524.8,136.53333333333333
1850,17.066666666666666,-526.9333333333333,123.73333333333333
1851,14.933333333333334,-526.9333333333333,130.13333333333333
1852,14.933333333333334,-526.9333333333333,132.26666666666665
1853,-2.1333333333333333,-518.4,136.53333333333333
1854,6.4,-524.8,132.26666666666665
1855,23.466666666666665,-531.2,138.66666666666666
1856,14.933333333333334,-524.8,128.0
1857,14.933333333333334,-520.5333333333333,134.4
1858,12.8,-524.8,128.0
1859,17.066666666666666,-526.9333333333333,134.4
1860,12.8,-520.5333333333333,121.6
1861,12.8,-522.6666666666666,134.4
1862,6.4,-518.4,134.4
1863,8.533333333333333,-522.6666666666666,130.13333333333333
1864,10.666666666666666,-526.9333333333333,132.26666666666665
1865,10.666666666666666,-524.8,128.0
1866,6.4,-529.0666666666666,132.26666666666665
1867,12.8,-522.6666666666666,130.13333333333333
1868,12.8,-526.9333333333333,136.53333333333333
1869,12.8,-526.9333333333333,130.13333333333333
1870,21.333333333333332,-526.9333333333333,128.0
1871,12.8,-520.5333333333333,130.13333333333333
1872,14.933333333333334,-522.6666666666666,128.0
1873,19.2,-531.2,136.53333333333333
1874,14.933333333333334,-524.8,134.4
1875,2.1333333333333333,-520.5333333333333,130.13333333333333
1876,10.666666666666666,-531.2,132.26666666666665
1877,12.8,-520.5333333333333,134.4
1878,12.8,-529.0666666666666,130.13333333333333
1879,6.4,-522.6666666666666,138.66666666666666
1880,14.933333333333334,-529.0666666666666,134.4
1881,17.066666666666666,-522.6666666666666,136.53333333333333
1882,12.8,-526.9333333333333,132.26666666666665
1883,12.8,-526.9333333333333,136.53333333333333
1884,10.666666666666666,-520.5333333333333,138.66666666666666
1885,6.4,-524.8,140.8
1886,21.333333333333332,-524.8,125.86666666666666
1887,17.066666666666666,-531.2,130.13333333333333
1888,17.066666666666666,-522.6666666666666,128.0
1889,12.8,-526.9333333333333,136.53333333333333
1890,12.8,-524.8,136.53333333333333
1891,10.666666666666666,-526.9333333333333,132.26666666666665
1892,12.8,-520.5333333333333,132.26666666666665
1893,19.2,-526.9333333333333,132.26666666666665
1894,12.8,-518.4,130.13333333333333
1895,10.666666666666666,-524.8,123.73333333333333
1896,14.933333333333334,-514.1333333333333,128.0
1897,12.8,-520.5333333333333,134.4
1898,14.933333333333334,-522.6666666666666,128.0
1899,14.933333333333334,-529.0666666666666,132.26666666666665
1900,8.533333333333333,-520.5333333333333,142.93333333333334
1901,14.933333333333334,-524.8,136.53333333333333
1902,10.666666666666666,-524.8,138.66666666666666
1903,14.933333333333334,-529.0666666666666,134.4
1904,12.8,-526.9333333333333,138.66666666666666
1905,17.066666666666666,-520.5333333333333,132.26666666666665
1906,19.2,-524.8,132.26666666666665
1907,14.933333333333334,-535.4666666666667,136.53333333333333
1908,12.8,-524.8,138.66666666666666
1909,12.8,-524.8,134.4
1910,10.666666666666666,-516.2666666666667,138.66666666666666
1911,10.666666666666666,-520.5333333333333,138.66666666666666
1912,10.666666666666666,-522.6666666666666,132.26666666666665
1913,8.533333333333333,-524.8,130.13333333333333
1914,0.0,-518.4,142.93333333333334
1915,12.8,-529.0666666666666,132.26666666666665
1916,14.933333333333334,-526.9333333333333,123.73333333333333
1917,21.333333333333332,-526.9333333333333,123.73333333333333
1918,17.066666666666666,-524.8,136.53333333333333
1919,14.933333333333334,-526.9333333333333,128.0
1920,17.066666666666666,-531.2,130.13333333333333
1921,10.666666666666666,-524.8,134.4
1922,8.533333333333333,-524.8,130.13333333333333
1923,14.933333333333334,-529.0666666666666,130.13333333333333
1924,10.666666666666666,-524.8,132.26666666666665
1925,12.8,-529.0666666666666,130.13333333333333
1926,10.666666666666666,-520.5333333333333,134.4
1927,6.4,-518.4,140.8
1928,14.933333333333334,-520.5333333333333,149.33333333333334
1929,8.533333333333333,-518.4,134.4
1930,12.8,-529.0666666666666,136.53333333333333
1931,10.666666666666666,-524.8,134.4
1932,12.8,-531.2,142.93333333333334
1933,8.533333333333333,-522.6666666666666,134.4
1934,14.933333333333334,-522.6666666666666,132.26666666666665
1935,14.933333333333334,-522.6666666666666,130.13333333333333
1936,14.933333333333334,-518.4,134.4
1937,19.2,-522.6666666666666,130.13333333333333
1938,14.933333333333334,-524.8,128.0
1939,12.8,-529.0666666666666,134.4
1940,12.8,-518.4,151.46666666666667
1941,19.2,-520.5333333333333,136.53333333333333
1942,12.8,-524.8,132.26666666666665
1943,12.8,-524.8,138.66666666666666
1944,12.8,-529.0666666666666,128.0
1945,14.933333333333334,-522.6666666666666,140.8
1946,14.933333333333334,-531.2,138.66666666666666
1947,14.933333333333334,-524.8,134.4
1948,19.2,-522.6666666666666,140.8
1949,12.8,-526.9333333333333,125.86666666666666
1950,12.8,-533.3333333333334,138.66666666666666
1951,21.333333333333332,-520.5333333333333,130.13333333333333
1952,12.8,-522.6666666666666,140.8
1953,14.933333333333334,-522.6666666666666,132.26666666666665
1954,14.933333333333334,-524.8,132.26666666666665
1955,19.2,-522.6666666666666,138.66666666666666
1956,12.8,-518.4,134.4
1957,14.933333333333334,-520.5333333333333,145.06666666666666
1958,8.533333333333333,-526.9333333333333,136.53333333333333
1959,14.933333333333334,-522.6666666666666,136.53333333333333
1960,14.933333333333334,-524.8,134.4
1961,14.933333333333334,-518.4,132.26666666666665
1962,8.533333333333333,-529.0666666666666,113.06666666666666
1963,17.066666666666666,-524.8,140.8
1964,14.933333333333334,-526.9333333333333,128.0
1965,10.666666666666666,-520.5333333333333,132.26666666666665
1966,14.933333333333334,-526.9333333333333,134.4
1967,12.8,-526.9333333333333,142.93333333333334
1968,14.933333333333334,-522.6666666666666,125.86666666666666
1969,12.8,-520.5333333333333,132.26666666666665
1970,19.2,-520.5333333333333,136.53333333333333
1971,14.933333333333334,-531.2,130.13333333333333
1972,10.666666666666666,-522.6666666666666,134.4
1973,14.933333333333334,-522.6666666666666,138.66666666666666
1974,14.933333333333334,-524.8,132.26666666666665
1975,14.933333333333334,-526.9333333333333,132.26666666666665
1976,10.666666666666666,-520.5333333333333,138.66666666666666
1977,10.666666666666666,-524.8,138.66666666666666
1978,12.8,-524.8,138.66666666666666
1979,12.8,-524.8,134.4
1980,12.8,-526.9333333333333,134.4
1981,8.533333333333333,-518.4,136.53333333333333
1982,12.8,-524.8,134.4
1983,12.8,-522.6666666666666,140.8
1984,14.933333333333334,-531.2,140.8
1985,10.666666666666666,-526.9333333333333,138.66666666666666
1986,12.8,-529.0666666666666,138.66666666666666
1987,14.933333333333334,-518.4,136.53333333333333
1988,10.666666666666666,-522.6666666666666,140.8
1989,12.8,-526.9333333333333,140.8
1990,17.066666666666666,-518.4,134.4
1991,14.933333333333334,-522.6666666666666,130.13333333333333
1992,17.066666666666666,-524.8,136.53333333333333
1993,19.2,-526.9333333333333,128.0
1994,19.2,-524.8,123.73333333333333
1995,19.2,-529.0666666666666,130.13333333333333
1996,12.8,-529.0666666666666,136.53333333333333
1997,14.933333333333334,-529.0666666666666,134.4
1998,12.8,-522.6666666666666,134.4
1999,10.666666666666666,-522.6666666666666,145.06666666666666
2000,12.8,-526.9333333333333,138.66666666666666
2001,17.066666666666666,-518.4,136.53333333333333
2002,4.266666666666667,-522.6666666666666,132.26666666666665
2003,10.666666666666666,-524.8,134.4
2004,12.8,-518.4,132.26666666666665
2005,12.8,-524.8,123.73333333333333
2006,19.2,-524.8,134.4
2007,12.8,-526.9333333333333,130.13333333333333
2008,8.533333333333333,-526.9333333333333,136.53333333333333
2009,14.933333333333334,-520.5333333333333,128.0
2010,12.8,-524.8,136.53333333333333
2011,17.066666666666666,-524.8,138.66666666666666
2012,10.666666666666666,-518.4,142.93333333333334
2013,17.066666666666666,-524.8,140.8
2014,10.666666666666666,-529.0666666666666,134.4
2015,14.933333333333334,-524.8,132.26666666666665
2016,21.333333333333332,-522.6666666666666,140.8
2017,8.533333333333333,-516.2666666666667,136.53333333333333
2018,8.533333333333333,-524.8,134.4
2019,19.2,-526.9333333333333,130.13333333333333
2020,14.933333333333334,-520.5333333333333,134.4
2021,12.8,-524.8,132.26666666666665
2022,12.8,-518.4,132.26666666666665
2023,19.2,-526.9333333333333,138.66666666666666
2024,14.933333333333334,-524.8,134.4
2025,14.933333333333334,-522.6666666666666,134.4
2026,17.066666666666666,-522.6666666666666,134.4
2027,6.4,-514.1333333333333,138.66666666666666
2028,10.666666666666666,-520.5333333333333,138.66666666666666
2029,10.666666666666666,-524.8,140.8
2030,8.533333333333333,-526.9333333333333,140.8
2031,10.666666666666666,-518.4,138.66666666666666
2032,10.666666666666666,-531.2,136.53333333333333
2033,17.066666666666666,-526.9333333333333,132.26666666666665
2034,12.8,-518.4,149.33333333333334
2035,14.933333333333334,-526.9333333333333,140.8
2036,17.066666666666666,-524.8,136.53333333333333
2037,19.2,-526.9333333333333,140.8
2038,8.533333333333333,-529.0666666666666,147.2
2039,12.8,-522.6666666666666,138.66666666666666
2040,10.666666666666666,-524.8,136.53333333333333
2041,17.066666666666666,-526.9333333333333,134.4
2042,10.666666666666666,-520.5333333333333,140.8
2043,14.933333333333334,-526.9333333333333,145.06666666666666
2044,12.8,-524.8,136.53333333333333
2045,14.933333333333334,-524.8,132.26666666666665
2046,17.066666666666666,-526.9333333333333,136.53333333333333
2047,6.4,-531.2,136.53333333333333
2048,23.466666666666665,-529.0666666666666,132.26666666666665
2049,21.333333333333332,-531.2,136.53333333333333
2050,14.933333333333334,-526.9333333333333,138.66666666666666
2051,14.933333333333334,-526.9333333333333,134.4
2052,12.8,-522.6666666666666,132.26666666666665
2053,14.933333333333334,-522.6666666666666,130.13333333333333
2054,10.666666666666666,-524.8,136.53333333333333
2055,10.666666666666666,-526.9333333333333,136.53333333333333
2056,12.8,-526.9333333333333,134.4
2057,12.8,-520.5333333333333,123.73333333333333
2058,14.933333333333334,-526.9333333333333,145.06666666666666
2059,8.533333333333333,-516.2666666666667,136.53333333333333
2060,17.066666666666666,-526.9333333333333,134.4
2061,17.066666666666666,-531.2,134.4
2062,10.666666666666666,-524.8,142.93333333333334
2063,19.2,-529.0666666666666,132.26666666666665
2064,8.533333333333333,-520.5333333333333,136.53333333333333
2065,8.533333333333333,-522.6666666666666,140.8
2066,8.533333333333333,-518.4,136.53333333333333
2067,12.8,-522.6666666666666,132.26666666666665
2068,17.066666666666666,-524.8,140.8
2069,21.333333333333332,-529.0666666666666,136.53333333333333
2070,19.2,-522.6666666666666,132.26666666666665
2071,8.533333333333333,-522.6666666666666,140.8
2072,8.533333333333333,-524.8,136.53333333333333
2073,8.533333333333333,-520.5333333333333,132.26666666666665
2074,14.933333333333334,-520.5333333333333,136.53333333333333
2075,8.533333333333333,-520.5333333333333,140.8
2076,12.8,-522.6666666666666,138.66666666666666
2077,6.4,-516.2666666666667,134.4
2078,10.666666666666666,-524.8,136.53333333333333
2079,17.066666666666666,-524.8,136.53333333333333
2080,10.666666666666666,-522.6666666666666,145.06666666666666
2081,14.933333333333334,-520.5333333333333,142.93333333333334
2082,14.933333333333334,-524.8,113.06666666666666
2083,14.933333333333334,-522.6666666666666,140.8
2084,12.8,-516.2666666666667,140.8
2085,14.933333333333334,-526.9333333333333,134.4
2086,12.8,-518.4,140.8
2087,14.933333333333334,-531.2,134.4
2088,17.066666666666666,-522.6666666666666,140.8
2089,19.2,-531.2,138.66666666666666
2090,12.8,-516.2666666666667,138.66666666666666
2091,19.2,-518.4,140.8
2092,12.8,-524.8,134.4
2093,14.933333333333334,-535.4666666666667,138.66666666666666
2094,4.266666666666667,-516.2666666666667,130.13333333333333
2095,14.933333333333334,-533.3333333333334,134.4
2096,6.4,-516.2666666666667,140.8
2097,10.666666666666666,-509.8666666666667,136.53333333333333
2098,6.4,-518.4,134.4
2099,12.8,-490.6666666666667,119.46666666666667
2100,4.266666666666667,-516.2666666666667,132.26666666666665
2101,12.8,-526.9333333333333,149.33333333333334
2102,14.933333333333334,-518.4,134.4
2103,10.666666666666666,-524.8,138.66666666666666
2104,10.666666666666666,-522.6666666666666,136.53333333333333
2105,10.666666666666666,-529.0666666666666,134.4
2106,23.466666666666665,-526.9333333333333,132.26666666666665
2107,14.933333333333334,-512.0,132.26666666666665
2108,0.0,-518.4,134.4
2109,10.666666666666666,-526.9333333333333,132.26666666666665
2110,29.866666666666667,-531.2,149.33333333333334
2111,14.933333333333334,-526.9333333333333,123.73333333333333
2112,17.066666666666666,-499.2,136.53333333333333
2113,19.2,-526.9333333333333,117.33333333333333
2114,14.933333333333334,-529.0666666666666,140.8
2115,8.533333333333333,-520.5333333333333,138.66666666666666
2116,23.466666666666665,-522.6666666666666,142.93333333333334
2117,14.933333333333334,-520.5333333333333,185.6
2118,6.4,-524.8,130.13333333333333
2119,14.933333333333334,-526.9333333333333,147.2
2120,12.8,-529.0666666666666,140.8
2121,17.066666666666666,-526.9333333333333,136.53333333333333
2122,14.933333333333334,-520.5333333333333,138.66666666666666
2123,8.533333333333333,-529.0666666666666,134.4
2124,8.533333333333333,-516.2666666666667,134.4
2125,0.0,-512.0,145.06666666666666
2126,10.666666666666666,-524.8,128.0
2127,17.066666666666666,-535.4666666666667,130.13333333333333
2128,14.933333333333334,-526.9333333333333,149.33333333333334
2129,8.533333333333333,-516.2666666666667,145.06666666666666
2130,14.933333333333334,-522.6666666666666,140.8
2131,10.666666666666666,-529.0666666666666,132.26666666666665
2132,10.666666666666666,-520.5333333333333,128.0
2133,8.533333333333333,-520.5333333333333,145.06666666666666
2134,19.2,-524.8,130.13333333333333
2135,8.533333333333333,-516.2666666666667,128.0
2136,14.933333333333334,-529.0666666666666,136.53333333333333
2137,10.666666666666666,-520.5333333333333,140.8
2138,10.666666666666666,-516.2666666666667,147.2
2139,14.933333333333334,-518.4,130.13333333333333
2140,12.8,-520.5333333333333,130.13333333333333
2141,21.333333333333332,-520.5333333333333,130.13333333333333
2142,14.933333333333334,-524.8,134.4
2143,12.8,-524.8,138.66666666666666
2144,14.933333333333334,-524.8,136.53333333333333
2145,17.066666666666666,-526.9333333333333,151.46666666666667
2146,14.933333333333334,-522.6666666666666,136.53333333333333
2147,23.466666666666665,-512.0,147.2
2148,14.933333333333334,-524.8,132.26666666666665
2149,10.666666666666666,-518.4,128.0
2150,17.066666666666666,-526.9333333333333,134.4
2151,14.933333333333334,-520.5333333333333,132.26666666666665
2152,10.666666666666666,-520.5333333333333,140.8
2153,14.933333333333334,-522.6666666666666,145.06666666666666
2154,10.666666666666666,-522.6666666666666,132.26666666666665
2155,17.066666666666666,-526.9333333333333,134.4
2156,12.8,-526.9333333333333,134.4
2157,21.333333333333332,-522.6666666666666,145.06666666666666
2158,19.2,-533.3333333333334,140.8
2159,8.533333333333333,-522.6666666666666,142.93333333333334
2160,6.4,-518.4,132.26666666666665
2161,10.666666666666666,-520.5333333333333,136.53333333333333
2162,12.8,-520.5333333333333,138.66666666666666
2163,17.066666666666666,-524.8,138.66666666666666
2164,17.066666666666666,-518.4,134.4
2165,12.8,-526.9333333333333,136.53333333333333
2166,14.933333333333334,-529.0666666666666,132.26666666666665
2167,17.066666666666666,-531.2,136.53333333333333
2168,14.933333333333334,-524.8,138.66666666666666
2169,10.666666666666666,-516.2666666666667,153.6
2170,17.066666666666666,-522.6666666666666,138.66666666666666
2171,10.666666666666666,-518.4,136.53333333333333
2172,12.8,-522.6666666666666,138.66666666666666
2173,10.666666666666666,-522.6666666666666,140.8
2174,10.666666666666666,-529.0666666666666,130.13333333333333
2175,12.8,-524.8,138.66666666666666
2176,8.533333333333333,-518.4,138.66666666666666
2177,17.066666666666666,-529.0666666666666,140.8
2178,6.4,-526.9333333333333,138.66666666666666
2179,10.666666666666666,-522.6666666666666,140.8
2180,17.066666666666666,-522.6666666666666,147.2
2181,14.933333333333334,-522.6666666666666,136.53333333333333
2182,8.533333333333333,-520.5333333333333,138.66666666666666
2183,12.8,-518.4,138.66666666666666
2184,12.8,-522.6666666666666,138.66666666666666
2185,10.666666666666666,-524.8,136.53333333333333
2186,12.8,-522.6666666666666,140.8
2187,12.8,-529.0666666666666,142.93333333333334
2188,14.933333333333334,-529.0666666666666,136.53333333333333
2189,17.066666666666666,-526.9333333333333,138.66666666666666
2190,14.933333333333334,-522.6666666666666,145.06666666666666
2191,12.8,-518.4,128.0
2192,10.666666666666666,-520.5333333333333,136.53333333333333
2193,12.8,-526.9333333333333,128.0
2194,14.933333333333334,-526.9333333333333,140.8
2195,14.933333333333334,-524.8,142.93333333333334
2196,8.533333333333333,-518.4,142.93333333333334
2197,14.933333333333334,-524.8,136.53333333333333
2198,12.8,-524.8,142.93333333333334
2199,12.8,-526.9333333333333,142.93333333333334
2200,8.533333333333333,-524.8,140.8
2201,12.8,-529.0666666666666,138.66666666666666
2202,12.8,-520.5333333333333,136.53333333333333
2203,10.666666666666666,-518.4,134.4
2204,10.666666666666666,-518.4,138.66666666666666
2205,10.666666666666666,-520.5333333333333,140.8
2206,17.066666666666666,-520.5333333333333,138.66666666666666
2207,14.933333333333334,-524.8,134.4
2208,14.933333333333334,-522.6666666666666,134.4
2209,12.8,-524.8,142.93333333333334
2210,12.8,-520.5333333333333,136.53333333333333
2211,8.533333333333333,-522.6666666666666,138.66666666666666
2212,23.466666666666665,-524.8,136.53333333333333
2213,10.666666666666666,-522.6666666666666,134.4
2214,14.933333333333334,-520.5333333333333,134.4
2215,8.533333333333333,-516.2666666666667,140.8
2216,14.933333333333334,-520.5333333333333,134.4
2217,8.533333333333333,-524.8,138.66666666666666
2218,6.4,-518.4,147.2
2219,12.8,-524.8,145.06666666666666
2220,12.8,-516.2666666666667,128.0
2221,23.466666666666665,-524.8,136.53333333333333
2222,10.666666666666666,-520.5333333333333,138.66666666666666
2223,-2.1333333333333333,-514.1333333333333,121.6
2224,17.066666666666666,-524.8,138.66666666666666
2225,14.933333333333334,-520.5333333333333,138.66666666666666
2226,21.333333333333332,-533.3333333333334,134.4
2227,14.933333333333334,-524.8,134.4
2228,10.666666666666666,-522.6666666666666,138.66666666666666
2229,8.533333333333333,-522.6666666666666,128.0
2230,17.066666666666666,-522.6666666666666,134.4
2231,12.8,-518.4,145.06666666666666
2232,12.8,-516.2666666666667,145.06666666666666
2233,19.2,-524.8,136.53333333333333
2234,17.066666666666666,-512.0,134.4
2235,12.8,-518.4,138.66666666666666
2236,14.933333333333334,-529.0666666666666,134.4
2237,19.2,-524.8,140.8
2238,17.066666666666666,-518.4,134.4
2239,6.4,-524.8,134.4
2240,12.8,-522.6666666666666,132.26666666666665
2241,12.8,-522.6666666666666,140.8
2242,10.666666666666666,-524.8,138.66666666666666
2243,10.666666666666666,-526.9333333333333,142.93333333333334
2244,10.666666666666666,-522.6666666666666,134.4
2245,10.666666666666666,-524.8,130.13333333333333
2246,10.666666666666666,-522.6666666666666,151.46666666666667
2247,12.8,-526.9333333333333,138.66666666666666
2248,17.066666666666666,-522.6666666666666,130.13333333333333
2249,10.666666666666666,-520.5333333333333,134.4
2250,14.933333333333334,-522.6666666666666,136.53333333333333
2251,14.933333333333334,-522.6666666666666,147.2
2252,17.066666666666666,-516.2666666666667,136.53333333333333
2253,14.933333333333334,-516.2666666666667,138.66666666666666
2254,14.933333333333334,-518.4,142.93333333333334
2255,14.933333333333334,-514.1333333333333,138.66666666666666
2256,23.466666666666665,-507.73333333333335,136.53333333333333
2257,8.533333333333333,-518.4,140.8
2258,14.933333333333334,-522.6666666666666,136.53333333333333
2259,14.933333333333334,-522.6666666666666,138.66666666666666
2260,12.8,-524.8,138.66666666666666
2261,14.933333333333334,-522.6666666666666,130.13333333333333
2262,8.533333333333333,-522.6666666666666,142.93333333333334
2263,14.933333333333334,-518.4,134.4
2264,10.666666666666666,-514.1333333333333,151.46666666666667
2265,10.666666666666666,-522.6666666666666,130.13333333333333
2266,17.066666666666666,-522.6666666666666,140.8
2267,8.533333333333333,-518.4,128.0
2268,12.8,-520.5333333333333,140.8
2269,10.666666666666666,-520.5333333333333,134.4
2270,4.266666666666667,-522.6666666666666,140.8
2271,17.066666666666666,-524.8,138.66666666666666
2272,14.933333333333334,-522.6666666666666,138.66666666666666
2273,17.066666666666666,-522.6666666666666,136.53333333333333
2274,8.533333333333333,-516.2666666666667,132.26666666666665
2275,10.666666666666666,-524.8,147.2
2276,10.666666666666666,-522.6666666666666,132.26666666666665
2277,8.533333333333333,-522.6666666666666,132.26666666666665
2278,12.8,-524.8,136.53333333333333
2279,12.8,-516.2666666666667,140.8
2280,12.8,-526.9333333333333,136.53333333333333
2281,17.066666666666666,-520.5333333333333,136.53333333333333
2282,14.933333333333334,-526.9333333333333,145.06666666666666
2283,10.666666666666666,-520.5333333333333,140.8
2284,12.8,-524.8,136.53333333333333
2285,17.066666666666666,-518.4,140.8
2286,6.4,-520.5333333333333,134.4
2287,6.4,-524.8,130.13333333333333
2288,21.333333333333332,-529.0666666666666,121.6
2289,2.1333333333333333,-512.0,134.4
2290,12.8,-524.8,132.26666666666665
2291,14.933333333333334,-520.5333333333333,140.8
2292,12.8,-524.8,134.4
2293,8.533333333333333,-518.4,145.06666666666666
2294,12.8,-520.5333333333333,138.66666666666666
2295,12.8,-524.8,136.53333333333333
2296,12.8,-524.8,140.8
2297,19.2,-520.5333333333333,147.2
2298,12.8,-524.8,140.8
2299,12.8,-524.8,140.8
2300,12.8,-518.4,136.53333333333333
2301,19.2,-526.9333333333333,138.66666666666666
2302,17.066666666666666,-522.6666666666666,134.4
2303,10.666666666666666,-524.8,136.53333333333333
2304,14.933333333333334,-522.6666666666666,140.8
2305,10.666666666666666,-524.8,140.8
2306,12.8,-522.6666666666666,136.53333333333333
2307,14.933333333333334,-529.0666666666666,134.4
2308,21.333333333333332,-533.3333333333334,138.66666666666666
2309,12.8,-518.4,142.93333333333334
2310,25.6,-522.6666666666666,145.06666666666666
2311,10.666666666666666,-514.1333333333333,142.93333333333334
2312,10.666666666666666,-518.4,134.4
2313,12.8,-520.5333333333333,132.26666666666665
2314,17.066666666666666,-522.6666666666666,134.4
2315,17.066666666666666,-520.5333333333333,142.93333333333334
2316,17.066666666666666,-524.8,134.4
2317,12.8,-522.6666666666666,149.33333333333334
2318,6.4,-524.8,123.73333333333333
2319,6.4,-520.5333333333333,145.06666666666666
2320,10.666666666666666,-522.6666666666666,134.4
2321,17.066666666666666,-516.2666666666667,147.2
2322,10.666666666666666,-524.8,136.53333333333333
2323,6.4,-520.5333333333333,140.8
2324,10.666666666666666,-520.5333333333333,136.53333333333333
2325,14.933333333333334,-526.9333333333333,142.93333333333334
2326,10.666666666666666,-522.6666666666666,138.66666666666666
2327,19.2,-522.6666666666666,134.4
2328,12.8,-524.8,147.2
2329,14.933333333333334,-524.8,128.0
2330,10.666666666666666,-522.6666666666666,128.0
2331,17.066666666666666,-524.8,136.53333333333333
2332,17.066666666666666,-531.2,147.2
2333,12.8,-526.9333333333333,145.06666666666666
2334,14.933333333333334,-524.8,142.93333333333334
2335,10.666666666666666,-526.9333333333333,140.8
2336,14.933333333333334,-531.2,136.53333333333333
2337,10.666666666666666,-520.5333333333333,145.06666666666666
2338,12.8,-522.6666666666666,140.8
2339,10.666666666666666,-520.5333333333333,128.0
2340,17.066666666666666,-526.9333333333333,138.66666666666666
2341,8.533333333333333,-518.4,140.8
2342,21.333333333333332,-526.9333333333333,138.66666666666666
2343,14.933333333333334,-526.9333333333333,142.93333333333334
2344,14.933333333333334,-529.0666666666666,134.4
2345,14.933333333333334,-524.8,136.53333333333333
2346,10.666666666666666,-520.5333333333333,130.13333333333333
2347,12.8,-520.5333333333333,140.8
2348,14.933333333333334,-522.6666666666666,136.53333333333333
2349,6.4,-522.6666666666666,132.26666666666665
2350,12.8,-518.4,145.06666666666666
2351,8.533333333333333,-529.0666666666666,132.26666666666665
2352,17.066666666666666,-522.6666666666666,151.46666666666667
2353,12.8,-522.6666666666666,138.66666666666666
2354,19.2,-531.2,145.06666666666666
2355,10.666666666666666,-518.4,136.53333333333333
2356,8.533333333333333,-518.4,138.66666666666666
2357,10.666666666666666,-531.2,147.2
2358,10.666666666666666,-524.8,130.13333333333333
2359,12.8,-522.6666666666666,132.26666666666665
2360,12.8,-526.9333333333333,134.4
2361,6.4,-522.6666666666666,138.66666666666666
2362,12.8,-522.6666666666666,138.66666666666666
2363,14.933333333333334,-522.6666666666666,138.66666666666666
2364,17.066666666666666,-524.8,140.8
2365,14.933333333333334,-529.0666666666666,125.86666666666666
2366,12.8,-522.6666666666666,138.66666666666666
2367,10.666666666666666,-516.2666666666667,149.33333333333334
2368,12.8,-522.6666666666666,136.53333333333333
2369,10.666666666666666,-526.9333333333333,136.53333333333333
2370,12.8,-522.6666666666666,136.53333333333333
2371,17.066666666666666,-522.6666666666666,142.93333333333334
2372,14.933333333333334,-526.9333333333333,145.06666666666666
2373,25.6,-526.9333333333333,138.66666666666666
2374,17.066666666666666,-524.8,142.93333333333334
2375,17.066666666666666,-520.5333333333333,147.2
2376,12.8,-514.1333333333333,142.93333333333334
2377,14.933333333333334,-520.5333333333333,147.2
2378,12.8,-518.4,138.66666666666666
2379,10.666666666666666,-518.4,138.66666666666666
2380,14.933333333333334,-522.6666666666666,140.8
2381,14.933333333333334,-518.4,132.26666666666665
2382,17.066666666666666,-520.5333333333333,136.53333333333333
2383,14.933333333333334,-522.6666666666666,134.4
2384,17.066666666666666,-526.9333333333333,138.66666666666666
2385,17.066666666666666,-518.4,140.8
2386,14.933333333333334,-522.6666666666666,132.26666666666665
2387,10.666666666666666,-524.8,140.8
2388,21.333333333333332,-531.2,130.13333333333333
2389,8.533333333333333,-516.2666666666667,132.26666666666665
2390,14.933333333333334,-529.0666666666666,138.66666666666666
2391,10.666666666666666,-520.5333333333333,134.4
2392,10.666666666666666,-526.9333333333333,132.26666666666665
2393,17.066666666666666,-531.2,140.8
2394,12.8,-514.1333333333333,142.93333333333334
2395,14.933333333333334,-520.5333333333333,130.13333333333333
2396,12.8,-526.9333333333333,147.2
2397,19.2,-522.6666666666666,140.8
2398,14.933333333333334,-512.0,151.46666666666667
2399,14.933333333333334,-520.5333333333333,136.53333333333333
