,accelerometerAccelerationX(G),accelerometerAccelerationY(G),accelerometerAccelerationZ(G)
0,23.466666666666665,-501.3333333333333,172.8
1,25.6,-503.46666666666664,181.33333333333334
2,19.2,-484.26666666666665,172.8
3,25.6,-499.2,168.53333333333333
4,17.066666666666666,-497.06666666666666,181.33333333333334
5,32.0,-499.2,192.0
6,27.733333333333334,-494.93333333333334,177.06666666666666
7,32.0,-505.59999999999997,168.53333333333333
8,21.333333333333332,-490.6666666666667,174.93333333333334
9,25.6,-488.5333333333333,174.93333333333334
10,19.2,-501.3333333333333,179.2
11,34.13333333333333,-501.3333333333333,170.66666666666666
12,25.6,-501.3333333333333,172.8
13,21.333333333333332,-494.93333333333334,168.53333333333333
14,27.733333333333334,-494.93333333333334,170.66666666666666
15,8.533333333333333,-497.06666666666666,162.13333333333333
16,29.866666666666667,-497.06666666666666,177.06666666666666
17,27.733333333333334,-497.06666666666666,174.93333333333334
18,29.866666666666667,-501.3333333333333,172.8
19,29.866666666666667,-501.3333333333333,181.33333333333334
20,29.866666666666667,-497.06666666666666,174.93333333333334
21,23.466666666666665,-497.06666666666666,168.53333333333333
22,21.333333333333332,-497.06666666666666,179.2
23,21.333333333333332,-486.4,170.66666666666666
24,21.333333333333332,-497.06666666666666,179.2
25,29.866666666666667,-499.2,177.06666666666666
26,19.2,-494.93333333333334,185.6
27,27.733333333333334,-497.06666666666666,181.33333333333334
28,29.866666666666667,-499.2,181.33333333333334
29,25.6,-494.93333333333334,172.8
30,27.733333333333334,-499.2,174.93333333333334
31,21.333333333333332,-494.93333333333334,172.8
32,29.866666666666667,-494.93333333333334,177.06666666666666
33,29.866666666666667,-492.8,170.66666666666666
34,27.733333333333334,-492.8,179.2
35,27.733333333333334,-499.2,166.4
36,27.733333333333334,-494.93333333333334,170.66666666666666
37,36.266666666666666,-509.8666666666667,181.33333333333334
38,34.13333333333333,-501.3333333333333,170.66666666666666
39,36.266666666666666,-501.3333333333333,162.13333333333333
40,29.866666666666667,-499.2,172.8
41,27.733333333333334,-501.3333333333333,177.06666666666666
42,32.0,-503.46666666666664,166.4
43,32.0,-501.3333333333333,172.8
44,27.733333333333334,-503.46666666666664,170.66666666666666
45,29.866666666666667,-499.2,187.73333333333332
46,25.6,-497.06666666666666,194.13333333333333
47,23.466666666666665,-490.6666666666667,174.93333333333334
48,27.733333333333334,-497.06666666666666,177.06666666666666
49,34.13333333333333,-501.3333333333333,179.2
50,29.866666666666667,-494.93333333333334,174.93333333333334
51,21.333333333333332,-499.2,179.2
52,27.733333333333334,-490.6666666666667,174.93333333333334
53,25.6,-497.06666666666666,174.93333333333334
54,32.0,-497.06666666666666,172.8
55,29.866666666666667,-499.2,185.6
56,27.733333333333334,-494.93333333333334,170.66666666666666
57,27.733333333333334,-494.93333333333334,179.2
58,23.466666666666665,-490.6666666666667,172.8
59,27.733333333333334,-501.3333333333333,177.06666666666666
60,29.866666666666667,-494.93333333333334,170.66666666666666
61,29.866666666666667,-499.2,172.8
62,32.0,-497.06666666666666,174.93333333333334
63,34.13333333333333,-492.8,170.66666666666666
64,27.733333333333334,-494.93333333333334,172.8
65,34.13333333333333,-501.3333333333333,177.06666666666666
66,29.866666666666667,-492.8,168.53333333333333
67,23.466666666666665,-499.2,172.8
68,32.0,-503.46666666666664,170.66666666666666
69,29.866666666666667,-490.6666666666667,172.8
70,38.4,-492.8,204.8
71,29.866666666666667,-494.93333333333334,177.06666666666666
72,29.866666666666667,-494.93333333333334,179.2
73,27.733333333333334,-497.06666666666666,174.93333333333334
74,21.333333333333332,-497.06666666666666,170.66666666666666
75,29.866666666666667,-497.06666666666666,179.2
76,34.13333333333333,-497.06666666666666,181.33333333333334
77,25.6,-494.93333333333334,177.06666666666666
78,32.0,-505.59999999999997,181.33333333333334
79,34.13333333333333,-503.46666666666664,185.6
80,27.733333333333334,-501.3333333333333,179.2
81,29.866666666666667,-503.46666666666664,168.53333333333333
82,29.866666666666667,-494.93333333333334,170.66666666666666
83,25.6,-499.2,183.46666666666667
84,29.866666666666667,-494.93333333333334,181.33333333333334
85,29.866666666666667,-494.93333333333334,174.93333333333334
86,29.866666666666667,-499.2,177.06666666666666
87,32.0,-501.3333333333333,174.93333333333334
88,25.6,-494.93333333333334,174.93333333333334
89,27.733333333333334,-497.06666666666666,174.93333333333334
90,21.333333333333332,-503.46666666666664,174.93333333333334
91,25.6,-499.2,168.53333333333333
92,34.13333333333333,-499.2,174.93333333333334
93,27.733333333333334,-505.59999999999997,172.8
94,27.733333333333334,-501.3333333333333,177.06666666666666
95,32.0,-497.06666666666666,177.06666666666666
96,21.333333333333332,-494.93333333333334,170.66666666666666
97,27.733333333333334,-501.3333333333333,185.6
98,32.0,-501.3333333333333,183.46666666666667
99,25.6,-499.2,181.33333333333334
100,29.866666666666667,-501.3333333333333,179.2
101,29.866666666666667,-497.06666666666666,170.66666666666666
102,29.866666666666667,-494.93333333333334,174.93333333333334
103,32.0,-503.46666666666664,174.93333333333334
104,23.466666666666665,-501.3333333333333,179.2
105,23.466666666666665,-497.06666666666666,179.2
106,27.733333333333334,-497.06666666666666,181.33333333333334
107,27.733333333333334,-492.8,179.2
108,29.866666666666667,-497.06666666666666,177.06666666666666
109,29.866666666666667,-497.06666666666666,181.33333333333334
110,34.13333333333333,-494.93333333333334,187.73333333333332
111,23.466666666666665,-494.93333333333334,174.93333333333334
112,27.733333333333334,-501.3333333333333,185.6
113,19.2,-503.46666666666664,177.06666666666666
114,32.0,-492.8,181.33333333333334
115,23.466666666666665,-492.8,179.2
116,25.6,-494.93333333333334,179.2
117,23.466666666666665,-492.8,179.2
118,25.6,-494.93333333333334,177.06666666666666
119,25.6,-497.06666666666666,177.06666666666666
120,27.733333333333334,-494.93333333333334,177.06666666666666
121,17.066666666666666,-492.8,196.26666666666665
122,29.866666666666667,-505.59999999999997,179.2
123,29.866666666666667,-494.93333333333334,185.6
124,23.466666666666665,-514.1333333333333,166.4
125,29.866666666666667,-503.46666666666664,174.93333333333334
126,34.13333333333333,-499.2,189.86666666666667
127,29.866666666666667,-494.93333333333334,187.73333333333332
128,32.0,-497.06666666666666,172.8
129,34.13333333333333,-499.2,174.93333333333334
130,29.866666666666667,-499.2,181.33333333333334
131,25.6,-492.8,177.06666666666666
132,29.866666666666667,-494.93333333333334,179.2
133,29.866666666666667,-499.2,181.33333333333334
134,25.6,-488.5333333333333,179.2
135,14.933333333333334,-499.2,174.93333333333334
136,29.866666666666667,-501.3333333333333,174.93333333333334
137,32.0,-497.06666666666666,181.33333333333334
138,32.0,-494.93333333333334,170.66666666666666
139,23.466666666666665,-490.6666666666667,179.2
140,34.13333333333333,-499.2,177.06666666666666
141,27.733333333333334,-497.06666666666666,179.2
142,27.733333333333334,-499.2,183.46666666666667
143,32.0,-501.3333333333333,181.33333333333334
144,25.6,-494.93333333333334,181.33333333333334
145,27.733333333333334,-501.3333333333333,174.93333333333334
146,27.733333333333334,-503.46666666666664,172.8
147,29.866666666666667,-494.93333333333334,177.06666666666666
148,25.6,-494.93333333333334,187.73333333333332
149,27.733333333333334,-492.8,181.33333333333334
150,27.733333333333334,-499.2,174.93333333333334
151,23.466666666666665,-490.6666666666667,183.46666666666667
152,29.866666666666667,-499.2,177.06666666666666
153,34.13333333333333,-503.46666666666664,185.6
154,27.733333333333334,-494.93333333333334,181.33333333333334
155,32.0,-497.06666666666666,185.6
156,23.466666666666665,-488.5333333333333,192.0
157,36.266666666666666,-509.8666666666667,172.8
158,34.13333333333333,-505.59999999999997,181.33333333333334
159,32.0,-499.2,174.93333333333334
160,32.0,-497.06666666666666,177.06666666666666
161,27.733333333333334,-490.6666666666667,179.2
162,34.13333333333333,-499.2,174.93333333333334
163,34.13333333333333,-499.2,181.33333333333334
164,32.0,-505.59999999999997,174.93333333333334
165,34.13333333333333,-501.3333333333333,187.73333333333332
166,32.0,-499.2,179.2
167,32.0,-494.93333333333334,187.73333333333332
168,21.333333333333332,-494.93333333333334,192.0
169,25.6,-497.06666666666666,179.2
170,27.733333333333334,-503.46666666666664,183.46666666666667
171,32.0,-507.73333333333335,177.06666666666666
172,19.2,-501.3333333333333,185.6
173,25.6,-499.2,183.46666666666667
174,27.733333333333334,-505.59999999999997,179.2
175,32.0,-507.73333333333335,185.6
176,27.733333333333334,-501.3333333333333,177.06666666666666
177,19.2,-494.93333333333334,166.4
178,29.866666666666667,-494.93333333333334,177.06666666666666
179,23.466666666666665,-486.4,168.53333333333333
180,32.0,-499.2,170.66666666666666
181,23.466666666666665,-492.8,168.53333333333333
182,23.466666666666665,-497.06666666666666,177.06666666666666
183,32.0,-490.6666666666667,172.8
184,23.466666666666665,-490.6666666666667,179.2
185,34.13333333333333,-492.8,174.93333333333334
186,27.733333333333334,-494.93333333333334,192.0
187,29.866666666666667,-497.06666666666666,177.06666666666666
188,25.6,-492.8,183.46666666666667
189,32.0,-499.2,189.86666666666667
190,32.0,-501.3333333333333,172.8
191,34.13333333333333,-499.2,185.6
192,34.13333333333333,-507.73333333333335,183.46666666666667
193,29.866666666666667,-499.2,179.2
194,29.866666666666667,-497.06666666666666,189.86666666666667
195,25.6,-492.8,181.33333333333334
196,32.0,-499.2,177.06666666666666
197,32.0,-499.2,168.53333333333333
198,29.866666666666667,-503.46666666666664,177.06666666666666
199,36.266666666666666,-492.8,183.46666666666667
200,32.0,-501.3333333333333,170.66666666666666
201,40.53333333333333,-507.73333333333335,177.06666666666666
202,34.13333333333333,-492.8,164.26666666666665
203,36.266666666666666,-499.2,168.53333333333333
204,25.6,-494.93333333333334,164.26666666666665
205,40.53333333333333,-494.93333333333334,174.93333333333334
206,32.0,-494.93333333333334,172.8
207,29.866666666666667,-492.8,177.06666666666666
208,34.13333333333333,-484.26666666666665,172.8
209,23.466666666666665,-484.26666666666665,160.0
210,32.0,-492.8,179.2
211,36.266666666666666,-497.06666666666666,194.13333333333333
212,29.866666666666667,-494.93333333333334,168.53333333333333
213,36.266666666666666,-503.46666666666664,179.2
214,34.13333333333333,-501.3333333333333,189.86666666666667
215,27.733333333333334,-499.2,177.06666666666666
216,25.6,-497.06666666666666,181.33333333333334
217,29.866666666666667,-494.93333333333334,168.53333333333333
218,32.0,-494.93333333333334,172.8
219,29.866666666666667,-499.2,179.2
220,29.866666666666667,-499.2,172.8
221,21.333333333333332,-494.93333333333334,181.33333333333334
222,34.13333333333333,-501.3333333333333,172.8
223,25.6,-497.06666666666666,177.06666666666666
224,32.0,-494.93333333333334,168.53333333333333
225,29.866666666666667,-492.8,179.2
226,32.0,-499.2,177.06666666666666
227,27.733333333333334,-490.6666666666667,174.93333333333334
228,29.866666666666667,-494.93333333333334,174.93333333333334
229,29.866666666666667,-492.8,166.4
230,25.6,-492.8,172.8
231,25.6,-503.46666666666664,166.4
232,27.733333333333334,-497.06666666666666,172.8
233,25.6,-501.3333333333333,166.4
234,32.0,-499.2,174.93333333333334
235,25.6,-494.93333333333334,185.6
236,27.733333333333334,-499.2,170.66666666666666
237,34.13333333333333,-499.2,170.66666666666666
238,23.466666666666665,-497.06666666666666,170.66666666666666
239,32.0,-501.3333333333333,164.26666666666665
240,29.866666666666667,-499.2,168.53333333333333
241,34.13333333333333,-497.06666666666666,172.8
242,34.13333333333333,-497.06666666666666,168.53333333333333
243,32.0,-499.2,166.4
244,29.866666666666667,-497.06666666666666,168.53333333333333
245,29.866666666666667,-497.06666666666666,177.06666666666666
246,32.0,-501.3333333333333,177.06666666666666
247,29.866666666666667,-499.2,164.26666666666665
248,32.0,-494.93333333333334,174.93333333333334
249,34.13333333333333,-501.3333333333333,168.53333333333333
250,29.866666666666667,-501.3333333333333,172.8
251,23.466666666666665,-494.93333333333334,168.53333333333333
252,34.13333333333333,-505.59999999999997,164.26666666666665
253,40.53333333333333,-505.59999999999997,166.4
254,34.13333333333333,-501.3333333333333,170.66666666666666
255,23.466666666666665,-488.5333333333333,166.4
256,36.266666666666666,-499.2,164.26666666666665
257,34.13333333333333,-505.59999999999997,174.93333333333334
258,32.0,-494.93333333333334,168.53333333333333
259,34.13333333333333,-503.46666666666664,168.53333333333333
260,42.666666666666664,-509.8666666666667,170.66666666666666
261,32.0,-497.06666666666666,177.06666666666666
262,27.733333333333334,-499.2,172.8
263,32.0,-505.59999999999997,164.26666666666665
264,19.2,-497.06666666666666,166.4
265,38.4,-505.59999999999997,166.4
266,25.6,-503.46666666666664,170.66666666666666
267,32.0,-501.3333333333333,170.66666666666666
268,29.866666666666667,-497.06666666666666,170.66666666666666
269,29.866666666666667,-499.2,170.66666666666666
270,32.0,-497.06666666666666,162.13333333333333
271,25.6,-494.93333333333334,162.13333333333333
272,29.866666666666667,-501.3333333333333,170.66666666666666
273,36.266666666666666,-505.59999999999997,170.66666666666666
274,27.733333333333334,-507.73333333333335,164.26666666666665
275,32.0,-503.46666666666664,160.0
276,27.733333333333334,-497.06666666666666,155.73333333333332
277,38.4,-492.8,160.0
278,32.0,-503.46666666666664,162.13333333333333
279,29.866666666666667,-499.2,168.53333333333333
280,25.6,-499.2,170.66666666666666
281,27.733333333333334,-501.3333333333333,170.66666666666666
282,27.733333333333334,-501.3333333333333,179.2
283,29.866666666666667,-503.46666666666664,172.8
284,29.866666666666667,-499.2,174.93333333333334
285,34.13333333333333,-503.46666666666664,172.8
286,21.333333333333332,-497.06666666666666,181.33333333333334
287,32.0,-507.73333333333335,177.06666666666666
288,32.0,-505.59999999999997,164.26666666666665
289,34.13333333333333,-505.59999999999997,168.53333333333333
290,32.0,-503.46666666666664,174.93333333333334
291,32.0,-505.59999999999997,166.4
292,32.0,-499.2,162.13333333333333
293,32.0,-494.93333333333334,170.66666666666666
294,29.866666666666667,-494.93333333333334,172.8
295,34.13333333333333,-501.3333333333333,168.53333333333333
296,23.466666666666665,-492.8,170.66666666666666
297,32.0,-497.06666666666666,168.53333333333333
298,34.13333333333333,-501.3333333333333,172.8
299,29.866666666666667,-499.2,160.0
300,25.6,-501.3333333333333,170.66666666666666
301,29.866666666666667,-499.2,168.53333333333333
302,21.333333333333332,-503.46666666666664,166.4
303,36.266666666666666,-503.46666666666664,174.93333333333334
304,29.866666666666667,-497.06666666666666,177.06666666666666
305,34.13333333333333,-501.3333333333333,168.53333333333333
306,34.13333333333333,-501.3333333333333,168.53333333333333
307,32.0,-505.59999999999997,170.66666666666666
308,32.0,-509.8666666666667,162.13333333333333
309,32.0,-509.8666666666667,168.53333333333333
310,29.866666666666667,-514.1333333333333,179.2
311,36.266666666666666,-492.8,162.13333333333333
312,27.733333333333334,-490.6666666666667,172.8
313,27.733333333333334,-494.93333333333334,166.4
314,27.733333333333334,-499.2,168.53333333333333
315,32.0,-499.2,170.66666666666666
316,25.6,-497.06666666666666,160.0
317,36.266666666666666,-507.73333333333335,166.4
318,27.733333333333334,-494.93333333333334,172.8
319,46.93333333333333,-501.3333333333333,174.93333333333334
320,29.866666666666667,-501.3333333333333,168.53333333333333
321,29.866666666666667,-501.3333333333333,168.53333333333333
322,27.733333333333334,-501.3333333333333,174.93333333333334
323,32.0,-503.46666666666664,170.66666666666666
324,32.0,-501.3333333333333,174.93333333333334
325,25.6,-501.3333333333333,172.8
326,32.0,-501.3333333333333,168.53333333333333
327,25.6,-501.3333333333333,160.0
328,34.13333333333333,-499.2,172.8
329,27.733333333333334,-503.46666666666664,170.66666666666666
330,32.0,-501.3333333333333,174.93333333333334
331,17.066666666666666,-499.2,153.6
332,29.866666666666667,-503.46666666666664,170.66666666666666
333,32.0,-501.3333333333333,174.93333333333334
334,29.866666666666667,-501.3333333333333,168.53333333333333
335,27.733333333333334,-501.3333333333333,162.13333333333333
336,32.0,-507.73333333333335,168.53333333333333
337,36.266666666666666,-503.46666666666664,174.93333333333334
338,36.266666666666666,-503.46666666666664,174.93333333333334
339,29.866666666666667,-499.2,170.66666666666666
340,29.866666666666667,-497.06666666666666,179.2
341,29.866666666666667,-499.2,179.2
342,25.6,-516.2666666666667,164.26666666666665
343,27.733333333333334,-497.06666666666666,160.0
344,25.6,-497.06666666666666,168.53333333333333
345,32.0,-497.06666666666666,170.66666666666666
346,25.6,-494.93333333333334,166.4
347,34.13333333333333,-501.3333333333333,170.66666666666666
348,29.866666666666667,-497.06666666666666,170.66666666666666
349,36.266666666666666,-494.93333333333334,170.66666666666666
350,29.866666666666667,-503.46666666666664,162.13333333333333
351,38.4,-505.59999999999997,172.8
352,25.6,-497.06666666666666,168.53333333333333
353,34.13333333333333,-494.93333333333334,166.4
354,32.0,-494.93333333333334,162.13333333333333
355,36.266666666666666,-501.3333333333333,170.66666666666666
356,36.266666666666666,-505.59999999999997,172.8
357,32.0,-497.06666666666666,174.93333333333334
358,27.733333333333334,-503.46666666666664,170.66666666666666
359,36.266666666666666,-499.2,166.4
360,27.733333333333334,-492.8,170.66666666666666
361,36.266666666666666,-505.59999999999997,170.66666666666666
362,29.866666666666667,-497.06666666666666,166.4
363,29.866666666666667,-499.2,168.53333333333333
364,38.4,-497.06666666666666,166.4
365,32.0,-501.3333333333333,170.66666666666666
366,32.0,-503.46666666666664,174.93333333333334
367,27.733333333333334,-497.06666666666666,170.66666666666666
368,32.0,-497.06666666666666,172.8
369,34.13333333333333,-505.59999999999997,172.8
370,32.0,-499.2,174.93333333333334
371,32.0,-503.46666666666664,166.4
372,29.866666666666667,-507.73333333333335,174.93333333333334
373,32.0,-494.93333333333334,170.66666666666666
374,27.733333333333334,-497.06666666666666,172.8
375,29.866666666666667,-499.2,168.53333333333333
376,25.6,-497.06666666666666,181.33333333333334
377,25.6,-501.3333333333333,177.06666666666666
378,29.866666666666667,-501.3333333333333,177.06666666666666
379,27.733333333333334,-501.3333333333333,172.8
380,36.266666666666666,-492.8,172.8
381,34.13333333333333,-497.06666666666666,170.66666666666666
382,34.13333333333333,-497.06666666666666,179.2
383,32.0,-501.3333333333333,164.26666666666665
384,34.13333333333333,-503.46666666666664,170.66666666666666
385,34.13333333333333,-499.2,170.66666666666666
386,21.333333333333332,-492.8,170.66666666666666
387,29.866666666666667,-501.3333333333333,168.53333333333333
388,27.733333333333334,-499.2,174.93333333333334
389,25.6,-494.93333333333334,168.53333333333333
390,36.266666666666666,-501.3333333333333,170.66666666666666
391,23.466666666666665,-499.2,162.13333333333333
392,34.13333333333333,-507.73333333333335,174.93333333333334
393,25.6,-499.2,177.06666666666666
394,27.733333333333334,-501.3333333333333,168.53333333333333
395,25.6,-497.06666666666666,172.8
396,27.733333333333334,-499.2,170.66666666666666
397,29.866666666666667,-499.2,164.26666666666665
398,32.0,-503.46666666666664,172.8
399,32.0,-501.3333333333333,168.53333333333333
400,32.0,-501.3333333333333,170.66666666666666
401,27.733333333333334,-492.8,172.8
402,32.0,-494.93333333333334,168.53333333333333
403,32.0,-503.46666666666664,170.66666666666666
404,29.866666666666667,-497.06666666666666,164.26666666666665
405,34.13333333333333,-505.59999999999997,179.2
406,29.866666666666667,-486.4,174.93333333333334
407,34.13333333333333,-497.06666666666666,174.93333333333334
408,32.0,-497.06666666666666,198.4
409,29.866666666666667,-494.93333333333334,177.06666666666666
410,29.866666666666667,-497.06666666666666,181.33333333333334
411,29.866666666666667,-503.46666666666664,177.06666666666666
412,25.6,-501.3333333333333,172.8
413,29.866666666666667,-503.46666666666664,170.66666666666666
414,34.13333333333333,-501.3333333333333,174.93333333333334
415,29.866666666666667,-503.46666666666664,177.06666666666666
416,27.733333333333334,-499.2,170.66666666666666
417,25.6,-497.06666666666666,168.53333333333333
418,17.066666666666666,-501.3333333333333,179.2
419,23.466666666666665,-501.3333333333333,174.93333333333334
420,23.466666666666665,-507.73333333333335,164.26666666666665
421,21.333333333333332,-499.2,174.93333333333334
422,27.733333333333334,-501.3333333333333,174.93333333333334
423,25.6,-494.93333333333334,172.8
424,34.13333333333333,-501.3333333333333,177.06666666666666
425,27.733333333333334,-499.2,174.93333333333334
426,34.13333333333333,-501.3333333333333,170.66666666666666
427,32.0,-503.46666666666664,170.66666666666666
428,21.333333333333332,-501.3333333333333,179.2
429,23.466666666666665,-512.0,155.73333333333332
430,25.6,-499.2,172.8
431,29.866666666666667,-499.2,170.66666666666666
432,34.13333333333333,-501.3333333333333,179.2
433,32.0,-501.3333333333333,174.93333333333334
434,29.866666666666667,-501.3333333333333,170.66666666666666
435,27.733333333333334,-499.2,170.66666666666666
436,34.13333333333333,-499.2,174.93333333333334
437,27.733333333333334,-494.93333333333334,168.53333333333333
438,29.866666666666667,-503.46666666666664,187.73333333333332
439,29.866666666666667,-497.06666666666666,179.2
440,14.933333333333334,-484.26666666666665,174.93333333333334
441,25.6,-497.06666666666666,185.6
442,27.733333333333334,-501.3333333333333,172.8
443,27.733333333333334,-501.3333333333333,168.53333333333333
444,29.866666666666667,-499.2,179.2
445,29.866666666666667,-499.2,170.66666666666666
446,29.866666666666667,-497.06666666666666,177.06666666666666
447,27.733333333333334,-497.06666666666666,177.06666666666666
448,27.733333333333334,-503.46666666666664,174.93333333333334
449,23.466666666666665,-501.3333333333333,179.2
450,27.733333333333334,-505.59999999999997,183.46666666666667
451,21.333333333333332,-490.6666666666667,166.4
452,25.6,-501.3333333333333,172.8
453,27.733333333333334,-494.93333333333334,168.53333333333333
454,34.13333333333333,-505.59999999999997,172.8
455,29.866666666666667,-503.46666666666664,177.06666666666666
456,34.13333333333333,-503.46666666666664,177.06666666666666
457,32.0,-505.59999999999997,181.33333333333334
458,23.466666666666665,-497.06666666666666,166.4
459,27.733333333333334,-501.3333333333333,166.4
460,23.466666666666665,-501.3333333333333,179.2
461,25.6,-503.46666666666664,174.93333333333334
462,25.6,-492.8,179.2
463,29.866666666666667,-497.06666666666666,177.06666666666666
464,29.866666666666667,-497.06666666666666,177.06666666666666
465,25.6,-497.06666666666666,170.66666666666666
466,27.733333333333334,-497.06666666666666,172.8
467,23.466666666666665,-499.2,172.8
468,27.733333333333334,-499.2,179.2
469,29.866666666666667,-499.2,174.93333333333334
470,29.866666666666667,-507.73333333333335,174.93333333333334
471,32.0,-499.2,174.93333333333334
472,32.0,-503.46666666666664,172.8
473,25.6,-497.06666666666666,160.0
474,23.466666666666665,-499.2,177.06666666666666
475,34.13333333333333,-505.59999999999997,177.06666666666666
476,29.866666666666667,-499.2,179.2
477,23.466666666666665,-497.06666666666666,166.4
478,25.6,-505.59999999999997,168.53333333333333
479,27.733333333333334,-494.93333333333334,170.66666666666666
480,23.466666666666665,-492.8,170.66666666666666
481,25.6,-501.3333333333333,179.2
482,29.866666666666667,-501.3333333333333,177.06666666666666
483,23.466666666666665,-497.06666666666666,170.66666666666666
484,29.866666666666667,-503.46666666666664,181.33333333333334
485,29.866666666666667,-497.06666666666666,177.06666666666666
486,25.6,-497.06666666666666,179.2
487,25.6,-497.06666666666666,172.8
488,32.0,-507.73333333333335,181.33333333333334
489,29.866666666666667,-501.3333333333333,172.8
490,21.333333333333332,-505.59999999999997,174.93333333333334
491,36.266666666666666,-499.2,177.06666666666666
492,23.466666666666665,-488.5333333333333,177.06666666666666
493,23.466666666666665,-497.06666666666666,170.66666666666666
494,32.0,-492.8,179.2
495,34.13333333333333,-507.73333333333335,177.06666666666666
496,34.13333333333333,-499.2,164.26666666666665
497,29.866666666666667,-494.93333333333334,181.33333333333334
498,27.733333333333334,-497.06666666666666,174.93333333333334
499,25.6,-497.06666666666666,179.2
500,29.866666666666667,-499.2,179.2
501,25.6,-494.93333333333334,179.2
502,21.333333333333332,-492.8,181.33333333333334
503,21.333333333333332,-505.59999999999997,179.2
504,29.866666666666667,-497.06666666666666,168.53333333333333
505,29.866666666666667,-501.3333333333333,183.46666666666667
506,29.866666666666667,-505.59999999999997,185.6
507,27.733333333333334,-492.8,177.06666666666666
508,29.866666666666667,-497.06666666666666,181.33333333333334
509,27.733333333333334,-503.46666666666664,174.93333333333334
510,25.6,-497.06666666666666,177.06666666666666
511,27.733333333333334,-494.93333333333334,179.2
512,29.866666666666667,-497.06666666666666,174.93333333333334
513,32.0,-503.46666666666664,179.2
514,25.6,-497.06666666666666,185.6
515,21.333333333333332,-497.06666666666666,170.66666666666666
516,34.13333333333333,-499.2,185.6
517,32.0,-503.46666666666664,172.8
518,29.866666666666667,-499.2,179.2
519,25.6,-501.3333333333333,174.93333333333334
520,32.0,-503.46666666666664,177.06666666666666
521,27.733333333333334,-499.2,170.66666666666666
522,23.466666666666665,-503.46666666666664,172.8
523,23.466666666666665,-497.06666666666666,166.4
524,23.466666666666665,-499.2,174.93333333333334
525,27.733333333333334,-501.3333333333333,177.06666666666666
526,23.466666666666665,-494.93333333333334,160.0
527,27.733333333333334,-499.2,162.13333333333333
528,25.6,-494.93333333333334,183.46666666666667
529,23.466666666666665,-501.3333333333333,168.53333333333333
530,25.6,-499.2,174.93333333333334
531,29.866666666666667,-503.46666666666664,181.33333333333334
532,29.866666666666667,-499.2,179.2
533,34.13333333333333,-497.06666666666666,179.2
534,32.0,-509.8666666666667,172.8
535,25.6,-497.06666666666666,164.26666666666665
536,32.0,-497.06666666666666,170.66666666666666
537,23.466666666666665,-499.2,172.8
538,34.13333333333333,-505.59999999999997,194.13333333333333
539,32.0,-507.73333333333335,183.46666666666667
540,32.0,-501.3333333333333,179.2
541,29.866666666666667,-497.06666666666666,187.73333333333332
542,32.0,-494.93333333333334,166.4
543,32.0,-494.93333333333334,177.06666666666666
544,29.866666666666667,-494.93333333333334,174.93333333333334
545,32.0,-497.06666666666666,183.46666666666667
546,27.733333333333334,-494.93333333333334,168.53333333333333
547,32.0,-494.93333333333334,177.06666666666666
548,36.266666666666666,-503.46666666666664,177.06666666666666
549,25.6,-507.73333333333335,168.53333333333333
550,25.6,-494.93333333333334,164.26666666666665
551,27.733333333333334,-499.2,177.06666666666666
552,25.6,-494.93333333333334,174.93333333333334
553,34.13333333333333,-501.3333333333333,174.93333333333334
554,32.0,-501.3333333333333,181.33333333333334
555,36.266666666666666,-505.59999999999997,177.06666666666666
556,40.53333333333333,-509.8666666666667,170.66666666666666
557,40.53333333333333,-499.2,181.33333333333334
558,46.93333333333333,-499.2,181.33333333333334
559,49.06666666666666,-499.2,177.06666666666666
560,29.866666666666667,-488.5333333333333,168.53333333333333
561,49.06666666666666,-484.26666666666665,181.33333333333334
562,59.733333333333334,-486.4,179.2
563,57.6,-486.4,187.73333333333332
564,57.6,-486.4,181.33333333333334
565,53.333333333333336,-484.26666666666665,185.6
566,53.333333333333336,-484.26666666666665,181.33333333333334
567,66.13333333333333,-490.6666666666667,183.46666666666667
568,55.46666666666667,-484.26666666666665,181.33333333333334
569,53.333333333333336,-486.4,183.46666666666667
570,51.2,-494.93333333333334,177.06666666666666
571,53.333333333333336,-480.0,181.33333333333334
572,49.06666666666666,-484.26666666666665,170.66666666666666
573,57.6,-492.8,172.8
574,51.2,-486.4,160.0
575,68.26666666666667,-490.6666666666667,160.0
576,70.4,-501.3333333333333,149.33333333333334
577,66.13333333333333,-509.8666666666667,140.8
578,59.733333333333334,-501.3333333333333,136.53333333333333
579,51.2,-505.59999999999997,134.4
580,57.6,-509.8666666666667,130.13333333333333
581,55.46666666666667,-520.5333333333333,123.73333333333333
582,49.06666666666666,-526.9333333333333,108.8
583,49.06666666666666,-529.0666666666666,110.93333333333334
584,49.06666666666666,-537.6,113.06666666666666
585,57.6,-541.8666666666667,106.66666666666667
586,36.266666666666666,-541.8666666666667,108.8
587,36.266666666666666,-537.6,115.2
588,25.6,-541.8666666666667,113.06666666666666
589,25.6,-533.3333333333334,117.33333333333333
590,23.466666666666665,-533.3333333333334,121.6
591,23.466666666666665,-526.9333333333333,130.13333333333333
592,17.066666666666666,-522.6666666666666,134.4
593,12.8,-516.2666666666667,125.86666666666666
594,17.066666666666666,-520.5333333333333,125.86666666666666
595,12.8,-505.59999999999997,130.13333333333333
596,12.8,-512.0,134.4
597,12.8,-512.0,134.4
598,4.266666666666667,-509.8666666666667,138.66666666666666
599,6.4,-518.4,128.0
600,6.4,-520.5333333333333,134.4
601,8.533333333333333,-520.5333333333333,136.53333333333333
602,10.666666666666666,-509.8666666666667,125.86666666666666
603,12.8,-529.0666666666666,134.4
604,8.533333333333333,-524.8,130.13333333333333
605,14.933333333333334,-518.4,115.2
606,14.933333333333334,-524.8,125.86666666666666
607,10.666666666666666,-522.6666666666666,110.93333333333334
608,8.533333333333333,-514.1333333333333,121.6
609,8.533333333333333,-512.0,121.6
610,12.8,-512.0,121.6
611,14.933333333333334,-497.06666666666666,128.0
612,10.666666666666666,-501.3333333333333,128.0
613,17.066666666666666,-492.8,136.53333333333333
614,6.4,-494.93333333333334,136.53333333333333
615,12.8,-484.26666666666665,136.53333333333333
616,19.2,-494.93333333333334,138.66666666666666
617,19.2,-486.4,134.4
618,19.2,-490.6666666666667,147.2
619,21.333333333333332,-488.5333333333333,138.66666666666666
620,21.333333333333332,-497.06666666666666,140.8
621,21.333333333333332,-503.46666666666664,142.93333333333334
622,12.8,-501.3333333333333,145.06666666666666
623,19.2,-507.73333333333335,149.33333333333334
624,21.333333333333332,-505.59999999999997,153.6
625,12.8,-520.5333333333333,153.6
626,21.333333333333332,-516.2666666666667,157.86666666666667
627,19.2,-526.9333333333333,155.73333333333332
628,17.066666666666666,-529.0666666666666,155.73333333333332
629,19.2,-539.7333333333333,153.6
630,10.666666666666666,-541.8666666666667,157.86666666666667
631,19.2,-544.0,160.0
632,19.2,-539.7333333333333,136.53333333333333
633,27.733333333333334,-539.7333333333333,142.93333333333334
634,21.333333333333332,-531.2,117.33333333333333
635,34.13333333333333,-526.9333333333333,128.0
636,32.0,-512.0,93.86666666666666
637,53.333333333333336,-505.59999999999997,68.26666666666667
638,66.13333333333333,-505.59999999999997,44.8
639,81.06666666666666,-512.0,10.666666666666666
640,106.66666666666667,-518.4,-10.666666666666666
641,128.0,-546.1333333333333,-36.266666666666666
642,142.93333333333334,-552.5333333333333,-40.53333333333333
643,166.4,-578.1333333333333,-19.2
644,160.0,-593.0666666666666,-27.733333333333334
645,164.26666666666665,-603.7333333333333,10.666666666666666
646,189.86666666666667,-595.2,21.333333333333332
647,198.4,-573.8666666666667,32.0
648,196.26666666666665,-548.2666666666667,53.333333333333336
649,206.93333333333334,-529.0666666666666,51.2
650,202.66666666666666,-509.8666666666667,44.8
651,217.6,-492.8,44.8
652,217.6,-490.6666666666667,44.8
653,230.4,-486.4,21.333333333333332
654,217.6,-473.59999999999997,21.333333333333332
655,224.0,-475.73333333333335,19.2
656,209.06666666666666,-467.2,32.0
657,213.33333333333334,-460.8,29.866666666666667
658,206.93333333333334,-467.2,40.53333333333333
659,183.46666666666667,-467.2,34.13333333333333
660,187.73333333333332,-460.8,32.0
661,189.86666666666667,-456.5333333333333,49.06666666666666
662,194.13333333333333,-450.1333333333333,51.2
663,196.26666666666665,-454.4,66.13333333333333
664,206.93333333333334,-460.8,74.66666666666667
665,206.93333333333334,-460.8,87.46666666666667
666,206.93333333333334,-454.4,104.53333333333333
667,238.93333333333334,-467.2,102.4
668,251.73333333333332,-462.93333333333334,104.53333333333333
669,260.26666666666665,-452.26666666666665,110.93333333333334
670,264.5333333333333,-456.5333333333333,106.66666666666667
671,270.93333333333334,-448.0,98.13333333333333
672,277.3333333333333,-450.1333333333333,98.13333333333333
673,288.0,-443.73333333333335,96.0
674,292.26666666666665,-437.3333333333333,96.0
675,298.6666666666667,-448.0,87.46666666666667
676,288.0,-448.0,85.33333333333333
677,302.93333333333334,-439.46666666666664,78.93333333333334
678,305.06666666666666,-448.0,74.66666666666667
679,296.5333333333333,-456.5333333333333,70.4
680,305.06666666666666,-460.8,81.06666666666666
681,305.06666666666666,-458.6666666666667,78.93333333333334
682,315.73333333333335,-460.8,81.06666666666666
683,305.06666666666666,-454.4,85.33333333333333
684,309.3333333333333,-445.8666666666667,85.33333333333333
685,320.0,-448.0,81.06666666666666
686,315.73333333333335,-443.73333333333335,83.2
687,307.2,-445.8666666666667,74.66666666666667
688,309.3333333333333,-439.46666666666664,76.8
689,313.6,-441.59999999999997,66.13333333333333
690,302.93333333333334,-456.5333333333333,61.86666666666667
691,292.26666666666665,-456.5333333333333,53.333333333333336
692,275.2,-456.5333333333333,40.53333333333333
693,273.06666666666666,-460.8,51.2
694,296.5333333333333,-467.2,38.4
695,283.73333333333335,-469.3333333333333,49.06666666666666
696,281.6,-467.2,44.8
697,275.2,-460.8,53.333333333333336
698,288.0,-452.26666666666665,51.2
699,290.1333333333333,-443.73333333333335,53.333333333333336
700,296.5333333333333,-448.0,57.6
701,302.93333333333334,-445.8666666666667,64.0
702,294.4,-435.2,57.6
703,300.8,-437.3333333333333,64.0
704,294.4,-424.5333333333333,55.46666666666667
705,302.93333333333334,-426.6666666666667,55.46666666666667
706,294.4,-418.1333333333333,44.8
707,309.3333333333333,-424.5333333333333,61.86666666666667
708,302.93333333333334,-422.4,46.93333333333333
709,313.6,-428.8,53.333333333333336
710,322.1333333333333,-426.6666666666667,46.93333333333333
711,309.3333333333333,-430.93333333333334,44.8
712,332.8,-422.4,40.53333333333333
713,317.8666666666667,-441.59999999999997,46.93333333333333
714,328.5333333333333,-426.6666666666667,44.8
715,320.0,-418.1333333333333,51.2
716,324.26666666666665,-411.73333333333335,53.333333333333336
717,330.6666666666667,-409.6,57.6
718,341.3333333333333,-411.73333333333335,64.0
719,343.46666666666664,-407.46666666666664,59.733333333333334
720,337.06666666666666,-405.3333333333333,57.6
721,349.8666666666667,-411.73333333333335,64.0
722,345.6,-409.6,91.73333333333333
723,334.93333333333334,-418.1333333333333,72.53333333333333
724,330.6666666666667,-409.6,61.86666666666667
725,339.2,-407.46666666666664,70.4
726,332.8,-409.6,59.733333333333334
727,330.6666666666667,-411.73333333333335,59.733333333333334
728,328.5333333333333,-416.0,46.93333333333333
729,315.73333333333335,-409.6,51.2
730,322.1333333333333,-418.1333333333333,46.93333333333333
731,317.8666666666667,-416.0,49.06666666666666
732,332.8,-409.6,51.2
733,328.5333333333333,-396.8,61.86666666666667
734,322.1333333333333,-388.26666666666665,53.333333333333336
735,334.93333333333334,-364.8,64.0
736,354.1333333333333,-360.5333333333333,76.8
737,362.6666666666667,-349.8666666666667,89.6
738,373.3333333333333,-345.6,98.13333333333333
739,396.8,-343.46666666666664,93.86666666666666
740,409.6,-354.1333333333333,83.2
741,405.3333333333333,-352.0,68.26666666666667
742,409.6,-362.6666666666667,49.06666666666666
743,405.3333333333333,-364.8,38.4
744,403.2,-366.93333333333334,23.466666666666665
745,411.73333333333335,-364.8,17.066666666666666
746,416.0,-366.93333333333334,21.333333333333332
747,420.26666666666665,-362.6666666666667,23.466666666666665
748,422.4,-366.93333333333334,25.6
749,433.06666666666666,-366.93333333333334,42.666666666666664
750,439.46666666666664,-373.3333333333333,55.46666666666667
751,430.93333333333334,-364.8,72.53333333333333
752,450.1333333333333,-381.8666666666667,57.6
753,448.0,-388.26666666666665,74.66666666666667
754,450.1333333333333,-381.8666666666667,59.733333333333334
755,460.8,-390.4,57.6
756,448.0,-384.0,55.46666666666667
757,439.46666666666664,-381.8666666666667,61.86666666666667
758,428.8,-360.5333333333333,46.93333333333333
759,424.5333333333333,-354.1333333333333,70.4
760,413.8666666666667,-330.6666666666667,66.13333333333333
761,407.46666666666664,-324.26666666666665,76.8
762,401.06666666666666,-320.0,72.53333333333333
763,398.93333333333334,-313.6,66.13333333333333
764,396.8,-311.46666666666664,61.86666666666667
765,392.5333333333333,-313.6,51.2
766,377.6,-317.8666666666667,55.46666666666667
767,398.93333333333334,-307.2,49.06666666666666
768,394.6666666666667,-309.3333333333333,57.6
769,394.6666666666667,-298.6666666666667,59.733333333333334
770,403.2,-302.93333333333334,76.8
771,409.6,-296.5333333333333,78.93333333333334
772,409.6,-296.5333333333333,83.2
773,409.6,-290.1333333333333,85.33333333333333
774,416.0,-283.73333333333335,74.66666666666667
775,422.4,-283.73333333333335,76.8
776,430.93333333333334,-268.8,81.06666666666666
777,435.2,-258.1333333333333,74.66666666666667
778,435.2,-268.8,78.93333333333334
779,441.59999999999997,-264.5333333333333,85.33333333333333
780,441.59999999999997,-258.1333333333333,85.33333333333333
781,450.1333333333333,-260.26666666666665,78.93333333333334
782,452.26666666666665,-256.0,78.93333333333334
783,460.8,-256.0,66.13333333333333
784,473.59999999999997,-258.1333333333333,57.6
785,482.1333333333333,-262.4,51.2
786,486.4,-264.5333333333333,49.06666666666666
787,467.2,-264.5333333333333,44.8
788,486.4,-249.6,57.6
789,486.4,-251.73333333333332,70.4
790,490.6666666666667,-245.33333333333334,74.66666666666667
791,492.8,-238.93333333333334,83.2
792,497.06666666666666,-228.26666666666665,89.6
793,505.59999999999997,-213.33333333333334,96.0
794,509.8666666666667,-194.13333333333333,110.93333333333334
795,514.1333333333333,-183.46666666666667,115.2
796,516.2666666666667,-174.93333333333334,106.66666666666667
797,539.7333333333333,-168.53333333333333,104.53333333333333
798,554.6666666666666,-149.33333333333334,128.0
799,565.3333333333334,-136.53333333333333,113.06666666666666
800,569.6,-130.13333333333333,125.86666666666666
801,576.0,-119.46666666666667,123.73333333333333
802,567.4666666666667,-104.53333333333333,115.2
803,561.0666666666666,-106.66666666666667,102.4
804,556.8,-104.53333333333333,93.86666666666666
805,550.4,-93.86666666666666,74.66666666666667
806,548.2666666666667,-100.26666666666667,81.06666666666666
807,541.8666666666667,-91.73333333333333,57.6
808,550.4,-100.26666666666667,55.46666666666667
809,550.4,-104.53333333333333,36.266666666666666
810,569.6,-102.4,38.4
811,571.7333333333333,-98.13333333333333,34.13333333333333
812,588.8,-98.13333333333333,34.13333333333333
813,605.8666666666667,-91.73333333333333,40.53333333333333
814,622.9333333333333,-87.46666666666667,40.53333333333333
815,620.8,-74.66666666666667,55.46666666666667
816,625.0666666666666,-53.333333333333336,51.2
817,640.0,-32.0,72.53333333333333
818,627.2,-17.066666666666666,85.33333333333333
819,618.6666666666666,6.4,87.46666666666667
820,618.6666666666666,17.066666666666666,91.73333333333333
821,599.4666666666667,27.733333333333334,89.6
822,599.4666666666667,46.93333333333333,89.6
823,601.6,55.46666666666667,74.66666666666667
824,595.2,59.733333333333334,74.66666666666667
825,595.2,64.0,74.66666666666667
826,586.6666666666666,64.0,66.13333333333333
827,573.8666666666667,64.0,68.26666666666667
828,556.8,61.86666666666667,59.733333333333334
829,554.6666666666666,46.93333333333333,66.13333333333333
830,554.6666666666666,38.4,70.4
831,556.8,49.06666666666666,76.8
832,556.8,49.06666666666666,87.46666666666667
833,552.5333333333333,61.86666666666667,96.0
834,552.5333333333333,61.86666666666667,98.13333333333333
835,541.8666666666667,78.93333333333334,115.2
836,535.4666666666667,89.6,125.86666666666666
837,537.6,96.0,138.66666666666666
838,539.7333333333333,100.26666666666667,138.66666666666666
839,544.0,113.06666666666666,160.0
840,548.2666666666667,117.33333333333333,153.6
841,552.5333333333333,128.0,149.33333333333334
842,556.8,142.93333333333334,177.06666666666666
843,565.3333333333334,149.33333333333334,170.66666666666666
844,561.0666666666666,157.86666666666667,174.93333333333334
845,556.8,166.4,166.4
846,571.7333333333333,160.0,149.33333333333334
847,573.8666666666667,160.0,132.26666666666665
848,573.8666666666667,140.8,119.46666666666667
849,563.2,136.53333333333333,96.0
850,571.7333333333333,100.26666666666667,78.93333333333334
851,567.4666666666667,72.53333333333333,66.13333333333333
852,565.3333333333334,25.6,61.86666666666667
853,552.5333333333333,10.666666666666666,57.6
854,550.4,-21.333333333333332,55.46666666666667
855,548.2666666666667,-51.2,51.2
856,552.5333333333333,-91.73333333333333,68.26666666666667
857,537.6,-113.06666666666666,68.26666666666667
858,535.4666666666667,-134.4,68.26666666666667
859,533.3333333333334,-142.93333333333334,72.53333333333333
860,535.4666666666667,-155.73333333333332,93.86666666666666
861,518.4,-170.66666666666666,104.53333333333333
862,524.8,-170.66666666666666,108.8
863,522.6666666666666,-181.33333333333334,108.8
864,520.5333333333333,-196.26666666666665,123.73333333333333
865,512.0,-196.26666666666665,134.4
866,512.0,-206.93333333333334,138.66666666666666
867,514.1333333333333,-189.86666666666667,166.4
868,516.2666666666667,-185.6,153.6
869,531.2,-164.26666666666665,168.53333333333333
870,546.1333333333333,-145.06666666666666,168.53333333333333
871,552.5333333333333,-134.4,168.53333333333333
872,565.3333333333334,-100.26666666666667,166.4
873,554.6666666666666,-93.86666666666666,153.6
874,561.0666666666666,-55.46666666666667,155.73333333333332
875,554.6666666666666,-12.8,136.53333333333333
876,544.0,12.8,132.26666666666665
877,535.4666666666667,21.333333333333332,130.13333333333333
878,524.8,34.13333333333333,117.33333333333333
879,512.0,53.333333333333336,115.2
880,507.73333333333335,59.733333333333334,128.0
881,509.8666666666667,53.333333333333336,132.26666666666665
882,503.46666666666664,46.93333333333333,132.26666666666665
883,509.8666666666667,34.13333333333333,147.2
884,514.1333333333333,12.8,140.8
885,505.59999999999997,-6.4,160.0
886,518.4,-25.6,155.73333333333332
887,501.3333333333333,-42.666666666666664,157.86666666666667
888,516.2666666666667,-44.8,149.33333333333334
889,512.0,-61.86666666666667,151.46666666666667
890,514.1333333333333,-59.733333333333334,147.2
891,509.8666666666667,-64.0,149.33333333333334
892,507.73333333333335,-70.4,164.26666666666665
893,503.46666666666664,-68.26666666666667,162.13333333333333
894,505.59999999999997,-68.26666666666667,153.6
895,505.59999999999997,-70.4,166.4
896,507.73333333333335,-87.46666666666667,166.4
897,505.59999999999997,-89.6,164.26666666666665
898,522.6666666666666,-85.33333333333333,168.53333333333333
899,514.1333333333333,-100.26666666666667,162.13333333333333
900,516.2666666666667,-104.53333333333333,160.0
901,518.4,-110.93333333333334,166.4
902,529.0666666666666,-123.73333333333333,151.46666666666667
903,526.9333333333333,-115.2,160.0
904,533.3333333333334,-119.46666666666667,160.0
905,529.0666666666666,-121.6,151.46666666666667
906,535.4666666666667,-104.53333333333333,147.2
907,535.4666666666667,-106.66666666666667,151.46666666666667
908,533.3333333333334,-102.4,151.46666666666667
909,539.7333333333333,-96.0,164.26666666666665
910,526.9333333333333,-96.0,164.26666666666665
911,531.2,-98.13333333333333,162.13333333333333
912,526.9333333333333,-85.33333333333333,162.13333333333333
913,531.2,-87.46666666666667,166.4
914,526.9333333333333,-87.46666666666667,170.66666666666666
915,526.9333333333333,-83.2,170.66666666666666
916,520.5333333333333,-89.6,153.6
917,512.0,-93.86666666666666,151.46666666666667
918,501.3333333333333,-98.13333333333333,151.46666666666667
919,497.06666666666666,-91.73333333333333,149.33333333333334
920,490.6666666666667,-113.06666666666666,149.33333333333334
921,492.8,-108.8,140.8
922,490.6666666666667,-108.8,142.93333333333334
923,492.8,-115.2,140.8
924,486.4,-106.66666666666667,138.66666666666666
925,497.06666666666666,-123.73333333333333,130.13333333333333
926,499.2,-117.33333333333333,132.26666666666665
927,507.73333333333335,-130.13333333333333,123.73333333333333
928,499.2,-132.26666666666665,113.06666666666666
929,507.73333333333335,-121.6,132.26666666666665
930,509.8666666666667,-128.0,123.73333333333333
931,507.73333333333335,-128.0,134.4
932,509.8666666666667,-123.73333333333333,128.0
933,503.46666666666664,-123.73333333333333,132.26666666666665
934,505.59999999999997,-130.13333333333333,132.26666666666665
935,499.2,-125.86666666666666,130.13333333333333
936,492.8,-128.0,136.53333333333333
937,492.8,-134.4,142.93333333333334
938,492.8,-130.13333333333333,160.0
939,486.4,-128.0,151.46666666666667
940,488.5333333333333,-132.26666666666665,151.46666666666667
941,482.1333333333333,-125.86666666666666,168.53333333333333
942,488.5333333333333,-119.46666666666667,162.13333333333333
943,488.5333333333333,-123.73333333333333,174.93333333333334
944,497.06666666666666,-119.46666666666667,172.8
945,501.3333333333333,-115.2,181.33333333333334
946,507.73333333333335,-119.46666666666667,189.86666666666667
947,501.3333333333333,-108.8,174.93333333333334
948,522.6666666666666,-117.33333333333333,174.93333333333334
949,518.4,-106.66666666666667,170.66666666666666
950,539.7333333333333,-93.86666666666666,155.73333333333332
951,533.3333333333334,-100.26666666666667,157.86666666666667
952,539.7333333333333,-102.4,160.0
953,546.1333333333333,-104.53333333333333,149.33333333333334
954,550.4,-98.13333333333333,142.93333333333334
955,537.6,-93.86666666666666,140.8
956,537.6,-96.0,136.53333333333333
957,529.0666666666666,-102.4,134.4
958,526.9333333333333,-98.13333333333333,132.26666666666665
959,518.4,-100.26666666666667,149.33333333333334
960,520.5333333333333,-102.4,151.46666666666667
961,518.4,-106.66666666666667,162.13333333333333
962,518.4,-113.06666666666666,166.4
963,522.6666666666666,-117.33333333333333,181.33333333333334
964,531.2,-125.86666666666666,185.6
965,535.4666666666667,-128.0,181.33333333333334
966,541.8666666666667,-132.26666666666665,187.73333333333332
967,539.7333333333333,-132.26666666666665,187.73333333333332
968,539.7333333333333,-128.0,187.73333333333332
969,541.8666666666667,-125.86666666666666,196.26666666666665
970,535.4666666666667,-121.6,181.33333333333334
971,539.7333333333333,-117.33333333333333,177.06666666666666
972,524.8,-106.66666666666667,172.8
973,524.8,-100.26666666666667,174.93333333333334
974,524.8,-96.0,170.66666666666666
975,518.4,-93.86666666666666,166.4
976,518.4,-93.86666666666666,157.86666666666667
977,512.0,-91.73333333333333,157.86666666666667
978,516.2666666666667,-96.0,155.73333333333332
979,509.8666666666667,-100.26666666666667,162.13333333333333
980,509.8666666666667,-100.26666666666667,168.53333333333333
981,503.46666666666664,-102.4,164.26666666666665
982,512.0,-106.66666666666667,170.66666666666666
983,512.0,-113.06666666666666,181.33333333333334
984,509.8666666666667,-104.53333333333333,177.06666666666666
985,507.73333333333335,-110.93333333333334,177.06666666666666
986,505.59999999999997,-104.53333333333333,183.46666666666667
987,507.73333333333335,-100.26666666666667,189.86666666666667
988,509.8666666666667,-102.4,183.46666666666667
989,505.59999999999997,-102.4,187.73333333333332
990,514.1333333333333,-96.0,183.46666666666667
991,514.1333333333333,-100.26666666666667,183.46666666666667
992,512.0,-87.46666666666667,177.06666666666666
993,512.0,-93.86666666666666,174.93333333333334
994,507.73333333333335,-89.6,170.66666666666666
995,505.59999999999997,-91.73333333333333,172.8
996,509.8666666666667,-85.33333333333333,170.66666666666666
997,514.1333333333333,-93.86666666666666,181.33333333333334
998,507.73333333333335,-89.6,179.2
999,512.0,-96.0,174.93333333333334
1000,512.0,-100.26666666666667,177.06666666666666
1001,509.8666666666667,-104.53333333333333,172.8
1002,509.8666666666667,-98.13333333333333,183.46666666666667
1003,503.46666666666664,-96.0,174.93333333333334
1004,512.0,-96.0,187.73333333333332
1005,512.0,-98.13333333333333,181.33333333333334
1006,512.0,-91.73333333333333,196.26666666666665
1007,509.8666666666667,-91.73333333333333,194.13333333333333
1008,509.8666666666667,-91.73333333333333,189.86666666666667
1009,512.0,-91.73333333333333,187.73333333333332
1010,509.8666666666667,-93.86666666666666,187.73333333333332
1011,512.0,-93.86666666666666,194.13333333333333
1012,512.0,-89.6,185.6
1013,514.1333333333333,-100.26666666666667,194.13333333333333
1014,516.2666666666667,-91.73333333333333,181.33333333333334
1015,516.2666666666667,-96.0,168.53333333333333
1016,512.0,-89.6,183.46666666666667
1017,507.73333333333335,-89.6,179.2
1018,514.1333333333333,-87.46666666666667,174.93333333333334
1019,516.2666666666667,-87.46666666666667,172.8
1020,518.4,-98.13333333333333,170.66666666666666
1021,518.4,-91.73333333333333,174.93333333333334
1022,516.2666666666667,-98.13333333333333,166.4
1023,516.2666666666667,-96.0,164.26666666666665
1024,516.2666666666667,-100.26666666666667,172.8
1025,522.6666666666666,-93.86666666666666,183.46666666666667
1026,516.2666666666667,-93.86666666666666,168.53333333333333
1027,516.2666666666667,-91.73333333333333,177.06666666666666
1028,526.9333333333333,-113.06666666666666,185.6
1029,516.2666666666667,-98.13333333333333,183.46666666666667
1030,514.1333333333333,-98.13333333333333,189.86666666666667
1031,522.6666666666666,-100.26666666666667,189.86666666666667
1032,522.6666666666666,-98.13333333333333,196.26666666666665
1033,522.6666666666666,-100.26666666666667,181.33333333333334
1034,520.5333333333333,-104.53333333333333,185.6
1035,526.9333333333333,-100.26666666666667,174.93333333333334
1036,522.6666666666666,-102.4,174.93333333333334
1037,516.2666666666667,-96.0,189.86666666666667
1038,520.5333333333333,-96.0,174.93333333333334
1039,514.1333333333333,-93.86666666666666,179.2
1040,507.73333333333335,-89.6,168.53333333333333
1041,514.1333333333333,-87.46666666666667,174.93333333333334
1042,501.3333333333333,-83.2,168.53333333333333
1043,499.2,-76.8,170.66666666666666
1044,505.59999999999997,-83.2,174.93333333333334
1045,509.8666666666667,-72.53333333333333,177.06666666666666
1046,512.0,-74.66666666666667,174.93333333333334
1047,518.4,-68.26666666666667,170.66666666666666
1048,512.0,-64.0,168.53333333333333
1049,522.6666666666666,-70.4,179.2
1050,520.5333333333333,-70.4,179.2
1051,514.1333333333333,-72.53333333333333,174.93333333333334
1052,518.4,-72.53333333333333,183.46666666666667
1053,516.2666666666667,-93.86666666666666,174.93333333333334
1054,512.0,-96.0,179.2
1055,514.1333333333333,-102.4,194.13333333333333
1056,514.1333333333333,-108.8,189.86666666666667
1057,514.1333333333333,-108.8,187.73333333333332
1058,507.73333333333335,-106.66666666666667,196.26666666666665
1059,497.06666666666666,-119.46666666666667,202.66666666666666
1060,503.46666666666664,-100.26666666666667,185.6
1061,503.46666666666664,-108.8,196.26666666666665
1062,509.8666666666667,-106.66666666666667,192.0
1063,505.59999999999997,-108.8,192.0
1064,499.2,-96.0,200.53333333333333
1065,509.8666666666667,-104.53333333333333,194.13333333333333
1066,505.59999999999997,-102.4,187.73333333333332
1067,509.8666666666667,-104.53333333333333,198.4
1068,509.8666666666667,-102.4,200.53333333333333
1069,497.06666666666666,-93.86666666666666,183.46666666666667
1070,522.6666666666666,-100.26666666666667,224.0
1071,503.46666666666664,-96.0,187.73333333333332
1072,507.73333333333335,-106.66666666666667,174.93333333333334
1073,509.8666666666667,-104.53333333333333,179.2
1074,509.8666666666667,-113.06666666666666,172.8
1075,505.59999999999997,-106.66666666666667,174.93333333333334
1076,509.8666666666667,-108.8,177.06666666666666
1077,512.0,-113.06666666666666,185.6
1078,516.2666666666667,-104.53333333333333,181.33333333333334
1079,509.8666666666667,-104.53333333333333,181.33333333333334
1080,518.4,-106.66666666666667,185.6
1081,509.8666666666667,-100.26666666666667,187.73333333333332
1082,514.1333333333333,-106.66666666666667,174.93333333333334
1083,518.4,-110.93333333333334,179.2
1084,520.5333333333333,-110.93333333333334,181.33333333333334
1085,518.4,-102.4,181.33333333333334
1086,518.4,-110.93333333333334,183.46666666666667
1087,516.2666666666667,-106.66666666666667,181.33333333333334
1088,526.9333333333333,-115.2,181.33333333333334
1089,518.4,-106.66666666666667,192.0
1090,514.1333333333333,-104.53333333333333,177.06666666666666
1091,509.8666666666667,-113.06666666666666,183.46666666666667
1092,520.5333333333333,-121.6,177.06666666666666
1093,516.2666666666667,-110.93333333333334,172.8
1094,518.4,-117.33333333333333,174.93333333333334
1095,520.5333333333333,-110.93333333333334,172.8
1096,518.4,-96.0,168.53333333333333
1097,516.2666666666667,-100.26666666666667,174.93333333333334
1098,516.2666666666667,-108.8,168.53333333333333
1099,526.9333333333333,-110.93333333333334,166.4
1100,512.0,-98.13333333333333,160.0
1101,512.0,-98.13333333333333,170.66666666666666
1102,507.73333333333335,-83.2,160.0
1103,518.4,-93.86666666666666,166.4
1104,518.4,-87.46666666666667,160.0
1105,509.8666666666667,-87.46666666666667,168.53333333333333
1106,518.4,-89.6,170.66666666666666
1107,520.5333333333333,-91.73333333333333,166.4
1108,518.4,-87.46666666666667,164.26666666666665
1109,512.0,-85.33333333333333,166.4
1110,516.2666666666667,-83.2,155.73333333333332
1111,509.8666666666667,-53.333333333333336,83.2
1112,379.73333333333335,64.0,-49.06666666666666
1113,437.3333333333333,115.2,-76.8
1114,580.2666666666667,57.6,-72.53333333333333
1115,631.4666666666667,-36.266666666666666,38.4
1116,556.8,-113.06666666666666,153.6
1117,533.3333333333334,-168.53333333333333,211.2
1118,524.8,-206.93333333333334,266.6666666666667
1119,524.8,-236.79999999999998,309.3333333333333
1120,512.0,-224.0,315.73333333333335
1121,505.59999999999997,-206.93333333333334,330.6666666666667
1122,507.73333333333335,-189.86666666666667,326.4
1123,501.3333333333333,-168.53333333333333,305.06666666666666
1124,492.8,-140.8,309.3333333333333
1125,490.6666666666667,-134.4,296.5333333333333
1126,490.6666666666667,-128.0,285.8666666666667
1127,497.06666666666666,-130.13333333333333,277.3333333333333
1128,505.59999999999997,-132.26666666666665,268.8
1129,516.2666666666667,-132.26666666666665,247.46666666666667
1130,509.8666666666667,-130.13333333333333,236.79999999999998
1131,512.0,-130.13333333333333,219.73333333333332
1132,520.5333333333333,-125.86666666666666,209.06666666666666
1133,514.1333333333333,-110.93333333333334,185.6
1134,524.8,-108.8,179.2
1135,518.4,-87.46666666666667,147.2
1136,524.8,-85.33333333333333,142.93333333333334
1137,524.8,-59.733333333333334,132.26666666666665
1138,516.2666666666667,-46.93333333333333,106.66666666666667
1139,499.2,10.666666666666666,91.73333333333333
1140,531.2,-2.1333333333333333,100.26666666666667
1141,531.2,-19.2,91.73333333333333
1142,516.2666666666667,-44.8,117.33333333333333
1143,526.9333333333333,-59.733333333333334,136.53333333333333
1144,518.4,-85.33333333333333,153.6
1145,531.2,-102.4,172.8
1146,531.2,-121.6,164.26666666666665
1147,531.2,-117.33333333333333,183.46666666666667
1148,522.6666666666666,-128.0,194.13333333333333
1149,526.9333333333333,-130.13333333333333,194.13333333333333
1150,522.6666666666666,-134.4,196.26666666666665
1151,526.9333333333333,-130.13333333333333,196.26666666666665
1152,526.9333333333333,-130.13333333333333,187.73333333333332
1153,507.73333333333335,-121.6,194.13333333333333
1154,518.4,-123.73333333333333,185.6
1155,520.5333333333333,-117.33333333333333,181.33333333333334
1156,516.2666666666667,-121.6,189.86666666666667
1157,518.4,-121.6,181.33333333333334
1158,512.0,-108.8,187.73333333333332
1159,509.8666666666667,-106.66666666666667,192.0
1160,503.46666666666664,-98.13333333333333,194.13333333333333
1161,505.59999999999997,-98.13333333333333,202.66666666666666
1162,505.59999999999997,-102.4,194.13333333333333
1163,501.3333333333333,-104.53333333333333,194.13333333333333
1164,494.93333333333334,-98.13333333333333,198.4
1165,503.46666666666664,-113.06666666666666,202.66666666666666
1166,497.06666666666666,-106.66666666666667,185.6
1167,505.59999999999997,-110.93333333333334,196.26666666666665
1168,522.6666666666666,-113.06666666666666,204.8
1169,505.59999999999997,-106.66666666666667,192.0
1170,507.73333333333335,-110.93333333333334,181.33333333333334
1171,505.59999999999997,-113.06666666666666,174.93333333333334
1172,505.59999999999997,-108.8,179.2
1173,518.4,-110.93333333333334,183.46666666666667
1174,514.1333333333333,-115.2,177.06666666666666
1175,512.0,-121.6,179.2
1176,516.2666666666667,-119.46666666666667,177.06666666666666
1177,512.0,-119.46666666666667,183.46666666666667
1178,505.59999999999997,-117.33333333333333,177.06666666666666
1179,514.1333333333333,-123.73333333333333,166.4
1180,514.1333333333333,-121.6,181.33333333333334
1181,518.4,-119.46666666666667,192.0
1182,507.73333333333335,-106.66666666666667,189.86666666666667
1183,503.46666666666664,-104.53333333333333,187.73333333333332
1184,507.73333333333335,-89.6,192.0
1185,507.73333333333335,-91.73333333333333,185.6
1186,503.46666666666664,-81.06666666666666,185.6
1187,514.1333333333333,-85.33333333333333,181.33333333333334
1188,505.59999999999997,-85.33333333333333,181.33333333333334
1189,505.59999999999997,-93.86666666666666,192.0
1190,507.73333333333335,-91.73333333333333,185.6
1191,509.8666666666667,-98.13333333333333,202.66666666666666
1192,507.73333333333335,-98.13333333333333,202.66666666666666
1193,507.73333333333335,-104.53333333333333,206.93333333333334
1194,507.73333333333335,-102.4,206.93333333333334
1195,503.46666666666664,-106.66666666666667,211.2
1196,501.3333333333333,-102.4,204.8
1197,501.3333333333333,-102.4,211.2
1198,505.59999999999997,-98.13333333333333,198.4
1199,501.3333333333333,-89.6,183.46666666666667
1200,497.06666666666666,-98.13333333333333,198.4
1201,505.59999999999997,-93.86666666666666,185.6
1202,509.8666666666667,-89.6,177.06666666666666
1203,507.73333333333335,-81.06666666666666,170.66666666666666
1204,505.59999999999997,-78.93333333333334,185.6
1205,501.3333333333333,-76.8,162.13333333333333
1206,507.73333333333335,-81.06666666666666,166.4
1207,516.2666666666667,-83.2,153.6
1208,520.5333333333333,-93.86666666666666,162.13333333333333
1209,518.4,-93.86666666666666,170.66666666666666
1210,512.0,-106.66666666666667,164.26666666666665
1211,516.2666666666667,-100.26666666666667,160.0
1212,518.4,-106.66666666666667,174.93333333333334
1213,512.0,-108.8,174.93333333333334
1214,520.5333333333333,-110.93333333333334,177.06666666666666
1215,520.5333333333333,-110.93333333333334,172.8
1216,522.6666666666666,-119.46666666666667,166.4
1217,518.4,-108.8,168.53333333333333
1218,520.5333333333333,-108.8,160.0
1219,526.9333333333333,-106.66666666666667,160.0
1220,526.9333333333333,-100.26666666666667,160.0
1221,524.8,-100.26666666666667,166.4
1222,529.0666666666666,-115.2,153.6
1223,524.8,-100.26666666666667,160.0
1224,526.9333333333333,-110.93333333333334,157.86666666666667
1225,526.9333333333333,-108.8,155.73333333333332
1226,526.9333333333333,-104.53333333333333,153.6
1227,520.5333333333333,-102.4,164.26666666666665
1228,522.6666666666666,-100.26666666666667,153.6
1229,512.0,-102.4,166.4
1230,512.0,-108.8,164.26666666666665
1231,512.0,-106.66666666666667,168.53333333333333
1232,518.4,-106.66666666666667,160.0
1233,516.2666666666667,-115.2,170.66666666666666
1234,522.6666666666666,-115.2,155.73333333333332
1235,522.6666666666666,-115.2,164.26666666666665
1236,518.4,-104.53333333333333,170.66666666666666
1237,512.0,-100.26666666666667,164.26666666666665
1238,512.0,-106.66666666666667,160.0
1239,518.4,-108.8,162.13333333333333
1240,516.2666666666667,-123.73333333333333,162.13333333333333
1241,520.5333333333333,-104.53333333333333,166.4
1242,518.4,-104.53333333333333,172.8
1243,522.6666666666666,-102.4,168.53333333333333
1244,522.6666666666666,-98.13333333333333,172.8
1245,522.6666666666666,-96.0,157.86666666666667
1246,529.0666666666666,-100.26666666666667,166.4
1247,518.4,-98.13333333333333,164.26666666666665
1248,518.4,-100.26666666666667,164.26666666666665
1249,522.6666666666666,-106.66666666666667,157.86666666666667
1250,526.9333333333333,-102.4,157.86666666666667
1251,514.1333333333333,-93.86666666666666,160.0
1252,524.8,-104.53333333333333,162.13333333333333
1253,524.8,-108.8,147.2
1254,509.8666666666667,-100.26666666666667,162.13333333333333
1255,505.59999999999997,-106.66666666666667,153.6
1256,514.1333333333333,-104.53333333333333,157.86666666666667
1257,529.0666666666666,-117.33333333333333,149.33333333333334
1258,503.46666666666664,-106.66666666666667,155.73333333333332
1259,529.0666666666666,-106.66666666666667,155.73333333333332
1260,518.4,-104.53333333333333,147.2
1261,497.06666666666666,-113.06666666666666,168.53333333333333
1262,526.9333333333333,-117.33333333333333,142.93333333333334
1263,509.8666666666667,-108.8,153.6
1264,524.8,-110.93333333333334,147.2
1265,520.5333333333333,-110.93333333333334,153.6
1266,512.0,-110.93333333333334,166.4
1267,514.1333333333333,-113.06666666666666,157.86666666666667
1268,518.4,-106.66666666666667,151.46666666666667
1269,514.1333333333333,-104.53333333333333,147.2
1270,518.4,-108.8,149.33333333333334
1271,522.6666666666666,-104.53333333333333,157.86666666666667
1272,518.4,-106.66666666666667,151.46666666666667
1273,520.5333333333333,-110.93333333333334,166.4
1274,518.4,-108.8,166.4
1275,520.5333333333333,-115.2,151.46666666666667
1276,520.5333333333333,-119.46666666666667,164.26666666666665
1277,526.9333333333333,-121.6,157.86666666666667
1278,520.5333333333333,-104.53333333333333,149.33333333333334
1279,518.4,-110.93333333333334,151.46666666666667
1280,520.5333333333333,-102.4,145.06666666666666
1281,520.5333333333333,-104.53333333333333,145.06666666666666
1282,516.2666666666667,-98.13333333333333,162.13333333333333
1283,526.9333333333333,-104.53333333333333,151.46666666666667
1284,518.4,-104.53333333333333,151.46666666666667
1285,520.5333333333333,-108.8,145.06666666666666
1286,518.4,-108.8,145.06666666666666
1287,509.8666666666667,-102.4,153.6
1288,516.2666666666667,-98.13333333333333,147.2
1289,516.2666666666667,-106.66666666666667,151.46666666666667
1290,522.6666666666666,-106.66666666666667,166.4
1291,520.5333333333333,-108.8,151.46666666666667
1292,518.4,-108.8,155.73333333333332
1293,514.1333333333333,-104.53333333333333,153.6
1294,526.9333333333333,-108.8,164.26666666666665
1295,526.9333333333333,-104.53333333333333,157.86666666666667
1296,524.8,-108.8,166.4
1297,512.0,-113.06666666666666,168.53333333333333
1298,518.4,-115.2,160.0
1299,520.5333333333333,-110.93333333333334,164.26666666666665
1300,522.6666666666666,-110.93333333333334,168.53333333333333
1301,520.5333333333333,-104.53333333333333,168.53333333333333
1302,518.4,-102.4,177.06666666666666
1303,522.6666666666666,-100.26666666666667,170.66666666666666
1304,522.6666666666666,-102.4,172.8
1305,524.8,-102.4,172.8
1306,516.2666666666667,-100.26666666666667,166.4
1307,518.4,-102.4,170.66666666666666
1308,531.2,-100.26666666666667,172.8
1309,522.6666666666666,-108.8,177.06666666666666
1310,520.5333333333333,-104.53333333333333,168.53333333333333
1311,522.6666666666666,-102.4,183.46666666666667
1312,518.4,-108.8,177.06666666666666
1313,518.4,-104.53333333333333,181.33333333333334
1314,526.9333333333333,-106.66666666666667,179.2
1315,512.0,-96.0,183.46666666666667
1316,516.2666666666667,-91.73333333333333,168.53333333333333
1317,526.9333333333333,-96.0,177.06666666666666
1318,522.6666666666666,-104.53333333333333,170.66666666666666
1319,522.6666666666666,-104.53333333333333,170.66666666666666
1320,516.2666666666667,-104.53333333333333,174.93333333333334
1321,522.6666666666666,-100.26666666666667,174.93333333333334
1322,516.2666666666667,-98.13333333333333,179.2
1323,520.5333333333333,-102.4,183.46666666666667
1324,520.5333333333333,-100.26666666666667,183.46666666666667
1325,518.4,-98.13333333333333,187.73333333333332
1326,512.0,-98.13333333333333,168.53333333333333
1327,516.2666666666667,-106.66666666666667,181.33333333333334
1328,516.2666666666667,-100.26666666666667,181.33333333333334
1329,518.4,-104.53333333333333,179.2
1330,512.0,-100.26666666666667,185.6
1331,503.46666666666664,-96.0,181.33333333333334
1332,507.73333333333335,-100.26666666666667,183.46666666666667
1333,507.73333333333335,-98.13333333333333,185.6
1334,509.8666666666667,-102.4,196.26666666666665
1335,509.8666666666667,-104.53333333333333,192.0
1336,507.73333333333335,-96.0,194.13333333333333
1337,509.8666666666667,-100.26666666666667,198.4
1338,509.8666666666667,-98.13333333333333,194.13333333333333
1339,512.0,-98.13333333333333,189.86666666666667
1340,509.8666666666667,-96.0,189.86666666666667
1341,507.73333333333335,-93.86666666666666,185.6
1342,512.0,-98.13333333333333,198.4
1343,509.8666666666667,-91.73333333333333,196.26666666666665
1344,512.0,-93.86666666666666,198.4
1345,514.1333333333333,-96.0,200.53333333333333
1346,512.0,-91.73333333333333,198.4
1347,509.8666666666667,-89.6,192.0
1348,518.4,-96.0,192.0
1349,520.5333333333333,-93.86666666666666,194.13333333333333
1350,548.2666666666667,-121.6,181.33333333333334
1351,501.3333333333333,-100.26666666666667,204.8
1352,492.8,-100.26666666666667,202.66666666666666
1353,497.06666666666666,-74.66666666666667,200.53333333333333
1354,512.0,-87.46666666666667,196.26666666666665
1355,509.8666666666667,-87.46666666666667,192.0
1356,507.73333333333335,-85.33333333333333,196.26666666666665
1357,509.8666666666667,-87.46666666666667,194.13333333333333
1358,509.8666666666667,-89.6,194.13333333333333
1359,509.8666666666667,-89.6,192.0
1360,512.0,-93.86666666666666,187.73333333333332
1361,509.8666666666667,-85.33333333333333,183.46666666666667
1362,509.8666666666667,-78.93333333333334,189.86666666666667
1363,503.46666666666664,-87.46666666666667,189.86666666666667
1364,497.06666666666666,-89.6,181.33333333333334
1365,509.8666666666667,-91.73333333333333,192.0
1366,514.1333333333333,-87.46666666666667,196.26666666666665
1367,514.1333333333333,-91.73333333333333,185.6
1368,512.0,-96.0,187.73333333333332
1369,516.2666666666667,-93.86666666666666,198.4
1370,514.1333333333333,-93.86666666666666,192.0
1371,509.8666666666667,-96.0,196.26666666666665
1372,512.0,-104.53333333333333,189.86666666666667
1373,516.2666666666667,-102.4,194.13333333333333
1374,516.2666666666667,-104.53333333333333,200.53333333333333
1375,501.3333333333333,-102.4,200.53333333333333
1376,507.73333333333335,-98.13333333333333,194.13333333333333
1377,503.46666666666664,-89.6,192.0
1378,499.2,-89.6,200.53333333333333
1379,503.46666666666664,-93.86666666666666,200.53333333333333
1380,503.46666666666664,-91.73333333333333,200.53333333333333
1381,503.46666666666664,-96.0,200.53333333333333
1382,499.2,-87.46666666666667,200.53333333333333
1383,494.93333333333334,-93.86666666666666,204.8
1384,499.2,-93.86666666666666,209.06666666666666
1385,505.59999999999997,-91.73333333333333,215.46666666666667
1386,499.2,-100.26666666666667,204.8
1387,503.46666666666664,-93.86666666666666,215.46666666666667
1388,507.73333333333335,-91.73333333333333,209.06666666666666
1389,499.2,-91.73333333333333,209.06666666666666
1390,503.46666666666664,-93.86666666666666,206.93333333333334
1391,499.2,-100.26666666666667,206.93333333333334
1392,503.46666666666664,-96.0,215.46666666666667
1393,497.06666666666666,-98.13333333333333,211.2
1394,501.3333333333333,-91.73333333333333,202.66666666666666
1395,503.46666666666664,-89.6,200.53333333333333
1396,505.59999999999997,-87.46666666666667,200.53333333333333
1397,503.46666666666664,-83.2,206.93333333333334
1398,507.73333333333335,-87.46666666666667,200.53333333333333
1399,507.73333333333335,-83.2,196.26666666666665
1400,507.73333333333335,-78.93333333333334,206.93333333333334
1401,507.73333333333335,-89.6,200.53333333333333
1402,507.73333333333335,-85.33333333333333,202.66666666666666
1403,518.4,-87.46666666666667,198.4
1404,501.3333333333333,-89.6,187.73333333333332
1405,505.59999999999997,-91.73333333333333,198.4
1406,507.73333333333335,-91.73333333333333,200.53333333333333
1407,505.59999999999997,-76.8,194.13333333333333
1408,509.8666666666667,-91.73333333333333,198.4
1409,512.0,-85.33333333333333,194.13333333333333
1410,507.73333333333335,-89.6,196.26666666666665
1411,509.8666666666667,-91.73333333333333,204.8
1412,507.73333333333335,-93.86666666666666,204.8
1413,512.0,-93.86666666666666,200.53333333333333
1414,505.59999999999997,-85.33333333333333,200.53333333333333
1415,507.73333333333335,-89.6,211.2
1416,505.59999999999997,-87.46666666666667,200.53333333333333
1417,507.73333333333335,-87.46666666666667,198.4
1418,509.8666666666667,-108.8,189.86666666666667
1419,505.59999999999997,-93.86666666666666,200.53333333333333
1420,501.3333333333333,-91.73333333333333,196.26666666666665
1421,505.59999999999997,-91.73333333333333,202.66666666666666
1422,501.3333333333333,-89.6,211.2
1423,503.46666666666664,-83.2,202.66666666666666
1424,505.59999999999997,-93.86666666666666,209.06666666666666
1425,501.3333333333333,-83.2,204.8
1426,503.46666666666664,-93.86666666666666,211.2
1427,505.59999999999997,-91.73333333333333,211.2
1428,497.06666666666666,-87.46666666666667,204.8
1429,516.2666666666667,-93.86666666666666,204.8
1430,509.8666666666667,-96.0,217.6
1431,509.8666666666667,-93.86666666666666,206.93333333333334
1432,518.4,-106.66666666666667,213.33333333333334
1433,522.6666666666666,-106.66666666666667,204.8
1434,526.9333333333333,-104.53333333333333,215.46666666666667
1435,529.0666666666666,-108.8,213.33333333333334
1436,535.4666666666667,-108.8,211.2
1437,533.3333333333334,-117.33333333333333,213.33333333333334
1438,539.7333333333333,-117.33333333333333,213.33333333333334
1439,537.6,-132.26666666666665,217.6
1440,546.1333333333333,-147.2,243.2
1441,546.1333333333333,-149.33333333333334,221.86666666666667
1442,552.5333333333333,-170.66666666666666,224.0
1443,550.4,-170.66666666666666,217.6
1444,554.6666666666666,-172.8,202.66666666666666
1445,552.5333333333333,-179.2,200.53333333333333
1446,546.1333333333333,-170.66666666666666,187.73333333333332
1447,541.8666666666667,-160.0,179.2
1448,537.6,-145.06666666666666,153.6
1449,544.0,-134.4,136.53333333333333
1450,550.4,-132.26666666666665,113.06666666666666
1451,565.3333333333334,-128.0,85.33333333333333
1452,552.5333333333333,-121.6,72.53333333333333
1453,550.4,-121.6,53.333333333333336
1454,546.1333333333333,-121.6,55.46666666666667
1455,537.6,-117.33333333333333,49.06666666666666
1456,529.0666666666666,-102.4,70.4
1457,518.4,-96.0,98.13333333333333
1458,512.0,-78.93333333333334,121.6
1459,503.46666666666664,-66.13333333333333,168.53333333333333
1460,499.2,-42.666666666666664,198.4
1461,480.0,-19.2,226.13333333333333
1462,469.3333333333333,0.0,238.93333333333334
1463,480.0,27.733333333333334,270.93333333333334
1464,473.59999999999997,46.93333333333333,277.3333333333333
1465,473.59999999999997,76.8,277.3333333333333
1466,465.06666666666666,96.0,273.06666666666666
1467,467.2,110.93333333333334,270.93333333333334
1468,454.4,130.13333333333333,268.8
1469,441.59999999999997,128.0,264.5333333333333
1470,428.8,119.46666666666667,241.06666666666666
1471,424.5333333333333,106.66666666666667,226.13333333333333
1472,433.06666666666666,85.33333333333333,204.8
1473,450.1333333333333,44.8,192.0
1474,456.5333333333333,19.2,172.8
1475,454.4,-12.8,177.06666666666666
1476,467.2,-27.733333333333334,181.33333333333334
1477,469.3333333333333,-27.733333333333334,187.73333333333332
1478,475.73333333333335,-27.733333333333334,189.86666666666667
1479,469.3333333333333,-27.733333333333334,187.73333333333332
1480,460.8,-40.53333333333333,179.2
1481,456.5333333333333,-46.93333333333333,183.46666666666667
1482,462.93333333333334,-51.2,189.86666666666667
1483,473.59999999999997,-44.8,198.4
1484,484.26666666666665,-42.666666666666664,192.0
1485,486.4,-51.2,213.33333333333334
1486,484.26666666666665,-55.46666666666667,211.2
1487,497.06666666666666,-72.53333333333333,219.73333333333332
1488,494.93333333333334,-89.6,192.0
1489,529.0666666666666,-106.66666666666667,185.6
1490,537.6,-119.46666666666667,187.73333333333332
1491,539.7333333333333,-125.86666666666666,170.66666666666666
1492,541.8666666666667,-128.0,149.33333333333334
1493,539.7333333333333,-134.4,136.53333333333333
1494,558.9333333333333,-128.0,110.93333333333334
1495,556.8,-106.66666666666667,98.13333333333333
1496,569.6,-110.93333333333334,87.46666666666667
1497,576.0,-93.86666666666666,81.06666666666666
1498,582.4,-83.2,76.8
1499,573.8666666666667,-72.53333333333333,87.46666666666667
1500,567.4666666666667,-68.26666666666667,91.73333333333333
1501,567.4666666666667,-64.0,91.73333333333333
1502,569.6,-72.53333333333333,108.8
1503,556.8,-81.06666666666666,104.53333333333333
1504,552.5333333333333,-93.86666666666666,119.46666666666667
1505,537.6,-100.26666666666667,113.06666666666666
1506,544.0,-125.86666666666666,106.66666666666667
1507,533.3333333333334,-138.66666666666666,104.53333333333333
1508,512.0,-151.46666666666667,110.93333333333334
1509,526.9333333333333,-157.86666666666667,128.0
1510,537.6,-151.46666666666667,110.93333333333334
1511,535.4666666666667,-162.13333333333333,108.8
1512,548.2666666666667,-162.13333333333333,108.8
1513,550.4,-151.46666666666667,106.66666666666667
1514,541.8666666666667,-162.13333333333333,100.26666666666667
1515,541.8666666666667,-164.26666666666665,98.13333333333333
1516,548.2666666666667,-151.46666666666667,70.4
1517,597.3333333333334,-174.93333333333334,44.8
1518,603.7333333333333,-166.4,23.466666666666665
1519,610.1333333333333,-160.0,8.533333333333333
1520,601.6,-149.33333333333334,14.933333333333334
1521,588.8,-140.8,21.333333333333332
1522,584.5333333333333,-136.53333333333333,29.866666666666667
1523,569.6,-121.6,34.13333333333333
1524,565.3333333333334,-119.46666666666667,61.86666666666667
1525,554.6666666666666,-123.73333333333333,81.06666666666666
1526,546.1333333333333,-136.53333333333333,81.06666666666666
1527,544.0,-151.46666666666667,83.2
1528,539.7333333333333,-168.53333333333333,72.53333333333333
1529,537.6,-189.86666666666667,83.2
1530,529.0666666666666,-194.13333333333333,96.0
1531,520.5333333333333,-196.26666666666665,98.13333333333333
1532,505.59999999999997,-194.13333333333333,100.26666666666667
1533,486.4,-187.73333333333332,106.66666666666667
1534,477.8666666666667,-192.0,123.73333333333333
1535,486.4,-196.26666666666665,132.26666666666665
1536,490.6666666666667,-204.8,136.53333333333333
1537,490.6666666666667,-228.26666666666665,145.06666666666666
1538,477.8666666666667,-241.06666666666666,142.93333333333334
1539,494.93333333333334,-256.0,138.66666666666666
1540,509.8666666666667,-270.93333333333334,155.73333333333332
1541,518.4,-266.6666666666667,162.13333333333333
1542,522.6666666666666,-270.93333333333334,149.33333333333334
1543,529.0666666666666,-266.6666666666667,134.4
1544,529.0666666666666,-249.6,113.06666666666666
1545,509.8666666666667,-243.2,110.93333333333334
1546,512.0,-221.86666666666667,83.2
1547,503.46666666666664,-206.93333333333334,68.26666666666667
1548,505.59999999999997,-204.8,64.0
1549,497.06666666666666,-187.73333333333332,40.53333333333333
1550,501.3333333333333,-194.13333333333333,46.93333333333333
1551,497.06666666666666,-204.8,46.93333333333333
1552,490.6666666666667,-217.6,64.0
1553,488.5333333333333,-224.0,78.93333333333334
1554,486.4,-224.0,96.0
1555,471.46666666666664,-217.6,104.53333333333333
1556,460.8,-219.73333333333332,113.06666666666666
1557,456.5333333333333,-224.0,123.73333333333333
1558,462.93333333333334,-217.6,140.8
1559,467.2,-215.46666666666667,138.66666666666666
1560,462.93333333333334,-209.06666666666666,121.6
1561,473.59999999999997,-221.86666666666667,117.33333333333333
1562,497.06666666666666,-232.53333333333333,106.66666666666667
1563,499.2,-221.86666666666667,98.13333333333333
1564,522.6666666666666,-232.53333333333333,76.8
1565,531.2,-238.93333333333334,61.86666666666667
1566,548.2666666666667,-243.2,36.266666666666666
1567,569.6,-256.0,23.466666666666665
1568,550.4,-241.06666666666666,19.2
1569,567.4666666666667,-234.66666666666666,14.933333333333334
1570,561.0666666666666,-234.66666666666666,17.066666666666666
1571,541.8666666666667,-230.4,36.266666666666666
1572,546.1333333333333,-224.0,46.93333333333333
1573,541.8666666666667,-215.46666666666667,57.6
1574,531.2,-217.6,57.6
1575,539.7333333333333,-232.53333333333333,83.2
1576,539.7333333333333,-243.2,76.8
1577,537.6,-251.73333333333332,72.53333333333333
1578,516.2666666666667,-247.46666666666667,78.93333333333334
1579,524.8,-251.73333333333332,61.86666666666667
1580,499.2,-256.0,87.46666666666667
1581,494.93333333333334,-268.8,123.73333333333333
1582,522.6666666666666,-268.8,123.73333333333333
1583,522.6666666666666,-268.8,128.0
1584,492.8,-266.6666666666667,121.6
1585,462.93333333333334,-288.0,104.53333333333333
1586,450.1333333333333,-247.46666666666667,117.33333333333333
1587,456.5333333333333,-256.0,98.13333333333333
1588,441.59999999999997,-247.46666666666667,102.4
1589,413.8666666666667,-253.86666666666667,106.66666666666667
1590,407.46666666666664,-241.06666666666666,117.33333333333333
1591,418.1333333333333,-251.73333333333332,113.06666666666666
1592,398.93333333333334,-251.73333333333332,115.2
1593,413.8666666666667,-238.93333333333334,104.53333333333333
1594,413.8666666666667,-236.79999999999998,110.93333333333334
1595,405.3333333333333,-236.79999999999998,100.26666666666667
1596,403.2,-238.93333333333334,87.46666666666667
1597,405.3333333333333,-243.2,78.93333333333334
1598,398.93333333333334,-243.2,85.33333333333333
1599,413.8666666666667,-245.33333333333334,83.2
1600,409.6,-245.33333333333334,74.66666666666667
1601,428.8,-253.86666666666667,98.13333333333333
1602,426.6666666666667,-264.5333333333333,85.33333333333333
1603,450.1333333333333,-273.06666666666666,87.46666666666667
1604,448.0,-275.2,85.33333333333333
1605,433.06666666666666,-281.6,81.06666666666666
1606,426.6666666666667,-273.06666666666666,87.46666666666667
1607,422.4,-277.3333333333333,87.46666666666667
1608,416.0,-273.06666666666666,74.66666666666667
1609,407.46666666666664,-273.06666666666666,76.8
1610,398.93333333333334,-277.3333333333333,85.33333333333333
1611,388.26666666666665,-273.06666666666666,104.53333333333333
1612,377.6,-273.06666666666666,125.86666666666666
1613,390.4,-279.46666666666664,100.26666666666667
1614,403.2,-296.5333333333333,104.53333333333333
1615,392.5333333333333,-320.0,100.26666666666667
1616,390.4,-322.1333333333333,108.8
1617,379.73333333333335,-330.6666666666667,106.66666666666667
1618,373.3333333333333,-330.6666666666667,121.6
1619,377.6,-324.26666666666665,130.13333333333333
1620,381.8666666666667,-320.0,130.13333333333333
1621,384.0,-328.5333333333333,130.13333333333333
1622,390.4,-322.1333333333333,142.93333333333334
1623,394.6666666666667,-315.73333333333335,119.46666666666667
1624,396.8,-313.6,132.26666666666665
1625,398.93333333333334,-302.93333333333334,115.2
1626,418.1333333333333,-311.46666666666664,113.06666666666666
1627,433.06666666666666,-317.8666666666667,100.26666666666667
1628,452.26666666666665,-343.46666666666664,81.06666666666666
1629,486.4,-366.93333333333334,70.4
1630,482.1333333333333,-379.73333333333335,46.93333333333333
1631,486.4,-396.8,42.666666666666664
1632,482.1333333333333,-413.8666666666667,70.4
1633,471.46666666666664,-403.2,70.4
1634,452.26666666666665,-392.5333333333333,93.86666666666666
1635,448.0,-384.0,89.6
1636,437.3333333333333,-384.0,104.53333333333333
1637,422.4,-377.6,106.66666666666667
1638,405.3333333333333,-375.46666666666664,125.86666666666666
1639,394.6666666666667,-375.46666666666664,138.66666666666666
1640,392.5333333333333,-373.3333333333333,140.8
1641,377.6,-371.2,151.46666666666667
1642,373.3333333333333,-377.6,153.6
1643,362.6666666666667,-371.2,147.2
1644,349.8666666666667,-371.2,162.13333333333333
1645,349.8666666666667,-381.8666666666667,151.46666666666667
1646,341.3333333333333,-358.4,145.06666666666666
1647,326.4,-358.4,132.26666666666665
1648,334.93333333333334,-358.4,121.6
1649,332.8,-358.4,121.6
1650,332.8,-352.0,117.33333333333333
1651,322.1333333333333,-352.0,113.06666666666666
1652,324.26666666666665,-358.4,102.4
1653,322.1333333333333,-371.2,106.66666666666667
1654,315.73333333333335,-371.2,104.53333333333333
1655,320.0,-388.26666666666665,121.6
1656,313.6,-392.5333333333333,115.2
1657,324.26666666666665,-398.93333333333334,128.0
1658,320.0,-401.06666666666666,125.86666666666666
1659,328.5333333333333,-407.46666666666664,136.53333333333333
1660,326.4,-416.0,134.4
1661,330.6666666666667,-418.1333333333333,132.26666666666665
1662,317.8666666666667,-409.6,134.4
1663,317.8666666666667,-418.1333333333333,130.13333333333333
1664,320.0,-413.8666666666667,125.86666666666666
1665,315.73333333333335,-413.8666666666667,125.86666666666666
1666,313.6,-416.0,110.93333333333334
1667,307.2,-413.8666666666667,102.4
1668,309.3333333333333,-426.6666666666667,96.0
1669,309.3333333333333,-418.1333333333333,96.0
1670,290.1333333333333,-418.1333333333333,83.2
1671,285.8666666666667,-416.0,93.86666666666666
1672,281.6,-422.4,96.0
1673,277.3333333333333,-424.5333333333333,93.86666666666666
1674,275.2,-422.4,108.8
1675,262.4,-439.46666666666664,102.4
1676,247.46666666666667,-448.0,104.53333333333333
1677,253.86666666666667,-454.4,104.53333333333333
1678,234.66666666666666,-471.46666666666664,100.26666666666667
1679,241.06666666666666,-475.73333333333335,106.66666666666667
1680,224.0,-477.8666666666667,128.0
1681,232.53333333333333,-484.26666666666665,130.13333333333333
1682,226.13333333333333,-482.1333333333333,136.53333333333333
1683,221.86666666666667,-477.8666666666667,128.0
1684,226.13333333333333,-471.46666666666664,128.0
1685,228.26666666666665,-465.06666666666666,123.73333333333333
1686,236.79999999999998,-473.59999999999997,130.13333333333333
1687,232.53333333333333,-482.1333333333333,134.4
1688,217.6,-490.6666666666667,123.73333333333333
1689,206.93333333333334,-497.06666666666666,123.73333333333333
1690,206.93333333333334,-507.73333333333335,125.86666666666666
1691,194.13333333333333,-503.46666666666664,110.93333333333334
1692,181.33333333333334,-512.0,117.33333333333333
1693,181.33333333333334,-512.0,106.66666666666667
1694,168.53333333333333,-509.8666666666667,98.13333333333333
1695,157.86666666666667,-516.2666666666667,91.73333333333333
1696,151.46666666666667,-507.73333333333335,98.13333333333333
1697,140.8,-505.59999999999997,106.66666666666667
1698,140.8,-507.73333333333335,100.26666666666667
1699,140.8,-501.3333333333333,117.33333333333333
1700,138.66666666666666,-501.3333333333333,104.53333333333333
1701,134.4,-514.1333333333333,117.33333333333333
1702,132.26666666666665,-492.8,119.46666666666667
1703,138.66666666666666,-505.59999999999997,123.73333333333333
1704,142.93333333333334,-507.73333333333335,125.86666666666666
1705,151.46666666666667,-512.0,132.26666666666665
1706,151.46666666666667,-505.59999999999997,117.33333333333333
1707,153.6,-505.59999999999997,119.46666666666667
1708,172.8,-509.8666666666667,104.53333333333333
1709,179.2,-509.8666666666667,108.8
1710,185.6,-499.2,113.06666666666666
1711,200.53333333333333,-492.8,113.06666666666666
1712,206.93333333333334,-484.26666666666665,130.13333333333333
1713,204.8,-473.59999999999997,140.8
1714,194.13333333333333,-471.46666666666664,162.13333333333333
1715,181.33333333333334,-458.6666666666667,164.26666666666665
1716,181.33333333333334,-465.06666666666666,162.13333333333333
1717,189.86666666666667,-462.93333333333334,157.86666666666667
1718,196.26666666666665,-471.46666666666664,149.33333333333334
1719,204.8,-477.8666666666667,145.06666666666666
1720,192.0,-471.46666666666664,132.26666666666665
1721,189.86666666666667,-473.59999999999997,134.4
1722,170.66666666666666,-469.3333333333333,128.0
1723,177.06666666666666,-460.8,134.4
1724,170.66666666666666,-473.59999999999997,125.86666666666666
1725,166.4,-460.8,119.46666666666667
1726,172.8,-462.93333333333334,130.13333333333333
1727,174.93333333333334,-469.3333333333333,130.13333333333333
1728,160.0,-462.93333333333334,134.4
1729,149.33333333333334,-462.93333333333334,145.06666666666666
1730,149.33333333333334,-462.93333333333334,151.46666666666667
1731,147.2,-473.59999999999997,157.86666666666667
1732,151.46666666666667,-480.0,155.73333333333332
1733,160.0,-488.5333333333333,157.86666666666667
1734,155.73333333333332,-486.4,147.2
1735,164.26666666666665,-486.4,149.33333333333334
1736,172.8,-497.06666666666666,149.33333333333334
1737,168.53333333333333,-503.46666666666664,145.06666666666666
1738,179.2,-505.59999999999997,140.8
1739,168.53333333333333,-505.59999999999997,128.0
1740,181.33333333333334,-509.8666666666667,130.13333333333333
1741,179.2,-514.1333333333333,117.33333333333333
1742,181.33333333333334,-507.73333333333335,96.0
1743,179.2,-497.06666666666666,70.4
1744,181.33333333333334,-484.26666666666665,55.46666666666667
1745,177.06666666666666,-488.5333333333333,57.6
1746,172.8,-488.5333333333333,44.8
1747,164.26666666666665,-497.06666666666666,36.266666666666666
1748,166.4,-499.2,29.866666666666667
1749,162.13333333333333,-512.0,29.866666666666667
1750,149.33333333333334,-512.0,25.6
1751,147.2,-520.5333333333333,36.266666666666666
1752,136.53333333333333,-526.9333333333333,42.666666666666664
1753,125.86666666666666,-533.3333333333334,51.2
1754,113.06666666666666,-541.8666666666667,61.86666666666667
1755,104.53333333333333,-537.6,70.4
1756,98.13333333333333,-535.4666666666667,81.06666666666666
1757,91.73333333333333,-548.2666666666667,87.46666666666667
1758,93.86666666666666,-544.0,76.8
1759,91.73333333333333,-544.0,76.8
1760,87.46666666666667,-546.1333333333333,61.86666666666667
1761,91.73333333333333,-550.4,61.86666666666667
1762,83.2,-537.6,57.6
1763,87.46666666666667,-541.8666666666667,34.13333333333333
1764,87.46666666666667,-529.0666666666666,34.13333333333333
1765,85.33333333333333,-529.0666666666666,27.733333333333334
1766,74.66666666666667,-514.1333333333333,10.666666666666666
1767,61.86666666666667,-488.5333333333333,4.266666666666667
1768,72.53333333333333,-499.2,4.266666666666667
1769,57.6,-492.8,8.533333333333333
1770,59.733333333333334,-501.3333333333333,2.1333333333333333
1771,53.333333333333336,-501.3333333333333,14.933333333333334
1772,46.93333333333333,-503.46666666666664,17.066666666666666
1773,55.46666666666667,-509.8666666666667,34.13333333333333
1774,44.8,-524.8,32.0
1775,42.666666666666664,-533.3333333333334,25.6
1776,40.53333333333333,-541.8666666666667,17.066666666666666
1777,19.2,-554.6666666666666,29.866666666666667
1778,17.066666666666666,-556.8,14.933333333333334
1779,19.2,-552.5333333333333,4.266666666666667
1780,12.8,-558.9333333333333,4.266666666666667
1781,4.266666666666667,-548.2666666666667,19.2
1782,0.0,-550.4,17.066666666666666
1783,-4.266666666666667,-548.2666666666667,23.466666666666665
1784,0.0,-546.1333333333333,25.6
1785,-2.1333333333333333,-544.0,32.0
1786,-4.266666666666667,-544.0,38.4
1787,-8.533333333333333,-550.4,57.6
1788,-14.933333333333334,-550.4,68.26666666666667
1789,-6.4,-544.0,68.26666666666667
1790,-17.066666666666666,-552.5333333333333,76.8
1791,-12.8,-550.4,89.6
1792,-17.066666666666666,-556.8,104.53333333333333
1793,-14.933333333333334,-554.6666666666666,117.33333333333333
1794,-17.066666666666666,-550.4,125.86666666666666
1795,-29.866666666666667,-552.5333333333333,130.13333333333333
1796,-23.466666666666665,-552.5333333333333,140.8
1797,-27.733333333333334,-556.8,151.46666666666667
1798,-34.13333333333333,-541.8666666666667,155.73333333333332
1799,-36.266666666666666,-544.0,147.2
1800,-36.266666666666666,-544.0,140.8
1801,-38.4,-539.7333333333333,142.93333333333334
1802,-38.4,-533.3333333333334,134.4
1803,-38.4,-535.4666666666667,134.4
1804,-38.4,-522.6666666666666,128.0
1805,-38.4,-524.8,113.06666666666666
1806,-34.13333333333333,-529.0666666666666,110.93333333333334
1807,-32.0,-516.2666666666667,110.93333333333334
1808,-42.666666666666664,-518.4,104.53333333333333
1809,-32.0,-522.6666666666666,102.4
1810,-40.53333333333333,-522.6666666666666,91.73333333333333
1811,-34.13333333333333,-529.0666666666666,87.46666666666667
1812,-34.13333333333333,-526.9333333333333,89.6
1813,-34.13333333333333,-531.2,83.2
1814,-42.666666666666664,-531.2,70.4
1815,-53.333333333333336,-524.8,72.53333333333333
1816,-46.93333333333333,-535.4666666666667,64.0
1817,-57.6,-535.4666666666667,57.6
1818,-61.86666666666667,-537.6,53.333333333333336
1819,-70.4,-531.2,49.06666666666666
1820,-68.26666666666667,-539.7333333333333,49.06666666666666
1821,-76.8,-537.6,42.666666666666664
1822,-81.06666666666666,-541.8666666666667,36.266666666666666
1823,-87.46666666666667,-535.4666666666667,44.8
1824,-91.73333333333333,-539.7333333333333,46.93333333333333
1825,-85.33333333333333,-544.0,59.733333333333334
1826,-93.86666666666666,-539.7333333333333,64.0
1827,-87.46666666666667,-546.1333333333333,64.0
1828,-96.0,-539.7333333333333,61.86666666666667
1829,-87.46666666666667,-539.7333333333333,68.26666666666667
1830,-91.73333333333333,-533.3333333333334,64.0
1831,-87.46666666666667,-537.6,61.86666666666667
1832,-74.66666666666667,-537.6,72.53333333333333
1833,-61.86666666666667,-520.5333333333333,61.86666666666667
1834,-55.46666666666667,-509.8666666666667,72.53333333333333
1835,-44.8,-507.73333333333335,61.86666666666667
1836,-40.53333333333333,-501.3333333333333,57.6
1837,-38.4,-494.93333333333334,46.93333333333333
1838,-34.13333333333333,-488.5333333333333,57.6
1839,-29.866666666666667,-490.6666666666667,40.53333333333333
1840,-25.6,-505.59999999999997,44.8
1841,-29.866666666666667,-507.73333333333335,44.8
1842,-27.733333333333334,-518.4,36.266666666666666
1843,-34.13333333333333,-524.8,38.4
1844,-34.13333333333333,-531.2,40.53333333333333
1845,-36.266666666666666,-535.4666666666667,32.0
1846,-40.53333333333333,-535.4666666666667,38.4
1847,-40.53333333333333,-539.7333333333333,42.666666666666664
1848,-51.2,-544.0,53.333333333333336
1849,-46.93333333333333,-548.2666666666667,38.4
1850,-57.6,-550.4,57.6
1851,-49.06666666666666,-539.7333333333333,59.733333333333334
1852,-57.6,-524.8,53.333333333333336
1853,-57.6,-544.0,68.26666666666667
1854,-64.0,-546.1333333333333,70.4
1855,-76.8,-541.8666666666667,78.93333333333334
1856,-66.13333333333333,-539.7333333333333,74.66666666666667
1857,-70.4,-539.7333333333333,87.46666666666667
1858,-74.66666666666667,-533.3333333333334,85.33333333333333
1859,-70.4,-541.8666666666667,78.93333333333334
1860,-72.53333333333333,-533.3333333333334,85.33333333333333
1861,-72.53333333333333,-531.2,93.86666666666666
1862,-72.53333333333333,-535.4666666666667,91.73333333333333
1863,-76.8,-524.8,89.6
1864,-68.26666666666667,-535.4666666666667,83.2
1865,-72.53333333333333,-529.0666666666666,85.33333333333333
1866,-59.733333333333334,-533.3333333333334,76.8
1867,-57.6,-531.2,87.46666666666667
1868,-51.2,-522.6666666666666,89.6
1869,-44.8,-518.4,85.33333333333333
1870,-42.666666666666664,-518.4,93.86666666666666
1871,-34.13333333333333,-512.0,93.86666666666666
1872,-21.333333333333332,-509.8666666666667,100.26666666666667
1873,-12.8,-509.8666666666667,100.26666666666667
1874,-2.1333333333333333,-503.46666666666664,93.86666666666666
1875,0.0,-503.46666666666664,104.53333333333333
1876,12.8,-505.59999999999997,102.4
1877,10.666666666666666,-505.59999999999997,102.4
1878,12.8,-503.46666666666664,104.53333333333333
1879,10.666666666666666,-501.3333333333333,106.66666666666667
1880,8.533333333333333,-501.3333333333333,102.4
1881,14.933333333333334,-494.93333333333334,108.8
1882,4.266666666666667,-494.93333333333334,98.13333333333333
1883,8.533333333333333,-503.46666666666664,113.06666666666666
1884,4.266666666666667,-499.2,96.0
1885,2.1333333333333333,-509.8666666666667,106.66666666666667
1886,0.0,-509.8666666666667,115.2
1887,2.1333333333333333,-512.0,115.2
1888,4.266666666666667,-516.2666666666667,113.06666666666666
1889,2.1333333333333333,-526.9333333333333,121.6
1890,4.266666666666667,-526.9333333333333,125.86666666666666
1891,4.266666666666667,-535.4666666666667,123.73333333333333
1892,2.1333333333333333,-533.3333333333334,123.73333333333333
1893,6.4,-533.3333333333334,125.86666666666666
1894,6.4,-539.7333333333333,117.33333333333333
1895,2.1333333333333333,-535.4666666666667,115.2
1896,8.533333333333333,-524.8,113.06666666666666
1897,10.666666666666666,-533.3333333333334,115.2
1898,17.066666666666666,-520.5333333333333,108.8
1899,17.066666666666666,-524.8,102.4
1900,29.866666666666667,-529.0666666666666,108.8
1901,29.866666666666667,-522.6666666666666,96.0
1902,34.13333333333333,-526.9333333333333,108.8
1903,32.0,-518.4,106.66666666666667
1904,42.666666666666664,-520.5333333333333,106.66666666666667
1905,32.0,-514.1333333333333,110.93333333333334
1906,55.46666666666667,-520.5333333333333,93.86666666666666
1907,38.4,-518.4,115.2
1908,34.13333333333333,-512.0,115.2
1909,38.4,-509.8666666666667,117.33333333333333
1910,34.13333333333333,-514.1333333333333,110.93333333333334
1911,38.4,-512.0,121.6
1912,38.4,-509.8666666666667,102.4
1913,46.93333333333333,-520.5333333333333,117.33333333333333
1914,40.53333333333333,-531.2,106.66666666666667
1915,53.333333333333336,-529.0666666666666,106.66666666666667
1916,53.333333333333336,-531.2,104.53333333333333
1917,49.06666666666666,-537.6,96.0
1918,61.86666666666667,-541.8666666666667,104.53333333333333
1919,57.6,-539.7333333333333,96.0
1920,59.733333333333334,-537.6,96.0
1921,57.6,-541.8666666666667,85.33333333333333
1922,61.86666666666667,-541.8666666666667,89.6
1923,59.733333333333334,-544.0,91.73333333333333
1924,61.86666666666667,-544.0,83.2
1925,53.333333333333336,-544.0,81.06666666666666
1926,46.93333333333333,-544.0,74.66666666666667
1927,51.2,-548.2666666666667,74.66666666666667
1928,46.93333333333333,-556.8,93.86666666666666
1929,46.93333333333333,-550.4,85.33333333333333
1930,44.8,-539.7333333333333,91.73333333333333
1931,51.2,-537.6,100.26666666666667
1932,51.2,-537.6,106.66666666666667
1933,46.93333333333333,-531.2,106.66666666666667
1934,40.53333333333333,-518.4,110.93333333333334
1935,49.06666666666666,-516.2666666666667,108.8
1936,40.53333333333333,-503.46666666666664,119.46666666666667
1937,44.8,-501.3333333333333,117.33333333333333
1938,36.266666666666666,-501.3333333333333,106.66666666666667
1939,42.666666666666664,-509.8666666666667,119.46666666666667
1940,44.8,-518.4,125.86666666666666
1941,44.8,-522.6666666666666,134.4
1942,36.266666666666666,-522.6666666666666,132.26666666666665
1943,34.13333333333333,-533.3333333333334,132.26666666666665
1944,38.4,-531.2,130.13333333333333
1945,36.266666666666666,-529.0666666666666,136.53333333333333
1946,27.733333333333334,-531.2,136.53333333333333
1947,14.933333333333334,-524.8,138.66666666666666
1948,14.933333333333334,-526.9333333333333,142.93333333333334
1949,6.4,-526.9333333333333,136.53333333333333
1950,17.066666666666666,-531.2,140.8
1951,10.666666666666666,-529.0666666666666,140.8
1952,10.666666666666666,-529.0666666666666,136.53333333333333
1953,4.266666666666667,-522.6666666666666,136.53333333333333
1954,8.533333333333333,-529.0666666666666,130.13333333333333
1955,8.533333333333333,-524.8,117.33333333333333
1956,19.2,-529.0666666666666,115.2
1957,4.266666666666667,-520.5333333333333,117.33333333333333
1958,10.666666666666666,-520.5333333333333,121.6
1959,2.1333333333333333,-512.0,121.6
1960,0.0,-512.0,121.6
1961,4.266666666666667,-514.1333333333333,128.0
1962,10.666666666666666,-509.8666666666667,134.4
1963,8.533333333333333,-505.59999999999997,134.4
1964,10.666666666666666,-494.93333333333334,136.53333333333333
1965,19.2,-494.93333333333334,138.66666666666666
1966,19.2,-490.6666666666667,140.8
1967,21.333333333333332,-477.8666666666667,138.66666666666666
1968,29.866666666666667,-469.3333333333333,140.8
1969,34.13333333333333,-475.73333333333335,140.8
1970,25.6,-469.3333333333333,157.86666666666667
1971,40.53333333333333,-465.06666666666666,151.46666666666667
1972,44.8,-467.2,145.06666666666666
1973,42.666666666666664,-460.8,151.46666666666667
1974,44.8,-458.6666666666667,145.06666666666666
1975,44.8,-462.93333333333334,147.2
1976,42.666666666666664,-465.06666666666666,145.06666666666666
1977,40.53333333333333,-469.3333333333333,138.66666666666666
1978,49.06666666666666,-469.3333333333333,132.26666666666665
1979,44.8,-471.46666666666664,136.53333333333333
1980,55.46666666666667,-473.59999999999997,136.53333333333333
1981,55.46666666666667,-475.73333333333335,123.73333333333333
1982,51.2,-471.46666666666664,121.6
1983,49.06666666666666,-477.8666666666667,117.33333333333333
1984,57.6,-473.59999999999997,106.66666666666667
1985,46.93333333333333,-471.46666666666664,104.53333333333333
1986,53.333333333333336,-484.26666666666665,93.86666666666666
1987,59.733333333333334,-486.4,96.0
1988,66.13333333333333,-475.73333333333335,98.13333333333333
1989,76.8,-484.26666666666665,100.26666666666667
1990,70.4,-480.0,96.0
1991,70.4,-467.2,98.13333333333333
1992,66.13333333333333,-469.3333333333333,102.4
1993,68.26666666666667,-456.5333333333333,110.93333333333334
1994,70.4,-456.5333333333333,119.46666666666667
1995,72.53333333333333,-454.4,121.6
1996,70.4,-448.0,123.73333333333333
1997,70.4,-439.46666666666664,134.4
1998,68.26666666666667,-439.46666666666664,138.66666666666666
1999,66.13333333333333,-448.0,138.66666666666666
2000,72.53333333333333,-443.73333333333335,151.46666666666667
2001,72.53333333333333,-450.1333333333333,157.86666666666667
2002,74.66666666666667,-458.6666666666667,177.06666666666666
2003,68.26666666666667,-477.8666666666667,179.2
2004,85.33333333333333,-484.26666666666665,189.86666666666667
2005,87.46666666666667,-490.6666666666667,192.0
2006,91.73333333333333,-507.73333333333335,206.93333333333334
2007,102.4,-512.0,194.13333333333333
2008,106.66666666666667,-520.5333333333333,196.26666666666665
2009,102.4,-518.4,183.46666666666667
2010,123.73333333333333,-524.8,174.93333333333334
2011,125.86666666666666,-529.0666666666666,157.86666666666667
2012,128.0,-526.9333333333333,153.6
2013,119.46666666666667,-520.5333333333333,134.4
2014,119.46666666666667,-526.9333333333333,132.26666666666665
2015,119.46666666666667,-526.9333333333333,130.13333333333333
2016,119.46666666666667,-533.3333333333334,125.86666666666666
2017,104.53333333333333,-533.3333333333334,115.2
2018,93.86666666666666,-537.6,123.73333333333333
2019,91.73333333333333,-539.7333333333333,123.73333333333333
2020,83.2,-539.7333333333333,119.46666666666667
2021,76.8,-539.7333333333333,128.0
2022,68.26666666666667,-537.6,125.86666666666666
2023,59.733333333333334,-548.2666666666667,121.6
2024,49.06666666666666,-541.8666666666667,130.13333333333333
2025,42.666666666666664,-550.4,121.6
2026,46.93333333333333,-544.0,134.4
2027,34.13333333333333,-541.8666666666667,125.86666666666666
2028,40.53333333333333,-541.8666666666667,130.13333333333333
2029,44.8,-541.8666666666667,134.4
2030,36.266666666666666,-539.7333333333333,132.26666666666665
2031,38.4,-539.7333333333333,123.73333333333333
2032,46.93333333333333,-537.6,130.13333333333333
2033,36.266666666666666,-526.9333333333333,134.4
2034,40.53333333333333,-531.2,130.13333333333333
2035,29.866666666666667,-524.8,130.13333333333333
2036,38.4,-518.4,134.4
2037,44.8,-512.0,128.0
2038,44.8,-509.8666666666667,123.73333333333333
2039,40.53333333333333,-497.06666666666666,134.4
2040,49.06666666666666,-492.8,136.53333333333333
2041,46.93333333333333,-488.5333333333333,138.66666666666666
2042,53.333333333333336,-486.4,132.26666666666665
2043,46.93333333333333,-488.5333333333333,128.0
2044,51.2,-488.5333333333333,134.4
2045,64.0,-494.93333333333334,136.53333333333333
2046,59.733333333333334,-497.06666666666666,138.66666666666666
2047,70.4,-505.59999999999997,138.66666666666666
2048,74.66666666666667,-507.73333333333335,123.73333333333333
2049,76.8,-503.46666666666664,136.53333333333333
2050,74.66666666666667,-512.0,130.13333333333333
2051,74.66666666666667,-512.0,130.13333333333333
2052,74.66666666666667,-507.73333333333335,128.0
2053,68.26666666666667,-516.2666666666667,134.4
2054,68.26666666666667,-522.6666666666666,130.13333333333333
2055,51.2,-516.2666666666667,132.26666666666665
2056,61.86666666666667,-531.2,125.86666666666666
2057,66.13333333333333,-526.9333333333333,128.0
2058,44.8,-526.9333333333333,125.86666666666666
2059,40.53333333333333,-531.2,130.13333333333333
2060,36.266666666666666,-533.3333333333334,130.13333333333333
2061,34.13333333333333,-539.7333333333333,125.86666666666666
2062,42.666666666666664,-539.7333333333333,119.46666666666667
2063,34.13333333333333,-533.3333333333334,128.0
2064,29.866666666666667,-535.4666666666667,104.53333333333333
2065,46.93333333333333,-535.4666666666667,113.06666666666666
2066,32.0,-539.7333333333333,115.2
2067,32.0,-535.4666666666667,102.4
2068,36.266666666666666,-526.9333333333333,100.26666666666667
2069,34.13333333333333,-522.6666666666666,113.06666666666666
2070,34.13333333333333,-524.8,100.26666666666667
2071,29.866666666666667,-516.2666666666667,98.13333333333333
2072,36.266666666666666,-514.1333333333333,100.26666666666667
2073,42.666666666666664,-507.73333333333335,93.86666666666666
2074,40.53333333333333,-499.2,96.0
2075,40.53333333333333,-490.6666666666667,98.13333333333333
2076,49.06666666666666,-494.93333333333334,98.13333333333333
2077,49.06666666666666,-488.5333333333333,98.13333333333333
2078,59.733333333333334,-484.26666666666665,100.26666666666667
2079,51.2,-499.2,81.06666666666666
2080,46.93333333333333,-484.26666666666665,100.26666666666667
2081,53.333333333333336,-490.6666666666667,96.0
2082,57.6,-488.5333333333333,108.8
2083,49.06666666666666,-499.2,104.53333333333333
2084,57.6,-494.93333333333334,104.53333333333333
2085,46.93333333333333,-497.06666666666666,104.53333333333333
2086,55.46666666666667,-501.3333333333333,104.53333333333333
2087,59.733333333333334,-503.46666666666664,113.06666666666666
2088,57.6,-512.0,115.2
2089,53.333333333333336,-512.0,119.46666666666667
2090,55.46666666666667,-520.5333333333333,117.33333333333333
2091,61.86666666666667,-520.5333333333333,115.2
2092,59.733333333333334,-529.0666666666666,117.33333333333333
2093,55.46666666666667,-531.2,117.33333333333333
2094,53.333333333333336,-529.0666666666666,110.93333333333334
2095,51.2,-529.0666666666666,121.6
2096,49.06666666666666,-537.6,125.86666666666666
2097,46.93333333333333,-535.4666666666667,115.2
2098,51.2,-537.6,128.0
2099,57.6,-526.9333333333333,128.0
2100,34.13333333333333,-533.3333333333334,121.6
2101,55.46666666666667,-526.9333333333333,117.33333333333333
2102,46.93333333333333,-531.2,117.33333333333333
2103,49.06666666666666,-522.6666666666666,121.6
2104,55.46666666666667,-520.5333333333333,117.33333333333333
2105,53.333333333333336,-514.1333333333333,110.93333333333334
2106,57.6,-516.2666666666667,125.86666666666666
2107,61.86666666666667,-507.73333333333335,113.06666666666666
2108,68.26666666666667,-501.3333333333333,106.66666666666667
2109,76.8,-503.46666666666664,117.33333333333333
2110,61.86666666666667,-501.3333333333333,117.33333333333333
2111,66.13333333333333,-503.46666666666664,110.93333333333334
2112,70.4,-499.2,123.73333333333333
2113,81.06666666666666,-505.59999999999997,113.06666666666666
2114,81.06666666666666,-503.46666666666664,113.06666666666666
2115,78.93333333333334,-501.3333333333333,115.2
2116,87.46666666666667,-505.59999999999997,113.06666666666666
2117,76.8,-499.2,115.2
2118,81.06666666666666,-516.2666666666667,104.53333333333333
2119,78.93333333333334,-514.1333333333333,128.0
2120,81.06666666666666,-516.2666666666667,117.33333333333333
2121,76.8,-518.4,100.26666666666667
2122,76.8,-533.3333333333334,104.53333333333333
2123,74.66666666666667,-518.4,96.0
2124,76.8,-522.6666666666666,93.86666666666666
2125,74.66666666666667,-524.8,91.73333333333333
2126,70.4,-526.9333333333333,87.46666666666667
2127,76.8,-526.9333333333333,89.6
2128,83.2,-533.3333333333334,78.93333333333334
2129,70.4,-531.2,81.06666666666666
2130,81.06666666666666,-531.2,83.2
2131,85.33333333333333,-526.9333333333333,78.93333333333334
2132,76.8,-529.0666666666666,74.66666666666667
2133,83.2,-533.3333333333334,81.06666666666666
2134,81.06666666666666,-524.8,85.33333333333333
2135,81.06666666666666,-516.2666666666667,76.8
2136,81.06666666666666,-514.1333333333333,76.8
2137,89.6,-520.5333333333333,70.4
2138,78.93333333333334,-505.59999999999997,76.8
2139,85.33333333333333,-505.59999999999997,76.8
2140,83.2,-507.73333333333335,66.13333333333333
2141,87.46666666666667,-492.8,72.53333333333333
2142,83.2,-492.8,76.8
2143,83.2,-522.6666666666666,76.8
2144,91.73333333333333,-507.73333333333335,81.06666666666666
2145,89.6,-505.59999999999997,76.8
2146,85.33333333333333,-505.59999999999997,76.8
2147,81.06666666666666,-509.8666666666667,76.8
2148,78.93333333333334,-505.59999999999997,74.66666666666667
2149,83.2,-522.6666666666666,74.66666666666667
2150,70.4,-516.2666666666667,74.66666666666667
2151,83.2,-526.9333333333333,68.26666666666667
2152,83.2,-526.9333333333333,74.66666666666667
2153,85.33333333333333,-535.4666666666667,85.33333333333333
2154,76.8,-535.4666666666667,87.46666666666667
2155,93.86666666666666,-544.0,83.2
2156,96.0,-544.0,81.06666666666666
2157,104.53333333333333,-544.0,85.33333333333333
2158,96.0,-548.2666666666667,81.06666666666666
2159,102.4,-548.2666666666667,78.93333333333334
2160,98.13333333333333,-548.2666666666667,78.93333333333334
2161,100.26666666666667,-550.4,72.53333333333333
2162,85.33333333333333,-539.7333333333333,74.66666666666667
2163,87.46666666666667,-535.4666666666667,76.8
2164,81.06666666666666,-535.4666666666667,55.46666666666667
2165,91.73333333333333,-522.6666666666666,61.86666666666667
2166,87.46666666666667,-505.59999999999997,74.66666666666667
2167,91.73333333333333,-512.0,72.53333333333333
2168,87.46666666666667,-507.73333333333335,74.66666666666667
2169,74.66666666666667,-503.46666666666664,66.13333333333333
2170,87.46666666666667,-505.59999999999997,66.13333333333333
2171,91.73333333333333,-509.8666666666667,72.53333333333333
2172,100.26666666666667,-507.73333333333335,78.93333333333334
2173,98.13333333333333,-512.0,64.0
2174,85.33333333333333,-507.73333333333335,68.26666666666667
2175,93.86666666666666,-509.8666666666667,57.6
2176,85.33333333333333,-512.0,68.26666666666667
2177,98.13333333333333,-509.8666666666667,68.26666666666667
2178,96.0,-520.5333333333333,68.26666666666667
2179,100.26666666666667,-526.9333333333333,70.4
2180,98.13333333333333,-526.9333333333333,61.86666666666667
2181,98.13333333333333,-524.8,70.4
2182,104.53333333333333,-533.3333333333334,64.0
2183,100.26666666666667,-531.2,55.46666666666667
2184,100.26666666666667,-522.6666666666666,59.733333333333334
2185,98.13333333333333,-524.8,59.733333333333334
2186,102.4,-526.9333333333333,57.6
2187,89.6,-520.5333333333333,59.733333333333334
2188,91.73333333333333,-520.5333333333333,59.733333333333334
2189,91.73333333333333,-518.4,57.6
2190,85.33333333333333,-518.4,66.13333333333333
2191,81.06666666666666,-518.4,76.8
2192,83.2,-524.8,74.66666666666667
2193,81.06666666666666,-516.2666666666667,68.26666666666667
2194,78.93333333333334,-520.5333333333333,70.4
2195,81.06666666666666,-524.8,81.06666666666666
2196,70.4,-516.2666666666667,81.06666666666666
2197,76.8,-514.1333333333333,93.86666666666666
2198,72.53333333333333,-518.4,87.46666666666667
2199,72.53333333333333,-516.2666666666667,87.46666666666667
2200,66.13333333333333,-514.1333333333333,83.2
2201,70.4,-518.4,76.8
2202,72.53333333333333,-518.4,74.66666666666667
2203,72.53333333333333,-512.0,74.66666666666667
2204,68.26666666666667,-514.1333333333333,68.26666666666667
2205,76.8,-516.2666666666667,74.66666666666667
2206,72.53333333333333,-522.6666666666666,72.53333333333333
2207,74.66666666666667,-518.4,70.4
2208,93.86666666666666,-518.4,59.733333333333334
2209,78.93333333333334,-520.5333333333333,72.53333333333333
2210,74.66666666666667,-529.0666666666666,66.13333333333333
2211,70.4,-524.8,70.4
2212,70.4,-522.6666666666666,64.0
2213,68.26666666666667,-522.6666666666666,66.13333333333333
2214,72.53333333333333,-522.6666666666666,66.13333333333333
2215,66.13333333333333,-518.4,70.4
2216,72.53333333333333,-529.0666666666666,55.46666666666667
2217,64.0,-516.2666666666667,57.6
2218,64.0,-520.5333333333333,61.86666666666667
2219,61.86666666666667,-514.1333333333333,49.06666666666666
2220,66.13333333333333,-520.5333333333333,59.733333333333334
2221,68.26666666666667,-522.6666666666666,61.86666666666667
2222,66.13333333333333,-516.2666666666667,51.2
2223,64.0,-520.5333333333333,61.86666666666667
2224,64.0,-524.8,66.13333333333333
2225,66.13333333333333,-531.2,70.4
2226,68.26666666666667,-533.3333333333334,72.53333333333333
2227,64.0,-535.4666666666667,66.13333333333333
2228,59.733333333333334,-531.2,70.4
2229,57.6,-535.4666666666667,72.53333333333333
2230,61.86666666666667,-529.0666666666666,70.4
2231,57.6,-529.0666666666666,72.53333333333333
2232,59.733333333333334,-526.9333333333333,76.8
2233,57.6,-526.9333333333333,64.0
2234,55.46666666666667,-522.6666666666666,59.733333333333334
2235,57.6,-516.2666666666667,57.6
2236,55.46666666666667,-518.4,59.733333333333334
2237,61.86666666666667,-524.8,76.8
2238,64.0,-531.2,66.13333333333333
2239,53.333333333333336,-526.9333333333333,68.26666666666667
2240,57.6,-531.2,68.26666666666667
2241,55.46666666666667,-520.5333333333333,68.26666666666667
2242,57.6,-524.8,66.13333333333333
2243,59.733333333333334,-524.8,66.13333333333333
2244,51.2,-526.9333333333333,61.86666666666667
2245,55.46666666666667,-520.5333333333333,66.13333333333333
2246,64.0,-522.6666666666666,59.733333333333334
2247,53.333333333333336,-512.0,59.733333333333334
2248,66.13333333333333,-522.6666666666666,68.26666666666667
2249,49.06666666666666,-512.0,53.333333333333336
2250,59.733333333333334,-518.4,68.26666666666667
2251,53.333333333333336,-537.6,74.66666666666667
2252,61.86666666666667,-535.4666666666667,78.93333333333334
2253,59.733333333333334,-533.3333333333334,83.2
2254,59.733333333333334,-531.2,76.8
2255,51.2,-531.2,70.4
2256,59.733333333333334,-535.4666666666667,76.8
2257,57.6,-529.0666666666666,70.4
2258,61.86666666666667,-524.8,70.4
2259,59.733333333333334,-531.2,66.13333333333333
2260,53.333333333333336,-524.8,64.0
2261,51.2,-535.4666666666667,53.333333333333336
2262,57.6,-518.4,74.66666666666667
2263,61.86666666666667,-520.5333333333333,81.06666666666666
2264,57.6,-524.8,78.93333333333334
2265,53.333333333333336,-516.2666666666667,72.53333333333333
2266,57.6,-522.6666666666666,76.8
2267,51.2,-520.5333333333333,78.93333333333334
2268,57.6,-520.5333333333333,81.06666666666666
2269,46.93333333333333,-518.4,81.06666666666666
2270,59.733333333333334,-524.8,83.2
2271,53.333333333333336,-518.4,83.2
2272,53.333333333333336,-524.8,74.66666666666667
2273,61.86666666666667,-526.9333333333333,83.2
2274,55.46666666666667,-524.8,81.06666666666666
2275,59.733333333333334,-522.6666666666666,87.46666666666667
2276,59.733333333333334,-516.2666666666667,81.06666666666666
2277,61.86666666666667,-522.6666666666666,78.93333333333334
2278,55.46666666666667,-520.5333333333333,85.33333333333333
2279,55.46666666666667,-520.5333333333333,74.66666666666667
2280,59.733333333333334,-514.1333333333333,78.93333333333334
2281,61.86666666666667,-526.9333333333333,70.4
2282,70.4,-526.9333333333333,81.06666666666666
2283,61.86666666666667,-522.6666666666666,78.93333333333334
2284,64.0,-516.2666666666667,78.93333333333334
2285,57.6,-516.2666666666667,78.93333333333334
2286,53.333333333333336,-516.2666666666667,81.06666666666666
2287,55.46666666666667,-518.4,78.93333333333334
2288,64.0,-522.6666666666666,83.2
2289,66.13333333333333,-520.5333333333333,76.8
2290,66.13333333333333,-524.8,76.8
2291,53.333333333333336,-518.4,70.4
2292,64.0,-516.2666666666667,72.53333333333333
2293,66.13333333333333,-520.5333333333333,78.93333333333334
2294,59.733333333333334,-520.5333333333333,70.4
2295,59.733333333333334,-524.8,72.53333333333333
2296,59.733333333333334,-529.0666666666666,74.66666666666667
2297,57.6,-524.8,74.66666666666667
2298,59.733333333333334,-526.9333333333333,72.53333333333333
2299,59.733333333333334,-529.0666666666666,70.4
2300,53.333333333333336,-520.5333333333333,72.53333333333333
2301,59.733333333333334,-531.2,72.53333333333333
2302,49.06666666666666,-522.6666666666666,70.4
2303,57.6,-529.0666666666666,83.2
2304,57.6,-526.9333333333333,70.4
2305,57.6,-526.9333333333333,81.06666666666666
2306,55.46666666666667,-529.0666666666666,93.86666666666666
2307,53.333333333333336,-533.3333333333334,85.33333333333333
2308,53.333333333333336,-524.8,78.93333333333334
2309,57.6,-520.5333333333333,87.46666666666667
2310,46.93333333333333,-524.8,76.8
2311,51.2,-514.1333333333333,98.13333333333333
2312,46.93333333333333,-514.1333333333333,93.86666666666666
2313,53.333333333333336,-514.1333333333333,76.8
2314,59.733333333333334,-526.9333333333333,81.06666666666666
2315,46.93333333333333,-518.4,78.93333333333334
2316,57.6,-522.6666666666666,76.8
2317,51.2,-520.5333333333333,83.2
2318,57.6,-518.4,81.06666666666666
2319,59.733333333333334,-520.5333333333333,74.66666666666667
2320,59.733333333333334,-526.9333333333333,87.46666666666667
2321,59.733333333333334,-526.9333333333333,85.33333333333333
2322,53.333333333333336,-512.0,78.93333333333334
2323,49.06666666666666,-520.5333333333333,78.93333333333334
2324,55.46666666666667,-516.2666666666667,76.8
2325,55.46666666666667,-524.8,81.06666666666666
2326,51.2,-524.8,98.13333333333333
2327,51.2,-518.4,87.46666666666667
2328,61.86666666666667,-520.5333333333333,87.46666666666667
2329,51.2,-522.6666666666666,87.46666666666667
2330,51.2,-516.2666666666667,87.46666666666667
2331,53.333333333333336,-518.4,83.2
2332,49.06666666666666,-518.4,93.86666666666666
2333,55.46666666666667,-516.2666666666667,89.6
2334,51.2,-518.4,83.2
2335,57.6,-520.5333333333333,87.46666666666667
2336,49.06666666666666,-518.4,87.46666666666667
2337,49.06666666666666,-516.2666666666667,87.46666666666667
2338,53.333333333333336,-516.2666666666667,89.6
2339,49.06666666666666,-514.1333333333333,96.0
2340,57.6,-520.5333333333333,93.86666666666666
2341,57.6,-518.4,83.2
2342,61.86666666666667,-520.5333333333333,87.46666666666667
2343,44.8,-512.0,93.86666666666666
2344,59.733333333333334,-524.8,87.46666666666667
2345,61.86666666666667,-533.3333333333334,87.46666666666667
2346,55.46666666666667,-522.6666666666666,85.33333333333333
2347,51.2,-520.5333333333333,78.93333333333334
2348,57.6,-518.4,87.46666666666667
2349,53.333333333333336,-520.5333333333333,76.8
2350,61.86666666666667,-520.5333333333333,81.06666666666666
2351,57.6,-518.4,78.93333333333334
2352,51.2,-529.0666666666666,76.8
2353,61.86666666666667,-522.6666666666666,74.66666666666667
2354,59.733333333333334,-526.9333333333333,76.8
2355,61.86666666666667,-531.2,81.06666666666666
2356,51.2,-522.6666666666666,85.33333333333333
2357,66.13333333333333,-520.5333333333333,78.93333333333334
2358,55.46666666666667,-520.5333333333333,85.33333333333333
2359,51.2,-524.8,76.8
2360,57.6,-522.6666666666666,81.06666666666666
2361,55.46666666666667,-522.6666666666666,78.93333333333334
2362,51.2,-524.8,91.73333333333333
2363,53.333333333333336,-520.5333333333333,85.33333333333333
2364,53.333333333333336,-524.8,91.73333333333333
2365,57.6,-529.0666666666666,96.0
2366,57.6,-520.5333333333333,78.93333333333334
2367,53.333333333333336,-520.5333333333333,87.46666666666667
2368,53.333333333333336,-520.5333333333333,85.33333333333333
2369,68.26666666666667,-514.1333333333333,74.66666666666667
2370,55.46666666666667,-520.5333333333333,89.6
2371,55.46666666666667,-524.8,87.46666666666667
2372,61.86666666666667,-522.6666666666666,83.2
2373,57.6,-518.4,85.33333333333333
2374,59.733333333333334,-516.2666666666667,85.33333333333333
2375,55.46666666666667,-520.5333333333333,96.0
2376,51.2,-512.0,96.0
2377,66.13333333333333,-514.1333333333333,91.73333333333333
2378,61.86666666666667,-514.1333333333333,87.46666666666667
2379,57.6,-505.59999999999997,81.06666666666666
2380,59.733333333333334,-516.2666666666667,87.46666666666667
2381,57.6,-516.2666666666667,91.73333333333333
2382,61.86666666666667,-520.5333333333333,89.6
2383,64.0,-512.0,87.46666666666667
2384,53.333333333333336,-520.5333333333333,85.33333333333333
2385,55.46666666666667,-507.73333333333335,96.0
2386,57.6,-524.8,87.46666666666667
2387,57.6,-522.6666666666666,85.33333333333333
2388,59.733333333333334,-520.5333333333333,83.2
2389,64.0,-522.6666666666666,87.46666666666667
2390,61.86666666666667,-526.9333333333333,87.46666666666667
2391,57.6,-520.5333333333333,91.73333333333333
2392,61.86666666666667,-518.4,89.6
2393,51.2,-514.1333333333333,89.6
2394,61.86666666666667,-522.6666666666666,91.73333333333333
2395,57.6,-522.6666666666666,96.0
2396,53.333333333333336,-514.1333333333333,96.0
2397,57.6,-518.4,91.73333333333333
2398,57.6,-518.4,93.86666666666666
2399,55.46666666666667,-522.6666666666666,83.2
