,accelerometerAccelerationX(G),accelerometerAccelerationY(G),accelerometerAccelerationZ(G)
0,2.1333333333333333,-529.0666666666666,46.93333333333333
1,2.1333333333333333,-526.9333333333333,55.46666666666667
2,0.0,-524.8,57.6
3,4.266666666666667,-526.9333333333333,61.86666666666667
4,6.4,-529.0666666666666,61.86666666666667
5,0.0,-531.2,61.86666666666667
6,0.0,-531.2,57.6
7,2.1333333333333333,-529.0666666666666,53.333333333333336
8,0.0,-520.5333333333333,51.2
9,0.0,-524.8,55.46666666666667
10,0.0,-524.8,53.333333333333336
11,2.1333333333333333,-526.9333333333333,53.333333333333336
12,2.1333333333333333,-529.0666666666666,55.46666666666667
13,0.0,-524.8,55.46666666666667
14,-6.4,-524.8,53.333333333333336
15,2.1333333333333333,-524.8,64.0
16,2.1333333333333333,-529.0666666666666,61.86666666666667
17,2.1333333333333333,-518.4,55.46666666666667
18,0.0,-529.0666666666666,61.86666666666667
19,0.0,-520.5333333333333,53.333333333333336
20,0.0,-524.8,61.86666666666667
21,-2.1333333333333333,-522.6666666666666,55.46666666666667
22,4.266666666666667,-526.9333333333333,64.0
23,0.0,-526.9333333333333,55.46666666666667
24,0.0,-531.2,59.733333333333334
25,2.1333333333333333,-533.3333333333334,64.0
26,0.0,-526.9333333333333,55.46666666666667
27,0.0,-533.3333333333334,59.733333333333334
28,0.0,-529.0666666666666,46.93333333333333
29,-4.266666666666667,-539.7333333333333,59.733333333333334
30,0.0,-524.8,55.46666666666667
31,0.0,-531.2,53.333333333333336
32,-6.4,-516.2666666666667,61.86666666666667
33,-4.266666666666667,-522.6666666666666,59.733333333333334
34,-2.1333333333333333,-524.8,61.86666666666667
35,0.0,-524.8,55.46666666666667
36,2.1333333333333333,-520.5333333333333,53.333333333333336
37,-2.1333333333333333,-529.0666666666666,66.13333333333333
38,4.266666666666667,-529.0666666666666,55.46666666666667
39,-2.1333333333333333,-531.2,64.0
40,-8.533333333333333,-522.6666666666666,66.13333333333333
41,0.0,-524.8,59.733333333333334
42,0.0,-524.8,68.26666666666667
43,0.0,-531.2,61.86666666666667
44,2.1333333333333333,-524.8,59.733333333333334
45,2.1333333333333333,-526.9333333333333,66.13333333333333
46,-4.266666666666667,-526.9333333333333,61.86666666666667
47,0.0,-526.9333333333333,55.46666666666667
48,0.0,-529.0666666666666,59.733333333333334
49,0.0,-529.0666666666666,61.86666666666667
50,0.0,-522.6666666666666,64.0
51,0.0,-520.5333333333333,64.0
52,0.0,-529.0666666666666,66.13333333333333
53,0.0,-524.8,61.86666666666667
54,0.0,-526.9333333333333,66.13333333333333
55,0.0,-526.9333333333333,59.733333333333334
56,-6.4,-526.9333333333333,64.0
57,0.0,-526.9333333333333,61.86666666666667
58,0.0,-529.0666666666666,57.6
59,0.0,-522.6666666666666,59.733333333333334
60,0.0,-520.5333333333333,66.13333333333333
61,-2.1333333333333333,-522.6666666666666,59.733333333333334
62,0.0,-522.6666666666666,64.0
63,0.0,-524.8,68.26666666666667
64,-2.1333333333333333,-524.8,55.46666666666667
65,8.533333333333333,-529.0666666666666,64.0
66,2.1333333333333333,-529.0666666666666,66.13333333333333
67,2.1333333333333333,-529.0666666666666,57.6
68,8.533333333333333,-529.0666666666666,32.0
69,-2.1333333333333333,-522.6666666666666,70.4
70,2.1333333333333333,-526.9333333333333,57.6
71,0.0,-531.2,64.0
72,0.0,-524.8,55.46666666666667
73,0.0,-531.2,59.733333333333334
74,2.1333333333333333,-529.0666666666666,61.86666666666667
75,0.0,-526.9333333333333,49.06666666666666
76,0.0,-524.8,64.0
77,0.0,-529.0666666666666,61.86666666666667
78,0.0,-522.6666666666666,61.86666666666667
79,-4.266666666666667,-524.8,61.86666666666667
80,2.1333333333333333,-522.6666666666666,55.46666666666667
81,2.1333333333333333,-529.0666666666666,55.46666666666667
82,0.0,-531.2,59.733333333333334
83,4.266666666666667,-524.8,59.733333333333334
84,-4.266666666666667,-526.9333333333333,57.6
85,0.0,-526.9333333333333,55.46666666666667
86,-6.4,-531.2,57.6
87,-2.1333333333333333,-522.6666666666666,66.13333333333333
88,-2.1333333333333333,-526.9333333333333,70.4
89,2.1333333333333333,-531.2,55.46666666666667
90,2.1333333333333333,-533.3333333333334,57.6
91,2.1333333333333333,-529.0666666666666,49.06666666666666
92,2.1333333333333333,-531.2,59.733333333333334
93,-4.266666666666667,-524.8,53.333333333333336
94,0.0,-524.8,66.13333333333333
95,0.0,-526.9333333333333,59.733333333333334
96,-2.1333333333333333,-524.8,59.733333333333334
97,0.0,-524.8,61.86666666666667
98,-2.1333333333333333,-529.0666666666666,59.733333333333334
99,2.1333333333333333,-526.9333333333333,61.86666666666667
100,0.0,-526.9333333333333,72.53333333333333
101,0.0,-522.6666666666666,64.0
102,0.0,-531.2,59.733333333333334
103,0.0,-526.9333333333333,61.86666666666667
104,2.1333333333333333,-526.9333333333333,61.86666666666667
105,0.0,-520.5333333333333,57.6
106,2.1333333333333333,-529.0666666666666,72.53333333333333
107,2.1333333333333333,-526.9333333333333,57.6
108,0.0,-531.2,64.0
109,-2.1333333333333333,-531.2,61.86666666666667
110,4.266666666666667,-524.8,64.0
111,8.533333333333333,-526.9333333333333,59.733333333333334
112,4.266666666666667,-529.0666666666666,49.06666666666666
113,0.0,-520.5333333333333,59.733333333333334
114,2.1333333333333333,-526.9333333333333,61.86666666666667
115,0.0,-526.9333333333333,55.46666666666667
116,12.8,-529.0666666666666,59.733333333333334
117,-2.1333333333333333,-526.9333333333333,57.6
118,0.0,-516.2666666666667,57.6
119,0.0,-526.9333333333333,53.333333333333336
120,0.0,-524.8,64.0
121,0.0,-522.6666666666666,68.26666666666667
122,-4.266666666666667,-533.3333333333334,55.46666666666667
123,2.1333333333333333,-526.9333333333333,61.86666666666667
124,2.1333333333333333,-533.3333333333334,61.86666666666667
125,-10.666666666666666,-522.6666666666666,64.0
126,2.1333333333333333,-529.0666666666666,66.13333333333333
127,4.266666666666667,-529.0666666666666,59.733333333333334
128,-4.266666666666667,-526.9333333333333,64.0
129,0.0,-524.8,59.733333333333334
130,-2.1333333333333333,-524.8,59.733333333333334
131,0.0,-535.4666666666667,59.733333333333334
132,4.266666666666667,-526.9333333333333,72.53333333333333
133,0.0,-529.0666666666666,61.86666666666667
134,0.0,-522.6666666666666,64.0
135,8.533333333333333,-522.6666666666666,61.86666666666667
136,0.0,-524.8,59.733333333333334
137,2.1333333333333333,-524.8,61.86666666666667
138,0.0,-529.0666666666666,64.0
139,4.266666666666667,-520.5333333333333,68.26666666666667
140,0.0,-529.0666666666666,64.0
141,2.1333333333333333,-518.4,64.0
142,0.0,-507.73333333333335,61.86666666666667
143,2.1333333333333333,-526.9333333333333,66.13333333333333
144,0.0,-526.9333333333333,70.4
145,0.0,-520.5333333333333,57.6
146,2.1333333333333333,-524.8,68.26666666666667
147,2.1333333333333333,-520.5333333333333,68.26666666666667
148,0.0,-522.6666666666666,68.26666666666667
149,-2.1333333333333333,-529.0666666666666,66.13333333333333
150,2.1333333333333333,-522.6666666666666,59.733333333333334
151,2.1333333333333333,-520.5333333333333,55.46666666666667
152,-6.4,-524.8,59.733333333333334
153,0.0,-518.4,61.86666666666667
154,0.0,-520.5333333333333,59.733333333333334
155,2.1333333333333333,-524.8,64.0
156,2.1333333333333333,-522.6666666666666,59.733333333333334
157,2.1333333333333333,-524.8,59.733333333333334
158,0.0,-524.8,66.13333333333333
159,0.0,-526.9333333333333,64.0
160,2.1333333333333333,-524.8,66.13333333333333
161,2.1333333333333333,-524.8,74.66666666666667
162,4.266666666666667,-529.0666666666666,59.733333333333334
163,2.1333333333333333,-529.0666666666666,57.6
164,8.533333333333333,-531.2,57.6
165,6.4,-522.6666666666666,57.6
166,0.0,-520.5333333333333,68.26666666666667
167,4.266666666666667,-526.9333333333333,59.733333333333334
168,4.266666666666667,-524.8,59.733333333333334
169,4.266666666666667,-520.5333333333333,59.733333333333334
170,6.4,-526.9333333333333,64.0
171,0.0,-526.9333333333333,55.46666666666667
172,6.4,-524.8,61.86666666666667
173,4.266666666666667,-524.8,55.46666666666667
174,0.0,-516.2666666666667,66.13333333333333
175,0.0,-529.0666666666666,59.733333333333334
176,6.4,-526.9333333333333,61.86666666666667
177,0.0,-526.9333333333333,55.46666666666667
178,0.0,-522.6666666666666,57.6
179,0.0,-526.9333333333333,59.733333333333334
180,6.4,-531.2,59.733333333333334
181,0.0,-529.0666666666666,70.4
182,2.1333333333333333,-529.0666666666666,64.0
183,2.1333333333333333,-529.0666666666666,59.733333333333334
184,-2.1333333333333333,-522.6666666666666,57.6
185,0.0,-531.2,59.733333333333334
186,2.1333333333333333,-529.0666666666666,66.13333333333333
187,2.1333333333333333,-526.9333333333333,61.86666666666667
188,0.0,-526.9333333333333,59.733333333333334
189,0.0,-526.9333333333333,61.86666666666667
190,0.0,-520.5333333333333,57.6
191,2.1333333333333333,-526.9333333333333,61.86666666666667
192,2.1333333333333333,-526.9333333333333,66.13333333333333
193,2.1333333333333333,-529.0666666666666,66.13333333333333
194,4.266666666666667,-524.8,66.13333333333333
195,2.1333333333333333,-520.5333333333333,64.0
196,4.266666666666667,-524.8,64.0
197,2.1333333333333333,-526.9333333333333,57.6
198,6.4,-522.6666666666666,64.0
199,4.266666666666667,-533.3333333333334,64.0
200,6.4,-539.7333333333333,57.6
201,2.1333333333333333,-524.8,61.86666666666667
202,4.266666666666667,-529.0666666666666,59.733333333333334
203,2.1333333333333333,-531.2,72.53333333333333
204,0.0,-529.0666666666666,57.6
205,2.1333333333333333,-526.9333333333333,64.0
206,2.1333333333333333,-526.9333333333333,61.86666666666667
207,2.1333333333333333,-516.2666666666667,55.46666666666667
208,2.1333333333333333,-526.9333333333333,68.26666666666667
209,2.1333333333333333,-520.5333333333333,59.733333333333334
210,0.0,-529.0666666666666,66.13333333333333
211,4.266666666666667,-520.5333333333333,55.46666666666667
212,2.1333333333333333,-524.8,61.86666666666667
213,0.0,-520.5333333333333,61.86666666666667
214,2.1333333333333333,-520.5333333333333,66.13333333333333
215,2.1333333333333333,-522.6666666666666,66.13333333333333
216,4.266666666666667,-531.2,61.86666666666667
217,6.4,-541.8666666666667,78.93333333333334
218,2.1333333333333333,-529.0666666666666,72.53333333333333
219,2.1333333333333333,-529.0666666666666,61.86666666666667
220,4.266666666666667,-531.2,61.86666666666667
221,6.4,-531.2,68.26666666666667
222,8.533333333333333,-529.0666666666666,64.0
223,2.1333333333333333,-526.9333333333333,66.13333333333333
224,4.266666666666667,-526.9333333333333,61.86666666666667
225,2.1333333333333333,-524.8,64.0
226,4.266666666666667,-520.5333333333333,68.26666666666667
227,2.1333333333333333,-524.8,61.86666666666667
228,-4.266666666666667,-518.4,70.4
229,6.4,-533.3333333333334,66.13333333333333
230,0.0,-520.5333333333333,61.86666666666667
231,4.266666666666667,-522.6666666666666,68.26666666666667
232,2.1333333333333333,-522.6666666666666,70.4
233,0.0,-520.5333333333333,66.13333333333333
234,0.0,-518.4,68.26666666666667
235,4.266666666666667,-522.6666666666666,74.66666666666667
236,2.1333333333333333,-522.6666666666666,68.26666666666667
237,0.0,-533.3333333333334,66.13333333333333
238,0.0,-518.4,66.13333333333333
239,4.266666666666667,-531.2,70.4
240,2.1333333333333333,-526.9333333333333,66.13333333333333
241,2.1333333333333333,-518.4,68.26666666666667
242,2.1333333333333333,-524.8,66.13333333333333
243,4.266666666666667,-524.8,66.13333333333333
244,4.266666666666667,-524.8,57.6
245,6.4,-524.8,66.13333333333333
246,4.266666666666667,-529.0666666666666,59.733333333333334
247,0.0,-529.0666666666666,64.0
248,2.1333333333333333,-526.9333333333333,66.13333333333333
249,0.0,-526.9333333333333,66.13333333333333
250,4.266666666666667,-524.8,64.0
251,4.266666666666667,-526.9333333333333,59.733333333333334
252,0.0,-524.8,66.13333333333333
253,0.0,-526.9333333333333,61.86666666666667
254,2.1333333333333333,-531.2,70.4
255,2.1333333333333333,-524.8,70.4
256,4.266666666666667,-526.9333333333333,66.13333333333333
257,0.0,-520.5333333333333,66.13333333333333
258,4.266666666666667,-522.6666666666666,66.13333333333333
259,4.266666666666667,-531.2,66.13333333333333
260,2.1333333333333333,-524.8,66.13333333333333
261,0.0,-520.5333333333333,66.13333333333333
262,2.1333333333333333,-524.8,64.0
263,0.0,-520.5333333333333,64.0
264,2.1333333333333333,-524.8,64.0
265,6.4,-529.0666666666666,66.13333333333333
266,2.1333333333333333,-526.9333333333333,64.0
267,6.4,-520.5333333333333,68.26666666666667
268,0.0,-522.6666666666666,68.26666666666667
269,0.0,-524.8,59.733333333333334
270,0.0,-526.9333333333333,64.0
271,2.1333333333333333,-531.2,66.13333333333333
272,0.0,-524.8,68.26666666666667
273,2.1333333333333333,-531.2,66.13333333333333
274,2.1333333333333333,-522.6666666666666,57.6
275,4.266666666666667,-526.9333333333333,66.13333333333333
276,0.0,-529.0666666666666,61.86666666666667
277,0.0,-518.4,66.13333333333333
278,0.0,-522.6666666666666,61.86666666666667
279,2.1333333333333333,-526.9333333333333,72.53333333333333
280,0.0,-524.8,66.13333333333333
281,4.266666666666667,-520.5333333333333,74.66666666666667
282,-4.266666666666667,-531.2,68.26666666666667
283,0.0,-522.6666666666666,70.4
284,2.1333333333333333,-524.8,57.6
285,0.0,-524.8,61.86666666666667
286,2.1333333333333333,-524.8,59.733333333333334
287,2.1333333333333333,-526.9333333333333,64.0
288,-4.266666666666667,-518.4,66.13333333333333
289,4.266666666666667,-524.8,68.26666666666667
290,4.266666666666667,-526.9333333333333,59.733333333333334
291,4.266666666666667,-531.2,70.4
292,2.1333333333333333,-531.2,64.0
293,0.0,-526.9333333333333,64.0
294,2.1333333333333333,-522.6666666666666,72.53333333333333
295,0.0,-520.5333333333333,66.13333333333333
296,0.0,-526.9333333333333,70.4
297,-2.1333333333333333,-522.6666666666666,57.6
298,-2.1333333333333333,-529.0666666666666,61.86666666666667
299,2.1333333333333333,-526.9333333333333,66.13333333333333
300,0.0,-520.5333333333333,66.13333333333333
301,0.0,-520.5333333333333,61.86666666666667
302,2.1333333333333333,-526.9333333333333,66.13333333333333
303,4.266666666666667,-526.9333333333333,64.0
304,0.0,-524.8,61.86666666666667
305,0.0,-522.6666666666666,68.26666666666667
306,0.0,-526.9333333333333,57.6
307,4.266666666666667,-533.3333333333334,72.53333333333333
308,0.0,-524.8,66.13333333333333
309,2.1333333333333333,-524.8,57.6
310,0.0,-520.5333333333333,72.53333333333333
311,0.0,-529.0666666666666,64.0
312,2.1333333333333333,-526.9333333333333,66.13333333333333
313,4.266666666666667,-524.8,61.86666666666667
314,0.0,-522.6666666666666,66.13333333333333
315,0.0,-526.9333333333333,64.0
316,-4.266666666666667,-529.0666666666666,61.86666666666667
317,2.1333333333333333,-522.6666666666666,59.733333333333334
318,2.1333333333333333,-524.8,64.0
319,2.1333333333333333,-529.0666666666666,59.733333333333334
320,4.266666666666667,-533.3333333333334,57.6
321,0.0,-531.2,64.0
322,4.266666666666667,-531.2,68.26666666666667
323,0.0,-526.9333333333333,66.13333333333333
324,0.0,-524.8,66.13333333333333
325,-4.266666666666667,-526.9333333333333,61.86666666666667
326,6.4,-524.8,57.6
327,0.0,-533.3333333333334,55.46666666666667
328,2.1333333333333333,-526.9333333333333,70.4
329,4.266666666666667,-524.8,61.86666666666667
330,4.266666666666667,-524.8,59.733333333333334
331,2.1333333333333333,-520.5333333333333,59.733333333333334
332,2.1333333333333333,-529.0666666666666,59.733333333333334
333,6.4,-526.9333333333333,66.13333333333333
334,0.0,-522.6666666666666,61.86666666666667
335,4.266666666666667,-524.8,70.4
336,2.1333333333333333,-522.6666666666666,64.0
337,2.1333333333333333,-522.6666666666666,64.0
338,0.0,-526.9333333333333,64.0
339,2.1333333333333333,-526.9333333333333,64.0
340,0.0,-529.0666666666666,64.0
341,4.266666666666667,-526.9333333333333,57.6
342,0.0,-524.8,61.86666666666667
343,12.8,-526.9333333333333,61.86666666666667
344,4.266666666666667,-526.9333333333333,57.6
345,6.4,-531.2,57.6
346,0.0,-529.0666666666666,57.6
347,6.4,-526.9333333333333,61.86666666666667
348,4.266666666666667,-531.2,66.13333333333333
349,2.1333333333333333,-531.2,59.733333333333334
350,0.0,-520.5333333333333,57.6
351,2.1333333333333333,-526.9333333333333,53.333333333333336
352,2.1333333333333333,-531.2,61.86666666666667
353,6.4,-533.3333333333334,61.86666666666667
354,4.266666666666667,-526.9333333333333,53.333333333333336
355,2.1333333333333333,-529.0666666666666,57.6
356,14.933333333333334,-535.4666666666667,68.26666666666667
357,6.4,-529.0666666666666,57.6
358,2.1333333333333333,-531.2,64.0
359,2.1333333333333333,-526.9333333333333,61.86666666666667
360,0.0,-524.8,55.46666666666667
361,2.1333333333333333,-526.9333333333333,66.13333333333333
362,4.266666666666667,-533.3333333333334,64.0
363,4.266666666666667,-522.6666666666666,55.46666666666667
364,-4.266666666666667,-520.5333333333333,64.0
365,2.1333333333333333,-524.8,57.6
366,2.1333333333333333,-518.4,44.8
367,6.4,-533.3333333333334,59.733333333333334
368,2.1333333333333333,-526.9333333333333,61.86666666666667
369,-2.1333333333333333,-520.5333333333333,57.6
370,8.533333333333333,-524.8,57.6
371,2.1333333333333333,-524.8,57.6
372,0.0,-531.2,64.0
373,-2.1333333333333333,-522.6666666666666,61.86666666666667
374,0.0,-529.0666666666666,70.4
375,4.266666666666667,-526.9333333333333,59.733333333333334
376,2.1333333333333333,-529.0666666666666,59.733333333333334
377,0.0,-531.2,59.733333333333334
378,0.0,-522.6666666666666,64.0
379,2.1333333333333333,-529.0666666666666,55.46666666666667
380,4.266666666666667,-524.8,57.6
381,0.0,-531.2,70.4
382,2.1333333333333333,-529.0666666666666,61.86666666666667
383,6.4,-531.2,57.6
384,2.1333333333333333,-520.5333333333333,59.733333333333334
385,2.1333333333333333,-524.8,61.86666666666667
386,4.266666666666667,-533.3333333333334,53.333333333333336
387,6.4,-531.2,57.6
388,0.0,-526.9333333333333,66.13333333333333
389,0.0,-522.6666666666666,61.86666666666667
390,4.266666666666667,-535.4666666666667,55.46666666666667
391,6.4,-529.0666666666666,61.86666666666667
392,2.1333333333333333,-531.2,57.6
393,4.266666666666667,-524.8,59.733333333333334
394,2.1333333333333333,-529.0666666666666,59.733333333333334
395,8.533333333333333,-526.9333333333333,57.6
396,2.1333333333333333,-531.2,59.733333333333334
397,0.0,-533.3333333333334,68.26666666666667
398,2.1333333333333333,-524.8,51.2
399,0.0,-531.2,59.733333333333334
400,2.1333333333333333,-526.9333333333333,66.13333333333333
401,2.1333333333333333,-533.3333333333334,57.6
402,2.1333333333333333,-533.3333333333334,59.733333333333334
403,0.0,-529.0666666666666,70.4
404,2.1333333333333333,-522.6666666666666,55.46666666666667
405,0.0,-526.9333333333333,59.733333333333334
406,0.0,-533.3333333333334,55.46666666666667
407,4.266666666666667,-518.4,55.46666666666667
408,2.1333333333333333,-520.5333333333333,53.333333333333336
409,2.1333333333333333,-522.6666666666666,59.733333333333334
410,6.4,-526.9333333333333,57.6
411,2.1333333333333333,-529.0666666666666,53.333333333333336
412,6.4,-537.6,61.86666666666667
413,10.666666666666666,-526.9333333333333,55.46666666666667
414,4.266666666666667,-529.0666666666666,51.2
415,0.0,-524.8,53.333333333333336
416,2.1333333333333333,-522.6666666666666,53.333333333333336
417,4.266666666666667,-529.0666666666666,51.2
418,2.1333333333333333,-531.2,57.6
419,6.4,-526.9333333333333,53.333333333333336
420,0.0,-541.8666666666667,51.2
421,6.4,-535.4666666666667,51.2
422,10.666666666666666,-499.2,46.93333333333333
423,4.266666666666667,-520.5333333333333,46.93333333333333
424,6.4,-529.0666666666666,57.6
425,-2.1333333333333333,-518.4,53.333333333333336
426,-2.1333333333333333,-522.6666666666666,57.6
427,0.0,-522.6666666666666,57.6
428,0.0,-526.9333333333333,68.26666666666667
429,2.1333333333333333,-529.0666666666666,57.6
430,0.0,-533.3333333333334,66.13333333333333
431,2.1333333333333333,-533.3333333333334,61.86666666666667
432,0.0,-526.9333333333333,61.86666666666667
433,0.0,-526.9333333333333,61.86666666666667
434,0.0,-531.2,68.26666666666667
435,0.0,-529.0666666666666,57.6
436,0.0,-531.2,64.0
437,0.0,-529.0666666666666,68.26666666666667
438,-2.1333333333333333,-524.8,61.86666666666667
439,0.0,-529.0666666666666,61.86666666666667
440,0.0,-529.0666666666666,55.46666666666667
441,0.0,-526.9333333333333,55.46666666666667
442,0.0,-531.2,57.6
443,-2.1333333333333333,-524.8,59.733333333333334
444,0.0,-518.4,59.733333333333334
445,-6.4,-518.4,55.46666666666667
446,2.1333333333333333,-520.5333333333333,66.13333333333333
447,2.1333333333333333,-524.8,70.4
448,-2.1333333333333333,-526.9333333333333,57.6
449,-8.533333333333333,-524.8,70.4
450,-10.666666666666666,-516.2666666666667,68.26666666666667
451,-10.666666666666666,-526.9333333333333,70.4
452,-14.933333333333334,-533.3333333333334,68.26666666666667
453,-6.4,-529.0666666666666,72.53333333333333
454,-21.333333333333332,-531.2,72.53333333333333
455,-14.933333333333334,-529.0666666666666,70.4
456,-21.333333333333332,-529.0666666666666,59.733333333333334
457,-19.2,-535.4666666666667,70.4
458,-21.333333333333332,-531.2,66.13333333333333
459,-21.333333333333332,-529.0666666666666,61.86666666666667
460,-25.6,-529.0666666666666,70.4
461,-25.6,-535.4666666666667,76.8
462,-23.466666666666665,-529.0666666666666,70.4
463,-25.6,-529.0666666666666,66.13333333333333
464,-27.733333333333334,-535.4666666666667,74.66666666666667
465,-25.6,-518.4,76.8
466,-19.2,-522.6666666666666,83.2
467,-27.733333333333334,-531.2,78.93333333333334
468,-23.466666666666665,-522.6666666666666,81.06666666666666
469,-27.733333333333334,-526.9333333333333,74.66666666666667
470,-34.13333333333333,-516.2666666666667,83.2
471,-38.4,-524.8,85.33333333333333
472,-25.6,-524.8,83.2
473,-38.4,-518.4,78.93333333333334
474,-38.4,-520.5333333333333,85.33333333333333
475,-46.93333333333333,-524.8,78.93333333333334
476,-34.13333333333333,-518.4,85.33333333333333
477,-42.666666666666664,-520.5333333333333,83.2
478,-34.13333333333333,-518.4,85.33333333333333
479,-53.333333333333336,-524.8,87.46666666666667
480,-27.733333333333334,-501.3333333333333,89.6
481,-32.0,-514.1333333333333,85.33333333333333
482,-32.0,-518.4,98.13333333333333
483,-32.0,-524.8,89.6
484,-38.4,-531.2,106.66666666666667
485,-21.333333333333332,-512.0,96.0
486,-32.0,-529.0666666666666,104.53333333333333
487,-32.0,-520.5333333333333,98.13333333333333
488,-38.4,-520.5333333333333,100.26666666666667
489,-40.53333333333333,-531.2,98.13333333333333
490,-40.53333333333333,-518.4,108.8
491,-46.93333333333333,-518.4,100.26666666666667
492,-40.53333333333333,-514.1333333333333,102.4
493,-44.8,-512.0,100.26666666666667
494,-68.26666666666667,-522.6666666666666,98.13333333333333
495,-61.86666666666667,-548.2666666666667,104.53333333333333
496,-78.93333333333334,-507.73333333333335,106.66666666666667
497,-59.733333333333334,-558.9333333333333,98.13333333333333
498,-64.0,-486.4,108.8
499,-42.666666666666664,-509.8666666666667,106.66666666666667
500,-64.0,-509.8666666666667,108.8
501,-66.13333333333333,-512.0,104.53333333333333
502,-53.333333333333336,-514.1333333333333,117.33333333333333
503,-66.13333333333333,-516.2666666666667,117.33333333333333
504,-61.86666666666667,-503.46666666666664,117.33333333333333
505,-64.0,-522.6666666666666,117.33333333333333
506,-66.13333333333333,-497.06666666666666,115.2
507,-55.46666666666667,-509.8666666666667,121.6
508,-66.13333333333333,-501.3333333333333,119.46666666666667
509,-59.733333333333334,-512.0,108.8
510,-51.2,-497.06666666666666,96.0
511,-78.93333333333334,-514.1333333333333,102.4
512,-74.66666666666667,-512.0,96.0
513,-68.26666666666667,-514.1333333333333,102.4
514,-74.66666666666667,-514.1333333333333,108.8
515,-70.4,-509.8666666666667,106.66666666666667
516,-68.26666666666667,-533.3333333333334,74.66666666666667
517,-72.53333333333333,-522.6666666666666,108.8
518,-81.06666666666666,-522.6666666666666,115.2
519,-81.06666666666666,-529.0666666666666,113.06666666666666
520,-83.2,-526.9333333333333,117.33333333333333
521,-96.0,-529.0666666666666,121.6
522,-83.2,-529.0666666666666,110.93333333333334
523,-104.53333333333333,-526.9333333333333,117.33333333333333
524,-104.53333333333333,-524.8,125.86666666666666
525,-115.2,-537.6,123.73333333333333
526,-121.6,-524.8,113.06666666666666
527,-113.06666666666666,-518.4,117.33333333333333
528,-125.86666666666666,-505.59999999999997,100.26666666666667
529,-134.4,-505.59999999999997,100.26666666666667
530,-134.4,-501.3333333333333,100.26666666666667
531,-125.86666666666666,-499.2,106.66666666666667
532,-140.8,-490.6666666666667,115.2
533,-142.93333333333334,-490.6666666666667,106.66666666666667
534,-140.8,-482.1333333333333,117.33333333333333
535,-145.06666666666666,-488.5333333333333,123.73333333333333
536,-149.33333333333334,-482.1333333333333,119.46666666666667
537,-153.6,-486.4,119.46666666666667
538,-166.4,-477.8666666666667,117.33333333333333
539,-162.13333333333333,-490.6666666666667,125.86666666666666
540,-155.73333333333332,-473.59999999999997,128.0
541,-172.8,-469.3333333333333,134.4
542,-174.93333333333334,-471.46666666666664,130.13333333333333
543,-177.06666666666666,-475.73333333333335,132.26666666666665
544,-170.66666666666666,-475.73333333333335,128.0
545,-183.46666666666667,-482.1333333333333,125.86666666666666
546,-185.6,-480.0,136.53333333333333
547,-187.73333333333332,-477.8666666666667,128.0
548,-192.0,-471.46666666666664,134.4
549,-209.06666666666666,-462.93333333333334,136.53333333333333
550,-204.8,-450.1333333333333,134.4
551,-211.2,-448.0,140.8
552,-217.6,-443.73333333333335,138.66666666666666
553,-213.33333333333334,-445.8666666666667,138.66666666666666
554,-228.26666666666665,-439.46666666666664,132.26666666666665
555,-224.0,-428.8,138.66666666666666
556,-224.0,-435.2,134.4
557,-209.06666666666666,-433.06666666666666,136.53333333333333
558,-224.0,-428.8,138.66666666666666
559,-224.0,-420.26666666666665,138.66666666666666
560,-241.06666666666666,-420.26666666666665,149.33333333333334
561,-243.2,-413.8666666666667,142.93333333333334
562,-238.93333333333334,-420.26666666666665,147.2
563,-241.06666666666666,-424.5333333333333,142.93333333333334
564,-266.6666666666667,-422.4,151.46666666666667
565,-264.5333333333333,-418.1333333333333,149.33333333333334
566,-279.46666666666664,-409.6,145.06666666666666
567,-270.93333333333334,-407.46666666666664,142.93333333333334
568,-281.6,-409.6,157.86666666666667
569,-283.73333333333335,-407.46666666666664,157.86666666666667
570,-285.8666666666667,-403.2,142.93333333333334
571,-296.5333333333333,-396.8,155.73333333333332
572,-283.73333333333335,-384.0,162.13333333333333
573,-283.73333333333335,-379.73333333333335,166.4
574,-307.2,-379.73333333333335,155.73333333333332
575,-294.4,-373.3333333333333,170.66666666666666
576,-294.4,-371.2,168.53333333333333
577,-298.6666666666667,-377.6,170.66666666666666
578,-298.6666666666667,-381.8666666666667,166.4
579,-300.8,-375.46666666666664,170.66666666666666
580,-311.46666666666664,-384.0,168.53333333333333
581,-311.46666666666664,-390.4,166.4
582,-311.46666666666664,-390.4,162.13333333333333
583,-328.5333333333333,-381.8666666666667,162.13333333333333
584,-326.4,-386.1333333333333,160.0
585,-334.93333333333334,-384.0,157.86666666666667
586,-341.3333333333333,-386.1333333333333,153.6
587,-347.73333333333335,-379.73333333333335,155.73333333333332
588,-358.4,-375.46666666666664,157.86666666666667
589,-381.8666666666667,-379.73333333333335,162.13333333333333
590,-354.1333333333333,-379.73333333333335,155.73333333333332
591,-369.06666666666666,-381.8666666666667,160.0
592,-371.2,-384.0,164.26666666666665
593,-375.46666666666664,-390.4,164.26666666666665
594,-375.46666666666664,-388.26666666666665,162.13333333333333
595,-371.2,-386.1333333333333,164.26666666666665
596,-366.93333333333334,-384.0,162.13333333333333
597,-364.8,-388.26666666666665,153.6
598,-369.06666666666666,-379.73333333333335,147.2
599,-375.46666666666664,-377.6,147.2
600,-369.06666666666666,-377.6,140.8
601,-364.8,-384.0,138.66666666666666
602,-364.8,-381.8666666666667,138.66666666666666
603,-371.2,-373.3333333333333,136.53333333333333
604,-369.06666666666666,-366.93333333333334,130.13333333333333
605,-364.8,-369.06666666666666,134.4
606,-371.2,-362.6666666666667,125.86666666666666
607,-362.6666666666667,-362.6666666666667,125.86666666666666
608,-364.8,-356.26666666666665,128.0
609,-366.93333333333334,-354.1333333333333,121.6
610,-354.1333333333333,-354.1333333333333,121.6
611,-349.8666666666667,-354.1333333333333,117.33333333333333
612,-356.26666666666665,-356.26666666666665,119.46666666666667
613,-352.0,-362.6666666666667,117.33333333333333
614,-356.26666666666665,-362.6666666666667,117.33333333333333
615,-360.5333333333333,-360.5333333333333,102.4
616,-356.26666666666665,-356.26666666666665,108.8
617,-358.4,-364.8,110.93333333333334
618,-358.4,-371.2,104.53333333333333
619,-364.8,-371.2,104.53333333333333
620,-366.93333333333334,-371.2,96.0
621,-366.93333333333334,-369.06666666666666,91.73333333333333
622,-369.06666666666666,-369.06666666666666,104.53333333333333
623,-364.8,-377.6,91.73333333333333
624,-375.46666666666664,-381.8666666666667,102.4
625,-373.3333333333333,-373.3333333333333,113.06666666666666
626,-377.6,-379.73333333333335,113.06666666666666
627,-369.06666666666666,-356.26666666666665,100.26666666666667
628,-381.8666666666667,-358.4,91.73333333333333
629,-384.0,-347.73333333333335,89.6
630,-388.26666666666665,-334.93333333333334,85.33333333333333
631,-386.1333333333333,-341.3333333333333,87.46666666666667
632,-390.4,-334.93333333333334,85.33333333333333
633,-384.0,-320.0,64.0
634,-390.4,-339.2,83.2
635,-388.26666666666665,-334.93333333333334,78.93333333333334
636,-392.5333333333333,-330.6666666666667,81.06666666666666
637,-394.6666666666667,-326.4,81.06666666666666
638,-392.5333333333333,-326.4,76.8
639,-388.26666666666665,-320.0,87.46666666666667
640,-407.46666666666664,-322.1333333333333,83.2
641,-405.3333333333333,-324.26666666666665,78.93333333333334
642,-409.6,-322.1333333333333,78.93333333333334
643,-413.8666666666667,-322.1333333333333,83.2
644,-416.0,-328.5333333333333,81.06666666666666
645,-416.0,-326.4,81.06666666666666
646,-418.1333333333333,-324.26666666666665,78.93333333333334
647,-428.8,-317.8666666666667,78.93333333333334
648,-433.06666666666666,-317.8666666666667,85.33333333333333
649,-439.46666666666664,-309.3333333333333,83.2
650,-441.59999999999997,-309.3333333333333,72.53333333333333
651,-443.73333333333335,-311.46666666666664,83.2
652,-441.59999999999997,-302.93333333333334,78.93333333333334
653,-441.59999999999997,-311.46666666666664,76.8
654,-439.46666666666664,-305.06666666666666,76.8
655,-443.73333333333335,-296.5333333333333,72.53333333333333
656,-443.73333333333335,-298.6666666666667,83.2
657,-441.59999999999997,-296.5333333333333,78.93333333333334
658,-441.59999999999997,-292.26666666666665,85.33333333333333
659,-450.1333333333333,-288.0,76.8
660,-448.0,-283.73333333333335,83.2
661,-443.73333333333335,-273.06666666666666,76.8
662,-450.1333333333333,-268.8,72.53333333333333
663,-456.5333333333333,-266.6666666666667,74.66666666666667
664,-454.4,-262.4,76.8
665,-454.4,-264.5333333333333,64.0
666,-452.26666666666665,-262.4,81.06666666666666
667,-456.5333333333333,-264.5333333333333,72.53333333333333
668,-456.5333333333333,-256.0,70.4
669,-460.8,-253.86666666666667,74.66666666666667
670,-456.5333333333333,-249.6,64.0
671,-469.3333333333333,-247.46666666666667,74.66666666666667
672,-469.3333333333333,-243.2,68.26666666666667
673,-467.2,-243.2,70.4
674,-465.06666666666666,-236.79999999999998,66.13333333333333
675,-465.06666666666666,-245.33333333333334,55.46666666666667
676,-465.06666666666666,-234.66666666666666,66.13333333333333
677,-467.2,-236.79999999999998,57.6
678,-469.3333333333333,-232.53333333333333,66.13333333333333
679,-467.2,-230.4,55.46666666666667
680,-462.93333333333334,-221.86666666666667,55.46666666666667
681,-467.2,-209.06666666666666,53.333333333333336
682,-467.2,-217.6,59.733333333333334
683,-473.59999999999997,-211.2,61.86666666666667
684,-477.8666666666667,-200.53333333333333,57.6
685,-486.4,-206.93333333333334,64.0
686,-488.5333333333333,-202.66666666666666,64.0
687,-490.6666666666667,-198.4,64.0
688,-497.06666666666666,-194.13333333333333,66.13333333333333
689,-494.93333333333334,-194.13333333333333,61.86666666666667
690,-486.4,-185.6,74.66666666666667
691,-499.2,-192.0,74.66666666666667
692,-505.59999999999997,-172.8,64.0
693,-497.06666666666666,-177.06666666666666,57.6
694,-512.0,-162.13333333333333,68.26666666666667
695,-512.0,-160.0,59.733333333333334
696,-505.59999999999997,-157.86666666666667,59.733333333333334
697,-509.8666666666667,-155.73333333333332,57.6
698,-516.2666666666667,-157.86666666666667,57.6
699,-520.5333333333333,-153.6,53.333333333333336
700,-526.9333333333333,-164.26666666666665,51.2
701,-524.8,-157.86666666666667,55.46666666666667
702,-522.6666666666666,-155.73333333333332,55.46666666666667
703,-522.6666666666666,-153.6,57.6
704,-526.9333333333333,-149.33333333333334,61.86666666666667
705,-529.0666666666666,-149.33333333333334,46.93333333333333
706,-524.8,-155.73333333333332,55.46666666666667
707,-533.3333333333334,-147.2,59.733333333333334
708,-520.5333333333333,-142.93333333333334,55.46666666666667
709,-520.5333333333333,-147.2,51.2
710,-516.2666666666667,-151.46666666666667,53.333333333333336
711,-522.6666666666666,-145.06666666666666,59.733333333333334
712,-522.6666666666666,-145.06666666666666,59.733333333333334
713,-529.0666666666666,-140.8,66.13333333333333
714,-533.3333333333334,-136.53333333333333,66.13333333333333
715,-531.2,-142.93333333333334,74.66666666666667
716,-524.8,-142.93333333333334,68.26666666666667
717,-522.6666666666666,-140.8,66.13333333333333
718,-533.3333333333334,-138.66666666666666,66.13333333333333
719,-526.9333333333333,-134.4,74.66666666666667
720,-531.2,-125.86666666666666,81.06666666666666
721,-529.0666666666666,-123.73333333333333,68.26666666666667
722,-526.9333333333333,-108.8,76.8
723,-531.2,-117.33333333333333,87.46666666666667
724,-531.2,-106.66666666666667,81.06666666666666
725,-535.4666666666667,-110.93333333333334,76.8
726,-526.9333333333333,-106.66666666666667,78.93333333333334
727,-535.4666666666667,-106.66666666666667,83.2
728,-537.6,-110.93333333333334,83.2
729,-533.3333333333334,-106.66666666666667,83.2
730,-537.6,-104.53333333333333,81.06666666666666
731,-546.1333333333333,-102.4,74.66666666666667
732,-544.0,-98.13333333333333,83.2
733,-537.6,-102.4,83.2
734,-535.4666666666667,-96.0,85.33333333333333
735,-531.2,-91.73333333333333,78.93333333333334
736,-533.3333333333334,-83.2,87.46666666666667
737,-535.4666666666667,-83.2,87.46666666666667
738,-531.2,-78.93333333333334,91.73333333333333
739,-537.6,-70.4,100.26666666666667
740,-535.4666666666667,-74.66666666666667,104.53333333333333
741,-526.9333333333333,-76.8,100.26666666666667
742,-518.4,-76.8,104.53333333333333
743,-531.2,-78.93333333333334,102.4
744,-529.0666666666666,-83.2,108.8
745,-526.9333333333333,-83.2,96.0
746,-533.3333333333334,-78.93333333333334,93.86666666666666
747,-531.2,-72.53333333333333,96.0
748,-529.0666666666666,-64.0,96.0
749,-531.2,-61.86666666666667,96.0
750,-531.2,-61.86666666666667,98.13333333333333
751,-535.4666666666667,-51.2,96.0
752,-531.2,-53.333333333333336,96.0
753,-537.6,-46.93333333333333,100.26666666666667
754,-539.7333333333333,-44.8,100.26666666666667
755,-544.0,-34.13333333333333,113.06666666666666
756,-541.8666666666667,-34.13333333333333,115.2
757,-544.0,-32.0,123.73333333333333
758,-546.1333333333333,-32.0,121.6
759,-541.8666666666667,-27.733333333333334,119.46666666666667
760,-546.1333333333333,-27.733333333333334,119.46666666666667
761,-544.0,-23.466666666666665,123.73333333333333
762,-552.5333333333333,-25.6,134.4
763,-548.2666666666667,-21.333333333333332,125.86666666666666
764,-552.5333333333333,-17.066666666666666,136.53333333333333
765,-546.1333333333333,-29.866666666666667,130.13333333333333
766,-544.0,-27.733333333333334,140.8
767,-546.1333333333333,-27.733333333333334,132.26666666666665
768,-535.4666666666667,-36.266666666666666,128.0
769,-537.6,-21.333333333333332,130.13333333333333
770,-529.0666666666666,-21.333333333333332,130.13333333333333
771,-539.7333333333333,-21.333333333333332,136.53333333333333
772,-535.4666666666667,-10.666666666666666,136.53333333333333
773,-535.4666666666667,-14.933333333333334,136.53333333333333
774,-548.2666666666667,2.1333333333333333,138.66666666666666
775,-548.2666666666667,0.0,142.93333333333334
776,-552.5333333333333,2.1333333333333333,147.2
777,-548.2666666666667,0.0,151.46666666666667
778,-552.5333333333333,0.0,155.73333333333332
779,-558.9333333333333,2.1333333333333333,153.6
780,-550.4,0.0,160.0
781,-548.2666666666667,4.266666666666667,160.0
782,-548.2666666666667,0.0,157.86666666666667
783,-552.5333333333333,0.0,166.4
784,-552.5333333333333,0.0,168.53333333333333
785,-541.8666666666667,2.1333333333333333,162.13333333333333
786,-544.0,8.533333333333333,172.8
787,-537.6,6.4,172.8
788,-531.2,17.066666666666666,177.06666666666666
789,-518.4,10.666666666666666,177.06666666666666
790,-507.73333333333335,12.8,179.2
791,-512.0,17.066666666666666,179.2
792,-503.46666666666664,6.4,174.93333333333334
793,-497.06666666666666,12.8,174.93333333333334
794,-503.46666666666664,14.933333333333334,170.66666666666666
795,-482.1333333333333,14.933333333333334,174.93333333333334
796,-477.8666666666667,21.333333333333332,189.86666666666667
797,-475.73333333333335,12.8,187.73333333333332
798,-471.46666666666664,17.066666666666666,189.86666666666667
799,-477.8666666666667,17.066666666666666,185.6
800,-482.1333333333333,21.333333333333332,189.86666666666667
801,-484.26666666666665,14.933333333333334,196.26666666666665
802,-477.8666666666667,19.2,189.86666666666667
803,-475.73333333333335,17.066666666666666,198.4
804,-475.73333333333335,8.533333333333333,196.26666666666665
805,-482.1333333333333,14.933333333333334,204.8
806,-486.4,10.666666666666666,198.4
807,-494.93333333333334,8.533333333333333,194.13333333333333
808,-503.46666666666664,10.666666666666666,206.93333333333334
809,-503.46666666666664,12.8,196.26666666666665
810,-512.0,17.066666666666666,189.86666666666667
811,-514.1333333333333,27.733333333333334,181.33333333333334
812,-522.6666666666666,21.333333333333332,181.33333333333334
813,-522.6666666666666,10.666666666666666,168.53333333333333
814,-526.9333333333333,14.933333333333334,170.66666666666666
815,-526.9333333333333,12.8,174.93333333333334
816,-522.6666666666666,14.933333333333334,177.06666666666666
817,-529.0666666666666,27.733333333333334,179.2
818,-522.6666666666666,17.066666666666666,181.33333333333334
819,-522.6666666666666,14.933333333333334,206.93333333333334
820,-526.9333333333333,17.066666666666666,174.93333333333334
821,-518.4,12.8,174.93333333333334
822,-516.2666666666667,8.533333333333333,174.93333333333334
823,-514.1333333333333,8.533333333333333,170.66666666666666
824,-509.8666666666667,4.266666666666667,170.66666666666666
825,-518.4,12.8,174.93333333333334
826,-509.8666666666667,6.4,172.8
827,-509.8666666666667,2.1333333333333333,172.8
828,-512.0,8.533333333333333,168.53333333333333
829,-520.5333333333333,6.4,168.53333333333333
830,-505.59999999999997,6.4,170.66666666666666
831,-503.46666666666664,6.4,160.0
832,-503.46666666666664,10.666666666666666,164.26666666666665
833,-518.4,2.1333333333333333,168.53333333333333
834,-499.2,-4.266666666666667,166.4
835,-494.93333333333334,-4.266666666666667,164.26666666666665
836,-497.06666666666666,-6.4,157.86666666666667
837,-509.8666666666667,-8.533333333333333,168.53333333333333
838,-507.73333333333335,-12.8,174.93333333333334
839,-488.5333333333333,-8.533333333333333,179.2
840,-488.5333333333333,-12.8,172.8
841,-497.06666666666666,-12.8,183.46666666666667
842,-497.06666666666666,-6.4,174.93333333333334
843,-501.3333333333333,0.0,172.8
844,-529.0666666666666,4.266666666666667,170.66666666666666
845,-501.3333333333333,-2.1333333333333333,162.13333333333333
846,-505.59999999999997,6.4,164.26666666666665
847,-526.9333333333333,8.533333333333333,168.53333333333333
848,-505.59999999999997,4.266666666666667,162.13333333333333
849,-524.8,8.533333333333333,157.86666666666667
850,-522.6666666666666,10.666666666666666,153.6
851,-558.9333333333333,12.8,168.53333333333333
852,-541.8666666666667,-2.1333333333333333,172.8
853,-520.5333333333333,-2.1333333333333333,170.66666666666666
854,-535.4666666666667,-6.4,168.53333333333333
855,-531.2,-19.2,168.53333333333333
856,-518.4,-17.066666666666666,166.4
857,-520.5333333333333,-29.866666666666667,155.73333333333332
858,-544.0,-25.6,164.26666666666665
859,-552.5333333333333,-29.866666666666667,164.26666666666665
860,-541.8666666666667,-29.866666666666667,162.13333333333333
861,-522.6666666666666,-27.733333333333334,155.73333333333332
862,-518.4,-29.866666666666667,151.46666666666667
863,-509.8666666666667,-29.866666666666667,153.6
864,-507.73333333333335,-25.6,157.86666666666667
865,-497.06666666666666,-19.2,142.93333333333334
866,-492.8,-14.933333333333334,147.2
867,-492.8,-14.933333333333334,155.73333333333332
868,-497.06666666666666,0.0,153.6
869,-531.2,8.533333333333333,155.73333333333332
870,-529.0666666666666,10.666666666666666,168.53333333333333
871,-529.0666666666666,19.2,168.53333333333333
872,-524.8,21.333333333333332,164.26666666666665
873,-507.73333333333335,19.2,149.33333333333334
874,-518.4,19.2,142.93333333333334
875,-531.2,12.8,138.66666666666666
876,-541.8666666666667,21.333333333333332,155.73333333333332
877,-539.7333333333333,19.2,164.26666666666665
878,-544.0,21.333333333333332,155.73333333333332
879,-541.8666666666667,23.466666666666665,168.53333333333333
880,-541.8666666666667,21.333333333333332,172.8
881,-539.7333333333333,25.6,174.93333333333334
882,-546.1333333333333,29.866666666666667,172.8
883,-550.4,27.733333333333334,164.26666666666665
884,-552.5333333333333,23.466666666666665,170.66666666666666
885,-546.1333333333333,17.066666666666666,172.8
886,-535.4666666666667,21.333333333333332,162.13333333333333
887,-537.6,14.933333333333334,168.53333333333333
888,-531.2,6.4,177.06666666666666
889,-531.2,8.533333333333333,166.4
890,-520.5333333333333,2.1333333333333333,166.4
891,-509.8666666666667,0.0,172.8
892,-503.46666666666664,-2.1333333333333333,170.66666666666666
893,-486.4,-8.533333333333333,164.26666666666665
894,-473.59999999999997,2.1333333333333333,170.66666666666666
895,-477.8666666666667,-19.2,164.26666666666665
896,-486.4,-19.2,168.53333333333333
897,-482.1333333333333,-23.466666666666665,164.26666666666665
898,-486.4,-21.333333333333332,162.13333333333333
899,-482.1333333333333,-25.6,162.13333333333333
900,-492.8,-21.333333333333332,155.73333333333332
901,-490.6666666666667,-23.466666666666665,151.46666666666667
902,-501.3333333333333,-19.2,162.13333333333333
903,-503.46666666666664,-19.2,160.0
904,-501.3333333333333,-10.666666666666666,151.46666666666667
905,-503.46666666666664,-10.666666666666666,140.8
906,-507.73333333333335,0.0,149.33333333333334
907,-512.0,4.266666666666667,157.86666666666667
908,-509.8666666666667,4.266666666666667,162.13333333333333
909,-512.0,6.4,160.0
910,-520.5333333333333,10.666666666666666,151.46666666666667
911,-507.73333333333335,10.666666666666666,172.8
912,-505.59999999999997,4.266666666666667,160.0
913,-497.06666666666666,6.4,160.0
914,-503.46666666666664,0.0,166.4
915,-497.06666666666666,-6.4,168.53333333333333
916,-512.0,-6.4,185.6
917,-503.46666666666664,-17.066666666666666,177.06666666666666
918,-509.8666666666667,-19.2,179.2
919,-509.8666666666667,-21.333333333333332,177.06666666666666
920,-512.0,-27.733333333333334,172.8
921,-514.1333333333333,-27.733333333333334,168.53333333333333
922,-520.5333333333333,-25.6,170.66666666666666
923,-516.2666666666667,-25.6,157.86666666666667
924,-520.5333333333333,-21.333333333333332,164.26666666666665
925,-518.4,-12.8,157.86666666666667
926,-518.4,-8.533333333333333,157.86666666666667
927,-522.6666666666666,-6.4,157.86666666666667
928,-520.5333333333333,-8.533333333333333,153.6
929,-516.2666666666667,-14.933333333333334,157.86666666666667
930,-516.2666666666667,-8.533333333333333,157.86666666666667
931,-516.2666666666667,-8.533333333333333,160.0
932,-526.9333333333333,-8.533333333333333,166.4
933,-518.4,-10.666666666666666,164.26666666666665
934,-526.9333333333333,-10.666666666666666,155.73333333333332
935,-522.6666666666666,-21.333333333333332,164.26666666666665
936,-520.5333333333333,-12.8,164.26666666666665
937,-522.6666666666666,-10.666666666666666,168.53333333333333
938,-522.6666666666666,-8.533333333333333,155.73333333333332
939,-522.6666666666666,-12.8,151.46666666666667
940,-512.0,-17.066666666666666,160.0
941,-518.4,-14.933333333333334,151.46666666666667
942,-514.1333333333333,-8.533333333333333,151.46666666666667
943,-516.2666666666667,-4.266666666666667,151.46666666666667
944,-512.0,-2.1333333333333333,157.86666666666667
945,-509.8666666666667,-10.666666666666666,155.73333333333332
946,-518.4,-6.4,157.86666666666667
947,-518.4,-8.533333333333333,151.46666666666667
948,-516.2666666666667,-8.533333333333333,151.46666666666667
949,-518.4,-4.266666666666667,155.73333333333332
950,-514.1333333333333,-10.666666666666666,151.46666666666667
951,-522.6666666666666,-8.533333333333333,147.2
952,-522.6666666666666,-14.933333333333334,151.46666666666667
953,-526.9333333333333,-14.933333333333334,136.53333333333333
954,-524.8,-4.266666666666667,142.93333333333334
955,-529.0666666666666,-19.2,136.53333333333333
956,-522.6666666666666,-19.2,136.53333333333333
957,-526.9333333333333,-12.8,140.8
958,-529.0666666666666,-12.8,132.26666666666665
959,-535.4666666666667,-21.333333333333332,100.26666666666667
960,-535.4666666666667,-10.666666666666666,134.4
961,-535.4666666666667,0.0,136.53333333333333
962,-531.2,-6.4,132.26666666666665
963,-537.6,-2.1333333333333333,132.26666666666665
964,-544.0,0.0,132.26666666666665
965,-539.7333333333333,-6.4,128.0
966,-544.0,0.0,128.0
967,-544.0,-12.8,128.0
968,-544.0,-2.1333333333333333,121.6
969,-554.6666666666666,-2.1333333333333333,140.8
970,-541.8666666666667,-6.4,113.06666666666666
971,-544.0,-6.4,132.26666666666665
972,-541.8666666666667,-6.4,119.46666666666667
973,-544.0,-12.8,123.73333333333333
974,-539.7333333333333,-17.066666666666666,117.33333333333333
975,-537.6,-12.8,128.0
976,-533.3333333333334,-14.933333333333334,121.6
977,-537.6,-17.066666666666666,121.6
978,-537.6,-8.533333333333333,121.6
979,-535.4666666666667,-6.4,113.06666666666666
980,-537.6,-4.266666666666667,110.93333333333334
981,-533.3333333333334,-8.533333333333333,117.33333333333333
982,-526.9333333333333,-10.666666666666666,113.06666666666666
983,-531.2,-14.933333333333334,110.93333333333334
984,-537.6,-6.4,106.66666666666667
985,-539.7333333333333,-12.8,108.8
986,-529.0666666666666,-6.4,102.4
987,-535.4666666666667,-6.4,108.8
988,-537.6,-6.4,108.8
989,-535.4666666666667,-10.666666666666666,98.13333333333333
990,-533.3333333333334,-8.533333333333333,108.8
991,-533.3333333333334,-12.8,106.66666666666667
992,-539.7333333333333,0.0,113.06666666666666
993,-539.7333333333333,0.0,121.6
994,-531.2,-6.4,113.06666666666666
995,-546.1333333333333,-2.1333333333333333,106.66666666666667
996,-541.8666666666667,-4.266666666666667,110.93333333333334
997,-539.7333333333333,-2.1333333333333333,113.06666666666666
998,-533.3333333333334,0.0,110.93333333333334
999,-541.8666666666667,-2.1333333333333333,113.06666666666666
1000,-541.8666666666667,0.0,110.93333333333334
1001,-541.8666666666667,-4.266666666666667,119.46666666666667
1002,-541.8666666666667,0.0,100.26666666666667
1003,-544.0,0.0,106.66666666666667
1004,-537.6,-6.4,113.06666666666666
1005,-546.1333333333333,-4.266666666666667,102.4
1006,-546.1333333333333,-8.533333333333333,106.66666666666667
1007,-541.8666666666667,-8.533333333333333,104.53333333333333
1008,-537.6,-10.666666666666666,108.8
1009,-539.7333333333333,-10.666666666666666,110.93333333333334
1010,-537.6,-2.1333333333333333,102.4
1011,-546.1333333333333,0.0,110.93333333333334
1012,-541.8666666666667,-12.8,104.53333333333333
1013,-539.7333333333333,-4.266666666666667,102.4
1014,-539.7333333333333,-10.666666666666666,102.4
1015,-537.6,-12.8,98.13333333333333
1016,-552.5333333333333,-4.266666666666667,113.06666666666666
1017,-533.3333333333334,-17.066666666666666,108.8
1018,-537.6,-10.666666666666666,106.66666666666667
1019,-537.6,-17.066666666666666,100.26666666666667
1020,-535.4666666666667,-19.2,100.26666666666667
1021,-535.4666666666667,-21.333333333333332,100.26666666666667
1022,-541.8666666666667,-14.933333333333334,102.4
1023,-539.7333333333333,-14.933333333333334,102.4
1024,-539.7333333333333,-8.533333333333333,96.0
1025,-541.8666666666667,-19.2,104.53333333333333
1026,-535.4666666666667,-8.533333333333333,106.66666666666667
1027,-535.4666666666667,-2.1333333333333333,117.33333333333333
1028,-537.6,-4.266666666666667,110.93333333333334
1029,-533.3333333333334,-10.666666666666666,117.33333333333333
1030,-541.8666666666667,-6.4,113.06666666666666
1031,-533.3333333333334,-4.266666666666667,102.4
1032,-539.7333333333333,-10.666666666666666,119.46666666666667
1033,-544.0,0.0,115.2
1034,-537.6,-12.8,113.06666666666666
1035,-535.4666666666667,-8.533333333333333,108.8
1036,-541.8666666666667,-4.266666666666667,106.66666666666667
1037,-535.4666666666667,-14.933333333333334,110.93333333333334
1038,-531.2,-2.1333333333333333,113.06666666666666
1039,-531.2,0.0,110.93333333333334
1040,-531.2,-4.266666666666667,110.93333333333334
1041,-529.0666666666666,-4.266666666666667,115.2
1042,-541.8666666666667,0.0,115.2
1043,-533.3333333333334,0.0,128.0
1044,-522.6666666666666,-4.266666666666667,87.46666666666667
1045,-531.2,-4.266666666666667,117.33333333333333
1046,-539.7333333333333,0.0,121.6
1047,-533.3333333333334,-4.266666666666667,121.6
1048,-533.3333333333334,0.0,121.6
1049,-531.2,0.0,123.73333333333333
1050,-535.4666666666667,0.0,130.13333333333333
1051,-539.7333333333333,2.1333333333333333,130.13333333333333
1052,-537.6,0.0,123.73333333333333
1053,-531.2,-2.1333333333333333,130.13333333333333
1054,-533.3333333333334,2.1333333333333333,123.73333333333333
1055,-526.9333333333333,-8.533333333333333,123.73333333333333
1056,-535.4666666666667,0.0,128.0
1057,-533.3333333333334,0.0,117.33333333333333
1058,-533.3333333333334,0.0,125.86666666666666
1059,-529.0666666666666,2.1333333333333333,121.6
1060,-524.8,-2.1333333333333333,121.6
1061,-533.3333333333334,-2.1333333333333333,125.86666666666666
1062,-533.3333333333334,0.0,125.86666666666666
1063,-526.9333333333333,-4.266666666666667,125.86666666666666
1064,-526.9333333333333,-4.266666666666667,121.6
1065,-526.9333333333333,-2.1333333333333333,123.73333333333333
1066,-529.0666666666666,-6.4,125.86666666666666
1067,-529.0666666666666,-2.1333333333333333,125.86666666666666
1068,-529.0666666666666,-4.266666666666667,125.86666666666666
1069,-535.4666666666667,-4.266666666666667,125.86666666666666
1070,-533.3333333333334,-4.266666666666667,128.0
1071,-529.0666666666666,-6.4,117.33333333333333
1072,-526.9333333333333,-4.266666666666667,115.2
1073,-529.0666666666666,-4.266666666666667,113.06666666666666
1074,-533.3333333333334,0.0,121.6
1075,-531.2,-2.1333333333333333,125.86666666666666
1076,-531.2,-4.266666666666667,117.33333333333333
1077,-529.0666666666666,-2.1333333333333333,117.33333333333333
1078,-529.0666666666666,0.0,121.6
1079,-526.9333333333333,-6.4,128.0
1080,-524.8,0.0,128.0
1081,-524.8,0.0,125.86666666666666
1082,-529.0666666666666,0.0,121.6
1083,-524.8,0.0,119.46666666666667
1084,-526.9333333333333,0.0,125.86666666666666
1085,-531.2,0.0,123.73333333333333
1086,-529.0666666666666,0.0,125.86666666666666
1087,-535.4666666666667,0.0,121.6
1088,-531.2,-4.266666666666667,123.73333333333333
1089,-529.0666666666666,-10.666666666666666,128.0
1090,-531.2,-2.1333333333333333,125.86666666666666
1091,-531.2,-2.1333333333333333,123.73333333333333
1092,-533.3333333333334,-6.4,119.46666666666667
1093,-529.0666666666666,-2.1333333333333333,113.06666666666666
1094,-537.6,-4.266666666666667,119.46666666666667
1095,-535.4666666666667,0.0,119.46666666666667
1096,-535.4666666666667,-4.266666666666667,115.2
1097,-533.3333333333334,2.1333333333333333,121.6
1098,-537.6,0.0,110.93333333333334
1099,-533.3333333333334,-2.1333333333333333,117.33333333333333
1100,-535.4666666666667,-6.4,115.2
1101,-533.3333333333334,-6.4,119.46666666666667
1102,-539.7333333333333,-4.266666666666667,115.2
1103,-535.4666666666667,-2.1333333333333333,123.73333333333333
1104,-535.4666666666667,0.0,110.93333333333334
1105,-537.6,-6.4,121.6
1106,-537.6,-8.533333333333333,115.2
1107,-539.7333333333333,-2.1333333333333333,110.93333333333334
1108,-537.6,-10.666666666666666,113.06666666666666
1109,-539.7333333333333,-2.1333333333333333,110.93333333333334
1110,-537.6,0.0,106.66666666666667
1111,-537.6,0.0,104.53333333333333
1112,-535.4666666666667,-2.1333333333333333,115.2
1113,-535.4666666666667,0.0,113.06666666666666
1114,-535.4666666666667,-8.533333333333333,115.2
1115,-535.4666666666667,-6.4,110.93333333333334
1116,-539.7333333333333,-6.4,108.8
1117,-537.6,-10.666666666666666,108.8
1118,-533.3333333333334,0.0,104.53333333333333
1119,-531.2,-8.533333333333333,128.0
1120,-533.3333333333334,0.0,115.2
1121,-526.9333333333333,0.0,125.86666666666666
1122,-526.9333333333333,0.0,119.46666666666667
1123,-529.0666666666666,0.0,123.73333333333333
1124,-531.2,0.0,123.73333333333333
1125,-524.8,0.0,115.2
1126,-535.4666666666667,2.1333333333333333,121.6
1127,-535.4666666666667,0.0,119.46666666666667
1128,-529.0666666666666,0.0,132.26666666666665
1129,-524.8,0.0,96.0
1130,-529.0666666666666,4.266666666666667,119.46666666666667
1131,-533.3333333333334,2.1333333333333333,117.33333333333333
1132,-529.0666666666666,6.4,115.2
1133,-533.3333333333334,2.1333333333333333,110.93333333333334
1134,-533.3333333333334,0.0,115.2
1135,-531.2,0.0,119.46666666666667
1136,-533.3333333333334,0.0,115.2
1137,-533.3333333333334,-4.266666666666667,106.66666666666667
1138,-537.6,-6.4,110.93333333333334
1139,-533.3333333333334,0.0,108.8
1140,-531.2,-4.266666666666667,110.93333333333334
1141,-533.3333333333334,-4.266666666666667,108.8
1142,-533.3333333333334,0.0,106.66666666666667
1143,-526.9333333333333,0.0,106.66666666666667
1144,-533.3333333333334,-2.1333333333333333,108.8
1145,-531.2,2.1333333333333333,113.06666666666666
1146,-533.3333333333334,0.0,104.53333333333333
1147,-537.6,0.0,117.33333333333333
1148,-533.3333333333334,2.1333333333333333,121.6
1149,-537.6,4.266666666666667,108.8
1150,-535.4666666666667,-4.266666666666667,117.33333333333333
1151,-537.6,4.266666666666667,113.06666666666666
1152,-537.6,2.1333333333333333,117.33333333333333
1153,-533.3333333333334,0.0,110.93333333333334
1154,-541.8666666666667,2.1333333333333333,113.06666666666666
1155,-541.8666666666667,0.0,110.93333333333334
1156,-533.3333333333334,-4.266666666666667,108.8
1157,-539.7333333333333,2.1333333333333333,104.53333333333333
1158,-535.4666666666667,-4.266666666666667,104.53333333333333
1159,-541.8666666666667,6.4,110.93333333333334
1160,-541.8666666666667,2.1333333333333333,102.4
1161,-537.6,0.0,104.53333333333333
1162,-539.7333333333333,2.1333333333333333,108.8
1163,-533.3333333333334,0.0,100.26666666666667
1164,-535.4666666666667,0.0,102.4
1165,-535.4666666666667,2.1333333333333333,113.06666666666666
1166,-537.6,4.266666666666667,106.66666666666667
1167,-531.2,2.1333333333333333,108.8
1168,-535.4666666666667,4.266666666666667,104.53333333333333
1169,-544.0,-2.1333333333333333,108.8
1170,-537.6,-2.1333333333333333,102.4
1171,-535.4666666666667,2.1333333333333333,115.2
1172,-526.9333333333333,0.0,117.33333333333333
1173,-533.3333333333334,0.0,113.06666666666666
1174,-531.2,0.0,113.06666666666666
1175,-531.2,0.0,117.33333333333333
1176,-535.4666666666667,-4.266666666666667,110.93333333333334
1177,-533.3333333333334,-2.1333333333333333,117.33333333333333
1178,-537.6,0.0,117.33333333333333
1179,-529.0666666666666,-4.266666666666667,108.8
1180,-533.3333333333334,-2.1333333333333333,119.46666666666667
1181,-541.8666666666667,0.0,117.33333333333333
1182,-531.2,0.0,113.06666666666666
1183,-533.3333333333334,-4.266666666666667,108.8
1184,-531.2,0.0,110.93333333333334
1185,-531.2,0.0,108.8
1186,-531.2,0.0,115.2
1187,-539.7333333333333,0.0,115.2
1188,-533.3333333333334,-6.4,106.66666666666667
1189,-529.0666666666666,0.0,110.93333333333334
1190,-526.9333333333333,0.0,115.2
1191,-535.4666666666667,-2.1333333333333333,115.2
1192,-529.0666666666666,0.0,113.06666666666666
1193,-531.2,-2.1333333333333333,110.93333333333334
1194,-526.9333333333333,2.1333333333333333,115.2
1195,-533.3333333333334,-4.266666666666667,113.06666666666666
1196,-531.2,-4.266666666666667,108.8
1197,-533.3333333333334,-2.1333333333333333,115.2
1198,-531.2,0.0,123.73333333333333
1199,-537.6,0.0,121.6
1200,-535.4666666666667,0.0,115.2
1201,-535.4666666666667,0.0,110.93333333333334
1202,-537.6,0.0,113.06666666666666
1203,-533.3333333333334,2.1333333333333333,123.73333333333333
1204,-533.3333333333334,0.0,115.2
1205,-539.7333333333333,4.266666666666667,115.2
1206,-535.4666666666667,0.0,115.2
1207,-535.4666666666667,2.1333333333333333,113.06666666666666
1208,-539.7333333333333,-2.1333333333333333,119.46666666666667
1209,-535.4666666666667,8.533333333333333,115.2
1210,-537.6,2.1333333333333333,113.06666666666666
1211,-533.3333333333334,-2.1333333333333333,113.06666666666666
1212,-526.9333333333333,-2.1333333333333333,113.06666666666666
1213,-535.4666666666667,0.0,106.66666666666667
1214,-537.6,4.266666666666667,115.2
1215,-533.3333333333334,0.0,108.8
1216,-529.0666666666666,2.1333333333333333,115.2
1217,-537.6,0.0,121.6
1218,-533.3333333333334,2.1333333333333333,110.93333333333334
1219,-539.7333333333333,4.266666666666667,115.2
1220,-531.2,0.0,115.2
1221,-535.4666666666667,2.1333333333333333,115.2
1222,-531.2,0.0,113.06666666666666
1223,-526.9333333333333,6.4,113.06666666666666
1224,-537.6,4.266666666666667,110.93333333333334
1225,-531.2,2.1333333333333333,110.93333333333334
1226,-533.3333333333334,0.0,115.2
1227,-526.9333333333333,-6.4,121.6
1228,-529.0666666666666,0.0,117.33333333333333
1229,-529.0666666666666,0.0,115.2
1230,-539.7333333333333,0.0,115.2
1231,-535.4666666666667,0.0,117.33333333333333
1232,-535.4666666666667,2.1333333333333333,128.0
1233,-533.3333333333334,-4.266666666666667,121.6
1234,-526.9333333333333,0.0,121.6
1235,-524.8,0.0,115.2
1236,-539.7333333333333,0.0,115.2
1237,-531.2,0.0,117.33333333333333
1238,-533.3333333333334,2.1333333333333333,117.33333333333333
1239,-537.6,4.266666666666667,119.46666666666667
1240,-539.7333333333333,4.266666666666667,117.33333333333333
1241,-533.3333333333334,0.0,119.46666666666667
1242,-537.6,10.666666666666666,125.86666666666666
1243,-533.3333333333334,0.0,113.06666666666666
1244,-535.4666666666667,4.266666666666667,117.33333333333333
1245,-531.2,-2.1333333333333333,106.66666666666667
1246,-529.0666666666666,-8.533333333333333,123.73333333333333
1247,-535.4666666666667,-2.1333333333333333,117.33333333333333
1248,-531.2,-4.266666666666667,113.06666666666666
1249,-535.4666666666667,0.0,113.06666666666666
1250,-531.2,-4.266666666666667,123.73333333333333
1251,-537.6,0.0,119.46666666666667
1252,-535.4666666666667,2.1333333333333333,113.06666666666666
1253,-524.8,0.0,115.2
1254,-529.0666666666666,-4.266666666666667,106.66666666666667
1255,-526.9333333333333,-8.533333333333333,110.93333333333334
1256,-531.2,0.0,113.06666666666666
1257,-533.3333333333334,0.0,110.93333333333334
1258,-531.2,0.0,117.33333333333333
1259,-526.9333333333333,0.0,117.33333333333333
1260,-533.3333333333334,0.0,115.2
1261,-537.6,0.0,115.2
1262,-533.3333333333334,-10.666666666666666,115.2
1263,-537.6,-6.4,110.93333333333334
1264,-535.4666666666667,0.0,115.2
1265,-526.9333333333333,-6.4,117.33333333333333
1266,-526.9333333333333,0.0,121.6
1267,-537.6,6.4,121.6
1268,-509.8666666666667,0.0,130.13333333333333
1269,-537.6,0.0,123.73333333333333
1270,-533.3333333333334,2.1333333333333333,117.33333333333333
1271,-531.2,0.0,125.86666666666666
1272,-535.4666666666667,4.266666666666667,121.6
1273,-531.2,2.1333333333333333,123.73333333333333
1274,-535.4666666666667,2.1333333333333333,117.33333333333333
1275,-533.3333333333334,2.1333333333333333,119.46666666666667
1276,-520.5333333333333,2.1333333333333333,115.2
1277,-522.6666666666666,2.1333333333333333,117.33333333333333
1278,-533.3333333333334,2.1333333333333333,121.6
1279,-531.2,0.0,115.2
1280,-529.0666666666666,0.0,130.13333333333333
1281,-537.6,2.1333333333333333,123.73333333333333
1282,-535.4666666666667,2.1333333333333333,115.2
1283,-529.0666666666666,0.0,119.46666666666667
1284,-537.6,0.0,119.46666666666667
1285,-531.2,0.0,119.46666666666667
1286,-529.0666666666666,2.1333333333333333,123.73333333333333
1287,-531.2,0.0,121.6
1288,-531.2,0.0,113.06666666666666
1289,-529.0666666666666,0.0,117.33333333333333
1290,-529.0666666666666,4.266666666666667,115.2
1291,-529.0666666666666,0.0,117.33333333333333
1292,-529.0666666666666,2.1333333333333333,119.46666666666667
1293,-531.2,2.1333333333333333,121.6
1294,-531.2,2.1333333333333333,121.6
1295,-535.4666666666667,2.1333333333333333,123.73333333333333
1296,-529.0666666666666,2.1333333333333333,123.73333333333333
1297,-533.3333333333334,0.0,125.86666666666666
1298,-539.7333333333333,2.1333333333333333,119.46666666666667
1299,-531.2,2.1333333333333333,117.33333333333333
1300,-539.7333333333333,0.0,115.2
1301,-539.7333333333333,0.0,115.2
1302,-529.0666666666666,-4.266666666666667,117.33333333333333
1303,-539.7333333333333,0.0,125.86666666666666
1304,-533.3333333333334,0.0,119.46666666666667
1305,-537.6,0.0,121.6
1306,-531.2,6.4,121.6
1307,-535.4666666666667,2.1333333333333333,121.6
1308,-531.2,0.0,121.6
1309,-533.3333333333334,0.0,117.33333333333333
1310,-533.3333333333334,0.0,113.06666666666666
1311,-533.3333333333334,4.266666666666667,123.73333333333333
1312,-533.3333333333334,2.1333333333333333,119.46666666666667
1313,-529.0666666666666,0.0,117.33333333333333
1314,-529.0666666666666,0.0,117.33333333333333
1315,-531.2,2.1333333333333333,125.86666666666666
1316,-531.2,0.0,121.6
1317,-533.3333333333334,0.0,128.0
1318,-533.3333333333334,4.266666666666667,115.2
1319,-529.0666666666666,4.266666666666667,119.46666666666667
1320,-529.0666666666666,2.1333333333333333,121.6
1321,-535.4666666666667,0.0,121.6
1322,-524.8,0.0,121.6
1323,-531.2,4.266666666666667,110.93333333333334
1324,-529.0666666666666,4.266666666666667,117.33333333333333
1325,-535.4666666666667,0.0,113.06666666666666
1326,-526.9333333333333,0.0,115.2
1327,-537.6,4.266666666666667,119.46666666666667
1328,-529.0666666666666,0.0,121.6
1329,-531.2,-4.266666666666667,121.6
1330,-526.9333333333333,4.266666666666667,121.6
1331,-535.4666666666667,0.0,121.6
1332,-537.6,0.0,125.86666666666666
1333,-533.3333333333334,0.0,117.33333333333333
1334,-533.3333333333334,0.0,123.73333333333333
1335,-533.3333333333334,-4.266666666666667,121.6
1336,-533.3333333333334,0.0,128.0
1337,-533.3333333333334,0.0,123.73333333333333
1338,-531.2,0.0,119.46666666666667
1339,-535.4666666666667,4.266666666666667,115.2
1340,-535.4666666666667,2.1333333333333333,130.13333333333333
1341,-531.2,2.1333333333333333,125.86666666666666
1342,-535.4666666666667,4.266666666666667,121.6
1343,-533.3333333333334,2.1333333333333333,125.86666666666666
1344,-529.0666666666666,0.0,119.46666666666667
1345,-533.3333333333334,0.0,119.46666666666667
1346,-533.3333333333334,0.0,128.0
1347,-533.3333333333334,8.533333333333333,113.06666666666666
1348,-539.7333333333333,4.266666666666667,123.73333333333333
1349,-533.3333333333334,2.1333333333333333,128.0
1350,-522.6666666666666,0.0,130.13333333333333
1351,-531.2,-2.1333333333333333,123.73333333333333
1352,-535.4666666666667,2.1333333333333333,125.86666666666666
1353,-539.7333333333333,-10.666666666666666,130.13333333333333
1354,-533.3333333333334,0.0,117.33333333333333
1355,-533.3333333333334,2.1333333333333333,123.73333333333333
1356,-526.9333333333333,0.0,130.13333333333333
1357,-531.2,0.0,123.73333333333333
1358,-535.4666666666667,0.0,119.46666666666667
1359,-535.4666666666667,2.1333333333333333,128.0
1360,-531.2,0.0,132.26666666666665
1361,-533.3333333333334,2.1333333333333333,119.46666666666667
1362,-529.0666666666666,-2.1333333333333333,123.73333333333333
1363,-529.0666666666666,0.0,123.73333333333333
1364,-531.2,-2.1333333333333333,123.73333333333333
1365,-535.4666666666667,0.0,123.73333333333333
1366,-537.6,4.266666666666667,130.13333333333333
1367,-535.4666666666667,2.1333333333333333,125.86666666666666
1368,-535.4666666666667,0.0,132.26666666666665
1369,-535.4666666666667,0.0,121.6
1370,-531.2,2.1333333333333333,117.33333333333333
1371,-533.3333333333334,0.0,121.6
1372,-533.3333333333334,2.1333333333333333,119.46666666666667
1373,-539.7333333333333,6.4,123.73333333333333
1374,-535.4666666666667,4.266666666666667,121.6
1375,-529.0666666666666,2.1333333333333333,115.2
1376,-531.2,2.1333333333333333,128.0
1377,-537.6,0.0,121.6
1378,-533.3333333333334,4.266666666666667,113.06666666666666
1379,-533.3333333333334,0.0,130.13333333333333
1380,-531.2,0.0,117.33333333333333
1381,-529.0666666666666,2.1333333333333333,123.73333333333333
1382,-529.0666666666666,0.0,121.6
1383,-533.3333333333334,2.1333333333333333,123.73333333333333
1384,-533.3333333333334,0.0,119.46666666666667
1385,-535.4666666666667,-2.1333333333333333,113.06666666666666
1386,-531.2,8.533333333333333,125.86666666666666
1387,-526.9333333333333,4.266666666666667,119.46666666666667
1388,-531.2,2.1333333333333333,128.0
1389,-533.3333333333334,10.666666666666666,121.6
1390,-535.4666666666667,4.266666666666667,121.6
1391,-535.4666666666667,4.266666666666667,125.86666666666666
1392,-533.3333333333334,4.266666666666667,117.33333333333333
1393,-535.4666666666667,2.1333333333333333,132.26666666666665
1394,-533.3333333333334,4.266666666666667,121.6
1395,-531.2,4.266666666666667,128.0
1396,-524.8,0.0,125.86666666666666
1397,-533.3333333333334,-2.1333333333333333,125.86666666666666
1398,-531.2,2.1333333333333333,128.0
1399,-535.4666666666667,2.1333333333333333,132.26666666666665
1400,-533.3333333333334,2.1333333333333333,125.86666666666666
1401,-533.3333333333334,-2.1333333333333333,123.73333333333333
1402,-531.2,2.1333333333333333,128.0
1403,-535.4666666666667,2.1333333333333333,130.13333333333333
1404,-535.4666666666667,4.266666666666667,128.0
1405,-535.4666666666667,2.1333333333333333,125.86666666666666
1406,-526.9333333333333,0.0,117.33333333333333
1407,-533.3333333333334,14.933333333333334,119.46666666666667
1408,-531.2,2.1333333333333333,123.73333333333333
1409,-535.4666666666667,2.1333333333333333,123.73333333333333
1410,-529.0666666666666,0.0,128.0
1411,-529.0666666666666,4.266666666666667,125.86666666666666
1412,-533.3333333333334,4.266666666666667,113.06666666666666
1413,-535.4666666666667,2.1333333333333333,117.33333333333333
1414,-533.3333333333334,0.0,115.2
1415,-526.9333333333333,-2.1333333333333333,121.6
1416,-526.9333333333333,4.266666666666667,119.46666666666667
1417,-520.5333333333333,23.466666666666665,130.13333333333333
1418,-531.2,0.0,128.0
1419,-533.3333333333334,2.1333333333333333,125.86666666666666
1420,-533.3333333333334,0.0,123.73333333333333
1421,-533.3333333333334,8.533333333333333,121.6
1422,-531.2,4.266666666666667,119.46666666666667
1423,-529.0666666666666,4.266666666666667,125.86666666666666
1424,-529.0666666666666,0.0,125.86666666666666
1425,-537.6,0.0,119.46666666666667
1426,-533.3333333333334,4.266666666666667,121.6
1427,-524.8,0.0,123.73333333333333
1428,-524.8,4.266666666666667,128.0
1429,-524.8,0.0,121.6
1430,-529.0666666666666,0.0,123.73333333333333
1431,-537.6,2.1333333333333333,121.6
1432,-539.7333333333333,0.0,121.6
1433,-537.6,2.1333333333333333,117.33333333333333
1434,-535.4666666666667,2.1333333333333333,121.6
1435,-533.3333333333334,0.0,123.73333333333333
1436,-529.0666666666666,2.1333333333333333,130.13333333333333
1437,-535.4666666666667,0.0,121.6
1438,-537.6,14.933333333333334,121.6
1439,-539.7333333333333,2.1333333333333333,121.6
1440,-531.2,6.4,119.46666666666667
1441,-524.8,2.1333333333333333,125.86666666666666
1442,-537.6,6.4,125.86666666666666
1443,-531.2,0.0,121.6
1444,-533.3333333333334,0.0,125.86666666666666
1445,-533.3333333333334,2.1333333333333333,123.73333333333333
1446,-533.3333333333334,0.0,123.73333333333333
1447,-533.3333333333334,2.1333333333333333,125.86666666666666
1448,-533.3333333333334,2.1333333333333333,130.13333333333333
1449,-533.3333333333334,0.0,121.6
1450,-529.0666666666666,0.0,123.73333333333333
1451,-533.3333333333334,6.4,121.6
1452,-533.3333333333334,0.0,119.46666666666667
1453,-533.3333333333334,4.266666666666667,123.73333333333333
1454,-529.0666666666666,2.1333333333333333,117.33333333333333
1455,-533.3333333333334,2.1333333333333333,121.6
1456,-529.0666666666666,6.4,119.46666666666667
1457,-535.4666666666667,2.1333333333333333,115.2
1458,-529.0666666666666,0.0,125.86666666666666
1459,-531.2,2.1333333333333333,123.73333333333333
1460,-529.0666666666666,0.0,119.46666666666667
1461,-524.8,-6.4,115.2
1462,-529.0666666666666,0.0,125.86666666666666
1463,-535.4666666666667,2.1333333333333333,130.13333333333333
1464,-535.4666666666667,0.0,128.0
1465,-531.2,2.1333333333333333,121.6
1466,-529.0666666666666,2.1333333333333333,128.0
1467,-533.3333333333334,2.1333333333333333,125.86666666666666
1468,-526.9333333333333,4.266666666666667,123.73333333333333
1469,-522.6666666666666,0.0,123.73333333333333
1470,-531.2,6.4,128.0
1471,-537.6,2.1333333333333333,128.0
1472,-531.2,4.266666666666667,121.6
1473,-529.0666666666666,0.0,125.86666666666666
1474,-533.3333333333334,0.0,121.6
1475,-533.3333333333334,0.0,121.6
1476,-524.8,0.0,121.6
1477,-531.2,2.1333333333333333,125.86666666666666
1478,-535.4666666666667,2.1333333333333333,132.26666666666665
1479,-533.3333333333334,2.1333333333333333,121.6
1480,-531.2,2.1333333333333333,125.86666666666666
1481,-533.3333333333334,0.0,123.73333333333333
1482,-531.2,2.1333333333333333,128.0
1483,-535.4666666666667,2.1333333333333333,132.26666666666665
1484,-533.3333333333334,4.266666666666667,123.73333333333333
1485,-531.2,4.266666666666667,123.73333333333333
1486,-529.0666666666666,4.266666666666667,121.6
1487,-535.4666666666667,4.266666666666667,121.6
1488,-531.2,8.533333333333333,121.6
1489,-535.4666666666667,0.0,132.26666666666665
1490,-529.0666666666666,0.0,123.73333333333333
1491,-529.0666666666666,0.0,132.26666666666665
1492,-522.6666666666666,2.1333333333333333,123.73333333333333
1493,-533.3333333333334,0.0,119.46666666666667
1494,-533.3333333333334,2.1333333333333333,125.86666666666666
1495,-537.6,0.0,130.13333333333333
1496,-533.3333333333334,0.0,115.2
1497,-533.3333333333334,2.1333333333333333,121.6
1498,-531.2,0.0,115.2
1499,-531.2,2.1333333333333333,128.0
1500,-535.4666666666667,4.266666666666667,125.86666666666666
1501,-533.3333333333334,2.1333333333333333,125.86666666666666
1502,-539.7333333333333,2.1333333333333333,125.86666666666666
1503,-537.6,4.266666666666667,121.6
1504,-539.7333333333333,2.1333333333333333,125.86666666666666
1505,-535.4666666666667,2.1333333333333333,121.6
1506,-535.4666666666667,6.4,119.46666666666667
1507,-529.0666666666666,0.0,119.46666666666667
1508,-535.4666666666667,4.266666666666667,117.33333333333333
1509,-535.4666666666667,0.0,125.86666666666666
1510,-531.2,6.4,130.13333333333333
1511,-529.0666666666666,2.1333333333333333,130.13333333333333
1512,-533.3333333333334,2.1333333333333333,132.26666666666665
1513,-524.8,4.266666666666667,125.86666666666666
1514,-529.0666666666666,0.0,125.86666666666666
1515,-526.9333333333333,2.1333333333333333,121.6
1516,-526.9333333333333,0.0,121.6
1517,-533.3333333333334,4.266666666666667,134.4
1518,-529.0666666666666,2.1333333333333333,125.86666666666666
1519,-537.6,2.1333333333333333,128.0
1520,-537.6,2.1333333333333333,119.46666666666667
1521,-535.4666666666667,6.4,125.86666666666666
1522,-529.0666666666666,2.1333333333333333,130.13333333333333
1523,-535.4666666666667,4.266666666666667,123.73333333333333
1524,-533.3333333333334,0.0,123.73333333333333
1525,-529.0666666666666,10.666666666666666,123.73333333333333
1526,-533.3333333333334,0.0,123.73333333333333
1527,-533.3333333333334,2.1333333333333333,125.86666666666666
1528,-526.9333333333333,2.1333333333333333,130.13333333333333
1529,-531.2,4.266666666666667,125.86666666666666
1530,-531.2,2.1333333333333333,123.73333333333333
1531,-539.7333333333333,4.266666666666667,128.0
1532,-531.2,-4.266666666666667,130.13333333333333
1533,-531.2,0.0,125.86666666666666
1534,-533.3333333333334,-2.1333333333333333,123.73333333333333
1535,-535.4666666666667,0.0,119.46666666666667
1536,-541.8666666666667,0.0,130.13333333333333
1537,-537.6,-2.1333333333333333,123.73333333333333
1538,-537.6,-6.4,125.86666666666666
1539,-537.6,-2.1333333333333333,128.0
1540,-535.4666666666667,-4.266666666666667,128.0
1541,-541.8666666666667,-2.1333333333333333,125.86666666666666
1542,-535.4666666666667,-10.666666666666666,132.26666666666665
1543,-533.3333333333334,-2.1333333333333333,130.13333333333333
1544,-537.6,-6.4,119.46666666666667
1545,-533.3333333333334,0.0,123.73333333333333
1546,-533.3333333333334,-4.266666666666667,125.86666666666666
1547,-533.3333333333334,-2.1333333333333333,117.33333333333333
1548,-531.2,0.0,125.86666666666666
1549,-535.4666666666667,0.0,125.86666666666666
1550,-533.3333333333334,-2.1333333333333333,121.6
1551,-531.2,0.0,121.6
1552,-520.5333333333333,2.1333333333333333,125.86666666666666
1553,-529.0666666666666,0.0,130.13333333333333
1554,-535.4666666666667,4.266666666666667,123.73333333333333
1555,-535.4666666666667,6.4,123.73333333333333
1556,-535.4666666666667,0.0,132.26666666666665
1557,-535.4666666666667,6.4,132.26666666666665
1558,-537.6,2.1333333333333333,128.0
1559,-541.8666666666667,-2.1333333333333333,134.4
1560,-541.8666666666667,0.0,132.26666666666665
1561,-544.0,-4.266666666666667,128.0
1562,-546.1333333333333,0.0,121.6
1563,-546.1333333333333,-2.1333333333333333,125.86666666666666
1564,-541.8666666666667,-8.533333333333333,121.6
1565,-548.2666666666667,-10.666666666666666,125.86666666666666
1566,-541.8666666666667,-8.533333333333333,117.33333333333333
1567,-544.0,0.0,128.0
1568,-546.1333333333333,-10.666666666666666,123.73333333333333
1569,-548.2666666666667,-10.666666666666666,132.26666666666665
1570,-546.1333333333333,-8.533333333333333,117.33333333333333
1571,-546.1333333333333,-2.1333333333333333,121.6
1572,-546.1333333333333,-12.8,115.2
1573,-544.0,-14.933333333333334,128.0
1574,-541.8666666666667,-6.4,128.0
1575,-541.8666666666667,-17.066666666666666,125.86666666666666
1576,-535.4666666666667,-19.2,125.86666666666666
1577,-535.4666666666667,-10.666666666666666,121.6
1578,-537.6,-10.666666666666666,138.66666666666666
1579,-533.3333333333334,-8.533333333333333,130.13333333333333
1580,-539.7333333333333,-4.266666666666667,130.13333333333333
1581,-541.8666666666667,-8.533333333333333,125.86666666666666
1582,-535.4666666666667,-10.666666666666666,125.86666666666666
1583,-537.6,-4.266666666666667,119.46666666666667
1584,-544.0,-4.266666666666667,121.6
1585,-537.6,-6.4,119.46666666666667
1586,-539.7333333333333,-10.666666666666666,113.06666666666666
1587,-539.7333333333333,-12.8,110.93333333333334
1588,-541.8666666666667,-8.533333333333333,110.93333333333334
1589,-537.6,-10.666666666666666,100.26666666666667
1590,-541.8666666666667,0.0,108.8
1591,-544.0,-2.1333333333333333,108.8
1592,-544.0,0.0,119.46666666666667
1593,-541.8666666666667,0.0,110.93333333333334
1594,-537.6,12.8,123.73333333333333
1595,-539.7333333333333,10.666666666666666,121.6
1596,-537.6,14.933333333333334,125.86666666666666
1597,-539.7333333333333,12.8,128.0
1598,-537.6,14.933333333333334,121.6
1599,-535.4666666666667,14.933333333333334,119.46666666666667
1600,-531.2,12.8,125.86666666666666
1601,-529.0666666666666,17.066666666666666,119.46666666666667
1602,-537.6,19.2,130.13333333333333
1603,-524.8,14.933333333333334,123.73333333333333
1604,-524.8,19.2,140.8
1605,-514.1333333333333,8.533333333333333,132.26666666666665
1606,-512.0,6.4,134.4
1607,-514.1333333333333,8.533333333333333,142.93333333333334
1608,-509.8666666666667,21.333333333333332,147.2
1609,-512.0,6.4,149.33333333333334
1610,-509.8666666666667,17.066666666666666,149.33333333333334
1611,-518.4,17.066666666666666,145.06666666666666
1612,-520.5333333333333,14.933333333333334,147.2
1613,-512.0,8.533333333333333,145.06666666666666
1614,-512.0,4.266666666666667,153.6
1615,-509.8666666666667,2.1333333333333333,151.46666666666667
1616,-509.8666666666667,2.1333333333333333,149.33333333333334
1617,-505.59999999999997,2.1333333333333333,160.0
1618,-509.8666666666667,-6.4,145.06666666666666
1619,-507.73333333333335,0.0,155.73333333333332
1620,-512.0,-12.8,153.6
1621,-505.59999999999997,-12.8,142.93333333333334
1622,-507.73333333333335,-17.066666666666666,155.73333333333332
1623,-505.59999999999997,-17.066666666666666,155.73333333333332
1624,-505.59999999999997,-14.933333333333334,157.86666666666667
1625,-512.0,-6.4,149.33333333333334
1626,-503.46666666666664,-14.933333333333334,149.33333333333334
1627,-503.46666666666664,-6.4,149.33333333333334
1628,-505.59999999999997,-10.666666666666666,160.0
1629,-514.1333333333333,-4.266666666666667,155.73333333333332
1630,-516.2666666666667,-2.1333333333333333,155.73333333333332
1631,-497.06666666666666,8.533333333333333,162.13333333333333
1632,-514.1333333333333,0.0,164.26666666666665
1633,-512.0,4.266666666666667,168.53333333333333
1634,-507.73333333333335,2.1333333333333333,166.4
1635,-503.46666666666664,6.4,168.53333333333333
1636,-514.1333333333333,-2.1333333333333333,174.93333333333334
1637,-512.0,8.533333333333333,174.93333333333334
1638,-501.3333333333333,4.266666666666667,166.4
1639,-501.3333333333333,2.1333333333333333,170.66666666666666
1640,-497.06666666666666,-4.266666666666667,172.8
1641,-509.8666666666667,4.266666666666667,170.66666666666666
1642,-512.0,4.266666666666667,172.8
1643,-514.1333333333333,4.266666666666667,170.66666666666666
1644,-514.1333333333333,10.666666666666666,185.6
1645,-514.1333333333333,12.8,174.93333333333334
1646,-518.4,14.933333333333334,177.06666666666666
1647,-516.2666666666667,12.8,168.53333333333333
1648,-522.6666666666666,10.666666666666666,164.26666666666665
1649,-529.0666666666666,0.0,166.4
1650,-524.8,4.266666666666667,160.0
1651,-526.9333333333333,2.1333333333333333,162.13333333333333
1652,-529.0666666666666,2.1333333333333333,168.53333333333333
1653,-529.0666666666666,0.0,164.26666666666665
1654,-533.3333333333334,0.0,166.4
1655,-531.2,-4.266666666666667,153.6
1656,-526.9333333333333,-10.666666666666666,157.86666666666667
1657,-524.8,-8.533333333333333,155.73333333333332
1658,-518.4,2.1333333333333333,157.86666666666667
1659,-516.2666666666667,0.0,155.73333333333332
1660,-520.5333333333333,10.666666666666666,151.46666666666667
1661,-509.8666666666667,10.666666666666666,151.46666666666667
1662,-512.0,0.0,155.73333333333332
1663,-509.8666666666667,0.0,174.93333333333334
1664,-514.1333333333333,2.1333333333333333,183.46666666666667
1665,-518.4,-6.4,174.93333333333334
1666,-518.4,0.0,157.86666666666667
1667,-533.3333333333334,-12.8,157.86666666666667
1668,-529.0666666666666,-21.333333333333332,164.26666666666665
1669,-529.0666666666666,-21.333333333333332,153.6
1670,-544.0,-21.333333333333332,162.13333333333333
1671,-535.4666666666667,-17.066666666666666,155.73333333333332
1672,-533.3333333333334,-8.533333333333333,153.6
1673,-535.4666666666667,0.0,153.6
1674,-535.4666666666667,2.1333333333333333,155.73333333333332
1675,-531.2,12.8,149.33333333333334
1676,-548.2666666666667,14.933333333333334,151.46666666666667
1677,-541.8666666666667,19.2,142.93333333333334
1678,-544.0,23.466666666666665,147.2
1679,-544.0,21.333333333333332,151.46666666666667
1680,-539.7333333333333,17.066666666666666,147.2
1681,-537.6,23.466666666666665,145.06666666666666
1682,-548.2666666666667,14.933333333333334,153.6
1683,-546.1333333333333,12.8,149.33333333333334
1684,-541.8666666666667,12.8,142.93333333333334
1685,-535.4666666666667,0.0,140.8
1686,-533.3333333333334,2.1333333333333333,138.66666666666666
1687,-520.5333333333333,-2.1333333333333333,142.93333333333334
1688,-514.1333333333333,0.0,145.06666666666666
1689,-514.1333333333333,0.0,136.53333333333333
1690,-516.2666666666667,2.1333333333333333,147.2
1691,-512.0,0.0,142.93333333333334
1692,-509.8666666666667,-2.1333333333333333,138.66666666666666
1693,-507.73333333333335,-2.1333333333333333,140.8
1694,-512.0,-4.266666666666667,149.33333333333334
1695,-512.0,-14.933333333333334,151.46666666666667
1696,-512.0,-2.1333333333333333,149.33333333333334
1697,-518.4,-14.933333333333334,153.6
1698,-520.5333333333333,-12.8,140.8
1699,-512.0,-6.4,153.6
1700,-509.8666666666667,-19.2,164.26666666666665
1701,-509.8666666666667,-25.6,166.4
1702,-505.59999999999997,-34.13333333333333,174.93333333333334
1703,-516.2666666666667,-36.266666666666666,181.33333333333334
1704,-526.9333333333333,-32.0,177.06666666666666
1705,-539.7333333333333,-38.4,170.66666666666666
1706,-544.0,-40.53333333333333,170.66666666666666
1707,-546.1333333333333,-44.8,164.26666666666665
1708,-544.0,-42.666666666666664,153.6
1709,-544.0,-38.4,160.0
1710,-539.7333333333333,-55.46666666666667,162.13333333333333
1711,-546.1333333333333,-49.06666666666666,160.0
1712,-541.8666666666667,-51.2,177.06666666666666
1713,-533.3333333333334,-51.2,179.2
1714,-529.0666666666666,-61.86666666666667,179.2
1715,-516.2666666666667,-66.13333333333333,202.66666666666666
1716,-518.4,-72.53333333333333,209.06666666666666
1717,-512.0,-85.33333333333333,211.2
1718,-514.1333333333333,-89.6,211.2
1719,-526.9333333333333,-96.0,215.46666666666667
1720,-522.6666666666666,-108.8,204.8
1721,-514.1333333333333,-113.06666666666666,204.8
1722,-516.2666666666667,-108.8,202.66666666666666
1723,-503.46666666666664,-123.73333333333333,217.6
1724,-486.4,-121.6,204.8
1725,-480.0,-125.86666666666666,211.2
1726,-469.3333333333333,-123.73333333333333,221.86666666666667
1727,-467.2,-125.86666666666666,224.0
1728,-448.0,-128.0,243.2
1729,-439.46666666666664,-134.4,245.33333333333334
1730,-437.3333333333333,-145.06666666666666,249.6
1731,-435.2,-147.2,258.1333333333333
1732,-430.93333333333334,-160.0,268.8
1733,-435.2,-162.13333333333333,256.0
1734,-430.93333333333334,-166.4,260.26666666666665
1735,-433.06666666666666,-166.4,268.8
1736,-433.06666666666666,-164.26666666666665,270.93333333333334
1737,-433.06666666666666,-164.26666666666665,258.1333333333333
1738,-441.59999999999997,-162.13333333333333,249.6
1739,-435.2,-153.6,264.5333333333333
1740,-458.6666666666667,-155.73333333333332,251.73333333333332
1741,-454.4,-147.2,253.86666666666667
1742,-458.6666666666667,-136.53333333333333,238.93333333333334
1743,-454.4,-140.8,228.26666666666665
1744,-458.6666666666667,-145.06666666666666,224.0
1745,-458.6666666666667,-138.66666666666666,211.2
1746,-452.26666666666665,-140.8,209.06666666666666
1747,-467.2,-147.2,206.93333333333334
1748,-471.46666666666664,-145.06666666666666,206.93333333333334
1749,-477.8666666666667,-136.53333333333333,209.06666666666666
1750,-507.73333333333335,-125.86666666666666,189.86666666666667
1751,-490.6666666666667,-115.2,181.33333333333334
1752,-486.4,-110.93333333333334,181.33333333333334
1753,-475.73333333333335,-121.6,177.06666666666666
1754,-490.6666666666667,-119.46666666666667,179.2
1755,-505.59999999999997,-119.46666666666667,170.66666666666666
1756,-512.0,-123.73333333333333,170.66666666666666
1757,-546.1333333333333,-125.86666666666666,160.0
1758,-529.0666666666666,-132.26666666666665,147.2
1759,-526.9333333333333,-121.6,142.93333333333334
1760,-529.0666666666666,-123.73333333333333,136.53333333333333
1761,-516.2666666666667,-132.26666666666665,136.53333333333333
1762,-518.4,-136.53333333333333,136.53333333333333
1763,-518.4,-136.53333333333333,130.13333333333333
1764,-522.6666666666666,-145.06666666666666,125.86666666666666
1765,-514.1333333333333,-140.8,132.26666666666665
1766,-501.3333333333333,-147.2,123.73333333333333
1767,-503.46666666666664,-151.46666666666667,128.0
1768,-497.06666666666666,-157.86666666666667,123.73333333333333
1769,-490.6666666666667,-164.26666666666665,132.26666666666665
1770,-503.46666666666664,-160.0,125.86666666666666
1771,-490.6666666666667,-172.8,121.6
1772,-494.93333333333334,-160.0,132.26666666666665
1773,-486.4,-164.26666666666665,130.13333333333333
1774,-501.3333333333333,-162.13333333333333,136.53333333333333
1775,-497.06666666666666,-168.53333333333333,130.13333333333333
1776,-501.3333333333333,-177.06666666666666,125.86666666666666
1777,-490.6666666666667,-183.46666666666667,119.46666666666667
1778,-488.5333333333333,-183.46666666666667,117.33333333333333
1779,-475.73333333333335,-189.86666666666667,119.46666666666667
1780,-480.0,-194.13333333333333,110.93333333333334
1781,-477.8666666666667,-196.26666666666665,119.46666666666667
1782,-477.8666666666667,-189.86666666666667,121.6
1783,-471.46666666666664,-194.13333333333333,123.73333333333333
1784,-469.3333333333333,-200.53333333333333,119.46666666666667
1785,-477.8666666666667,-204.8,132.26666666666665
1786,-477.8666666666667,-211.2,138.66666666666666
1787,-477.8666666666667,-206.93333333333334,136.53333333333333
1788,-467.2,-211.2,136.53333333333333
1789,-462.93333333333334,-217.6,140.8
1790,-458.6666666666667,-219.73333333333332,142.93333333333334
1791,-454.4,-224.0,147.2
1792,-452.26666666666665,-230.4,136.53333333333333
1793,-456.5333333333333,-236.79999999999998,132.26666666666665
1794,-452.26666666666665,-224.0,132.26666666666665
1795,-460.8,-228.26666666666665,134.4
1796,-443.73333333333335,-243.2,130.13333333333333
1797,-456.5333333333333,-238.93333333333334,136.53333333333333
1798,-488.5333333333333,-241.06666666666666,147.2
1799,-460.8,-230.4,138.66666666666666
1800,-454.4,-238.93333333333334,138.66666666666666
1801,-467.2,-236.79999999999998,140.8
1802,-458.6666666666667,-247.46666666666667,136.53333333333333
1803,-469.3333333333333,-243.2,132.26666666666665
1804,-467.2,-256.0,134.4
1805,-465.06666666666666,-247.46666666666667,130.13333333333333
1806,-465.06666666666666,-251.73333333333332,128.0
1807,-460.8,-251.73333333333332,123.73333333333333
1808,-465.06666666666666,-253.86666666666667,123.73333333333333
1809,-462.93333333333334,-247.46666666666667,123.73333333333333
1810,-458.6666666666667,-245.33333333333334,121.6
1811,-473.59999999999997,-245.33333333333334,128.0
1812,-471.46666666666664,-238.93333333333334,125.86666666666666
1813,-473.59999999999997,-230.4,134.4
1814,-469.3333333333333,-241.06666666666666,136.53333333333333
1815,-467.2,-234.66666666666666,138.66666666666666
1816,-445.8666666666667,-232.53333333333333,140.8
1817,-450.1333333333333,-241.06666666666666,138.66666666666666
1818,-456.5333333333333,-247.46666666666667,142.93333333333334
1819,-454.4,-247.46666666666667,138.66666666666666
1820,-454.4,-256.0,136.53333333333333
1821,-441.59999999999997,-264.5333333333333,138.66666666666666
1822,-420.26666666666665,-268.8,136.53333333333333
1823,-424.5333333333333,-268.8,138.66666666666666
1824,-422.4,-266.6666666666667,134.4
1825,-435.2,-264.5333333333333,134.4
1826,-430.93333333333334,-273.06666666666666,142.93333333333334
1827,-430.93333333333334,-275.2,140.8
1828,-433.06666666666666,-277.3333333333333,134.4
1829,-424.5333333333333,-277.3333333333333,132.26666666666665
1830,-428.8,-275.2,136.53333333333333
1831,-424.5333333333333,-275.2,132.26666666666665
1832,-426.6666666666667,-270.93333333333334,138.66666666666666
1833,-428.8,-270.93333333333334,134.4
1834,-424.5333333333333,-268.8,136.53333333333333
1835,-418.1333333333333,-275.2,140.8
1836,-416.0,-275.2,138.66666666666666
1837,-413.8666666666667,-283.73333333333335,142.93333333333334
1838,-418.1333333333333,-294.4,147.2
1839,-418.1333333333333,-283.73333333333335,157.86666666666667
1840,-416.0,-296.5333333333333,162.13333333333333
1841,-413.8666666666667,-302.93333333333334,164.26666666666665
1842,-418.1333333333333,-307.2,164.26666666666665
1843,-422.4,-307.2,168.53333333333333
1844,-424.5333333333333,-307.2,168.53333333333333
1845,-418.1333333333333,-305.06666666666666,155.73333333333332
1846,-416.0,-305.06666666666666,145.06666666666666
1847,-413.8666666666667,-309.3333333333333,151.46666666666667
1848,-418.1333333333333,-309.3333333333333,147.2
1849,-418.1333333333333,-307.2,151.46666666666667
1850,-418.1333333333333,-300.8,136.53333333333333
1851,-416.0,-300.8,136.53333333333333
1852,-428.8,-294.4,142.93333333333334
1853,-418.1333333333333,-309.3333333333333,145.06666666666666
1854,-422.4,-309.3333333333333,142.93333333333334
1855,-418.1333333333333,-307.2,140.8
1856,-426.6666666666667,-298.6666666666667,138.66666666666666
1857,-435.2,-294.4,136.53333333333333
1858,-428.8,-300.8,132.26666666666665
1859,-428.8,-309.3333333333333,136.53333333333333
1860,-418.1333333333333,-307.2,134.4
1861,-422.4,-309.3333333333333,140.8
1862,-426.6666666666667,-317.8666666666667,138.66666666666666
1863,-426.6666666666667,-324.26666666666665,130.13333333333333
1864,-430.93333333333334,-322.1333333333333,136.53333333333333
1865,-430.93333333333334,-322.1333333333333,138.66666666666666
1866,-428.8,-315.73333333333335,140.8
1867,-420.26666666666665,-315.73333333333335,138.66666666666666
1868,-420.26666666666665,-320.0,142.93333333333334
1869,-392.5333333333333,-307.2,128.0
1870,-413.8666666666667,-320.0,145.06666666666666
1871,-409.6,-324.26666666666665,136.53333333333333
1872,-401.06666666666666,-311.46666666666664,134.4
1873,-394.6666666666667,-317.8666666666667,128.0
1874,-386.1333333333333,-317.8666666666667,123.73333333333333
1875,-375.46666666666664,-322.1333333333333,119.46666666666667
1876,-377.6,-328.5333333333333,128.0
1877,-373.3333333333333,-337.06666666666666,134.4
1878,-364.8,-341.3333333333333,132.26666666666665
1879,-364.8,-345.6,123.73333333333333
1880,-356.26666666666665,-354.1333333333333,123.73333333333333
1881,-354.1333333333333,-369.06666666666666,128.0
1882,-347.73333333333335,-371.2,132.26666666666665
1883,-352.0,-369.06666666666666,121.6
1884,-356.26666666666665,-362.6666666666667,115.2
1885,-349.8666666666667,-362.6666666666667,117.33333333333333
1886,-339.2,-366.93333333333334,115.2
1887,-334.93333333333334,-358.4,121.6
1888,-343.46666666666664,-358.4,108.8
1889,-337.06666666666666,-360.5333333333333,119.46666666666667
1890,-337.06666666666666,-354.1333333333333,119.46666666666667
1891,-334.93333333333334,-358.4,121.6
1892,-345.6,-362.6666666666667,121.6
1893,-341.3333333333333,-366.93333333333334,121.6
1894,-339.2,-369.06666666666666,123.73333333333333
1895,-339.2,-369.06666666666666,119.46666666666667
1896,-337.06666666666666,-373.3333333333333,125.86666666666666
1897,-339.2,-381.8666666666667,119.46666666666667
1898,-330.6666666666667,-379.73333333333335,123.73333333333333
1899,-326.4,-384.0,115.2
1900,-317.8666666666667,-384.0,117.33333333333333
1901,-320.0,-384.0,119.46666666666667
1902,-317.8666666666667,-388.26666666666665,123.73333333333333
1903,-311.46666666666664,-392.5333333333333,125.86666666666666
1904,-309.3333333333333,-386.1333333333333,128.0
1905,-315.73333333333335,-390.4,123.73333333333333
1906,-313.6,-392.5333333333333,123.73333333333333
1907,-309.3333333333333,-403.2,125.86666666666666
1908,-313.6,-401.06666666666666,128.0
1909,-313.6,-407.46666666666664,132.26666666666665
1910,-311.46666666666664,-411.73333333333335,134.4
1911,-307.2,-422.4,134.4
1912,-300.8,-413.8666666666667,138.66666666666666
1913,-296.5333333333333,-420.26666666666665,145.06666666666666
1914,-296.5333333333333,-424.5333333333333,136.53333333333333
1915,-294.4,-420.26666666666665,134.4
1916,-294.4,-426.6666666666667,130.13333333333333
1917,-298.6666666666667,-418.1333333333333,125.86666666666666
1918,-290.1333333333333,-420.26666666666665,121.6
1919,-288.0,-416.0,119.46666666666667
1920,-283.73333333333335,-422.4,132.26666666666665
1921,-279.46666666666664,-424.5333333333333,119.46666666666667
1922,-275.2,-426.6666666666667,136.53333333333333
1923,-270.93333333333334,-424.5333333333333,128.0
1924,-275.2,-420.26666666666665,132.26666666666665
1925,-270.93333333333334,-418.1333333333333,134.4
1926,-273.06666666666666,-416.0,136.53333333333333
1927,-273.06666666666666,-418.1333333333333,134.4
1928,-275.2,-413.8666666666667,140.8
1929,-268.8,-422.4,134.4
1930,-270.93333333333334,-418.1333333333333,134.4
1931,-275.2,-426.6666666666667,130.13333333333333
1932,-268.8,-430.93333333333334,132.26666666666665
1933,-266.6666666666667,-433.06666666666666,134.4
1934,-270.93333333333334,-437.3333333333333,117.33333333333333
1935,-270.93333333333334,-435.2,119.46666666666667
1936,-273.06666666666666,-435.2,108.8
1937,-273.06666666666666,-437.3333333333333,104.53333333333333
1938,-273.06666666666666,-437.3333333333333,108.8
1939,-266.6666666666667,-441.59999999999997,106.66666666666667
1940,-270.93333333333334,-439.46666666666664,102.4
1941,-273.06666666666666,-441.59999999999997,106.66666666666667
1942,-268.8,-443.73333333333335,108.8
1943,-273.06666666666666,-439.46666666666664,104.53333333333333
1944,-270.93333333333334,-441.59999999999997,104.53333333333333
1945,-262.4,-448.0,110.93333333333334
1946,-266.6666666666667,-445.8666666666667,108.8
1947,-268.8,-448.0,113.06666666666666
1948,-266.6666666666667,-452.26666666666665,106.66666666666667
1949,-266.6666666666667,-450.1333333333333,104.53333333333333
1950,-264.5333333333333,-452.26666666666665,100.26666666666667
1951,-268.8,-462.93333333333334,102.4
1952,-262.4,-460.8,98.13333333333333
1953,-253.86666666666667,-458.6666666666667,89.6
1954,-260.26666666666665,-460.8,91.73333333333333
1955,-262.4,-467.2,87.46666666666667
1956,-256.0,-465.06666666666666,85.33333333333333
1957,-251.73333333333332,-462.93333333333334,83.2
1958,-251.73333333333332,-450.1333333333333,85.33333333333333
1959,-251.73333333333332,-454.4,81.06666666666666
1960,-247.46666666666667,-458.6666666666667,78.93333333333334
1961,-241.06666666666666,-458.6666666666667,78.93333333333334
1962,-236.79999999999998,-450.1333333333333,85.33333333333333
1963,-232.53333333333333,-445.8666666666667,87.46666666666667
1964,-230.4,-454.4,89.6
1965,-226.13333333333333,-456.5333333333333,93.86666666666666
1966,-215.46666666666667,-465.06666666666666,87.46666666666667
1967,-213.33333333333334,-469.3333333333333,98.13333333333333
1968,-215.46666666666667,-462.93333333333334,102.4
1969,-211.2,-471.46666666666664,100.26666666666667
1970,-202.66666666666666,-469.3333333333333,102.4
1971,-200.53333333333333,-471.46666666666664,96.0
1972,-200.53333333333333,-469.3333333333333,100.26666666666667
1973,-202.66666666666666,-465.06666666666666,96.0
1974,-200.53333333333333,-471.46666666666664,96.0
1975,-202.66666666666666,-473.59999999999997,87.46666666666667
1976,-206.93333333333334,-482.1333333333333,91.73333333333333
1977,-204.8,-477.8666666666667,83.2
1978,-194.13333333333333,-488.5333333333333,102.4
1979,-209.06666666666666,-469.3333333333333,83.2
1980,-198.4,-482.1333333333333,76.8
1981,-202.66666666666666,-475.73333333333335,78.93333333333334
1982,-200.53333333333333,-473.59999999999997,74.66666666666667
1983,-192.0,-475.73333333333335,81.06666666666666
1984,-194.13333333333333,-482.1333333333333,74.66666666666667
1985,-194.13333333333333,-477.8666666666667,76.8
1986,-185.6,-486.4,66.13333333333333
1987,-189.86666666666667,-484.26666666666665,70.4
1988,-183.46666666666667,-484.26666666666665,68.26666666666667
1989,-177.06666666666666,-480.0,72.53333333333333
1990,-168.53333333333333,-488.5333333333333,68.26666666666667
1991,-166.4,-477.8666666666667,64.0
1992,-155.73333333333332,-480.0,59.733333333333334
1993,-151.46666666666667,-482.1333333333333,74.66666666666667
1994,-140.8,-486.4,70.4
1995,-134.4,-488.5333333333333,64.0
1996,-134.4,-486.4,66.13333333333333
1997,-130.13333333333333,-492.8,66.13333333333333
1998,-125.86666666666666,-499.2,66.13333333333333
1999,-121.6,-503.46666666666664,66.13333333333333
2000,-117.33333333333333,-501.3333333333333,61.86666666666667
2001,-110.93333333333334,-501.3333333333333,57.6
2002,-110.93333333333334,-507.73333333333335,49.06666666666666
2003,-113.06666666666666,-503.46666666666664,57.6
2004,-104.53333333333333,-512.0,51.2
2005,-104.53333333333333,-507.73333333333335,64.0
2006,-102.4,-514.1333333333333,61.86666666666667
2007,-100.26666666666667,-520.5333333333333,64.0
2008,-104.53333333333333,-520.5333333333333,57.6
2009,-87.46666666666667,-520.5333333333333,59.733333333333334
2010,-102.4,-522.6666666666666,64.0
2011,-100.26666666666667,-520.5333333333333,57.6
2012,-100.26666666666667,-522.6666666666666,55.46666666666667
2013,-100.26666666666667,-526.9333333333333,57.6
2014,-93.86666666666666,-529.0666666666666,55.46666666666667
2015,-87.46666666666667,-533.3333333333334,55.46666666666667
2016,-81.06666666666666,-544.0,53.333333333333336
2017,-85.33333333333333,-544.0,59.733333333333334
2018,-93.86666666666666,-535.4666666666667,70.4
2019,-85.33333333333333,-537.6,59.733333333333334
2020,-83.2,-539.7333333333333,53.333333333333336
2021,-78.93333333333334,-541.8666666666667,53.333333333333336
2022,-78.93333333333334,-537.6,59.733333333333334
2023,-85.33333333333333,-535.4666666666667,51.2
2024,-78.93333333333334,-531.2,53.333333333333336
2025,-83.2,-531.2,68.26666666666667
2026,-81.06666666666666,-533.3333333333334,66.13333333333333
2027,-74.66666666666667,-529.0666666666666,70.4
2028,-83.2,-522.6666666666666,70.4
2029,-102.4,-512.0,100.26666666666667
2030,-51.2,-529.0666666666666,61.86666666666667
2031,-76.8,-518.4,59.733333333333334
2032,-78.93333333333334,-516.2666666666667,46.93333333333333
2033,-76.8,-520.5333333333333,53.333333333333336
2034,-78.93333333333334,-526.9333333333333,57.6
2035,-70.4,-520.5333333333333,46.93333333333333
2036,-61.86666666666667,-526.9333333333333,53.333333333333336
2037,-64.0,-518.4,49.06666666666666
2038,-61.86666666666667,-522.6666666666666,44.8
2039,-59.733333333333334,-520.5333333333333,46.93333333333333
2040,-59.733333333333334,-522.6666666666666,51.2
2041,-70.4,-524.8,44.8
2042,-59.733333333333334,-522.6666666666666,44.8
2043,-59.733333333333334,-520.5333333333333,44.8
2044,-66.13333333333333,-516.2666666666667,40.53333333333333
2045,-59.733333333333334,-522.6666666666666,49.06666666666666
2046,-61.86666666666667,-526.9333333333333,49.06666666666666
2047,-53.333333333333336,-526.9333333333333,44.8
2048,-53.333333333333336,-524.8,51.2
2049,-61.86666666666667,-539.7333333333333,61.86666666666667
2050,-59.733333333333334,-535.4666666666667,55.46666666666667
2051,-57.6,-531.2,55.46666666666667
2052,-51.2,-535.4666666666667,55.46666666666667
2053,-42.666666666666664,-533.3333333333334,49.06666666666666
2054,-44.8,-526.9333333333333,49.06666666666666
2055,-57.6,-529.0666666666666,55.46666666666667
2056,-36.266666666666666,-535.4666666666667,40.53333333333333
2057,-49.06666666666666,-537.6,53.333333333333336
2058,-38.4,-541.8666666666667,44.8
2059,-34.13333333333333,-533.3333333333334,38.4
2060,-32.0,-537.6,44.8
2061,-42.666666666666664,-535.4666666666667,44.8
2062,-34.13333333333333,-535.4666666666667,44.8
2063,-29.866666666666667,-535.4666666666667,36.266666666666666
2064,-25.6,-535.4666666666667,42.666666666666664
2065,-27.733333333333334,-535.4666666666667,49.06666666666666
2066,-32.0,-535.4666666666667,44.8
2067,-29.866666666666667,-537.6,42.666666666666664
2068,-32.0,-533.3333333333334,42.666666666666664
2069,-21.333333333333332,-535.4666666666667,49.06666666666666
2070,-19.2,-533.3333333333334,34.13333333333333
2071,-21.333333333333332,-537.6,44.8
2072,-2.1333333333333333,-537.6,34.13333333333333
2073,-6.4,-537.6,40.53333333333333
2074,-25.6,-539.7333333333333,51.2
2075,-21.333333333333332,-544.0,49.06666666666666
2076,-25.6,-535.4666666666667,59.733333333333334
2077,-34.13333333333333,-537.6,55.46666666666667
2078,-36.266666666666666,-537.6,49.06666666666666
2079,-40.53333333333333,-533.3333333333334,51.2
2080,-40.53333333333333,-533.3333333333334,42.666666666666664
2081,-29.866666666666667,-537.6,38.4
2082,-25.6,-533.3333333333334,46.93333333333333
2083,-40.53333333333333,-529.0666666666666,44.8
2084,-27.733333333333334,-524.8,36.266666666666666
2085,-21.333333333333332,-537.6,38.4
2086,-4.266666666666667,-533.3333333333334,36.266666666666666
2087,-6.4,-537.6,40.53333333333333
2088,2.1333333333333333,-537.6,46.93333333333333
2089,14.933333333333334,-541.8666666666667,49.06666666666666
2090,29.866666666666667,-537.6,46.93333333333333
2091,36.266666666666666,-541.8666666666667,55.46666666666667
2092,42.666666666666664,-535.4666666666667,59.733333333333334
2093,46.93333333333333,-535.4666666666667,70.4
2094,51.2,-533.3333333333334,55.46666666666667
2095,61.86666666666667,-516.2666666666667,61.86666666666667
2096,64.0,-516.2666666666667,64.0
2097,68.26666666666667,-512.0,59.733333333333334
2098,72.53333333333333,-505.59999999999997,59.733333333333334
2099,70.4,-503.46666666666664,55.46666666666667
2100,61.86666666666667,-501.3333333333333,53.333333333333336
2101,57.6,-505.59999999999997,46.93333333333333
2102,57.6,-507.73333333333335,55.46666666666667
2103,55.46666666666667,-514.1333333333333,57.6
2104,34.13333333333333,-518.4,57.6
2105,40.53333333333333,-529.0666666666666,70.4
2106,23.466666666666665,-533.3333333333334,66.13333333333333
2107,25.6,-539.7333333333333,83.2
2108,4.266666666666667,-533.3333333333334,83.2
2109,2.1333333333333333,-541.8666666666667,72.53333333333333
2110,2.1333333333333333,-548.2666666666667,78.93333333333334
2111,0.0,-544.0,72.53333333333333
2112,2.1333333333333333,-541.8666666666667,76.8
2113,-4.266666666666667,-533.3333333333334,68.26666666666667
2114,-4.266666666666667,-531.2,66.13333333333333
2115,0.0,-522.6666666666666,64.0
2116,-6.4,-512.0,64.0
2117,-6.4,-526.9333333333333,61.86666666666667
2118,-17.066666666666666,-505.59999999999997,61.86666666666667
2119,-4.266666666666667,-516.2666666666667,68.26666666666667
2120,-8.533333333333333,-505.59999999999997,59.733333333333334
2121,-4.266666666666667,-503.46666666666664,59.733333333333334
2122,0.0,-501.3333333333333,59.733333333333334
2123,-2.1333333333333333,-505.59999999999997,61.86666666666667
2124,-12.8,-501.3333333333333,59.733333333333334
2125,2.1333333333333333,-512.0,76.8
2126,0.0,-518.4,64.0
2127,2.1333333333333333,-529.0666666666666,70.4
2128,2.1333333333333333,-524.8,66.13333333333333
2129,0.0,-529.0666666666666,66.13333333333333
2130,6.4,-526.9333333333333,70.4
2131,0.0,-524.8,64.0
2132,2.1333333333333333,-524.8,64.0
2133,0.0,-529.0666666666666,68.26666666666667
2134,0.0,-514.1333333333333,55.46666666666667
2135,0.0,-518.4,55.46666666666667
2136,8.533333333333333,-518.4,46.93333333333333
2137,4.266666666666667,-518.4,57.6
2138,0.0,-512.0,61.86666666666667
2139,-4.266666666666667,-518.4,68.26666666666667
2140,4.266666666666667,-514.1333333333333,70.4
2141,12.8,-516.2666666666667,61.86666666666667
2142,10.666666666666666,-516.2666666666667,68.26666666666667
2143,2.1333333333333333,-518.4,68.26666666666667
2144,6.4,-526.9333333333333,72.53333333333333
2145,4.266666666666667,-526.9333333333333,76.8
2146,0.0,-524.8,83.2
2147,8.533333333333333,-526.9333333333333,76.8
2148,21.333333333333332,-529.0666666666666,70.4
2149,12.8,-526.9333333333333,72.53333333333333
2150,12.8,-524.8,81.06666666666666
2151,21.333333333333332,-524.8,70.4
2152,10.666666666666666,-520.5333333333333,68.26666666666667
2153,23.466666666666665,-524.8,72.53333333333333
2154,38.4,-520.5333333333333,66.13333333333333
2155,14.933333333333334,-516.2666666666667,72.53333333333333
2156,29.866666666666667,-524.8,70.4
2157,40.53333333333333,-529.0666666666666,72.53333333333333
2158,40.53333333333333,-522.6666666666666,66.13333333333333
2159,32.0,-518.4,72.53333333333333
2160,40.53333333333333,-524.8,66.13333333333333
2161,36.266666666666666,-520.5333333333333,78.93333333333334
2162,32.0,-514.1333333333333,78.93333333333334
2163,40.53333333333333,-526.9333333333333,76.8
2164,34.13333333333333,-518.4,68.26666666666667
2165,36.266666666666666,-518.4,87.46666666666667
2166,38.4,-520.5333333333333,81.06666666666666
2167,34.13333333333333,-518.4,78.93333333333334
2168,42.666666666666664,-514.1333333333333,83.2
2169,29.866666666666667,-522.6666666666666,89.6
2170,27.733333333333334,-524.8,89.6
2171,38.4,-514.1333333333333,81.06666666666666
2172,38.4,-512.0,83.2
2173,29.866666666666667,-520.5333333333333,81.06666666666666
2174,38.4,-514.1333333333333,81.06666666666666
2175,42.666666666666664,-522.6666666666666,83.2
2176,49.06666666666666,-518.4,76.8
2177,40.53333333333333,-514.1333333333333,78.93333333333334
2178,49.06666666666666,-524.8,78.93333333333334
2179,46.93333333333333,-516.2666666666667,72.53333333333333
2180,46.93333333333333,-520.5333333333333,76.8
2181,42.666666666666664,-520.5333333333333,68.26666666666667
2182,57.6,-522.6666666666666,78.93333333333334
2183,66.13333333333333,-526.9333333333333,78.93333333333334
2184,57.6,-520.5333333333333,70.4
2185,49.06666666666666,-522.6666666666666,70.4
2186,51.2,-516.2666666666667,72.53333333333333
2187,57.6,-518.4,68.26666666666667
2188,55.46666666666667,-520.5333333333333,59.733333333333334
2189,51.2,-524.8,64.0
2190,42.666666666666664,-518.4,59.733333333333334
2191,40.53333333333333,-518.4,66.13333333333333
2192,51.2,-526.9333333333333,61.86666666666667
2193,40.53333333333333,-520.5333333333333,49.06666666666666
2194,40.53333333333333,-516.2666666666667,57.6
2195,44.8,-518.4,53.333333333333336
2196,36.266666666666666,-529.0666666666666,59.733333333333334
2197,42.666666666666664,-522.6666666666666,44.8
2198,34.13333333333333,-520.5333333333333,51.2
2199,32.0,-522.6666666666666,51.2
2200,32.0,-516.2666666666667,51.2
2201,36.266666666666666,-514.1333333333333,55.46666666666667
2202,27.733333333333334,-520.5333333333333,46.93333333333333
2203,36.266666666666666,-524.8,46.93333333333333
2204,42.666666666666664,-522.6666666666666,53.333333333333336
2205,34.13333333333333,-526.9333333333333,55.46666666666667
2206,27.733333333333334,-522.6666666666666,44.8
2207,36.266666666666666,-537.6,49.06666666666666
2208,34.13333333333333,-526.9333333333333,42.666666666666664
2209,25.6,-522.6666666666666,49.06666666666666
2210,23.466666666666665,-520.5333333333333,46.93333333333333
2211,19.2,-529.0666666666666,44.8
2212,25.6,-529.0666666666666,44.8
2213,19.2,-529.0666666666666,51.2
2214,17.066666666666666,-526.9333333333333,51.2
2215,17.066666666666666,-526.9333333333333,51.2
2216,12.8,-522.6666666666666,46.93333333333333
2217,10.666666666666666,-526.9333333333333,46.93333333333333
2218,10.666666666666666,-529.0666666666666,42.666666666666664
2219,8.533333333333333,-531.2,36.266666666666666
2220,4.266666666666667,-529.0666666666666,42.666666666666664
2221,4.266666666666667,-524.8,42.666666666666664
2222,2.1333333333333333,-531.2,49.06666666666666
2223,10.666666666666666,-526.9333333333333,44.8
2224,6.4,-524.8,42.666666666666664
2225,2.1333333333333333,-531.2,46.93333333333333
2226,6.4,-522.6666666666666,38.4
2227,12.8,-529.0666666666666,44.8
2228,14.933333333333334,-524.8,44.8
2229,8.533333333333333,-533.3333333333334,38.4
2230,10.666666666666666,-529.0666666666666,27.733333333333334
2231,17.066666666666666,-524.8,44.8
2232,14.933333333333334,-531.2,42.666666666666664
2233,21.333333333333332,-539.7333333333333,49.06666666666666
2234,19.2,-535.4666666666667,38.4
2235,19.2,-531.2,36.266666666666666
2236,21.333333333333332,-531.2,38.4
2237,25.6,-526.9333333333333,38.4
2238,25.6,-531.2,38.4
2239,25.6,-535.4666666666667,40.53333333333333
2240,17.066666666666666,-537.6,34.13333333333333
2241,14.933333333333334,-529.0666666666666,36.266666666666666
2242,17.066666666666666,-537.6,36.266666666666666
2243,19.2,-529.0666666666666,38.4
2244,14.933333333333334,-531.2,34.13333333333333
2245,14.933333333333334,-537.6,29.866666666666667
2246,27.733333333333334,-518.4,10.666666666666666
2247,19.2,-526.9333333333333,36.266666666666666
2248,17.066666666666666,-531.2,32.0
2249,14.933333333333334,-529.0666666666666,36.266666666666666
2250,19.2,-537.6,36.266666666666666
2251,21.333333333333332,-533.3333333333334,34.13333333333333
2252,19.2,-533.3333333333334,42.666666666666664
2253,14.933333333333334,-537.6,34.13333333333333
2254,8.533333333333333,-529.0666666666666,44.8
2255,14.933333333333334,-531.2,38.4
2256,19.2,-535.4666666666667,42.666666666666664
2257,14.933333333333334,-535.4666666666667,36.266666666666666
2258,12.8,-531.2,38.4
2259,10.666666666666666,-533.3333333333334,46.93333333333333
2260,12.8,-526.9333333333333,42.666666666666664
2261,12.8,-524.8,38.4
2262,14.933333333333334,-524.8,38.4
2263,12.8,-526.9333333333333,42.666666666666664
2264,10.666666666666666,-529.0666666666666,46.93333333333333
2265,14.933333333333334,-529.0666666666666,40.53333333333333
2266,10.666666666666666,-529.0666666666666,38.4
2267,21.333333333333332,-529.0666666666666,44.8
2268,21.333333333333332,-522.6666666666666,36.266666666666666
2269,14.933333333333334,-524.8,40.53333333333333
2270,21.333333333333332,-529.0666666666666,32.0
2271,17.066666666666666,-529.0666666666666,40.53333333333333
2272,14.933333333333334,-526.9333333333333,36.266666666666666
2273,19.2,-533.3333333333334,29.866666666666667
2274,21.333333333333332,-529.0666666666666,44.8
2275,17.066666666666666,-531.2,40.53333333333333
2276,10.666666666666666,-522.6666666666666,36.266666666666666
2277,21.333333333333332,-524.8,49.06666666666666
2278,17.066666666666666,-531.2,36.266666666666666
2279,17.066666666666666,-522.6666666666666,34.13333333333333
2280,17.066666666666666,-533.3333333333334,40.53333333333333
2281,10.666666666666666,-533.3333333333334,40.53333333333333
2282,8.533333333333333,-526.9333333333333,38.4
2283,21.333333333333332,-529.0666666666666,38.4
2284,6.4,-526.9333333333333,40.53333333333333
2285,10.666666666666666,-526.9333333333333,29.866666666666667
2286,8.533333333333333,-524.8,34.13333333333333
2287,12.8,-526.9333333333333,34.13333333333333
2288,19.2,-526.9333333333333,40.53333333333333
2289,10.666666666666666,-533.3333333333334,32.0
2290,10.666666666666666,-526.9333333333333,36.266666666666666
2291,10.666666666666666,-529.0666666666666,34.13333333333333
2292,10.666666666666666,-531.2,32.0
2293,8.533333333333333,-531.2,36.266666666666666
2294,10.666666666666666,-526.9333333333333,32.0
2295,4.266666666666667,-526.9333333333333,34.13333333333333
2296,8.533333333333333,-531.2,42.666666666666664
2297,2.1333333333333333,-526.9333333333333,38.4
2298,4.266666666666667,-526.9333333333333,40.53333333333333
2299,8.533333333333333,-526.9333333333333,32.0
2300,6.4,-531.2,36.266666666666666
2301,4.266666666666667,-537.6,34.13333333333333
2302,10.666666666666666,-535.4666666666667,38.4
2303,4.266666666666667,-533.3333333333334,42.666666666666664
2304,2.1333333333333333,-533.3333333333334,29.866666666666667
2305,2.1333333333333333,-529.0666666666666,40.53333333333333
2306,4.266666666666667,-533.3333333333334,32.0
2307,2.1333333333333333,-526.9333333333333,32.0
2308,4.266666666666667,-535.4666666666667,32.0
2309,2.1333333333333333,-524.8,29.866666666666667
2310,4.266666666666667,-533.3333333333334,34.13333333333333
2311,-4.266666666666667,-531.2,36.266666666666666
2312,6.4,-531.2,27.733333333333334
2313,2.1333333333333333,-522.6666666666666,32.0
2314,4.266666666666667,-526.9333333333333,36.266666666666666
2315,4.266666666666667,-529.0666666666666,27.733333333333334
2316,2.1333333333333333,-524.8,34.13333333333333
2317,4.266666666666667,-533.3333333333334,29.866666666666667
2318,6.4,-533.3333333333334,34.13333333333333
2319,4.266666666666667,-531.2,32.0
2320,2.1333333333333333,-537.6,34.13333333333333
2321,4.266666666666667,-529.0666666666666,23.466666666666665
2322,6.4,-520.5333333333333,23.466666666666665
2323,6.4,-531.2,32.0
2324,2.1333333333333333,-533.3333333333334,34.13333333333333
2325,4.266666666666667,-524.8,25.6
2326,2.1333333333333333,-533.3333333333334,25.6
2327,6.4,-535.4666666666667,38.4
2328,2.1333333333333333,-531.2,36.266666666666666
2329,8.533333333333333,-531.2,32.0
2330,2.1333333333333333,-531.2,32.0
2331,6.4,-531.2,27.733333333333334
2332,2.1333333333333333,-531.2,27.733333333333334
2333,2.1333333333333333,-533.3333333333334,40.53333333333333
2334,2.1333333333333333,-526.9333333333333,29.866666666666667
2335,8.533333333333333,-526.9333333333333,29.866666666666667
2336,4.266666666666667,-529.0666666666666,25.6
2337,0.0,-522.6666666666666,25.6
2338,0.0,-526.9333333333333,32.0
2339,-4.266666666666667,-529.0666666666666,36.266666666666666
2340,0.0,-529.0666666666666,29.866666666666667
2341,2.1333333333333333,-529.0666666666666,32.0
2342,-4.266666666666667,-529.0666666666666,32.0
2343,2.1333333333333333,-531.2,27.733333333333334
2344,2.1333333333333333,-531.2,36.266666666666666
2345,2.1333333333333333,-531.2,32.0
2346,0.0,-529.0666666666666,36.266666666666666
2347,2.1333333333333333,-531.2,34.13333333333333
2348,4.266666666666667,-524.8,32.0
2349,2.1333333333333333,-524.8,29.866666666666667
2350,8.533333333333333,-533.3333333333334,29.866666666666667
2351,0.0,-526.9333333333333,42.666666666666664
2352,0.0,-529.0666666666666,36.266666666666666
2353,0.0,-533.3333333333334,32.0
2354,4.266666666666667,-531.2,34.13333333333333
2355,0.0,-533.3333333333334,29.866666666666667
2356,8.533333333333333,-535.4666666666667,38.4
2357,0.0,-526.9333333333333,25.6
2358,4.266666666666667,-539.7333333333333,34.13333333333333
2359,0.0,-529.0666666666666,27.733333333333334
2360,2.1333333333333333,-529.0666666666666,27.733333333333334
2361,2.1333333333333333,-526.9333333333333,25.6
2362,2.1333333333333333,-533.3333333333334,27.733333333333334
2363,2.1333333333333333,-529.0666666666666,32.0
2364,4.266666666666667,-537.6,29.866666666666667
2365,0.0,-529.0666666666666,36.266666666666666
2366,0.0,-529.0666666666666,34.13333333333333
2367,0.0,-529.0666666666666,36.266666666666666
2368,-4.266666666666667,-524.8,27.733333333333334
2369,2.1333333333333333,-533.3333333333334,38.4
2370,0.0,-535.4666666666667,34.13333333333333
2371,0.0,-531.2,29.866666666666667
2372,-2.1333333333333333,-526.9333333333333,29.866666666666667
2373,0.0,-529.0666666666666,34.13333333333333
2374,-4.266666666666667,-524.8,36.266666666666666
2375,0.0,-531.2,38.4
2376,0.0,-533.3333333333334,34.13333333333333
2377,0.0,-529.0666666666666,36.266666666666666
2378,0.0,-533.3333333333334,38.4
2379,2.1333333333333333,-531.2,29.866666666666667
2380,-2.1333333333333333,-526.9333333333333,38.4
2381,0.0,-529.0666666666666,38.4
2382,-4.266666666666667,-524.8,38.4
2383,4.266666666666667,-533.3333333333334,38.4
2384,-2.1333333333333333,-524.8,34.13333333333333
2385,-2.1333333333333333,-529.0666666666666,38.4
2386,0.0,-522.6666666666666,44.8
2387,0.0,-524.8,38.4
2388,0.0,-526.9333333333333,38.4
2389,0.0,-524.8,49.06666666666666
2390,0.0,-529.0666666666666,38.4
2391,2.1333333333333333,-535.4666666666667,44.8
2392,0.0,-535.4666666666667,36.266666666666666
2393,0.0,-529.0666666666666,40.53333333333333
2394,2.1333333333333333,-529.0666666666666,44.8
2395,0.0,-526.9333333333333,27.733333333333334
2396,0.0,-533.3333333333334,36.266666666666666
2397,0.0,-524.8,38.4
2398,-6.4,-529.0666666666666,51.2
2399,4.266666666666667,-529.0666666666666,40.53333333333333
