,accelerometerAccelerationX(G),accelerometerAccelerationY(G),accelerometerAccelerationZ(G)
0,-6.4,-541.8666666666667,-113.06666666666666
1,-4.266666666666667,-537.6,-110.93333333333334
2,0.0,-546.1333333333333,-117.33333333333333
3,-2.1333333333333333,-537.6,-110.93333333333334
4,0.0,-537.6,-108.8
5,-2.1333333333333333,-524.8,-140.8
6,-6.4,-537.6,-102.4
7,-6.4,-537.6,-100.26666666666667
8,-4.266666666666667,-539.7333333333333,-104.53333333333333
9,-8.533333333333333,-535.4666666666667,-93.86666666666666
10,-6.4,-537.6,-102.4
11,-4.266666666666667,-537.6,-108.8
12,-2.1333333333333333,-537.6,-102.4
13,-6.4,-544.0,-102.4
14,-14.933333333333334,-541.8666666666667,-96.0
15,-8.533333333333333,-539.7333333333333,-100.26666666666667
16,-10.666666666666666,-541.8666666666667,-106.66666666666667
17,-4.266666666666667,-541.8666666666667,-102.4
18,-8.533333333333333,-546.1333333333333,-100.26666666666667
19,-10.666666666666666,-537.6,-98.13333333333333
20,-6.4,-537.6,-104.53333333333333
21,-10.666666666666666,-531.2,-115.2
22,-4.266666666666667,-546.1333333333333,-115.2
23,0.0,-535.4666666666667,-110.93333333333334
24,-8.533333333333333,-535.4666666666667,-104.53333333333333
25,-6.4,-533.3333333333334,-110.93333333333334
26,-4.266666666666667,-548.2666666666667,-106.66666666666667
27,-8.533333333333333,-535.4666666666667,-110.93333333333334
28,-6.4,-539.7333333333333,-110.93333333333334
29,-2.1333333333333333,-535.4666666666667,-115.2
30,-4.266666666666667,-537.6,-115.2
31,-4.266666666666667,-539.7333333333333,-113.06666666666666
32,0.0,-533.3333333333334,-106.66666666666667
33,-8.533333333333333,-541.8666666666667,-106.66666666666667
34,-12.8,-533.3333333333334,-100.26666666666667
35,-10.666666666666666,-529.0666666666666,-104.53333333333333
36,-6.4,-533.3333333333334,-113.06666666666666
37,0.0,-535.4666666666667,-108.8
38,0.0,-535.4666666666667,-104.53333333333333
39,0.0,-535.4666666666667,-106.66666666666667
40,-2.1333333333333333,-537.6,-104.53333333333333
41,-6.4,-544.0,-106.66666666666667
42,-2.1333333333333333,-541.8666666666667,-104.53333333333333
43,-6.4,-537.6,-104.53333333333333
44,-4.266666666666667,-539.7333333333333,-113.06666666666666
45,-4.266666666666667,-539.7333333333333,-104.53333333333333
46,-12.8,-533.3333333333334,-106.66666666666667
47,-4.266666666666667,-535.4666666666667,-102.4
48,0.0,-552.5333333333333,-98.13333333333333
49,-10.666666666666666,-546.1333333333333,-102.4
50,-10.666666666666666,-539.7333333333333,-106.66666666666667
51,-6.4,-539.7333333333333,-106.66666666666667
52,-6.4,-541.8666666666667,-98.13333333333333
53,-8.533333333333333,-537.6,-102.4
54,-4.266666666666667,-535.4666666666667,-104.53333333333333
55,-14.933333333333334,-533.3333333333334,-96.0
56,-4.266666666666667,-541.8666666666667,-100.26666666666667
57,0.0,-535.4666666666667,-100.26666666666667
58,-8.533333333333333,-541.8666666666667,-100.26666666666667
59,-2.1333333333333333,-541.8666666666667,-106.66666666666667
60,-6.4,-539.7333333333333,-100.26666666666667
61,-10.666666666666666,-544.0,-100.26666666666667
62,-4.266666666666667,-535.4666666666667,-106.66666666666667
63,-8.533333333333333,-539.7333333333333,-100.26666666666667
64,-8.533333333333333,-541.8666666666667,-106.66666666666667
65,-6.4,-531.2,-104.53333333333333
66,-6.4,-537.6,-104.53333333333333
67,-2.1333333333333333,-541.8666666666667,-106.66666666666667
68,-2.1333333333333333,-544.0,-104.53333333333333
69,-6.4,-539.7333333333333,-106.66666666666667
70,-17.066666666666666,-548.2666666666667,-108.8
71,-4.266666666666667,-537.6,-104.53333333333333
72,-6.4,-537.6,-104.53333333333333
73,-4.266666666666667,-541.8666666666667,-100.26666666666667
74,-4.266666666666667,-541.8666666666667,-102.4
75,-6.4,-533.3333333333334,-102.4
76,-14.933333333333334,-541.8666666666667,-104.53333333333333
77,-2.1333333333333333,-537.6,-106.66666666666667
78,-6.4,-544.0,-102.4
79,-4.266666666666667,-539.7333333333333,-102.4
80,-6.4,-539.7333333333333,-102.4
81,-6.4,-535.4666666666667,-96.0
82,-6.4,-533.3333333333334,-106.66666666666667
83,-2.1333333333333333,-535.4666666666667,-110.93333333333334
84,-12.8,-539.7333333333333,-100.26666666666667
85,-6.4,-541.8666666666667,-104.53333333333333
86,-6.4,-535.4666666666667,-108.8
87,-8.533333333333333,-535.4666666666667,-104.53333333333333
88,-2.1333333333333333,-537.6,-96.0
89,-2.1333333333333333,-539.7333333333333,-110.93333333333334
90,-6.4,-539.7333333333333,-108.8
91,-2.1333333333333333,-537.6,-106.66666666666667
92,4.266666666666667,-544.0,-110.93333333333334
93,-10.666666666666666,-539.7333333333333,-106.66666666666667
94,-12.8,-535.4666666666667,-106.66666666666667
95,-6.4,-537.6,-102.4
96,-2.1333333333333333,-531.2,-104.53333333333333
97,-6.4,-539.7333333333333,-100.26666666666667
98,-8.533333333333333,-537.6,-108.8
99,-4.266666666666667,-539.7333333333333,-100.26666666666667
100,-6.4,-541.8666666666667,-102.4
101,-10.666666666666666,-537.6,-98.13333333333333
102,-14.933333333333334,-539.7333333333333,-102.4
103,-10.666666666666666,-537.6,-110.93333333333334
104,-10.666666666666666,-539.7333333333333,-106.66666666666667
105,-6.4,-539.7333333333333,-100.26666666666667
106,0.0,-537.6,-102.4
107,-6.4,-533.3333333333334,-100.26666666666667
108,-8.533333333333333,-544.0,-100.26666666666667
109,-6.4,-539.7333333333333,-104.53333333333333
110,-6.4,-537.6,-106.66666666666667
111,-12.8,-533.3333333333334,-106.66666666666667
112,-6.4,-537.6,-100.26666666666667
113,2.1333333333333333,-544.0,-106.66666666666667
114,0.0,-537.6,-108.8
115,0.0,-541.8666666666667,-96.0
116,-4.266666666666667,-544.0,-106.66666666666667
117,-6.4,-533.3333333333334,-100.26666666666667
118,-4.266666666666667,-533.3333333333334,-106.66666666666667
119,-19.2,-533.3333333333334,-100.26666666666667
120,-8.533333333333333,-539.7333333333333,-100.26666666666667
121,-10.666666666666666,-539.7333333333333,-100.26666666666667
122,-2.1333333333333333,-539.7333333333333,-113.06666666666666
123,-6.4,-541.8666666666667,-102.4
124,-6.4,-537.6,-96.0
125,-10.666666666666666,-541.8666666666667,-100.26666666666667
126,-12.8,-535.4666666666667,-98.13333333333333
127,-8.533333333333333,-533.3333333333334,-108.8
128,-4.266666666666667,-539.7333333333333,-104.53333333333333
129,-8.533333333333333,-535.4666666666667,-98.13333333333333
130,-14.933333333333334,-541.8666666666667,-104.53333333333333
131,-6.4,-539.7333333333333,-106.66666666666667
132,-4.266666666666667,-544.0,-106.66666666666667
133,-8.533333333333333,-535.4666666666667,-104.53333333333333
134,-6.4,-541.8666666666667,-113.06666666666666
135,6.4,-535.4666666666667,-87.46666666666667
136,-10.666666666666666,-535.4666666666667,-104.53333333333333
137,-12.8,-537.6,-104.53333333333333
138,0.0,-539.7333333333333,-106.66666666666667
139,-6.4,-537.6,-100.26666666666667
140,-4.266666666666667,-535.4666666666667,-108.8
141,-2.1333333333333333,-539.7333333333333,-102.4
142,-4.266666666666667,-546.1333333333333,-104.53333333333333
143,-2.1333333333333333,-533.3333333333334,-104.53333333333333
144,-8.533333333333333,-535.4666666666667,-110.93333333333334
145,-8.533333333333333,-533.3333333333334,-98.13333333333333
146,-2.1333333333333333,-539.7333333333333,-106.66666666666667
147,0.0,-539.7333333333333,-100.26666666666667
148,-2.1333333333333333,-539.7333333333333,-102.4
149,-2.1333333333333333,-539.7333333333333,-100.26666666666667
150,-10.666666666666666,-537.6,-98.13333333333333
151,-10.666666666666666,-535.4666666666667,-104.53333333333333
152,-2.1333333333333333,-535.4666666666667,-102.4
153,-6.4,-541.8666666666667,-110.93333333333334
154,-6.4,-533.3333333333334,-100.26666666666667
155,-2.1333333333333333,-533.3333333333334,-108.8
156,-4.266666666666667,-539.7333333333333,-104.53333333333333
157,-19.2,-546.1333333333333,-113.06666666666666
158,-10.666666666666666,-533.3333333333334,-110.93333333333334
159,-4.266666666666667,-539.7333333333333,-104.53333333333333
160,-12.8,-537.6,-108.8
161,-6.4,-535.4666666666667,-100.26666666666667
162,-4.266666666666667,-537.6,-104.53333333333333
163,-8.533333333333333,-539.7333333333333,-100.26666666666667
164,-6.4,-537.6,-108.8
165,-8.533333333333333,-537.6,-100.26666666666667
166,-14.933333333333334,-531.2,-100.26666666666667
167,-6.4,-535.4666666666667,-100.26666666666667
168,-4.266666666666667,-539.7333333333333,-100.26666666666667
169,-12.8,-537.6,-100.26666666666667
170,0.0,-539.7333333333333,-102.4
171,-2.1333333333333333,-537.6,-102.4
172,-12.8,-535.4666666666667,-100.26666666666667
173,-6.4,-541.8666666666667,-102.4
174,-6.4,-539.7333333333333,-106.66666666666667
175,-4.266666666666667,-537.6,-102.4
176,-6.4,-544.0,-108.8
177,-6.4,-535.4666666666667,-106.66666666666667
178,-6.4,-537.6,-98.13333333333333
179,10.666666666666666,-533.3333333333334,-61.86666666666667
180,0.0,-544.0,-106.66666666666667
181,-2.1333333333333333,-539.7333333333333,-104.53333333333333
182,-2.1333333333333333,-541.8666666666667,-106.66666666666667
183,-6.4,-537.6,-104.53333333333333
184,-2.1333333333333333,-535.4666666666667,-102.4
185,-8.533333333333333,-535.4666666666667,-102.4
186,-12.8,-535.4666666666667,-104.53333333333333
187,-4.266666666666667,-535.4666666666667,-102.4
188,-6.4,-533.3333333333334,-106.66666666666667
189,-2.1333333333333333,-533.3333333333334,-104.53333333333333
190,-4.266666666666667,-539.7333333333333,-96.0
191,0.0,-539.7333333333333,-108.8
192,-2.1333333333333333,-539.7333333333333,-100.26666666666667
193,-2.1333333333333333,-541.8666666666667,-96.0
194,-4.266666666666667,-539.7333333333333,-108.8
195,-10.666666666666666,-535.4666666666667,-96.0
196,-12.8,-539.7333333333333,-102.4
197,-6.4,-535.4666666666667,-102.4
198,-8.533333333333333,-537.6,-104.53333333333333
199,-4.266666666666667,-537.6,-100.26666666666667
200,-6.4,-537.6,-96.0
201,-8.533333333333333,-533.3333333333334,-96.0
202,-6.4,-537.6,-106.66666666666667
203,-2.1333333333333333,-548.2666666666667,-102.4
204,-6.4,-539.7333333333333,-106.66666666666667
205,-10.666666666666666,-537.6,-106.66666666666667
206,-2.1333333333333333,-539.7333333333333,-102.4
207,0.0,-541.8666666666667,-96.0
208,-8.533333333333333,-539.7333333333333,-104.53333333333333
209,-4.266666666666667,-539.7333333333333,-93.86666666666666
210,-6.4,-535.4666666666667,-106.66666666666667
211,-10.666666666666666,-539.7333333333333,-91.73333333333333
212,-8.533333333333333,-539.7333333333333,-98.13333333333333
213,-6.4,-541.8666666666667,-108.8
214,-2.1333333333333333,-539.7333333333333,-104.53333333333333
215,-12.8,-537.6,-104.53333333333333
216,-8.533333333333333,-539.7333333333333,-100.26666666666667
217,-8.533333333333333,-537.6,-102.4
218,-10.666666666666666,-537.6,-102.4
219,-6.4,-539.7333333333333,-106.66666666666667
220,-6.4,-544.0,-102.4
221,-2.1333333333333333,-537.6,-104.53333333333333
222,-12.8,-535.4666666666667,-102.4
223,-4.266666666666667,-535.4666666666667,-98.13333333333333
224,-4.266666666666667,-533.3333333333334,-98.13333333333333
225,-6.4,-531.2,-104.53333333333333
226,-4.266666666666667,-539.7333333333333,-104.53333333333333
227,-10.666666666666666,-533.3333333333334,-106.66666666666667
228,-6.4,-533.3333333333334,-110.93333333333334
229,-10.666666666666666,-531.2,-96.0
230,-8.533333333333333,-533.3333333333334,-104.53333333333333
231,-4.266666666666667,-539.7333333333333,-100.26666666666667
232,-6.4,-537.6,-102.4
233,-10.666666666666666,-539.7333333333333,-100.26666666666667
234,-12.8,-533.3333333333334,-102.4
235,-8.533333333333333,-537.6,-106.66666666666667
236,-2.1333333333333333,-539.7333333333333,-102.4
237,-10.666666666666666,-537.6,-102.4
238,-10.666666666666666,-533.3333333333334,-108.8
239,-12.8,-537.6,-104.53333333333333
240,-6.4,-537.6,-108.8
241,-14.933333333333334,-537.6,-108.8
242,-4.266666666666667,-539.7333333333333,-104.53333333333333
243,-14.933333333333334,-539.7333333333333,-102.4
244,6.4,-548.2666666666667,-89.6
245,-6.4,-541.8666666666667,-106.66666666666667
246,-4.266666666666667,-535.4666666666667,-110.93333333333334
247,-8.533333333333333,-537.6,-110.93333333333334
248,-6.4,-546.1333333333333,-115.2
249,-6.4,-531.2,-108.8
250,-2.1333333333333333,-535.4666666666667,-102.4
251,-10.666666666666666,-537.6,-106.66666666666667
252,-6.4,-535.4666666666667,-104.53333333333333
253,-2.1333333333333333,-537.6,-108.8
254,0.0,-541.8666666666667,-110.93333333333334
255,-6.4,-533.3333333333334,-106.66666666666667
256,-12.8,-535.4666666666667,-108.8
257,0.0,-539.7333333333333,-106.66666666666667
258,-2.1333333333333333,-533.3333333333334,-108.8
259,-6.4,-533.3333333333334,-93.86666666666666
260,-2.1333333333333333,-537.6,-102.4
261,-4.266666666666667,-533.3333333333334,-104.53333333333333
262,-8.533333333333333,-535.4666666666667,-102.4
263,-2.1333333333333333,-535.4666666666667,-108.8
264,-2.1333333333333333,-535.4666666666667,-102.4
265,-4.266666666666667,-539.7333333333333,-106.66666666666667
266,-6.4,-535.4666666666667,-98.13333333333333
267,-17.066666666666666,-531.2,-104.53333333333333
268,-8.533333333333333,-539.7333333333333,-100.26666666666667
269,-12.8,-541.8666666666667,-104.53333333333333
270,-6.4,-539.7333333333333,-102.4
271,-4.266666666666667,-537.6,-104.53333333333333
272,-12.8,-533.3333333333334,-100.26666666666667
273,-6.4,-537.6,-102.4
274,0.0,-544.0,-108.8
275,-2.1333333333333333,-550.4,-108.8
276,0.0,-544.0,-106.66666666666667
277,-2.1333333333333333,-544.0,-113.06666666666666
278,-2.1333333333333333,-541.8666666666667,-115.2
279,-14.933333333333334,-535.4666666666667,-106.66666666666667
280,-6.4,-537.6,-110.93333333333334
281,-8.533333333333333,-533.3333333333334,-110.93333333333334
282,-4.266666666666667,-539.7333333333333,-113.06666666666666
283,-6.4,-533.3333333333334,-113.06666666666666
284,-2.1333333333333333,-533.3333333333334,-113.06666666666666
285,-6.4,-535.4666666666667,-117.33333333333333
286,-8.533333333333333,-539.7333333333333,-104.53333333333333
287,-4.266666666666667,-535.4666666666667,-110.93333333333334
288,-17.066666666666666,-524.8,-119.46666666666667
289,-2.1333333333333333,-531.2,-106.66666666666667
290,-6.4,-535.4666666666667,-110.93333333333334
291,-6.4,-539.7333333333333,-108.8
292,-4.266666666666667,-541.8666666666667,-106.66666666666667
293,-10.666666666666666,-539.7333333333333,-104.53333333333333
294,-6.4,-539.7333333333333,-108.8
295,-6.4,-539.7333333333333,-102.4
296,-6.4,-537.6,-106.66666666666667
297,-8.533333333333333,-537.6,-113.06666666666666
298,-12.8,-529.0666666666666,-121.6
299,-6.4,-537.6,-113.06666666666666
300,-4.266666666666667,-541.8666666666667,-110.93333333333334
301,-10.666666666666666,-537.6,-117.33333333333333
302,-6.4,-537.6,-125.86666666666666
303,-4.266666666666667,-533.3333333333334,-113.06666666666666
304,-8.533333333333333,-539.7333333333333,-117.33333333333333
305,-6.4,-539.7333333333333,-113.06666666666666
306,-8.533333333333333,-533.3333333333334,-106.66666666666667
307,-4.266666666666667,-537.6,-123.73333333333333
308,0.0,-537.6,-108.8
309,-4.266666666666667,-537.6,-113.06666666666666
310,-27.733333333333334,-548.2666666666667,-123.73333333333333
311,-6.4,-533.3333333333334,-110.93333333333334
312,-2.1333333333333333,-539.7333333333333,-115.2
313,-2.1333333333333333,-546.1333333333333,-110.93333333333334
314,-2.1333333333333333,-537.6,-110.93333333333334
315,0.0,-537.6,-119.46666666666667
316,-6.4,-529.0666666666666,-113.06666666666666
317,-12.8,-533.3333333333334,-113.06666666666666
318,-6.4,-533.3333333333334,-117.33333333333333
319,-12.8,-537.6,-108.8
320,-4.266666666666667,-548.2666666666667,-121.6
321,-6.4,-537.6,-115.2
322,0.0,-544.0,-117.33333333333333
323,-8.533333333333333,-529.0666666666666,-108.8
324,-4.266666666666667,-539.7333333333333,-104.53333333333333
325,-8.533333333333333,-541.8666666666667,-108.8
326,-8.533333333333333,-535.4666666666667,-117.33333333333333
327,-4.266666666666667,-537.6,-115.2
328,-14.933333333333334,-537.6,-117.33333333333333
329,-6.4,-539.7333333333333,-110.93333333333334
330,-6.4,-535.4666666666667,-110.93333333333334
331,-14.933333333333334,-531.2,-106.66666666666667
332,-17.066666666666666,-546.1333333333333,-102.4
333,-4.266666666666667,-541.8666666666667,-117.33333333333333
334,-2.1333333333333333,-529.0666666666666,-108.8
335,-2.1333333333333333,-535.4666666666667,-117.33333333333333
336,-8.533333333333333,-535.4666666666667,-119.46666666666667
337,-2.1333333333333333,-533.3333333333334,-115.2
338,-2.1333333333333333,-535.4666666666667,-123.73333333333333
339,-4.266666666666667,-537.6,-123.73333333333333
340,-4.266666666666667,-537.6,-119.46666666666667
341,-12.8,-533.3333333333334,-121.6
342,-12.8,-533.3333333333334,-130.13333333333333
343,-6.4,-531.2,-121.6
344,0.0,-535.4666666666667,-128.0
345,-2.1333333333333333,-535.4666666666667,-117.33333333333333
346,-4.266666666666667,-537.6,-125.86666666666666
347,0.0,-535.4666666666667,-121.6
348,-6.4,-535.4666666666667,-123.73333333333333
349,-6.4,-535.4666666666667,-121.6
350,-6.4,-535.4666666666667,-113.06666666666666
351,-6.4,-535.4666666666667,-121.6
352,-10.666666666666666,-531.2,-115.2
353,4.266666666666667,-531.2,-121.6
354,-4.266666666666667,-539.7333333333333,-121.6
355,-4.266666666666667,-535.4666666666667,-130.13333333333333
356,-8.533333333333333,-533.3333333333334,-121.6
357,0.0,-537.6,-119.46666666666667
358,-2.1333333333333333,-539.7333333333333,-121.6
359,-4.266666666666667,-533.3333333333334,-119.46666666666667
360,-10.666666666666666,-531.2,-117.33333333333333
361,-8.533333333333333,-535.4666666666667,-115.2
362,-6.4,-539.7333333333333,-123.73333333333333
363,-6.4,-546.1333333333333,-117.33333333333333
364,-4.266666666666667,-539.7333333333333,-115.2
365,-12.8,-531.2,-117.33333333333333
366,-8.533333333333333,-539.7333333333333,-121.6
367,-10.666666666666666,-535.4666666666667,-113.06666666666666
368,-6.4,-541.8666666666667,-119.46666666666667
369,-19.2,-531.2,-123.73333333333333
370,-8.533333333333333,-533.3333333333334,-128.0
371,-8.533333333333333,-539.7333333333333,-117.33333333333333
372,-4.266666666666667,-537.6,-117.33333333333333
373,-4.266666666666667,-539.7333333333333,-121.6
374,-8.533333333333333,-535.4666666666667,-121.6
375,-12.8,-531.2,-136.53333333333333
376,0.0,-541.8666666666667,-123.73333333333333
377,-2.1333333333333333,-535.4666666666667,-125.86666666666666
378,-4.266666666666667,-535.4666666666667,-121.6
379,-8.533333333333333,-533.3333333333334,-119.46666666666667
380,-6.4,-535.4666666666667,-125.86666666666666
381,0.0,-533.3333333333334,-125.86666666666666
382,-8.533333333333333,-533.3333333333334,-121.6
383,-6.4,-537.6,-121.6
384,-4.266666666666667,-537.6,-128.0
385,0.0,-531.2,-123.73333333333333
386,-6.4,-535.4666666666667,-125.86666666666666
387,-2.1333333333333333,-535.4666666666667,-121.6
388,-10.666666666666666,-537.6,-119.46666666666667
389,-8.533333333333333,-535.4666666666667,-117.33333333333333
390,0.0,-531.2,-125.86666666666666
391,-8.533333333333333,-535.4666666666667,-132.26666666666665
392,-8.533333333333333,-535.4666666666667,-128.0
393,-4.266666666666667,-537.6,-125.86666666666666
394,-2.1333333333333333,-533.3333333333334,-115.2
395,-2.1333333333333333,-531.2,-125.86666666666666
396,-6.4,-539.7333333333333,-123.73333333333333
397,-4.266666666666667,-529.0666666666666,-142.93333333333334
398,-6.4,-535.4666666666667,-119.46666666666667
399,-2.1333333333333333,-541.8666666666667,-132.26666666666665
400,-14.933333333333334,-531.2,-119.46666666666667
401,-10.666666666666666,-539.7333333333333,-119.46666666666667
402,-6.4,-533.3333333333334,-125.86666666666666
403,-2.1333333333333333,-537.6,-121.6
404,-4.266666666666667,-539.7333333333333,-132.26666666666665
405,-8.533333333333333,-533.3333333333334,-121.6
406,-2.1333333333333333,-529.0666666666666,-132.26666666666665
407,-6.4,-529.0666666666666,-123.73333333333333
408,-10.666666666666666,-533.3333333333334,-123.73333333333333
409,-4.266666666666667,-537.6,-119.46666666666667
410,-12.8,-537.6,-125.86666666666666
411,0.0,-529.0666666666666,-121.6
412,-4.266666666666667,-533.3333333333334,-121.6
413,0.0,-535.4666666666667,-128.0
414,-10.666666666666666,-531.2,-125.86666666666666
415,-4.266666666666667,-535.4666666666667,-121.6
416,0.0,-544.0,-130.13333333333333
417,-6.4,-535.4666666666667,-117.33333333333333
418,-6.4,-539.7333333333333,-115.2
419,-8.533333333333333,-531.2,-119.46666666666667
420,-4.266666666666667,-533.3333333333334,-123.73333333333333
421,-2.1333333333333333,-537.6,-128.0
422,-4.266666666666667,-529.0666666666666,-117.33333333333333
423,-2.1333333333333333,-531.2,-128.0
424,-2.1333333333333333,-533.3333333333334,-123.73333333333333
425,-8.533333333333333,-533.3333333333334,-125.86666666666666
426,-2.1333333333333333,-537.6,-121.6
427,-4.266666666666667,-533.3333333333334,-121.6
428,-2.1333333333333333,-539.7333333333333,-121.6
429,-6.4,-539.7333333333333,-119.46666666666667
430,-4.266666666666667,-535.4666666666667,-125.86666666666666
431,-10.666666666666666,-529.0666666666666,-117.33333333333333
432,-2.1333333333333333,-531.2,-121.6
433,-10.666666666666666,-531.2,-128.0
434,0.0,-537.6,-123.73333333333333
435,-4.266666666666667,-537.6,-121.6
436,-4.266666666666667,-539.7333333333333,-125.86666666666666
437,0.0,-539.7333333333333,-128.0
438,-2.1333333333333333,-539.7333333333333,-123.73333333333333
439,-6.4,-535.4666666666667,-125.86666666666666
440,-14.933333333333334,-526.9333333333333,-119.46666666666667
441,0.0,-539.7333333333333,-123.73333333333333
442,-6.4,-535.4666666666667,-128.0
443,0.0,-535.4666666666667,-123.73333333333333
444,-8.533333333333333,-529.0666666666666,-136.53333333333333
445,-8.533333333333333,-537.6,-119.46666666666667
446,-8.533333333333333,-533.3333333333334,-123.73333333333333
447,-6.4,-533.3333333333334,-121.6
448,-2.1333333333333333,-531.2,-123.73333333333333
449,-4.266666666666667,-533.3333333333334,-125.86666666666666
450,-4.266666666666667,-533.3333333333334,-121.6
451,-8.533333333333333,-531.2,-125.86666666666666
452,-10.666666666666666,-537.6,-123.73333333333333
453,-8.533333333333333,-539.7333333333333,-128.0
454,0.0,-539.7333333333333,-123.73333333333333
455,-8.533333333333333,-531.2,-121.6
456,0.0,-535.4666666666667,-132.26666666666665
457,0.0,-533.3333333333334,-125.86666666666666
458,0.0,-533.3333333333334,-121.6
459,0.0,-537.6,-121.6
460,0.0,-533.3333333333334,-125.86666666666666
461,2.1333333333333333,-539.7333333333333,-117.33333333333333
462,2.1333333333333333,-537.6,-119.46666666666667
463,0.0,-535.4666666666667,-125.86666666666666
464,0.0,-541.8666666666667,-119.46666666666667
465,0.0,-539.7333333333333,-119.46666666666667
466,0.0,-537.6,-121.6
467,-6.4,-526.9333333333333,-125.86666666666666
468,-10.666666666666666,-533.3333333333334,-128.0
469,-6.4,-529.0666666666666,-134.4
470,-6.4,-533.3333333333334,-128.0
471,-8.533333333333333,-533.3333333333334,-136.53333333333333
472,-8.533333333333333,-531.2,-132.26666666666665
473,-8.533333333333333,-533.3333333333334,-121.6
474,-4.266666666666667,-537.6,-121.6
475,-10.666666666666666,-537.6,-136.53333333333333
476,0.0,-539.7333333333333,-130.13333333333333
477,-8.533333333333333,-531.2,-119.46666666666667
478,-6.4,-535.4666666666667,-125.86666666666666
479,-4.266666666666667,-533.3333333333334,-123.73333333333333
480,-2.1333333333333333,-531.2,-115.2
481,-4.266666666666667,-537.6,-113.06666666666666
482,0.0,-533.3333333333334,-108.8
483,0.0,-529.0666666666666,-119.46666666666667
484,2.1333333333333333,-537.6,-128.0
485,2.1333333333333333,-537.6,-117.33333333333333
486,0.0,-535.4666666666667,-119.46666666666667
487,0.0,-539.7333333333333,-119.46666666666667
488,0.0,-539.7333333333333,-123.73333333333333
489,0.0,-544.0,-115.2
490,0.0,-541.8666666666667,-121.6
491,4.266666666666667,-539.7333333333333,-128.0
492,2.1333333333333333,-537.6,-128.0
493,2.1333333333333333,-539.7333333333333,-134.4
494,8.533333333333333,-544.0,-140.8
495,4.266666666666667,-541.8666666666667,-147.2
496,8.533333333333333,-544.0,-151.46666666666667
497,8.533333333333333,-541.8666666666667,-147.2
498,10.666666666666666,-539.7333333333333,-140.8
499,4.266666666666667,-531.2,-140.8
500,4.266666666666667,-533.3333333333334,-142.93333333333334
501,10.666666666666666,-535.4666666666667,-149.33333333333334
502,12.8,-537.6,-149.33333333333334
503,10.666666666666666,-535.4666666666667,-140.8
504,17.066666666666666,-539.7333333333333,-145.06666666666666
505,12.8,-537.6,-145.06666666666666
506,29.866666666666667,-533.3333333333334,-145.06666666666666
507,8.533333333333333,-539.7333333333333,-149.33333333333334
508,2.1333333333333333,-531.2,-147.2
509,6.4,-537.6,-140.8
510,2.1333333333333333,-533.3333333333334,-145.06666666666666
511,-2.1333333333333333,-531.2,-147.2
512,-4.266666666666667,-529.0666666666666,-153.6
513,-6.4,-524.8,-155.73333333333332
514,-4.266666666666667,-524.8,-157.86666666666667
515,-2.1333333333333333,-526.9333333333333,-153.6
516,0.0,-531.2,-166.4
517,0.0,-531.2,-168.53333333333333
518,0.0,-531.2,-172.8
519,6.4,-535.4666666666667,-160.0
520,8.533333333333333,-526.9333333333333,-168.53333333333333
521,14.933333333333334,-537.6,-168.53333333333333
522,14.933333333333334,-522.6666666666666,-162.13333333333333
523,21.333333333333332,-526.9333333333333,-160.0
524,21.333333333333332,-524.8,-160.0
525,21.333333333333332,-524.8,-164.26666666666665
526,19.2,-524.8,-157.86666666666667
527,29.866666666666667,-509.8666666666667,-183.46666666666667
528,14.933333333333334,-514.1333333333333,-155.73333333333332
529,14.933333333333334,-524.8,-142.93333333333334
530,10.666666666666666,-529.0666666666666,-153.6
531,2.1333333333333333,-524.8,-157.86666666666667
532,0.0,-526.9333333333333,-151.46666666666667
533,-6.4,-531.2,-147.2
534,-12.8,-537.6,-145.06666666666666
535,-17.066666666666666,-537.6,-145.06666666666666
536,-14.933333333333334,-541.8666666666667,-140.8
537,-19.2,-544.0,-145.06666666666666
538,-12.8,-552.5333333333333,-138.66666666666666
539,-21.333333333333332,-558.9333333333333,-130.13333333333333
540,-10.666666666666666,-552.5333333333333,-128.0
541,-2.1333333333333333,-565.3333333333334,-134.4
542,2.1333333333333333,-558.9333333333333,-136.53333333333333
543,4.266666666666667,-569.6,-132.26666666666665
544,6.4,-569.6,-134.4
545,8.533333333333333,-590.9333333333333,-132.26666666666665
546,14.933333333333334,-588.8,-121.6
547,10.666666666666666,-593.0666666666666,-121.6
548,17.066666666666666,-599.4666666666667,-119.46666666666667
549,21.333333333333332,-605.8666666666667,-136.53333333333333
550,14.933333333333334,-601.6,-132.26666666666665
551,12.8,-605.8666666666667,-134.4
552,14.933333333333334,-601.6,-128.0
553,8.533333333333333,-599.4666666666667,-149.33333333333334
554,12.8,-590.9333333333333,-142.93333333333334
555,8.533333333333333,-590.9333333333333,-151.46666666666667
556,6.4,-582.4,-138.66666666666666
557,4.266666666666667,-578.1333333333333,-136.53333333333333
558,10.666666666666666,-584.5333333333333,-140.8
559,17.066666666666666,-578.1333333333333,-147.2
560,23.466666666666665,-567.4666666666667,-147.2
561,19.2,-563.2,-140.8
562,14.933333333333334,-550.4,-149.33333333333334
563,17.066666666666666,-541.8666666666667,-153.6
564,21.333333333333332,-533.3333333333334,-157.86666666666667
565,12.8,-535.4666666666667,-151.46666666666667
566,8.533333333333333,-539.7333333333333,-134.4
567,4.266666666666667,-531.2,-121.6
568,8.533333333333333,-524.8,-121.6
569,21.333333333333332,-509.8666666666667,-142.93333333333334
570,36.266666666666666,-501.3333333333333,-147.2
571,61.86666666666667,-490.6666666666667,-147.2
572,87.46666666666667,-475.73333333333335,-149.33333333333334
573,117.33333333333333,-482.1333333333333,-151.46666666666667
574,140.8,-501.3333333333333,-145.06666666666666
575,160.0,-509.8666666666667,-132.26666666666665
576,170.66666666666666,-503.46666666666664,-117.33333333333333
577,189.86666666666667,-520.5333333333333,-136.53333333333333
578,196.26666666666665,-520.5333333333333,-153.6
579,206.93333333333334,-529.0666666666666,-155.73333333333332
580,215.46666666666667,-533.3333333333334,-153.6
581,215.46666666666667,-541.8666666666667,-157.86666666666667
582,211.2,-548.2666666666667,-155.73333333333332
583,200.53333333333333,-539.7333333333333,-142.93333333333334
584,198.4,-531.2,-128.0
585,192.0,-529.0666666666666,-123.73333333333333
586,187.73333333333332,-522.6666666666666,-121.6
587,183.46666666666667,-516.2666666666667,-119.46666666666667
588,192.0,-507.73333333333335,-113.06666666666666
589,187.73333333333332,-494.93333333333334,-106.66666666666667
590,187.73333333333332,-490.6666666666667,-104.53333333333333
591,194.13333333333333,-488.5333333333333,-93.86666666666666
592,189.86666666666667,-462.93333333333334,-108.8
593,198.4,-467.2,-93.86666666666666
594,204.8,-458.6666666666667,-100.26666666666667
595,211.2,-448.0,-104.53333333333333
596,215.46666666666667,-454.4,-96.0
597,215.46666666666667,-441.59999999999997,-87.46666666666667
598,221.86666666666667,-456.5333333333333,-93.86666666666666
599,234.66666666666666,-460.8,-91.73333333333333
600,230.4,-462.93333333333334,-106.66666666666667
601,236.79999999999998,-471.46666666666664,-100.26666666666667
602,238.93333333333334,-477.8666666666667,-91.73333333333333
603,249.6,-482.1333333333333,-104.53333333333333
604,243.2,-484.26666666666665,-115.2
605,245.33333333333334,-486.4,-119.46666666666667
606,243.2,-484.26666666666665,-117.33333333333333
607,241.06666666666666,-484.26666666666665,-110.93333333333334
608,241.06666666666666,-488.5333333333333,-113.06666666666666
609,245.33333333333334,-490.6666666666667,-102.4
610,262.4,-494.93333333333334,-104.53333333333333
611,270.93333333333334,-480.0,-108.8
612,260.26666666666665,-460.8,-123.73333333333333
613,264.5333333333333,-454.4,-140.8
614,290.1333333333333,-462.93333333333334,-145.06666666666666
615,305.06666666666666,-477.8666666666667,-110.93333333333334
616,305.06666666666666,-475.73333333333335,-121.6
617,298.6666666666667,-445.8666666666667,-113.06666666666666
618,283.73333333333335,-426.6666666666667,-117.33333333333333
619,268.8,-426.6666666666667,-110.93333333333334
620,285.8666666666667,-443.73333333333335,-98.13333333333333
621,292.26666666666665,-437.3333333333333,-72.53333333333333
622,281.6,-424.5333333333333,-89.6
623,294.4,-430.93333333333334,-89.6
624,292.26666666666665,-428.8,-100.26666666666667
625,288.0,-424.5333333333333,-83.2
626,285.8666666666667,-428.8,-87.46666666666667
627,281.6,-430.93333333333334,-87.46666666666667
628,292.26666666666665,-435.2,-68.26666666666667
629,298.6666666666667,-435.2,-66.13333333333333
630,305.06666666666666,-428.8,-70.4
631,326.4,-426.6666666666667,-76.8
632,341.3333333333333,-426.6666666666667,-85.33333333333333
633,352.0,-418.1333333333333,-89.6
634,369.06666666666666,-409.6,-85.33333333333333
635,381.8666666666667,-407.46666666666664,-74.66666666666667
636,396.8,-409.6,-72.53333333333333
637,407.46666666666664,-411.73333333333335,-72.53333333333333
638,409.6,-416.0,-64.0
639,409.6,-420.26666666666665,-49.06666666666666
640,413.8666666666667,-433.06666666666666,-59.733333333333334
641,405.3333333333333,-437.3333333333333,-61.86666666666667
642,390.4,-439.46666666666664,-49.06666666666666
643,384.0,-445.8666666666667,-44.8
644,369.06666666666666,-435.2,-49.06666666666666
645,354.1333333333333,-424.5333333333333,-36.266666666666666
646,352.0,-424.5333333333333,-49.06666666666666
647,337.06666666666666,-420.26666666666665,-40.53333333333333
648,334.93333333333334,-413.8666666666667,-40.53333333333333
649,332.8,-409.6,-38.4
650,339.2,-411.73333333333335,-49.06666666666666
651,334.93333333333334,-405.3333333333333,-53.333333333333336
652,343.46666666666664,-398.93333333333334,-51.2
653,356.26666666666665,-396.8,-53.333333333333336
654,362.6666666666667,-394.6666666666667,-49.06666666666666
655,366.93333333333334,-394.6666666666667,-61.86666666666667
656,369.06666666666666,-394.6666666666667,-57.6
657,403.2,-362.6666666666667,-74.66666666666667
658,384.0,-394.6666666666667,-53.333333333333336
659,381.8666666666667,-388.26666666666665,-53.333333333333336
660,386.1333333333333,-384.0,-49.06666666666666
661,386.1333333333333,-394.6666666666667,-42.666666666666664
662,394.6666666666667,-386.1333333333333,-49.06666666666666
663,401.06666666666666,-388.26666666666665,-38.4
664,390.4,-390.4,-36.266666666666666
665,386.1333333333333,-390.4,-38.4
666,384.0,-386.1333333333333,-36.266666666666666
667,386.1333333333333,-390.4,-40.53333333333333
668,381.8666666666667,-392.5333333333333,-44.8
669,379.73333333333335,-392.5333333333333,-36.266666666666666
670,379.73333333333335,-394.6666666666667,-38.4
671,381.8666666666667,-394.6666666666667,-40.53333333333333
672,377.6,-388.26666666666665,-38.4
673,373.3333333333333,-381.8666666666667,-38.4
674,384.0,-369.06666666666666,-38.4
675,375.46666666666664,-369.06666666666666,-42.666666666666664
676,369.06666666666666,-362.6666666666667,-40.53333333333333
677,364.8,-364.8,-40.53333333333333
678,358.4,-362.6666666666667,-42.666666666666664
679,356.26666666666665,-366.93333333333334,-25.6
680,360.5333333333333,-362.6666666666667,-44.8
681,364.8,-354.1333333333333,-53.333333333333336
682,371.2,-362.6666666666667,-53.333333333333336
683,381.8666666666667,-366.93333333333334,-59.733333333333334
684,379.73333333333335,-362.6666666666667,-46.93333333333333
685,384.0,-364.8,-57.6
686,390.4,-354.1333333333333,-53.333333333333336
687,396.8,-339.2,-44.8
688,396.8,-332.8,-44.8
689,396.8,-328.5333333333333,-42.666666666666664
690,405.3333333333333,-317.8666666666667,-40.53333333333333
691,409.6,-317.8666666666667,-40.53333333333333
692,413.8666666666667,-309.3333333333333,-40.53333333333333
693,418.1333333333333,-309.3333333333333,-29.866666666666667
694,422.4,-300.8,-27.733333333333334
695,430.93333333333334,-305.06666666666666,-19.2
696,433.06666666666666,-305.06666666666666,-23.466666666666665
697,441.59999999999997,-309.3333333333333,-19.2
698,439.46666666666664,-313.6,-25.6
699,443.73333333333335,-320.0,-27.733333333333334
700,439.46666666666664,-317.8666666666667,-34.13333333333333
701,437.3333333333333,-315.73333333333335,-32.0
702,433.06666666666666,-315.73333333333335,-19.2
703,433.06666666666666,-317.8666666666667,-36.266666666666666
704,437.3333333333333,-313.6,-36.266666666666666
705,435.2,-320.0,-40.53333333333333
706,433.06666666666666,-326.4,-42.666666666666664
707,435.2,-328.5333333333333,-36.266666666666666
708,433.06666666666666,-326.4,-29.866666666666667
709,424.5333333333333,-315.73333333333335,-19.2
710,428.8,-315.73333333333335,-25.6
711,426.6666666666667,-302.93333333333334,-23.466666666666665
712,418.1333333333333,-292.26666666666665,-29.866666666666667
713,420.26666666666665,-292.26666666666665,-32.0
714,424.5333333333333,-294.4,-21.333333333333332
715,426.6666666666667,-277.3333333333333,-17.066666666666666
716,435.2,-273.06666666666666,-8.533333333333333
717,435.2,-262.4,0.0
718,443.73333333333335,-256.0,10.666666666666666
719,448.0,-251.73333333333332,17.066666666666666
720,452.26666666666665,-249.6,17.066666666666666
721,458.6666666666667,-234.66666666666666,14.933333333333334
722,467.2,-243.2,0.0
723,460.8,-221.86666666666667,-17.066666666666666
724,473.59999999999997,-228.26666666666665,-8.533333333333333
725,484.26666666666665,-232.53333333333333,4.266666666666667
726,492.8,-228.26666666666665,-10.666666666666666
727,486.4,-232.53333333333333,0.0
728,488.5333333333333,-230.4,0.0
729,484.26666666666665,-219.73333333333332,-8.533333333333333
730,490.6666666666667,-226.13333333333333,0.0
731,488.5333333333333,-217.6,0.0
732,492.8,-221.86666666666667,-6.4
733,497.06666666666666,-228.26666666666665,-12.8
734,501.3333333333333,-226.13333333333333,-14.933333333333334
735,497.06666666666666,-226.13333333333333,-19.2
736,509.8666666666667,-226.13333333333333,-4.266666666666667
737,512.0,-230.4,2.1333333333333333
738,512.0,-228.26666666666665,-10.666666666666666
739,505.59999999999997,-221.86666666666667,-8.533333333333333
740,514.1333333333333,-206.93333333333334,-6.4
741,512.0,-209.06666666666666,-8.533333333333333
742,514.1333333333333,-206.93333333333334,-10.666666666666666
743,501.3333333333333,-215.46666666666667,-6.4
744,505.59999999999997,-226.13333333333333,14.933333333333334
745,512.0,-224.0,-4.266666666666667
746,499.2,-230.4,-6.4
747,505.59999999999997,-226.13333333333333,0.0
748,503.46666666666664,-238.93333333333334,17.066666666666666
749,497.06666666666666,-241.06666666666666,29.866666666666667
750,482.1333333333333,-234.66666666666666,25.6
751,469.3333333333333,-230.4,19.2
752,450.1333333333333,-217.6,23.466666666666665
753,437.3333333333333,-215.46666666666667,6.4
754,428.8,-213.33333333333334,-2.1333333333333333
755,435.2,-209.06666666666666,-8.533333333333333
756,458.6666666666667,-196.26666666666665,-6.4
757,477.8666666666667,-189.86666666666667,-8.533333333333333
758,490.6666666666667,-185.6,8.533333333333333
759,499.2,-185.6,21.333333333333332
760,505.59999999999997,-172.8,27.733333333333334
761,526.9333333333333,-166.4,38.4
762,541.8666666666667,-147.2,51.2
763,554.6666666666666,-140.8,61.86666666666667
764,556.8,-132.26666666666665,68.26666666666667
765,567.4666666666667,-121.6,81.06666666666666
766,567.4666666666667,-130.13333333333333,102.4
767,590.9333333333333,-119.46666666666667,85.33333333333333
768,597.3333333333334,-113.06666666666666,91.73333333333333
769,612.2666666666667,-117.33333333333333,78.93333333333334
770,618.6666666666666,-108.8,85.33333333333333
771,614.4,-108.8,85.33333333333333
772,616.5333333333333,-104.53333333333333,87.46666666666667
773,618.6666666666666,-93.86666666666666,81.06666666666666
774,620.8,-85.33333333333333,78.93333333333334
775,612.2666666666667,-78.93333333333334,93.86666666666666
776,620.8,-74.66666666666667,93.86666666666666
777,620.8,-68.26666666666667,100.26666666666667
778,625.0666666666666,-59.733333333333334,96.0
779,625.0666666666666,-61.86666666666667,108.8
780,612.2666666666667,-59.733333333333334,121.6
781,586.6666666666666,-55.46666666666667,123.73333333333333
782,580.2666666666667,-64.0,142.93333333333334
783,573.8666666666667,-72.53333333333333,138.66666666666666
784,558.9333333333333,-74.66666666666667,138.66666666666666
785,552.5333333333333,-76.8,134.4
786,544.0,-85.33333333333333,123.73333333333333
787,520.5333333333333,-89.6,119.46666666666667
788,503.46666666666664,-93.86666666666666,117.33333333333333
789,484.26666666666665,-74.66666666666667,123.73333333333333
790,482.1333333333333,-83.2,125.86666666666666
791,467.2,-78.93333333333334,140.8
792,452.26666666666665,-81.06666666666666,164.26666666666665
793,443.73333333333335,-66.13333333333333,168.53333333333333
794,439.46666666666664,-59.733333333333334,179.2
795,441.59999999999997,-55.46666666666667,185.6
796,443.73333333333335,-51.2,179.2
797,452.26666666666665,-55.46666666666667,181.33333333333334
798,439.46666666666664,-61.86666666666667,179.2
799,443.73333333333335,-57.6,183.46666666666667
800,435.2,-64.0,196.26666666666665
801,422.4,-76.8,192.0
802,418.1333333333333,-83.2,209.06666666666666
803,405.3333333333333,-85.33333333333333,202.66666666666666
804,401.06666666666666,-91.73333333333333,215.46666666666667
805,401.06666666666666,-98.13333333333333,221.86666666666667
806,401.06666666666666,-113.06666666666666,230.4
807,398.93333333333334,-117.33333333333333,232.53333333333333
808,405.3333333333333,-121.6,234.66666666666666
809,416.0,-125.86666666666666,241.06666666666666
810,441.59999999999997,-128.0,262.4
811,435.2,-134.4,247.46666666666667
812,443.73333333333335,-138.66666666666666,247.46666666666667
813,454.4,-134.4,245.33333333333334
814,460.8,-128.0,234.66666666666666
815,465.06666666666666,-115.2,221.86666666666667
816,471.46666666666664,-108.8,192.0
817,482.1333333333333,-110.93333333333334,170.66666666666666
818,480.0,-106.66666666666667,147.2
819,477.8666666666667,-115.2,145.06666666666666
820,477.8666666666667,-130.13333333333333,132.26666666666665
821,469.3333333333333,-147.2,140.8
822,467.2,-164.26666666666665,136.53333333333333
823,480.0,-185.6,149.33333333333334
824,490.6666666666667,-194.13333333333333,157.86666666666667
825,484.26666666666665,-209.06666666666666,155.73333333333332
826,486.4,-219.73333333333332,153.6
827,482.1333333333333,-221.86666666666667,151.46666666666667
828,475.73333333333335,-221.86666666666667,153.6
829,475.73333333333335,-230.4,147.2
830,486.4,-228.26666666666665,151.46666666666667
831,488.5333333333333,-215.46666666666667,142.93333333333334
832,505.59999999999997,-213.33333333333334,108.8
833,516.2666666666667,-215.46666666666667,125.86666666666666
834,518.4,-206.93333333333334,128.0
835,526.9333333333333,-209.06666666666666,125.86666666666666
836,531.2,-198.4,125.86666666666666
837,522.6666666666666,-194.13333333333333,130.13333333333333
838,514.1333333333333,-192.0,113.06666666666666
839,492.8,-187.73333333333332,113.06666666666666
840,484.26666666666665,-181.33333333333334,102.4
841,490.6666666666667,-187.73333333333332,106.66666666666667
842,488.5333333333333,-181.33333333333334,100.26666666666667
843,501.3333333333333,-172.8,93.86666666666666
844,507.73333333333335,-170.66666666666666,96.0
845,514.1333333333333,-157.86666666666667,85.33333333333333
846,522.6666666666666,-147.2,89.6
847,526.9333333333333,-140.8,87.46666666666667
848,522.6666666666666,-138.66666666666666,83.2
849,524.8,-136.53333333333333,83.2
850,512.0,-140.8,89.6
851,514.1333333333333,-140.8,87.46666666666667
852,514.1333333333333,-145.06666666666666,83.2
853,499.2,-140.8,70.4
854,518.4,-151.46666666666667,87.46666666666667
855,512.0,-153.6,81.06666666666666
856,520.5333333333333,-157.86666666666667,76.8
857,512.0,-157.86666666666667,81.06666666666666
858,518.4,-162.13333333333333,85.33333333333333
859,505.59999999999997,-164.26666666666665,81.06666666666666
860,512.0,-160.0,61.86666666666667
861,512.0,-168.53333333333333,61.86666666666667
862,518.4,-177.06666666666666,53.333333333333336
863,522.6666666666666,-174.93333333333334,36.266666666666666
864,518.4,-179.2,29.866666666666667
865,529.0666666666666,-185.6,32.0
866,526.9333333333333,-187.73333333333332,6.4
867,529.0666666666666,-189.86666666666667,4.266666666666667
868,533.3333333333334,-185.6,-10.666666666666666
869,533.3333333333334,-174.93333333333334,-8.533333333333333
870,529.0666666666666,-170.66666666666666,-4.266666666666667
871,537.6,-174.93333333333334,-2.1333333333333333
872,541.8666666666667,-164.26666666666665,-4.266666666666667
873,546.1333333333333,-157.86666666666667,-2.1333333333333333
874,544.0,-149.33333333333334,4.266666666666667
875,546.1333333333333,-155.73333333333332,-4.266666666666667
876,544.0,-142.93333333333334,-6.4
877,550.4,-140.8,0.0
878,539.7333333333333,-134.4,0.0
879,539.7333333333333,-132.26666666666665,0.0
880,544.0,-132.26666666666665,4.266666666666667
881,537.6,-130.13333333333333,6.4
882,537.6,-138.66666666666666,10.666666666666666
883,529.0666666666666,-136.53333333333333,8.533333333333333
884,526.9333333333333,-140.8,12.8
885,524.8,-153.6,-2.1333333333333333
886,524.8,-162.13333333333333,0.0
887,526.9333333333333,-162.13333333333333,-14.933333333333334
888,531.2,-174.93333333333334,-4.266666666666667
889,535.4666666666667,-177.06666666666666,-12.8
890,537.6,-174.93333333333334,-19.2
891,533.3333333333334,-170.66666666666666,-19.2
892,535.4666666666667,-168.53333333333333,-19.2
893,539.7333333333333,-166.4,-19.2
894,544.0,-155.73333333333332,-21.333333333333332
895,539.7333333333333,-147.2,-23.466666666666665
896,539.7333333333333,-145.06666666666666,-23.466666666666665
897,531.2,-136.53333333333333,-8.533333333333333
898,541.8666666666667,-134.4,-21.333333333333332
899,539.7333333333333,-132.26666666666665,-8.533333333333333
900,533.3333333333334,-125.86666666666666,-12.8
901,541.8666666666667,-125.86666666666666,-17.066666666666666
902,544.0,-130.13333333333333,-8.533333333333333
903,546.1333333333333,-130.13333333333333,-2.1333333333333333
904,541.8666666666667,-130.13333333333333,12.8
905,531.2,-128.0,25.6
906,539.7333333333333,-123.73333333333333,34.13333333333333
907,537.6,-123.73333333333333,42.666666666666664
908,541.8666666666667,-125.86666666666666,42.666666666666664
909,552.5333333333333,-130.13333333333333,59.733333333333334
910,548.2666666666667,-128.0,70.4
911,546.1333333333333,-132.26666666666665,68.26666666666667
912,544.0,-125.86666666666666,74.66666666666667
913,541.8666666666667,-119.46666666666667,74.66666666666667
914,546.1333333333333,-123.73333333333333,78.93333333333334
915,548.2666666666667,-117.33333333333333,74.66666666666667
916,544.0,-108.8,68.26666666666667
917,537.6,-108.8,72.53333333333333
918,544.0,-96.0,59.733333333333334
919,535.4666666666667,-96.0,85.33333333333333
920,533.3333333333334,-98.13333333333333,64.0
921,518.4,-108.8,66.13333333333333
922,516.2666666666667,-110.93333333333334,83.2
923,516.2666666666667,-117.33333333333333,87.46666666666667
924,514.1333333333333,-115.2,91.73333333333333
925,522.6666666666666,-128.0,89.6
926,522.6666666666666,-125.86666666666666,93.86666666666666
927,518.4,-132.26666666666665,91.73333333333333
928,509.8666666666667,-136.53333333333333,87.46666666666667
929,505.59999999999997,-140.8,87.46666666666667
930,503.46666666666664,-142.93333333333334,83.2
931,507.73333333333335,-149.33333333333334,91.73333333333333
932,501.3333333333333,-149.33333333333334,100.26666666666667
933,507.73333333333335,-162.13333333333333,93.86666666666666
934,503.46666666666664,-160.0,98.13333333333333
935,501.3333333333333,-162.13333333333333,87.46666666666667
936,509.8666666666667,-162.13333333333333,96.0
937,509.8666666666667,-155.73333333333332,87.46666666666667
938,505.59999999999997,-155.73333333333332,89.6
939,503.46666666666664,-149.33333333333334,85.33333333333333
940,503.46666666666664,-142.93333333333334,78.93333333333334
941,509.8666666666667,-149.33333333333334,76.8
942,499.2,-119.46666666666667,74.66666666666667
943,509.8666666666667,-115.2,70.4
944,505.59999999999997,-115.2,70.4
945,505.59999999999997,-115.2,68.26666666666667
946,505.59999999999997,-115.2,64.0
947,512.0,-117.33333333333333,66.13333333333333
948,505.59999999999997,-123.73333333333333,64.0
949,514.1333333333333,-119.46666666666667,59.733333333333334
950,509.8666666666667,-121.6,57.6
951,499.2,-132.26666666666665,66.13333333333333
952,512.0,-121.6,53.333333333333336
953,526.9333333333333,-128.0,55.46666666666667
954,533.3333333333334,-128.0,51.2
955,531.2,-134.4,49.06666666666666
956,531.2,-136.53333333333333,46.93333333333333
957,533.3333333333334,-128.0,42.666666666666664
958,535.4666666666667,-138.66666666666666,38.4
959,539.7333333333333,-142.93333333333334,40.53333333333333
960,537.6,-145.06666666666666,32.0
961,544.0,-151.46666666666667,25.6
962,548.2666666666667,-157.86666666666667,23.466666666666665
963,548.2666666666667,-138.66666666666666,21.333333333333332
964,541.8666666666667,-145.06666666666666,17.066666666666666
965,550.4,-138.66666666666666,17.066666666666666
966,544.0,-145.06666666666666,0.0
967,546.1333333333333,-138.66666666666666,2.1333333333333333
968,552.5333333333333,-132.26666666666665,8.533333333333333
969,539.7333333333333,-142.93333333333334,-2.1333333333333333
970,548.2666666666667,-125.86666666666666,14.933333333333334
971,539.7333333333333,-140.8,6.4
972,554.6666666666666,-125.86666666666666,12.8
973,544.0,-123.73333333333333,2.1333333333333333
974,548.2666666666667,-121.6,8.533333333333333
975,546.1333333333333,-123.73333333333333,8.533333333333333
976,546.1333333333333,-119.46666666666667,14.933333333333334
977,546.1333333333333,-119.46666666666667,14.933333333333334
978,552.5333333333333,-125.86666666666666,21.333333333333332
979,552.5333333333333,-123.73333333333333,6.4
980,556.8,-115.2,12.8
981,550.4,-128.0,27.733333333333334
982,548.2666666666667,-117.33333333333333,21.333333333333332
983,546.1333333333333,-108.8,6.4
984,548.2666666666667,-115.2,21.333333333333332
985,548.2666666666667,-121.6,21.333333333333332
986,550.4,-121.6,12.8
987,565.3333333333334,-119.46666666666667,23.466666666666665
988,541.8666666666667,-117.33333333333333,34.13333333333333
989,544.0,-117.33333333333333,25.6
990,546.1333333333333,-119.46666666666667,40.53333333333333
991,535.4666666666667,-115.2,36.266666666666666
992,535.4666666666667,-110.93333333333334,55.46666666666667
993,541.8666666666667,-102.4,51.2
994,529.0666666666666,-168.53333333333333,38.4
995,578.1333333333333,-166.4,74.66666666666667
996,522.6666666666666,-123.73333333333333,29.866666666666667
997,541.8666666666667,-130.13333333333333,19.2
998,512.0,-110.93333333333334,59.733333333333334
999,541.8666666666667,-130.13333333333333,32.0
1000,518.4,-151.46666666666667,55.46666666666667
1001,509.8666666666667,-149.33333333333334,61.86666666666667
1002,499.2,-149.33333333333334,14.933333333333334
1003,518.4,-140.8,61.86666666666667
1004,520.5333333333333,-134.4,72.53333333333333
1005,518.4,-134.4,68.26666666666667
1006,522.6666666666666,-138.66666666666666,83.2
1007,505.59999999999997,-142.93333333333334,132.26666666666665
1008,535.4666666666667,-138.66666666666666,85.33333333333333
1009,509.8666666666667,-142.93333333333334,113.06666666666666
1010,526.9333333333333,-106.66666666666667,59.733333333333334
1011,544.0,-104.53333333333333,49.06666666666666
1012,529.0666666666666,-104.53333333333333,113.06666666666666
1013,516.2666666666667,-123.73333333333333,59.733333333333334
1014,503.46666666666664,-110.93333333333334,55.46666666666667
1015,514.1333333333333,-136.53333333333333,87.46666666666667
1016,526.9333333333333,-119.46666666666667,85.33333333333333
1017,492.8,-142.93333333333334,72.53333333333333
1018,516.2666666666667,-138.66666666666666,83.2
1019,518.4,-138.66666666666666,89.6
1020,516.2666666666667,-151.46666666666667,72.53333333333333
1021,518.4,-155.73333333333332,85.33333333333333
1022,518.4,-155.73333333333332,78.93333333333334
1023,497.06666666666666,-166.4,78.93333333333334
1024,507.73333333333335,-170.66666666666666,78.93333333333334
1025,475.73333333333335,-166.4,53.333333333333336
1026,503.46666666666664,-151.46666666666667,72.53333333333333
1027,501.3333333333333,-157.86666666666667,104.53333333333333
1028,507.73333333333335,-155.73333333333332,78.93333333333334
1029,514.1333333333333,-155.73333333333332,87.46666666666667
1030,516.2666666666667,-142.93333333333334,68.26666666666667
1031,516.2666666666667,-145.06666666666666,68.26666666666667
1032,499.2,-115.2,104.53333333333333
1033,499.2,-130.13333333333333,98.13333333333333
1034,512.0,-123.73333333333333,85.33333333333333
1035,512.0,-125.86666666666666,83.2
1036,512.0,-125.86666666666666,85.33333333333333
1037,512.0,-123.73333333333333,81.06666666666666
1038,524.8,-125.86666666666666,85.33333333333333
1039,514.1333333333333,-128.0,91.73333333333333
1040,505.59999999999997,-136.53333333333333,85.33333333333333
1041,520.5333333333333,-132.26666666666665,87.46666666666667
1042,509.8666666666667,-136.53333333333333,93.86666666666666
1043,503.46666666666664,-155.73333333333332,91.73333333333333
1044,499.2,-157.86666666666667,74.66666666666667
1045,499.2,-155.73333333333332,59.733333333333334
1046,490.6666666666667,-147.2,78.93333333333334
1047,497.06666666666666,-162.13333333333333,57.6
1048,494.93333333333334,-179.2,42.666666666666664
1049,492.8,-164.26666666666665,55.46666666666667
1050,499.2,-172.8,57.6
1051,501.3333333333333,-166.4,66.13333333333333
1052,497.06666666666666,-160.0,57.6
1053,512.0,-145.06666666666666,57.6
1054,514.1333333333333,-147.2,55.46666666666667
1055,514.1333333333333,-153.6,61.86666666666667
1056,507.73333333333335,-125.86666666666666,53.333333333333336
1057,529.0666666666666,-123.73333333333333,57.6
1058,518.4,-128.0,57.6
1059,524.8,-125.86666666666666,61.86666666666667
1060,522.6666666666666,-123.73333333333333,59.733333333333334
1061,522.6666666666666,-123.73333333333333,64.0
1062,522.6666666666666,-128.0,59.733333333333334
1063,524.8,-115.2,66.13333333333333
1064,524.8,-115.2,61.86666666666667
1065,522.6666666666666,-110.93333333333334,53.333333333333336
1066,529.0666666666666,-108.8,49.06666666666666
1067,533.3333333333334,-117.33333333333333,42.666666666666664
1068,533.3333333333334,-115.2,42.666666666666664
1069,529.0666666666666,-108.8,38.4
1070,535.4666666666667,-110.93333333333334,29.866666666666667
1071,524.8,-115.2,46.93333333333333
1072,546.1333333333333,-106.66666666666667,32.0
1073,544.0,-108.8,25.6
1074,535.4666666666667,-104.53333333333333,27.733333333333334
1075,539.7333333333333,-106.66666666666667,25.6
1076,558.9333333333333,-110.93333333333334,-4.266666666666667
1077,541.8666666666667,-115.2,17.066666666666666
1078,544.0,-117.33333333333333,19.2
1079,537.6,-113.06666666666666,14.933333333333334
1080,539.7333333333333,-121.6,14.933333333333334
1081,535.4666666666667,-117.33333333333333,19.2
1082,533.3333333333334,-115.2,17.066666666666666
1083,539.7333333333333,-117.33333333333333,21.333333333333332
1084,537.6,-119.46666666666667,21.333333333333332
1085,535.4666666666667,-123.73333333333333,12.8
1086,539.7333333333333,-115.2,10.666666666666666
1087,539.7333333333333,-117.33333333333333,8.533333333333333
1088,541.8666666666667,-115.2,10.666666666666666
1089,541.8666666666667,-117.33333333333333,2.1333333333333333
1090,548.2666666666667,-117.33333333333333,-2.1333333333333333
1091,548.2666666666667,-108.8,6.4
1092,554.6666666666666,-106.66666666666667,-6.4
1093,552.5333333333333,-108.8,0.0
1094,552.5333333333333,-96.0,0.0
1095,548.2666666666667,-98.13333333333333,-8.533333333333333
1096,554.6666666666666,-102.4,-4.266666666666667
1097,548.2666666666667,-104.53333333333333,-8.533333333333333
1098,550.4,-104.53333333333333,6.4
1099,544.0,-108.8,0.0
1100,539.7333333333333,-102.4,-2.1333333333333333
1101,548.2666666666667,-115.2,-2.1333333333333333
1102,544.0,-115.2,2.1333333333333333
1103,544.0,-119.46666666666667,4.266666666666667
1104,539.7333333333333,-117.33333333333333,-8.533333333333333
1105,535.4666666666667,-119.46666666666667,-2.1333333333333333
1106,537.6,-125.86666666666666,0.0
1107,537.6,-125.86666666666666,-2.1333333333333333
1108,537.6,-121.6,-2.1333333333333333
1109,537.6,-125.86666666666666,-2.1333333333333333
1110,541.8666666666667,-121.6,6.4
1111,539.7333333333333,-130.13333333333333,0.0
1112,537.6,-130.13333333333333,-6.4
1113,544.0,-123.73333333333333,6.4
1114,539.7333333333333,-117.33333333333333,8.533333333333333
1115,546.1333333333333,-134.4,6.4
1116,537.6,-115.2,8.533333333333333
1117,544.0,-113.06666666666666,8.533333333333333
1118,539.7333333333333,-119.46666666666667,14.933333333333334
1119,544.0,-115.2,8.533333333333333
1120,535.4666666666667,-108.8,17.066666666666666
1121,537.6,-119.46666666666667,17.066666666666666
1122,541.8666666666667,-115.2,14.933333333333334
1123,541.8666666666667,-115.2,14.933333333333334
1124,544.0,-115.2,19.2
1125,539.7333333333333,-113.06666666666666,4.266666666666667
1126,533.3333333333334,-117.33333333333333,12.8
1127,535.4666666666667,-113.06666666666666,6.4
1128,544.0,-119.46666666666667,8.533333333333333
1129,531.2,-113.06666666666666,17.066666666666666
1130,531.2,-115.2,19.2
1131,537.6,-121.6,8.533333333333333
1132,539.7333333333333,-125.86666666666666,10.666666666666666
1133,529.0666666666666,-123.73333333333333,14.933333333333334
1134,537.6,-123.73333333333333,8.533333333333333
1135,537.6,-121.6,8.533333333333333
1136,539.7333333333333,-119.46666666666667,4.266666666666667
1137,539.7333333333333,-119.46666666666667,12.8
1138,537.6,-119.46666666666667,21.333333333333332
1139,539.7333333333333,-117.33333333333333,10.666666666666666
1140,539.7333333333333,-121.6,12.8
1141,544.0,-121.6,10.666666666666666
1142,541.8666666666667,-121.6,6.4
1143,544.0,-119.46666666666667,14.933333333333334
1144,539.7333333333333,-117.33333333333333,23.466666666666665
1145,541.8666666666667,-117.33333333333333,4.266666666666667
1146,541.8666666666667,-117.33333333333333,19.2
1147,539.7333333333333,-117.33333333333333,17.066666666666666
1148,539.7333333333333,-117.33333333333333,12.8
1149,533.3333333333334,-115.2,12.8
1150,529.0666666666666,-115.2,17.066666666666666
1151,535.4666666666667,-117.33333333333333,21.333333333333332
1152,533.3333333333334,-117.33333333333333,19.2
1153,533.3333333333334,-117.33333333333333,8.533333333333333
1154,533.3333333333334,-115.2,21.333333333333332
1155,533.3333333333334,-117.33333333333333,17.066666666666666
1156,533.3333333333334,-115.2,19.2
1157,535.4666666666667,-117.33333333333333,25.6
1158,533.3333333333334,-115.2,23.466666666666665
1159,531.2,-115.2,27.733333333333334
1160,529.0666666666666,-117.33333333333333,23.466666666666665
1161,537.6,-119.46666666666667,29.866666666666667
1162,531.2,-119.46666666666667,29.866666666666667
1163,531.2,-117.33333333333333,34.13333333333333
1164,533.3333333333334,-115.2,34.13333333333333
1165,531.2,-119.46666666666667,34.13333333333333
1166,526.9333333333333,-115.2,25.6
1167,526.9333333333333,-121.6,40.53333333333333
1168,533.3333333333334,-119.46666666666667,36.266666666666666
1169,529.0666666666666,-121.6,40.53333333333333
1170,535.4666666666667,-121.6,36.266666666666666
1171,531.2,-117.33333333333333,44.8
1172,531.2,-119.46666666666667,34.13333333333333
1173,526.9333333333333,-125.86666666666666,44.8
1174,529.0666666666666,-121.6,34.13333333333333
1175,531.2,-121.6,38.4
1176,531.2,-125.86666666666666,40.53333333333333
1177,529.0666666666666,-123.73333333333333,36.266666666666666
1178,524.8,-115.2,34.13333333333333
1179,526.9333333333333,-117.33333333333333,46.93333333333333
1180,531.2,-125.86666666666666,42.666666666666664
1181,529.0666666666666,-119.46666666666667,34.13333333333333
1182,526.9333333333333,-119.46666666666667,38.4
1183,531.2,-119.46666666666667,36.266666666666666
1184,533.3333333333334,-121.6,32.0
1185,526.9333333333333,-119.46666666666667,32.0
1186,524.8,-119.46666666666667,40.53333333333333
1187,529.0666666666666,-125.86666666666666,29.866666666666667
1188,526.9333333333333,-125.86666666666666,40.53333333333333
1189,531.2,-115.2,34.13333333333333
1190,531.2,-119.46666666666667,38.4
1191,535.4666666666667,-125.86666666666666,38.4
1192,533.3333333333334,-123.73333333333333,32.0
1193,533.3333333333334,-121.6,32.0
1194,526.9333333333333,-117.33333333333333,38.4
1195,526.9333333333333,-125.86666666666666,34.13333333333333
1196,533.3333333333334,-123.73333333333333,36.266666666666666
1197,526.9333333333333,-117.33333333333333,42.666666666666664
1198,529.0666666666666,-117.33333333333333,36.266666666666666
1199,531.2,-117.33333333333333,32.0
1200,529.0666666666666,-117.33333333333333,49.06666666666666
1201,531.2,-117.33333333333333,34.13333333333333
1202,529.0666666666666,-125.86666666666666,53.333333333333336
1203,529.0666666666666,-119.46666666666667,29.866666666666667
1204,526.9333333333333,-121.6,38.4
1205,531.2,-121.6,36.266666666666666
1206,533.3333333333334,-119.46666666666667,46.93333333333333
1207,529.0666666666666,-119.46666666666667,42.666666666666664
1208,531.2,-119.46666666666667,46.93333333333333
1209,539.7333333333333,-121.6,36.266666666666666
1210,526.9333333333333,-117.33333333333333,34.13333333333333
1211,535.4666666666667,-119.46666666666667,36.266666666666666
1212,537.6,-117.33333333333333,32.0
1213,531.2,-113.06666666666666,46.93333333333333
1214,531.2,-117.33333333333333,40.53333333333333
1215,531.2,-123.73333333333333,34.13333333333333
1216,535.4666666666667,-119.46666666666667,34.13333333333333
1217,531.2,-117.33333333333333,46.93333333333333
1218,533.3333333333334,-117.33333333333333,44.8
1219,533.3333333333334,-123.73333333333333,29.866666666666667
1220,537.6,-121.6,36.266666666666666
1221,531.2,-121.6,42.666666666666664
1222,531.2,-119.46666666666667,40.53333333333333
1223,529.0666666666666,-119.46666666666667,40.53333333333333
1224,526.9333333333333,-108.8,53.333333333333336
1225,531.2,-117.33333333333333,53.333333333333336
1226,535.4666666666667,-125.86666666666666,44.8
1227,529.0666666666666,-117.33333333333333,40.53333333333333
1228,529.0666666666666,-117.33333333333333,44.8
1229,526.9333333333333,-117.33333333333333,49.06666666666666
1230,535.4666666666667,-119.46666666666667,53.333333333333336
1231,526.9333333333333,-115.2,38.4
1232,529.0666666666666,-119.46666666666667,44.8
1233,531.2,-121.6,40.53333333333333
1234,529.0666666666666,-119.46666666666667,36.266666666666666
1235,535.4666666666667,-130.13333333333333,32.0
1236,533.3333333333334,-123.73333333333333,38.4
1237,531.2,-119.46666666666667,36.266666666666666
1238,539.7333333333333,-123.73333333333333,27.733333333333334
1239,533.3333333333334,-123.73333333333333,36.266666666666666
1240,531.2,-119.46666666666667,25.6
1241,526.9333333333333,-117.33333333333333,29.866666666666667
1242,529.0666666666666,-117.33333333333333,29.866666666666667
1243,535.4666666666667,-115.2,38.4
1244,529.0666666666666,-110.93333333333334,32.0
1245,529.0666666666666,-117.33333333333333,36.266666666666666
1246,526.9333333333333,-136.53333333333333,78.93333333333334
1247,533.3333333333334,-115.2,46.93333333333333
1248,533.3333333333334,-113.06666666666666,44.8
1249,529.0666666666666,-117.33333333333333,42.666666666666664
1250,531.2,-113.06666666666666,57.6
1251,529.0666666666666,-117.33333333333333,42.666666666666664
1252,531.2,-115.2,46.93333333333333
1253,526.9333333333333,-117.33333333333333,42.666666666666664
1254,537.6,-115.2,38.4
1255,537.6,-115.2,36.266666666666666
1256,539.7333333333333,-121.6,34.13333333333333
1257,541.8666666666667,-115.2,40.53333333333333
1258,531.2,-110.93333333333334,36.266666666666666
1259,541.8666666666667,-117.33333333333333,38.4
1260,537.6,-108.8,29.866666666666667
1261,533.3333333333334,-117.33333333333333,32.0
1262,531.2,-115.2,34.13333333333333
1263,529.0666666666666,-117.33333333333333,29.866666666666667
1264,531.2,-115.2,32.0
1265,531.2,-121.6,29.866666666666667
1266,533.3333333333334,-119.46666666666667,29.866666666666667
1267,531.2,-123.73333333333333,32.0
1268,533.3333333333334,-119.46666666666667,29.866666666666667
1269,529.0666666666666,-123.73333333333333,27.733333333333334
1270,535.4666666666667,-121.6,32.0
1271,531.2,-119.46666666666667,32.0
1272,533.3333333333334,-119.46666666666667,29.866666666666667
1273,524.8,-117.33333333333333,34.13333333333333
1274,529.0666666666666,-115.2,44.8
1275,526.9333333333333,-117.33333333333333,36.266666666666666
1276,531.2,-119.46666666666667,40.53333333333333
1277,526.9333333333333,-121.6,40.53333333333333
1278,529.0666666666666,-123.73333333333333,40.53333333333333
1279,531.2,-121.6,32.0
1280,531.2,-121.6,34.13333333333333
1281,531.2,-121.6,36.266666666666666
1282,535.4666666666667,-121.6,32.0
1283,533.3333333333334,-115.2,29.866666666666667
1284,531.2,-119.46666666666667,36.266666666666666
1285,531.2,-115.2,34.13333333333333
1286,537.6,-117.33333333333333,32.0
1287,535.4666666666667,-117.33333333333333,36.266666666666666
1288,531.2,-115.2,29.866666666666667
1289,561.0666666666666,-119.46666666666667,55.46666666666667
1290,533.3333333333334,-115.2,34.13333333333333
1291,531.2,-117.33333333333333,34.13333333333333
1292,539.7333333333333,-115.2,34.13333333333333
1293,531.2,-117.33333333333333,40.53333333333333
1294,539.7333333333333,-115.2,34.13333333333333
1295,533.3333333333334,-117.33333333333333,27.733333333333334
1296,533.3333333333334,-115.2,25.6
1297,533.3333333333334,-115.2,32.0
1298,535.4666666666667,-113.06666666666666,32.0
1299,537.6,-115.2,32.0
1300,531.2,-108.8,29.866666666666667
1301,533.3333333333334,-108.8,27.733333333333334
1302,539.7333333333333,-115.2,38.4
1303,541.8666666666667,-104.53333333333333,34.13333333333333
1304,537.6,-96.0,34.13333333333333
1305,537.6,-104.53333333333333,29.866666666666667
1306,535.4666666666667,-102.4,38.4
1307,539.7333333333333,-104.53333333333333,36.266666666666666
1308,539.7333333333333,-102.4,38.4
1309,539.7333333333333,-104.53333333333333,34.13333333333333
1310,533.3333333333334,-100.26666666666667,27.733333333333334
1311,537.6,-113.06666666666666,27.733333333333334
1312,539.7333333333333,-113.06666666666666,27.733333333333334
1313,537.6,-108.8,29.866666666666667
1314,541.8666666666667,-117.33333333333333,32.0
1315,537.6,-110.93333333333334,32.0
1316,537.6,-113.06666666666666,19.2
1317,539.7333333333333,-108.8,17.066666666666666
1318,533.3333333333334,-110.93333333333334,27.733333333333334
1319,539.7333333333333,-115.2,19.2
1320,541.8666666666667,-113.06666666666666,25.6
1321,541.8666666666667,-117.33333333333333,23.466666666666665
1322,541.8666666666667,-121.6,21.333333333333332
1323,541.8666666666667,-113.06666666666666,23.466666666666665
1324,537.6,-115.2,19.2
1325,535.4666666666667,-115.2,25.6
1326,535.4666666666667,-117.33333333333333,21.333333333333332
1327,537.6,-119.46666666666667,27.733333333333334
1328,533.3333333333334,-108.8,19.2
1329,531.2,-115.2,8.533333333333333
1330,533.3333333333334,-108.8,25.6
1331,526.9333333333333,-110.93333333333334,17.066666666666666
1332,535.4666666666667,-113.06666666666666,29.866666666666667
1333,522.6666666666666,-108.8,6.4
1334,535.4666666666667,-110.93333333333334,25.6
1335,535.4666666666667,-106.66666666666667,27.733333333333334
1336,531.2,-110.93333333333334,19.2
1337,533.3333333333334,-113.06666666666666,27.733333333333334
1338,539.7333333333333,-115.2,25.6
1339,535.4666666666667,-113.06666666666666,25.6
1340,535.4666666666667,-110.93333333333334,23.466666666666665
1341,526.9333333333333,-110.93333333333334,34.13333333333333
1342,539.7333333333333,-110.93333333333334,23.466666666666665
1343,531.2,-115.2,25.6
1344,529.0666666666666,-115.2,25.6
1345,539.7333333333333,-110.93333333333334,25.6
1346,535.4666666666667,-110.93333333333334,23.466666666666665
1347,535.4666666666667,-108.8,25.6
1348,535.4666666666667,-115.2,27.733333333333334
1349,537.6,-108.8,29.866666666666667
1350,529.0666666666666,-104.53333333333333,29.866666666666667
1351,535.4666666666667,-110.93333333333334,34.13333333333333
1352,539.7333333333333,-113.06666666666666,17.066666666666666
1353,537.6,-115.2,29.866666666666667
1354,533.3333333333334,-110.93333333333334,21.333333333333332
1355,541.8666666666667,-113.06666666666666,27.733333333333334
1356,539.7333333333333,-115.2,32.0
1357,537.6,-117.33333333333333,25.6
1358,535.4666666666667,-113.06666666666666,23.466666666666665
1359,531.2,-110.93333333333334,29.866666666666667
1360,526.9333333333333,-108.8,27.733333333333334
1361,535.4666666666667,-113.06666666666666,29.866666666666667
1362,541.8666666666667,-113.06666666666666,27.733333333333334
1363,537.6,-106.66666666666667,25.6
1364,537.6,-110.93333333333334,25.6
1365,533.3333333333334,-110.93333333333334,25.6
1366,541.8666666666667,-115.2,25.6
1367,537.6,-117.33333333333333,23.466666666666665
1368,535.4666666666667,-115.2,19.2
1369,531.2,-117.33333333333333,21.333333333333332
1370,535.4666666666667,-108.8,29.866666666666667
1371,531.2,-115.2,21.333333333333332
1372,531.2,-117.33333333333333,25.6
1373,529.0666666666666,-113.06666666666666,25.6
1374,535.4666666666667,-115.2,25.6
1375,526.9333333333333,-108.8,27.733333333333334
1376,544.0,-98.13333333333333,32.0
1377,535.4666666666667,-104.53333333333333,32.0
1378,531.2,-113.06666666666666,40.53333333333333
1379,531.2,-113.06666666666666,34.13333333333333
1380,531.2,-115.2,40.53333333333333
1381,533.3333333333334,-117.33333333333333,36.266666666666666
1382,535.4666666666667,-117.33333333333333,32.0
1383,533.3333333333334,-119.46666666666667,29.866666666666667
1384,533.3333333333334,-115.2,25.6
1385,537.6,-121.6,23.466666666666665
1386,531.2,-117.33333333333333,21.333333333333332
1387,533.3333333333334,-115.2,19.2
1388,531.2,-117.33333333333333,25.6
1389,535.4666666666667,-119.46666666666667,27.733333333333334
1390,526.9333333333333,-113.06666666666666,27.733333333333334
1391,531.2,-117.33333333333333,34.13333333333333
1392,533.3333333333334,-117.33333333333333,36.266666666666666
1393,531.2,-117.33333333333333,34.13333333333333
1394,526.9333333333333,-113.06666666666666,36.266666666666666
1395,529.0666666666666,-117.33333333333333,42.666666666666664
1396,531.2,-113.06666666666666,42.666666666666664
1397,531.2,-110.93333333333334,38.4
1398,531.2,-117.33333333333333,38.4
1399,526.9333333333333,-115.2,40.53333333333333
1400,529.0666666666666,-117.33333333333333,38.4
1401,531.2,-113.06666666666666,42.666666666666664
1402,531.2,-115.2,40.53333333333333
1403,531.2,-119.46666666666667,38.4
1404,529.0666666666666,-119.46666666666667,36.266666666666666
1405,539.7333333333333,-121.6,34.13333333333333
1406,533.3333333333334,-119.46666666666667,32.0
1407,537.6,-117.33333333333333,36.266666666666666
1408,539.7333333333333,-115.2,29.866666666666667
1409,533.3333333333334,-115.2,29.866666666666667
1410,531.2,-108.8,36.266666666666666
1411,533.3333333333334,-115.2,27.733333333333334
1412,531.2,-115.2,27.733333333333334
1413,533.3333333333334,-113.06666666666666,32.0
1414,537.6,-113.06666666666666,34.13333333333333
1415,539.7333333333333,-117.33333333333333,32.0
1416,537.6,-117.33333333333333,21.333333333333332
1417,535.4666666666667,-110.93333333333334,29.866666666666667
1418,541.8666666666667,-117.33333333333333,25.6
1419,537.6,-108.8,27.733333333333334
1420,531.2,-119.46666666666667,36.266666666666666
1421,537.6,-110.93333333333334,23.466666666666665
1422,539.7333333333333,-108.8,32.0
1423,535.4666666666667,-108.8,27.733333333333334
1424,537.6,-117.33333333333333,34.13333333333333
1425,539.7333333333333,-113.06666666666666,38.4
1426,537.6,-113.06666666666666,27.733333333333334
1427,539.7333333333333,-115.2,27.733333333333334
1428,539.7333333333333,-113.06666666666666,19.2
1429,533.3333333333334,-113.06666666666666,29.866666666666667
1430,537.6,-113.06666666666666,34.13333333333333
1431,541.8666666666667,-113.06666666666666,25.6
1432,539.7333333333333,-115.2,36.266666666666666
1433,539.7333333333333,-113.06666666666666,29.866666666666667
1434,539.7333333333333,-115.2,27.733333333333334
1435,537.6,-117.33333333333333,21.333333333333332
1436,541.8666666666667,-113.06666666666666,32.0
1437,533.3333333333334,-115.2,38.4
1438,537.6,-115.2,29.866666666666667
1439,535.4666666666667,-117.33333333333333,29.866666666666667
1440,531.2,-113.06666666666666,34.13333333333333
1441,535.4666666666667,-115.2,34.13333333333333
1442,544.0,-115.2,44.8
1443,533.3333333333334,-115.2,25.6
1444,533.3333333333334,-113.06666666666666,25.6
1445,529.0666666666666,-108.8,27.733333333333334
1446,533.3333333333334,-115.2,29.866666666666667
1447,535.4666666666667,-115.2,34.13333333333333
1448,529.0666666666666,-113.06666666666666,32.0
1449,533.3333333333334,-108.8,36.266666666666666
1450,535.4666666666667,-106.66666666666667,29.866666666666667
1451,541.8666666666667,-106.66666666666667,25.6
1452,533.3333333333334,-113.06666666666666,32.0
1453,537.6,-115.2,29.866666666666667
1454,541.8666666666667,-110.93333333333334,29.866666666666667
1455,535.4666666666667,-113.06666666666666,32.0
1456,544.0,-113.06666666666666,29.866666666666667
1457,535.4666666666667,-110.93333333333334,29.866666666666667
1458,535.4666666666667,-115.2,32.0
1459,535.4666666666667,-115.2,34.13333333333333
1460,533.3333333333334,-108.8,27.733333333333334
1461,533.3333333333334,-117.33333333333333,29.866666666666667
1462,531.2,-119.46666666666667,32.0
1463,541.8666666666667,-108.8,40.53333333333333
1464,531.2,-117.33333333333333,32.0
1465,535.4666666666667,-115.2,40.53333333333333
1466,526.9333333333333,-113.06666666666666,38.4
1467,526.9333333333333,-113.06666666666666,32.0
1468,533.3333333333334,-113.06666666666666,34.13333333333333
1469,533.3333333333334,-117.33333333333333,32.0
1470,541.8666666666667,-115.2,34.13333333333333
1471,529.0666666666666,-115.2,38.4
1472,539.7333333333333,-110.93333333333334,40.53333333333333
1473,537.6,-117.33333333333333,32.0
1474,535.4666666666667,-117.33333333333333,32.0
1475,537.6,-108.8,38.4
1476,531.2,-108.8,29.866666666666667
1477,535.4666666666667,-108.8,40.53333333333333
1478,531.2,-115.2,27.733333333333334
1479,535.4666666666667,-108.8,29.866666666666667
1480,544.0,-113.06666666666666,38.4
1481,537.6,-113.06666666666666,25.6
1482,535.4666666666667,-108.8,36.266666666666666
1483,529.0666666666666,-108.8,36.266666666666666
1484,535.4666666666667,-113.06666666666666,36.266666666666666
1485,537.6,-113.06666666666666,44.8
1486,541.8666666666667,-110.93333333333334,29.866666666666667
1487,539.7333333333333,-115.2,38.4
1488,526.9333333333333,-106.66666666666667,32.0
1489,537.6,-117.33333333333333,32.0
1490,533.3333333333334,-108.8,32.0
1491,537.6,-110.93333333333334,25.6
1492,533.3333333333334,-117.33333333333333,34.13333333333333
1493,531.2,-108.8,27.733333333333334
1494,537.6,-113.06666666666666,38.4
1495,539.7333333333333,-113.06666666666666,32.0
1496,529.0666666666666,-113.06666666666666,36.266666666666666
1497,537.6,-115.2,29.866666666666667
1498,535.4666666666667,-117.33333333333333,32.0
1499,537.6,-113.06666666666666,29.866666666666667
1500,541.8666666666667,-113.06666666666666,25.6
1501,539.7333333333333,-113.06666666666666,29.866666666666667
1502,541.8666666666667,-108.8,42.666666666666664
1503,529.0666666666666,-115.2,29.866666666666667
1504,537.6,-117.33333333333333,32.0
1505,539.7333333333333,-117.33333333333333,27.733333333333334
1506,539.7333333333333,-113.06666666666666,34.13333333333333
1507,544.0,-106.66666666666667,40.53333333333333
1508,533.3333333333334,-108.8,34.13333333333333
1509,537.6,-115.2,34.13333333333333
1510,537.6,-117.33333333333333,34.13333333333333
1511,537.6,-115.2,36.266666666666666
1512,541.8666666666667,-108.8,32.0
1513,535.4666666666667,-113.06666666666666,36.266666666666666
1514,535.4666666666667,-108.8,32.0
1515,531.2,-113.06666666666666,27.733333333333334
1516,537.6,-113.06666666666666,27.733333333333334
1517,537.6,-113.06666666666666,36.266666666666666
1518,539.7333333333333,-115.2,29.866666666666667
1519,537.6,-119.46666666666667,29.866666666666667
1520,537.6,-117.33333333333333,32.0
1521,539.7333333333333,-119.46666666666667,27.733333333333334
1522,541.8666666666667,-115.2,25.6
1523,539.7333333333333,-119.46666666666667,25.6
1524,539.7333333333333,-119.46666666666667,29.866666666666667
1525,535.4666666666667,-106.66666666666667,23.466666666666665
1526,541.8666666666667,-115.2,29.866666666666667
1527,531.2,-106.66666666666667,25.6
1528,541.8666666666667,-102.4,29.866666666666667
1529,539.7333333333333,-102.4,29.866666666666667
1530,537.6,-115.2,23.466666666666665
1531,539.7333333333333,-113.06666666666666,27.733333333333334
1532,539.7333333333333,-113.06666666666666,23.466666666666665
1533,541.8666666666667,-115.2,19.2
1534,537.6,-106.66666666666667,23.466666666666665
1535,537.6,-104.53333333333333,12.8
1536,537.6,-106.66666666666667,23.466666666666665
1537,535.4666666666667,-100.26666666666667,27.733333333333334
1538,541.8666666666667,-106.66666666666667,21.333333333333332
1539,539.7333333333333,-110.93333333333334,21.333333333333332
1540,533.3333333333334,-106.66666666666667,23.466666666666665
1541,533.3333333333334,-106.66666666666667,23.466666666666665
1542,533.3333333333334,-102.4,32.0
1543,533.3333333333334,-104.53333333333333,32.0
1544,529.0666666666666,-102.4,34.13333333333333
1545,533.3333333333334,-102.4,36.266666666666666
1546,533.3333333333334,-89.6,40.53333333333333
1547,535.4666666666667,-85.33333333333333,38.4
1548,535.4666666666667,-96.0,38.4
1549,544.0,-89.6,36.266666666666666
1550,546.1333333333333,-87.46666666666667,36.266666666666666
1551,541.8666666666667,-98.13333333333333,46.93333333333333
1552,537.6,-85.33333333333333,27.733333333333334
1553,537.6,-87.46666666666667,34.13333333333333
1554,541.8666666666667,-81.06666666666666,23.466666666666665
1555,533.3333333333334,-85.33333333333333,25.6
1556,539.7333333333333,-89.6,27.733333333333334
1557,537.6,-91.73333333333333,19.2
1558,539.7333333333333,-102.4,19.2
1559,541.8666666666667,-110.93333333333334,8.533333333333333
1560,533.3333333333334,-115.2,12.8
1561,546.1333333333333,-119.46666666666667,2.1333333333333333
1562,544.0,-115.2,8.533333333333333
1563,535.4666666666667,-119.46666666666667,2.1333333333333333
1564,539.7333333333333,-121.6,2.1333333333333333
1565,544.0,-121.6,6.4
1566,539.7333333333333,-117.33333333333333,6.4
1567,541.8666666666667,-115.2,10.666666666666666
1568,541.8666666666667,-117.33333333333333,19.2
1569,544.0,-113.06666666666666,10.666666666666666
1570,541.8666666666667,-104.53333333333333,19.2
1571,546.1333333333333,-100.26666666666667,21.333333333333332
1572,533.3333333333334,-106.66666666666667,19.2
1573,548.2666666666667,-100.26666666666667,25.6
1574,544.0,-96.0,17.066666666666666
1575,541.8666666666667,-96.0,17.066666666666666
1576,546.1333333333333,-108.8,23.466666666666665
1577,541.8666666666667,-113.06666666666666,25.6
1578,544.0,-113.06666666666666,32.0
1579,539.7333333333333,-119.46666666666667,34.13333333333333
1580,533.3333333333334,-117.33333333333333,32.0
1581,529.0666666666666,-123.73333333333333,32.0
1582,539.7333333333333,-128.0,29.866666666666667
1583,524.8,-130.13333333333333,32.0
1584,524.8,-119.46666666666667,36.266666666666666
1585,520.5333333333333,-123.73333333333333,38.4
1586,514.1333333333333,-119.46666666666667,38.4
1587,514.1333333333333,-119.46666666666667,36.266666666666666
1588,520.5333333333333,-119.46666666666667,38.4
1589,518.4,-117.33333333333333,38.4
1590,516.2666666666667,-110.93333333333334,42.666666666666664
1591,524.8,-108.8,40.53333333333333
1592,526.9333333333333,-110.93333333333334,40.53333333333333
1593,526.9333333333333,-108.8,49.06666666666666
1594,520.5333333333333,-100.26666666666667,21.333333333333332
1595,526.9333333333333,-110.93333333333334,42.666666666666664
1596,522.6666666666666,-110.93333333333334,44.8
1597,524.8,-106.66666666666667,40.53333333333333
1598,524.8,-104.53333333333333,34.13333333333333
1599,531.2,-102.4,42.666666666666664
1600,526.9333333333333,-100.26666666666667,40.53333333333333
1601,526.9333333333333,-96.0,42.666666666666664
1602,520.5333333333333,-87.46666666666667,42.666666666666664
1603,522.6666666666666,-91.73333333333333,51.2
1604,529.0666666666666,-98.13333333333333,51.2
1605,526.9333333333333,-100.26666666666667,46.93333333333333
1606,529.0666666666666,-104.53333333333333,38.4
1607,537.6,-108.8,42.666666666666664
1608,535.4666666666667,-119.46666666666667,36.266666666666666
1609,541.8666666666667,-119.46666666666667,44.8
1610,535.4666666666667,-117.33333333333333,36.266666666666666
1611,535.4666666666667,-121.6,19.2
1612,537.6,-115.2,17.066666666666666
1613,526.9333333333333,-110.93333333333334,21.333333333333332
1614,531.2,-121.6,17.066666666666666
1615,533.3333333333334,-128.0,27.733333333333334
1616,526.9333333333333,-130.13333333333333,17.066666666666666
1617,531.2,-119.46666666666667,17.066666666666666
1618,526.9333333333333,-117.33333333333333,14.933333333333334
1619,533.3333333333334,-117.33333333333333,14.933333333333334
1620,531.2,-123.73333333333333,14.933333333333334
1621,535.4666666666667,-121.6,23.466666666666665
1622,533.3333333333334,-119.46666666666667,12.8
1623,537.6,-123.73333333333333,19.2
1624,531.2,-125.86666666666666,14.933333333333334
1625,531.2,-125.86666666666666,6.4
1626,544.0,-125.86666666666666,19.2
1627,554.6666666666666,-132.26666666666665,19.2
1628,567.4666666666667,-130.13333333333333,21.333333333333332
1629,576.0,-125.86666666666666,23.466666666666665
1630,567.4666666666667,-130.13333333333333,21.333333333333332
1631,561.0666666666666,-132.26666666666665,23.466666666666665
1632,558.9333333333333,-140.8,32.0
1633,544.0,-147.2,36.266666666666666
1634,531.2,-166.4,38.4
1635,514.1333333333333,-181.33333333333334,46.93333333333333
1636,492.8,-185.6,40.53333333333333
1637,477.8666666666667,-192.0,46.93333333333333
1638,473.59999999999997,-198.4,40.53333333333333
1639,460.8,-198.4,38.4
1640,458.6666666666667,-181.33333333333334,29.866666666666667
1641,454.4,-177.06666666666666,25.6
1642,456.5333333333333,-155.73333333333332,14.933333333333334
1643,462.93333333333334,-138.66666666666666,-4.266666666666667
1644,482.1333333333333,-130.13333333333333,-23.466666666666665
1645,501.3333333333333,-119.46666666666667,-29.866666666666667
1646,512.0,-117.33333333333333,-49.06666666666666
1647,524.8,-113.06666666666666,-40.53333333333333
1648,537.6,-113.06666666666666,-46.93333333333333
1649,546.1333333333333,-104.53333333333333,-46.93333333333333
1650,561.0666666666666,-93.86666666666666,-42.666666666666664
1651,567.4666666666667,-89.6,-42.666666666666664
1652,567.4666666666667,-83.2,-29.866666666666667
1653,580.2666666666667,-74.66666666666667,-34.13333333333333
1654,578.1333333333333,-64.0,-27.733333333333334
1655,573.8666666666667,-61.86666666666667,-17.066666666666666
1656,567.4666666666667,-70.4,-17.066666666666666
1657,563.2,-74.66666666666667,-10.666666666666666
1658,563.2,-81.06666666666666,-4.266666666666667
1659,563.2,-83.2,-6.4
1660,565.3333333333334,-85.33333333333333,19.2
1661,544.0,-78.93333333333334,19.2
1662,535.4666666666667,-74.66666666666667,14.933333333333334
1663,526.9333333333333,-78.93333333333334,25.6
1664,529.0666666666666,-78.93333333333334,23.466666666666665
1665,535.4666666666667,-91.73333333333333,21.333333333333332
1666,537.6,-81.06666666666666,21.333333333333332
1667,539.7333333333333,-87.46666666666667,8.533333333333333
1668,539.7333333333333,-85.33333333333333,6.4
1669,537.6,-93.86666666666666,14.933333333333334
1670,552.5333333333333,-81.06666666666666,-6.4
1671,541.8666666666667,-108.8,8.533333333333333
1672,535.4666666666667,-110.93333333333334,14.933333333333334
1673,539.7333333333333,-115.2,19.2
1674,539.7333333333333,-117.33333333333333,6.4
1675,537.6,-123.73333333333333,4.266666666666667
1676,533.3333333333334,-125.86666666666666,6.4
1677,544.0,-128.0,4.266666666666667
1678,537.6,-138.66666666666666,2.1333333333333333
1679,537.6,-136.53333333333333,-4.266666666666667
1680,546.1333333333333,-142.93333333333334,2.1333333333333333
1681,565.3333333333334,-132.26666666666665,-25.6
1682,541.8666666666667,-145.06666666666666,-4.266666666666667
1683,541.8666666666667,-145.06666666666666,-2.1333333333333333
1684,539.7333333333333,-142.93333333333334,-10.666666666666666
1685,533.3333333333334,-149.33333333333334,-12.8
1686,544.0,-155.73333333333332,-34.13333333333333
1687,539.7333333333333,-155.73333333333332,-36.266666666666666
1688,546.1333333333333,-157.86666666666667,-44.8
1689,541.8666666666667,-147.2,-40.53333333333333
1690,529.0666666666666,-147.2,-40.53333333333333
1691,524.8,-145.06666666666666,-38.4
1692,503.46666666666664,-147.2,-40.53333333333333
1693,499.2,-142.93333333333334,-36.266666666666666
1694,497.06666666666666,-153.6,-38.4
1695,497.06666666666666,-155.73333333333332,-34.13333333333333
1696,497.06666666666666,-164.26666666666665,-34.13333333333333
1697,509.8666666666667,-166.4,-38.4
1698,505.59999999999997,-181.33333333333334,-34.13333333333333
1699,509.8666666666667,-185.6,-32.0
1700,514.1333333333333,-189.86666666666667,-36.266666666666666
1701,516.2666666666667,-192.0,-32.0
1702,520.5333333333333,-200.53333333333333,-34.13333333333333
1703,529.0666666666666,-211.2,-34.13333333333333
1704,522.6666666666666,-211.2,-32.0
1705,522.6666666666666,-219.73333333333332,-23.466666666666665
1706,516.2666666666667,-215.46666666666667,-27.733333333333334
1707,512.0,-226.13333333333333,-21.333333333333332
1708,509.8666666666667,-228.26666666666665,-32.0
1709,503.46666666666664,-238.93333333333334,-29.866666666666667
1710,501.3333333333333,-247.46666666666667,-27.733333333333334
1711,492.8,-251.73333333333332,-34.13333333333333
1712,488.5333333333333,-262.4,-23.466666666666665
1713,480.0,-262.4,-34.13333333333333
1714,467.2,-264.5333333333333,-36.266666666666666
1715,465.06666666666666,-268.8,-38.4
1716,458.6666666666667,-281.6,-29.866666666666667
1717,462.93333333333334,-281.6,-12.8
1718,462.93333333333334,-281.6,-10.666666666666666
1719,467.2,-281.6,-10.666666666666666
1720,458.6666666666667,-283.73333333333335,-12.8
1721,458.6666666666667,-288.0,-6.4
1722,452.26666666666665,-283.73333333333335,-12.8
1723,460.8,-292.26666666666665,-17.066666666666666
1724,454.4,-288.0,-21.333333333333332
1725,441.59999999999997,-283.73333333333335,-19.2
1726,456.5333333333333,-290.1333333333333,-8.533333333333333
1727,456.5333333333333,-285.8666666666667,-14.933333333333334
1728,452.26666666666665,-288.0,-19.2
1729,450.1333333333333,-283.73333333333335,-14.933333333333334
1730,445.8666666666667,-285.8666666666667,-32.0
1731,450.1333333333333,-290.1333333333333,-29.866666666666667
1732,433.06666666666666,-288.0,-25.6
1733,433.06666666666666,-298.6666666666667,-17.066666666666666
1734,433.06666666666666,-305.06666666666666,-23.466666666666665
1735,418.1333333333333,-307.2,-32.0
1736,428.8,-317.8666666666667,-40.53333333333333
1737,422.4,-320.0,-38.4
1738,424.5333333333333,-324.26666666666665,-36.266666666666666
1739,426.6666666666667,-328.5333333333333,-42.666666666666664
1740,420.26666666666665,-326.4,-42.666666666666664
1741,420.26666666666665,-324.26666666666665,-34.13333333333333
1742,426.6666666666667,-324.26666666666665,-38.4
1743,433.06666666666666,-328.5333333333333,-34.13333333333333
1744,430.93333333333334,-320.0,-38.4
1745,428.8,-317.8666666666667,-44.8
1746,435.2,-330.6666666666667,-38.4
1747,435.2,-330.6666666666667,-36.266666666666666
1748,439.46666666666664,-326.4,-34.13333333333333
1749,433.06666666666666,-326.4,-29.866666666666667
1750,435.2,-326.4,-34.13333333333333
1751,426.6666666666667,-339.2,-34.13333333333333
1752,422.4,-349.8666666666667,-38.4
1753,418.1333333333333,-347.73333333333335,-42.666666666666664
1754,418.1333333333333,-352.0,-40.53333333333333
1755,411.73333333333335,-347.73333333333335,-42.666666666666664
1756,411.73333333333335,-341.3333333333333,-42.666666666666664
1757,405.3333333333333,-345.6,-44.8
1758,401.06666666666666,-349.8666666666667,-49.06666666666666
1759,405.3333333333333,-349.8666666666667,-59.733333333333334
1760,403.2,-352.0,-55.46666666666667
1761,403.2,-354.1333333333333,-51.2
1762,392.5333333333333,-356.26666666666665,-57.6
1763,388.26666666666665,-354.1333333333333,-53.333333333333336
1764,392.5333333333333,-362.6666666666667,-49.06666666666666
1765,392.5333333333333,-369.06666666666666,-68.26666666666667
1766,388.26666666666665,-371.2,-53.333333333333336
1767,386.1333333333333,-366.93333333333334,-57.6
1768,371.2,-362.6666666666667,-44.8
1769,390.4,-373.3333333333333,-64.0
1770,386.1333333333333,-373.3333333333333,-66.13333333333333
1771,394.6666666666667,-371.2,-72.53333333333333
1772,388.26666666666665,-384.0,-74.66666666666667
1773,384.0,-379.73333333333335,-72.53333333333333
1774,384.0,-384.0,-66.13333333333333
1775,379.73333333333335,-384.0,-81.06666666666666
1776,375.46666666666664,-381.8666666666667,-74.66666666666667
1777,386.1333333333333,-388.26666666666665,-70.4
1778,381.8666666666667,-388.26666666666665,-70.4
1779,384.0,-394.6666666666667,-78.93333333333334
1780,379.73333333333335,-394.6666666666667,-83.2
1781,375.46666666666664,-388.26666666666665,-89.6
1782,377.6,-392.5333333333333,-100.26666666666667
1783,369.06666666666666,-396.8,-98.13333333333333
1784,384.0,-394.6666666666667,-100.26666666666667
1785,369.06666666666666,-386.1333333333333,-96.0
1786,371.2,-386.1333333333333,-100.26666666666667
1787,375.46666666666664,-384.0,-108.8
1788,371.2,-384.0,-96.0
1789,390.4,-394.6666666666667,-110.93333333333334
1790,409.6,-396.8,-123.73333333333333
1791,420.26666666666665,-405.3333333333333,-128.0
1792,422.4,-411.73333333333335,-128.0
1793,409.6,-416.0,-123.73333333333333
1794,394.6666666666667,-409.6,-117.33333333333333
1795,369.06666666666666,-413.8666666666667,-96.0
1796,343.46666666666664,-416.0,-91.73333333333333
1797,313.6,-422.4,-74.66666666666667
1798,290.1333333333333,-422.4,-85.33333333333333
1799,281.6,-422.4,-85.33333333333333
1800,273.06666666666666,-420.26666666666665,-81.06666666666666
1801,273.06666666666666,-428.8,-78.93333333333334
1802,277.3333333333333,-422.4,-85.33333333333333
1803,288.0,-430.93333333333334,-76.8
1804,307.2,-435.2,-72.53333333333333
1805,322.1333333333333,-426.6666666666667,-91.73333333333333
1806,337.06666666666666,-430.93333333333334,-85.33333333333333
1807,349.8666666666667,-416.0,-93.86666666666666
1808,362.6666666666667,-413.8666666666667,-98.13333333333333
1809,356.26666666666665,-401.06666666666666,-91.73333333333333
1810,358.4,-409.6,-96.0
1811,364.8,-418.1333333333333,-96.0
1812,373.3333333333333,-401.06666666666666,-100.26666666666667
1813,345.6,-435.2,-91.73333333333333
1814,341.3333333333333,-445.8666666666667,-89.6
1815,324.26666666666665,-456.5333333333333,-100.26666666666667
1816,315.73333333333335,-469.3333333333333,-100.26666666666667
1817,298.6666666666667,-477.8666666666667,-91.73333333333333
1818,290.1333333333333,-475.73333333333335,-98.13333333333333
1819,273.06666666666666,-471.46666666666664,-98.13333333333333
1820,266.6666666666667,-480.0,-98.13333333333333
1821,258.1333333333333,-475.73333333333335,-98.13333333333333
1822,251.73333333333332,-469.3333333333333,-91.73333333333333
1823,256.0,-475.73333333333335,-91.73333333333333
1824,264.5333333333333,-475.73333333333335,-98.13333333333333
1825,258.1333333333333,-469.3333333333333,-106.66666666666667
1826,251.73333333333332,-465.06666666666666,-113.06666666666666
1827,256.0,-469.3333333333333,-104.53333333333333
1828,247.46666666666667,-465.06666666666666,-102.4
1829,251.73333333333332,-473.59999999999997,-102.4
1830,243.2,-473.59999999999997,-96.0
1831,241.06666666666666,-469.3333333333333,-96.0
1832,238.93333333333334,-467.2,-100.26666666666667
1833,221.86666666666667,-465.06666666666666,-100.26666666666667
1834,230.4,-462.93333333333334,-104.53333333333333
1835,211.2,-460.8,-110.93333333333334
1836,202.66666666666666,-462.93333333333334,-117.33333333333333
1837,202.66666666666666,-467.2,-106.66666666666667
1838,204.8,-469.3333333333333,-108.8
1839,206.93333333333334,-471.46666666666664,-106.66666666666667
1840,224.0,-473.59999999999997,-113.06666666666666
1841,236.79999999999998,-473.59999999999997,-113.06666666666666
1842,253.86666666666667,-475.73333333333335,-108.8
1843,260.26666666666665,-467.2,-115.2
1844,264.5333333333333,-469.3333333333333,-110.93333333333334
1845,270.93333333333334,-465.06666666666666,-117.33333333333333
1846,268.8,-460.8,-106.66666666666667
1847,266.6666666666667,-456.5333333333333,-106.66666666666667
1848,266.6666666666667,-465.06666666666666,-115.2
1849,264.5333333333333,-467.2,-115.2
1850,262.4,-462.93333333333334,-123.73333333333333
1851,251.73333333333332,-471.46666666666664,-130.13333333333333
1852,247.46666666666667,-477.8666666666667,-132.26666666666665
1853,241.06666666666666,-480.0,-125.86666666666666
1854,230.4,-486.4,-123.73333333333333
1855,219.73333333333332,-480.0,-132.26666666666665
1856,215.46666666666667,-490.6666666666667,-162.13333333333333
1857,200.53333333333333,-471.46666666666664,-138.66666666666666
1858,196.26666666666665,-473.59999999999997,-149.33333333333334
1859,192.0,-465.06666666666666,-157.86666666666667
1860,192.0,-471.46666666666664,-151.46666666666667
1861,194.13333333333333,-473.59999999999997,-162.13333333333333
1862,198.4,-471.46666666666664,-155.73333333333332
1863,213.33333333333334,-467.2,-153.6
1864,211.2,-477.8666666666667,-166.4
1865,221.86666666666667,-482.1333333333333,-155.73333333333332
1866,215.46666666666667,-480.0,-153.6
1867,217.6,-484.26666666666665,-149.33333333333334
1868,224.0,-497.06666666666666,-153.6
1869,221.86666666666667,-501.3333333333333,-140.8
1870,226.13333333333333,-505.59999999999997,-136.53333333333333
1871,219.73333333333332,-507.73333333333335,-142.93333333333334
1872,215.46666666666667,-512.0,-147.2
1873,206.93333333333334,-509.8666666666667,-136.53333333333333
1874,206.93333333333334,-505.59999999999997,-140.8
1875,204.8,-501.3333333333333,-132.26666666666665
1876,206.93333333333334,-505.59999999999997,-132.26666666666665
1877,213.33333333333334,-488.5333333333333,-149.33333333333334
1878,215.46666666666667,-484.26666666666665,-136.53333333333333
1879,209.06666666666666,-482.1333333333333,-125.86666666666666
1880,209.06666666666666,-467.2,-134.4
1881,209.06666666666666,-467.2,-140.8
1882,213.33333333333334,-465.06666666666666,-130.13333333333333
1883,206.93333333333334,-456.5333333333333,-138.66666666666666
1884,200.53333333333333,-452.26666666666665,-140.8
1885,196.26666666666665,-456.5333333333333,-134.4
1886,189.86666666666667,-450.1333333333333,-145.06666666666666
1887,177.06666666666666,-458.6666666666667,-160.0
1888,172.8,-465.06666666666666,-149.33333333333334
1889,170.66666666666666,-467.2,-142.93333333333334
1890,166.4,-475.73333333333335,-145.06666666666666
1891,170.66666666666666,-482.1333333333333,-155.73333333333332
1892,172.8,-494.93333333333334,-149.33333333333334
1893,164.26666666666665,-488.5333333333333,-153.6
1894,162.13333333333333,-501.3333333333333,-151.46666666666667
1895,166.4,-507.73333333333335,-160.0
1896,164.26666666666665,-512.0,-160.0
1897,168.53333333333333,-514.1333333333333,-164.26666666666665
1898,168.53333333333333,-505.59999999999997,-170.66666666666666
1899,155.73333333333332,-503.46666666666664,-166.4
1900,168.53333333333333,-509.8666666666667,-177.06666666666666
1901,170.66666666666666,-512.0,-174.93333333333334
1902,172.8,-509.8666666666667,-179.2
1903,170.66666666666666,-518.4,-166.4
1904,162.13333333333333,-516.2666666666667,-177.06666666666666
1905,164.26666666666665,-516.2666666666667,-166.4
1906,164.26666666666665,-512.0,-170.66666666666666
1907,153.6,-507.73333333333335,-172.8
1908,147.2,-516.2666666666667,-172.8
1909,145.06666666666666,-516.2666666666667,-179.2
1910,147.2,-518.4,-174.93333333333334
1911,138.66666666666666,-520.5333333333333,-179.2
1912,134.4,-516.2666666666667,-177.06666666666666
1913,136.53333333333333,-514.1333333333333,-177.06666666666666
1914,138.66666666666666,-512.0,-177.06666666666666
1915,134.4,-507.73333333333335,-181.33333333333334
1916,136.53333333333333,-505.59999999999997,-181.33333333333334
1917,130.13333333333333,-505.59999999999997,-172.8
1918,132.26666666666665,-505.59999999999997,-170.66666666666666
1919,125.86666666666666,-505.59999999999997,-172.8
1920,110.93333333333334,-505.59999999999997,-166.4
1921,123.73333333333333,-514.1333333333333,-160.0
1922,98.13333333333333,-507.73333333333335,-166.4
1923,102.4,-509.8666666666667,-153.6
1924,93.86666666666666,-503.46666666666664,-160.0
1925,102.4,-507.73333333333335,-160.0
1926,102.4,-518.4,-166.4
1927,93.86666666666666,-514.1333333333333,-155.73333333333332
1928,93.86666666666666,-522.6666666666666,-162.13333333333333
1929,106.66666666666667,-522.6666666666666,-160.0
1930,102.4,-529.0666666666666,-153.6
1931,100.26666666666667,-526.9333333333333,-155.73333333333332
1932,104.53333333333333,-529.0666666666666,-155.73333333333332
1933,102.4,-531.2,-155.73333333333332
1934,98.13333333333333,-535.4666666666667,-166.4
1935,98.13333333333333,-535.4666666666667,-164.26666666666665
1936,100.26666666666667,-546.1333333333333,-162.13333333333333
1937,91.73333333333333,-539.7333333333333,-172.8
1938,93.86666666666666,-550.4,-164.26666666666665
1939,89.6,-552.5333333333333,-166.4
1940,81.06666666666666,-554.6666666666666,-168.53333333333333
1941,78.93333333333334,-556.8,-168.53333333333333
1942,76.8,-552.5333333333333,-172.8
1943,87.46666666666667,-546.1333333333333,-174.93333333333334
1944,70.4,-550.4,-179.2
1945,68.26666666666667,-544.0,-181.33333333333334
1946,68.26666666666667,-539.7333333333333,-179.2
1947,55.46666666666667,-531.2,-170.66666666666666
1948,46.93333333333333,-529.0666666666666,-172.8
1949,55.46666666666667,-531.2,-172.8
1950,44.8,-518.4,-172.8
1951,46.93333333333333,-507.73333333333335,-172.8
1952,32.0,-501.3333333333333,-179.2
1953,32.0,-492.8,-183.46666666666667
1954,36.266666666666666,-501.3333333333333,-179.2
1955,29.866666666666667,-505.59999999999997,-177.06666666666666
1956,38.4,-509.8666666666667,-166.4
1957,40.53333333333333,-514.1333333333333,-164.26666666666665
1958,40.53333333333333,-518.4,-168.53333333333333
1959,29.866666666666667,-522.6666666666666,-174.93333333333334
1960,29.866666666666667,-520.5333333333333,-168.53333333333333
1961,29.866666666666667,-524.8,-166.4
1962,38.4,-526.9333333333333,-162.13333333333333
1963,40.53333333333333,-526.9333333333333,-153.6
1964,32.0,-524.8,-155.73333333333332
1965,44.8,-524.8,-153.6
1966,32.0,-529.0666666666666,-157.86666666666667
1967,29.866666666666667,-526.9333333333333,-172.8
1968,29.866666666666667,-524.8,-157.86666666666667
1969,32.0,-526.9333333333333,-157.86666666666667
1970,29.866666666666667,-524.8,-164.26666666666665
1971,32.0,-531.2,-164.26666666666665
1972,29.866666666666667,-529.0666666666666,-162.13333333333333
1973,36.266666666666666,-526.9333333333333,-170.66666666666666
1974,44.8,-529.0666666666666,-168.53333333333333
1975,40.53333333333333,-526.9333333333333,-170.66666666666666
1976,46.93333333333333,-516.2666666666667,-172.8
1977,36.266666666666666,-509.8666666666667,-174.93333333333334
1978,29.866666666666667,-499.2,-172.8
1979,29.866666666666667,-507.73333333333335,-160.0
1980,12.8,-497.06666666666666,-157.86666666666667
1981,17.066666666666666,-503.46666666666664,-162.13333333333333
1982,8.533333333333333,-509.8666666666667,-155.73333333333332
1983,2.1333333333333333,-526.9333333333333,-145.06666666666666
1984,0.0,-537.6,-145.06666666666666
1985,-6.4,-541.8666666666667,-155.73333333333332
1986,-12.8,-552.5333333333333,-164.26666666666665
1987,-6.4,-552.5333333333333,-172.8
1988,-21.333333333333332,-563.2,-168.53333333333333
1989,-25.6,-563.2,-177.06666666666666
1990,-25.6,-573.8666666666667,-177.06666666666666
1991,-34.13333333333333,-561.0666666666666,-177.06666666666666
1992,-34.13333333333333,-556.8,-177.06666666666666
1993,-32.0,-556.8,-179.2
1994,-29.866666666666667,-541.8666666666667,-172.8
1995,-25.6,-537.6,-177.06666666666666
1996,-23.466666666666665,-544.0,-170.66666666666666
1997,-19.2,-533.3333333333334,-166.4
1998,-12.8,-541.8666666666667,-164.26666666666665
1999,-12.8,-537.6,-174.93333333333334
2000,-6.4,-537.6,-162.13333333333333
2001,-8.533333333333333,-531.2,-170.66666666666666
2002,-6.4,-524.8,-177.06666666666666
2003,-4.266666666666667,-526.9333333333333,-181.33333333333334
2004,-8.533333333333333,-522.6666666666666,-174.93333333333334
2005,-4.266666666666667,-524.8,-174.93333333333334
2006,-2.1333333333333333,-522.6666666666666,-168.53333333333333
2007,-6.4,-524.8,-166.4
2008,-12.8,-522.6666666666666,-155.73333333333332
2009,-10.666666666666666,-524.8,-166.4
2010,-10.666666666666666,-522.6666666666666,-174.93333333333334
2011,-14.933333333333334,-524.8,-164.26666666666665
2012,-17.066666666666666,-526.9333333333333,-172.8
2013,-2.1333333333333333,-529.0666666666666,-172.8
2014,-8.533333333333333,-529.0666666666666,-185.6
2015,-4.266666666666667,-531.2,-179.2
2016,-8.533333333333333,-520.5333333333333,-183.46666666666667
2017,-8.533333333333333,-524.8,-183.46666666666667
2018,-10.666666666666666,-516.2666666666667,-183.46666666666667
2019,-4.266666666666667,-518.4,-189.86666666666667
2020,0.0,-518.4,-187.73333333333332
2021,-4.266666666666667,-520.5333333333333,-194.13333333333333
2022,0.0,-518.4,-185.6
2023,4.266666666666667,-520.5333333333333,-183.46666666666667
2024,2.1333333333333333,-522.6666666666666,-187.73333333333332
2025,2.1333333333333333,-514.1333333333333,-183.46666666666667
2026,4.266666666666667,-520.5333333333333,-189.86666666666667
2027,4.266666666666667,-520.5333333333333,-192.0
2028,6.4,-522.6666666666666,-181.33333333333334
2029,2.1333333333333333,-524.8,-185.6
2030,14.933333333333334,-526.9333333333333,-187.73333333333332
2031,4.266666666666667,-529.0666666666666,-192.0
2032,2.1333333333333333,-524.8,-183.46666666666667
2033,0.0,-524.8,-189.86666666666667
2034,-2.1333333333333333,-526.9333333333333,-183.46666666666667
2035,-6.4,-526.9333333333333,-194.13333333333333
2036,-14.933333333333334,-524.8,-187.73333333333332
2037,-10.666666666666666,-524.8,-189.86666666666667
2038,-10.666666666666666,-522.6666666666666,-187.73333333333332
2039,-19.2,-524.8,-200.53333333333333
2040,-21.333333333333332,-526.9333333333333,-194.13333333333333
2041,-19.2,-526.9333333333333,-185.6
2042,-27.733333333333334,-524.8,-187.73333333333332
2043,-21.333333333333332,-522.6666666666666,-189.86666666666667
2044,-17.066666666666666,-524.8,-189.86666666666667
2045,-12.8,-520.5333333333333,-183.46666666666667
2046,-10.666666666666666,-526.9333333333333,-187.73333333333332
2047,-17.066666666666666,-526.9333333333333,-185.6
2048,-12.8,-526.9333333333333,-185.6
2049,-14.933333333333334,-529.0666666666666,-187.73333333333332
2050,-14.933333333333334,-524.8,-189.86666666666667
2051,-21.333333333333332,-524.8,-181.33333333333334
2052,-32.0,-522.6666666666666,-174.93333333333334
2053,-21.333333333333332,-518.4,-187.73333333333332
2054,-19.2,-520.5333333333333,-183.46666666666667
2055,-25.6,-516.2666666666667,-183.46666666666667
2056,-25.6,-522.6666666666666,-183.46666666666667
2057,-23.466666666666665,-526.9333333333333,-177.06666666666666
2058,-25.6,-524.8,-179.2
2059,-29.866666666666667,-520.5333333333333,-183.46666666666667
2060,-23.466666666666665,-524.8,-179.2
2061,-23.466666666666665,-529.0666666666666,-181.33333333333334
2062,-23.466666666666665,-529.0666666666666,-174.93333333333334
2063,-21.333333333333332,-533.3333333333334,-174.93333333333334
2064,-27.733333333333334,-531.2,-179.2
2065,-23.466666666666665,-533.3333333333334,-174.93333333333334
2066,-27.733333333333334,-526.9333333333333,-183.46666666666667
2067,-14.933333333333334,-531.2,-181.33333333333334
2068,-12.8,-535.4666666666667,-177.06666666666666
2069,-27.733333333333334,-529.0666666666666,-179.2
2070,-23.466666666666665,-535.4666666666667,-174.93333333333334
2071,-29.866666666666667,-529.0666666666666,-179.2
2072,-23.466666666666665,-529.0666666666666,-179.2
2073,-21.333333333333332,-529.0666666666666,-170.66666666666666
2074,-25.6,-524.8,-181.33333333333334
2075,-23.466666666666665,-522.6666666666666,-177.06666666666666
2076,-27.733333333333334,-514.1333333333333,-181.33333333333334
2077,-21.333333333333332,-516.2666666666667,-174.93333333333334
2078,-21.333333333333332,-509.8666666666667,-166.4
2079,-19.2,-518.4,-168.53333333333333
2080,-14.933333333333334,-514.1333333333333,-162.13333333333333
2081,-12.8,-509.8666666666667,-160.0
2082,-14.933333333333334,-509.8666666666667,-164.26666666666665
2083,-6.4,-507.73333333333335,-164.26666666666665
2084,-8.533333333333333,-509.8666666666667,-157.86666666666667
2085,-4.266666666666667,-512.0,-162.13333333333333
2086,0.0,-516.2666666666667,-157.86666666666667
2087,0.0,-512.0,-164.26666666666665
2088,0.0,-516.2666666666667,-160.0
2089,2.1333333333333333,-522.6666666666666,-160.0
2090,0.0,-526.9333333333333,-160.0
2091,-2.1333333333333333,-524.8,-155.73333333333332
2092,0.0,-535.4666666666667,-153.6
2093,4.266666666666667,-537.6,-155.73333333333332
2094,2.1333333333333333,-533.3333333333334,-153.6
2095,8.533333333333333,-529.0666666666666,-155.73333333333332
2096,2.1333333333333333,-537.6,-151.46666666666667
2097,6.4,-535.4666666666667,-149.33333333333334
2098,4.266666666666667,-533.3333333333334,-153.6
2099,2.1333333333333333,-531.2,-162.13333333333333
2100,8.533333333333333,-533.3333333333334,-155.73333333333332
2101,6.4,-531.2,-155.73333333333332
2102,2.1333333333333333,-533.3333333333334,-155.73333333333332
2103,4.266666666666667,-526.9333333333333,-157.86666666666667
2104,10.666666666666666,-531.2,-157.86666666666667
2105,6.4,-529.0666666666666,-160.0
2106,14.933333333333334,-531.2,-162.13333333333333
2107,19.2,-537.6,-164.26666666666665
2108,17.066666666666666,-524.8,-157.86666666666667
2109,23.466666666666665,-524.8,-162.13333333333333
2110,21.333333333333332,-522.6666666666666,-170.66666666666666
2111,17.066666666666666,-526.9333333333333,-160.0
2112,23.466666666666665,-524.8,-160.0
2113,19.2,-514.1333333333333,-160.0
2114,19.2,-518.4,-172.8
2115,12.8,-529.0666666666666,-162.13333333333333
2116,12.8,-524.8,-172.8
2117,19.2,-512.0,-162.13333333333333
2118,25.6,-503.46666666666664,-166.4
2119,17.066666666666666,-494.93333333333334,-174.93333333333334
2120,23.466666666666665,-505.59999999999997,-168.53333333333333
2121,25.6,-497.06666666666666,-170.66666666666666
2122,19.2,-503.46666666666664,-172.8
2123,6.4,-520.5333333333333,-179.2
2124,2.1333333333333333,-531.2,-179.2
2125,-4.266666666666667,-539.7333333333333,-179.2
2126,-6.4,-548.2666666666667,-181.33333333333334
2127,-12.8,-546.1333333333333,-181.33333333333334
2128,-23.466666666666665,-554.6666666666666,-179.2
2129,-32.0,-554.6666666666666,-181.33333333333334
2130,-38.4,-548.2666666666667,-181.33333333333334
2131,-40.53333333333333,-550.4,-179.2
2132,-46.93333333333333,-550.4,-177.06666666666666
2133,-61.86666666666667,-544.0,-174.93333333333334
2134,-61.86666666666667,-533.3333333333334,-183.46666666666667
2135,-70.4,-518.4,-183.46666666666667
2136,-68.26666666666667,-514.1333333333333,-172.8
2137,-72.53333333333333,-509.8666666666667,-181.33333333333334
2138,-74.66666666666667,-499.2,-172.8
2139,-61.86666666666667,-492.8,-172.8
2140,-68.26666666666667,-492.8,-172.8
2141,-66.13333333333333,-501.3333333333333,-179.2
2142,-70.4,-497.06666666666666,-172.8
2143,-66.13333333333333,-503.46666666666664,-179.2
2144,-64.0,-499.2,-179.2
2145,-59.733333333333334,-503.46666666666664,-181.33333333333334
2146,-51.2,-507.73333333333335,-179.2
2147,-51.2,-514.1333333333333,-179.2
2148,-44.8,-514.1333333333333,-179.2
2149,-44.8,-516.2666666666667,-192.0
2150,-36.266666666666666,-522.6666666666666,-181.33333333333334
2151,-29.866666666666667,-520.5333333333333,-181.33333333333334
2152,-32.0,-518.4,-183.46666666666667
2153,-19.2,-526.9333333333333,-181.33333333333334
2154,-17.066666666666666,-526.9333333333333,-181.33333333333334
2155,-8.533333333333333,-531.2,-177.06666666666666
2156,-12.8,-529.0666666666666,-172.8
2157,-12.8,-533.3333333333334,-174.93333333333334
2158,-2.1333333333333333,-531.2,-174.93333333333334
2159,0.0,-531.2,-177.06666666666666
2160,4.266666666666667,-537.6,-162.13333333333333
2161,0.0,-529.0666666666666,-174.93333333333334
2162,0.0,-531.2,-170.66666666666666
2163,0.0,-526.9333333333333,-179.2
2164,4.266666666666667,-526.9333333333333,-172.8
2165,-2.1333333333333333,-520.5333333333333,-179.2
2166,0.0,-520.5333333333333,-174.93333333333334
2167,-2.1333333333333333,-520.5333333333333,-183.46666666666667
2168,-4.266666666666667,-518.4,-177.06666666666666
2169,2.1333333333333333,-520.5333333333333,-181.33333333333334
2170,-6.4,-518.4,-185.6
2171,-4.266666666666667,-520.5333333333333,-183.46666666666667
2172,-14.933333333333334,-516.2666666666667,-183.46666666666667
2173,-8.533333333333333,-516.2666666666667,-183.46666666666667
2174,-17.066666666666666,-518.4,-181.33333333333334
2175,-12.8,-520.5333333333333,-177.06666666666666
2176,-12.8,-531.2,-174.93333333333334
2177,-6.4,-531.2,-174.93333333333334
2178,-14.933333333333334,-533.3333333333334,-177.06666666666666
2179,-17.066666666666666,-531.2,-164.26666666666665
2180,-17.066666666666666,-533.3333333333334,-166.4
2181,-21.333333333333332,-531.2,-164.26666666666665
2182,-10.666666666666666,-535.4666666666667,-151.46666666666667
2183,-12.8,-537.6,-166.4
2184,-14.933333333333334,-537.6,-170.66666666666666
2185,-21.333333333333332,-535.4666666666667,-170.66666666666666
2186,-8.533333333333333,-533.3333333333334,-164.26666666666665
2187,-19.2,-526.9333333333333,-166.4
2188,-12.8,-529.0666666666666,-157.86666666666667
2189,-8.533333333333333,-529.0666666666666,-164.26666666666665
2190,-10.666666666666666,-524.8,-157.86666666666667
2191,-10.666666666666666,-518.4,-153.6
2192,-2.1333333333333333,-524.8,-164.26666666666665
2193,-2.1333333333333333,-516.2666666666667,-162.13333333333333
2194,0.0,-520.5333333333333,-166.4
2195,0.0,-522.6666666666666,-160.0
2196,-2.1333333333333333,-516.2666666666667,-160.0
2197,2.1333333333333333,-526.9333333333333,-166.4
2198,2.1333333333333333,-524.8,-168.53333333333333
2199,-2.1333333333333333,-526.9333333333333,-164.26666666666665
2200,2.1333333333333333,-529.0666666666666,-172.8
2201,-2.1333333333333333,-524.8,-172.8
2202,0.0,-529.0666666666666,-170.66666666666666
2203,4.266666666666667,-529.0666666666666,-172.8
2204,-2.1333333333333333,-524.8,-177.06666666666666
2205,0.0,-526.9333333333333,-174.93333333333334
2206,-4.266666666666667,-529.0666666666666,-174.93333333333334
2207,2.1333333333333333,-531.2,-172.8
2208,-2.1333333333333333,-524.8,-181.33333333333334
2209,0.0,-526.9333333333333,-172.8
2210,0.0,-529.0666666666666,-174.93333333333334
2211,0.0,-524.8,-170.66666666666666
2212,-4.266666666666667,-529.0666666666666,-166.4
2213,2.1333333333333333,-524.8,-174.93333333333334
2214,-4.266666666666667,-522.6666666666666,-172.8
2215,-4.266666666666667,-520.5333333333333,-172.8
2216,0.0,-522.6666666666666,-166.4
2217,0.0,-516.2666666666667,-174.93333333333334
2218,-2.1333333333333333,-520.5333333333333,-172.8
2219,0.0,-524.8,-177.06666666666666
2220,-4.266666666666667,-524.8,-183.46666666666667
2221,-6.4,-522.6666666666666,-179.2
2222,-4.266666666666667,-526.9333333333333,-177.06666666666666
2223,-4.266666666666667,-522.6666666666666,-179.2
2224,-14.933333333333334,-526.9333333333333,-177.06666666666666
2225,-12.8,-526.9333333333333,-170.66666666666666
2226,-12.8,-522.6666666666666,-166.4
2227,-10.666666666666666,-526.9333333333333,-172.8
2228,-4.266666666666667,-529.0666666666666,-177.06666666666666
2229,-4.266666666666667,-529.0666666666666,-179.2
2230,-14.933333333333334,-524.8,-179.2
2231,-6.4,-526.9333333333333,-174.93333333333334
2232,-8.533333333333333,-524.8,-172.8
2233,-8.533333333333333,-520.5333333333333,-177.06666666666666
2234,-10.666666666666666,-520.5333333333333,-177.06666666666666
2235,-21.333333333333332,-516.2666666666667,-174.93333333333334
2236,-14.933333333333334,-520.5333333333333,-181.33333333333334
2237,-14.933333333333334,-522.6666666666666,-174.93333333333334
2238,-14.933333333333334,-522.6666666666666,-164.26666666666665
2239,-19.2,-522.6666666666666,-168.53333333333333
2240,-17.066666666666666,-522.6666666666666,-166.4
2241,-19.2,-520.5333333333333,-168.53333333333333
2242,-17.066666666666666,-522.6666666666666,-174.93333333333334
2243,-14.933333333333334,-526.9333333333333,-168.53333333333333
2244,-10.666666666666666,-526.9333333333333,-166.4
2245,-17.066666666666666,-520.5333333333333,-160.0
2246,-17.066666666666666,-522.6666666666666,-164.26666666666665
2247,-29.866666666666667,-541.8666666666667,-155.73333333333332
2248,-12.8,-526.9333333333333,-162.13333333333333
2249,-23.466666666666665,-524.8,-162.13333333333333
2250,-10.666666666666666,-526.9333333333333,-153.6
2251,-12.8,-526.9333333333333,-155.73333333333332
2252,-12.8,-526.9333333333333,-147.2
2253,-14.933333333333334,-520.5333333333333,-151.46666666666667
2254,-4.266666666666667,-526.9333333333333,-155.73333333333332
2255,0.0,-524.8,-157.86666666666667
2256,-17.066666666666666,-520.5333333333333,-160.0
2257,-4.266666666666667,-518.4,-162.13333333333333
2258,0.0,-526.9333333333333,-168.53333333333333
2259,-4.266666666666667,-518.4,-164.26666666666665
2260,-10.666666666666666,-520.5333333333333,-168.53333333333333
2261,-8.533333333333333,-526.9333333333333,-177.06666666666666
2262,-8.533333333333333,-522.6666666666666,-172.8
2263,-12.8,-524.8,-172.8
2264,-6.4,-531.2,-170.66666666666666
2265,-10.666666666666666,-529.0666666666666,-172.8
2266,-10.666666666666666,-524.8,-172.8
2267,-8.533333333333333,-529.0666666666666,-168.53333333333333
2268,-10.666666666666666,-529.0666666666666,-172.8
2269,-10.666666666666666,-520.5333333333333,-130.13333333333333
2270,-6.4,-524.8,-166.4
2271,-4.266666666666667,-522.6666666666666,-172.8
2272,-12.8,-520.5333333333333,-170.66666666666666
2273,-6.4,-524.8,-168.53333333333333
2274,-12.8,-524.8,-166.4
2275,-12.8,-520.5333333333333,-166.4
2276,-14.933333333333334,-516.2666666666667,-172.8
2277,-17.066666666666666,-522.6666666666666,-160.0
2278,-8.533333333333333,-518.4,-164.26666666666665
2279,-14.933333333333334,-520.5333333333333,-166.4
2280,-14.933333333333334,-518.4,-168.53333333333333
2281,-17.066666666666666,-529.0666666666666,-164.26666666666665
2282,-17.066666666666666,-526.9333333333333,-166.4
2283,-19.2,-531.2,-172.8
2284,-6.4,-526.9333333333333,-164.26666666666665
2285,-12.8,-529.0666666666666,-164.26666666666665
2286,-8.533333333333333,-531.2,-162.13333333333333
2287,-12.8,-535.4666666666667,-170.66666666666666
2288,-12.8,-531.2,-174.93333333333334
2289,-14.933333333333334,-535.4666666666667,-179.2
2290,-10.666666666666666,-531.2,-174.93333333333334
2291,-14.933333333333334,-535.4666666666667,-157.86666666666667
2292,-14.933333333333334,-526.9333333333333,-179.2
2293,-10.666666666666666,-520.5333333333333,-179.2
2294,-10.666666666666666,-522.6666666666666,-192.0
2295,-14.933333333333334,-522.6666666666666,-187.73333333333332
2296,-17.066666666666666,-522.6666666666666,-192.0
2297,-14.933333333333334,-526.9333333333333,-185.6
2298,-14.933333333333334,-524.8,-200.53333333333333
2299,-6.4,-520.5333333333333,-185.6
2300,-12.8,-518.4,-187.73333333333332
2301,-14.933333333333334,-520.5333333333333,-185.6
2302,-4.266666666666667,-516.2666666666667,-185.6
2303,-12.8,-512.0,-185.6
2304,0.0,-520.5333333333333,-183.46666666666667
2305,-6.4,-514.1333333333333,-181.33333333333334
2306,0.0,-516.2666666666667,-174.93333333333334
2307,-2.1333333333333333,-514.1333333333333,-179.2
2308,2.1333333333333333,-518.4,-177.06666666666666
2309,0.0,-512.0,-168.53333333333333
2310,-2.1333333333333333,-526.9333333333333,-172.8
2311,-2.1333333333333333,-524.8,-162.13333333333333
2312,-4.266666666666667,-529.0666666666666,-177.06666666666666
2313,-27.733333333333334,-531.2,-172.8
2314,-12.8,-531.2,-174.93333333333334
2315,-10.666666666666666,-531.2,-172.8
2316,-10.666666666666666,-533.3333333333334,-179.2
2317,-8.533333333333333,-533.3333333333334,-179.2
2318,-8.533333333333333,-526.9333333333333,-177.06666666666666
2319,-6.4,-526.9333333333333,-181.33333333333334
2320,-6.4,-518.4,-185.6
2321,-8.533333333333333,-522.6666666666666,-189.86666666666667
2322,-2.1333333333333333,-514.1333333333333,-198.4
2323,-12.8,-518.4,-194.13333333333333
2324,-4.266666666666667,-524.8,-194.13333333333333
2325,-10.666666666666666,-518.4,-189.86666666666667
2326,-4.266666666666667,-520.5333333333333,-196.26666666666665
2327,-10.666666666666666,-516.2666666666667,-189.86666666666667
2328,-8.533333333333333,-516.2666666666667,-185.6
2329,0.0,-522.6666666666666,-196.26666666666665
2330,-6.4,-505.59999999999997,-187.73333333333332
2331,-6.4,-514.1333333333333,-192.0
2332,0.0,-512.0,-187.73333333333332
2333,-2.1333333333333333,-516.2666666666667,-179.2
2334,2.1333333333333333,-507.73333333333335,-183.46666666666667
2335,10.666666666666666,-505.59999999999997,-185.6
2336,-4.266666666666667,-512.0,-181.33333333333334
2337,-10.666666666666666,-514.1333333333333,-177.06666666666666
2338,-2.1333333333333333,-520.5333333333333,-179.2
2339,-6.4,-522.6666666666666,-179.2
2340,-6.4,-524.8,-181.33333333333334
2341,-6.4,-520.5333333333333,-179.2
2342,-8.533333333333333,-522.6666666666666,-181.33333333333334
2343,-2.1333333333333333,-524.8,-196.26666666666665
2344,-6.4,-522.6666666666666,-194.13333333333333
2345,-4.266666666666667,-526.9333333333333,-189.86666666666667
2346,6.4,-524.8,-181.33333333333334
2347,-4.266666666666667,-520.5333333333333,-189.86666666666667
2348,-2.1333333333333333,-520.5333333333333,-189.86666666666667
2349,0.0,-522.6666666666666,-198.4
2350,-4.266666666666667,-518.4,-192.0
2351,0.0,-520.5333333333333,-196.26666666666665
2352,-2.1333333333333333,-518.4,-183.46666666666667
2353,-6.4,-514.1333333333333,-185.6
2354,-4.266666666666667,-516.2666666666667,-183.46666666666667
2355,-12.8,-514.1333333333333,-185.6
2356,-4.266666666666667,-514.1333333333333,-183.46666666666667
2357,-2.1333333333333333,-518.4,-189.86666666666667
2358,0.0,-518.4,-183.46666666666667
2359,-8.533333333333333,-520.5333333333333,-179.2
2360,0.0,-524.8,-174.93333333333334
2361,0.0,-520.5333333333333,-185.6
2362,-10.666666666666666,-524.8,-187.73333333333332
2363,-8.533333333333333,-524.8,-183.46666666666667
2364,-8.533333333333333,-526.9333333333333,-181.33333333333334
2365,0.0,-529.0666666666666,-187.73333333333332
2366,0.0,-526.9333333333333,-194.13333333333333
2367,-10.666666666666666,-520.5333333333333,-194.13333333333333
2368,-10.666666666666666,-522.6666666666666,-192.0
2369,-4.266666666666667,-529.0666666666666,-185.6
2370,-6.4,-529.0666666666666,-192.0
2371,-8.533333333333333,-522.6666666666666,-198.4
2372,-6.4,-522.6666666666666,-192.0
2373,-6.4,-518.4,-198.4
2374,0.0,-514.1333333333333,-192.0
2375,-2.1333333333333333,-514.1333333333333,-189.86666666666667
2376,0.0,-522.6666666666666,-192.0
2377,0.0,-514.1333333333333,-194.13333333333333
2378,-6.4,-533.3333333333334,-177.06666666666666
2379,-2.1333333333333333,-514.1333333333333,-192.0
2380,-4.266666666666667,-518.4,-194.13333333333333
2381,0.0,-522.6666666666666,-192.0
2382,-8.533333333333333,-516.2666666666667,-194.13333333333333
2383,-10.666666666666666,-518.4,-198.4
2384,-6.4,-522.6666666666666,-202.66666666666666
2385,0.0,-522.6666666666666,-196.26666666666665
2386,-8.533333333333333,-514.1333333333333,-206.93333333333334
2387,-4.266666666666667,-522.6666666666666,-192.0
2388,-10.666666666666666,-518.4,-192.0
2389,-8.533333333333333,-516.2666666666667,-198.4
2390,0.0,-516.2666666666667,-204.8
2391,-2.1333333333333333,-516.2666666666667,-189.86666666666667
2392,-2.1333333333333333,-516.2666666666667,-196.26666666666665
2393,-4.266666666666667,-516.2666666666667,-192.0
2394,-6.4,-520.5333333333333,-200.53333333333333
2395,-6.4,-516.2666666666667,-204.8
2396,-4.266666666666667,-516.2666666666667,-204.8
2397,-8.533333333333333,-518.4,-196.26666666666665
2398,-4.266666666666667,-509.8666666666667,-202.66666666666666
2399,0.0,-516.2666666666667,-196.26666666666665
