,accelerometerAccelerationX(G),accelerometerAccelerationY(G),accelerometerAccelerationZ(G)
0,-25.6,-460.8,-283.73333333333335
1,-25.6,-467.2,-281.6
2,-27.733333333333334,-458.6666666666667,-288.0
3,-25.6,-462.93333333333334,-288.0
4,-25.6,-467.2,-283.73333333333335
5,-27.733333333333334,-467.2,-283.73333333333335
6,-32.0,-469.3333333333333,-285.8666666666667
7,-27.733333333333334,-477.8666666666667,-288.0
8,-36.266666666666666,-480.0,-288.0
9,-34.13333333333333,-469.3333333333333,-290.1333333333333
10,-27.733333333333334,-475.73333333333335,-288.0
11,-32.0,-475.73333333333335,-285.8666666666667
12,-32.0,-477.8666666666667,-290.1333333333333
13,-27.733333333333334,-473.59999999999997,-292.26666666666665
14,-32.0,-477.8666666666667,-294.4
15,-32.0,-471.46666666666664,-288.0
16,-34.13333333333333,-473.59999999999997,-290.1333333333333
17,-32.0,-482.1333333333333,-290.1333333333333
18,-27.733333333333334,-480.0,-285.8666666666667
19,-38.4,-480.0,-279.46666666666664
20,-38.4,-484.26666666666665,-283.73333333333335
21,-25.6,-484.26666666666665,-281.6
22,-25.6,-486.4,-288.0
23,-23.466666666666665,-492.8,-288.0
24,-25.6,-484.26666666666665,-283.73333333333335
25,-19.2,-488.5333333333333,-285.8666666666667
26,-17.066666666666666,-488.5333333333333,-292.26666666666665
27,-14.933333333333334,-492.8,-283.73333333333335
28,-10.666666666666666,-490.6666666666667,-285.8666666666667
29,-12.8,-488.5333333333333,-285.8666666666667
30,-17.066666666666666,-488.5333333333333,-275.2
31,-19.2,-490.6666666666667,-279.46666666666664
32,-25.6,-482.1333333333333,-279.46666666666664
33,-25.6,-482.1333333333333,-279.46666666666664
34,-32.0,-480.0,-279.46666666666664
35,-36.266666666666666,-482.1333333333333,-290.1333333333333
36,-38.4,-477.8666666666667,-279.46666666666664
37,-42.666666666666664,-473.59999999999997,-279.46666666666664
38,-49.06666666666666,-469.3333333333333,-281.6
39,-53.333333333333336,-460.8,-281.6
40,-51.2,-473.59999999999997,-283.73333333333335
41,-55.46666666666667,-467.2,-275.2
42,-51.2,-465.06666666666666,-277.3333333333333
43,-57.6,-460.8,-270.93333333333334
44,-55.46666666666667,-462.93333333333334,-273.06666666666666
45,-55.46666666666667,-458.6666666666667,-273.06666666666666
46,-61.86666666666667,-462.93333333333334,-279.46666666666664
47,-57.6,-458.6666666666667,-279.46666666666664
48,-61.86666666666667,-469.3333333333333,-281.6
49,-59.733333333333334,-469.3333333333333,-279.46666666666664
50,-66.13333333333333,-467.2,-285.8666666666667
51,-64.0,-473.59999999999997,-283.73333333333335
52,-61.86666666666667,-475.73333333333335,-292.26666666666665
53,-68.26666666666667,-482.1333333333333,-290.1333333333333
54,-70.4,-475.73333333333335,-285.8666666666667
55,-61.86666666666667,-480.0,-292.26666666666665
56,-64.0,-482.1333333333333,-298.6666666666667
57,-59.733333333333334,-480.0,-290.1333333333333
58,-55.46666666666667,-484.26666666666665,-283.73333333333335
59,-51.2,-484.26666666666665,-283.73333333333335
60,-46.93333333333333,-484.26666666666665,-283.73333333333335
61,-38.4,-482.1333333333333,-277.3333333333333
62,-25.6,-490.6666666666667,-285.8666666666667
63,-27.733333333333334,-490.6666666666667,-277.3333333333333
64,-23.466666666666665,-492.8,-264.5333333333333
65,-14.933333333333334,-486.4,-266.6666666666667
66,0.0,-492.8,-266.6666666666667
67,4.266666666666667,-486.4,-279.46666666666664
68,6.4,-480.0,-275.2
69,6.4,-484.26666666666665,-273.06666666666666
70,12.8,-492.8,-264.5333333333333
71,8.533333333333333,-484.26666666666665,-260.26666666666665
72,14.933333333333334,-480.0,-283.73333333333335
73,8.533333333333333,-482.1333333333333,-277.3333333333333
74,2.1333333333333333,-482.1333333333333,-256.0
75,-2.1333333333333333,-482.1333333333333,-258.1333333333333
76,-6.4,-477.8666666666667,-262.4
77,-8.533333333333333,-475.73333333333335,-275.2
78,-8.533333333333333,-477.8666666666667,-258.1333333333333
79,-8.533333333333333,-475.73333333333335,-249.6
80,-6.4,-480.0,-283.73333333333335
81,-14.933333333333334,-480.0,-256.0
82,-17.066666666666666,-477.8666666666667,-260.26666666666665
83,-21.333333333333332,-480.0,-277.3333333333333
84,-21.333333333333332,-482.1333333333333,-283.73333333333335
85,-25.6,-488.5333333333333,-292.26666666666665
86,-40.53333333333333,-482.1333333333333,-309.3333333333333
87,-46.93333333333333,-471.46666666666664,-315.73333333333335
88,-53.333333333333336,-471.46666666666664,-322.1333333333333
89,-68.26666666666667,-460.8,-317.8666666666667
90,-76.8,-456.5333333333333,-315.73333333333335
91,-91.73333333333333,-445.8666666666667,-315.73333333333335
92,-104.53333333333333,-460.8,-309.3333333333333
93,-115.2,-462.93333333333334,-290.1333333333333
94,-128.0,-469.3333333333333,-285.8666666666667
95,-136.53333333333333,-473.59999999999997,-273.06666666666666
96,-140.8,-473.59999999999997,-277.3333333333333
97,-140.8,-477.8666666666667,-266.6666666666667
98,-132.26666666666665,-482.1333333333333,-279.46666666666664
99,-128.0,-475.73333333333335,-275.2
100,-106.66666666666667,-475.73333333333335,-288.0
101,-98.13333333333333,-482.1333333333333,-283.73333333333335
102,-91.73333333333333,-486.4,-288.0
103,-93.86666666666666,-490.6666666666667,-294.4
104,-81.06666666666666,-492.8,-307.2
105,-68.26666666666667,-492.8,-305.06666666666666
106,-59.733333333333334,-490.6666666666667,-309.3333333333333
107,-53.333333333333336,-494.93333333333334,-311.46666666666664
108,-57.6,-492.8,-313.6
109,-55.46666666666667,-488.5333333333333,-296.5333333333333
110,-61.86666666666667,-492.8,-294.4
111,-64.0,-490.6666666666667,-285.8666666666667
112,-66.13333333333333,-486.4,-277.3333333333333
113,-83.2,-482.1333333333333,-264.5333333333333
114,-85.33333333333333,-473.59999999999997,-256.0
115,-91.73333333333333,-477.8666666666667,-253.86666666666667
116,-102.4,-473.59999999999997,-245.33333333333334
117,-100.26666666666667,-473.59999999999997,-243.2
118,-100.26666666666667,-467.2,-230.4
119,-104.53333333333333,-473.59999999999997,-228.26666666666665
120,-113.06666666666666,-467.2,-236.79999999999998
121,-119.46666666666667,-471.46666666666664,-226.13333333333333
122,-132.26666666666665,-460.8,-232.53333333333333
123,-132.26666666666665,-458.6666666666667,-228.26666666666665
124,-149.33333333333334,-456.5333333333333,-236.79999999999998
125,-155.73333333333332,-458.6666666666667,-238.93333333333334
126,-162.13333333333333,-454.4,-245.33333333333334
127,-170.66666666666666,-452.26666666666665,-247.46666666666667
128,-172.8,-445.8666666666667,-251.73333333333332
129,-179.2,-437.3333333333333,-251.73333333333332
130,-181.33333333333334,-437.3333333333333,-260.26666666666665
131,-183.46666666666667,-443.73333333333335,-266.6666666666667
132,-187.73333333333332,-445.8666666666667,-262.4
133,-192.0,-454.4,-260.26666666666665
134,-192.0,-452.26666666666665,-256.0
135,-204.8,-471.46666666666664,-251.73333333333332
136,-192.0,-465.06666666666666,-245.33333333333334
137,-183.46666666666667,-443.73333333333335,-256.0
138,-211.2,-512.0,-241.06666666666666
139,-192.0,-475.73333333333335,-268.8
140,-183.46666666666667,-497.06666666666666,-236.79999999999998
141,-174.93333333333334,-494.93333333333334,-264.5333333333333
142,-179.2,-488.5333333333333,-247.46666666666667
143,-172.8,-488.5333333333333,-251.73333333333332
144,-174.93333333333334,-480.0,-253.86666666666667
145,-168.53333333333333,-471.46666666666664,-260.26666666666665
146,-164.26666666666665,-467.2,-253.86666666666667
147,-162.13333333333333,-456.5333333333333,-256.0
148,-160.0,-441.59999999999997,-258.1333333333333
149,-160.0,-433.06666666666666,-253.86666666666667
150,-162.13333333333333,-428.8,-251.73333333333332
151,-164.26666666666665,-426.6666666666667,-247.46666666666667
152,-164.26666666666665,-422.4,-245.33333333333334
153,-166.4,-424.5333333333333,-234.66666666666666
154,-170.66666666666666,-426.6666666666667,-232.53333333333333
155,-166.4,-430.93333333333334,-226.13333333333333
156,-174.93333333333334,-433.06666666666666,-221.86666666666667
157,-179.2,-435.2,-215.46666666666667
158,-185.6,-433.06666666666666,-211.2
159,-189.86666666666667,-430.93333333333334,-213.33333333333334
160,-194.13333333333333,-441.59999999999997,-224.0
161,-194.13333333333333,-443.73333333333335,-221.86666666666667
162,-196.26666666666665,-435.2,-234.66666666666666
163,-198.4,-439.46666666666664,-232.53333333333333
164,-209.06666666666666,-430.93333333333334,-241.06666666666666
165,-198.4,-433.06666666666666,-247.46666666666667
166,-204.8,-441.59999999999997,-249.6
167,-200.53333333333333,-441.59999999999997,-251.73333333333332
168,-196.26666666666665,-439.46666666666664,-253.86666666666667
169,-198.4,-439.46666666666664,-256.0
170,-204.8,-448.0,-247.46666666666667
171,-198.4,-452.26666666666665,-251.73333333333332
172,-206.93333333333334,-445.8666666666667,-256.0
173,-202.66666666666666,-454.4,-251.73333333333332
174,-200.53333333333333,-450.1333333333333,-253.86666666666667
175,-200.53333333333333,-458.6666666666667,-256.0
176,-204.8,-467.2,-251.73333333333332
177,-206.93333333333334,-465.06666666666666,-238.93333333333334
178,-213.33333333333334,-465.06666666666666,-241.06666666666666
179,-221.86666666666667,-462.93333333333334,-241.06666666666666
180,-226.13333333333333,-467.2,-232.53333333333333
181,-226.13333333333333,-465.06666666666666,-230.4
182,-234.66666666666666,-460.8,-219.73333333333332
183,-245.33333333333334,-460.8,-219.73333333333332
184,-247.46666666666667,-452.26666666666665,-213.33333333333334
185,-253.86666666666667,-439.46666666666664,-215.46666666666667
186,-258.1333333333333,-430.93333333333334,-215.46666666666667
187,-260.26666666666665,-430.93333333333334,-215.46666666666667
188,-266.6666666666667,-430.93333333333334,-209.06666666666666
189,-268.8,-424.5333333333333,-215.46666666666667
190,-264.5333333333333,-422.4,-221.86666666666667
191,-270.93333333333334,-424.5333333333333,-215.46666666666667
192,-256.0,-426.6666666666667,-224.0
193,-251.73333333333332,-424.5333333333333,-224.0
194,-253.86666666666667,-433.06666666666666,-230.4
195,-249.6,-430.93333333333334,-224.0
196,-236.79999999999998,-439.46666666666664,-219.73333333333332
197,-234.66666666666666,-448.0,-228.26666666666665
198,-232.53333333333333,-454.4,-232.53333333333333
199,-224.0,-456.5333333333333,-243.2
200,-226.13333333333333,-450.1333333333333,-251.73333333333332
201,-224.0,-452.26666666666665,-249.6
202,-215.46666666666667,-450.1333333333333,-245.33333333333334
203,-215.46666666666667,-456.5333333333333,-256.0
204,-215.46666666666667,-448.0,-256.0
205,-213.33333333333334,-445.8666666666667,-270.93333333333334
206,-209.06666666666666,-450.1333333333333,-262.4
207,-209.06666666666666,-445.8666666666667,-273.06666666666666
208,-213.33333333333334,-448.0,-270.93333333333334
209,-211.2,-450.1333333333333,-273.06666666666666
210,-209.06666666666666,-454.4,-279.46666666666664
211,-202.66666666666666,-448.0,-268.8
212,-204.8,-456.5333333333333,-273.06666666666666
213,-196.26666666666665,-454.4,-279.46666666666664
214,-198.4,-448.0,-277.3333333333333
215,-194.13333333333333,-450.1333333333333,-285.8666666666667
216,-192.0,-448.0,-275.2
217,-187.73333333333332,-441.59999999999997,-279.46666666666664
218,-187.73333333333332,-437.3333333333333,-273.06666666666666
219,-187.73333333333332,-441.59999999999997,-268.8
220,-183.46666666666667,-430.93333333333334,-262.4
221,-183.46666666666667,-426.6666666666667,-260.26666666666665
222,-187.73333333333332,-422.4,-260.26666666666665
223,-189.86666666666667,-422.4,-253.86666666666667
224,-194.13333333333333,-426.6666666666667,-247.46666666666667
225,-198.4,-422.4,-247.46666666666667
226,-198.4,-420.26666666666665,-249.6
227,-211.2,-422.4,-249.6
228,-224.0,-422.4,-251.73333333333332
229,-224.0,-426.6666666666667,-238.93333333333334
230,-232.53333333333333,-426.6666666666667,-249.6
231,-234.66666666666666,-433.06666666666666,-243.2
232,-245.33333333333334,-435.2,-243.2
233,-251.73333333333332,-430.93333333333334,-245.33333333333334
234,-247.46666666666667,-439.46666666666664,-251.73333333333332
235,-249.6,-435.2,-253.86666666666667
236,-241.06666666666666,-437.3333333333333,-251.73333333333332
237,-243.2,-439.46666666666664,-247.46666666666667
238,-238.93333333333334,-435.2,-251.73333333333332
239,-241.06666666666666,-437.3333333333333,-258.1333333333333
240,-232.53333333333333,-430.93333333333334,-251.73333333333332
241,-232.53333333333333,-428.8,-253.86666666666667
242,-228.26666666666665,-428.8,-253.86666666666667
243,-224.0,-424.5333333333333,-256.0
244,-224.0,-428.8,-256.0
245,-217.6,-426.6666666666667,-256.0
246,-217.6,-422.4,-256.0
247,-209.06666666666666,-426.6666666666667,-260.26666666666665
248,-217.6,-426.6666666666667,-251.73333333333332
249,-213.33333333333334,-430.93333333333334,-253.86666666666667
250,-209.06666666666666,-426.6666666666667,-256.0
251,-211.2,-424.5333333333333,-258.1333333333333
252,-204.8,-428.8,-253.86666666666667
253,-196.26666666666665,-430.93333333333334,-256.0
254,-198.4,-433.06666666666666,-253.86666666666667
255,-194.13333333333333,-433.06666666666666,-247.46666666666667
256,-204.8,-443.73333333333335,-251.73333333333332
257,-209.06666666666666,-450.1333333333333,-251.73333333333332
258,-213.33333333333334,-460.8,-253.86666666666667
259,-221.86666666666667,-473.59999999999997,-249.6
260,-226.13333333333333,-477.8666666666667,-253.86666666666667
261,-232.53333333333333,-477.8666666666667,-249.6
262,-243.2,-475.73333333333335,-253.86666666666667
263,-251.73333333333332,-477.8666666666667,-258.1333333333333
264,-253.86666666666667,-471.46666666666664,-258.1333333333333
265,-264.5333333333333,-473.59999999999997,-260.26666666666665
266,-270.93333333333334,-469.3333333333333,-260.26666666666665
267,-264.5333333333333,-467.2,-270.93333333333334
268,-268.8,-471.46666666666664,-270.93333333333334
269,-258.1333333333333,-469.3333333333333,-266.6666666666667
270,-264.5333333333333,-473.59999999999997,-258.1333333333333
271,-253.86666666666667,-469.3333333333333,-264.5333333333333
272,-249.6,-460.8,-268.8
273,-238.93333333333334,-454.4,-260.26666666666665
274,-228.26666666666665,-452.26666666666665,-262.4
275,-217.6,-445.8666666666667,-253.86666666666667
276,-211.2,-445.8666666666667,-249.6
277,-206.93333333333334,-441.59999999999997,-243.2
278,-215.46666666666667,-443.73333333333335,-247.46666666666667
279,-209.06666666666666,-439.46666666666664,-241.06666666666666
280,-206.93333333333334,-426.6666666666667,-245.33333333333334
281,-213.33333333333334,-422.4,-245.33333333333334
282,-206.93333333333334,-416.0,-260.26666666666665
283,-209.06666666666666,-405.3333333333333,-266.6666666666667
284,-209.06666666666666,-396.8,-275.2
285,-217.6,-390.4,-283.73333333333335
286,-217.6,-388.26666666666665,-279.46666666666664
287,-221.86666666666667,-388.26666666666665,-273.06666666666666
288,-219.73333333333332,-396.8,-268.8
289,-215.46666666666667,-407.46666666666664,-258.1333333333333
290,-215.46666666666667,-413.8666666666667,-256.0
291,-206.93333333333334,-426.6666666666667,-253.86666666666667
292,-202.66666666666666,-439.46666666666664,-230.4
293,-200.53333333333333,-450.1333333333333,-238.93333333333334
294,-192.0,-462.93333333333334,-234.66666666666666
295,-192.0,-471.46666666666664,-238.93333333333334
296,-192.0,-475.73333333333335,-243.2
297,-194.13333333333333,-480.0,-243.2
298,-192.0,-473.59999999999997,-245.33333333333334
299,-196.26666666666665,-475.73333333333335,-247.46666666666667
300,-196.26666666666665,-469.3333333333333,-247.46666666666667
301,-204.8,-473.59999999999997,-253.86666666666667
302,-211.2,-467.2,-253.86666666666667
303,-213.33333333333334,-465.06666666666666,-256.0
304,-221.86666666666667,-462.93333333333334,-256.0
305,-226.13333333333333,-458.6666666666667,-256.0
306,-230.4,-454.4,-253.86666666666667
307,-238.93333333333334,-454.4,-251.73333333333332
308,-241.06666666666666,-454.4,-234.66666666666666
309,-245.33333333333334,-454.4,-230.4
310,-253.86666666666667,-456.5333333333333,-224.0
311,-262.4,-452.26666666666665,-219.73333333333332
312,-268.8,-441.59999999999997,-217.6
313,-266.6666666666667,-448.0,-206.93333333333334
314,-275.2,-443.73333333333335,-189.86666666666667
315,-277.3333333333333,-435.2,-189.86666666666667
316,-283.73333333333335,-428.8,-187.73333333333332
317,-296.5333333333333,-418.1333333333333,-172.8
318,-300.8,-418.1333333333333,-172.8
319,-302.93333333333334,-420.26666666666665,-164.26666666666665
320,-315.73333333333335,-418.1333333333333,-149.33333333333334
321,-337.06666666666666,-411.73333333333335,-140.8
322,-352.0,-405.3333333333333,-142.93333333333334
323,-360.5333333333333,-405.3333333333333,-134.4
324,-375.46666666666664,-401.06666666666666,-142.93333333333334
325,-377.6,-401.06666666666666,-138.66666666666666
326,-375.46666666666664,-396.8,-155.73333333333332
327,-373.3333333333333,-401.06666666666666,-160.0
328,-364.8,-405.3333333333333,-170.66666666666666
329,-364.8,-405.3333333333333,-181.33333333333334
330,-341.3333333333333,-405.3333333333333,-196.26666666666665
331,-324.26666666666665,-403.2,-211.2
332,-302.93333333333334,-413.8666666666667,-221.86666666666667
333,-283.73333333333335,-409.6,-232.53333333333333
334,-273.06666666666666,-409.6,-230.4
335,-253.86666666666667,-409.6,-249.6
336,-241.06666666666666,-416.0,-251.73333333333332
337,-226.13333333333333,-418.1333333333333,-251.73333333333332
338,-228.26666666666665,-426.6666666666667,-245.33333333333334
339,-234.66666666666666,-426.6666666666667,-245.33333333333334
340,-243.2,-443.73333333333335,-243.2
341,-256.0,-445.8666666666667,-243.2
342,-264.5333333333333,-465.06666666666666,-224.0
343,-281.6,-462.93333333333334,-224.0
344,-300.8,-471.46666666666664,-215.46666666666667
345,-322.1333333333333,-475.73333333333335,-219.73333333333332
346,-339.2,-469.3333333333333,-232.53333333333333
347,-347.73333333333335,-469.3333333333333,-219.73333333333332
348,-366.93333333333334,-450.1333333333333,-238.93333333333334
349,-371.2,-443.73333333333335,-251.73333333333332
350,-375.46666666666664,-430.93333333333334,-247.46666666666667
351,-371.2,-416.0,-256.0
352,-366.93333333333334,-403.2,-253.86666666666667
353,-349.8666666666667,-388.26666666666665,-253.86666666666667
354,-347.73333333333335,-371.2,-245.33333333333334
355,-328.5333333333333,-364.8,-245.33333333333334
356,-326.4,-358.4,-224.0
357,-324.26666666666665,-360.5333333333333,-204.8
358,-324.26666666666665,-358.4,-192.0
359,-328.5333333333333,-360.5333333333333,-164.26666666666665
360,-334.93333333333334,-356.26666666666665,-153.6
361,-330.6666666666667,-358.4,-130.13333333333333
362,-334.93333333333334,-356.26666666666665,-119.46666666666667
363,-339.2,-358.4,-110.93333333333334
364,-345.6,-354.1333333333333,-98.13333333333333
365,-339.2,-343.46666666666664,-113.06666666666666
366,-347.73333333333335,-345.6,-98.13333333333333
367,-347.73333333333335,-334.93333333333334,-102.4
368,-362.6666666666667,-328.5333333333333,-113.06666666666666
369,-364.8,-330.6666666666667,-106.66666666666667
370,-377.6,-334.93333333333334,-117.33333333333333
371,-392.5333333333333,-347.73333333333335,-115.2
372,-396.8,-358.4,-110.93333333333334
373,-413.8666666666667,-375.46666666666664,-104.53333333333333
374,-418.1333333333333,-386.1333333333333,-110.93333333333334
375,-430.93333333333334,-403.2,-102.4
376,-430.93333333333334,-409.6,-110.93333333333334
377,-439.46666666666664,-418.1333333333333,-108.8
378,-437.3333333333333,-416.0,-117.33333333333333
379,-443.73333333333335,-405.3333333333333,-123.73333333333333
380,-435.2,-405.3333333333333,-123.73333333333333
381,-426.6666666666667,-394.6666666666667,-117.33333333333333
382,-409.6,-384.0,-108.8
383,-403.2,-364.8,-96.0
384,-390.4,-356.26666666666665,-87.46666666666667
385,-384.0,-345.6,-74.66666666666667
386,-386.1333333333333,-326.4,-53.333333333333336
387,-388.26666666666665,-311.46666666666664,-38.4
388,-392.5333333333333,-305.06666666666666,-27.733333333333334
389,-401.06666666666666,-294.4,-6.4
390,-405.3333333333333,-283.73333333333335,-6.4
391,-424.5333333333333,-277.3333333333333,17.066666666666666
392,-426.6666666666667,-270.93333333333334,19.2
393,-430.93333333333334,-266.6666666666667,25.6
394,-445.8666666666667,-264.5333333333333,21.333333333333332
395,-462.93333333333334,-247.46666666666667,34.13333333333333
396,-471.46666666666664,-247.46666666666667,29.866666666666667
397,-475.73333333333335,-238.93333333333334,32.0
398,-477.8666666666667,-228.26666666666665,32.0
399,-482.1333333333333,-226.13333333333333,36.266666666666666
400,-477.8666666666667,-226.13333333333333,19.2
401,-473.59999999999997,-230.4,17.066666666666666
402,-462.93333333333334,-236.79999999999998,8.533333333333333
403,-462.93333333333334,-243.2,6.4
404,-469.3333333333333,-238.93333333333334,-10.666666666666666
405,-460.8,-245.33333333333334,-12.8
406,-450.1333333333333,-258.1333333333333,6.4
407,-452.26666666666665,-256.0,0.0
408,-450.1333333333333,-264.5333333333333,-10.666666666666666
409,-454.4,-270.93333333333334,-8.533333333333333
410,-456.5333333333333,-273.06666666666666,0.0
411,-469.3333333333333,-262.4,0.0
412,-469.3333333333333,-247.46666666666667,-2.1333333333333333
413,-471.46666666666664,-238.93333333333334,8.533333333333333
414,-473.59999999999997,-228.26666666666665,27.733333333333334
415,-475.73333333333335,-194.13333333333333,23.466666666666665
416,-471.46666666666664,-170.66666666666666,19.2
417,-482.1333333333333,-142.93333333333334,19.2
418,-484.26666666666665,-108.8,40.53333333333333
419,-484.26666666666665,-104.53333333333333,55.46666666666667
420,-490.6666666666667,-83.2,55.46666666666667
421,-507.73333333333335,-64.0,34.13333333333333
422,-535.4666666666667,-21.333333333333332,27.733333333333334
423,-561.0666666666666,0.0,38.4
424,-588.8,29.866666666666667,55.46666666666667
425,-601.6,44.8,57.6
426,-627.2,53.333333333333336,57.6
427,-635.7333333333333,53.333333333333336,49.06666666666666
428,-650.6666666666666,40.53333333333333,21.333333333333332
429,-667.7333333333333,29.866666666666667,2.1333333333333333
430,-676.2666666666667,10.666666666666666,8.533333333333333
431,-689.0666666666666,-8.533333333333333,-8.533333333333333
432,-708.2666666666667,-34.13333333333333,-42.666666666666664
433,-721.0666666666666,-66.13333333333333,-64.0
434,-716.8,-87.46666666666667,-74.66666666666667
435,-714.6666666666666,-102.4,-66.13333333333333
436,-691.2,-121.6,-57.6
437,-674.1333333333333,-119.46666666666667,-25.6
438,-642.1333333333333,-110.93333333333334,2.1333333333333333
439,-590.9333333333333,-98.13333333333333,29.866666666666667
440,-565.3333333333334,-61.86666666666667,53.333333333333336
441,-537.6,-17.066666666666666,87.46666666666667
442,-501.3333333333333,17.066666666666666,108.8
443,-456.5333333333333,57.6,113.06666666666666
444,-428.8,119.46666666666667,102.4
445,-403.2,147.2,113.06666666666666
446,-394.6666666666667,189.86666666666667,108.8
447,-371.2,200.53333333333333,102.4
448,-366.93333333333334,209.06666666666666,100.26666666666667
449,-356.26666666666665,204.8,96.0
450,-356.26666666666665,198.4,102.4
451,-358.4,181.33333333333334,98.13333333333333
452,-366.93333333333334,174.93333333333334,100.26666666666667
453,-377.6,145.06666666666666,108.8
454,-394.6666666666667,130.13333333333333,108.8
455,-426.6666666666667,102.4,115.2
456,-467.2,76.8,123.73333333333333
457,-499.2,53.333333333333336,134.4
458,-546.1333333333333,32.0,147.2
459,-595.2,10.666666666666666,155.73333333333332
460,-631.4666666666667,4.266666666666667,160.0
461,-663.4666666666667,-10.666666666666666,179.2
462,-686.9333333333333,-23.466666666666665,198.4
463,-714.6666666666666,-34.13333333333333,217.6
464,-712.5333333333333,-38.4,234.66666666666666
465,-712.5333333333333,-32.0,232.53333333333333
466,-695.4666666666667,-34.13333333333333,232.53333333333333
467,-689.0666666666666,-25.6,236.79999999999998
468,-682.6666666666666,-10.666666666666666,253.86666666666667
469,-684.8,-4.266666666666667,241.06666666666666
470,-686.9333333333333,2.1333333333333333,232.53333333333333
471,-695.4666666666667,29.866666666666667,234.66666666666666
472,-659.2,59.733333333333334,243.2
473,-640.0,85.33333333333333,241.06666666666666
474,-625.0666666666666,123.73333333333333,238.93333333333334
475,-593.0666666666666,145.06666666666666,228.26666666666665
476,-565.3333333333334,170.66666666666666,226.13333333333333
477,-535.4666666666667,179.2,209.06666666666666
478,-503.46666666666664,187.73333333333332,206.93333333333334
479,-467.2,166.4,194.13333333333333
480,-452.26666666666665,149.33333333333334,183.46666666666667
481,-422.4,128.0,189.86666666666667
482,-413.8666666666667,98.13333333333333,213.33333333333334
483,-416.0,64.0,230.4
484,-409.6,29.866666666666667,251.73333333333332
485,-420.26666666666665,0.0,266.6666666666667
486,-416.0,-25.6,279.46666666666664
487,-413.8666666666667,-42.666666666666664,275.2
488,-416.0,-55.46666666666667,273.06666666666666
489,-426.6666666666667,-59.733333333333334,268.8
490,-420.26666666666665,-59.733333333333334,266.6666666666667
491,-422.4,-72.53333333333333,266.6666666666667
492,-420.26666666666665,-81.06666666666666,253.86666666666667
493,-422.4,-74.66666666666667,249.6
494,-422.4,-91.73333333333333,251.73333333333332
495,-424.5333333333333,-93.86666666666666,251.73333333333332
496,-416.0,-108.8,256.0
497,-424.5333333333333,-117.33333333333333,243.2
498,-426.6666666666667,-134.4,230.4
499,-430.93333333333334,-138.66666666666666,224.0
500,-437.3333333333333,-145.06666666666666,211.2
501,-441.59999999999997,-166.4,209.06666666666666
502,-454.4,-160.0,213.33333333333334
503,-467.2,-160.0,213.33333333333334
504,-462.93333333333334,-155.73333333333332,219.73333333333332
505,-465.06666666666666,-155.73333333333332,232.53333333333333
506,-465.06666666666666,-145.06666666666666,243.2
507,-477.8666666666667,-130.13333333333333,249.6
508,-482.1333333333333,-117.33333333333333,256.0
509,-477.8666666666667,-104.53333333333333,260.26666666666665
510,-473.59999999999997,-93.86666666666666,273.06666666666666
511,-469.3333333333333,-83.2,277.3333333333333
512,-475.73333333333335,-72.53333333333333,288.0
513,-467.2,-68.26666666666667,302.93333333333334
514,-450.1333333333333,-70.4,290.1333333333333
515,-450.1333333333333,-49.06666666666666,270.93333333333334
516,-454.4,-40.53333333333333,264.5333333333333
517,-467.2,-40.53333333333333,273.06666666666666
518,-454.4,-53.333333333333336,266.6666666666667
519,-456.5333333333333,-61.86666666666667,262.4
520,-443.73333333333335,-78.93333333333334,247.46666666666667
521,-443.73333333333335,-87.46666666666667,234.66666666666666
522,-462.93333333333334,-89.6,224.0
523,-454.4,-104.53333333333333,226.13333333333333
524,-450.1333333333333,-106.66666666666667,211.2
525,-450.1333333333333,-115.2,204.8
526,-441.59999999999997,-110.93333333333334,192.0
527,-437.3333333333333,-117.33333333333333,202.66666666666666
528,-428.8,-117.33333333333333,202.66666666666666
529,-424.5333333333333,-125.86666666666666,217.6
530,-426.6666666666667,-123.73333333333333,209.06666666666666
531,-433.06666666666666,-117.33333333333333,213.33333333333334
532,-435.2,-104.53333333333333,219.73333333333332
533,-433.06666666666666,-93.86666666666666,228.26666666666665
534,-437.3333333333333,-81.06666666666666,260.26666666666665
535,-441.59999999999997,-87.46666666666667,264.5333333333333
536,-456.5333333333333,-83.2,277.3333333333333
537,-460.8,-78.93333333333334,277.3333333333333
538,-482.1333333333333,-70.4,281.6
539,-494.93333333333334,-70.4,273.06666666666666
540,-503.46666666666664,-61.86666666666667,251.73333333333332
541,-512.0,-57.6,238.93333333333334
542,-507.73333333333335,-59.733333333333334,228.26666666666665
543,-501.3333333333333,-68.26666666666667,209.06666666666666
544,-497.06666666666666,-68.26666666666667,211.2
545,-482.1333333333333,-81.06666666666666,204.8
546,-473.59999999999997,-91.73333333333333,196.26666666666665
547,-467.2,-106.66666666666667,192.0
548,-467.2,-113.06666666666666,179.2
549,-458.6666666666667,-123.73333333333333,179.2
550,-454.4,-130.13333333333333,181.33333333333334
551,-465.06666666666666,-136.53333333333333,179.2
552,-460.8,-145.06666666666666,172.8
553,-475.73333333333335,-145.06666666666666,172.8
554,-490.6666666666667,-142.93333333333334,177.06666666666666
555,-494.93333333333334,-138.66666666666666,168.53333333333333
556,-505.59999999999997,-132.26666666666665,166.4
557,-520.5333333333333,-130.13333333333333,166.4
558,-524.8,-130.13333333333333,172.8
559,-539.7333333333333,-121.6,179.2
560,-550.4,-117.33333333333333,170.66666666666666
561,-548.2666666666667,-121.6,174.93333333333334
562,-552.5333333333333,-115.2,177.06666666666666
563,-550.4,-113.06666666666666,181.33333333333334
564,-537.6,-104.53333333333333,170.66666666666666
565,-533.3333333333334,-104.53333333333333,174.93333333333334
566,-529.0666666666666,-98.13333333333333,183.46666666666667
567,-522.6666666666666,-100.26666666666667,179.2
568,-509.8666666666667,-102.4,179.2
569,-505.59999999999997,-100.26666666666667,174.93333333333334
570,-505.59999999999997,-100.26666666666667,177.06666666666666
571,-492.8,-108.8,168.53333333333333
572,-488.5333333333333,-110.93333333333334,168.53333333333333
573,-497.06666666666666,-104.53333333333333,170.66666666666666
574,-484.26666666666665,-113.06666666666666,162.13333333333333
575,-480.0,-108.8,166.4
576,-475.73333333333335,-110.93333333333334,157.86666666666667
577,-475.73333333333335,-106.66666666666667,168.53333333333333
578,-471.46666666666664,-117.33333333333333,185.6
579,-480.0,-115.2,181.33333333333334
580,-475.73333333333335,-110.93333333333334,187.73333333333332
581,-488.5333333333333,-110.93333333333334,194.13333333333333
582,-482.1333333333333,-119.46666666666667,194.13333333333333
583,-494.93333333333334,-115.2,206.93333333333334
584,-501.3333333333333,-117.33333333333333,206.93333333333334
585,-497.06666666666666,-119.46666666666667,202.66666666666666
586,-501.3333333333333,-117.33333333333333,204.8
587,-501.3333333333333,-115.2,204.8
588,-501.3333333333333,-117.33333333333333,204.8
589,-505.59999999999997,-110.93333333333334,192.0
590,-499.2,-113.06666666666666,192.0
591,-501.3333333333333,-106.66666666666667,189.86666666666667
592,-505.59999999999997,-113.06666666666666,177.06666666666666
593,-501.3333333333333,-115.2,189.86666666666667
594,-494.93333333333334,-119.46666666666667,177.06666666666666
595,-497.06666666666666,-125.86666666666666,168.53333333333333
596,-494.93333333333334,-123.73333333333333,166.4
597,-497.06666666666666,-130.13333333333333,164.26666666666665
598,-488.5333333333333,-130.13333333333333,166.4
599,-486.4,-130.13333333333333,157.86666666666667
600,-497.06666666666666,-132.26666666666665,166.4
601,-501.3333333333333,-130.13333333333333,157.86666666666667
602,-497.06666666666666,-134.4,160.0
603,-505.59999999999997,-130.13333333333333,162.13333333333333
604,-507.73333333333335,-128.0,155.73333333333332
605,-505.59999999999997,-123.73333333333333,155.73333333333332
606,-509.8666666666667,-119.46666666666667,162.13333333333333
607,-518.4,-110.93333333333334,157.86666666666667
608,-512.0,-106.66666666666667,162.13333333333333
609,-518.4,-102.4,155.73333333333332
610,-516.2666666666667,-100.26666666666667,160.0
611,-516.2666666666667,-104.53333333333333,164.26666666666665
612,-509.8666666666667,-106.66666666666667,179.2
613,-509.8666666666667,-100.26666666666667,174.93333333333334
614,-507.73333333333335,-98.13333333333333,185.6
615,-509.8666666666667,-102.4,181.33333333333334
616,-505.59999999999997,-98.13333333333333,185.6
617,-501.3333333333333,-98.13333333333333,192.0
618,-497.06666666666666,-102.4,181.33333333333334
619,-492.8,-102.4,189.86666666666667
620,-490.6666666666667,-104.53333333333333,189.86666666666667
621,-486.4,-100.26666666666667,200.53333333333333
622,-488.5333333333333,-106.66666666666667,209.06666666666666
623,-484.26666666666665,-115.2,202.66666666666666
624,-482.1333333333333,-113.06666666666666,202.66666666666666
625,-480.0,-113.06666666666666,196.26666666666665
626,-471.46666666666664,-117.33333333333333,204.8
627,-475.73333333333335,-119.46666666666667,211.2
628,-471.46666666666664,-115.2,211.2
629,-475.73333333333335,-110.93333333333334,219.73333333333332
630,-477.8666666666667,-108.8,209.06666666666666
631,-473.59999999999997,-110.93333333333334,215.46666666666667
632,-469.3333333333333,-113.06666666666666,204.8
633,-480.0,-113.06666666666666,206.93333333333334
634,-475.73333333333335,-110.93333333333334,209.06666666666666
635,-475.73333333333335,-110.93333333333334,211.2
636,-480.0,-115.2,219.73333333333332
637,-477.8666666666667,-113.06666666666666,206.93333333333334
638,-475.73333333333335,-104.53333333333333,213.33333333333334
639,-477.8666666666667,-108.8,209.06666666666666
640,-480.0,-110.93333333333334,202.66666666666666
641,-475.73333333333335,-106.66666666666667,206.93333333333334
642,-473.59999999999997,-108.8,213.33333333333334
643,-473.59999999999997,-110.93333333333334,211.2
644,-473.59999999999997,-108.8,217.6
645,-473.59999999999997,-110.93333333333334,219.73333333333332
646,-480.0,-108.8,215.46666666666667
647,-475.73333333333335,-110.93333333333334,224.0
648,-473.59999999999997,-113.06666666666666,215.46666666666667
649,-475.73333333333335,-119.46666666666667,213.33333333333334
650,-471.46666666666664,-117.33333333333333,217.6
651,-467.2,-113.06666666666666,213.33333333333334
652,-469.3333333333333,-117.33333333333333,217.6
653,-475.73333333333335,-115.2,202.66666666666666
654,-469.3333333333333,-117.33333333333333,209.06666666666666
655,-473.59999999999997,-113.06666666666666,209.06666666666666
656,-471.46666666666664,-115.2,206.93333333333334
657,-469.3333333333333,-117.33333333333333,211.2
658,-475.73333333333335,-110.93333333333334,206.93333333333334
659,-480.0,-110.93333333333334,224.0
660,-473.59999999999997,-117.33333333333333,215.46666666666667
661,-473.59999999999997,-108.8,219.73333333333332
662,-477.8666666666667,-108.8,219.73333333333332
663,-473.59999999999997,-113.06666666666666,211.2
664,-469.3333333333333,-110.93333333333334,219.73333333333332
665,-475.73333333333335,-104.53333333333333,206.93333333333334
666,-477.8666666666667,-104.53333333333333,211.2
667,-475.73333333333335,-110.93333333333334,209.06666666666666
668,-477.8666666666667,-113.06666666666666,215.46666666666667
669,-473.59999999999997,-113.06666666666666,215.46666666666667
670,-473.59999999999997,-110.93333333333334,213.33333333333334
671,-482.1333333333333,-113.06666666666666,213.33333333333334
672,-477.8666666666667,-117.33333333333333,204.8
673,-475.73333333333335,-117.33333333333333,211.2
674,-482.1333333333333,-117.33333333333333,209.06666666666666
675,-477.8666666666667,-115.2,200.53333333333333
676,-484.26666666666665,-115.2,204.8
677,-480.0,-117.33333333333333,213.33333333333334
678,-480.0,-121.6,202.66666666666666
679,-484.26666666666665,-117.33333333333333,209.06666666666666
680,-482.1333333333333,-113.06666666666666,202.66666666666666
681,-477.8666666666667,-115.2,209.06666666666666
682,-480.0,-117.33333333333333,198.4
683,-486.4,-117.33333333333333,198.4
684,-480.0,-121.6,204.8
685,-484.26666666666665,-110.93333333333334,202.66666666666666
686,-482.1333333333333,-115.2,204.8
687,-482.1333333333333,-115.2,198.4
688,-480.0,-113.06666666666666,202.66666666666666
689,-484.26666666666665,-110.93333333333334,202.66666666666666
690,-484.26666666666665,-117.33333333333333,202.66666666666666
691,-490.6666666666667,-110.93333333333334,202.66666666666666
692,-490.6666666666667,-113.06666666666666,200.53333333333333
693,-484.26666666666665,-113.06666666666666,198.4
694,-486.4,-113.06666666666666,194.13333333333333
695,-480.0,-119.46666666666667,194.13333333333333
696,-484.26666666666665,-125.86666666666666,202.66666666666666
697,-488.5333333333333,-119.46666666666667,198.4
698,-477.8666666666667,-130.13333333333333,196.26666666666665
699,-482.1333333333333,-121.6,194.13333333333333
700,-492.8,-123.73333333333333,200.53333333333333
701,-486.4,-119.46666666666667,192.0
702,-480.0,-78.93333333333334,183.46666666666667
703,-486.4,-117.33333333333333,200.53333333333333
704,-488.5333333333333,-121.6,189.86666666666667
705,-492.8,-119.46666666666667,194.13333333333333
706,-486.4,-117.33333333333333,202.66666666666666
707,-488.5333333333333,-115.2,196.26666666666665
708,-490.6666666666667,-110.93333333333334,196.26666666666665
709,-486.4,-113.06666666666666,192.0
710,-486.4,-115.2,198.4
711,-484.26666666666665,-100.26666666666667,202.66666666666666
712,-475.73333333333335,-98.13333333333333,215.46666666666667
713,-499.2,-125.86666666666666,217.6
714,-484.26666666666665,-104.53333333333333,200.53333333333333
715,-497.06666666666666,-119.46666666666667,196.26666666666665
716,-480.0,-119.46666666666667,172.8
717,-477.8666666666667,-123.73333333333333,217.6
718,-486.4,-115.2,194.13333333333333
719,-486.4,-115.2,196.26666666666665
720,-486.4,-113.06666666666666,198.4
721,-486.4,-117.33333333333333,196.26666666666665
722,-486.4,-123.73333333333333,204.8
723,-480.0,-117.33333333333333,206.93333333333334
724,-486.4,-119.46666666666667,198.4
725,-488.5333333333333,-113.06666666666666,209.06666666666666
726,-492.8,-110.93333333333334,200.53333333333333
727,-480.0,-113.06666666666666,198.4
728,-490.6666666666667,-115.2,194.13333333333333
729,-486.4,-115.2,204.8
730,-484.26666666666665,-108.8,206.93333333333334
731,-486.4,-113.06666666666666,206.93333333333334
732,-484.26666666666665,-115.2,209.06666666666666
733,-488.5333333333333,-115.2,202.66666666666666
734,-486.4,-104.53333333333333,209.06666666666666
735,-480.0,-110.93333333333334,202.66666666666666
736,-480.0,-115.2,204.8
737,-488.5333333333333,-115.2,202.66666666666666
738,-486.4,-106.66666666666667,206.93333333333334
739,-490.6666666666667,-102.4,206.93333333333334
740,-486.4,-110.93333333333334,204.8
741,-486.4,-106.66666666666667,202.66666666666666
742,-482.1333333333333,-110.93333333333334,200.53333333333333
743,-484.26666666666665,-108.8,211.2
744,-480.0,-108.8,204.8
745,-482.1333333333333,-110.93333333333334,200.53333333333333
746,-484.26666666666665,-113.06666666666666,204.8
747,-477.8666666666667,-113.06666666666666,198.4
748,-486.4,-108.8,204.8
749,-482.1333333333333,-108.8,213.33333333333334
750,-480.0,-113.06666666666666,204.8
751,-477.8666666666667,-110.93333333333334,209.06666666666666
752,-480.0,-117.33333333333333,209.06666666666666
753,-475.73333333333335,-115.2,209.06666666666666
754,-480.0,-125.86666666666666,211.2
755,-480.0,-117.33333333333333,206.93333333333334
756,-480.0,-119.46666666666667,209.06666666666666
757,-482.1333333333333,-115.2,206.93333333333334
758,-482.1333333333333,-117.33333333333333,211.2
759,-486.4,-117.33333333333333,200.53333333333333
760,-482.1333333333333,-115.2,204.8
761,-475.73333333333335,-115.2,204.8
762,-475.73333333333335,-115.2,206.93333333333334
763,-484.26666666666665,-110.93333333333334,206.93333333333334
764,-480.0,-119.46666666666667,198.4
765,-477.8666666666667,-106.66666666666667,206.93333333333334
766,-480.0,-113.06666666666666,206.93333333333334
767,-482.1333333333333,-110.93333333333334,209.06666666666666
768,-480.0,-117.33333333333333,209.06666666666666
769,-484.26666666666665,-119.46666666666667,211.2
770,-486.4,-117.33333333333333,204.8
771,-480.0,-115.2,204.8
772,-482.1333333333333,-119.46666666666667,209.06666666666666
773,-486.4,-115.2,204.8
774,-482.1333333333333,-121.6,213.33333333333334
775,-477.8666666666667,-119.46666666666667,204.8
776,-480.0,-113.06666666666666,198.4
777,-475.73333333333335,-121.6,198.4
778,-482.1333333333333,-117.33333333333333,206.93333333333334
779,-477.8666666666667,-117.33333333333333,206.93333333333334
780,-473.59999999999997,-119.46666666666667,198.4
781,-484.26666666666665,-110.93333333333334,204.8
782,-484.26666666666665,-113.06666666666666,206.93333333333334
783,-475.73333333333335,-125.86666666666666,198.4
784,-480.0,-117.33333333333333,206.93333333333334
785,-486.4,-115.2,202.66666666666666
786,-482.1333333333333,-115.2,213.33333333333334
787,-486.4,-119.46666666666667,198.4
788,-484.26666666666665,-121.6,209.06666666666666
789,-484.26666666666665,-119.46666666666667,209.06666666666666
790,-484.26666666666665,-115.2,198.4
791,-486.4,-117.33333333333333,209.06666666666666
792,-486.4,-115.2,204.8
793,-484.26666666666665,-117.33333333333333,213.33333333333334
794,-484.26666666666665,-119.46666666666667,202.66666666666666
795,-482.1333333333333,-119.46666666666667,194.13333333333333
796,-482.1333333333333,-110.93333333333334,206.93333333333334
797,-484.26666666666665,-117.33333333333333,200.53333333333333
798,-477.8666666666667,-113.06666666666666,194.13333333333333
799,-477.8666666666667,-119.46666666666667,202.66666666666666
800,-475.73333333333335,-119.46666666666667,209.06666666666666
801,-480.0,-123.73333333333333,204.8
802,-480.0,-117.33333333333333,200.53333333333333
803,-486.4,-117.33333333333333,206.93333333333334
804,-477.8666666666667,-119.46666666666667,206.93333333333334
805,-475.73333333333335,-121.6,198.4
806,-486.4,-119.46666666666667,211.2
807,-477.8666666666667,-121.6,209.06666666666666
808,-475.73333333333335,-123.73333333333333,200.53333333333333
809,-484.26666666666665,-117.33333333333333,198.4
810,-484.26666666666665,-115.2,194.13333333333333
811,-482.1333333333333,-115.2,198.4
812,-477.8666666666667,-117.33333333333333,204.8
813,-480.0,-115.2,198.4
814,-480.0,-117.33333333333333,202.66666666666666
815,-482.1333333333333,-121.6,202.66666666666666
816,-484.26666666666665,-110.93333333333334,204.8
817,-473.59999999999997,-119.46666666666667,202.66666666666666
818,-475.73333333333335,-115.2,202.66666666666666
819,-484.26666666666665,-115.2,202.66666666666666
820,-484.26666666666665,-117.33333333333333,198.4
821,-484.26666666666665,-115.2,202.66666666666666
822,-482.1333333333333,-110.93333333333334,198.4
823,-484.26666666666665,-115.2,206.93333333333334
824,-480.0,-110.93333333333334,204.8
825,-484.26666666666665,-115.2,211.2
826,-482.1333333333333,-113.06666666666666,202.66666666666666
827,-482.1333333333333,-117.33333333333333,196.26666666666665
828,-482.1333333333333,-115.2,206.93333333333334
829,-482.1333333333333,-119.46666666666667,211.2
830,-486.4,-110.93333333333334,202.66666666666666
831,-484.26666666666665,-117.33333333333333,200.53333333333333
832,-480.0,-113.06666666666666,206.93333333333334
833,-484.26666666666665,-115.2,202.66666666666666
834,-480.0,-113.06666666666666,200.53333333333333
835,-482.1333333333333,-113.06666666666666,206.93333333333334
836,-492.8,-108.8,202.66666666666666
837,-484.26666666666665,-115.2,204.8
838,-486.4,-115.2,202.66666666666666
839,-482.1333333333333,-108.8,209.06666666666666
840,-486.4,-106.66666666666667,202.66666666666666
841,-482.1333333333333,-117.33333333333333,206.93333333333334
842,-488.5333333333333,-108.8,200.53333333333333
843,-484.26666666666665,-119.46666666666667,200.53333333333333
844,-477.8666666666667,-115.2,200.53333333333333
845,-482.1333333333333,-110.93333333333334,202.66666666666666
846,-480.0,-119.46666666666667,204.8
847,-480.0,-113.06666666666666,198.4
848,-482.1333333333333,-121.6,198.4
849,-477.8666666666667,-113.06666666666666,196.26666666666665
850,-484.26666666666665,-117.33333333333333,202.66666666666666
851,-484.26666666666665,-108.8,204.8
852,-488.5333333333333,-115.2,202.66666666666666
853,-482.1333333333333,-108.8,202.66666666666666
854,-486.4,-113.06666666666666,204.8
855,-488.5333333333333,-108.8,206.93333333333334
856,-486.4,-108.8,209.06666666666666
857,-488.5333333333333,-104.53333333333333,202.66666666666666
858,-488.5333333333333,-108.8,209.06666666666666
859,-480.0,-110.93333333333334,211.2
860,-484.26666666666665,-113.06666666666666,200.53333333333333
861,-475.73333333333335,-115.2,204.8
862,-480.0,-117.33333333333333,202.66666666666666
863,-482.1333333333333,-119.46666666666667,206.93333333333334
864,-480.0,-128.0,211.2
865,-484.26666666666665,-125.86666666666666,211.2
866,-473.59999999999997,-117.33333333333333,204.8
867,-484.26666666666665,-119.46666666666667,200.53333333333333
868,-480.0,-123.73333333333333,202.66666666666666
869,-484.26666666666665,-117.33333333333333,198.4
870,-477.8666666666667,-113.06666666666666,204.8
871,-484.26666666666665,-113.06666666666666,202.66666666666666
872,-475.73333333333335,-121.6,206.93333333333334
873,-475.73333333333335,-115.2,196.26666666666665
874,-477.8666666666667,-119.46666666666667,209.06666666666666
875,-484.26666666666665,-110.93333333333334,204.8
876,-484.26666666666665,-113.06666666666666,198.4
877,-475.73333333333335,-115.2,200.53333333333333
878,-482.1333333333333,-108.8,200.53333333333333
879,-484.26666666666665,-108.8,204.8
880,-486.4,-108.8,211.2
881,-482.1333333333333,-110.93333333333334,204.8
882,-484.26666666666665,-108.8,202.66666666666666
883,-482.1333333333333,-119.46666666666667,204.8
884,-492.8,-115.2,202.66666666666666
885,-482.1333333333333,-115.2,200.53333333333333
886,-484.26666666666665,-113.06666666666666,202.66666666666666
887,-486.4,-119.46666666666667,194.13333333333333
888,-484.26666666666665,-117.33333333333333,196.26666666666665
889,-484.26666666666665,-110.93333333333334,198.4
890,-484.26666666666665,-113.06666666666666,202.66666666666666
891,-482.1333333333333,-113.06666666666666,204.8
892,-482.1333333333333,-115.2,204.8
893,-486.4,-119.46666666666667,204.8
894,-471.46666666666664,-123.73333333333333,204.8
895,-484.26666666666665,-128.0,211.2
896,-480.0,-125.86666666666666,198.4
897,-477.8666666666667,-123.73333333333333,209.06666666666666
898,-475.73333333333335,-123.73333333333333,209.06666666666666
899,-475.73333333333335,-119.46666666666667,206.93333333333334
900,-482.1333333333333,-119.46666666666667,209.06666666666666
901,-484.26666666666665,-113.06666666666666,209.06666666666666
902,-475.73333333333335,-121.6,209.06666666666666
903,-490.6666666666667,-113.06666666666666,206.93333333333334
904,-482.1333333333333,-113.06666666666666,206.93333333333334
905,-482.1333333333333,-108.8,202.66666666666666
906,-482.1333333333333,-98.13333333333333,196.26666666666665
907,-484.26666666666665,-100.26666666666667,187.73333333333332
908,-486.4,-100.26666666666667,196.26666666666665
909,-475.73333333333335,-98.13333333333333,189.86666666666667
910,-484.26666666666665,-104.53333333333333,198.4
911,-480.0,-102.4,204.8
912,-484.26666666666665,-108.8,200.53333333333333
913,-484.26666666666665,-113.06666666666666,202.66666666666666
914,-484.26666666666665,-117.33333333333333,211.2
915,-484.26666666666665,-115.2,200.53333333333333
916,-486.4,-106.66666666666667,198.4
917,-488.5333333333333,-113.06666666666666,198.4
918,-494.93333333333334,-108.8,200.53333333333333
919,-486.4,-110.93333333333334,200.53333333333333
920,-486.4,-113.06666666666666,204.8
921,-486.4,-108.8,198.4
922,-484.26666666666665,-110.93333333333334,202.66666666666666
923,-486.4,-113.06666666666666,202.66666666666666
924,-484.26666666666665,-115.2,198.4
925,-488.5333333333333,-106.66666666666667,211.2
926,-486.4,-110.93333333333334,198.4
927,-482.1333333333333,-108.8,202.66666666666666
928,-482.1333333333333,-110.93333333333334,209.06666666666666
929,-482.1333333333333,-110.93333333333334,202.66666666666666
930,-482.1333333333333,-113.06666666666666,194.13333333333333
931,-490.6666666666667,-113.06666666666666,202.66666666666666
932,-480.0,-115.2,200.53333333333333
933,-475.73333333333335,-117.33333333333333,196.26666666666665
934,-482.1333333333333,-113.06666666666666,198.4
935,-480.0,-113.06666666666666,198.4
936,-480.0,-119.46666666666667,202.66666666666666
937,-480.0,-119.46666666666667,185.6
938,-480.0,-119.46666666666667,196.26666666666665
939,-482.1333333333333,-117.33333333333333,196.26666666666665
940,-484.26666666666665,-117.33333333333333,196.26666666666665
941,-488.5333333333333,-113.06666666666666,198.4
942,-484.26666666666665,-117.33333333333333,189.86666666666667
943,-490.6666666666667,-113.06666666666666,185.6
944,-492.8,-119.46666666666667,196.26666666666665
945,-486.4,-121.6,194.13333333333333
946,-488.5333333333333,-115.2,198.4
947,-490.6666666666667,-119.46666666666667,198.4
948,-488.5333333333333,-119.46666666666667,206.93333333333334
949,-486.4,-117.33333333333333,196.26666666666665
950,-486.4,-117.33333333333333,192.0
951,-490.6666666666667,-110.93333333333334,196.26666666666665
952,-482.1333333333333,-117.33333333333333,200.53333333333333
953,-484.26666666666665,-115.2,204.8
954,-490.6666666666667,-123.73333333333333,202.66666666666666
955,-488.5333333333333,-119.46666666666667,198.4
956,-482.1333333333333,-115.2,187.73333333333332
957,-482.1333333333333,-117.33333333333333,200.53333333333333
958,-484.26666666666665,-119.46666666666667,194.13333333333333
959,-480.0,-117.33333333333333,206.93333333333334
960,-488.5333333333333,-119.46666666666667,198.4
961,-477.8666666666667,-121.6,196.26666666666665
962,-482.1333333333333,-119.46666666666667,198.4
963,-480.0,-121.6,200.53333333333333
964,-484.26666666666665,-121.6,202.66666666666666
965,-477.8666666666667,-117.33333333333333,200.53333333333333
966,-473.59999999999997,-119.46666666666667,198.4
967,-475.73333333333335,-117.33333333333333,202.66666666666666
968,-486.4,-119.46666666666667,202.66666666666666
969,-488.5333333333333,-117.33333333333333,198.4
970,-482.1333333333333,-110.93333333333334,202.66666666666666
971,-484.26666666666665,-117.33333333333333,204.8
972,-488.5333333333333,-110.93333333333334,202.66666666666666
973,-484.26666666666665,-106.66666666666667,211.2
974,-488.5333333333333,-110.93333333333334,202.66666666666666
975,-480.0,-113.06666666666666,200.53333333333333
976,-482.1333333333333,-113.06666666666666,202.66666666666666
977,-484.26666666666665,-115.2,211.2
978,-484.26666666666665,-117.33333333333333,206.93333333333334
979,-480.0,-110.93333333333334,211.2
980,-484.26666666666665,-108.8,204.8
981,-486.4,-110.93333333333334,202.66666666666666
982,-482.1333333333333,-115.2,200.53333333333333
983,-482.1333333333333,-115.2,196.26666666666665
984,-477.8666666666667,-117.33333333333333,202.66666666666666
985,-486.4,-110.93333333333334,206.93333333333334
986,-480.0,-110.93333333333334,206.93333333333334
987,-477.8666666666667,-115.2,204.8
988,-477.8666666666667,-108.8,202.66666666666666
989,-477.8666666666667,-113.06666666666666,200.53333333333333
990,-480.0,-110.93333333333334,213.33333333333334
991,-484.26666666666665,-117.33333333333333,206.93333333333334
992,-482.1333333333333,-113.06666666666666,200.53333333333333
993,-480.0,-117.33333333333333,202.66666666666666
994,-475.73333333333335,-119.46666666666667,206.93333333333334
995,-482.1333333333333,-110.93333333333334,204.8
996,-480.0,-115.2,200.53333333333333
997,-484.26666666666665,-117.33333333333333,213.33333333333334
998,-480.0,-115.2,206.93333333333334
999,-486.4,-115.2,206.93333333333334
1000,-486.4,-110.93333333333334,204.8
1001,-486.4,-108.8,200.53333333333333
1002,-480.0,-108.8,200.53333333333333
1003,-482.1333333333333,-115.2,213.33333333333334
1004,-482.1333333333333,-110.93333333333334,209.06666666666666
1005,-477.8666666666667,-113.06666666666666,206.93333333333334
1006,-484.26666666666665,-106.66666666666667,206.93333333333334
1007,-482.1333333333333,-113.06666666666666,198.4
1008,-484.26666666666665,-108.8,206.93333333333334
1009,-484.26666666666665,-110.93333333333334,196.26666666666665
1010,-486.4,-121.6,202.66666666666666
1011,-488.5333333333333,-115.2,209.06666666666666
1012,-486.4,-117.33333333333333,196.26666666666665
1013,-484.26666666666665,-113.06666666666666,204.8
1014,-486.4,-110.93333333333334,202.66666666666666
1015,-484.26666666666665,-115.2,200.53333333333333
1016,-484.26666666666665,-113.06666666666666,200.53333333333333
1017,-484.26666666666665,-108.8,204.8
1018,-488.5333333333333,-115.2,200.53333333333333
1019,-482.1333333333333,-117.33333333333333,194.13333333333333
1020,-490.6666666666667,-106.66666666666667,198.4
1021,-488.5333333333333,-110.93333333333334,204.8
1022,-484.26666666666665,-115.2,204.8
1023,-486.4,-110.93333333333334,202.66666666666666
1024,-488.5333333333333,-110.93333333333334,198.4
1025,-486.4,-115.2,196.26666666666665
1026,-484.26666666666665,-115.2,198.4
1027,-486.4,-117.33333333333333,198.4
1028,-488.5333333333333,-113.06666666666666,206.93333333333334
1029,-488.5333333333333,-115.2,206.93333333333334
1030,-482.1333333333333,-115.2,200.53333333333333
1031,-490.6666666666667,-108.8,198.4
1032,-492.8,-113.06666666666666,200.53333333333333
1033,-490.6666666666667,-115.2,202.66666666666666
1034,-482.1333333333333,-108.8,200.53333333333333
1035,-488.5333333333333,-113.06666666666666,196.26666666666665
1036,-486.4,-113.06666666666666,196.26666666666665
1037,-486.4,-115.2,194.13333333333333
1038,-484.26666666666665,-117.33333333333333,204.8
1039,-477.8666666666667,-115.2,198.4
1040,-486.4,-106.66666666666667,198.4
1041,-486.4,-104.53333333333333,194.13333333333333
1042,-486.4,-108.8,194.13333333333333
1043,-480.0,-115.2,194.13333333333333
1044,-484.26666666666665,-110.93333333333334,202.66666666666666
1045,-480.0,-113.06666666666666,198.4
1046,-482.1333333333333,-117.33333333333333,200.53333333333333
1047,-492.8,-117.33333333333333,200.53333333333333
1048,-484.26666666666665,-121.6,196.26666666666665
1049,-482.1333333333333,-121.6,198.4
1050,-484.26666666666665,-121.6,196.26666666666665
1051,-486.4,-121.6,209.06666666666666
1052,-484.26666666666665,-119.46666666666667,200.53333333333333
1053,-484.26666666666665,-117.33333333333333,204.8
1054,-484.26666666666665,-123.73333333333333,204.8
1055,-477.8666666666667,-113.06666666666666,204.8
1056,-486.4,-115.2,206.93333333333334
1057,-486.4,-108.8,202.66666666666666
1058,-475.73333333333335,-117.33333333333333,202.66666666666666
1059,-482.1333333333333,-119.46666666666667,202.66666666666666
1060,-486.4,-119.46666666666667,196.26666666666665
1061,-482.1333333333333,-115.2,196.26666666666665
1062,-484.26666666666665,-110.93333333333334,204.8
1063,-486.4,-115.2,206.93333333333334
1064,-482.1333333333333,-115.2,202.66666666666666
1065,-477.8666666666667,-119.46666666666667,200.53333333333333
1066,-482.1333333333333,-110.93333333333334,206.93333333333334
1067,-486.4,-115.2,206.93333333333334
1068,-484.26666666666665,-113.06666666666666,204.8
1069,-475.73333333333335,-113.06666666666666,204.8
1070,-473.59999999999997,-115.2,206.93333333333334
1071,-471.46666666666664,-123.73333333333333,206.93333333333334
1072,-484.26666666666665,-115.2,200.53333333333333
1073,-477.8666666666667,-117.33333333333333,202.66666666666666
1074,-473.59999999999997,-121.6,206.93333333333334
1075,-473.59999999999997,-115.2,200.53333333333333
1076,-477.8666666666667,-113.06666666666666,211.2
1077,-477.8666666666667,-115.2,206.93333333333334
1078,-480.0,-113.06666666666666,206.93333333333334
1079,-482.1333333333333,-110.93333333333334,206.93333333333334
1080,-475.73333333333335,-119.46666666666667,213.33333333333334
1081,-482.1333333333333,-115.2,211.2
1082,-477.8666666666667,-113.06666666666666,202.66666666666666
1083,-482.1333333333333,-110.93333333333334,198.4
1084,-484.26666666666665,-117.33333333333333,211.2
1085,-480.0,-117.33333333333333,200.53333333333333
1086,-482.1333333333333,-110.93333333333334,209.06666666666666
1087,-482.1333333333333,-113.06666666666666,206.93333333333334
1088,-484.26666666666665,-117.33333333333333,206.93333333333334
1089,-482.1333333333333,-113.06666666666666,211.2
1090,-482.1333333333333,-108.8,202.66666666666666
1091,-480.0,-104.53333333333333,204.8
1092,-482.1333333333333,-113.06666666666666,209.06666666666666
1093,-488.5333333333333,-115.2,200.53333333333333
1094,-482.1333333333333,-119.46666666666667,206.93333333333334
1095,-482.1333333333333,-115.2,204.8
1096,-477.8666666666667,-117.33333333333333,206.93333333333334
1097,-473.59999999999997,-115.2,200.53333333333333
1098,-484.26666666666665,-110.93333333333334,200.53333333333333
1099,-477.8666666666667,-119.46666666666667,198.4
1100,-486.4,-115.2,200.53333333333333
1101,-482.1333333333333,-113.06666666666666,209.06666666666666
1102,-482.1333333333333,-123.73333333333333,198.4
1103,-484.26666666666665,-119.46666666666667,198.4
1104,-482.1333333333333,-119.46666666666667,202.66666666666666
1105,-486.4,-125.86666666666666,209.06666666666666
1106,-484.26666666666665,-119.46666666666667,209.06666666666666
1107,-482.1333333333333,-123.73333333333333,202.66666666666666
1108,-477.8666666666667,-125.86666666666666,206.93333333333334
1109,-486.4,-117.33333333333333,189.86666666666667
1110,-482.1333333333333,-119.46666666666667,198.4
1111,-484.26666666666665,-117.33333333333333,204.8
1112,-484.26666666666665,-108.8,202.66666666666666
1113,-486.4,-110.93333333333334,200.53333333333333
1114,-490.6666666666667,-108.8,209.06666666666666
1115,-486.4,-110.93333333333334,196.26666666666665
1116,-490.6666666666667,-110.93333333333334,198.4
1117,-486.4,-108.8,206.93333333333334
1118,-484.26666666666665,-113.06666666666666,211.2
1119,-484.26666666666665,-115.2,198.4
1120,-484.26666666666665,-113.06666666666666,209.06666666666666
1121,-486.4,-117.33333333333333,202.66666666666666
1122,-492.8,-102.4,213.33333333333334
1123,-480.0,-110.93333333333334,204.8
1124,-480.0,-110.93333333333334,211.2
1125,-482.1333333333333,-113.06666666666666,209.06666666666666
1126,-475.73333333333335,-108.8,198.4
1127,-484.26666666666665,-113.06666666666666,198.4
1128,-482.1333333333333,-104.53333333333333,206.93333333333334
1129,-475.73333333333335,-115.2,206.93333333333334
1130,-480.0,-110.93333333333334,213.33333333333334
1131,-484.26666666666665,-113.06666666666666,202.66666666666666
1132,-475.73333333333335,-119.46666666666667,196.26666666666665
1133,-482.1333333333333,-113.06666666666666,202.66666666666666
1134,-482.1333333333333,-117.33333333333333,196.26666666666665
1135,-482.1333333333333,-119.46666666666667,198.4
1136,-477.8666666666667,-117.33333333333333,192.0
1137,-488.5333333333333,-121.6,198.4
1138,-482.1333333333333,-119.46666666666667,200.53333333333333
1139,-484.26666666666665,-113.06666666666666,202.66666666666666
1140,-484.26666666666665,-115.2,196.26666666666665
1141,-484.26666666666665,-117.33333333333333,194.13333333333333
1142,-477.8666666666667,-113.06666666666666,194.13333333333333
1143,-484.26666666666665,-117.33333333333333,200.53333333333333
1144,-484.26666666666665,-115.2,198.4
1145,-488.5333333333333,-106.66666666666667,204.8
1146,-486.4,-108.8,204.8
1147,-484.26666666666665,-117.33333333333333,209.06666666666666
1148,-484.26666666666665,-117.33333333333333,202.66666666666666
1149,-484.26666666666665,-117.33333333333333,202.66666666666666
1150,-480.0,-119.46666666666667,211.2
1151,-486.4,-117.33333333333333,200.53333333333333
1152,-484.26666666666665,-117.33333333333333,211.2
1153,-477.8666666666667,-119.46666666666667,206.93333333333334
1154,-475.73333333333335,-117.33333333333333,211.2
1155,-482.1333333333333,-123.73333333333333,211.2
1156,-475.73333333333335,-119.46666666666667,200.53333333333333
1157,-486.4,-115.2,206.93333333333334
1158,-480.0,-115.2,206.93333333333334
1159,-477.8666666666667,-113.06666666666666,202.66666666666666
1160,-473.59999999999997,-123.73333333333333,204.8
1161,-480.0,-117.33333333333333,202.66666666666666
1162,-477.8666666666667,-113.06666666666666,206.93333333333334
1163,-475.73333333333335,-113.06666666666666,202.66666666666666
1164,-477.8666666666667,-115.2,204.8
1165,-482.1333333333333,-113.06666666666666,204.8
1166,-480.0,-108.8,202.66666666666666
1167,-475.73333333333335,-113.06666666666666,209.06666666666666
1168,-473.59999999999997,-119.46666666666667,198.4
1169,-471.46666666666664,-115.2,202.66666666666666
1170,-471.46666666666664,-121.6,209.06666666666666
1171,-477.8666666666667,-125.86666666666666,204.8
1172,-484.26666666666665,-119.46666666666667,202.66666666666666
1173,-480.0,-125.86666666666666,213.33333333333334
1174,-480.0,-125.86666666666666,206.93333333333334
1175,-484.26666666666665,-121.6,209.06666666666666
1176,-477.8666666666667,-115.2,211.2
1177,-486.4,-113.06666666666666,219.73333333333332
1178,-480.0,-115.2,200.53333333333333
1179,-482.1333333333333,-108.8,202.66666666666666
1180,-482.1333333333333,-104.53333333333333,213.33333333333334
1181,-480.0,-113.06666666666666,202.66666666666666
1182,-477.8666666666667,-110.93333333333334,209.06666666666666
1183,-486.4,-117.33333333333333,196.26666666666665
1184,-482.1333333333333,-113.06666666666666,198.4
1185,-480.0,-117.33333333333333,204.8
1186,-480.0,-121.6,209.06666666666666
1187,-480.0,-117.33333333333333,206.93333333333334
1188,-484.26666666666665,-115.2,196.26666666666665
1189,-482.1333333333333,-110.93333333333334,211.2
1190,-482.1333333333333,-113.06666666666666,198.4
1191,-480.0,-110.93333333333334,200.53333333333333
1192,-480.0,-108.8,202.66666666666666
1193,-480.0,-108.8,200.53333333333333
1194,-486.4,-110.93333333333334,204.8
1195,-488.5333333333333,-102.4,211.2
1196,-486.4,-113.06666666666666,209.06666666666666
1197,-482.1333333333333,-113.06666666666666,211.2
1198,-490.6666666666667,-115.2,209.06666666666666
1199,-488.5333333333333,-108.8,200.53333333333333
1200,-490.6666666666667,-110.93333333333334,211.2
1201,-482.1333333333333,-113.06666666666666,200.53333333333333
1202,-484.26666666666665,-110.93333333333334,204.8
1203,-482.1333333333333,-113.06666666666666,204.8
1204,-488.5333333333333,-110.93333333333334,206.93333333333334
1205,-482.1333333333333,-110.93333333333334,198.4
1206,-482.1333333333333,-121.6,206.93333333333334
1207,-484.26666666666665,-117.33333333333333,204.8
1208,-486.4,-110.93333333333334,196.26666666666665
1209,-482.1333333333333,-113.06666666666666,196.26666666666665
1210,-480.0,-119.46666666666667,194.13333333333333
1211,-490.6666666666667,-113.06666666666666,200.53333333333333
1212,-486.4,-113.06666666666666,202.66666666666666
1213,-482.1333333333333,-119.46666666666667,194.13333333333333
1214,-484.26666666666665,-117.33333333333333,202.66666666666666
1215,-482.1333333333333,-115.2,196.26666666666665
1216,-477.8666666666667,-121.6,200.53333333333333
1217,-486.4,-115.2,200.53333333333333
1218,-480.0,-123.73333333333333,202.66666666666666
1219,-480.0,-121.6,211.2
1220,-484.26666666666665,-117.33333333333333,198.4
1221,-482.1333333333333,-117.33333333333333,211.2
1222,-486.4,-123.73333333333333,202.66666666666666
1223,-490.6666666666667,-119.46666666666667,194.13333333333333
1224,-484.26666666666665,-115.2,202.66666666666666
1225,-484.26666666666665,-119.46666666666667,196.26666666666665
1226,-486.4,-115.2,198.4
1227,-488.5333333333333,-117.33333333333333,196.26666666666665
1228,-484.26666666666665,-115.2,196.26666666666665
1229,-490.6666666666667,-110.93333333333334,202.66666666666666
1230,-486.4,-106.66666666666667,198.4
1231,-484.26666666666665,-106.66666666666667,202.66666666666666
1232,-490.6666666666667,-110.93333333333334,206.93333333333334
1233,-482.1333333333333,-117.33333333333333,192.0
1234,-484.26666666666665,-110.93333333333334,206.93333333333334
1235,-488.5333333333333,-121.6,204.8
1236,-486.4,-121.6,206.93333333333334
1237,-486.4,-121.6,209.06666666666666
1238,-488.5333333333333,-119.46666666666667,204.8
1239,-484.26666666666665,-123.73333333333333,213.33333333333334
1240,-494.93333333333334,-128.0,204.8
1241,-490.6666666666667,-128.0,209.06666666666666
1242,-492.8,-121.6,200.53333333333333
1243,-492.8,-115.2,202.66666666666666
1244,-484.26666666666665,-115.2,194.13333333333333
1245,-488.5333333333333,-106.66666666666667,194.13333333333333
1246,-484.26666666666665,-104.53333333333333,181.33333333333334
1247,-480.0,-106.66666666666667,194.13333333333333
1248,-480.0,-96.0,187.73333333333332
1249,-473.59999999999997,-98.13333333333333,198.4
1250,-480.0,-98.13333333333333,198.4
1251,-482.1333333333333,-96.0,196.26666666666665
1252,-480.0,-108.8,219.73333333333332
1253,-482.1333333333333,-123.73333333333333,241.06666666666666
1254,-499.2,-132.26666666666665,238.93333333333334
1255,-503.46666666666664,-147.2,249.6
1256,-512.0,-166.4,258.1333333333333
1257,-524.8,-179.2,260.26666666666665
1258,-526.9333333333333,-183.46666666666667,275.2
1259,-535.4666666666667,-192.0,266.6666666666667
1260,-535.4666666666667,-189.86666666666667,251.73333333333332
1261,-539.7333333333333,-166.4,230.4
1262,-529.0666666666666,-136.53333333333333,194.13333333333333
1263,-529.0666666666666,-113.06666666666666,168.53333333333333
1264,-520.5333333333333,-83.2,153.6
1265,-503.46666666666664,-59.733333333333334,145.06666666666666
1266,-492.8,-36.266666666666666,125.86666666666666
1267,-473.59999999999997,-27.733333333333334,119.46666666666667
1268,-469.3333333333333,-23.466666666666665,110.93333333333334
1269,-462.93333333333334,-21.333333333333332,119.46666666666667
1270,-458.6666666666667,-29.866666666666667,108.8
1271,-452.26666666666665,-49.06666666666666,121.6
1272,-454.4,-64.0,134.4
1273,-452.26666666666665,-76.8,138.66666666666666
1274,-450.1333333333333,-81.06666666666666,153.6
1275,-454.4,-83.2,155.73333333333332
1276,-456.5333333333333,-87.46666666666667,166.4
1277,-465.06666666666666,-96.0,183.46666666666667
1278,-492.8,-83.2,189.86666666666667
1279,-494.93333333333334,-81.06666666666666,236.79999999999998
1280,-494.93333333333334,-70.4,200.53333333333333
1281,-497.06666666666666,-72.53333333333333,200.53333333333333
1282,-471.46666666666664,-57.6,232.53333333333333
1283,-529.0666666666666,-44.8,194.13333333333333
1284,-503.46666666666664,-36.266666666666666,209.06666666666666
1285,-524.8,-36.266666666666666,221.86666666666667
1286,-497.06666666666666,-6.4,206.93333333333334
1287,-492.8,14.933333333333334,206.93333333333334
1288,-494.93333333333334,29.866666666666667,215.46666666666667
1289,-486.4,38.4,230.4
1290,-490.6666666666667,40.53333333333333,219.73333333333332
1291,-486.4,32.0,221.86666666666667
1292,-482.1333333333333,29.866666666666667,211.2
1293,-471.46666666666664,19.2,209.06666666666666
1294,-465.06666666666666,12.8,224.0
1295,-473.59999999999997,-4.266666666666667,215.46666666666667
1296,-456.5333333333333,-8.533333333333333,219.73333333333332
1297,-467.2,-25.6,209.06666666666666
1298,-456.5333333333333,-29.866666666666667,204.8
1299,-471.46666666666664,-34.13333333333333,200.53333333333333
1300,-492.8,-21.333333333333332,198.4
1301,-488.5333333333333,-21.333333333333332,211.2
1302,-503.46666666666664,-8.533333333333333,215.46666666666667
1303,-516.2666666666667,-2.1333333333333333,226.13333333333333
1304,-516.2666666666667,12.8,245.33333333333334
1305,-509.8666666666667,23.466666666666665,243.2
1306,-509.8666666666667,42.666666666666664,238.93333333333334
1307,-512.0,57.6,236.79999999999998
1308,-514.1333333333333,72.53333333333333,230.4
1309,-512.0,81.06666666666666,232.53333333333333
1310,-516.2666666666667,78.93333333333334,228.26666666666665
1311,-514.1333333333333,72.53333333333333,236.79999999999998
1312,-520.5333333333333,72.53333333333333,238.93333333333334
1313,-507.73333333333335,68.26666666666667,226.13333333333333
1314,-501.3333333333333,66.13333333333333,215.46666666666667
1315,-499.2,59.733333333333334,198.4
1316,-494.93333333333334,55.46666666666667,189.86666666666667
1317,-477.8666666666667,42.666666666666664,179.2
1318,-486.4,42.666666666666664,177.06666666666666
1319,-492.8,36.266666666666666,164.26666666666665
1320,-494.93333333333334,17.066666666666666,153.6
1321,-497.06666666666666,21.333333333333332,125.86666666666666
1322,-488.5333333333333,4.266666666666667,121.6
1323,-499.2,-6.4,123.73333333333333
1324,-503.46666666666664,-14.933333333333334,125.86666666666666
1325,-501.3333333333333,-27.733333333333334,115.2
1326,-509.8666666666667,-36.266666666666666,115.2
1327,-512.0,-42.666666666666664,98.13333333333333
1328,-518.4,-51.2,91.73333333333333
1329,-518.4,-55.46666666666667,89.6
1330,-524.8,-42.666666666666664,91.73333333333333
1331,-520.5333333333333,-34.13333333333333,100.26666666666667
1332,-537.6,-29.866666666666667,117.33333333333333
1333,-548.2666666666667,-12.8,128.0
1334,-548.2666666666667,0.0,142.93333333333334
1335,-552.5333333333333,14.933333333333334,140.8
1336,-548.2666666666667,38.4,155.73333333333332
1337,-548.2666666666667,51.2,157.86666666666667
1338,-556.8,70.4,164.26666666666665
1339,-556.8,72.53333333333333,168.53333333333333
1340,-561.0666666666666,78.93333333333334,164.26666666666665
1341,-569.6,55.46666666666667,174.93333333333334
1342,-565.3333333333334,25.6,181.33333333333334
1343,-567.4666666666667,0.0,181.33333333333334
1344,-573.8666666666667,-36.266666666666666,164.26666666666665
1345,-576.0,-61.86666666666667,162.13333333333333
1346,-586.6666666666666,-102.4,149.33333333333334
1347,-595.2,-136.53333333333333,151.46666666666667
1348,-588.8,-155.73333333333332,142.93333333333334
1349,-595.2,-181.33333333333334,142.93333333333334
1350,-586.6666666666666,-189.86666666666667,132.26666666666665
1351,-578.1333333333333,-183.46666666666667,130.13333333333333
1352,-569.6,-170.66666666666666,125.86666666666666
1353,-563.2,-157.86666666666667,119.46666666666667
1354,-544.0,-138.66666666666666,98.13333333333333
1355,-529.0666666666666,-125.86666666666666,87.46666666666667
1356,-531.2,-113.06666666666666,76.8
1357,-537.6,-102.4,46.93333333333333
1358,-535.4666666666667,-117.33333333333333,27.733333333333334
1359,-544.0,-140.8,19.2
1360,-531.2,-172.8,17.066666666666666
1361,-544.0,-198.4,17.066666666666666
1362,-544.0,-232.53333333333333,10.666666666666666
1363,-550.4,-270.93333333333334,8.533333333333333
1364,-541.8666666666667,-281.6,-4.266666666666667
1365,-535.4666666666667,-288.0,-40.53333333333333
1366,-520.5333333333333,-285.8666666666667,-51.2
1367,-522.6666666666666,-277.3333333333333,-66.13333333333333
1368,-509.8666666666667,-279.46666666666664,-57.6
1369,-514.1333333333333,-264.5333333333333,-46.93333333333333
1370,-509.8666666666667,-243.2,-53.333333333333336
1371,-505.59999999999997,-213.33333333333334,-76.8
1372,-503.46666666666664,-168.53333333333333,-85.33333333333333
1373,-494.93333333333334,-130.13333333333333,-98.13333333333333
1374,-505.59999999999997,-83.2,-106.66666666666667
1375,-505.59999999999997,-34.13333333333333,-132.26666666666665
1376,-501.3333333333333,-8.533333333333333,-136.53333333333333
1377,-503.46666666666664,0.0,-134.4
1378,-507.73333333333335,10.666666666666666,-134.4
1379,-514.1333333333333,6.4,-162.13333333333333
1380,-516.2666666666667,2.1333333333333333,-172.8
1381,-524.8,-6.4,-200.53333333333333
1382,-520.5333333333333,-29.866666666666667,-213.33333333333334
1383,-529.0666666666666,-40.53333333333333,-238.93333333333334
1384,-520.5333333333333,-51.2,-238.93333333333334
1385,-529.0666666666666,-66.13333333333333,-230.4
1386,-539.7333333333333,-59.733333333333334,-215.46666666666667
1387,-537.6,-61.86666666666667,-219.73333333333332
1388,-531.2,-59.733333333333334,-226.13333333333333
1389,-526.9333333333333,-59.733333333333334,-217.6
1390,-533.3333333333334,-40.53333333333333,-238.93333333333334
1391,-535.4666666666667,-19.2,-243.2
1392,-533.3333333333334,-6.4,-249.6
1393,-533.3333333333334,8.533333333333333,-266.6666666666667
1394,-531.2,10.666666666666666,-270.93333333333334
1395,-512.0,4.266666666666667,-285.8666666666667
1396,-503.46666666666664,19.2,-281.6
1397,-492.8,8.533333333333333,-313.6
1398,-477.8666666666667,-8.533333333333333,-309.3333333333333
1399,-473.59999999999997,-34.13333333333333,-322.1333333333333
1400,-469.3333333333333,-44.8,-330.6666666666667
1401,-465.06666666666666,-57.6,-334.93333333333334
1402,-454.4,-64.0,-345.6
1403,-448.0,-64.0,-352.0
1404,-448.0,-64.0,-349.8666666666667
1405,-448.0,-66.13333333333333,-343.46666666666664
1406,-460.8,-53.333333333333336,-343.46666666666664
1407,-445.8666666666667,-74.66666666666667,-339.2
1408,-439.46666666666664,-83.2,-339.2
1409,-439.46666666666664,-85.33333333333333,-332.8
1410,-435.2,-96.0,-326.4
1411,-430.93333333333334,-96.0,-339.2
1412,-435.2,-102.4,-341.3333333333333
1413,-439.46666666666664,-98.13333333333333,-339.2
1414,-441.59999999999997,-96.0,-320.0
1415,-452.26666666666665,-104.53333333333333,-320.0
1416,-460.8,-98.13333333333333,-317.8666666666667
1417,-460.8,-96.0,-317.8666666666667
1418,-467.2,-74.66666666666667,-305.06666666666666
1419,-471.46666666666664,-72.53333333333333,-294.4
1420,-471.46666666666664,-61.86666666666667,-294.4
1421,-469.3333333333333,-61.86666666666667,-307.2
1422,-460.8,-61.86666666666667,-300.8
1423,-454.4,-64.0,-307.2
1424,-445.8666666666667,-78.93333333333334,-296.5333333333333
1425,-439.46666666666664,-85.33333333333333,-313.6
1426,-435.2,-100.26666666666667,-311.46666666666664
1427,-430.93333333333334,-113.06666666666666,-311.46666666666664
1428,-424.5333333333333,-123.73333333333333,-315.73333333333335
1429,-416.0,-138.66666666666666,-317.8666666666667
1430,-413.8666666666667,-147.2,-311.46666666666664
1431,-405.3333333333333,-160.0,-322.1333333333333
1432,-394.6666666666667,-170.66666666666666,-320.0
1433,-392.5333333333333,-170.66666666666666,-334.93333333333334
1434,-398.93333333333334,-189.86666666666667,-343.46666666666664
1435,-403.2,-192.0,-345.6
1436,-398.93333333333334,-192.0,-364.8
1437,-413.8666666666667,-202.66666666666666,-366.93333333333334
1438,-416.0,-198.4,-373.3333333333333
1439,-413.8666666666667,-224.0,-386.1333333333333
1440,-420.26666666666665,-226.13333333333333,-390.4
1441,-413.8666666666667,-247.46666666666667,-398.93333333333334
1442,-420.26666666666665,-260.26666666666665,-405.3333333333333
1443,-411.73333333333335,-281.6,-407.46666666666664
1444,-398.93333333333334,-290.1333333333333,-422.4
1445,-392.5333333333333,-302.93333333333334,-413.8666666666667
1446,-379.73333333333335,-322.1333333333333,-409.6
1447,-369.06666666666666,-337.06666666666666,-405.3333333333333
1448,-358.4,-362.6666666666667,-396.8
1449,-339.2,-388.26666666666665,-386.1333333333333
1450,-311.46666666666664,-409.6,-371.2
1451,-298.6666666666667,-422.4,-356.26666666666665
1452,-275.2,-443.73333333333335,-334.93333333333334
1453,-268.8,-450.1333333333333,-324.26666666666665
1454,-256.0,-458.6666666666667,-302.93333333333334
1455,-241.06666666666666,-454.4,-298.6666666666667
1456,-219.73333333333332,-450.1333333333333,-281.6
1457,-215.46666666666667,-437.3333333333333,-281.6
1458,-202.66666666666666,-428.8,-273.06666666666666
1459,-196.26666666666665,-416.0,-262.4
1460,-200.53333333333333,-403.2,-253.86666666666667
1461,-200.53333333333333,-388.26666666666665,-236.79999999999998
1462,-192.0,-384.0,-232.53333333333333
1463,-194.13333333333333,-384.0,-224.0
1464,-187.73333333333332,-390.4,-209.06666666666666
1465,-185.6,-388.26666666666665,-215.46666666666667
1466,-183.46666666666667,-386.1333333333333,-209.06666666666666
1467,-183.46666666666667,-396.8,-211.2
1468,-187.73333333333332,-394.6666666666667,-202.66666666666666
1469,-187.73333333333332,-394.6666666666667,-211.2
1470,-187.73333333333332,-394.6666666666667,-213.33333333333334
1471,-185.6,-392.5333333333333,-230.4
1472,-179.2,-390.4,-236.79999999999998
1473,-177.06666666666666,-381.8666666666667,-247.46666666666667
1474,-174.93333333333334,-379.73333333333335,-260.26666666666665
1475,-162.13333333333333,-375.46666666666664,-277.3333333333333
1476,-153.6,-377.6,-298.6666666666667
1477,-134.4,-390.4,-305.06666666666666
1478,-123.73333333333333,-403.2,-317.8666666666667
1479,-121.6,-411.73333333333335,-322.1333333333333
1480,-106.66666666666667,-435.2,-315.73333333333335
1481,-96.0,-456.5333333333333,-322.1333333333333
1482,-87.46666666666667,-475.73333333333335,-322.1333333333333
1483,-68.26666666666667,-488.5333333333333,-313.6
1484,-55.46666666666667,-497.06666666666666,-322.1333333333333
1485,-36.266666666666666,-516.2666666666667,-322.1333333333333
1486,-27.733333333333334,-529.0666666666666,-324.26666666666665
1487,-25.6,-546.1333333333333,-317.8666666666667
1488,-21.333333333333332,-552.5333333333333,-317.8666666666667
1489,-23.466666666666665,-558.9333333333333,-326.4
1490,-14.933333333333334,-561.0666666666666,-330.6666666666667
1491,-25.6,-561.0666666666666,-343.46666666666664
1492,-19.2,-563.2,-347.73333333333335
1493,-23.466666666666665,-556.8,-358.4
1494,-21.333333333333332,-544.0,-369.06666666666666
1495,-23.466666666666665,-531.2,-375.46666666666664
1496,-19.2,-516.2666666666667,-386.1333333333333
1497,-8.533333333333333,-497.06666666666666,-386.1333333333333
1498,-4.266666666666667,-477.8666666666667,-386.1333333333333
1499,-4.266666666666667,-465.06666666666666,-394.6666666666667
1500,-4.266666666666667,-456.5333333333333,-388.26666666666665
1501,4.266666666666667,-452.26666666666665,-379.73333333333335
1502,4.266666666666667,-445.8666666666667,-373.3333333333333
1503,-2.1333333333333333,-439.46666666666664,-349.8666666666667
1504,6.4,-435.2,-352.0
1505,4.266666666666667,-441.59999999999997,-341.3333333333333
1506,-4.266666666666667,-435.2,-330.6666666666667
1507,-4.266666666666667,-439.46666666666664,-330.6666666666667
1508,-10.666666666666666,-430.93333333333334,-326.4
1509,-12.8,-435.2,-334.93333333333334
1510,-21.333333333333332,-430.93333333333334,-334.93333333333334
1511,-17.066666666666666,-426.6666666666667,-349.8666666666667
1512,-8.533333333333333,-420.26666666666665,-347.73333333333335
1513,-6.4,-420.26666666666665,-349.8666666666667
1514,2.1333333333333333,-422.4,-369.06666666666666
1515,6.4,-424.5333333333333,-377.6
1516,10.666666666666666,-424.5333333333333,-384.0
1517,21.333333333333332,-433.06666666666666,-384.0
1518,36.266666666666666,-445.8666666666667,-394.6666666666667
1519,55.46666666666667,-458.6666666666667,-392.5333333333333
1520,55.46666666666667,-456.5333333333333,-390.4
1521,66.13333333333333,-460.8,-386.1333333333333
1522,78.93333333333334,-465.06666666666666,-381.8666666666667
1523,81.06666666666666,-471.46666666666664,-364.8
1524,76.8,-475.73333333333335,-356.26666666666665
1525,64.0,-477.8666666666667,-332.8
1526,42.666666666666664,-520.5333333333333,-290.1333333333333
1527,40.53333333333333,-503.46666666666664,-285.8666666666667
1528,29.866666666666667,-512.0,-268.8
1529,14.933333333333334,-518.4,-258.1333333333333
1530,0.0,-526.9333333333333,-249.6
1531,-8.533333333333333,-526.9333333333333,-238.93333333333334
1532,-19.2,-524.8,-228.26666666666665
1533,-23.466666666666665,-531.2,-219.73333333333332
1534,-42.666666666666664,-522.6666666666666,-226.13333333333333
1535,-44.8,-516.2666666666667,-217.6
1536,-57.6,-503.46666666666664,-215.46666666666667
1537,-61.86666666666667,-503.46666666666664,-217.6
1538,-55.46666666666667,-492.8,-221.86666666666667
1539,-55.46666666666667,-484.26666666666665,-215.46666666666667
1540,-53.333333333333336,-477.8666666666667,-202.66666666666666
1541,-51.2,-475.73333333333335,-206.93333333333334
1542,-44.8,-473.59999999999997,-209.06666666666666
1543,-27.733333333333334,-473.59999999999997,-204.8
1544,-21.333333333333332,-471.46666666666664,-194.13333333333333
1545,-14.933333333333334,-473.59999999999997,-189.86666666666667
1546,4.266666666666667,-486.4,-183.46666666666667
1547,10.666666666666666,-492.8,-185.6
1548,23.466666666666665,-494.93333333333334,-174.93333333333334
1549,32.0,-501.3333333333333,-183.46666666666667
1550,44.8,-509.8666666666667,-172.8
1551,42.666666666666664,-514.1333333333333,-172.8
1552,40.53333333333333,-526.9333333333333,-185.6
1553,34.13333333333333,-522.6666666666666,-181.33333333333334
1554,23.466666666666665,-522.6666666666666,-196.26666666666665
1555,14.933333333333334,-522.6666666666666,-200.53333333333333
1556,12.8,-529.0666666666666,-211.2
1557,2.1333333333333333,-526.9333333333333,-209.06666666666666
1558,-8.533333333333333,-531.2,-209.06666666666666
1559,-6.4,-526.9333333333333,-206.93333333333334
1560,-23.466666666666665,-526.9333333333333,-200.53333333333333
1561,-23.466666666666665,-526.9333333333333,-206.93333333333334
1562,-29.866666666666667,-516.2666666666667,-200.53333333333333
1563,-36.266666666666666,-516.2666666666667,-198.4
1564,-51.2,-505.59999999999997,-209.06666666666666
1565,-57.6,-514.1333333333333,-200.53333333333333
1566,-57.6,-507.73333333333335,-194.13333333333333
1567,-57.6,-514.1333333333333,-194.13333333333333
1568,-57.6,-514.1333333333333,-198.4
1569,-59.733333333333334,-516.2666666666667,-189.86666666666667
1570,-59.733333333333334,-514.1333333333333,-187.73333333333332
1571,-46.93333333333333,-514.1333333333333,-183.46666666666667
1572,-49.06666666666666,-512.0,-192.0
1573,-42.666666666666664,-505.59999999999997,-183.46666666666667
1574,-40.53333333333333,-505.59999999999997,-192.0
1575,-36.266666666666666,-497.06666666666666,-194.13333333333333
1576,-44.8,-490.6666666666667,-194.13333333333333
1577,-49.06666666666666,-490.6666666666667,-202.66666666666666
1578,-46.93333333333333,-488.5333333333333,-202.66666666666666
1579,-42.666666666666664,-482.1333333333333,-211.2
1580,-44.8,-484.26666666666665,-221.86666666666667
1581,-38.4,-484.26666666666665,-198.4
1582,-40.53333333333333,-484.26666666666665,-211.2
1583,-36.266666666666666,-490.6666666666667,-202.66666666666666
1584,-34.13333333333333,-488.5333333333333,-202.66666666666666
1585,-34.13333333333333,-488.5333333333333,-192.0
1586,-36.266666666666666,-494.93333333333334,-181.33333333333334
1587,-29.866666666666667,-497.06666666666666,-177.06666666666666
1588,-25.6,-503.46666666666664,-179.2
1589,-14.933333333333334,-507.73333333333335,-172.8
1590,-14.933333333333334,-512.0,-168.53333333333333
1591,-10.666666666666666,-520.5333333333333,-177.06666666666666
1592,-4.266666666666667,-526.9333333333333,-179.2
1593,4.266666666666667,-524.8,-183.46666666666667
1594,12.8,-533.3333333333334,-187.73333333333332
1595,10.666666666666666,-531.2,-192.0
1596,12.8,-531.2,-202.66666666666666
1597,10.666666666666666,-531.2,-209.06666666666666
1598,4.266666666666667,-524.8,-209.06666666666666
1599,2.1333333333333333,-522.6666666666666,-209.06666666666666
1600,-10.666666666666666,-514.1333333333333,-211.2
1601,-6.4,-507.73333333333335,-215.46666666666667
1602,-4.266666666666667,-514.1333333333333,-217.6
1603,-12.8,-514.1333333333333,-226.13333333333333
1604,-12.8,-518.4,-209.06666666666666
1605,-8.533333333333333,-520.5333333333333,-213.33333333333334
1606,-8.533333333333333,-516.2666666666667,-213.33333333333334
1607,-12.8,-524.8,-219.73333333333332
1608,-12.8,-524.8,-211.2
1609,-10.666666666666666,-531.2,-213.33333333333334
1610,-12.8,-535.4666666666667,-221.86666666666667
1611,-21.333333333333332,-535.4666666666667,-219.73333333333332
1612,-21.333333333333332,-541.8666666666667,-219.73333333333332
1613,-21.333333333333332,-533.3333333333334,-221.86666666666667
1614,-25.6,-526.9333333333333,-215.46666666666667
1615,-29.866666666666667,-522.6666666666666,-221.86666666666667
1616,-25.6,-520.5333333333333,-224.0
1617,-29.866666666666667,-516.2666666666667,-224.0
1618,-32.0,-516.2666666666667,-228.26666666666665
1619,-40.53333333333333,-505.59999999999997,-215.46666666666667
1620,-32.0,-514.1333333333333,-209.06666666666666
1621,-46.93333333333333,-503.46666666666664,-215.46666666666667
1622,-49.06666666666666,-503.46666666666664,-204.8
1623,-49.06666666666666,-505.59999999999997,-206.93333333333334
1624,-49.06666666666666,-505.59999999999997,-200.53333333333333
1625,-53.333333333333336,-505.59999999999997,-196.26666666666665
1626,-40.53333333333333,-501.3333333333333,-202.66666666666666
1627,-40.53333333333333,-499.2,-202.66666666666666
1628,-25.6,-499.2,-206.93333333333334
1629,-21.333333333333332,-507.73333333333335,-211.2
1630,-19.2,-505.59999999999997,-206.93333333333334
1631,-10.666666666666666,-514.1333333333333,-211.2
1632,-2.1333333333333333,-509.8666666666667,-211.2
1633,2.1333333333333333,-509.8666666666667,-213.33333333333334
1634,6.4,-522.6666666666666,-215.46666666666667
1635,-4.266666666666667,-509.8666666666667,-215.46666666666667
1636,4.266666666666667,-507.73333333333335,-211.2
1637,2.1333333333333333,-505.59999999999997,-219.73333333333332
1638,4.266666666666667,-509.8666666666667,-224.0
1639,6.4,-507.73333333333335,-224.0
1640,8.533333333333333,-507.73333333333335,-224.0
1641,6.4,-505.59999999999997,-219.73333333333332
1642,10.666666666666666,-514.1333333333333,-213.33333333333334
1643,4.266666666666667,-520.5333333333333,-219.73333333333332
1644,4.266666666666667,-512.0,-206.93333333333334
1645,6.4,-518.4,-206.93333333333334
1646,8.533333333333333,-520.5333333333333,-200.53333333333333
1647,4.266666666666667,-518.4,-211.2
1648,12.8,-526.9333333333333,-204.8
1649,12.8,-529.0666666666666,-192.0
1650,12.8,-529.0666666666666,-196.26666666666665
1651,14.933333333333334,-529.0666666666666,-198.4
1652,10.666666666666666,-535.4666666666667,-189.86666666666667
1653,8.533333333333333,-526.9333333333333,-185.6
1654,8.533333333333333,-533.3333333333334,-181.33333333333334
1655,6.4,-537.6,-174.93333333333334
1656,-2.1333333333333333,-535.4666666666667,-168.53333333333333
1657,0.0,-537.6,-172.8
1658,-8.533333333333333,-533.3333333333334,-166.4
1659,-10.666666666666666,-522.6666666666666,-168.53333333333333
1660,-8.533333333333333,-529.0666666666666,-157.86666666666667
1661,-17.066666666666666,-520.5333333333333,-155.73333333333332
1662,-19.2,-522.6666666666666,-157.86666666666667
1663,-23.466666666666665,-516.2666666666667,-149.33333333333334
1664,-25.6,-516.2666666666667,-149.33333333333334
1665,-25.6,-516.2666666666667,-149.33333333333334
1666,-25.6,-514.1333333333333,-138.66666666666666
1667,-27.733333333333334,-507.73333333333335,-128.0
1668,-27.733333333333334,-509.8666666666667,-125.86666666666666
1669,-25.6,-518.4,-123.73333333333333
1670,-32.0,-512.0,-123.73333333333333
1671,-34.13333333333333,-512.0,-119.46666666666667
1672,-25.6,-518.4,-108.8
1673,-34.13333333333333,-516.2666666666667,-113.06666666666666
1674,-25.6,-522.6666666666666,-117.33333333333333
1675,-23.466666666666665,-526.9333333333333,-115.2
1676,-14.933333333333334,-531.2,-115.2
1677,-17.066666666666666,-533.3333333333334,-115.2
1678,-10.666666666666666,-533.3333333333334,-117.33333333333333
1679,-10.666666666666666,-541.8666666666667,-123.73333333333333
1680,-10.666666666666666,-544.0,-121.6
1681,-4.266666666666667,-548.2666666666667,-123.73333333333333
1682,-6.4,-552.5333333333333,-125.86666666666666
1683,-8.533333333333333,-550.4,-130.13333333333333
1684,-14.933333333333334,-548.2666666666667,-136.53333333333333
1685,-14.933333333333334,-550.4,-138.66666666666666
1686,-10.666666666666666,-546.1333333333333,-145.06666666666666
1687,-17.066666666666666,-539.7333333333333,-138.66666666666666
1688,-23.466666666666665,-533.3333333333334,-149.33333333333334
1689,-21.333333333333332,-535.4666666666667,-142.93333333333334
1690,-21.333333333333332,-526.9333333333333,-147.2
1691,-25.6,-531.2,-140.8
1692,-23.466666666666665,-535.4666666666667,-138.66666666666666
1693,-25.6,-535.4666666666667,-136.53333333333333
1694,-23.466666666666665,-529.0666666666666,-134.4
1695,-17.066666666666666,-531.2,-130.13333333333333
1696,-25.6,-522.6666666666666,-128.0
1697,-17.066666666666666,-518.4,-128.0
1698,-19.2,-522.6666666666666,-136.53333333333333
1699,-12.8,-522.6666666666666,-130.13333333333333
1700,-19.2,-514.1333333333333,-145.06666666666666
1701,-14.933333333333334,-518.4,-140.8
1702,-10.666666666666666,-518.4,-151.46666666666667
1703,-10.666666666666666,-516.2666666666667,-153.6
1704,-17.066666666666666,-516.2666666666667,-157.86666666666667
1705,-14.933333333333334,-526.9333333333333,-157.86666666666667
1706,-14.933333333333334,-533.3333333333334,-166.4
1707,-17.066666666666666,-531.2,-162.13333333333333
1708,-21.333333333333332,-531.2,-168.53333333333333
1709,-14.933333333333334,-541.8666666666667,-172.8
1710,-14.933333333333334,-550.4,-168.53333333333333
1711,-19.2,-546.1333333333333,-162.13333333333333
1712,-12.8,-548.2666666666667,-162.13333333333333
1713,-12.8,-550.4,-153.6
1714,-19.2,-548.2666666666667,-160.0
1715,-14.933333333333334,-548.2666666666667,-153.6
1716,-17.066666666666666,-550.4,-155.73333333333332
1717,-14.933333333333334,-544.0,-155.73333333333332
1718,-6.4,-546.1333333333333,-153.6
1719,-6.4,-544.0,-147.2
1720,-12.8,-535.4666666666667,-145.06666666666666
1721,-10.666666666666666,-531.2,-160.0
1722,-14.933333333333334,-533.3333333333334,-147.2
1723,-8.533333333333333,-524.8,-147.2
1724,-23.466666666666665,-524.8,-155.73333333333332
1725,-23.466666666666665,-520.5333333333333,-149.33333333333334
1726,-25.6,-524.8,-151.46666666666667
1727,-25.6,-529.0666666666666,-147.2
1728,-32.0,-524.8,-145.06666666666666
1729,-29.866666666666667,-520.5333333333333,-134.4
1730,-34.13333333333333,-522.6666666666666,-134.4
1731,-29.866666666666667,-531.2,-136.53333333333333
1732,-32.0,-522.6666666666666,-134.4
1733,-25.6,-529.0666666666666,-123.73333333333333
1734,-25.6,-524.8,-128.0
1735,-29.866666666666667,-526.9333333333333,-130.13333333333333
1736,-19.2,-516.2666666666667,-125.86666666666666
1737,-14.933333333333334,-514.1333333333333,-130.13333333333333
1738,-10.666666666666666,-512.0,-130.13333333333333
1739,-6.4,-509.8666666666667,-136.53333333333333
1740,2.1333333333333333,-512.0,-132.26666666666665
1741,4.266666666666667,-503.46666666666664,-130.13333333333333
1742,17.066666666666666,-516.2666666666667,-130.13333333333333
1743,19.2,-520.5333333333333,-136.53333333333333
1744,32.0,-522.6666666666666,-130.13333333333333
1745,27.733333333333334,-529.0666666666666,-132.26666666666665
1746,27.733333333333334,-539.7333333333333,-136.53333333333333
1747,27.733333333333334,-544.0,-134.4
1748,25.6,-541.8666666666667,-130.13333333333333
1749,19.2,-544.0,-121.6
1750,19.2,-548.2666666666667,-123.73333333333333
1751,12.8,-541.8666666666667,-125.86666666666666
1752,8.533333333333333,-548.2666666666667,-121.6
1753,2.1333333333333333,-544.0,-132.26666666666665
1754,-2.1333333333333333,-544.0,-128.0
1755,-17.066666666666666,-544.0,-130.13333333333333
1756,-17.066666666666666,-544.0,-130.13333333333333
1757,-25.6,-539.7333333333333,-130.13333333333333
1758,-27.733333333333334,-541.8666666666667,-132.26666666666665
1759,-27.733333333333334,-537.6,-125.86666666666666
1760,-32.0,-535.4666666666667,-130.13333333333333
1761,-25.6,-539.7333333333333,-132.26666666666665
1762,-29.866666666666667,-541.8666666666667,-130.13333333333333
1763,-25.6,-541.8666666666667,-128.0
1764,-25.6,-535.4666666666667,-125.86666666666666
1765,-21.333333333333332,-535.4666666666667,-132.26666666666665
1766,-23.466666666666665,-529.0666666666666,-125.86666666666666
1767,-14.933333333333334,-529.0666666666666,-123.73333333333333
1768,-17.066666666666666,-533.3333333333334,-123.73333333333333
1769,-12.8,-526.9333333333333,-121.6
1770,-10.666666666666666,-533.3333333333334,-121.6
1771,-14.933333333333334,-522.6666666666666,-121.6
1772,-2.1333333333333333,-526.9333333333333,-121.6
1773,-8.533333333333333,-524.8,-119.46666666666667
1774,-4.266666666666667,-520.5333333333333,-125.86666666666666
1775,4.266666666666667,-520.5333333333333,-128.0
1776,2.1333333333333333,-524.8,-134.4
1777,8.533333333333333,-524.8,-125.86666666666666
1778,6.4,-524.8,-132.26666666666665
1779,-2.1333333333333333,-526.9333333333333,-130.13333333333333
1780,0.0,-533.3333333333334,-132.26666666666665
1781,6.4,-535.4666666666667,-134.4
1782,6.4,-541.8666666666667,-145.06666666666666
1783,8.533333333333333,-535.4666666666667,-136.53333333333333
1784,4.266666666666667,-541.8666666666667,-132.26666666666665
1785,2.1333333333333333,-541.8666666666667,-145.06666666666666
1786,8.533333333333333,-548.2666666666667,-132.26666666666665
1787,0.0,-537.6,-132.26666666666665
1788,-2.1333333333333333,-544.0,-138.66666666666666
1789,-10.666666666666666,-541.8666666666667,-138.66666666666666
1790,-8.533333333333333,-541.8666666666667,-134.4
1791,-8.533333333333333,-546.1333333333333,-140.8
1792,-6.4,-548.2666666666667,-130.13333333333333
1793,-12.8,-539.7333333333333,-132.26666666666665
1794,-12.8,-544.0,-134.4
1795,-14.933333333333334,-533.3333333333334,-119.46666666666667
1796,-14.933333333333334,-535.4666666666667,-136.53333333333333
1797,-21.333333333333332,-535.4666666666667,-130.13333333333333
1798,-21.333333333333332,-529.0666666666666,-125.86666666666666
1799,-21.333333333333332,-533.3333333333334,-138.66666666666666
1800,-21.333333333333332,-529.0666666666666,-128.0
1801,-25.6,-526.9333333333333,-125.86666666666666
1802,-21.333333333333332,-531.2,-130.13333333333333
1803,-23.466666666666665,-531.2,-121.6
1804,-21.333333333333332,-529.0666666666666,-128.0
1805,-23.466666666666665,-526.9333333333333,-123.73333333333333
1806,-19.2,-526.9333333333333,-123.73333333333333
1807,-6.4,-533.3333333333334,-121.6
1808,-14.933333333333334,-531.2,-130.13333333333333
1809,-8.533333333333333,-535.4666666666667,-125.86666666666666
1810,-6.4,-531.2,-125.86666666666666
1811,-6.4,-533.3333333333334,-128.0
1812,-4.266666666666667,-535.4666666666667,-121.6
1813,-10.666666666666666,-533.3333333333334,-125.86666666666666
1814,-2.1333333333333333,-541.8666666666667,-132.26666666666665
1815,-4.266666666666667,-533.3333333333334,-121.6
1816,-8.533333333333333,-535.4666666666667,-123.73333333333333
1817,-6.4,-537.6,-128.0
1818,-14.933333333333334,-529.0666666666666,-134.4
1819,-8.533333333333333,-531.2,-93.86666666666666
1820,-8.533333333333333,-537.6,-132.26666666666665
1821,-21.333333333333332,-537.6,-113.06666666666666
1822,-10.666666666666666,-497.06666666666666,-113.06666666666666
1823,-19.2,-548.2666666666667,-125.86666666666666
1824,-19.2,-533.3333333333334,-115.2
1825,-4.266666666666667,-533.3333333333334,-100.26666666666667
1826,-19.2,-548.2666666666667,-104.53333333333333
1827,-10.666666666666666,-537.6,-121.6
1828,-8.533333333333333,-537.6,-121.6
1829,-14.933333333333334,-537.6,-119.46666666666667
1830,-8.533333333333333,-539.7333333333333,-121.6
1831,-19.2,-541.8666666666667,-104.53333333333333
1832,-14.933333333333334,-539.7333333333333,-121.6
1833,-14.933333333333334,-535.4666666666667,-117.33333333333333
1834,-19.2,-526.9333333333333,-121.6
1835,-14.933333333333334,-531.2,-123.73333333333333
1836,-12.8,-529.0666666666666,-130.13333333333333
1837,-10.666666666666666,-535.4666666666667,-134.4
1838,-17.066666666666666,-531.2,-132.26666666666665
1839,-8.533333333333333,-537.6,-123.73333333333333
1840,-14.933333333333334,-535.4666666666667,-123.73333333333333
1841,-4.266666666666667,-537.6,-121.6
1842,-12.8,-535.4666666666667,-123.73333333333333
1843,-12.8,-531.2,-128.0
1844,-4.266666666666667,-546.1333333333333,-128.0
1845,-8.533333333333333,-537.6,-132.26666666666665
1846,-17.066666666666666,-535.4666666666667,-130.13333333333333
1847,-12.8,-535.4666666666667,-128.0
1848,-8.533333333333333,-537.6,-128.0
1849,-8.533333333333333,-537.6,-134.4
1850,-10.666666666666666,-539.7333333333333,-132.26666666666665
1851,-14.933333333333334,-531.2,-132.26666666666665
1852,-4.266666666666667,-537.6,-130.13333333333333
1853,-12.8,-533.3333333333334,-123.73333333333333
1854,-8.533333333333333,-529.0666666666666,-128.0
1855,-10.666666666666666,-535.4666666666667,-128.0
1856,-12.8,-537.6,-130.13333333333333
1857,-6.4,-535.4666666666667,-123.73333333333333
1858,-12.8,-539.7333333333333,-128.0
1859,-14.933333333333334,-533.3333333333334,-121.6
1860,-14.933333333333334,-535.4666666666667,-125.86666666666666
1861,-10.666666666666666,-541.8666666666667,-134.4
1862,-12.8,-535.4666666666667,-125.86666666666666
1863,-14.933333333333334,-541.8666666666667,-130.13333333333333
1864,-19.2,-539.7333333333333,-123.73333333333333
1865,-12.8,-533.3333333333334,-121.6
1866,-12.8,-533.3333333333334,-128.0
1867,-12.8,-541.8666666666667,-119.46666666666667
1868,-14.933333333333334,-544.0,-119.46666666666667
1869,-10.666666666666666,-537.6,-121.6
1870,-8.533333333333333,-535.4666666666667,-119.46666666666667
1871,-14.933333333333334,-537.6,-121.6
1872,-12.8,-537.6,-121.6
1873,-8.533333333333333,-533.3333333333334,-119.46666666666667
1874,-8.533333333333333,-533.3333333333334,-119.46666666666667
1875,-12.8,-529.0666666666666,-125.86666666666666
1876,-10.666666666666666,-535.4666666666667,-119.46666666666667
1877,-8.533333333333333,-539.7333333333333,-121.6
1878,-6.4,-539.7333333333333,-119.46666666666667
1879,-4.266666666666667,-539.7333333333333,-123.73333333333333
1880,-4.266666666666667,-537.6,-123.73333333333333
1881,-4.266666666666667,-537.6,-125.86666666666666
1882,-4.266666666666667,-531.2,-119.46666666666667
1883,-2.1333333333333333,-533.3333333333334,-123.73333333333333
1884,-2.1333333333333333,-535.4666666666667,-117.33333333333333
1885,-8.533333333333333,-537.6,-119.46666666666667
1886,-4.266666666666667,-541.8666666666667,-123.73333333333333
1887,-4.266666666666667,-537.6,-128.0
1888,-2.1333333333333333,-537.6,-119.46666666666667
1889,-10.666666666666666,-537.6,-117.33333333333333
1890,-6.4,-537.6,-119.46666666666667
1891,-6.4,-537.6,-119.46666666666667
1892,-2.1333333333333333,-541.8666666666667,-121.6
1893,-6.4,-539.7333333333333,-125.86666666666666
1894,-14.933333333333334,-537.6,-121.6
1895,-10.666666666666666,-537.6,-128.0
1896,-10.666666666666666,-533.3333333333334,-123.73333333333333
1897,-8.533333333333333,-531.2,-128.0
1898,-10.666666666666666,-535.4666666666667,-125.86666666666666
1899,-10.666666666666666,-537.6,-119.46666666666667
1900,-10.666666666666666,-533.3333333333334,-128.0
1901,-8.533333333333333,-537.6,-130.13333333333333
1902,-14.933333333333334,-531.2,-123.73333333333333
1903,-14.933333333333334,-529.0666666666666,-125.86666666666666
1904,-12.8,-535.4666666666667,-125.86666666666666
1905,-14.933333333333334,-533.3333333333334,-130.13333333333333
1906,-12.8,-535.4666666666667,-125.86666666666666
1907,-17.066666666666666,-535.4666666666667,-125.86666666666666
1908,-17.066666666666666,-531.2,-130.13333333333333
1909,-19.2,-533.3333333333334,-123.73333333333333
1910,-14.933333333333334,-533.3333333333334,-132.26666666666665
1911,-14.933333333333334,-531.2,-128.0
1912,-12.8,-537.6,-130.13333333333333
1913,-17.066666666666666,-535.4666666666667,-123.73333333333333
1914,-12.8,-537.6,-123.73333333333333
1915,-12.8,-537.6,-136.53333333333333
1916,-14.933333333333334,-533.3333333333334,-121.6
1917,-19.2,-539.7333333333333,-130.13333333333333
1918,-19.2,-535.4666666666667,-128.0
1919,-14.933333333333334,-539.7333333333333,-136.53333333333333
1920,-23.466666666666665,-535.4666666666667,-128.0
1921,-14.933333333333334,-539.7333333333333,-130.13333333333333
1922,-17.066666666666666,-533.3333333333334,-134.4
1923,-14.933333333333334,-531.2,-123.73333333333333
1924,-17.066666666666666,-533.3333333333334,-128.0
1925,-8.533333333333333,-535.4666666666667,-134.4
1926,-8.533333333333333,-535.4666666666667,-123.73333333333333
1927,-10.666666666666666,-539.7333333333333,-136.53333333333333
1928,-14.933333333333334,-539.7333333333333,-130.13333333333333
1929,-12.8,-541.8666666666667,-132.26666666666665
1930,-8.533333333333333,-533.3333333333334,-130.13333333333333
1931,-6.4,-533.3333333333334,-123.73333333333333
1932,-4.266666666666667,-537.6,-128.0
1933,-6.4,-533.3333333333334,-123.73333333333333
1934,-14.933333333333334,-531.2,-128.0
1935,-14.933333333333334,-526.9333333333333,-140.8
1936,-8.533333333333333,-529.0666666666666,-132.26666666666665
1937,-14.933333333333334,-533.3333333333334,-125.86666666666666
1938,-12.8,-524.8,-121.6
1939,-14.933333333333334,-529.0666666666666,-125.86666666666666
1940,-10.666666666666666,-531.2,-119.46666666666667
1941,-6.4,-544.0,-125.86666666666666
1942,-12.8,-531.2,-125.86666666666666
1943,-17.066666666666666,-529.0666666666666,-125.86666666666666
1944,-12.8,-533.3333333333334,-130.13333333333333
1945,-8.533333333333333,-533.3333333333334,-117.33333333333333
1946,-10.666666666666666,-533.3333333333334,-128.0
1947,-12.8,-539.7333333333333,-119.46666666666667
1948,-12.8,-539.7333333333333,-125.86666666666666
1949,-12.8,-533.3333333333334,-119.46666666666667
1950,-4.266666666666667,-544.0,-128.0
1951,-6.4,-539.7333333333333,-123.73333333333333
1952,-2.1333333333333333,-544.0,-125.86666666666666
1953,-6.4,-541.8666666666667,-125.86666666666666
1954,-4.266666666666667,-544.0,-123.73333333333333
1955,-6.4,-537.6,-125.86666666666666
1956,-6.4,-544.0,-125.86666666666666
1957,-8.533333333333333,-544.0,-123.73333333333333
1958,-12.8,-539.7333333333333,-110.93333333333334
1959,-12.8,-541.8666666666667,-115.2
1960,-19.2,-541.8666666666667,-115.2
1961,-8.533333333333333,-539.7333333333333,-121.6
1962,-14.933333333333334,-539.7333333333333,-117.33333333333333
1963,-12.8,-537.6,-121.6
1964,-12.8,-537.6,-123.73333333333333
1965,-14.933333333333334,-533.3333333333334,-128.0
1966,-12.8,-535.4666666666667,-128.0
1967,-12.8,-539.7333333333333,-128.0
1968,-14.933333333333334,-535.4666666666667,-121.6
1969,-8.533333333333333,-531.2,-123.73333333333333
1970,-10.666666666666666,-539.7333333333333,-125.86666666666666
1971,-17.066666666666666,-535.4666666666667,-130.13333333333333
1972,-4.266666666666667,-539.7333333333333,-125.86666666666666
1973,-14.933333333333334,-535.4666666666667,-125.86666666666666
1974,-17.066666666666666,-535.4666666666667,-128.0
1975,-14.933333333333334,-535.4666666666667,-138.66666666666666
1976,-12.8,-533.3333333333334,-136.53333333333333
1977,-17.066666666666666,-533.3333333333334,-145.06666666666666
1978,-14.933333333333334,-533.3333333333334,-128.0
1979,-14.933333333333334,-529.0666666666666,-132.26666666666665
1980,-14.933333333333334,-533.3333333333334,-132.26666666666665
1981,-21.333333333333332,-533.3333333333334,-136.53333333333333
1982,-10.666666666666666,-539.7333333333333,-130.13333333333333
1983,-17.066666666666666,-531.2,-130.13333333333333
1984,-12.8,-541.8666666666667,-130.13333333333333
1985,-14.933333333333334,-535.4666666666667,-128.0
1986,-21.333333333333332,-535.4666666666667,-125.86666666666666
1987,-12.8,-533.3333333333334,-121.6
1988,-8.533333333333333,-535.4666666666667,-121.6
1989,-12.8,-533.3333333333334,-128.0
1990,-12.8,-533.3333333333334,-121.6
1991,-12.8,-533.3333333333334,-130.13333333333333
1992,-19.2,-524.8,-130.13333333333333
1993,-4.266666666666667,-526.9333333333333,-128.0
1994,-12.8,-529.0666666666666,-123.73333333333333
1995,-4.266666666666667,-526.9333333333333,-128.0
1996,-12.8,-526.9333333333333,-121.6
1997,-10.666666666666666,-529.0666666666666,-121.6
1998,-10.666666666666666,-529.0666666666666,-132.26666666666665
1999,-10.666666666666666,-533.3333333333334,-123.73333333333333
2000,-12.8,-535.4666666666667,-125.86666666666666
2001,-12.8,-531.2,-132.26666666666665
2002,-21.333333333333332,-535.4666666666667,-123.73333333333333
2003,-17.066666666666666,-535.4666666666667,-125.86666666666666
2004,-14.933333333333334,-537.6,-119.46666666666667
2005,-21.333333333333332,-539.7333333333333,-121.6
2006,-19.2,-537.6,-119.46666666666667
2007,-19.2,-541.8666666666667,-130.13333333333333
2008,-17.066666666666666,-539.7333333333333,-128.0
2009,-19.2,-537.6,-125.86666666666666
2010,-14.933333333333334,-546.1333333333333,-123.73333333333333
2011,-12.8,-537.6,-125.86666666666666
2012,-14.933333333333334,-537.6,-123.73333333333333
2013,-12.8,-535.4666666666667,-123.73333333333333
2014,-10.666666666666666,-533.3333333333334,-121.6
2015,-12.8,-535.4666666666667,-123.73333333333333
2016,0.0,-539.7333333333333,-123.73333333333333
2017,-4.266666666666667,-535.4666666666667,-125.86666666666666
2018,-12.8,-535.4666666666667,-119.46666666666667
2019,-4.266666666666667,-537.6,-121.6
2020,2.1333333333333333,-535.4666666666667,-121.6
2021,-2.1333333333333333,-535.4666666666667,-119.46666666666667
2022,-8.533333333333333,-531.2,-119.46666666666667
2023,-6.4,-533.3333333333334,-121.6
2024,-8.533333333333333,-529.0666666666666,-121.6
2025,-4.266666666666667,-531.2,-121.6
2026,-4.266666666666667,-537.6,-121.6
2027,-6.4,-535.4666666666667,-121.6
2028,-10.666666666666666,-541.8666666666667,-121.6
2029,0.0,-541.8666666666667,-128.0
2030,-4.266666666666667,-546.1333333333333,-117.33333333333333
2031,-8.533333333333333,-537.6,-128.0
2032,-6.4,-541.8666666666667,-123.73333333333333
2033,-8.533333333333333,-539.7333333333333,-119.46666666666667
2034,-10.666666666666666,-544.0,-123.73333333333333
2035,-4.266666666666667,-544.0,-128.0
2036,-6.4,-546.1333333333333,-119.46666666666667
2037,-12.8,-539.7333333333333,-128.0
2038,-8.533333333333333,-535.4666666666667,-121.6
2039,-10.666666666666666,-539.7333333333333,-119.46666666666667
2040,-8.533333333333333,-537.6,-121.6
2041,-2.1333333333333333,-544.0,-125.86666666666666
2042,-8.533333333333333,-541.8666666666667,-119.46666666666667
2043,-8.533333333333333,-539.7333333333333,-119.46666666666667
2044,-4.266666666666667,-544.0,-121.6
2045,-10.666666666666666,-539.7333333333333,-121.6
2046,-2.1333333333333333,-537.6,-117.33333333333333
2047,-6.4,-539.7333333333333,-119.46666666666667
2048,-8.533333333333333,-535.4666666666667,-113.06666666666666
2049,-12.8,-531.2,-117.33333333333333
2050,-8.533333333333333,-535.4666666666667,-115.2
2051,-17.066666666666666,-533.3333333333334,-119.46666666666667
2052,-10.666666666666666,-533.3333333333334,-121.6
2053,-19.2,-531.2,-117.33333333333333
2054,-14.933333333333334,-535.4666666666667,-117.33333333333333
2055,-19.2,-535.4666666666667,-113.06666666666666
2056,-14.933333333333334,-535.4666666666667,-117.33333333333333
2057,-19.2,-537.6,-123.73333333333333
2058,-14.933333333333334,-533.3333333333334,-121.6
2059,-17.066666666666666,-539.7333333333333,-117.33333333333333
2060,-14.933333333333334,-535.4666666666667,-123.73333333333333
2061,-21.333333333333332,-533.3333333333334,-119.46666666666667
2062,-14.933333333333334,-535.4666666666667,-117.33333333333333
2063,-12.8,-535.4666666666667,-110.93333333333334
2064,-6.4,-535.4666666666667,-119.46666666666667
2065,-12.8,-533.3333333333334,-119.46666666666667
2066,-12.8,-531.2,-119.46666666666667
2067,-17.066666666666666,-531.2,-115.2
2068,-14.933333333333334,-539.7333333333333,-123.73333333333333
2069,-8.533333333333333,-537.6,-121.6
2070,-12.8,-539.7333333333333,-117.33333333333333
2071,-8.533333333333333,-539.7333333333333,-121.6
2072,-19.2,-531.2,-123.73333333333333
2073,-8.533333333333333,-539.7333333333333,-121.6
2074,-17.066666666666666,-546.1333333333333,-119.46666666666667
2075,-10.666666666666666,-537.6,-115.2
2076,-12.8,-537.6,-115.2
2077,-14.933333333333334,-539.7333333333333,-121.6
2078,-10.666666666666666,-537.6,-117.33333333333333
2079,-10.666666666666666,-537.6,-117.33333333333333
2080,-8.533333333333333,-541.8666666666667,-123.73333333333333
2081,-8.533333333333333,-535.4666666666667,-121.6
2082,-6.4,-550.4,-119.46666666666667
2083,-8.533333333333333,-539.7333333333333,-121.6
2084,-8.533333333333333,-546.1333333333333,-119.46666666666667
2085,-4.266666666666667,-544.0,-128.0
2086,-10.666666666666666,-539.7333333333333,-121.6
2087,-8.533333333333333,-537.6,-121.6
2088,-17.066666666666666,-541.8666666666667,-119.46666666666667
2089,-14.933333333333334,-539.7333333333333,-119.46666666666667
2090,-6.4,-539.7333333333333,-117.33333333333333
2091,-8.533333333333333,-533.3333333333334,-117.33333333333333
2092,-10.666666666666666,-533.3333333333334,-123.73333333333333
2093,-8.533333333333333,-533.3333333333334,-117.33333333333333
2094,-14.933333333333334,-535.4666666666667,-119.46666666666667
2095,-10.666666666666666,-535.4666666666667,-117.33333333333333
2096,-12.8,-535.4666666666667,-119.46666666666667
2097,-6.4,-544.0,-132.26666666666665
2098,-2.1333333333333333,-546.1333333333333,-115.2
2099,-10.666666666666666,-548.2666666666667,-119.46666666666667
2100,-12.8,-544.0,-119.46666666666667
2101,-8.533333333333333,-544.0,-104.53333333333333
2102,-10.666666666666666,-544.0,-119.46666666666667
2103,-10.666666666666666,-539.7333333333333,-115.2
2104,-10.666666666666666,-539.7333333333333,-113.06666666666666
2105,-10.666666666666666,-537.6,-119.46666666666667
2106,-14.933333333333334,-535.4666666666667,-115.2
2107,-8.533333333333333,-537.6,-119.46666666666667
2108,-10.666666666666666,-537.6,-117.33333333333333
2109,-12.8,-537.6,-123.73333333333333
2110,-8.533333333333333,-544.0,-121.6
2111,-8.533333333333333,-535.4666666666667,-117.33333333333333
2112,-14.933333333333334,-535.4666666666667,-119.46666666666667
2113,-12.8,-537.6,-119.46666666666667
2114,-6.4,-533.3333333333334,-117.33333333333333
2115,-4.266666666666667,-535.4666666666667,-108.8
2116,-6.4,-529.0666666666666,-113.06666666666666
2117,-10.666666666666666,-522.6666666666666,-113.06666666666666
2118,-12.8,-526.9333333333333,-117.33333333333333
2119,-8.533333333333333,-529.0666666666666,-115.2
2120,-2.1333333333333333,-526.9333333333333,-119.46666666666667
2121,-4.266666666666667,-529.0666666666666,-117.33333333333333
2122,-6.4,-526.9333333333333,-115.2
2123,-8.533333333333333,-533.3333333333334,-115.2
2124,-8.533333333333333,-533.3333333333334,-110.93333333333334
2125,-12.8,-537.6,-115.2
2126,-4.266666666666667,-539.7333333333333,-115.2
2127,-10.666666666666666,-539.7333333333333,-110.93333333333334
2128,-10.666666666666666,-539.7333333333333,-115.2
2129,-14.933333333333334,-531.2,-115.2
2130,-14.933333333333334,-544.0,-115.2
2131,-10.666666666666666,-541.8666666666667,-106.66666666666667
2132,-17.066666666666666,-546.1333333333333,-110.93333333333334
2133,-19.2,-537.6,-110.93333333333334
2134,-14.933333333333334,-539.7333333333333,-106.66666666666667
2135,-10.666666666666666,-531.2,-113.06666666666666
2136,-14.933333333333334,-529.0666666666666,-115.2
2137,-10.666666666666666,-535.4666666666667,-121.6
2138,-10.666666666666666,-539.7333333333333,-110.93333333333334
2139,-12.8,-535.4666666666667,-115.2
2140,-10.666666666666666,-539.7333333333333,-115.2
2141,-8.533333333333333,-537.6,-117.33333333333333
2142,-2.1333333333333333,-537.6,-115.2
2143,-8.533333333333333,-541.8666666666667,-113.06666666666666
2144,-6.4,-544.0,-106.66666666666667
2145,-8.533333333333333,-535.4666666666667,-110.93333333333334
2146,-6.4,-533.3333333333334,-108.8
2147,-12.8,-537.6,-108.8
2148,-8.533333333333333,-535.4666666666667,-106.66666666666667
2149,-12.8,-535.4666666666667,-113.06666666666666
2150,-8.533333333333333,-533.3333333333334,-117.33333333333333
2151,-8.533333333333333,-537.6,-108.8
2152,-12.8,-533.3333333333334,-113.06666666666666
2153,-12.8,-535.4666666666667,-110.93333333333334
2154,-12.8,-537.6,-115.2
2155,-10.666666666666666,-533.3333333333334,-115.2
2156,-21.333333333333332,-537.6,-117.33333333333333
2157,-10.666666666666666,-541.8666666666667,-119.46666666666667
2158,-17.066666666666666,-539.7333333333333,-115.2
2159,-19.2,-537.6,-110.93333333333334
2160,-6.4,-544.0,-113.06666666666666
2161,-12.8,-539.7333333333333,-106.66666666666667
2162,-6.4,-539.7333333333333,-108.8
2163,-8.533333333333333,-533.3333333333334,-119.46666666666667
2164,-10.666666666666666,-535.4666666666667,-117.33333333333333
2165,-8.533333333333333,-541.8666666666667,-117.33333333333333
2166,-2.1333333333333333,-539.7333333333333,-115.2
2167,0.0,-537.6,-117.33333333333333
2168,-8.533333333333333,-535.4666666666667,-119.46666666666667
2169,-8.533333333333333,-531.2,-115.2
2170,-12.8,-535.4666666666667,-108.8
2171,-4.266666666666667,-535.4666666666667,-110.93333333333334
2172,-12.8,-546.1333333333333,-113.06666666666666
2173,-12.8,-544.0,-117.33333333333333
2174,-17.066666666666666,-541.8666666666667,-117.33333333333333
2175,-10.666666666666666,-541.8666666666667,-106.66666666666667
2176,-10.666666666666666,-539.7333333333333,-117.33333333333333
2177,-17.066666666666666,-535.4666666666667,-119.46666666666667
2178,-10.666666666666666,-537.6,-113.06666666666666
2179,-8.533333333333333,-544.0,-113.06666666666666
2180,-10.666666666666666,-541.8666666666667,-115.2
2181,-10.666666666666666,-544.0,-119.46666666666667
2182,-10.666666666666666,-535.4666666666667,-100.26666666666667
2183,-8.533333333333333,-541.8666666666667,-119.46666666666667
2184,-12.8,-544.0,-117.33333333333333
2185,-8.533333333333333,-541.8666666666667,-113.06666666666666
2186,-6.4,-544.0,-115.2
2187,-4.266666666666667,-535.4666666666667,-115.2
2188,-8.533333333333333,-531.2,-108.8
2189,-8.533333333333333,-533.3333333333334,-115.2
2190,-4.266666666666667,-531.2,-115.2
2191,-8.533333333333333,-535.4666666666667,-108.8
2192,-6.4,-535.4666666666667,-121.6
2193,-2.1333333333333333,-541.8666666666667,-113.06666666666666
2194,-8.533333333333333,-535.4666666666667,-108.8
2195,-8.533333333333333,-535.4666666666667,-108.8
2196,-4.266666666666667,-537.6,-113.06666666666666
2197,-10.666666666666666,-541.8666666666667,-117.33333333333333
2198,-6.4,-537.6,-115.2
2199,-4.266666666666667,-539.7333333333333,-113.06666666666666
2200,-10.666666666666666,-535.4666666666667,-115.2
2201,-10.666666666666666,-535.4666666666667,-113.06666666666666
2202,-12.8,-535.4666666666667,-110.93333333333334
2203,-12.8,-537.6,-115.2
2204,-14.933333333333334,-541.8666666666667,-110.93333333333334
2205,-10.666666666666666,-535.4666666666667,-117.33333333333333
2206,-12.8,-541.8666666666667,-110.93333333333334
2207,-14.933333333333334,-531.2,-115.2
2208,-10.666666666666666,-533.3333333333334,-110.93333333333334
2209,-12.8,-537.6,-113.06666666666666
2210,-17.066666666666666,-533.3333333333334,-110.93333333333334
2211,-12.8,-533.3333333333334,-106.66666666666667
2212,-19.2,-537.6,-119.46666666666667
2213,-8.533333333333333,-537.6,-108.8
2214,-17.066666666666666,-535.4666666666667,-121.6
2215,-19.2,-537.6,-115.2
2216,-12.8,-535.4666666666667,-110.93333333333334
2217,-6.4,-546.1333333333333,-115.2
2218,-12.8,-535.4666666666667,-113.06666666666666
2219,-8.533333333333333,-537.6,-113.06666666666666
2220,-10.666666666666666,-539.7333333333333,-108.8
2221,-6.4,-537.6,-115.2
2222,-10.666666666666666,-537.6,-115.2
2223,-12.8,-539.7333333333333,-115.2
2224,-12.8,-548.2666666666667,-115.2
2225,-12.8,-531.2,-115.2
2226,-6.4,-539.7333333333333,-117.33333333333333
2227,-10.666666666666666,-535.4666666666667,-113.06666666666666
2228,-12.8,-537.6,-115.2
2229,-4.266666666666667,-546.1333333333333,-113.06666666666666
2230,-6.4,-537.6,-113.06666666666666
2231,-4.266666666666667,-537.6,-117.33333333333333
2232,-12.8,-539.7333333333333,-113.06666666666666
2233,-10.666666666666666,-541.8666666666667,-113.06666666666666
2234,-8.533333333333333,-537.6,-115.2
2235,-6.4,-533.3333333333334,-115.2
2236,-10.666666666666666,-535.4666666666667,-117.33333333333333
2237,-10.666666666666666,-539.7333333333333,-110.93333333333334
2238,-4.266666666666667,-541.8666666666667,-110.93333333333334
2239,-10.666666666666666,-537.6,-104.53333333333333
2240,-10.666666666666666,-537.6,-110.93333333333334
2241,-14.933333333333334,-539.7333333333333,-115.2
2242,-8.533333333333333,-544.0,-113.06666666666666
2243,-10.666666666666666,-544.0,-115.2
2244,-10.666666666666666,-541.8666666666667,-110.93333333333334
2245,-12.8,-537.6,-108.8
2246,-10.666666666666666,-537.6,-110.93333333333334
2247,-4.266666666666667,-539.7333333333333,-108.8
2248,-14.933333333333334,-537.6,-115.2
2249,-17.066666666666666,-537.6,-115.2
2250,-10.666666666666666,-541.8666666666667,-113.06666666666666
2251,-17.066666666666666,-535.4666666666667,-115.2
2252,-6.4,-537.6,-117.33333333333333
2253,-8.533333333333333,-539.7333333333333,-113.06666666666666
2254,-8.533333333333333,-541.8666666666667,-119.46666666666667
2255,-10.666666666666666,-533.3333333333334,-106.66666666666667
2256,-2.1333333333333333,-539.7333333333333,-113.06666666666666
2257,-6.4,-539.7333333333333,-115.2
2258,-2.1333333333333333,-537.6,-117.33333333333333
2259,-4.266666666666667,-541.8666666666667,-108.8
2260,2.1333333333333333,-541.8666666666667,-115.2
2261,2.1333333333333333,-537.6,-104.53333333333333
2262,0.0,-537.6,-117.33333333333333
2263,-8.533333333333333,-535.4666666666667,-113.06666666666666
2264,0.0,-535.4666666666667,-115.2
2265,-6.4,-539.7333333333333,-108.8
2266,-2.1333333333333333,-537.6,-106.66666666666667
2267,-10.666666666666666,-537.6,-113.06666666666666
2268,-8.533333333333333,-537.6,-117.33333333333333
2269,-14.933333333333334,-539.7333333333333,-113.06666666666666
2270,-12.8,-537.6,-115.2
2271,-14.933333333333334,-544.0,-110.93333333333334
2272,-8.533333333333333,-544.0,-113.06666666666666
2273,-17.066666666666666,-541.8666666666667,-113.06666666666666
2274,-14.933333333333334,-544.0,-108.8
2275,-12.8,-539.7333333333333,-113.06666666666666
2276,-12.8,-535.4666666666667,-106.66666666666667
2277,-17.066666666666666,-537.6,-106.66666666666667
2278,-14.933333333333334,-535.4666666666667,-108.8
2279,-17.066666666666666,-535.4666666666667,-113.06666666666666
2280,-10.666666666666666,-537.6,-110.93333333333334
2281,-10.666666666666666,-535.4666666666667,-104.53333333333333
2282,-12.8,-533.3333333333334,-104.53333333333333
2283,-10.666666666666666,-535.4666666666667,-113.06666666666666
2284,-14.933333333333334,-535.4666666666667,-115.2
2285,-14.933333333333334,-533.3333333333334,-108.8
2286,-8.533333333333333,-541.8666666666667,-117.33333333333333
2287,-6.4,-539.7333333333333,-117.33333333333333
2288,-4.266666666666667,-537.6,-119.46666666666667
2289,-8.533333333333333,-541.8666666666667,-113.06666666666666
2290,-6.4,-544.0,-117.33333333333333
2291,-6.4,-539.7333333333333,-115.2
2292,-6.4,-541.8666666666667,-115.2
2293,-8.533333333333333,-535.4666666666667,-115.2
2294,-6.4,-539.7333333333333,-110.93333333333334
2295,-8.533333333333333,-537.6,-121.6
2296,-8.533333333333333,-539.7333333333333,-121.6
2297,-6.4,-537.6,-123.73333333333333
2298,-6.4,-537.6,-110.93333333333334
2299,-6.4,-544.0,-110.93333333333334
2300,-2.1333333333333333,-533.3333333333334,-108.8
2301,-10.666666666666666,-533.3333333333334,-119.46666666666667
2302,-10.666666666666666,-535.4666666666667,-115.2
2303,-10.666666666666666,-529.0666666666666,-110.93333333333334
2304,-10.666666666666666,-531.2,-115.2
2305,-8.533333333333333,-531.2,-113.06666666666666
2306,-10.666666666666666,-529.0666666666666,-115.2
2307,-4.266666666666667,-529.0666666666666,-117.33333333333333
2308,-8.533333333333333,-526.9333333333333,-115.2
2309,-6.4,-529.0666666666666,-117.33333333333333
2310,-2.1333333333333333,-531.2,-113.06666666666666
2311,-6.4,-535.4666666666667,-108.8
2312,-6.4,-539.7333333333333,-100.26666666666667
2313,-6.4,-535.4666666666667,-113.06666666666666
2314,-6.4,-544.0,-106.66666666666667
2315,-10.666666666666666,-539.7333333333333,-108.8
2316,-4.266666666666667,-544.0,-106.66666666666667
2317,-8.533333333333333,-533.3333333333334,-113.06666666666666
2318,-8.533333333333333,-546.1333333333333,-100.26666666666667
2319,-10.666666666666666,-539.7333333333333,-115.2
2320,-10.666666666666666,-541.8666666666667,-108.8
2321,-8.533333333333333,-544.0,-110.93333333333334
2322,-2.1333333333333333,-546.1333333333333,-119.46666666666667
2323,-8.533333333333333,-546.1333333333333,-123.73333333333333
2324,-6.4,-548.2666666666667,-115.2
2325,0.0,-550.4,-110.93333333333334
2326,-4.266666666666667,-546.1333333333333,-117.33333333333333
2327,-4.266666666666667,-548.2666666666667,-123.73333333333333
2328,-8.533333333333333,-546.1333333333333,-117.33333333333333
2329,-2.1333333333333333,-548.2666666666667,-115.2
2330,-6.4,-541.8666666666667,-119.46666666666667
2331,-2.1333333333333333,-539.7333333333333,-115.2
2332,-4.266666666666667,-535.4666666666667,-110.93333333333334
2333,-4.266666666666667,-535.4666666666667,-108.8
2334,-12.8,-535.4666666666667,-115.2
2335,-12.8,-533.3333333333334,-110.93333333333334
2336,-17.066666666666666,-533.3333333333334,-110.93333333333334
2337,-10.666666666666666,-533.3333333333334,-115.2
2338,-14.933333333333334,-526.9333333333333,-117.33333333333333
2339,-8.533333333333333,-537.6,-115.2
2340,-14.933333333333334,-531.2,-117.33333333333333
2341,-17.066666666666666,-533.3333333333334,-113.06666666666666
2342,-6.4,-535.4666666666667,-113.06666666666666
2343,-17.066666666666666,-539.7333333333333,-147.2
2344,14.933333333333334,-526.9333333333333,-113.06666666666666
2345,-10.666666666666666,-533.3333333333334,-98.13333333333333
2346,-19.2,-541.8666666666667,-87.46666666666667
2347,-6.4,-544.0,-157.86666666666667
2348,6.4,-531.2,-106.66666666666667
2349,12.8,-544.0,-91.73333333333333
2350,-8.533333333333333,-535.4666666666667,-115.2
2351,-6.4,-531.2,-110.93333333333334
2352,-8.533333333333333,-541.8666666666667,-113.06666666666666
2353,-8.533333333333333,-541.8666666666667,-117.33333333333333
2354,17.066666666666666,-539.7333333333333,-108.8
2355,-17.066666666666666,-548.2666666666667,-104.53333333333333
2356,6.4,-522.6666666666666,-136.53333333333333
2357,-2.1333333333333333,-539.7333333333333,-119.46666666666667
2358,-6.4,-531.2,-121.6
2359,-6.4,-541.8666666666667,-119.46666666666667
2360,-6.4,-537.6,-115.2
2361,-6.4,-537.6,-115.2
2362,-8.533333333333333,-533.3333333333334,-117.33333333333333
2363,-2.1333333333333333,-539.7333333333333,-117.33333333333333
2364,-8.533333333333333,-533.3333333333334,-115.2
2365,-10.666666666666666,-533.3333333333334,-115.2
