,accelerometerAccelerationX(G),accelerometerAccelerationY(G),accelerometerAccelerationZ(G)
0,25.6,-526.9333333333333,8.533333333333333
1,34.13333333333333,-524.8,4.266666666666667
2,23.466666666666665,-524.8,23.466666666666665
3,36.266666666666666,-522.6666666666666,6.4
4,32.0,-520.5333333333333,6.4
5,42.666666666666664,-524.8,10.666666666666666
6,38.4,-522.6666666666666,14.933333333333334
7,29.866666666666667,-526.9333333333333,8.533333333333333
8,29.866666666666667,-524.8,14.933333333333334
9,23.466666666666665,-524.8,10.666666666666666
10,34.13333333333333,-531.2,10.666666666666666
11,27.733333333333334,-524.8,6.4
12,23.466666666666665,-520.5333333333333,14.933333333333334
13,21.333333333333332,-531.2,19.2
14,36.266666666666666,-524.8,4.266666666666667
15,49.06666666666666,-533.3333333333334,14.933333333333334
16,27.733333333333334,-526.9333333333333,8.533333333333333
17,27.733333333333334,-531.2,6.4
18,27.733333333333334,-531.2,10.666666666666666
19,25.6,-531.2,2.1333333333333333
20,27.733333333333334,-541.8666666666667,4.266666666666667
21,27.733333333333334,-544.0,4.266666666666667
22,23.466666666666665,-548.2666666666667,4.266666666666667
23,21.333333333333332,-541.8666666666667,6.4
24,25.6,-546.1333333333333,2.1333333333333333
25,21.333333333333332,-546.1333333333333,8.533333333333333
26,14.933333333333334,-526.9333333333333,-4.266666666666667
27,25.6,-539.7333333333333,4.266666666666667
28,32.0,-535.4666666666667,-4.266666666666667
29,25.6,-537.6,-4.266666666666667
30,29.866666666666667,-535.4666666666667,-2.1333333333333333
31,25.6,-531.2,-2.1333333333333333
32,27.733333333333334,-529.0666666666666,-17.066666666666666
33,25.6,-526.9333333333333,-6.4
34,32.0,-531.2,-17.066666666666666
35,32.0,-535.4666666666667,-4.266666666666667
36,25.6,-529.0666666666666,-6.4
37,4.266666666666667,-512.0,-23.466666666666665
38,25.6,-541.8666666666667,-2.1333333333333333
39,27.733333333333334,-535.4666666666667,-12.8
40,25.6,-539.7333333333333,0.0
41,25.6,-537.6,-2.1333333333333333
42,23.466666666666665,-533.3333333333334,-4.266666666666667
43,23.466666666666665,-535.4666666666667,4.266666666666667
44,21.333333333333332,-522.6666666666666,-2.1333333333333333
45,17.066666666666666,-522.6666666666666,0.0
46,12.8,-520.5333333333333,2.1333333333333333
47,21.333333333333332,-518.4,10.666666666666666
48,19.2,-516.2666666666667,14.933333333333334
49,19.2,-516.2666666666667,17.066666666666666
50,17.066666666666666,-514.1333333333333,14.933333333333334
51,17.066666666666666,-505.59999999999997,2.1333333333333333
52,12.8,-509.8666666666667,6.4
53,23.466666666666665,-512.0,-2.1333333333333333
54,23.466666666666665,-514.1333333333333,-2.1333333333333333
55,21.333333333333332,-518.4,-12.8
56,17.066666666666666,-529.0666666666666,-4.266666666666667
57,25.6,-537.6,-12.8
58,29.866666666666667,-546.1333333333333,-19.2
59,27.733333333333334,-578.1333333333333,17.066666666666666
60,32.0,-550.4,-23.466666666666665
61,32.0,-558.9333333333333,-21.333333333333332
62,36.266666666666666,-556.8,-21.333333333333332
63,32.0,-556.8,-27.733333333333334
64,36.266666666666666,-554.6666666666666,-32.0
65,40.53333333333333,-552.5333333333333,-34.13333333333333
66,34.13333333333333,-546.1333333333333,-27.733333333333334
67,29.866666666666667,-546.1333333333333,-25.6
68,49.06666666666666,-539.7333333333333,-23.466666666666665
69,38.4,-541.8666666666667,-32.0
70,40.53333333333333,-516.2666666666667,-42.666666666666664
71,36.266666666666666,-539.7333333333333,-32.0
72,42.666666666666664,-535.4666666666667,-25.6
73,38.4,-531.2,-27.733333333333334
74,36.266666666666666,-535.4666666666667,-34.13333333333333
75,38.4,-541.8666666666667,-32.0
76,38.4,-535.4666666666667,-32.0
77,34.13333333333333,-526.9333333333333,-36.266666666666666
78,38.4,-537.6,-38.4
79,32.0,-529.0666666666666,-25.6
80,40.53333333333333,-535.4666666666667,-23.466666666666665
81,59.733333333333334,-541.8666666666667,0.0
82,44.8,-541.8666666666667,-32.0
83,34.13333333333333,-535.4666666666667,-27.733333333333334
84,34.13333333333333,-535.4666666666667,-27.733333333333334
85,34.13333333333333,-535.4666666666667,-27.733333333333334
86,34.13333333333333,-535.4666666666667,-34.13333333333333
87,32.0,-539.7333333333333,-36.266666666666666
88,32.0,-535.4666666666667,-40.53333333333333
89,38.4,-546.1333333333333,-32.0
90,29.866666666666667,-539.7333333333333,-38.4
91,32.0,-535.4666666666667,-38.4
92,55.46666666666667,-529.0666666666666,-38.4
93,32.0,-537.6,-29.866666666666667
94,23.466666666666665,-541.8666666666667,-27.733333333333334
95,27.733333333333334,-539.7333333333333,-25.6
96,34.13333333333333,-544.0,-32.0
97,32.0,-546.1333333333333,-25.6
98,34.13333333333333,-535.4666666666667,-27.733333333333334
99,25.6,-537.6,-21.333333333333332
100,32.0,-535.4666666666667,-23.466666666666665
101,34.13333333333333,-535.4666666666667,-14.933333333333334
102,32.0,-533.3333333333334,-19.2
103,8.533333333333333,-535.4666666666667,-2.1333333333333333
104,27.733333333333334,-535.4666666666667,-19.2
105,29.866666666666667,-535.4666666666667,-19.2
106,36.266666666666666,-537.6,-23.466666666666665
107,29.866666666666667,-531.2,-27.733333333333334
108,36.266666666666666,-533.3333333333334,-25.6
109,40.53333333333333,-533.3333333333334,-23.466666666666665
110,38.4,-535.4666666666667,-14.933333333333334
111,36.266666666666666,-539.7333333333333,-21.333333333333332
112,36.266666666666666,-535.4666666666667,-29.866666666666667
113,38.4,-531.2,-25.6
114,36.266666666666666,-537.6,-10.666666666666666
115,36.266666666666666,-533.3333333333334,-21.333333333333332
116,27.733333333333334,-537.6,-14.933333333333334
117,29.866666666666667,-533.3333333333334,-23.466666666666665
118,27.733333333333334,-544.0,-23.466666666666665
119,29.866666666666667,-537.6,-17.066666666666666
120,19.2,-531.2,-12.8
121,29.866666666666667,-537.6,-25.6
122,21.333333333333332,-535.4666666666667,-6.4
123,25.6,-537.6,-12.8
124,32.0,-518.4,-44.8
125,27.733333333333334,-531.2,-23.466666666666665
126,23.466666666666665,-531.2,-17.066666666666666
127,32.0,-526.9333333333333,-21.333333333333332
128,32.0,-531.2,-23.466666666666665
129,27.733333333333334,-533.3333333333334,-21.333333333333332
130,25.6,-533.3333333333334,-12.8
131,21.333333333333332,-535.4666666666667,-23.466666666666665
132,27.733333333333334,-529.0666666666666,-14.933333333333334
133,29.866666666666667,-531.2,-21.333333333333332
134,23.466666666666665,-537.6,-21.333333333333332
135,46.93333333333333,-544.0,-49.06666666666666
136,27.733333333333334,-537.6,-17.066666666666666
137,27.733333333333334,-533.3333333333334,-25.6
138,29.866666666666667,-539.7333333333333,-12.8
139,25.6,-533.3333333333334,-25.6
140,29.866666666666667,-539.7333333333333,-21.333333333333332
141,29.866666666666667,-537.6,-19.2
142,21.333333333333332,-535.4666666666667,-14.933333333333334
143,32.0,-537.6,-29.866666666666667
144,23.466666666666665,-546.1333333333333,-8.533333333333333
145,21.333333333333332,-522.6666666666666,-21.333333333333332
146,40.53333333333333,-535.4666666666667,-12.8
147,17.066666666666666,-533.3333333333334,-27.733333333333334
148,23.466666666666665,-524.8,-32.0
149,23.466666666666665,-526.9333333333333,-19.2
150,25.6,-537.6,-21.333333333333332
151,25.6,-535.4666666666667,-19.2
152,29.866666666666667,-535.4666666666667,-21.333333333333332
153,25.6,-535.4666666666667,-19.2
154,36.266666666666666,-531.2,-23.466666666666665
155,32.0,-533.3333333333334,-21.333333333333332
156,25.6,-531.2,-14.933333333333334
157,-2.1333333333333333,-539.7333333333333,-29.866666666666667
158,25.6,-531.2,-23.466666666666665
159,32.0,-539.7333333333333,-19.2
160,27.733333333333334,-537.6,-23.466666666666665
161,25.6,-539.7333333333333,-17.066666666666666
162,23.466666666666665,-533.3333333333334,-23.466666666666665
163,21.333333333333332,-529.0666666666666,-12.8
164,21.333333333333332,-546.1333333333333,-8.533333333333333
165,34.13333333333333,-541.8666666666667,-12.8
166,27.733333333333334,-539.7333333333333,-17.066666666666666
167,29.866666666666667,-537.6,-14.933333333333334
168,32.0,-518.4,-44.8
169,32.0,-535.4666666666667,-21.333333333333332
170,25.6,-529.0666666666666,-12.8
171,36.266666666666666,-539.7333333333333,-17.066666666666666
172,32.0,-533.3333333333334,-17.066666666666666
173,32.0,-533.3333333333334,-6.4
174,25.6,-531.2,-10.666666666666666
175,27.733333333333334,-533.3333333333334,-6.4
176,27.733333333333334,-533.3333333333334,-14.933333333333334
177,25.6,-529.0666666666666,-14.933333333333334
178,25.6,-533.3333333333334,-21.333333333333332
179,6.4,-520.5333333333333,-23.466666666666665
180,21.333333333333332,-533.3333333333334,-10.666666666666666
181,23.466666666666665,-533.3333333333334,-14.933333333333334
182,25.6,-535.4666666666667,-8.533333333333333
183,27.733333333333334,-539.7333333333333,-12.8
184,36.266666666666666,-539.7333333333333,-17.066666666666666
185,36.266666666666666,-539.7333333333333,-10.666666666666666
186,32.0,-535.4666666666667,-19.2
187,32.0,-537.6,-23.466666666666665
188,29.866666666666667,-526.9333333333333,-17.066666666666666
189,34.13333333333333,-533.3333333333334,-12.8
190,36.266666666666666,-537.6,4.266666666666667
191,25.6,-529.0666666666666,-19.2
192,27.733333333333334,-529.0666666666666,-10.666666666666666
193,29.866666666666667,-535.4666666666667,-12.8
194,27.733333333333334,-531.2,-17.066666666666666
195,27.733333333333334,-535.4666666666667,-17.066666666666666
196,32.0,-537.6,-10.666666666666666
197,27.733333333333334,-541.8666666666667,-17.066666666666666
198,21.333333333333332,-531.2,-25.6
199,29.866666666666667,-541.8666666666667,-8.533333333333333
200,27.733333333333334,-524.8,-10.666666666666666
201,27.733333333333334,-531.2,-17.066666666666666
202,19.2,-524.8,-19.2
203,44.8,-526.9333333333333,-19.2
204,29.866666666666667,-535.4666666666667,-17.066666666666666
205,36.266666666666666,-541.8666666666667,-14.933333333333334
206,32.0,-537.6,-10.666666666666666
207,27.733333333333334,-541.8666666666667,-21.333333333333332
208,32.0,-535.4666666666667,-4.266666666666667
209,23.466666666666665,-529.0666666666666,-19.2
210,29.866666666666667,-539.7333333333333,-4.266666666666667
211,10.666666666666666,-522.6666666666666,-21.333333333333332
212,36.266666666666666,-537.6,-17.066666666666666
213,36.266666666666666,-537.6,-8.533333333333333
214,36.266666666666666,-537.6,-10.666666666666666
215,32.0,-539.7333333333333,-12.8
216,34.13333333333333,-535.4666666666667,-10.666666666666666
217,27.733333333333334,-533.3333333333334,-10.666666666666666
218,32.0,-529.0666666666666,-21.333333333333332
219,40.53333333333333,-529.0666666666666,-12.8
220,25.6,-524.8,-6.4
221,23.466666666666665,-533.3333333333334,-10.666666666666666
222,12.8,-526.9333333333333,-8.533333333333333
223,25.6,-539.7333333333333,-6.4
224,23.466666666666665,-535.4666666666667,-14.933333333333334
225,23.466666666666665,-526.9333333333333,-10.666666666666666
226,21.333333333333332,-531.2,-19.2
227,25.6,-533.3333333333334,-12.8
228,23.466666666666665,-537.6,-17.066666666666666
229,19.2,-539.7333333333333,-4.266666666666667
230,27.733333333333334,-539.7333333333333,-6.4
231,21.333333333333332,-529.0666666666666,-12.8
232,21.333333333333332,-535.4666666666667,-4.266666666666667
233,23.466666666666665,-533.3333333333334,0.0
234,25.6,-539.7333333333333,-12.8
235,23.466666666666665,-537.6,-12.8
236,25.6,-531.2,-4.266666666666667
237,29.866666666666667,-537.6,-8.533333333333333
238,27.733333333333334,-539.7333333333333,-4.266666666666667
239,27.733333333333334,-537.6,-6.4
240,27.733333333333334,-535.4666666666667,-10.666666666666666
241,25.6,-529.0666666666666,-10.666666666666666
242,36.266666666666666,-533.3333333333334,-12.8
243,34.13333333333333,-533.3333333333334,-8.533333333333333
244,42.666666666666664,-552.5333333333333,12.8
245,34.13333333333333,-535.4666666666667,-14.933333333333334
246,34.13333333333333,-537.6,-4.266666666666667
247,29.866666666666667,-533.3333333333334,0.0
248,34.13333333333333,-531.2,0.0
249,29.866666666666667,-533.3333333333334,-10.666666666666666
250,23.466666666666665,-529.0666666666666,-4.266666666666667
251,34.13333333333333,-537.6,-4.266666666666667
252,29.866666666666667,-533.3333333333334,-2.1333333333333333
253,34.13333333333333,-535.4666666666667,0.0
254,29.866666666666667,-537.6,-8.533333333333333
255,49.06666666666666,-552.5333333333333,17.066666666666666
256,29.866666666666667,-535.4666666666667,-12.8
257,34.13333333333333,-529.0666666666666,-2.1333333333333333
258,34.13333333333333,-535.4666666666667,-4.266666666666667
259,34.13333333333333,-531.2,-2.1333333333333333
260,27.733333333333334,-535.4666666666667,-2.1333333333333333
261,34.13333333333333,-531.2,-6.4
262,27.733333333333334,-535.4666666666667,-6.4
263,25.6,-529.0666666666666,-4.266666666666667
264,27.733333333333334,-535.4666666666667,-12.8
265,34.13333333333333,-535.4666666666667,-10.666666666666666
266,44.8,-531.2,-6.4
267,32.0,-526.9333333333333,0.0
268,34.13333333333333,-535.4666666666667,0.0
269,29.866666666666667,-526.9333333333333,0.0
270,27.733333333333334,-533.3333333333334,-2.1333333333333333
271,27.733333333333334,-535.4666666666667,-6.4
272,27.733333333333334,-529.0666666666666,-6.4
273,34.13333333333333,-531.2,-8.533333333333333
274,29.866666666666667,-531.2,0.0
275,29.866666666666667,-537.6,-4.266666666666667
276,32.0,-544.0,0.0
277,32.0,-531.2,-25.6
278,29.866666666666667,-533.3333333333334,-2.1333333333333333
279,29.866666666666667,-544.0,-2.1333333333333333
280,38.4,-541.8666666666667,-8.533333333333333
281,38.4,-537.6,-2.1333333333333333
282,34.13333333333333,-535.4666666666667,-10.666666666666666
283,27.733333333333334,-533.3333333333334,0.0
284,36.266666666666666,-537.6,-8.533333333333333
285,34.13333333333333,-531.2,-12.8
286,25.6,-533.3333333333334,0.0
287,27.733333333333334,-529.0666666666666,-8.533333333333333
288,36.266666666666666,-507.73333333333335,-23.466666666666665
289,25.6,-526.9333333333333,-8.533333333333333
290,29.866666666666667,-531.2,-12.8
291,27.733333333333334,-529.0666666666666,-6.4
292,29.866666666666667,-535.4666666666667,-12.8
293,32.0,-535.4666666666667,-14.933333333333334
294,25.6,-539.7333333333333,-4.266666666666667
295,34.13333333333333,-539.7333333333333,-10.666666666666666
296,25.6,-537.6,-2.1333333333333333
297,27.733333333333334,-537.6,-8.533333333333333
298,34.13333333333333,-535.4666666666667,-10.666666666666666
299,21.333333333333332,-548.2666666666667,8.533333333333333
300,27.733333333333334,-546.1333333333333,-4.266666666666667
301,25.6,-535.4666666666667,-4.266666666666667
302,27.733333333333334,-533.3333333333334,-14.933333333333334
303,29.866666666666667,-541.8666666666667,-4.266666666666667
304,27.733333333333334,-533.3333333333334,-6.4
305,25.6,-533.3333333333334,-6.4
306,36.266666666666666,-529.0666666666666,-17.066666666666666
307,25.6,-526.9333333333333,-6.4
308,36.266666666666666,-533.3333333333334,-6.4
309,36.266666666666666,-533.3333333333334,-17.066666666666666
310,12.8,-516.2666666666667,-32.0
311,29.866666666666667,-529.0666666666666,-12.8
312,34.13333333333333,-529.0666666666666,-12.8
313,27.733333333333334,-533.3333333333334,-6.4
314,34.13333333333333,-529.0666666666666,-6.4
315,29.866666666666667,-535.4666666666667,-6.4
316,25.6,-541.8666666666667,-14.933333333333334
317,32.0,-531.2,-6.4
318,23.466666666666665,-537.6,-17.066666666666666
319,21.333333333333332,-531.2,-2.1333333333333333
320,8.533333333333333,-520.5333333333333,-14.933333333333334
321,34.13333333333333,-537.6,-6.4
322,27.733333333333334,-539.7333333333333,-8.533333333333333
323,23.466666666666665,-537.6,-10.666666666666666
324,29.866666666666667,-535.4666666666667,-4.266666666666667
325,27.733333333333334,-539.7333333333333,-4.266666666666667
326,29.866666666666667,-533.3333333333334,-12.8
327,27.733333333333334,-541.8666666666667,-4.266666666666667
328,34.13333333333333,-537.6,-6.4
329,29.866666666666667,-541.8666666666667,0.0
330,40.53333333333333,-533.3333333333334,-8.533333333333333
331,42.666666666666664,-524.8,-23.466666666666665
332,32.0,-535.4666666666667,-8.533333333333333
333,27.733333333333334,-537.6,-6.4
334,32.0,-533.3333333333334,-12.8
335,27.733333333333334,-533.3333333333334,-2.1333333333333333
336,27.733333333333334,-533.3333333333334,-12.8
337,32.0,-531.2,-12.8
338,29.866666666666667,-537.6,-17.066666666666666
339,36.266666666666666,-535.4666666666667,-8.533333333333333
340,29.866666666666667,-531.2,0.0
341,23.466666666666665,-533.3333333333334,-2.1333333333333333
342,40.53333333333333,-552.5333333333333,8.533333333333333
343,34.13333333333333,-537.6,-12.8
344,27.733333333333334,-531.2,-4.266666666666667
345,29.866666666666667,-539.7333333333333,-4.266666666666667
346,27.733333333333334,-529.0666666666666,-2.1333333333333333
347,32.0,-539.7333333333333,2.1333333333333333
348,34.13333333333333,-539.7333333333333,-2.1333333333333333
349,32.0,-535.4666666666667,-4.266666666666667
350,38.4,-531.2,-4.266666666666667
351,27.733333333333334,-535.4666666666667,-4.266666666666667
352,32.0,-537.6,-36.266666666666666
353,10.666666666666666,-520.5333333333333,-14.933333333333334
354,32.0,-537.6,0.0
355,27.733333333333334,-529.0666666666666,-8.533333333333333
356,32.0,-529.0666666666666,-6.4
357,29.866666666666667,-529.0666666666666,-6.4
358,34.13333333333333,-529.0666666666666,-6.4
359,34.13333333333333,-535.4666666666667,0.0
360,23.466666666666665,-529.0666666666666,-2.1333333333333333
361,29.866666666666667,-533.3333333333334,0.0
362,27.733333333333334,-529.0666666666666,2.1333333333333333
363,34.13333333333333,-539.7333333333333,-4.266666666666667
364,46.93333333333333,-533.3333333333334,-4.266666666666667
365,40.53333333333333,-529.0666666666666,0.0
366,32.0,-535.4666666666667,-4.266666666666667
367,38.4,-535.4666666666667,-2.1333333333333333
368,34.13333333333333,-535.4666666666667,0.0
369,34.13333333333333,-535.4666666666667,-4.266666666666667
370,34.13333333333333,-539.7333333333333,0.0
371,34.13333333333333,-533.3333333333334,0.0
372,27.733333333333334,-544.0,-2.1333333333333333
373,23.466666666666665,-533.3333333333334,2.1333333333333333
374,27.733333333333334,-526.9333333333333,-17.066666666666666
375,42.666666666666664,-544.0,29.866666666666667
376,27.733333333333334,-531.2,0.0
377,32.0,-533.3333333333334,-2.1333333333333333
378,32.0,-531.2,0.0
379,36.266666666666666,-535.4666666666667,-2.1333333333333333
380,23.466666666666665,-535.4666666666667,-4.266666666666667
381,29.866666666666667,-531.2,4.266666666666667
382,27.733333333333334,-531.2,0.0
383,32.0,-526.9333333333333,0.0
384,29.866666666666667,-535.4666666666667,4.266666666666667
385,34.13333333333333,-535.4666666666667,0.0
386,19.2,-526.9333333333333,6.4
387,27.733333333333334,-539.7333333333333,0.0
388,29.866666666666667,-537.6,-6.4
389,32.0,-533.3333333333334,0.0
390,29.866666666666667,-539.7333333333333,0.0
391,23.466666666666665,-531.2,2.1333333333333333
392,27.733333333333334,-539.7333333333333,-2.1333333333333333
393,29.866666666666667,-533.3333333333334,6.4
394,34.13333333333333,-535.4666666666667,0.0
395,36.266666666666666,-531.2,0.0
396,36.266666666666666,-529.0666666666666,0.0
397,51.2,-503.46666666666664,-34.13333333333333
398,29.866666666666667,-531.2,-2.1333333333333333
399,25.6,-533.3333333333334,2.1333333333333333
400,27.733333333333334,-535.4666666666667,4.266666666666667
401,27.733333333333334,-531.2,0.0
402,27.733333333333334,-537.6,8.533333333333333
403,25.6,-539.7333333333333,6.4
404,27.733333333333334,-537.6,4.266666666666667
405,21.333333333333332,-537.6,6.4
406,25.6,-544.0,6.4
407,36.266666666666666,-535.4666666666667,-4.266666666666667
408,36.266666666666666,-537.6,-2.1333333333333333
409,32.0,-537.6,0.0
410,29.866666666666667,-535.4666666666667,-10.666666666666666
411,29.866666666666667,-535.4666666666667,-10.666666666666666
412,34.13333333333333,-529.0666666666666,-6.4
413,27.733333333333334,-533.3333333333334,0.0
414,32.0,-529.0666666666666,2.1333333333333333
415,32.0,-533.3333333333334,4.266666666666667
416,27.733333333333334,-533.3333333333334,6.4
417,25.6,-529.0666666666666,2.1333333333333333
418,19.2,-533.3333333333334,2.1333333333333333
419,27.733333333333334,-535.4666666666667,8.533333333333333
420,29.866666666666667,-529.0666666666666,4.266666666666667
421,29.866666666666667,-531.2,4.266666666666667
422,27.733333333333334,-533.3333333333334,4.266666666666667
423,32.0,-531.2,8.533333333333333
424,25.6,-529.0666666666666,2.1333333333333333
425,29.866666666666667,-524.8,8.533333333333333
426,27.733333333333334,-531.2,6.4
427,27.733333333333334,-529.0666666666666,8.533333333333333
428,27.733333333333334,-531.2,6.4
429,38.4,-548.2666666666667,12.8
430,34.13333333333333,-531.2,4.266666666666667
431,32.0,-524.8,10.666666666666666
432,40.53333333333333,-526.9333333333333,10.666666666666666
433,32.0,-524.8,6.4
434,29.866666666666667,-520.5333333333333,2.1333333333333333
435,27.733333333333334,-526.9333333333333,2.1333333333333333
436,29.866666666666667,-531.2,4.266666666666667
437,29.866666666666667,-533.3333333333334,10.666666666666666
438,25.6,-529.0666666666666,8.533333333333333
439,27.733333333333334,-529.0666666666666,8.533333333333333
440,17.066666666666666,-522.6666666666666,-6.4
441,27.733333333333334,-537.6,19.2
442,36.266666666666666,-537.6,6.4
443,32.0,-535.4666666666667,8.533333333333333
444,27.733333333333334,-539.7333333333333,10.666666666666666
445,32.0,-537.6,6.4
446,32.0,-537.6,10.666666666666666
447,25.6,-539.7333333333333,14.933333333333334
448,25.6,-535.4666666666667,8.533333333333333
449,29.866666666666667,-539.7333333333333,12.8
450,32.0,-531.2,12.8
451,34.13333333333333,-520.5333333333333,-19.2
452,32.0,-526.9333333333333,4.266666666666667
453,29.866666666666667,-529.0666666666666,6.4
454,36.266666666666666,-531.2,8.533333333333333
455,32.0,-533.3333333333334,12.8
456,29.866666666666667,-526.9333333333333,4.266666666666667
457,27.733333333333334,-524.8,14.933333333333334
458,29.866666666666667,-520.5333333333333,17.066666666666666
459,32.0,-526.9333333333333,17.066666666666666
460,29.866666666666667,-520.5333333333333,12.8
461,21.333333333333332,-529.0666666666666,8.533333333333333
462,19.2,-520.5333333333333,4.266666666666667
463,27.733333333333334,-526.9333333333333,12.8
464,25.6,-529.0666666666666,17.066666666666666
465,34.13333333333333,-529.0666666666666,6.4
466,29.866666666666667,-529.0666666666666,14.933333333333334
467,29.866666666666667,-531.2,17.066666666666666
468,27.733333333333334,-531.2,12.8
469,32.0,-535.4666666666667,10.666666666666666
470,34.13333333333333,-531.2,10.666666666666666
471,27.733333333333334,-541.8666666666667,21.333333333333332
472,32.0,-537.6,14.933333333333334
473,21.333333333333332,-520.5333333333333,-6.4
474,27.733333333333334,-537.6,10.666666666666666
475,36.266666666666666,-531.2,6.4
476,34.13333333333333,-529.0666666666666,14.933333333333334
477,27.733333333333334,-531.2,17.066666666666666
478,29.866666666666667,-535.4666666666667,14.933333333333334
479,36.266666666666666,-529.0666666666666,12.8
480,29.866666666666667,-526.9333333333333,12.8
481,32.0,-531.2,12.8
482,25.6,-522.6666666666666,6.4
483,29.866666666666667,-529.0666666666666,10.666666666666666
484,42.666666666666664,-516.2666666666667,-2.1333333333333333
485,32.0,-526.9333333333333,17.066666666666666
486,32.0,-526.9333333333333,14.933333333333334
487,36.266666666666666,-529.0666666666666,8.533333333333333
488,32.0,-531.2,12.8
489,32.0,-533.3333333333334,19.2
490,29.866666666666667,-529.0666666666666,19.2
491,32.0,-533.3333333333334,12.8
492,29.866666666666667,-535.4666666666667,23.466666666666665
493,36.266666666666666,-531.2,14.933333333333334
494,32.0,-531.2,12.8
495,25.6,-537.6,32.0
496,32.0,-533.3333333333334,17.066666666666666
497,34.13333333333333,-529.0666666666666,12.8
498,27.733333333333334,-531.2,10.666666666666666
499,29.866666666666667,-533.3333333333334,21.333333333333332
500,38.4,-533.3333333333334,23.466666666666665
501,32.0,-529.0666666666666,12.8
502,32.0,-533.3333333333334,4.266666666666667
503,38.4,-533.3333333333334,19.2
504,32.0,-526.9333333333333,12.8
505,27.733333333333334,-531.2,14.933333333333334
506,36.266666666666666,-537.6,8.533333333333333
507,32.0,-529.0666666666666,6.4
508,34.13333333333333,-535.4666666666667,14.933333333333334
509,32.0,-529.0666666666666,19.2
510,34.13333333333333,-531.2,19.2
511,36.266666666666666,-526.9333333333333,14.933333333333334
512,29.866666666666667,-537.6,12.8
513,23.466666666666665,-531.2,21.333333333333332
514,27.733333333333334,-531.2,25.6
515,34.13333333333333,-526.9333333333333,14.933333333333334
516,29.866666666666667,-522.6666666666666,6.4
517,27.733333333333334,-529.0666666666666,21.333333333333332
518,25.6,-537.6,10.666666666666666
519,32.0,-531.2,23.466666666666665
520,19.2,-535.4666666666667,17.066666666666666
521,27.733333333333334,-529.0666666666666,23.466666666666665
522,29.866666666666667,-529.0666666666666,21.333333333333332
523,29.866666666666667,-533.3333333333334,14.933333333333334
524,27.733333333333334,-531.2,14.933333333333334
525,29.866666666666667,-533.3333333333334,19.2
526,34.13333333333333,-529.0666666666666,6.4
527,23.466666666666665,-526.9333333333333,40.53333333333333
528,29.866666666666667,-531.2,17.066666666666666
529,36.266666666666666,-531.2,17.066666666666666
530,36.266666666666666,-524.8,19.2
531,29.866666666666667,-531.2,23.466666666666665
532,32.0,-526.9333333333333,23.466666666666665
533,34.13333333333333,-539.7333333333333,12.8
534,29.866666666666667,-535.4666666666667,19.2
535,29.866666666666667,-537.6,17.066666666666666
536,38.4,-533.3333333333334,17.066666666666666
537,32.0,-524.8,23.466666666666665
538,14.933333333333334,-539.7333333333333,27.733333333333334
539,32.0,-529.0666666666666,21.333333333333332
540,34.13333333333333,-529.0666666666666,19.2
541,32.0,-524.8,17.066666666666666
542,29.866666666666667,-531.2,27.733333333333334
543,32.0,-533.3333333333334,17.066666666666666
544,29.866666666666667,-526.9333333333333,23.466666666666665
545,32.0,-529.0666666666666,21.333333333333332
546,36.266666666666666,-529.0666666666666,21.333333333333332
547,36.266666666666666,-531.2,21.333333333333332
548,27.733333333333334,-531.2,23.466666666666665
549,49.06666666666666,-541.8666666666667,40.53333333333333
550,29.866666666666667,-533.3333333333334,27.733333333333334
551,27.733333333333334,-535.4666666666667,25.6
552,32.0,-535.4666666666667,23.466666666666665
553,34.13333333333333,-537.6,17.066666666666666
554,32.0,-526.9333333333333,19.2
555,32.0,-526.9333333333333,21.333333333333332
556,34.13333333333333,-526.9333333333333,21.333333333333332
557,34.13333333333333,-522.6666666666666,12.8
558,27.733333333333334,-526.9333333333333,27.733333333333334
559,23.466666666666665,-522.6666666666666,19.2
560,44.8,-522.6666666666666,32.0
561,32.0,-529.0666666666666,27.733333333333334
562,32.0,-533.3333333333334,25.6
563,32.0,-529.0666666666666,34.13333333333333
564,36.266666666666666,-531.2,27.733333333333334
565,32.0,-531.2,32.0
566,29.866666666666667,-531.2,23.466666666666665
567,36.266666666666666,-533.3333333333334,27.733333333333334
568,36.266666666666666,-535.4666666666667,21.333333333333332
569,27.733333333333334,-533.3333333333334,25.6
570,27.733333333333334,-531.2,25.6
571,36.266666666666666,-524.8,17.066666666666666
572,34.13333333333333,-520.5333333333333,10.666666666666666
573,34.13333333333333,-533.3333333333334,23.466666666666665
574,34.13333333333333,-531.2,27.733333333333334
575,36.266666666666666,-533.3333333333334,25.6
576,29.866666666666667,-522.6666666666666,25.6
577,36.266666666666666,-526.9333333333333,27.733333333333334
578,36.266666666666666,-531.2,21.333333333333332
579,42.666666666666664,-526.9333333333333,21.333333333333332
580,27.733333333333334,-526.9333333333333,27.733333333333334
581,25.6,-524.8,23.466666666666665
582,46.93333333333333,-526.9333333333333,38.4
583,34.13333333333333,-529.0666666666666,23.466666666666665
584,34.13333333333333,-529.0666666666666,32.0
585,34.13333333333333,-531.2,19.2
586,34.13333333333333,-531.2,10.666666666666666
587,34.13333333333333,-533.3333333333334,29.866666666666667
588,32.0,-531.2,23.466666666666665
589,29.866666666666667,-529.0666666666666,27.733333333333334
590,27.733333333333334,-526.9333333333333,32.0
591,27.733333333333334,-533.3333333333334,12.8
592,29.866666666666667,-529.0666666666666,32.0
593,49.06666666666666,-539.7333333333333,27.733333333333334
594,29.866666666666667,-533.3333333333334,29.866666666666667
595,29.866666666666667,-531.2,25.6
596,27.733333333333334,-529.0666666666666,25.6
597,32.0,-535.4666666666667,25.6
598,36.266666666666666,-531.2,21.333333333333332
599,32.0,-529.0666666666666,25.6
600,27.733333333333334,-533.3333333333334,27.733333333333334
601,34.13333333333333,-529.0666666666666,23.466666666666665
602,34.13333333333333,-531.2,29.866666666666667
603,42.666666666666664,-531.2,23.466666666666665
604,64.0,-514.1333333333333,-17.066666666666666
605,38.4,-526.9333333333333,21.333333333333332
606,36.266666666666666,-533.3333333333334,17.066666666666666
607,42.666666666666664,-529.0666666666666,25.6
608,34.13333333333333,-522.6666666666666,25.6
609,29.866666666666667,-520.5333333333333,29.866666666666667
610,29.866666666666667,-524.8,29.866666666666667
611,36.266666666666666,-531.2,36.266666666666666
612,32.0,-535.4666666666667,36.266666666666666
613,25.6,-531.2,27.733333333333334
614,34.13333333333333,-526.9333333333333,29.866666666666667
615,14.933333333333334,-531.2,25.6
616,32.0,-529.0666666666666,40.53333333333333
617,34.13333333333333,-531.2,29.866666666666667
618,32.0,-529.0666666666666,29.866666666666667
619,29.866666666666667,-524.8,21.333333333333332
620,34.13333333333333,-533.3333333333334,36.266666666666666
621,23.466666666666665,-520.5333333333333,19.2
622,38.4,-526.9333333333333,21.333333333333332
623,34.13333333333333,-531.2,36.266666666666666
624,29.866666666666667,-531.2,27.733333333333334
625,34.13333333333333,-539.7333333333333,32.0
626,32.0,-531.2,23.466666666666665
627,29.866666666666667,-526.9333333333333,25.6
628,32.0,-526.9333333333333,29.866666666666667
629,38.4,-531.2,25.6
630,25.6,-529.0666666666666,32.0
631,32.0,-526.9333333333333,21.333333333333332
632,32.0,-535.4666666666667,23.466666666666665
633,29.866666666666667,-529.0666666666666,27.733333333333334
634,29.866666666666667,-529.0666666666666,25.6
635,40.53333333333333,-529.0666666666666,32.0
636,40.53333333333333,-524.8,8.533333333333333
637,27.733333333333334,-526.9333333333333,25.6
638,36.266666666666666,-531.2,23.466666666666665
639,32.0,-537.6,25.6
640,32.0,-529.0666666666666,27.733333333333334
641,32.0,-531.2,23.466666666666665
642,29.866666666666667,-526.9333333333333,23.466666666666665
643,36.266666666666666,-531.2,23.466666666666665
644,34.13333333333333,-531.2,25.6
645,34.13333333333333,-526.9333333333333,17.066666666666666
646,25.6,-520.5333333333333,25.6
647,53.333333333333336,-529.0666666666666,38.4
648,29.866666666666667,-529.0666666666666,25.6
649,32.0,-529.0666666666666,27.733333333333334
650,29.866666666666667,-529.0666666666666,34.13333333333333
651,34.13333333333333,-529.0666666666666,17.066666666666666
652,32.0,-529.0666666666666,27.733333333333334
653,32.0,-531.2,27.733333333333334
654,36.266666666666666,-522.6666666666666,23.466666666666665
655,32.0,-526.9333333333333,27.733333333333334
656,27.733333333333334,-533.3333333333334,25.6
657,32.0,-531.2,27.733333333333334
658,10.666666666666666,-514.1333333333333,4.266666666666667
659,32.0,-531.2,17.066666666666666
660,29.866666666666667,-524.8,21.333333333333332
661,32.0,-524.8,23.466666666666665
662,34.13333333333333,-531.2,34.13333333333333
663,29.866666666666667,-529.0666666666666,27.733333333333334
664,32.0,-529.0666666666666,23.466666666666665
665,29.866666666666667,-529.0666666666666,21.333333333333332
666,25.6,-522.6666666666666,23.466666666666665
667,36.266666666666666,-529.0666666666666,25.6
668,38.4,-520.5333333333333,19.2
669,34.13333333333333,-544.0,51.2
670,29.866666666666667,-531.2,21.333333333333332
671,34.13333333333333,-533.3333333333334,23.466666666666665
672,29.866666666666667,-526.9333333333333,17.066666666666666
673,32.0,-531.2,29.866666666666667
674,32.0,-529.0666666666666,29.866666666666667
675,29.866666666666667,-533.3333333333334,17.066666666666666
676,32.0,-531.2,19.2
677,25.6,-531.2,25.6
678,34.13333333333333,-522.6666666666666,21.333333333333332
679,29.866666666666667,-526.9333333333333,14.933333333333334
680,10.666666666666666,-518.4,2.1333333333333333
681,34.13333333333333,-531.2,19.2
682,29.866666666666667,-522.6666666666666,17.066666666666666
683,29.866666666666667,-524.8,21.333333333333332
684,32.0,-529.0666666666666,23.466666666666665
685,29.866666666666667,-531.2,21.333333333333332
686,32.0,-529.0666666666666,27.733333333333334
687,34.13333333333333,-531.2,17.066666666666666
688,32.0,-531.2,29.866666666666667
689,34.13333333333333,-526.9333333333333,34.13333333333333
690,23.466666666666665,-531.2,25.6
691,55.46666666666667,-548.2666666666667,32.0
692,25.6,-529.0666666666666,19.2
693,34.13333333333333,-531.2,21.333333333333332
694,32.0,-526.9333333333333,19.2
695,29.866666666666667,-526.9333333333333,19.2
696,29.866666666666667,-531.2,19.2
697,32.0,-526.9333333333333,21.333333333333332
698,34.13333333333333,-533.3333333333334,23.466666666666665
699,34.13333333333333,-535.4666666666667,21.333333333333332
700,38.4,-537.6,14.933333333333334
701,36.266666666666666,-531.2,21.333333333333332
702,29.866666666666667,-537.6,27.733333333333334
703,38.4,-535.4666666666667,21.333333333333332
704,40.53333333333333,-537.6,21.333333333333332
705,29.866666666666667,-533.3333333333334,21.333333333333332
706,27.733333333333334,-531.2,27.733333333333334
707,29.866666666666667,-533.3333333333334,19.2
708,34.13333333333333,-531.2,23.466666666666665
709,34.13333333333333,-535.4666666666667,17.066666666666666
710,38.4,-531.2,12.8
711,27.733333333333334,-529.0666666666666,25.6
712,25.6,-526.9333333333333,4.266666666666667
713,17.066666666666666,-514.1333333333333,12.8
714,34.13333333333333,-505.59999999999997,-19.2
715,34.13333333333333,-531.2,19.2
716,38.4,-524.8,14.933333333333334
717,27.733333333333334,-526.9333333333333,19.2
718,29.866666666666667,-531.2,25.6
719,29.866666666666667,-533.3333333333334,17.066666666666666
720,34.13333333333333,-529.0666666666666,14.933333333333334
721,32.0,-531.2,14.933333333333334
722,34.13333333333333,-531.2,27.733333333333334
723,10.666666666666666,-509.8666666666667,36.266666666666666
724,32.0,-529.0666666666666,17.066666666666666
725,34.13333333333333,-539.7333333333333,19.2
726,34.13333333333333,-533.3333333333334,17.066666666666666
727,34.13333333333333,-537.6,10.666666666666666
728,32.0,-539.7333333333333,25.6
729,32.0,-533.3333333333334,12.8
730,25.6,-539.7333333333333,10.666666666666666
731,32.0,-535.4666666666667,14.933333333333334
732,23.466666666666665,-539.7333333333333,14.933333333333334
733,34.13333333333333,-531.2,-6.4
734,34.13333333333333,-514.1333333333333,19.2
735,34.13333333333333,-533.3333333333334,12.8
736,34.13333333333333,-537.6,17.066666666666666
737,36.266666666666666,-537.6,17.066666666666666
738,34.13333333333333,-533.3333333333334,12.8
739,27.733333333333334,-531.2,10.666666666666666
740,34.13333333333333,-531.2,14.933333333333334
741,34.13333333333333,-526.9333333333333,12.8
742,34.13333333333333,-529.0666666666666,17.066666666666666
743,23.466666666666665,-516.2666666666667,10.666666666666666
744,36.266666666666666,-524.8,10.666666666666666
745,44.8,-520.5333333333333,6.4
746,29.866666666666667,-531.2,10.666666666666666
747,32.0,-529.0666666666666,10.666666666666666
748,27.733333333333334,-535.4666666666667,2.1333333333333333
749,27.733333333333334,-526.9333333333333,6.4
750,27.733333333333334,-539.7333333333333,8.533333333333333
751,23.466666666666665,-533.3333333333334,2.1333333333333333
752,29.866666666666667,-537.6,-4.266666666666667
753,34.13333333333333,-533.3333333333334,-4.266666666666667
754,25.6,-526.9333333333333,8.533333333333333
755,19.2,-535.4666666666667,-10.666666666666666
756,8.533333333333333,-522.6666666666666,-2.1333333333333333
757,27.733333333333334,-522.6666666666666,-4.266666666666667
758,25.6,-524.8,0.0
759,21.333333333333332,-522.6666666666666,-2.1333333333333333
760,25.6,-524.8,6.4
761,19.2,-524.8,2.1333333333333333
762,17.066666666666666,-522.6666666666666,10.666666666666666
763,14.933333333333334,-526.9333333333333,6.4
764,19.2,-524.8,12.8
765,12.8,-529.0666666666666,19.2
766,17.066666666666666,-529.0666666666666,12.8
767,-12.8,-539.7333333333333,55.46666666666667
768,12.8,-535.4666666666667,25.6
769,19.2,-541.8666666666667,29.866666666666667
770,21.333333333333332,-537.6,23.466666666666665
771,23.466666666666665,-541.8666666666667,29.866666666666667
772,23.466666666666665,-535.4666666666667,21.333333333333332
773,21.333333333333332,-537.6,10.666666666666666
774,19.2,-546.1333333333333,27.733333333333334
775,25.6,-537.6,17.066666666666666
776,25.6,-548.2666666666667,17.066666666666666
777,34.13333333333333,-537.6,38.4
778,46.93333333333333,-550.4,19.2
779,34.13333333333333,-550.4,14.933333333333334
780,34.13333333333333,-550.4,14.933333333333334
781,40.53333333333333,-548.2666666666667,14.933333333333334
782,42.666666666666664,-546.1333333333333,6.4
783,40.53333333333333,-541.8666666666667,10.666666666666666
784,42.666666666666664,-535.4666666666667,4.266666666666667
785,55.46666666666667,-537.6,6.4
786,49.06666666666666,-529.0666666666666,4.266666666666667
787,46.93333333333333,-524.8,2.1333333333333333
788,51.2,-522.6666666666666,-2.1333333333333333
789,70.4,-544.0,23.466666666666665
790,46.93333333333333,-529.0666666666666,4.266666666666667
791,46.93333333333333,-526.9333333333333,4.266666666666667
792,42.666666666666664,-531.2,8.533333333333333
793,44.8,-535.4666666666667,4.266666666666667
794,42.666666666666664,-535.4666666666667,6.4
795,25.6,-535.4666666666667,12.8
796,42.666666666666664,-541.8666666666667,4.266666666666667
797,27.733333333333334,-539.7333333333333,12.8
798,32.0,-531.2,2.1333333333333333
799,38.4,-535.4666666666667,17.066666666666666
800,25.6,-529.0666666666666,-8.533333333333333
801,44.8,-544.0,2.1333333333333333
802,42.666666666666664,-546.1333333333333,10.666666666666666
803,46.93333333333333,-544.0,6.4
804,53.333333333333336,-548.2666666666667,8.533333333333333
805,59.733333333333334,-546.1333333333333,2.1333333333333333
806,64.0,-548.2666666666667,8.533333333333333
807,68.26666666666667,-548.2666666666667,4.266666666666667
808,70.4,-541.8666666666667,4.266666666666667
809,61.86666666666667,-541.8666666666667,19.2
810,64.0,-541.8666666666667,14.933333333333334
811,40.53333333333333,-512.0,14.933333333333334
812,55.46666666666667,-539.7333333333333,21.333333333333332
813,42.666666666666664,-544.0,25.6
814,27.733333333333334,-539.7333333333333,23.466666666666665
815,21.333333333333332,-537.6,23.466666666666665
816,10.666666666666666,-526.9333333333333,27.733333333333334
817,2.1333333333333333,-518.4,25.6
818,-6.4,-514.1333333333333,36.266666666666666
819,-12.8,-505.59999999999997,25.6
820,-12.8,-499.2,21.333333333333332
821,-2.1333333333333333,-507.73333333333335,12.8
822,12.8,-518.4,40.53333333333333
823,0.0,-529.0666666666666,12.8
824,0.0,-546.1333333333333,8.533333333333333
825,10.666666666666666,-550.4,4.266666666666667
826,23.466666666666665,-567.4666666666667,2.1333333333333333
827,32.0,-578.1333333333333,0.0
828,38.4,-595.2,-6.4
829,46.93333333333333,-599.4666666666667,-4.266666666666667
830,44.8,-601.6,-14.933333333333334
831,59.733333333333334,-605.8666666666667,-12.8
832,53.333333333333336,-605.8666666666667,0.0
833,49.06666666666666,-590.9333333333333,-2.1333333333333333
834,81.06666666666666,-618.6666666666666,12.8
835,51.2,-590.9333333333333,-10.666666666666666
836,40.53333333333333,-588.8,-17.066666666666666
837,34.13333333333333,-584.5333333333333,-14.933333333333334
838,23.466666666666665,-573.8666666666667,-17.066666666666666
839,34.13333333333333,-569.6,-12.8
840,25.6,-550.4,-8.533333333333333
841,4.266666666666667,-529.0666666666666,-2.1333333333333333
842,6.4,-514.1333333333333,0.0
843,6.4,-509.8666666666667,-12.8
844,-4.266666666666667,-490.6666666666667,-6.4
845,-6.4,-484.26666666666665,-6.4
846,-17.066666666666666,-473.59999999999997,-10.666666666666666
847,-14.933333333333334,-475.73333333333335,0.0
848,-25.6,-475.73333333333335,-4.266666666666667
849,-21.333333333333332,-484.26666666666665,-4.266666666666667
850,-14.933333333333334,-490.6666666666667,-10.666666666666666
851,-17.066666666666666,-501.3333333333333,2.1333333333333333
852,-14.933333333333334,-518.4,0.0
853,-12.8,-531.2,0.0
854,-25.6,-533.3333333333334,-8.533333333333333
855,-17.066666666666666,-554.6666666666666,12.8
856,-17.066666666666666,-565.3333333333334,14.933333333333334
857,-19.2,-567.4666666666667,8.533333333333333
858,-25.6,-565.3333333333334,6.4
859,-27.733333333333334,-563.2,4.266666666666667
860,-29.866666666666667,-552.5333333333333,2.1333333333333333
861,-36.266666666666666,-539.7333333333333,4.266666666666667
862,-40.53333333333333,-535.4666666666667,0.0
863,-32.0,-520.5333333333333,-4.266666666666667
864,-38.4,-503.46666666666664,17.066666666666666
865,-36.266666666666666,-518.4,38.4
866,-34.13333333333333,-477.8666666666667,49.06666666666666
867,-49.06666666666666,-465.06666666666666,55.46666666666667
868,-44.8,-467.2,53.333333333333336
869,-36.266666666666666,-471.46666666666664,49.06666666666666
870,-38.4,-490.6666666666667,40.53333333333333
871,-34.13333333333333,-514.1333333333333,17.066666666666666
872,-34.13333333333333,-552.5333333333333,-2.1333333333333333
873,-32.0,-582.4,-25.6
874,-27.733333333333334,-627.2,-55.46666666666667
875,-21.333333333333332,-661.3333333333334,-66.13333333333333
876,-12.8,-695.4666666666667,-89.6
877,-36.266666666666666,-686.9333333333333,-123.73333333333333
878,-59.733333333333334,-678.4,-128.0
879,-85.33333333333333,-665.6,-104.53333333333333
880,-102.4,-659.2,-64.0
881,-113.06666666666666,-644.2666666666667,-42.666666666666664
882,-128.0,-618.6666666666666,-17.066666666666666
883,-153.6,-593.0666666666666,-6.4
884,-166.4,-548.2666666666667,-8.533333333333333
885,-179.2,-516.2666666666667,-8.533333333333333
886,-217.6,-465.06666666666666,-21.333333333333332
887,-209.06666666666666,-411.73333333333335,2.1333333333333333
888,-209.06666666666666,-401.06666666666666,2.1333333333333333
889,-211.2,-384.0,6.4
890,-230.4,-371.2,12.8
891,-247.46666666666667,-373.3333333333333,17.066666666666666
892,-256.0,-379.73333333333335,27.733333333333334
893,-262.4,-394.6666666666667,42.666666666666664
894,-275.2,-407.46666666666664,38.4
895,-290.1333333333333,-430.93333333333334,51.2
896,-298.6666666666667,-448.0,55.46666666666667
897,-315.73333333333335,-435.2,40.53333333333333
898,-315.73333333333335,-454.4,42.666666666666664
899,-317.8666666666667,-454.4,53.333333333333336
900,-328.5333333333333,-441.59999999999997,44.8
901,-324.26666666666665,-428.8,51.2
902,-317.8666666666667,-413.8666666666667,59.733333333333334
903,-328.5333333333333,-388.26666666666665,57.6
904,-322.1333333333333,-358.4,57.6
905,-339.2,-328.5333333333333,51.2
906,-334.93333333333334,-309.3333333333333,51.2
907,-341.3333333333333,-275.2,59.733333333333334
908,-360.5333333333333,-238.93333333333334,55.46666666666667
909,-369.06666666666666,-251.73333333333332,59.733333333333334
910,-375.46666666666664,-245.33333333333334,51.2
911,-392.5333333333333,-245.33333333333334,61.86666666666667
912,-409.6,-258.1333333333333,61.86666666666667
913,-413.8666666666667,-275.2,70.4
914,-426.6666666666667,-290.1333333333333,57.6
915,-428.8,-313.6,38.4
916,-433.06666666666666,-324.26666666666665,38.4
917,-443.73333333333335,-324.26666666666665,29.866666666666667
918,-443.73333333333335,-326.4,34.13333333333333
919,-469.3333333333333,-326.4,23.466666666666665
920,-450.1333333333333,-322.1333333333333,-4.266666666666667
921,-445.8666666666667,-302.93333333333334,-2.1333333333333333
922,-445.8666666666667,-283.73333333333335,0.0
923,-448.0,-266.6666666666667,0.0
924,-467.2,-243.2,-17.066666666666666
925,-482.1333333333333,-215.46666666666667,-12.8
926,-490.6666666666667,-181.33333333333334,-27.733333333333334
927,-497.06666666666666,-134.4,-34.13333333333333
928,-512.0,-123.73333333333333,-23.466666666666665
929,-501.3333333333333,-108.8,-49.06666666666666
930,-501.3333333333333,-102.4,-66.13333333333333
931,-518.4,-96.0,-64.0
932,-518.4,-93.86666666666666,-66.13333333333333
933,-522.6666666666666,-108.8,-76.8
934,-526.9333333333333,-117.33333333333333,-76.8
935,-522.6666666666666,-134.4,-66.13333333333333
936,-520.5333333333333,-151.46666666666667,-78.93333333333334
937,-501.3333333333333,-168.53333333333333,-70.4
938,-492.8,-187.73333333333332,-70.4
939,-488.5333333333333,-206.93333333333334,-83.2
940,-473.59999999999997,-221.86666666666667,-100.26666666666667
941,-477.8666666666667,-236.79999999999998,-89.6
942,-469.3333333333333,-253.86666666666667,-74.66666666666667
943,-477.8666666666667,-264.5333333333333,-57.6
944,-484.26666666666665,-262.4,-51.2
945,-494.93333333333334,-266.6666666666667,-51.2
946,-518.4,-256.0,-66.13333333333333
947,-526.9333333333333,-241.06666666666666,-74.66666666666667
948,-533.3333333333334,-215.46666666666667,-66.13333333333333
949,-548.2666666666667,-204.8,-42.666666666666664
950,-539.7333333333333,-189.86666666666667,-42.666666666666664
951,-539.7333333333333,-181.33333333333334,-23.466666666666665
952,-539.7333333333333,-170.66666666666666,2.1333333333333333
953,-516.2666666666667,-174.93333333333334,6.4
954,-505.59999999999997,-166.4,8.533333333333333
955,-505.59999999999997,-164.26666666666665,19.2
956,-503.46666666666664,-160.0,23.466666666666665
957,-514.1333333333333,-153.6,34.13333333333333
958,-526.9333333333333,-151.46666666666667,49.06666666666666
959,-518.4,-140.8,53.333333333333336
960,-531.2,-132.26666666666665,61.86666666666667
961,-541.8666666666667,-134.4,70.4
962,-531.2,-125.86666666666666,51.2
963,-556.8,-115.2,87.46666666666667
964,-563.2,-110.93333333333334,102.4
965,-576.0,-113.06666666666666,123.73333333333333
966,-576.0,-119.46666666666667,136.53333333333333
967,-578.1333333333333,-117.33333333333333,160.0
968,-588.8,-83.2,202.66666666666666
969,-612.2666666666667,-57.6,256.0
970,-699.7333333333333,4.266666666666667,326.4
971,-778.6666666666666,108.8,362.6666666666667
972,-844.8,219.73333333333332,384.0
973,-896.0,332.8,418.1333333333333
974,-989.8666666666667,369.06666666666666,443.73333333333335
975,-1019.7333333333333,283.73333333333335,375.46666666666664
976,-1000.5333333333333,145.06666666666666,283.73333333333335
977,-960.0,-6.4,185.6
978,-855.4666666666667,-85.33333333333333,140.8
979,-714.6666666666666,-76.8,106.66666666666667
980,-578.1333333333333,-66.13333333333333,160.0
981,-456.5333333333333,-38.4,320.0
982,-339.2,25.6,448.0
983,-251.73333333333332,81.06666666666666,486.4
984,-221.86666666666667,162.13333333333333,386.1333333333333
985,-206.93333333333334,192.0,285.8666666666667
986,-232.53333333333333,153.6,219.73333333333332
987,-243.2,96.0,187.73333333333332
988,-219.73333333333332,51.2,151.46666666666667
989,-202.66666666666666,6.4,138.66666666666666
990,-204.8,-23.466666666666665,136.53333333333333
991,-217.6,-55.46666666666667,162.13333333333333
992,-264.5333333333333,-91.73333333333333,200.53333333333333
993,-305.06666666666666,-100.26666666666667,234.66666666666666
994,-352.0,-55.46666666666667,241.06666666666666
995,-386.1333333333333,-51.2,283.73333333333335
996,-426.6666666666667,-21.333333333333332,322.1333333333333
997,-445.8666666666667,6.4,354.1333333333333
998,-448.0,14.933333333333334,379.73333333333335
999,-448.0,38.4,405.3333333333333
1000,-458.6666666666667,76.8,409.6
1001,-460.8,93.86666666666666,401.06666666666666
1002,-471.46666666666664,132.26666666666665,405.3333333333333
1003,-486.4,147.2,407.46666666666664
1004,-462.93333333333334,153.6,403.2
1005,-435.2,123.73333333333333,405.3333333333333
1006,-426.6666666666667,134.4,388.26666666666665
1007,-403.2,104.53333333333333,401.06666666666666
1008,-390.4,59.733333333333334,386.1333333333333
1009,-362.6666666666667,19.2,371.2
1010,-345.6,-14.933333333333334,349.8666666666667
1011,-332.8,-57.6,334.93333333333334
1012,-328.5333333333333,-78.93333333333334,313.6
1013,-315.73333333333335,-91.73333333333333,302.93333333333334
1014,-320.0,-102.4,285.8666666666667
1015,-322.1333333333333,-98.13333333333333,296.5333333333333
1016,-349.8666666666667,-110.93333333333334,354.1333333333333
1017,-358.4,-106.66666666666667,309.3333333333333
1018,-373.3333333333333,-81.06666666666666,313.6
1019,-375.46666666666664,-68.26666666666667,315.73333333333335
1020,-396.8,-44.8,309.3333333333333
1021,-388.26666666666665,-42.666666666666664,313.6
1022,-405.3333333333333,-23.466666666666665,328.5333333333333
1023,-381.8666666666667,-21.333333333333332,332.8
1024,-377.6,0.0,322.1333333333333
1025,-377.6,0.0,322.1333333333333
1026,-392.5333333333333,-2.1333333333333333,332.8
1027,-379.73333333333335,2.1333333333333333,305.06666666666666
1028,-392.5333333333333,-6.4,341.3333333333333
1029,-403.2,-12.8,332.8
1030,-405.3333333333333,-12.8,322.1333333333333
1031,-403.2,-21.333333333333332,320.0
1032,-405.3333333333333,-12.8,320.0
1033,-403.2,-29.866666666666667,315.73333333333335
1034,-403.2,-34.13333333333333,309.3333333333333
1035,-401.06666666666666,-42.666666666666664,307.2
1036,-394.6666666666667,-40.53333333333333,317.8666666666667
1037,-394.6666666666667,-44.8,311.46666666666664
1038,-403.2,-32.0,307.2
1039,-388.26666666666665,-38.4,315.73333333333335
1040,-388.26666666666665,-34.13333333333333,315.73333333333335
1041,-390.4,-38.4,315.73333333333335
1042,-401.06666666666666,-25.6,324.26666666666665
1043,-394.6666666666667,-27.733333333333334,322.1333333333333
1044,-396.8,-25.6,339.2
1045,-401.06666666666666,-21.333333333333332,332.8
1046,-405.3333333333333,-14.933333333333334,334.93333333333334
1047,-403.2,-19.2,328.5333333333333
1048,-403.2,-19.2,313.6
1049,-403.2,-23.466666666666665,320.0
1050,-398.93333333333334,-27.733333333333334,302.93333333333334
1051,-396.8,-40.53333333333333,309.3333333333333
1052,-407.46666666666664,-51.2,311.46666666666664
1053,-401.06666666666666,-57.6,309.3333333333333
1054,-401.06666666666666,-66.13333333333333,324.26666666666665
1055,-403.2,-68.26666666666667,324.26666666666665
1056,-388.26666666666665,-70.4,330.6666666666667
1057,-388.26666666666665,-74.66666666666667,311.46666666666664
1058,-405.3333333333333,-74.66666666666667,313.6
1059,-467.2,-83.2,302.93333333333334
1060,-465.06666666666666,-53.333333333333336,260.26666666666665
1061,-450.1333333333333,-57.6,273.06666666666666
1062,-450.1333333333333,-59.733333333333334,253.86666666666667
1063,-456.5333333333333,-61.86666666666667,245.33333333333334
1064,-445.8666666666667,-70.4,241.06666666666666
1065,-437.3333333333333,-85.33333333333333,238.93333333333334
1066,-420.26666666666665,-119.46666666666667,230.4
1067,-405.3333333333333,-123.73333333333333,230.4
1068,-409.6,-147.2,247.46666666666667
1069,-403.2,-149.33333333333334,236.79999999999998
1070,-439.46666666666664,-149.33333333333334,243.2
1071,-418.1333333333333,-140.8,247.46666666666667
1072,-430.93333333333334,-125.86666666666666,251.73333333333332
1073,-443.73333333333335,-104.53333333333333,238.93333333333334
1074,-443.73333333333335,-89.6,238.93333333333334
1075,-460.8,-68.26666666666667,228.26666666666665
1076,-465.06666666666666,-57.6,230.4
1077,-484.26666666666665,-46.93333333333333,219.73333333333332
1078,-484.26666666666665,-36.266666666666666,230.4
1079,-503.46666666666664,-34.13333333333333,226.13333333333333
1080,-520.5333333333333,-23.466666666666665,228.26666666666665
1081,-512.0,-21.333333333333332,219.73333333333332
1082,-533.3333333333334,-21.333333333333332,196.26666666666665
1083,-533.3333333333334,-17.066666666666666,189.86666666666667
1084,-529.0666666666666,-8.533333333333333,183.46666666666667
1085,-520.5333333333333,-23.466666666666665,179.2
1086,-509.8666666666667,-36.266666666666666,174.93333333333334
1087,-505.59999999999997,-44.8,166.4
1088,-514.1333333333333,-49.06666666666666,174.93333333333334
1089,-518.4,-66.13333333333333,164.26666666666665
1090,-520.5333333333333,-68.26666666666667,162.13333333333333
1091,-520.5333333333333,-76.8,160.0
1092,-512.0,-83.2,153.6
1093,-537.6,-81.06666666666666,147.2
1094,-546.1333333333333,-72.53333333333333,151.46666666666667
1095,-552.5333333333333,-74.66666666666667,149.33333333333334
1096,-552.5333333333333,-61.86666666666667,151.46666666666667
1097,-552.5333333333333,-44.8,160.0
1098,-554.6666666666666,-32.0,151.46666666666667
1099,-569.6,-23.466666666666665,147.2
1100,-561.0666666666666,-8.533333333333333,138.66666666666666
1101,-558.9333333333333,-6.4,136.53333333333333
1102,-569.6,-2.1333333333333333,138.66666666666666
1103,-580.2666666666667,4.266666666666667,142.93333333333334
1104,-548.2666666666667,-17.066666666666666,140.8
1105,-541.8666666666667,-27.733333333333334,153.6
1106,-537.6,-27.733333333333334,153.6
1107,-546.1333333333333,-46.93333333333333,166.4
1108,-535.4666666666667,-61.86666666666667,168.53333333333333
1109,-529.0666666666666,-68.26666666666667,170.66666666666666
1110,-531.2,-74.66666666666667,172.8
1111,-526.9333333333333,-85.33333333333333,172.8
1112,-524.8,-87.46666666666667,166.4
1113,-512.0,-98.13333333333333,157.86666666666667
1114,-516.2666666666667,-108.8,187.73333333333332
1115,-507.73333333333335,-96.0,162.13333333333333
1116,-501.3333333333333,-89.6,168.53333333333333
1117,-494.93333333333334,-87.46666666666667,168.53333333333333
1118,-490.6666666666667,-68.26666666666667,162.13333333333333
1119,-497.06666666666666,-64.0,170.66666666666666
1120,-494.93333333333334,-55.46666666666667,168.53333333333333
1121,-494.93333333333334,-57.6,170.66666666666666
1122,-501.3333333333333,-51.2,162.13333333333333
1123,-494.93333333333334,-38.4,162.13333333333333
1124,-509.8666666666667,-46.93333333333333,179.2
1125,-505.59999999999997,-51.2,187.73333333333332
1126,-507.73333333333335,-49.06666666666666,174.93333333333334
1127,-512.0,-55.46666666666667,179.2
1128,-522.6666666666666,-55.46666666666667,179.2
1129,-522.6666666666666,-64.0,179.2
1130,-522.6666666666666,-68.26666666666667,160.0
1131,-533.3333333333334,-68.26666666666667,174.93333333333334
1132,-531.2,-59.733333333333334,172.8
1133,-537.6,-68.26666666666667,170.66666666666666
1134,-531.2,-72.53333333333333,172.8
1135,-524.8,-74.66666666666667,164.26666666666665
1136,-501.3333333333333,-83.2,174.93333333333334
1137,-516.2666666666667,-70.4,157.86666666666667
1138,-507.73333333333335,-72.53333333333333,160.0
1139,-507.73333333333335,-78.93333333333334,160.0
1140,-507.73333333333335,-70.4,157.86666666666667
1141,-512.0,-68.26666666666667,166.4
1142,-509.8666666666667,-61.86666666666667,155.73333333333332
1143,-516.2666666666667,-51.2,153.6
1144,-505.59999999999997,-64.0,151.46666666666667
1145,-522.6666666666666,-57.6,160.0
1146,-518.4,-55.46666666666667,155.73333333333332
1147,-505.59999999999997,-61.86666666666667,138.66666666666666
1148,-516.2666666666667,-53.333333333333336,149.33333333333334
1149,-516.2666666666667,-53.333333333333336,145.06666666666666
1150,-518.4,-59.733333333333334,149.33333333333334
1151,-518.4,-61.86666666666667,142.93333333333334
1152,-520.5333333333333,-57.6,149.33333333333334
1153,-514.1333333333333,-64.0,142.93333333333334
1154,-516.2666666666667,-78.93333333333334,140.8
1155,-518.4,-72.53333333333333,136.53333333333333
1156,-522.6666666666666,-83.2,140.8
1157,-531.2,-108.8,155.73333333333332
1158,-522.6666666666666,-87.46666666666667,138.66666666666666
1159,-524.8,-85.33333333333333,138.66666666666666
1160,-531.2,-76.8,134.4
1161,-524.8,-74.66666666666667,140.8
1162,-524.8,-57.6,145.06666666666666
1163,-533.3333333333334,-51.2,149.33333333333334
1164,-526.9333333333333,-46.93333333333333,145.06666666666666
1165,-524.8,-32.0,145.06666666666666
1166,-533.3333333333334,-38.4,153.6
1167,-516.2666666666667,-42.666666666666664,155.73333333333332
1168,-537.6,-32.0,108.8
1169,-529.0666666666666,-44.8,147.2
1170,-522.6666666666666,-46.93333333333333,145.06666666666666
1171,-522.6666666666666,-55.46666666666667,145.06666666666666
1172,-520.5333333333333,-55.46666666666667,142.93333333333334
1173,-516.2666666666667,-70.4,147.2
1174,-520.5333333333333,-66.13333333333333,151.46666666666667
1175,-524.8,-64.0,140.8
1176,-512.0,-72.53333333333333,151.46666666666667
1177,-514.1333333333333,-61.86666666666667,145.06666666666666
1178,-520.5333333333333,-68.26666666666667,147.2
1179,-533.3333333333334,-64.0,145.06666666666666
1180,-524.8,-68.26666666666667,153.6
1181,-516.2666666666667,-59.733333333333334,149.33333333333334
1182,-520.5333333333333,-61.86666666666667,149.33333333333334
1183,-518.4,-55.46666666666667,145.06666666666666
1184,-518.4,-57.6,151.46666666666667
1185,-518.4,-51.2,142.93333333333334
1186,-512.0,-49.06666666666666,157.86666666666667
1187,-514.1333333333333,-55.46666666666667,155.73333333333332
1188,-516.2666666666667,-55.46666666666667,149.33333333333334
1189,-522.6666666666666,-53.333333333333336,162.13333333333333
1190,-512.0,-14.933333333333334,149.33333333333334
1191,-518.4,-57.6,147.2
1192,-512.0,-57.6,140.8
1193,-520.5333333333333,-55.46666666666667,149.33333333333334
1194,-524.8,-51.2,142.93333333333334
1195,-520.5333333333333,-59.733333333333334,142.93333333333334
1196,-520.5333333333333,-59.733333333333334,157.86666666666667
1197,-520.5333333333333,-59.733333333333334,147.2
1198,-524.8,-64.0,155.73333333333332
1199,-518.4,-64.0,153.6
1200,-516.2666666666667,-59.733333333333334,157.86666666666667
1201,-507.73333333333335,-89.6,177.06666666666666
1202,-516.2666666666667,-64.0,153.6
1203,-518.4,-59.733333333333334,155.73333333333332
1204,-514.1333333333333,-61.86666666666667,160.0
1205,-516.2666666666667,-59.733333333333334,157.86666666666667
1206,-516.2666666666667,-55.46666666666667,149.33333333333334
1207,-514.1333333333333,-57.6,160.0
1208,-512.0,-49.06666666666666,153.6
1209,-512.0,-53.333333333333336,153.6
1210,-518.4,-46.93333333333333,147.2
1211,-520.5333333333333,-59.733333333333334,174.93333333333334
1212,-522.6666666666666,-68.26666666666667,179.2
1213,-518.4,-46.93333333333333,162.13333333333333
1214,-526.9333333333333,-49.06666666666666,151.46666666666667
1215,-524.8,-44.8,151.46666666666667
1216,-520.5333333333333,-55.46666666666667,157.86666666666667
1217,-514.1333333333333,-51.2,155.73333333333332
1218,-526.9333333333333,-46.93333333333333,151.46666666666667
1219,-516.2666666666667,-49.06666666666666,149.33333333333334
1220,-522.6666666666666,-49.06666666666666,147.2
1221,-514.1333333333333,-53.333333333333336,164.26666666666665
1222,-516.2666666666667,-44.8,160.0
1223,-520.5333333333333,-34.13333333333333,117.33333333333333
1224,-522.6666666666666,-40.53333333333333,145.06666666666666
1225,-520.5333333333333,-36.266666666666666,151.46666666666667
1226,-520.5333333333333,-40.53333333333333,151.46666666666667
1227,-520.5333333333333,-42.666666666666664,153.6
1228,-526.9333333333333,-34.13333333333333,151.46666666666667
1229,-522.6666666666666,-40.53333333333333,153.6
1230,-526.9333333333333,-36.266666666666666,160.0
1231,-516.2666666666667,-44.8,160.0
1232,-522.6666666666666,-36.266666666666666,155.73333333333332
1233,-514.1333333333333,-34.13333333333333,170.66666666666666
1234,-514.1333333333333,-32.0,125.86666666666666
1235,-520.5333333333333,-38.4,149.33333333333334
1236,-524.8,-42.666666666666664,160.0
1237,-520.5333333333333,-46.93333333333333,157.86666666666667
1238,-516.2666666666667,-42.666666666666664,147.2
1239,-516.2666666666667,-46.93333333333333,151.46666666666667
1240,-518.4,-44.8,157.86666666666667
1241,-516.2666666666667,-44.8,164.26666666666665
1242,-512.0,-57.6,162.13333333333333
1243,-512.0,-51.2,160.0
1244,-514.1333333333333,-44.8,157.86666666666667
1245,-492.8,-53.333333333333336,172.8
1246,-507.73333333333335,-46.93333333333333,164.26666666666665
1247,-518.4,-42.666666666666664,166.4
1248,-509.8666666666667,-42.666666666666664,168.53333333333333
1249,-507.73333333333335,-53.333333333333336,160.0
1250,-518.4,-53.333333333333336,155.73333333333332
1251,-514.1333333333333,-57.6,166.4
1252,-512.0,-59.733333333333334,160.0
1253,-503.46666666666664,-61.86666666666667,162.13333333333333
1254,-516.2666666666667,-61.86666666666667,162.13333333333333
1255,-499.2,-64.0,149.33333333333334
1256,-512.0,-55.46666666666667,162.13333333333333
1257,-507.73333333333335,-53.333333333333336,162.13333333333333
1258,-507.73333333333335,-57.6,166.4
1259,-514.1333333333333,-44.8,151.46666666666667
1260,-514.1333333333333,-53.333333333333336,160.0
1261,-509.8666666666667,-49.06666666666666,157.86666666666667
1262,-507.73333333333335,-53.333333333333336,160.0
1263,-507.73333333333335,-57.6,160.0
1264,-512.0,-46.93333333333333,157.86666666666667
1265,-516.2666666666667,-59.733333333333334,166.4
1266,-514.1333333333333,-61.86666666666667,219.73333333333332
1267,-512.0,-53.333333333333336,160.0
1268,-516.2666666666667,-57.6,157.86666666666667
1269,-516.2666666666667,-51.2,162.13333333333333
1270,-507.73333333333335,-57.6,164.26666666666665
1271,-514.1333333333333,-61.86666666666667,151.46666666666667
1272,-518.4,-55.46666666666667,157.86666666666667
1273,-514.1333333333333,-55.46666666666667,149.33333333333334
1274,-524.8,-51.2,140.8
1275,-516.2666666666667,-55.46666666666667,160.0
1276,-514.1333333333333,-55.46666666666667,145.06666666666666
1277,-486.4,-55.46666666666667,162.13333333333333
1278,-507.73333333333335,-59.733333333333334,160.0
1279,-516.2666666666667,-46.93333333333333,157.86666666666667
1280,-518.4,-44.8,160.0
1281,-518.4,-53.333333333333336,155.73333333333332
1282,-514.1333333333333,-53.333333333333336,149.33333333333334
1283,-516.2666666666667,-53.333333333333336,153.6
1284,-516.2666666666667,-44.8,160.0
1285,-514.1333333333333,-46.93333333333333,157.86666666666667
1286,-520.5333333333333,-46.93333333333333,160.0
1287,-509.8666666666667,-51.2,164.26666666666665
1288,-486.4,-32.0,153.6
1289,-516.2666666666667,-46.93333333333333,155.73333333333332
1290,-512.0,-51.2,149.33333333333334
1291,-516.2666666666667,-46.93333333333333,151.46666666666667
1292,-516.2666666666667,-51.2,157.86666666666667
1293,-514.1333333333333,-51.2,160.0
1294,-516.2666666666667,-55.46666666666667,153.6
1295,-516.2666666666667,-57.6,155.73333333333332
1296,-518.4,-53.333333333333336,157.86666666666667
1297,-516.2666666666667,-49.06666666666666,160.0
1298,-524.8,-49.06666666666666,162.13333333333333
1299,-503.46666666666664,-55.46666666666667,170.66666666666666
1300,-516.2666666666667,-44.8,160.0
1301,-516.2666666666667,-40.53333333333333,162.13333333333333
1302,-516.2666666666667,-36.266666666666666,157.86666666666667
1303,-514.1333333333333,-36.266666666666666,162.13333333333333
1304,-516.2666666666667,-46.93333333333333,155.73333333333332
1305,-516.2666666666667,-44.8,160.0
1306,-522.6666666666666,-53.333333333333336,157.86666666666667
1307,-518.4,-44.8,162.13333333333333
1308,-514.1333333333333,-42.666666666666664,157.86666666666667
1309,-520.5333333333333,-46.93333333333333,162.13333333333333
1310,-529.0666666666666,-38.4,151.46666666666667
1311,-512.0,-51.2,164.26666666666665
1312,-516.2666666666667,-49.06666666666666,160.0
1313,-512.0,-51.2,164.26666666666665
1314,-512.0,-55.46666666666667,160.0
1315,-516.2666666666667,-49.06666666666666,162.13333333333333
1316,-507.73333333333335,-55.46666666666667,164.26666666666665
1317,-514.1333333333333,-53.333333333333336,168.53333333333333
1318,-509.8666666666667,-55.46666666666667,160.0
1319,-516.2666666666667,-53.333333333333336,166.4
1320,-505.59999999999997,-40.53333333333333,149.33333333333334
1321,-516.2666666666667,-68.26666666666667,177.06666666666666
1322,-509.8666666666667,-49.06666666666666,153.6
1323,-512.0,-57.6,153.6
1324,-516.2666666666667,-53.333333333333336,160.0
1325,-514.1333333333333,-51.2,160.0
1326,-520.5333333333333,-44.8,157.86666666666667
1327,-514.1333333333333,-49.06666666666666,162.13333333333333
1328,-520.5333333333333,-46.93333333333333,162.13333333333333
1329,-512.0,-40.53333333333333,151.46666666666667
1330,-516.2666666666667,-40.53333333333333,162.13333333333333
1331,-526.9333333333333,-44.8,157.86666666666667
1332,-497.06666666666666,-19.2,145.06666666666666
1333,-518.4,-42.666666666666664,155.73333333333332
1334,-520.5333333333333,-44.8,157.86666666666667
1335,-514.1333333333333,-46.93333333333333,155.73333333333332
1336,-509.8666666666667,-53.333333333333336,160.0
1337,-509.8666666666667,-53.333333333333336,166.4
1338,-518.4,-51.2,157.86666666666667
1339,-518.4,-57.6,155.73333333333332
1340,-518.4,-44.8,157.86666666666667
1341,-514.1333333333333,-51.2,155.73333333333332
1342,-514.1333333333333,-57.6,151.46666666666667
1343,-509.8666666666667,-40.53333333333333,192.0
1344,-516.2666666666667,-51.2,160.0
1345,-516.2666666666667,-51.2,160.0
1346,-520.5333333333333,-49.06666666666666,155.73333333333332
1347,-518.4,-49.06666666666666,155.73333333333332
1348,-522.6666666666666,-44.8,164.26666666666665
1349,-520.5333333333333,-42.666666666666664,149.33333333333334
1350,-524.8,-38.4,160.0
1351,-522.6666666666666,-40.53333333333333,166.4
1352,-516.2666666666667,-42.666666666666664,162.13333333333333
1353,-518.4,-49.06666666666666,147.2
1354,-488.5333333333333,-57.6,181.33333333333334
1355,-522.6666666666666,-46.93333333333333,151.46666666666667
1356,-522.6666666666666,-49.06666666666666,153.6
1357,-520.5333333333333,-51.2,162.13333333333333
1358,-512.0,-55.46666666666667,155.73333333333332
1359,-524.8,-51.2,151.46666666666667
1360,-518.4,-49.06666666666666,149.33333333333334
1361,-516.2666666666667,-42.666666666666664,140.8
1362,-514.1333333333333,-53.333333333333336,140.8
1363,-512.0,-51.2,149.33333333333334
1364,-505.59999999999997,-53.333333333333336,170.66666666666666
1365,-518.4,-55.46666666666667,157.86666666666667
1366,-512.0,-53.333333333333336,153.6
1367,-520.5333333333333,-51.2,157.86666666666667
1368,-522.6666666666666,-53.333333333333336,160.0
1369,-518.4,-55.46666666666667,155.73333333333332
1370,-518.4,-51.2,155.73333333333332
1371,-516.2666666666667,-40.53333333333333,170.66666666666666
1372,-512.0,-51.2,155.73333333333332
1373,-514.1333333333333,-42.666666666666664,166.4
1374,-514.1333333333333,-46.93333333333333,160.0
1375,-509.8666666666667,-34.13333333333333,119.46666666666667
1376,-507.73333333333335,-51.2,155.73333333333332
1377,-518.4,-46.93333333333333,155.73333333333332
1378,-518.4,-57.6,149.33333333333334
1379,-514.1333333333333,-57.6,155.73333333333332
1380,-520.5333333333333,-57.6,155.73333333333332
1381,-512.0,-55.46666666666667,153.6
1382,-509.8666666666667,-55.46666666666667,149.33333333333334
1383,-509.8666666666667,-53.333333333333336,155.73333333333332
1384,-514.1333333333333,-44.8,164.26666666666665
1385,-516.2666666666667,-51.2,155.73333333333332
1386,-516.2666666666667,-61.86666666666667,168.53333333333333
1387,-516.2666666666667,-44.8,153.6
1388,-514.1333333333333,-46.93333333333333,160.0
1389,-516.2666666666667,-49.06666666666666,151.46666666666667
1390,-522.6666666666666,-40.53333333333333,157.86666666666667
1391,-520.5333333333333,-46.93333333333333,157.86666666666667
1392,-518.4,-42.666666666666664,157.86666666666667
1393,-514.1333333333333,-46.93333333333333,160.0
1394,-514.1333333333333,-51.2,149.33333333333334
1395,-518.4,-49.06666666666666,155.73333333333332
1396,-520.5333333333333,-49.06666666666666,172.8
1397,-529.0666666666666,-78.93333333333334,170.66666666666666
1398,-522.6666666666666,-46.93333333333333,147.2
1399,-520.5333333333333,-49.06666666666666,145.06666666666666
1400,-526.9333333333333,-49.06666666666666,147.2
1401,-516.2666666666667,-46.93333333333333,153.6
1402,-522.6666666666666,-44.8,157.86666666666667
1403,-518.4,-42.666666666666664,155.73333333333332
1404,-509.8666666666667,-38.4,153.6
1405,-520.5333333333333,-46.93333333333333,147.2
1406,-518.4,-51.2,147.2
1407,-514.1333333333333,-40.53333333333333,149.33333333333334
1408,-499.2,-66.13333333333333,151.46666666666667
1409,-514.1333333333333,-40.53333333333333,147.2
1410,-518.4,-51.2,153.6
1411,-518.4,-46.93333333333333,142.93333333333334
1412,-522.6666666666666,-53.333333333333336,147.2
1413,-522.6666666666666,-46.93333333333333,157.86666666666667
1414,-522.6666666666666,-51.2,145.06666666666666
1415,-514.1333333333333,-51.2,149.33333333333334
1416,-512.0,-46.93333333333333,151.46666666666667
1417,-520.5333333333333,-44.8,151.46666666666667
1418,-512.0,-46.93333333333333,140.8
1419,-501.3333333333333,-57.6,198.4
1420,-520.5333333333333,-42.666666666666664,147.2
1421,-520.5333333333333,-46.93333333333333,155.73333333333332
1422,-522.6666666666666,-44.8,153.6
1423,-522.6666666666666,-44.8,147.2
1424,-520.5333333333333,-53.333333333333336,151.46666666666667
1425,-520.5333333333333,-53.333333333333336,151.46666666666667
1426,-516.2666666666667,-53.333333333333336,149.33333333333334
1427,-512.0,-53.333333333333336,149.33333333333334
1428,-518.4,-57.6,151.46666666666667
1429,-516.2666666666667,-61.86666666666667,149.33333333333334
1430,-541.8666666666667,-66.13333333333333,155.73333333333332
1431,-516.2666666666667,-55.46666666666667,151.46666666666667
1432,-516.2666666666667,-57.6,151.46666666666667
1433,-522.6666666666666,-51.2,151.46666666666667
1434,-514.1333333333333,-46.93333333333333,147.2
1435,-520.5333333333333,-38.4,155.73333333333332
1436,-516.2666666666667,-38.4,153.6
1437,-507.73333333333335,-38.4,151.46666666666667
1438,-522.6666666666666,-38.4,145.06666666666666
1439,-529.0666666666666,-46.93333333333333,151.46666666666667
1440,-520.5333333333333,-42.666666666666664,151.46666666666667
1441,-537.6,-49.06666666666666,123.73333333333333
1442,-529.0666666666666,-51.2,138.66666666666666
1443,-524.8,-59.733333333333334,153.6
1444,-524.8,-61.86666666666667,149.33333333333334
1445,-520.5333333333333,-55.46666666666667,153.6
1446,-526.9333333333333,-55.46666666666667,155.73333333333332
1447,-516.2666666666667,-55.46666666666667,157.86666666666667
1448,-526.9333333333333,-64.0,151.46666666666667
1449,-509.8666666666667,-66.13333333333333,149.33333333333334
1450,-518.4,-57.6,153.6
1451,-514.1333333333333,-55.46666666666667,160.0
1452,-507.73333333333335,-68.26666666666667,155.73333333333332
1453,-514.1333333333333,-46.93333333333333,151.46666666666667
1454,-514.1333333333333,-44.8,160.0
1455,-514.1333333333333,-42.666666666666664,157.86666666666667
1456,-518.4,-44.8,155.73333333333332
1457,-518.4,-44.8,151.46666666666667
1458,-520.5333333333333,-44.8,153.6
1459,-509.8666666666667,-44.8,151.46666666666667
1460,-509.8666666666667,-53.333333333333336,149.33333333333334
1461,-512.0,-51.2,155.73333333333332
1462,-518.4,-59.733333333333334,160.0
1463,-499.2,-46.93333333333333,140.8
1464,-501.3333333333333,-72.53333333333333,185.6
1465,-516.2666666666667,-57.6,153.6
1466,-518.4,-51.2,149.33333333333334
1467,-516.2666666666667,-51.2,160.0
1468,-524.8,-49.06666666666666,149.33333333333334
1469,-524.8,-46.93333333333333,157.86666666666667
1470,-516.2666666666667,-38.4,151.46666666666667
1471,-524.8,-44.8,155.73333333333332
1472,-524.8,-42.666666666666664,153.6
1473,-533.3333333333334,-49.06666666666666,164.26666666666665
1474,-520.5333333333333,-42.666666666666664,160.0
1475,-516.2666666666667,-40.53333333333333,151.46666666666667
1476,-514.1333333333333,-44.8,153.6
1477,-514.1333333333333,-51.2,151.46666666666667
1478,-518.4,-51.2,151.46666666666667
1479,-518.4,-59.733333333333334,157.86666666666667
1480,-509.8666666666667,-57.6,157.86666666666667
1481,-516.2666666666667,-49.06666666666666,151.46666666666667
1482,-512.0,-49.06666666666666,157.86666666666667
1483,-516.2666666666667,-74.66666666666667,164.26666666666665
1484,-533.3333333333334,-70.4,170.66666666666666
1485,-518.4,-51.2,162.13333333333333
1486,-518.4,-46.93333333333333,155.73333333333332
1487,-516.2666666666667,-49.06666666666666,153.6
1488,-516.2666666666667,-46.93333333333333,149.33333333333334
1489,-514.1333333333333,-51.2,151.46666666666667
1490,-514.1333333333333,-51.2,157.86666666666667
1491,-518.4,-44.8,157.86666666666667
1492,-514.1333333333333,-51.2,145.06666666666666
1493,-520.5333333333333,-46.93333333333333,155.73333333333332
1494,-516.2666666666667,-51.2,170.66666666666666
1495,-518.4,-68.26666666666667,177.06666666666666
1496,-514.1333333333333,-57.6,155.73333333333332
1497,-516.2666666666667,-53.333333333333336,151.46666666666667
1498,-518.4,-55.46666666666667,160.0
1499,-520.5333333333333,-55.46666666666667,164.26666666666665
1500,-520.5333333333333,-51.2,157.86666666666667
1501,-512.0,-49.06666666666666,153.6
1502,-514.1333333333333,-51.2,153.6
1503,-509.8666666666667,-49.06666666666666,151.46666666666667
1504,-505.59999999999997,-40.53333333333333,153.6
1505,-531.2,-42.666666666666664,149.33333333333334
1506,-533.3333333333334,-19.2,115.2
1507,-512.0,-53.333333333333336,155.73333333333332
1508,-512.0,-53.333333333333336,151.46666666666667
1509,-512.0,-55.46666666666667,155.73333333333332
1510,-518.4,-57.6,153.6
1511,-514.1333333333333,-57.6,155.73333333333332
1512,-516.2666666666667,-59.733333333333334,155.73333333333332
1513,-507.73333333333335,-53.333333333333336,151.46666666666667
1514,-497.06666666666666,-53.333333333333336,157.86666666666667
1515,-516.2666666666667,-53.333333333333336,160.0
1516,-507.73333333333335,-55.46666666666667,155.73333333333332
1517,-546.1333333333333,-68.26666666666667,174.93333333333334
1518,-518.4,-49.06666666666666,162.13333333333333
1519,-514.1333333333333,-51.2,166.4
1520,-512.0,-55.46666666666667,155.73333333333332
1521,-518.4,-46.93333333333333,151.46666666666667
1522,-520.5333333333333,-46.93333333333333,157.86666666666667
1523,-516.2666666666667,-51.2,157.86666666666667
1524,-514.1333333333333,-53.333333333333336,168.53333333333333
1525,-520.5333333333333,-49.06666666666666,162.13333333333333
1526,-512.0,-49.06666666666666,147.2
1527,-514.1333333333333,-44.8,155.73333333333332
1528,-548.2666666666667,-68.26666666666667,160.0
1529,-509.8666666666667,-53.333333333333336,149.33333333333334
1530,-524.8,-53.333333333333336,155.73333333333332
1531,-509.8666666666667,-49.06666666666666,155.73333333333332
1532,-512.0,-51.2,157.86666666666667
1533,-512.0,-53.333333333333336,151.46666666666667
1534,-520.5333333333333,-53.333333333333336,151.46666666666667
1535,-518.4,-53.333333333333336,151.46666666666667
1536,-514.1333333333333,-49.06666666666666,157.86666666666667
1537,-520.5333333333333,-46.93333333333333,164.26666666666665
1538,-512.0,-49.06666666666666,151.46666666666667
1539,-503.46666666666664,-38.4,132.26666666666665
1540,-516.2666666666667,-49.06666666666666,166.4
1541,-512.0,-44.8,160.0
1542,-514.1333333333333,-51.2,157.86666666666667
1543,-522.6666666666666,-42.666666666666664,157.86666666666667
1544,-518.4,-42.666666666666664,155.73333333333332
1545,-516.2666666666667,-46.93333333333333,155.73333333333332
1546,-514.1333333333333,-53.333333333333336,155.73333333333332
1547,-516.2666666666667,-44.8,153.6
1548,-516.2666666666667,-55.46666666666667,149.33333333333334
1549,-524.8,-46.93333333333333,155.73333333333332
1550,-544.0,-40.53333333333333,140.8
1551,-514.1333333333333,-51.2,153.6
1552,-518.4,-57.6,149.33333333333334
1553,-522.6666666666666,-49.06666666666666,151.46666666666667
1554,-518.4,-55.46666666666667,164.26666666666665
1555,-518.4,-51.2,157.86666666666667
1556,-520.5333333333333,-36.266666666666666,160.0
1557,-514.1333333333333,-49.06666666666666,160.0
1558,-518.4,-51.2,155.73333333333332
1559,-518.4,-29.866666666666667,164.26666666666665
1560,-520.5333333333333,-57.6,168.53333333333333
1561,-516.2666666666667,-40.53333333333333,160.0
1562,-518.4,-42.666666666666664,155.73333333333332
1563,-518.4,-55.46666666666667,155.73333333333332
1564,-516.2666666666667,-53.333333333333336,149.33333333333334
1565,-520.5333333333333,-55.46666666666667,160.0
1566,-518.4,-53.333333333333336,164.26666666666665
1567,-507.73333333333335,-46.93333333333333,151.46666666666667
1568,-514.1333333333333,-53.333333333333336,145.06666666666666
1569,-512.0,-49.06666666666666,153.6
1570,-509.8666666666667,-55.46666666666667,162.13333333333333
1571,-494.93333333333334,-53.333333333333336,172.8
1572,-512.0,-51.2,153.6
1573,-514.1333333333333,-55.46666666666667,160.0
1574,-512.0,-55.46666666666667,160.0
1575,-516.2666666666667,-57.6,162.13333333333333
1576,-509.8666666666667,-53.333333333333336,157.86666666666667
1577,-514.1333333333333,-51.2,162.13333333333333
1578,-516.2666666666667,-42.666666666666664,155.73333333333332
1579,-512.0,-51.2,153.6
1580,-518.4,-49.06666666666666,168.53333333333333
1581,-520.5333333333333,-51.2,162.13333333333333
1582,-503.46666666666664,-44.8,189.86666666666667
1583,-518.4,-42.666666666666664,155.73333333333332
1584,-516.2666666666667,-46.93333333333333,160.0
1585,-518.4,-46.93333333333333,162.13333333333333
1586,-514.1333333333333,-51.2,153.6
1587,-514.1333333333333,-42.666666666666664,153.6
1588,-516.2666666666667,-42.666666666666664,162.13333333333333
1589,-518.4,-51.2,160.0
1590,-522.6666666666666,-44.8,160.0
1591,-518.4,-59.733333333333334,160.0
1592,-514.1333333333333,-57.6,142.93333333333334
1593,-518.4,-85.33333333333333,181.33333333333334
1594,-512.0,-59.733333333333334,153.6
1595,-512.0,-53.333333333333336,153.6
1596,-516.2666666666667,-49.06666666666666,153.6
1597,-512.0,-57.6,155.73333333333332
1598,-514.1333333333333,-53.333333333333336,160.0
1599,-516.2666666666667,-49.06666666666666,151.46666666666667
1600,-520.5333333333333,-49.06666666666666,166.4
1601,-520.5333333333333,-49.06666666666666,153.6
1602,-516.2666666666667,-44.8,157.86666666666667
1603,-526.9333333333333,-36.266666666666666,164.26666666666665
1604,-520.5333333333333,-46.93333333333333,170.66666666666666
1605,-518.4,-49.06666666666666,164.26666666666665
1606,-518.4,-46.93333333333333,162.13333333333333
1607,-520.5333333333333,-44.8,164.26666666666665
1608,-522.6666666666666,-42.666666666666664,160.0
1609,-514.1333333333333,-46.93333333333333,157.86666666666667
1610,-512.0,-38.4,155.73333333333332
1611,-522.6666666666666,-40.53333333333333,153.6
1612,-507.73333333333335,-42.666666666666664,160.0
1613,-512.0,-42.666666666666664,166.4
1614,-514.1333333333333,-40.53333333333333,155.73333333333332
1615,-497.06666666666666,-81.06666666666666,177.06666666666666
1616,-512.0,-51.2,147.2
1617,-509.8666666666667,-49.06666666666666,147.2
1618,-516.2666666666667,-42.666666666666664,162.13333333333333
1619,-512.0,-49.06666666666666,155.73333333333332
1620,-516.2666666666667,-51.2,157.86666666666667
1621,-520.5333333333333,-46.93333333333333,157.86666666666667
1622,-514.1333333333333,-42.666666666666664,147.2
1623,-512.0,-36.266666666666666,162.13333333333333
1624,-509.8666666666667,-46.93333333333333,157.86666666666667
1625,-520.5333333333333,-32.0,157.86666666666667
1626,-539.7333333333333,-27.733333333333334,164.26666666666665
1627,-512.0,-36.266666666666666,162.13333333333333
1628,-512.0,-44.8,160.0
1629,-514.1333333333333,-34.13333333333333,162.13333333333333
1630,-516.2666666666667,-38.4,168.53333333333333
1631,-509.8666666666667,-40.53333333333333,162.13333333333333
1632,-516.2666666666667,-44.8,153.6
1633,-520.5333333333333,-36.266666666666666,166.4
1634,-514.1333333333333,-36.266666666666666,162.13333333333333
1635,-514.1333333333333,-34.13333333333333,157.86666666666667
1636,-520.5333333333333,-36.266666666666666,160.0
1637,-512.0,-27.733333333333334,138.66666666666666
1638,-518.4,-42.666666666666664,160.0
1639,-524.8,-42.666666666666664,160.0
1640,-522.6666666666666,-42.666666666666664,160.0
1641,-524.8,-49.06666666666666,153.6
1642,-514.1333333333333,-51.2,162.13333333333333
1643,-520.5333333333333,-57.6,164.26666666666665
1644,-520.5333333333333,-55.46666666666667,168.53333333333333
1645,-518.4,-42.666666666666664,168.53333333333333
1646,-518.4,-46.93333333333333,168.53333333333333
1647,-516.2666666666667,-53.333333333333336,168.53333333333333
1648,-518.4,-70.4,183.46666666666667
1649,-507.73333333333335,-40.53333333333333,160.0
1650,-516.2666666666667,-49.06666666666666,162.13333333333333
1651,-514.1333333333333,-44.8,157.86666666666667
1652,-509.8666666666667,-55.46666666666667,155.73333333333332
1653,-514.1333333333333,-55.46666666666667,164.26666666666665
1654,-514.1333333333333,-55.46666666666667,155.73333333333332
1655,-516.2666666666667,-53.333333333333336,155.73333333333332
1656,-522.6666666666666,-51.2,155.73333333333332
1657,-514.1333333333333,-61.86666666666667,160.0
1658,-514.1333333333333,-53.333333333333336,160.0
1659,-503.46666666666664,-66.13333333333333,170.66666666666666
1660,-514.1333333333333,-55.46666666666667,168.53333333333333
1661,-512.0,-42.666666666666664,166.4
1662,-516.2666666666667,-46.93333333333333,164.26666666666665
1663,-516.2666666666667,-44.8,157.86666666666667
1664,-507.73333333333335,-53.333333333333336,162.13333333333333
1665,-505.59999999999997,-42.666666666666664,164.26666666666665
1666,-507.73333333333335,-55.46666666666667,157.86666666666667
1667,-512.0,-53.333333333333336,172.8
1668,-512.0,-55.46666666666667,162.13333333333333
1669,-520.5333333333333,-70.4,174.93333333333334
1670,-509.8666666666667,-55.46666666666667,164.26666666666665
1671,-516.2666666666667,-55.46666666666667,155.73333333333332
1672,-514.1333333333333,-57.6,155.73333333333332
1673,-514.1333333333333,-51.2,149.33333333333334
1674,-516.2666666666667,-53.333333333333336,151.46666666666667
1675,-514.1333333333333,-55.46666666666667,153.6
1676,-512.0,-55.46666666666667,157.86666666666667
1677,-516.2666666666667,-61.86666666666667,153.6
1678,-505.59999999999997,-55.46666666666667,151.46666666666667
1679,-512.0,-59.733333333333334,153.6
1680,-492.8,-70.4,187.73333333333332
1681,-514.1333333333333,-51.2,153.6
1682,-520.5333333333333,-44.8,162.13333333333333
1683,-520.5333333333333,-38.4,162.13333333333333
1684,-518.4,-40.53333333333333,160.0
1685,-522.6666666666666,-36.266666666666666,151.46666666666667
1686,-524.8,-36.266666666666666,160.0
1687,-514.1333333333333,-42.666666666666664,155.73333333333332
1688,-524.8,-38.4,151.46666666666667
1689,-522.6666666666666,-32.0,151.46666666666667
1690,-520.5333333333333,-34.13333333333333,145.06666666666666
1691,-535.4666666666667,-59.733333333333334,162.13333333333333
1692,-520.5333333333333,-38.4,145.06666666666666
1693,-520.5333333333333,-38.4,138.66666666666666
1694,-531.2,-38.4,151.46666666666667
1695,-533.3333333333334,-38.4,145.06666666666666
1696,-531.2,-32.0,142.93333333333334
1697,-539.7333333333333,-36.266666666666666,149.33333333333334
1698,-544.0,-36.266666666666666,147.2
1699,-535.4666666666667,-49.06666666666666,149.33333333333334
1700,-539.7333333333333,-36.266666666666666,134.4
1701,-537.6,-51.2,138.66666666666666
1702,-531.2,-72.53333333333333,145.06666666666666
1703,-531.2,-64.0,138.66666666666666
1704,-524.8,-66.13333333333333,132.26666666666665
1705,-520.5333333333333,-64.0,136.53333333333333
1706,-512.0,-76.8,136.53333333333333
1707,-509.8666666666667,-78.93333333333334,128.0
1708,-507.73333333333335,-87.46666666666667,130.13333333333333
1709,-505.59999999999997,-89.6,138.66666666666666
1710,-497.06666666666666,-93.86666666666666,157.86666666666667
1711,-486.4,-87.46666666666667,151.46666666666667
1712,-490.6666666666667,-87.46666666666667,162.13333333333333
1713,-509.8666666666667,-51.2,142.93333333333334
1714,-471.46666666666664,-89.6,170.66666666666666
1715,-475.73333333333335,-89.6,185.6
1716,-471.46666666666664,-78.93333333333334,194.13333333333333
1717,-460.8,-68.26666666666667,204.8
1718,-443.73333333333335,-51.2,204.8
1719,-445.8666666666667,-42.666666666666664,206.93333333333334
1720,-433.06666666666666,-29.866666666666667,217.6
1721,-433.06666666666666,-10.666666666666666,215.46666666666667
1722,-439.46666666666664,2.1333333333333333,200.53333333333333
1723,-448.0,14.933333333333334,204.8
1724,-445.8666666666667,-2.1333333333333333,215.46666666666667
1725,-477.8666666666667,-2.1333333333333333,198.4
1726,-492.8,0.0,198.4
1727,-501.3333333333333,-14.933333333333334,198.4
1728,-505.59999999999997,-25.6,198.4
1729,-509.8666666666667,-29.866666666666667,202.66666666666666
1730,-507.73333333333335,-46.93333333333333,213.33333333333334
1731,-486.4,-53.333333333333336,213.33333333333334
1732,-494.93333333333334,-64.0,226.13333333333333
1733,-477.8666666666667,-46.93333333333333,236.79999999999998
1734,-462.93333333333334,-57.6,236.79999999999998
1735,-454.4,-70.4,258.1333333333333
1736,-448.0,-21.333333333333332,228.26666666666665
1737,-443.73333333333335,4.266666666666667,226.13333333333333
1738,-448.0,14.933333333333334,219.73333333333332
1739,-445.8666666666667,27.733333333333334,198.4
1740,-456.5333333333333,36.266666666666666,196.26666666666665
1741,-460.8,46.93333333333333,196.26666666666665
1742,-465.06666666666666,42.666666666666664,185.6
1743,-469.3333333333333,38.4,211.2
1744,-480.0,44.8,221.86666666666667
1745,-499.2,36.266666666666666,213.33333333333334
1746,-497.06666666666666,44.8,211.2
1747,-522.6666666666666,49.06666666666666,217.6
1748,-518.4,49.06666666666666,219.73333333333332
1749,-518.4,57.6,217.6
1750,-537.6,57.6,198.4
1751,-533.3333333333334,53.333333333333336,202.66666666666666
1752,-537.6,53.333333333333336,200.53333333333333
1753,-546.1333333333333,42.666666666666664,196.26666666666665
1754,-569.6,44.8,192.0
1755,-561.0666666666666,29.866666666666667,185.6
1756,-565.3333333333334,25.6,185.6
1757,-550.4,8.533333333333333,172.8
1758,-558.9333333333333,8.533333333333333,162.13333333333333
1759,-552.5333333333333,2.1333333333333333,145.06666666666666
1760,-552.5333333333333,-12.8,138.66666666666666
1761,-548.2666666666667,-10.666666666666666,115.2
1762,-541.8666666666667,-19.2,91.73333333333333
1763,-535.4666666666667,-27.733333333333334,76.8
1764,-546.1333333333333,-42.666666666666664,61.86666666666667
1765,-554.6666666666666,-49.06666666666666,49.06666666666666
1766,-567.4666666666667,-61.86666666666667,29.866666666666667
1767,-563.2,-53.333333333333336,-2.1333333333333333
1768,-590.9333333333333,-74.66666666666667,2.1333333333333333
1769,-608.0,-68.26666666666667,2.1333333333333333
1770,-620.8,-70.4,-8.533333333333333
1771,-625.0666666666666,-66.13333333333333,-25.6
1772,-650.6666666666666,-57.6,-44.8
1773,-667.7333333333333,-51.2,-61.86666666666667
1774,-672.0,-40.53333333333333,-91.73333333333333
1775,-695.4666666666667,-27.733333333333334,-121.6
1776,-708.2666666666667,-17.066666666666666,-149.33333333333334
1777,-695.4666666666667,-4.266666666666667,-168.53333333333333
1778,-733.8666666666667,40.53333333333333,-217.6
1779,-721.0666666666666,2.1333333333333333,-200.53333333333333
1780,-712.5333333333333,10.666666666666666,-221.86666666666667
1781,-704.0,6.4,-238.93333333333334
1782,-689.0666666666666,8.533333333333333,-245.33333333333334
1783,-669.8666666666667,0.0,-256.0
1784,-654.9333333333333,-4.266666666666667,-266.6666666666667
1785,-646.4,-19.2,-270.93333333333334
1786,-646.4,-38.4,-264.5333333333333
1787,-629.3333333333334,-53.333333333333336,-256.0
1788,-622.9333333333333,-53.333333333333336,-256.0
1789,-612.2666666666667,-51.2,-238.93333333333334
1790,-597.3333333333334,-74.66666666666667,-241.06666666666666
1791,-588.8,-78.93333333333334,-230.4
1792,-588.8,-91.73333333333333,-217.6
1793,-580.2666666666667,-106.66666666666667,-206.93333333333334
1794,-580.2666666666667,-117.33333333333333,-187.73333333333332
1795,-580.2666666666667,-119.46666666666667,-168.53333333333333
1796,-576.0,-113.06666666666666,-157.86666666666667
1797,-578.1333333333333,-115.2,-142.93333333333334
1798,-573.8666666666667,-113.06666666666666,-125.86666666666666
1799,-563.2,-145.06666666666666,-78.93333333333334
1800,-571.7333333333333,-102.4,-104.53333333333333
1801,-563.2,-113.06666666666666,-87.46666666666667
1802,-561.0666666666666,-121.6,-85.33333333333333
1803,-552.5333333333333,-130.13333333333333,-87.46666666666667
1804,-544.0,-138.66666666666666,-93.86666666666666
1805,-526.9333333333333,-153.6,-121.6
1806,-516.2666666666667,-179.2,-117.33333333333333
1807,-501.3333333333333,-192.0,-106.66666666666667
1808,-490.6666666666667,-209.06666666666666,-106.66666666666667
1809,-469.3333333333333,-230.4,-119.46666666666667
1810,-433.06666666666666,-264.5333333333333,-98.13333333333333
1811,-439.46666666666664,-279.46666666666664,-113.06666666666666
1812,-420.26666666666665,-307.2,-110.93333333333334
1813,-407.46666666666664,-330.6666666666667,-125.86666666666666
1814,-403.2,-339.2,-130.13333333333333
1815,-409.6,-358.4,-138.66666666666666
1816,-409.6,-373.3333333333333,-136.53333333333333
1817,-407.46666666666664,-377.6,-145.06666666666666
1818,-398.93333333333334,-377.6,-157.86666666666667
1819,-403.2,-366.93333333333334,-155.73333333333332
1820,-426.6666666666667,-352.0,-138.66666666666666
1821,-418.1333333333333,-345.6,-134.4
1822,-422.4,-324.26666666666665,-132.26666666666665
1823,-413.8666666666667,-300.8,-117.33333333333333
1824,-416.0,-294.4,-106.66666666666667
1825,-411.73333333333335,-281.6,-91.73333333333333
1826,-403.2,-281.6,-91.73333333333333
1827,-401.06666666666666,-277.3333333333333,-83.2
1828,-405.3333333333333,-273.06666666666666,-76.8
1829,-398.93333333333334,-266.6666666666667,-89.6
1830,-388.26666666666665,-266.6666666666667,-91.73333333333333
1831,-398.93333333333334,-279.46666666666664,-106.66666666666667
1832,-377.6,-283.73333333333335,-96.0
1833,-369.06666666666666,-315.73333333333335,-74.66666666666667
1834,-358.4,-343.46666666666664,-72.53333333333333
1835,-352.0,-371.2,-61.86666666666667
1836,-347.73333333333335,-396.8,-57.6
1837,-347.73333333333335,-409.6,-51.2
1838,-341.3333333333333,-430.93333333333334,-51.2
1839,-324.26666666666665,-452.26666666666665,-40.53333333333333
1840,-311.46666666666664,-471.46666666666664,-42.666666666666664
1841,-309.3333333333333,-486.4,-40.53333333333333
1842,-311.46666666666664,-486.4,-61.86666666666667
1843,-296.5333333333333,-503.46666666666664,-57.6
1844,-290.1333333333333,-507.73333333333335,-55.46666666666667
1845,-288.0,-509.8666666666667,-44.8
1846,-285.8666666666667,-507.73333333333335,-55.46666666666667
1847,-277.3333333333333,-497.06666666666666,-55.46666666666667
1848,-270.93333333333334,-484.26666666666665,-57.6
1849,-266.6666666666667,-484.26666666666665,-42.666666666666664
1850,-260.26666666666665,-462.93333333333334,-46.93333333333333
1851,-268.8,-458.6666666666667,-40.53333333333333
1852,-279.46666666666664,-441.59999999999997,10.666666666666666
1853,-266.6666666666667,-443.73333333333335,-36.266666666666666
1854,-268.8,-437.3333333333333,-36.266666666666666
1855,-273.06666666666666,-430.93333333333334,-40.53333333333333
1856,-277.3333333333333,-422.4,-38.4
1857,-277.3333333333333,-416.0,-42.666666666666664
1858,-279.46666666666664,-416.0,-36.266666666666666
1859,-279.46666666666664,-413.8666666666667,-40.53333333333333
1860,-279.46666666666664,-416.0,-46.93333333333333
1861,-279.46666666666664,-418.1333333333333,-49.06666666666666
1862,-277.3333333333333,-426.6666666666667,-46.93333333333333
1863,-262.4,-426.6666666666667,-55.46666666666667
1864,-270.93333333333334,-437.3333333333333,-38.4
1865,-277.3333333333333,-441.59999999999997,-42.666666666666664
1866,-270.93333333333334,-448.0,-42.666666666666664
1867,-266.6666666666667,-452.26666666666665,-36.266666666666666
1868,-264.5333333333333,-450.1333333333333,-44.8
1869,-253.86666666666667,-450.1333333333333,-49.06666666666666
1870,-247.46666666666667,-443.73333333333335,-49.06666666666666
1871,-234.66666666666666,-437.3333333333333,-59.733333333333334
1872,-236.79999999999998,-435.2,-57.6
1873,-230.4,-439.46666666666664,-66.13333333333333
1874,-221.86666666666667,-435.2,-72.53333333333333
1875,-224.0,-456.5333333333333,-57.6
1876,-217.6,-467.2,-57.6
1877,-211.2,-469.3333333333333,-42.666666666666664
1878,-206.93333333333334,-480.0,-36.266666666666666
1879,-192.0,-480.0,-27.733333333333334
1880,-189.86666666666667,-480.0,-32.0
1881,-187.73333333333332,-475.73333333333335,-27.733333333333334
1882,-196.26666666666665,-475.73333333333335,-34.13333333333333
1883,-183.46666666666667,-473.59999999999997,-32.0
1884,-181.33333333333334,-473.59999999999997,-32.0
1885,-183.46666666666667,-486.4,25.6
1886,-177.06666666666666,-480.0,-19.2
1887,-183.46666666666667,-482.1333333333333,-19.2
1888,-189.86666666666667,-488.5333333333333,0.0
1889,-187.73333333333332,-497.06666666666666,-6.4
1890,-194.13333333333333,-501.3333333333333,-4.266666666666667
1891,-192.0,-503.46666666666664,0.0
1892,-181.33333333333334,-516.2666666666667,-2.1333333333333333
1893,-183.46666666666667,-509.8666666666667,-8.533333333333333
1894,-168.53333333333333,-512.0,-14.933333333333334
1895,-168.53333333333333,-503.46666666666664,-40.53333333333333
1896,-157.86666666666667,-516.2666666666667,-8.533333333333333
1897,-157.86666666666667,-514.1333333333333,-10.666666666666666
1898,-151.46666666666667,-514.1333333333333,-6.4
1899,-140.8,-520.5333333333333,-6.4
1900,-130.13333333333333,-522.6666666666666,2.1333333333333333
1901,-134.4,-522.6666666666666,2.1333333333333333
1902,-132.26666666666665,-514.1333333333333,4.266666666666667
1903,-136.53333333333333,-524.8,4.266666666666667
1904,-134.4,-516.2666666666667,0.0
1905,-125.86666666666666,-520.5333333333333,2.1333333333333333
1906,-155.73333333333332,-522.6666666666666,44.8
1907,-125.86666666666666,-503.46666666666664,2.1333333333333333
1908,-123.73333333333333,-505.59999999999997,0.0
1909,-123.73333333333333,-503.46666666666664,0.0
1910,-121.6,-499.2,4.266666666666667
1911,-123.73333333333333,-503.46666666666664,4.266666666666667
1912,-110.93333333333334,-505.59999999999997,2.1333333333333333
1913,-106.66666666666667,-503.46666666666664,-8.533333333333333
1914,-104.53333333333333,-509.8666666666667,4.266666666666667
1915,-108.8,-520.5333333333333,-4.266666666666667
1916,-102.4,-514.1333333333333,-8.533333333333333
1917,-85.33333333333333,-499.2,-32.0
1918,-104.53333333333333,-522.6666666666666,-6.4
1919,-106.66666666666667,-520.5333333333333,0.0
1920,-110.93333333333334,-518.4,2.1333333333333333
1921,-102.4,-531.2,0.0
1922,-108.8,-526.9333333333333,2.1333333333333333
1923,-106.66666666666667,-533.3333333333334,4.266666666666667
1924,-110.93333333333334,-526.9333333333333,-2.1333333333333333
1925,-108.8,-526.9333333333333,-6.4
1926,-113.06666666666666,-524.8,-2.1333333333333333
1927,-117.33333333333333,-522.6666666666666,-8.533333333333333
1928,-87.46666666666667,-514.1333333333333,-8.533333333333333
1929,-110.93333333333334,-514.1333333333333,-8.533333333333333
1930,-119.46666666666667,-522.6666666666666,-8.533333333333333
1931,-121.6,-520.5333333333333,-17.066666666666666
1932,-119.46666666666667,-514.1333333333333,-10.666666666666666
1933,-115.2,-516.2666666666667,-17.066666666666666
1934,-115.2,-518.4,-10.666666666666666
1935,-113.06666666666666,-516.2666666666667,-17.066666666666666
1936,-106.66666666666667,-518.4,-32.0
1937,-108.8,-520.5333333333333,-29.866666666666667
1938,-110.93333333333334,-516.2666666666667,-38.4
1939,-106.66666666666667,-520.5333333333333,-55.46666666666667
1940,-87.46666666666667,-526.9333333333333,-29.866666666666667
1941,-85.33333333333333,-526.9333333333333,-29.866666666666667
1942,-72.53333333333333,-529.0666666666666,-40.53333333333333
1943,-72.53333333333333,-529.0666666666666,-36.266666666666666
1944,-68.26666666666667,-535.4666666666667,-42.666666666666664
1945,-70.4,-539.7333333333333,-44.8
1946,-55.46666666666667,-539.7333333333333,-51.2
1947,-64.0,-556.8,-49.06666666666666
1948,-55.46666666666667,-556.8,-46.93333333333333
1949,-55.46666666666667,-569.6,-42.666666666666664
1950,-40.53333333333333,-556.8,-66.13333333333333
1951,-57.6,-578.1333333333333,-44.8
1952,-59.733333333333334,-578.1333333333333,-49.06666666666666
1953,-64.0,-580.2666666666667,-44.8
1954,-68.26666666666667,-578.1333333333333,-38.4
1955,-70.4,-578.1333333333333,-34.13333333333333
1956,-64.0,-576.0,-34.13333333333333
1957,-64.0,-567.4666666666667,-40.53333333333333
1958,-66.13333333333333,-569.6,-17.066666666666666
1959,-49.06666666666666,-544.0,-32.0
1960,-61.86666666666667,-541.8666666666667,-27.733333333333334
1961,-23.466666666666665,-524.8,-38.4
1962,-36.266666666666666,-526.9333333333333,-25.6
1963,-32.0,-524.8,-27.733333333333334
1964,-21.333333333333332,-526.9333333333333,-36.266666666666666
1965,-8.533333333333333,-524.8,-32.0
1966,-4.266666666666667,-526.9333333333333,-27.733333333333334
1967,-2.1333333333333333,-522.6666666666666,-32.0
1968,-2.1333333333333333,-522.6666666666666,-36.266666666666666
1969,2.1333333333333333,-537.6,-36.266666666666666
1970,4.266666666666667,-524.8,-46.93333333333333
1971,-2.1333333333333333,-531.2,-25.6
1972,-6.4,-512.0,-57.6
1973,-8.533333333333333,-526.9333333333333,-36.266666666666666
1974,-10.666666666666666,-541.8666666666667,-29.866666666666667
1975,-10.666666666666666,-537.6,-38.4
1976,-6.4,-546.1333333333333,-25.6
1977,-4.266666666666667,-544.0,-25.6
1978,-6.4,-546.1333333333333,-27.733333333333334
1979,-10.666666666666666,-544.0,-23.466666666666665
1980,-14.933333333333334,-544.0,-17.066666666666666
1981,0.0,-541.8666666666667,-27.733333333333334
1982,4.266666666666667,-539.7333333333333,-8.533333333333333
1983,-2.1333333333333333,-539.7333333333333,-32.0
1984,-10.666666666666666,-535.4666666666667,-25.6
1985,-12.8,-535.4666666666667,-14.933333333333334
1986,-14.933333333333334,-535.4666666666667,-38.4
1987,-19.2,-522.6666666666666,-29.866666666666667
1988,-23.466666666666665,-526.9333333333333,-40.53333333333333
1989,-32.0,-524.8,-40.53333333333333
1990,-32.0,-535.4666666666667,-42.666666666666664
1991,-23.466666666666665,-539.7333333333333,-38.4
1992,-32.0,-546.1333333333333,-34.13333333333333
1993,-21.333333333333332,-550.4,-38.4
1994,-19.2,-558.9333333333333,-19.2
1995,-12.8,-565.3333333333334,-14.933333333333334
1996,-2.1333333333333333,-563.2,-21.333333333333332
1997,2.1333333333333333,-567.4666666666667,-17.066666666666666
1998,4.266666666666667,-561.0666666666666,-21.333333333333332
1999,4.266666666666667,-558.9333333333333,-34.13333333333333
2000,2.1333333333333333,-563.2,-25.6
2001,0.0,-552.5333333333333,-34.13333333333333
2002,2.1333333333333333,-552.5333333333333,-36.266666666666666
2003,8.533333333333333,-548.2666666666667,-42.666666666666664
2004,-14.933333333333334,-558.9333333333333,-19.2
2005,8.533333333333333,-554.6666666666666,-38.4
2006,4.266666666666667,-548.2666666666667,-36.266666666666666
2007,12.8,-550.4,-44.8
2008,10.666666666666666,-548.2666666666667,-46.93333333333333
2009,12.8,-544.0,-51.2
2010,12.8,-546.1333333333333,-42.666666666666664
2011,10.666666666666666,-535.4666666666667,-42.666666666666664
2012,4.266666666666667,-546.1333333333333,-40.53333333333333
2013,17.066666666666666,-533.3333333333334,-42.666666666666664
2014,6.4,-535.4666666666667,-46.93333333333333
2015,14.933333333333334,-518.4,-55.46666666666667
2016,8.533333333333333,-529.0666666666666,-36.266666666666666
2017,4.266666666666667,-531.2,-29.866666666666667
2018,6.4,-531.2,-21.333333333333332
2019,8.533333333333333,-529.0666666666666,-29.866666666666667
2020,2.1333333333333333,-522.6666666666666,-34.13333333333333
2021,8.533333333333333,-533.3333333333334,-21.333333333333332
2022,4.266666666666667,-537.6,-34.13333333333333
2023,2.1333333333333333,-535.4666666666667,-32.0
2024,2.1333333333333333,-537.6,-29.866666666666667
2025,-2.1333333333333333,-541.8666666666667,-36.266666666666666
2026,25.6,-541.8666666666667,-53.333333333333336
2027,-2.1333333333333333,-546.1333333333333,-34.13333333333333
2028,2.1333333333333333,-544.0,-34.13333333333333
2029,2.1333333333333333,-546.1333333333333,-34.13333333333333
2030,4.266666666666667,-546.1333333333333,-29.866666666666667
2031,-2.1333333333333333,-546.1333333333333,-27.733333333333334
2032,0.0,-546.1333333333333,-27.733333333333334
2033,6.4,-537.6,-25.6
2034,0.0,-546.1333333333333,-21.333333333333332
2035,4.266666666666667,-537.6,-27.733333333333334
2036,-2.1333333333333333,-548.2666666666667,-8.533333333333333
2037,-14.933333333333334,-518.4,-34.13333333333333
2038,0.0,-544.0,-21.333333333333332
2039,0.0,-548.2666666666667,-25.6
2040,0.0,-546.1333333333333,-23.466666666666665
2041,-6.4,-537.6,-17.066666666666666
2042,-12.8,-533.3333333333334,-12.8
2043,-2.1333333333333333,-537.6,-23.466666666666665
2044,-2.1333333333333333,-537.6,-25.6
2045,4.266666666666667,-531.2,-19.2
2046,-6.4,-524.8,-21.333333333333332
2047,-2.1333333333333333,-537.6,-12.8
2048,-17.066666666666666,-507.73333333333335,-34.13333333333333
2049,-6.4,-539.7333333333333,-10.666666666666666
2050,-10.666666666666666,-537.6,-4.266666666666667
2051,-10.666666666666666,-541.8666666666667,-17.066666666666666
2052,-12.8,-537.6,-12.8
2053,-8.533333333333333,-537.6,-14.933333333333334
2054,-8.533333333333333,-544.0,0.0
2055,-6.4,-546.1333333333333,-21.333333333333332
2056,-2.1333333333333333,-544.0,-8.533333333333333
2057,-4.266666666666667,-531.2,-17.066666666666666
2058,-10.666666666666666,-531.2,-32.0
2059,-8.533333333333333,-535.4666666666667,-21.333333333333332
2060,-4.266666666666667,-541.8666666666667,-10.666666666666666
2061,-6.4,-539.7333333333333,-4.266666666666667
2062,-6.4,-537.6,-10.666666666666666
2063,-6.4,-541.8666666666667,-10.666666666666666
2064,-4.266666666666667,-541.8666666666667,-2.1333333333333333
2065,-10.666666666666666,-541.8666666666667,-8.533333333333333
2066,-8.533333333333333,-531.2,-4.266666666666667
2067,-14.933333333333334,-537.6,-6.4
2068,-10.666666666666666,-526.9333333333333,-2.1333333333333333
2069,-19.2,-514.1333333333333,-25.6
2070,-21.333333333333332,-529.0666666666666,0.0
2071,-14.933333333333334,-531.2,-4.266666666666667
2072,-19.2,-531.2,-4.266666666666667
2073,-14.933333333333334,-529.0666666666666,0.0
2074,-17.066666666666666,-529.0666666666666,-4.266666666666667
2075,-19.2,-531.2,2.1333333333333333
2076,-12.8,-531.2,-6.4
2077,-23.466666666666665,-529.0666666666666,-2.1333333333333333
2078,-27.733333333333334,-533.3333333333334,0.0
2079,-12.8,-526.9333333333333,0.0
2080,2.1333333333333333,-548.2666666666667,36.266666666666666
2081,-25.6,-526.9333333333333,-6.4
2082,-17.066666666666666,-533.3333333333334,0.0
2083,-19.2,-526.9333333333333,0.0
2084,-21.333333333333332,-529.0666666666666,0.0
2085,-19.2,-529.0666666666666,0.0
2086,-17.066666666666666,-533.3333333333334,-2.1333333333333333
2087,-12.8,-533.3333333333334,0.0
2088,-27.733333333333334,-529.0666666666666,8.533333333333333
2089,-23.466666666666665,-526.9333333333333,2.1333333333333333
2090,-19.2,-537.6,0.0
2091,-29.866666666666667,-518.4,8.533333333333333
2092,4.266666666666667,-552.5333333333333,4.266666666666667
2093,-53.333333333333336,-526.9333333333333,-12.8
2094,-17.066666666666666,-535.4666666666667,2.1333333333333333
2095,-23.466666666666665,-531.2,2.1333333333333333
2096,-25.6,-526.9333333333333,-8.533333333333333
2097,-21.333333333333332,-535.4666666666667,0.0
2098,-12.8,-529.0666666666666,0.0
2099,-19.2,-533.3333333333334,0.0
2100,-19.2,-531.2,17.066666666666666
2101,-19.2,-533.3333333333334,8.533333333333333
2102,-25.6,-541.8666666666667,23.466666666666665
2103,-8.533333333333333,-567.4666666666667,27.733333333333334
2104,-21.333333333333332,-529.0666666666666,6.4
2105,-21.333333333333332,-537.6,4.266666666666667
2106,-23.466666666666665,-529.0666666666666,6.4
2107,-19.2,-531.2,4.266666666666667
2108,-21.333333333333332,-539.7333333333333,-2.1333333333333333
2109,-14.933333333333334,-533.3333333333334,6.4
2110,-10.666666666666666,-533.3333333333334,6.4
2111,-23.466666666666665,-531.2,8.533333333333333
2112,-14.933333333333334,-537.6,4.266666666666667
2113,-21.333333333333332,-522.6666666666666,-8.533333333333333
2114,-19.2,-537.6,2.1333333333333333
2115,-25.6,-533.3333333333334,4.266666666666667
2116,-19.2,-537.6,-2.1333333333333333
2117,-17.066666666666666,-533.3333333333334,6.4
2118,-19.2,-533.3333333333334,4.266666666666667
2119,-14.933333333333334,-533.3333333333334,2.1333333333333333
2120,-19.2,-529.0666666666666,4.266666666666667
2121,-10.666666666666666,-529.0666666666666,4.266666666666667
2122,-17.066666666666666,-524.8,14.933333333333334
2123,-17.066666666666666,-533.3333333333334,8.533333333333333
2124,-12.8,-501.3333333333333,-10.666666666666666
2125,-10.666666666666666,-531.2,4.266666666666667
2126,-12.8,-539.7333333333333,4.266666666666667
2127,-14.933333333333334,-529.0666666666666,12.8
2128,-8.533333333333333,-535.4666666666667,12.8
2129,-17.066666666666666,-535.4666666666667,23.466666666666665
2130,-19.2,-535.4666666666667,12.8
2131,-19.2,-533.3333333333334,12.8
2132,-21.333333333333332,-537.6,6.4
2133,-17.066666666666666,-535.4666666666667,2.1333333333333333
2134,-17.066666666666666,-531.2,2.1333333333333333
2135,0.0,-509.8666666666667,-25.6
2136,-21.333333333333332,-533.3333333333334,6.4
2137,-23.466666666666665,-529.0666666666666,4.266666666666667
2138,-19.2,-529.0666666666666,6.4
2139,-25.6,-518.4,6.4
2140,-23.466666666666665,-529.0666666666666,12.8
2141,-25.6,-524.8,6.4
2142,-27.733333333333334,-533.3333333333334,8.533333333333333
2143,-23.466666666666665,-518.4,4.266666666666667
2144,-27.733333333333334,-526.9333333333333,23.466666666666665
2145,-25.6,-529.0666666666666,14.933333333333334
2146,-23.466666666666665,-492.8,-12.8
2147,-23.466666666666665,-533.3333333333334,14.933333333333334
2148,-17.066666666666666,-531.2,19.2
2149,-21.333333333333332,-531.2,8.533333333333333
2150,-14.933333333333334,-533.3333333333334,17.066666666666666
2151,-25.6,-533.3333333333334,14.933333333333334
2152,-17.066666666666666,-531.2,2.1333333333333333
2153,-21.333333333333332,-533.3333333333334,19.2
2154,-14.933333333333334,-526.9333333333333,14.933333333333334
2155,-27.733333333333334,-535.4666666666667,12.8
2156,-14.933333333333334,-544.0,42.666666666666664
2157,-21.333333333333332,-524.8,19.2
2158,-21.333333333333332,-533.3333333333334,12.8
2159,-21.333333333333332,-531.2,19.2
2160,-23.466666666666665,-531.2,8.533333333333333
2161,-19.2,-533.3333333333334,19.2
2162,-23.466666666666665,-531.2,19.2
2163,-25.6,-531.2,8.533333333333333
2164,-23.466666666666665,-535.4666666666667,14.933333333333334
2165,-19.2,-535.4666666666667,2.1333333333333333
2166,-23.466666666666665,-522.6666666666666,-17.066666666666666
2167,-12.8,-526.9333333333333,-27.733333333333334
2168,-25.6,-526.9333333333333,8.533333333333333
2169,-25.6,-529.0666666666666,12.8
2170,-23.466666666666665,-524.8,19.2
2171,-27.733333333333334,-531.2,12.8
2172,-25.6,-526.9333333333333,12.8
2173,-27.733333333333334,-531.2,12.8
2174,-27.733333333333334,-529.0666666666666,14.933333333333334
2175,-25.6,-529.0666666666666,10.666666666666666
2176,-21.333333333333332,-537.6,17.066666666666666
2177,-23.466666666666665,-539.7333333333333,8.533333333333333
2178,-19.2,-516.2666666666667,-2.1333333333333333
2179,-17.066666666666666,-531.2,8.533333333333333
2180,-23.466666666666665,-537.6,8.533333333333333
2181,-27.733333333333334,-537.6,12.8
2182,-27.733333333333334,-529.0666666666666,12.8
2183,-23.466666666666665,-533.3333333333334,17.066666666666666
2184,-23.466666666666665,-537.6,12.8
2185,-29.866666666666667,-537.6,21.333333333333332
2186,-19.2,-535.4666666666667,21.333333333333332
2187,-25.6,-531.2,17.066666666666666
2188,-21.333333333333332,-539.7333333333333,8.533333333333333
2189,-29.866666666666667,-499.2,-8.533333333333333
2190,-23.466666666666665,-531.2,17.066666666666666
2191,-21.333333333333332,-529.0666666666666,8.533333333333333
2192,-23.466666666666665,-531.2,8.533333333333333
2193,-23.466666666666665,-535.4666666666667,19.2
2194,-19.2,-537.6,14.933333333333334
2195,-19.2,-529.0666666666666,8.533333333333333
2196,-27.733333333333334,-533.3333333333334,10.666666666666666
2197,-23.466666666666665,-537.6,19.2
2198,-25.6,-539.7333333333333,27.733333333333334
2199,-23.466666666666665,-535.4666666666667,27.733333333333334
2200,-17.066666666666666,-499.2,-8.533333333333333
2201,-17.066666666666666,-541.8666666666667,14.933333333333334
2202,-23.466666666666665,-531.2,8.533333333333333
2203,-25.6,-531.2,10.666666666666666
2204,-21.333333333333332,-533.3333333333334,14.933333333333334
2205,-21.333333333333332,-529.0666666666666,21.333333333333332
2206,-19.2,-524.8,12.8
2207,-25.6,-535.4666666666667,25.6
2208,-23.466666666666665,-531.2,10.666666666666666
2209,-27.733333333333334,-526.9333333333333,8.533333333333333
2210,-19.2,-535.4666666666667,29.866666666666667
2211,17.066666666666666,-544.0,14.933333333333334
2212,-21.333333333333332,-531.2,14.933333333333334
2213,-27.733333333333334,-533.3333333333334,10.666666666666666
2214,-25.6,-541.8666666666667,12.8
2215,-23.466666666666665,-537.6,19.2
2216,-25.6,-533.3333333333334,8.533333333333333
2217,-25.6,-537.6,19.2
2218,-23.466666666666665,-535.4666666666667,21.333333333333332
2219,-27.733333333333334,-529.0666666666666,12.8
2220,-25.6,-526.9333333333333,14.933333333333334
2221,-19.2,-535.4666666666667,14.933333333333334
2222,-10.666666666666666,-533.3333333333334,25.6
2223,-21.333333333333332,-529.0666666666666,14.933333333333334
2224,-25.6,-524.8,14.933333333333334
2225,-19.2,-529.0666666666666,27.733333333333334
2226,-19.2,-537.6,21.333333333333332
2227,-19.2,-533.3333333333334,19.2
2228,-29.866666666666667,-529.0666666666666,14.933333333333334
2229,-25.6,-526.9333333333333,17.066666666666666
2230,-19.2,-535.4666666666667,8.533333333333333
2231,-19.2,-529.0666666666666,10.666666666666666
2232,-21.333333333333332,-526.9333333333333,21.333333333333332
2233,-6.4,-507.73333333333335,4.266666666666667
2234,-21.333333333333332,-526.9333333333333,23.466666666666665
2235,-21.333333333333332,-533.3333333333334,17.066666666666666
2236,-19.2,-531.2,14.933333333333334
2237,-19.2,-533.3333333333334,10.666666666666666
2238,-21.333333333333332,-531.2,21.333333333333332
2239,-19.2,-533.3333333333334,10.666666666666666
2240,-23.466666666666665,-535.4666666666667,21.333333333333332
2241,-19.2,-531.2,19.2
2242,-17.066666666666666,-539.7333333333333,29.866666666666667
2243,-17.066666666666666,-533.3333333333334,19.2
2244,-6.4,-546.1333333333333,38.4
2245,-19.2,-539.7333333333333,19.2
2246,-19.2,-535.4666666666667,19.2
2247,-17.066666666666666,-535.4666666666667,12.8
2248,-17.066666666666666,-533.3333333333334,21.333333333333332
2249,-17.066666666666666,-539.7333333333333,19.2
2250,-23.466666666666665,-537.6,14.933333333333334
2251,-27.733333333333334,-535.4666666666667,10.666666666666666
2252,-12.8,-537.6,17.066666666666666
2253,-17.066666666666666,-539.7333333333333,27.733333333333334
2254,-19.2,-531.2,21.333333333333332
2255,-53.333333333333336,-537.6,34.13333333333333
2256,-19.2,-533.3333333333334,17.066666666666666
2257,-14.933333333333334,-533.3333333333334,14.933333333333334
2258,-27.733333333333334,-533.3333333333334,14.933333333333334
2259,-23.466666666666665,-531.2,17.066666666666666
2260,-21.333333333333332,-533.3333333333334,19.2
2261,-25.6,-522.6666666666666,25.6
2262,-25.6,-535.4666666666667,23.466666666666665
2263,-23.466666666666665,-541.8666666666667,27.733333333333334
2264,-17.066666666666666,-531.2,17.066666666666666
2265,-2.1333333333333333,-518.4,8.533333333333333
2266,-14.933333333333334,-535.4666666666667,17.066666666666666
2267,-19.2,-539.7333333333333,19.2
2268,-17.066666666666666,-535.4666666666667,21.333333333333332
2269,-19.2,-533.3333333333334,14.933333333333334
2270,-23.466666666666665,-531.2,12.8
2271,-25.6,-529.0666666666666,19.2
2272,-19.2,-526.9333333333333,10.666666666666666
2273,-25.6,-526.9333333333333,14.933333333333334
2274,-21.333333333333332,-531.2,23.466666666666665
2275,-23.466666666666665,-529.0666666666666,12.8
2276,-34.13333333333333,-529.0666666666666,36.266666666666666
2277,-25.6,-529.0666666666666,17.066666666666666
2278,-19.2,-531.2,27.733333333333334
2279,-23.466666666666665,-526.9333333333333,12.8
2280,-21.333333333333332,-533.3333333333334,23.466666666666665
2281,-21.333333333333332,-539.7333333333333,17.066666666666666
2282,-25.6,-537.6,19.2
2283,-25.6,-539.7333333333333,25.6
2284,-25.6,-537.6,19.2
2285,-25.6,-539.7333333333333,12.8
2286,-23.466666666666665,-537.6,17.066666666666666
2287,-6.4,-533.3333333333334,29.866666666666667
2288,-14.933333333333334,-539.7333333333333,21.333333333333332
2289,-21.333333333333332,-539.7333333333333,21.333333333333332
2290,-25.6,-526.9333333333333,6.4
2291,-23.466666666666665,-529.0666666666666,17.066666666666666
2292,-23.466666666666665,-529.0666666666666,10.666666666666666
2293,-25.6,-522.6666666666666,14.933333333333334
2294,-27.733333333333334,-524.8,4.266666666666667
2295,-23.466666666666665,-526.9333333333333,14.933333333333334
2296,-27.733333333333334,-529.0666666666666,19.2
2297,-23.466666666666665,-524.8,17.066666666666666
2298,-19.2,-529.0666666666666,38.4
2299,-19.2,-537.6,21.333333333333332
2300,-21.333333333333332,-531.2,29.866666666666667
2301,-17.066666666666666,-533.3333333333334,21.333333333333332
2302,-17.066666666666666,-531.2,25.6
2303,-19.2,-535.4666666666667,27.733333333333334
2304,-21.333333333333332,-537.6,19.2
2305,-19.2,-526.9333333333333,23.466666666666665
2306,-17.066666666666666,-524.8,19.2
2307,-23.466666666666665,-529.0666666666666,23.466666666666665
2308,-19.2,-535.4666666666667,14.933333333333334
2309,-23.466666666666665,-546.1333333333333,66.13333333333333
2310,-21.333333333333332,-526.9333333333333,29.866666666666667
2311,-23.466666666666665,-533.3333333333334,21.333333333333332
2312,-23.466666666666665,-533.3333333333334,27.733333333333334
2313,-25.6,-531.2,23.466666666666665
2314,-23.466666666666665,-531.2,19.2
2315,-23.466666666666665,-529.0666666666666,19.2
2316,-25.6,-531.2,17.066666666666666
2317,-23.466666666666665,-531.2,21.333333333333332
2318,-14.933333333333334,-531.2,19.2
2319,-19.2,-535.4666666666667,21.333333333333332
2320,-32.0,-499.2,6.4
2321,-25.6,-529.0666666666666,21.333333333333332
2322,-23.466666666666665,-524.8,10.666666666666666
2323,-21.333333333333332,-531.2,14.933333333333334
2324,-23.466666666666665,-535.4666666666667,19.2
2325,-17.066666666666666,-533.3333333333334,17.066666666666666
2326,-23.466666666666665,-522.6666666666666,12.8
2327,-27.733333333333334,-533.3333333333334,14.933333333333334
2328,-23.466666666666665,-539.7333333333333,19.2
2329,-19.2,-537.6,34.13333333333333
2330,-27.733333333333334,-531.2,29.866666666666667
2331,-12.8,-505.59999999999997,19.2
2332,-21.333333333333332,-533.3333333333334,25.6
2333,-23.466666666666665,-529.0666666666666,25.6
2334,-23.466666666666665,-531.2,27.733333333333334
2335,-27.733333333333334,-529.0666666666666,19.2
2336,-25.6,-531.2,29.866666666666667
2337,-14.933333333333334,-533.3333333333334,17.066666666666666
2338,-23.466666666666665,-541.8666666666667,21.333333333333332
2339,-27.733333333333334,-524.8,25.6
2340,-23.466666666666665,-520.5333333333333,23.466666666666665
2341,-25.6,-526.9333333333333,17.066666666666666
2342,8.533333333333333,-509.8666666666667,6.4
2343,-23.466666666666665,-531.2,25.6
2344,-27.733333333333334,-529.0666666666666,21.333333333333332
2345,-23.466666666666665,-531.2,27.733333333333334
2346,-17.066666666666666,-535.4666666666667,17.066666666666666
2347,-29.866666666666667,-524.8,19.2
2348,-21.333333333333332,-535.4666666666667,17.066666666666666
2349,-17.066666666666666,-533.3333333333334,21.333333333333332
2350,-17.066666666666666,-537.6,17.066666666666666
2351,-25.6,-537.6,19.2
2352,-25.6,-535.4666666666667,19.2
2353,-14.933333333333334,-520.5333333333333,-2.1333333333333333
2354,-23.466666666666665,-531.2,27.733333333333334
2355,-25.6,-535.4666666666667,23.466666666666665
2356,-27.733333333333334,-533.3333333333334,21.333333333333332
2357,-23.466666666666665,-533.3333333333334,19.2
2358,-29.866666666666667,-533.3333333333334,25.6
2359,-27.733333333333334,-526.9333333333333,19.2
2360,-17.066666666666666,-537.6,21.333333333333332
2361,-25.6,-526.9333333333333,21.333333333333332
2362,-19.2,-533.3333333333334,27.733333333333334
2363,-23.466666666666665,-529.0666666666666,19.2
2364,-23.466666666666665,-526.9333333333333,25.6
2365,-21.333333333333332,-526.9333333333333,23.466666666666665
2366,-19.2,-535.4666666666667,17.066666666666666
2367,-23.466666666666665,-533.3333333333334,23.466666666666665
2368,-21.333333333333332,-535.4666666666667,23.466666666666665
2369,-23.466666666666665,-531.2,21.333333333333332
2370,-29.866666666666667,-526.9333333333333,29.866666666666667
2371,-23.466666666666665,-533.3333333333334,23.466666666666665
2372,-23.466666666666665,-533.3333333333334,32.0
2373,-19.2,-526.9333333333333,19.2
2374,-27.733333333333334,-535.4666666666667,46.93333333333333
2375,-19.2,-531.2,29.866666666666667
2376,-19.2,-529.0666666666666,17.066666666666666
2377,-14.933333333333334,-537.6,25.6
2378,-21.333333333333332,-524.8,25.6
2379,-25.6,-531.2,23.466666666666665
2380,-17.066666666666666,-529.0666666666666,29.866666666666667
2381,-25.6,-524.8,21.333333333333332
2382,-27.733333333333334,-535.4666666666667,17.066666666666666
2383,-23.466666666666665,-535.4666666666667,21.333333333333332
2384,-19.2,-531.2,14.933333333333334
2385,6.4,-539.7333333333333,12.8
2386,-19.2,-529.0666666666666,17.066666666666666
2387,-25.6,-529.0666666666666,19.2
2388,-23.466666666666665,-535.4666666666667,27.733333333333334
2389,-23.466666666666665,-533.3333333333334,27.733333333333334
2390,-21.333333333333332,-533.3333333333334,21.333333333333332
2391,-23.466666666666665,-529.0666666666666,21.333333333333332
2392,-27.733333333333334,-531.2,27.733333333333334
2393,-32.0,-533.3333333333334,29.866666666666667
2394,-19.2,-529.0666666666666,25.6
2395,-23.466666666666665,-529.0666666666666,23.466666666666665
2396,-27.733333333333334,-537.6,21.333333333333332
2397,-25.6,-533.3333333333334,12.8
2398,-23.466666666666665,-531.2,21.333333333333332
2399,-19.2,-531.2,21.333333333333332
