,accelerometerAccelerationX(G),accelerometerAccelerationY(G),accelerometerAccelerationZ(G)
0,2.1333333333333333,-535.4666666666667,78.93333333333334
1,4.266666666666667,-535.4666666666667,74.66666666666667
2,-2.1333333333333333,-535.4666666666667,85.33333333333333
3,2.1333333333333333,-529.0666666666666,76.8
4,0.0,-533.3333333333334,78.93333333333334
5,8.533333333333333,-537.6,93.86666666666666
6,0.0,-531.2,85.33333333333333
7,0.0,-537.6,74.66666666666667
8,0.0,-535.4666666666667,74.66666666666667
9,2.1333333333333333,-533.3333333333334,76.8
10,0.0,-531.2,81.06666666666666
11,-6.4,-526.9333333333333,78.93333333333334
12,0.0,-533.3333333333334,74.66666666666667
13,0.0,-535.4666666666667,74.66666666666667
14,-6.4,-529.0666666666666,78.93333333333334
15,0.0,-535.4666666666667,76.8
16,0.0,-531.2,91.73333333333333
17,0.0,-531.2,83.2
18,-4.266666666666667,-537.6,83.2
19,0.0,-539.7333333333333,81.06666666666666
20,-2.1333333333333333,-533.3333333333334,83.2
21,2.1333333333333333,-541.8666666666667,83.2
22,0.0,-533.3333333333334,81.06666666666666
23,-4.266666666666667,-531.2,85.33333333333333
24,4.266666666666667,-531.2,78.93333333333334
25,0.0,-531.2,87.46666666666667
26,0.0,-533.3333333333334,85.33333333333333
27,4.266666666666667,-535.4666666666667,78.93333333333334
28,-2.1333333333333333,-531.2,85.33333333333333
29,0.0,-535.4666666666667,76.8
30,-2.1333333333333333,-537.6,76.8
31,-4.266666666666667,-529.0666666666666,78.93333333333334
32,2.1333333333333333,-533.3333333333334,85.33333333333333
33,-4.266666666666667,-533.3333333333334,85.33333333333333
34,-2.1333333333333333,-539.7333333333333,81.06666666666666
35,-4.266666666666667,-535.4666666666667,78.93333333333334
36,-2.1333333333333333,-533.3333333333334,81.06666666666666
37,-4.266666666666667,-531.2,78.93333333333334
38,-2.1333333333333333,-539.7333333333333,76.8
39,-10.666666666666666,-531.2,76.8
40,-8.533333333333333,-537.6,83.2
41,6.4,-531.2,85.33333333333333
42,-6.4,-535.4666666666667,76.8
43,-2.1333333333333333,-535.4666666666667,83.2
44,0.0,-531.2,81.06666666666666
45,0.0,-539.7333333333333,74.66666666666667
46,-4.266666666666667,-535.4666666666667,78.93333333333334
47,-8.533333333333333,-529.0666666666666,72.53333333333333
48,-2.1333333333333333,-533.3333333333334,76.8
49,-2.1333333333333333,-535.4666666666667,81.06666666666666
50,-6.4,-529.0666666666666,81.06666666666666
51,-4.266666666666667,-533.3333333333334,81.06666666666666
52,4.266666666666667,-531.2,83.2
53,0.0,-535.4666666666667,87.46666666666667
54,-2.1333333333333333,-526.9333333333333,83.2
55,-4.266666666666667,-529.0666666666666,89.6
56,-12.8,-533.3333333333334,83.2
57,2.1333333333333333,-537.6,85.33333333333333
58,-4.266666666666667,-535.4666666666667,83.2
59,0.0,-541.8666666666667,70.4
60,-4.266666666666667,-535.4666666666667,85.33333333333333
61,-4.266666666666667,-531.2,72.53333333333333
62,-2.1333333333333333,-535.4666666666667,76.8
63,-4.266666666666667,-524.8,74.66666666666667
64,-6.4,-531.2,85.33333333333333
65,-4.266666666666667,-526.9333333333333,83.2
66,-4.266666666666667,-531.2,96.0
67,-4.266666666666667,-529.0666666666666,72.53333333333333
68,-2.1333333333333333,-529.0666666666666,93.86666666666666
69,-2.1333333333333333,-535.4666666666667,81.06666666666666
70,-4.266666666666667,-529.0666666666666,87.46666666666667
71,-4.266666666666667,-533.3333333333334,83.2
72,-2.1333333333333333,-541.8666666666667,87.46666666666667
73,-4.266666666666667,-531.2,87.46666666666667
74,-8.533333333333333,-535.4666666666667,78.93333333333334
75,-6.4,-531.2,87.46666666666667
76,-2.1333333333333333,-539.7333333333333,87.46666666666667
77,-2.1333333333333333,-533.3333333333334,74.66666666666667
78,2.1333333333333333,-531.2,83.2
79,-2.1333333333333333,-526.9333333333333,87.46666666666667
80,-4.266666666666667,-524.8,83.2
81,-6.4,-526.9333333333333,85.33333333333333
82,4.266666666666667,-535.4666666666667,87.46666666666667
83,-2.1333333333333333,-531.2,81.06666666666666
84,0.0,-529.0666666666666,76.8
85,-4.266666666666667,-533.3333333333334,81.06666666666666
86,-6.4,-531.2,74.66666666666667
87,-4.266666666666667,-531.2,81.06666666666666
88,-6.4,-526.9333333333333,85.33333333333333
89,-2.1333333333333333,-533.3333333333334,76.8
90,0.0,-535.4666666666667,89.6
91,0.0,-539.7333333333333,87.46666666666667
92,6.4,-541.8666666666667,76.8
93,-8.533333333333333,-539.7333333333333,85.33333333333333
94,-4.266666666666667,-531.2,78.93333333333334
95,-2.1333333333333333,-533.3333333333334,78.93333333333334
96,-4.266666666666667,-539.7333333333333,83.2
97,0.0,-533.3333333333334,85.33333333333333
98,2.1333333333333333,-531.2,83.2
99,-2.1333333333333333,-529.0666666666666,87.46666666666667
100,2.1333333333333333,-533.3333333333334,76.8
101,-4.266666666666667,-526.9333333333333,76.8
102,-4.266666666666667,-529.0666666666666,85.33333333333333
103,-2.1333333333333333,-524.8,81.06666666666666
104,-6.4,-526.9333333333333,78.93333333333334
105,-6.4,-529.0666666666666,81.06666666666666
106,-8.533333333333333,-531.2,78.93333333333334
107,-4.266666666666667,-541.8666666666667,93.86666666666666
108,-6.4,-535.4666666666667,85.33333333333333
109,2.1333333333333333,-537.6,81.06666666666666
110,0.0,-535.4666666666667,91.73333333333333
111,0.0,-537.6,91.73333333333333
112,-6.4,-529.0666666666666,81.06666666666666
113,2.1333333333333333,-535.4666666666667,81.06666666666666
114,-4.266666666666667,-531.2,81.06666666666666
115,0.0,-529.0666666666666,85.33333333333333
116,0.0,-531.2,85.33333333333333
117,-2.1333333333333333,-524.8,81.06666666666666
118,-4.266666666666667,-524.8,85.33333333333333
119,-4.266666666666667,-531.2,87.46666666666667
120,-2.1333333333333333,-539.7333333333333,85.33333333333333
121,-2.1333333333333333,-531.2,83.2
122,0.0,-533.3333333333334,93.86666666666666
123,0.0,-537.6,76.8
124,-4.266666666666667,-541.8666666666667,78.93333333333334
125,-6.4,-541.8666666666667,83.2
126,-2.1333333333333333,-544.0,76.8
127,-4.266666666666667,-535.4666666666667,91.73333333333333
128,-17.066666666666666,-533.3333333333334,91.73333333333333
129,-8.533333333333333,-529.0666666666666,98.13333333333333
130,-8.533333333333333,-522.6666666666666,91.73333333333333
131,-8.533333333333333,-531.2,91.73333333333333
132,-6.4,-520.5333333333333,87.46666666666667
133,-4.266666666666667,-522.6666666666666,85.33333333333333
134,-2.1333333333333333,-524.8,83.2
135,2.1333333333333333,-524.8,93.86666666666666
136,-4.266666666666667,-531.2,78.93333333333334
137,-6.4,-529.0666666666666,93.86666666666666
138,-8.533333333333333,-533.3333333333334,91.73333333333333
139,0.0,-535.4666666666667,91.73333333333333
140,-4.266666666666667,-533.3333333333334,89.6
141,-2.1333333333333333,-533.3333333333334,85.33333333333333
142,-4.266666666666667,-533.3333333333334,85.33333333333333
143,-2.1333333333333333,-526.9333333333333,87.46666666666667
144,0.0,-522.6666666666666,91.73333333333333
145,0.0,-524.8,85.33333333333333
146,-2.1333333333333333,-531.2,85.33333333333333
147,4.266666666666667,-526.9333333333333,59.733333333333334
148,4.266666666666667,-531.2,87.46666666666667
149,-2.1333333333333333,-533.3333333333334,83.2
150,-8.533333333333333,-526.9333333333333,89.6
151,2.1333333333333333,-529.0666666666666,81.06666666666666
152,-8.533333333333333,-531.2,87.46666666666667
153,-2.1333333333333333,-531.2,91.73333333333333
154,2.1333333333333333,-537.6,83.2
155,-6.4,-535.4666666666667,87.46666666666667
156,4.266666666666667,-537.6,81.06666666666666
157,2.1333333333333333,-537.6,87.46666666666667
158,0.0,-529.0666666666666,83.2
159,-6.4,-533.3333333333334,83.2
160,-4.266666666666667,-524.8,87.46666666666667
161,-8.533333333333333,-535.4666666666667,85.33333333333333
162,-8.533333333333333,-522.6666666666666,87.46666666666667
163,-8.533333333333333,-526.9333333333333,93.86666666666666
164,-4.266666666666667,-526.9333333333333,85.33333333333333
165,-8.533333333333333,-526.9333333333333,87.46666666666667
166,-6.4,-533.3333333333334,83.2
167,-4.266666666666667,-533.3333333333334,85.33333333333333
168,-6.4,-533.3333333333334,93.86666666666666
169,-2.1333333333333333,-533.3333333333334,83.2
170,-4.266666666666667,-537.6,87.46666666666667
171,-6.4,-526.9333333333333,87.46666666666667
172,-10.666666666666666,-533.3333333333334,87.46666666666667
173,-10.666666666666666,-535.4666666666667,85.33333333333333
174,-8.533333333333333,-529.0666666666666,85.33333333333333
175,-10.666666666666666,-539.7333333333333,83.2
176,-6.4,-533.3333333333334,76.8
177,-12.8,-531.2,87.46666666666667
178,-10.666666666666666,-531.2,76.8
179,-12.8,-524.8,85.33333333333333
180,-10.666666666666666,-529.0666666666666,85.33333333333333
181,-10.666666666666666,-531.2,81.06666666666666
182,-10.666666666666666,-533.3333333333334,81.06666666666666
183,-10.666666666666666,-529.0666666666666,76.8
184,-8.533333333333333,-537.6,83.2
185,-6.4,-535.4666666666667,76.8
186,-14.933333333333334,-529.0666666666666,85.33333333333333
187,-10.666666666666666,-531.2,87.46666666666667
188,-10.666666666666666,-535.4666666666667,85.33333333333333
189,-17.066666666666666,-526.9333333333333,76.8
190,-19.2,-535.4666666666667,81.06666666666666
191,-14.933333333333334,-531.2,81.06666666666666
192,-12.8,-533.3333333333334,85.33333333333333
193,-6.4,-533.3333333333334,76.8
194,-10.666666666666666,-529.0666666666666,83.2
195,-4.266666666666667,-531.2,74.66666666666667
196,-12.8,-529.0666666666666,81.06666666666666
197,2.1333333333333333,-524.8,85.33333333333333
198,-10.666666666666666,-526.9333333333333,83.2
199,-14.933333333333334,-526.9333333333333,74.66666666666667
200,-12.8,-526.9333333333333,85.33333333333333
201,-6.4,-526.9333333333333,83.2
202,-12.8,-533.3333333333334,78.93333333333334
203,-10.666666666666666,-537.6,85.33333333333333
204,-12.8,-537.6,81.06666666666666
205,-8.533333333333333,-535.4666666666667,85.33333333333333
206,-4.266666666666667,-544.0,91.73333333333333
207,-4.266666666666667,-535.4666666666667,78.93333333333334
208,0.0,-533.3333333333334,83.2
209,-4.266666666666667,-526.9333333333333,81.06666666666666
210,-10.666666666666666,-531.2,87.46666666666667
211,-8.533333333333333,-531.2,76.8
212,-10.666666666666666,-529.0666666666666,76.8
213,-10.666666666666666,-529.0666666666666,83.2
214,-8.533333333333333,-535.4666666666667,83.2
215,-6.4,-533.3333333333334,76.8
216,-8.533333333333333,-531.2,78.93333333333334
217,-19.2,-529.0666666666666,76.8
218,-8.533333333333333,-533.3333333333334,74.66666666666667
219,-8.533333333333333,-526.9333333333333,81.06666666666666
220,-8.533333333333333,-531.2,83.2
221,-8.533333333333333,-529.0666666666666,87.46666666666667
222,2.1333333333333333,-522.6666666666666,87.46666666666667
223,8.533333333333333,-526.9333333333333,100.26666666666667
224,-2.1333333333333333,-524.8,64.0
225,12.8,-541.8666666666667,61.86666666666667
226,-14.933333333333334,-522.6666666666666,85.33333333333333
227,-10.666666666666666,-522.6666666666666,89.6
228,-8.533333333333333,-526.9333333333333,87.46666666666667
229,-10.666666666666666,-533.3333333333334,96.0
230,-12.8,-524.8,76.8
231,-10.666666666666666,-526.9333333333333,89.6
232,-14.933333333333334,-529.0666666666666,89.6
233,-21.333333333333332,-526.9333333333333,87.46666666666667
234,-14.933333333333334,-529.0666666666666,98.13333333333333
235,-17.066666666666666,-524.8,91.73333333333333
236,-8.533333333333333,-529.0666666666666,85.33333333333333
237,-17.066666666666666,-529.0666666666666,85.33333333333333
238,-23.466666666666665,-533.3333333333334,91.73333333333333
239,-19.2,-531.2,83.2
240,-14.933333333333334,-537.6,83.2
241,-14.933333333333334,-535.4666666666667,85.33333333333333
242,-23.466666666666665,-539.7333333333333,81.06666666666666
243,-21.333333333333332,-531.2,89.6
244,-14.933333333333334,-537.6,81.06666666666666
245,-19.2,-537.6,87.46666666666667
246,-10.666666666666666,-546.1333333333333,87.46666666666667
247,-14.933333333333334,-546.1333333333333,87.46666666666667
248,-21.333333333333332,-539.7333333333333,83.2
249,-17.066666666666666,-544.0,91.73333333333333
250,-23.466666666666665,-533.3333333333334,89.6
251,-23.466666666666665,-529.0666666666666,83.2
252,-23.466666666666665,-535.4666666666667,72.53333333333333
253,-19.2,-531.2,64.0
254,-21.333333333333332,-524.8,64.0
255,-21.333333333333332,-526.9333333333333,57.6
256,-19.2,-535.4666666666667,61.86666666666667
257,-25.6,-533.3333333333334,83.2
258,-23.466666666666665,-533.3333333333334,87.46666666666667
259,-25.6,-537.6,91.73333333333333
260,-25.6,-535.4666666666667,100.26666666666667
261,-23.466666666666665,-535.4666666666667,102.4
262,-29.866666666666667,-526.9333333333333,104.53333333333333
263,-25.6,-526.9333333333333,87.46666666666667
264,-25.6,-531.2,76.8
265,-21.333333333333332,-524.8,76.8
266,-19.2,-520.5333333333333,66.13333333333333
267,-17.066666666666666,-526.9333333333333,70.4
268,-12.8,-544.0,76.8
269,-10.666666666666666,-537.6,78.93333333333334
270,-6.4,-539.7333333333333,78.93333333333334
271,-4.266666666666667,-546.1333333333333,78.93333333333334
272,-2.1333333333333333,-544.0,85.33333333333333
273,-12.8,-533.3333333333334,85.33333333333333
274,0.0,-537.6,81.06666666666666
275,2.1333333333333333,-533.3333333333334,93.86666666666666
276,-2.1333333333333333,-535.4666666666667,89.6
277,-6.4,-526.9333333333333,89.6
278,-10.666666666666666,-529.0666666666666,76.8
279,-4.266666666666667,-522.6666666666666,78.93333333333334
280,-14.933333333333334,-522.6666666666666,87.46666666666667
281,-14.933333333333334,-526.9333333333333,74.66666666666667
282,-14.933333333333334,-516.2666666666667,78.93333333333334
283,-14.933333333333334,-516.2666666666667,81.06666666666666
284,-14.933333333333334,-520.5333333333333,76.8
285,-23.466666666666665,-514.1333333333333,83.2
286,-17.066666666666666,-520.5333333333333,81.06666666666666
287,-21.333333333333332,-524.8,89.6
288,-23.466666666666665,-531.2,83.2
289,-19.2,-531.2,74.66666666666667
290,-25.6,-541.8666666666667,91.73333333333333
291,-19.2,-537.6,76.8
292,-19.2,-535.4666666666667,74.66666666666667
293,-19.2,-541.8666666666667,81.06666666666666
294,-6.4,-535.4666666666667,81.06666666666666
295,0.0,-535.4666666666667,74.66666666666667
296,4.266666666666667,-533.3333333333334,70.4
297,2.1333333333333333,-526.9333333333333,70.4
298,4.266666666666667,-522.6666666666666,68.26666666666667
299,2.1333333333333333,-531.2,70.4
300,0.0,-518.4,81.06666666666666
301,-4.266666666666667,-520.5333333333333,74.66666666666667
302,-4.266666666666667,-520.5333333333333,74.66666666666667
303,-6.4,-524.8,74.66666666666667
304,-14.933333333333334,-524.8,81.06666666666666
305,-21.333333333333332,-524.8,83.2
306,-23.466666666666665,-522.6666666666666,72.53333333333333
307,-25.6,-531.2,78.93333333333334
308,-25.6,-524.8,76.8
309,-25.6,-524.8,66.13333333333333
310,-32.0,-516.2666666666667,72.53333333333333
311,-40.53333333333333,-529.0666666666666,68.26666666666667
312,-38.4,-524.8,78.93333333333334
313,-40.53333333333333,-520.5333333333333,72.53333333333333
314,-38.4,-516.2666666666667,70.4
315,-38.4,-512.0,78.93333333333334
316,-40.53333333333333,-509.8666666666667,83.2
317,-44.8,-503.46666666666664,87.46666666666667
318,-29.866666666666667,-505.59999999999997,87.46666666666667
319,-27.733333333333334,-501.3333333333333,85.33333333333333
320,-32.0,-507.73333333333335,85.33333333333333
321,-32.0,-507.73333333333335,83.2
322,-27.733333333333334,-520.5333333333333,87.46666666666667
323,-29.866666666666667,-529.0666666666666,83.2
324,-25.6,-535.4666666666667,74.66666666666667
325,-19.2,-541.8666666666667,81.06666666666666
326,-21.333333333333332,-552.5333333333333,61.86666666666667
327,-21.333333333333332,-554.6666666666666,57.6
328,-25.6,-552.5333333333333,46.93333333333333
329,-23.466666666666665,-554.6666666666666,55.46666666666667
330,-25.6,-556.8,42.666666666666664
331,-32.0,-554.6666666666666,46.93333333333333
332,-44.8,-546.1333333333333,38.4
333,-53.333333333333336,-550.4,44.8
334,-70.4,-548.2666666666667,44.8
335,-83.2,-539.7333333333333,36.266666666666666
336,-96.0,-541.8666666666667,40.53333333333333
337,-117.33333333333333,-537.6,29.866666666666667
338,-123.73333333333333,-533.3333333333334,21.333333333333332
339,-134.4,-526.9333333333333,27.733333333333334
340,-138.66666666666666,-541.8666666666667,19.2
341,-147.2,-537.6,4.266666666666667
342,-151.46666666666667,-541.8666666666667,0.0
343,-149.33333333333334,-537.6,4.266666666666667
344,-138.66666666666666,-548.2666666666667,-8.533333333333333
345,-134.4,-546.1333333333333,-4.266666666666667
346,-115.2,-541.8666666666667,-6.4
347,-98.13333333333333,-544.0,-14.933333333333334
348,-93.86666666666666,-548.2666666666667,-14.933333333333334
349,-87.46666666666667,-537.6,-17.066666666666666
350,-78.93333333333334,-546.1333333333333,-10.666666666666666
351,-76.8,-539.7333333333333,-19.2
352,-89.6,-539.7333333333333,-17.066666666666666
353,-93.86666666666666,-537.6,-23.466666666666665
354,-106.66666666666667,-535.4666666666667,-23.466666666666665
355,-121.6,-533.3333333333334,-21.333333333333332
356,-138.66666666666666,-531.2,-12.8
357,-157.86666666666667,-529.0666666666666,-23.466666666666665
358,-170.66666666666666,-526.9333333333333,-21.333333333333332
359,-189.86666666666667,-518.4,-8.533333333333333
360,-202.66666666666666,-518.4,-21.333333333333332
361,-209.06666666666666,-512.0,-21.333333333333332
362,-217.6,-514.1333333333333,-32.0
363,-230.4,-505.59999999999997,-25.6
364,-232.53333333333333,-505.59999999999997,-36.266666666666666
365,-234.66666666666666,-516.2666666666667,-21.333333333333332
366,-228.26666666666665,-522.6666666666666,-25.6
367,-215.46666666666667,-526.9333333333333,-29.866666666666667
368,-209.06666666666666,-524.8,-12.8
369,-213.33333333333334,-533.3333333333334,-12.8
370,-211.2,-539.7333333333333,-14.933333333333334
371,-209.06666666666666,-531.2,-14.933333333333334
372,-211.2,-520.5333333333333,-23.466666666666665
373,-213.33333333333334,-505.59999999999997,-25.6
374,-206.93333333333334,-501.3333333333333,-29.866666666666667
375,-206.93333333333334,-488.5333333333333,-29.866666666666667
376,-206.93333333333334,-484.26666666666665,-34.13333333333333
377,-204.8,-482.1333333333333,-25.6
378,-204.8,-486.4,-19.2
379,-213.33333333333334,-484.26666666666665,-6.4
380,-224.0,-484.26666666666665,6.4
381,-228.26666666666665,-490.6666666666667,17.066666666666666
382,-232.53333333333333,-497.06666666666666,21.333333333333332
383,-245.33333333333334,-488.5333333333333,25.6
384,-249.6,-488.5333333333333,17.066666666666666
385,-253.86666666666667,-473.59999999999997,-14.933333333333334
386,-256.0,-471.46666666666664,-14.933333333333334
387,-258.1333333333333,-460.8,-42.666666666666664
388,-264.5333333333333,-454.4,-36.266666666666666
389,-264.5333333333333,-456.5333333333333,-42.666666666666664
390,-273.06666666666666,-467.2,-27.733333333333334
391,-268.8,-477.8666666666667,-12.8
392,-268.8,-482.1333333333333,0.0
393,-260.26666666666665,-494.93333333333334,-2.1333333333333333
394,-256.0,-503.46666666666664,-17.066666666666666
395,-249.6,-503.46666666666664,-21.333333333333332
396,-260.26666666666665,-503.46666666666664,-23.466666666666665
397,-270.93333333333334,-494.93333333333334,-12.8
398,-279.46666666666664,-473.59999999999997,-25.6
399,-283.73333333333335,-456.5333333333333,-19.2
400,-290.1333333333333,-428.8,-21.333333333333332
401,-298.6666666666667,-403.2,-34.13333333333333
402,-313.6,-371.2,-38.4
403,-330.6666666666667,-360.5333333333333,-34.13333333333333
404,-343.46666666666664,-358.4,-40.53333333333333
405,-362.6666666666667,-366.93333333333334,-40.53333333333333
406,-375.46666666666664,-381.8666666666667,-44.8
407,-379.73333333333335,-394.6666666666667,-46.93333333333333
408,-386.1333333333333,-398.93333333333334,-42.666666666666664
409,-386.1333333333333,-418.1333333333333,-34.13333333333333
410,-392.5333333333333,-416.0,-49.06666666666666
411,-390.4,-420.26666666666665,-51.2
412,-388.26666666666665,-416.0,-61.86666666666667
413,-384.0,-403.2,-57.6
414,-377.6,-392.5333333333333,-61.86666666666667
415,-384.0,-379.73333333333335,-78.93333333333334
416,-388.26666666666665,-364.8,-91.73333333333333
417,-384.0,-352.0,-83.2
418,-392.5333333333333,-349.8666666666667,-91.73333333333333
419,-398.93333333333334,-334.93333333333334,-83.2
420,-407.46666666666664,-326.4,-76.8
421,-409.6,-322.1333333333333,-89.6
422,-416.0,-320.0,-78.93333333333334
423,-435.2,-311.46666666666664,-68.26666666666667
424,-437.3333333333333,-315.73333333333335,-83.2
425,-448.0,-313.6,-72.53333333333333
426,-454.4,-300.8,-74.66666666666667
427,-456.5333333333333,-296.5333333333333,-76.8
428,-456.5333333333333,-288.0,-83.2
429,-460.8,-277.3333333333333,-83.2
430,-460.8,-268.8,-76.8
431,-460.8,-258.1333333333333,-89.6
432,-465.06666666666666,-249.6,-89.6
433,-469.3333333333333,-245.33333333333334,-100.26666666666667
434,-471.46666666666664,-241.06666666666666,-93.86666666666666
435,-467.2,-243.2,-96.0
436,-467.2,-249.6,-102.4
437,-465.06666666666666,-245.33333333333334,-100.26666666666667
438,-456.5333333333333,-245.33333333333334,-108.8
439,-448.0,-245.33333333333334,-102.4
440,-445.8666666666667,-249.6,-113.06666666666666
441,-448.0,-241.06666666666666,-106.66666666666667
442,-452.26666666666665,-251.73333333333332,-102.4
443,-450.1333333333333,-251.73333333333332,-108.8
444,-445.8666666666667,-258.1333333333333,-113.06666666666666
445,-448.0,-253.86666666666667,-108.8
446,-448.0,-236.79999999999998,-106.66666666666667
447,-448.0,-206.93333333333334,-81.06666666666666
448,-452.26666666666665,-177.06666666666666,-87.46666666666667
449,-454.4,-155.73333333333332,-70.4
450,-471.46666666666664,-149.33333333333334,-68.26666666666667
451,-484.26666666666665,-153.6,-76.8
452,-497.06666666666666,-166.4,-83.2
453,-501.3333333333333,-181.33333333333334,-74.66666666666667
454,-499.2,-198.4,-85.33333333333333
455,-497.06666666666666,-202.66666666666666,-83.2
456,-503.46666666666664,-192.0,-59.733333333333334
457,-501.3333333333333,-177.06666666666666,-53.333333333333336
458,-497.06666666666666,-164.26666666666665,-42.666666666666664
459,-494.93333333333334,-149.33333333333334,-57.6
460,-494.93333333333334,-142.93333333333334,-40.53333333333333
461,-492.8,-138.66666666666666,-55.46666666666667
462,-488.5333333333333,-125.86666666666666,-68.26666666666667
463,-499.2,-115.2,-83.2
464,-503.46666666666664,-113.06666666666666,-89.6
465,-503.46666666666664,-115.2,-91.73333333333333
466,-512.0,-119.46666666666667,-93.86666666666666
467,-514.1333333333333,-121.6,-98.13333333333333
468,-518.4,-117.33333333333333,-96.0
469,-520.5333333333333,-123.73333333333333,-93.86666666666666
470,-533.3333333333334,-130.13333333333333,-93.86666666666666
471,-531.2,-132.26666666666665,-96.0
472,-548.2666666666667,-136.53333333333333,-87.46666666666667
473,-541.8666666666667,-138.66666666666666,-85.33333333333333
474,-550.4,-136.53333333333333,-81.06666666666666
475,-552.5333333333333,-128.0,-78.93333333333334
476,-544.0,-128.0,-74.66666666666667
477,-537.6,-110.93333333333334,-61.86666666666667
478,-529.0666666666666,-100.26666666666667,-59.733333333333334
479,-518.4,-87.46666666666667,-64.0
480,-518.4,-64.0,-49.06666666666666
481,-524.8,-29.866666666666667,-42.666666666666664
482,-526.9333333333333,-8.533333333333333,-40.53333333333333
483,-526.9333333333333,10.666666666666666,-51.2
484,-533.3333333333334,21.333333333333332,-57.6
485,-550.4,42.666666666666664,-61.86666666666667
486,-582.4,61.86666666666667,-59.733333333333334
487,-637.8666666666667,76.8,-36.266666666666666
488,-699.7333333333333,96.0,-21.333333333333332
489,-763.7333333333333,102.4,17.066666666666666
490,-806.4,108.8,21.333333333333332
491,-825.6,113.06666666666666,32.0
492,-821.3333333333334,115.2,34.13333333333333
493,-812.8,119.46666666666667,27.733333333333334
494,-793.6,128.0,36.266666666666666
495,-761.6,147.2,36.266666666666666
496,-725.3333333333334,160.0,42.666666666666664
497,-686.9333333333333,168.53333333333333,64.0
498,-631.4666666666667,172.8,74.66666666666667
499,-586.6666666666666,168.53333333333333,93.86666666666666
500,-531.2,166.4,119.46666666666667
501,-471.46666666666664,151.46666666666667,153.6
502,-435.2,149.33333333333334,164.26666666666665
503,-411.73333333333335,142.93333333333334,162.13333333333333
504,-386.1333333333333,125.86666666666666,160.0
505,-392.5333333333333,113.06666666666666,157.86666666666667
506,-401.06666666666666,89.6,142.93333333333334
507,-407.46666666666664,70.4,138.66666666666666
508,-433.06666666666666,53.333333333333336,142.93333333333334
509,-460.8,38.4,142.93333333333334
510,-486.4,10.666666666666666,153.6
511,-524.8,8.533333333333333,153.6
512,-548.2666666666667,10.666666666666666,160.0
513,-552.5333333333333,19.2,160.0
514,-567.4666666666667,27.733333333333334,160.0
515,-576.0,44.8,151.46666666666667
516,-576.0,61.86666666666667,153.6
517,-573.8666666666667,78.93333333333334,153.6
518,-586.6666666666666,89.6,160.0
519,-595.2,98.13333333333333,177.06666666666666
520,-608.0,91.73333333333333,196.26666666666665
521,-618.6666666666666,98.13333333333333,204.8
522,-625.0666666666666,100.26666666666667,213.33333333333334
523,-618.6666666666666,96.0,219.73333333333332
524,-612.2666666666667,96.0,226.13333333333333
525,-593.0666666666666,93.86666666666666,228.26666666666665
526,-576.0,96.0,232.53333333333333
527,-563.2,91.73333333333333,245.33333333333334
528,-546.1333333333333,85.33333333333333,243.2
529,-518.4,74.66666666666667,238.93333333333334
530,-501.3333333333333,68.26666666666667,251.73333333333332
531,-480.0,53.333333333333336,249.6
532,-471.46666666666664,34.13333333333333,247.46666666666667
533,-460.8,10.666666666666666,247.46666666666667
534,-456.5333333333333,2.1333333333333333,247.46666666666667
535,-452.26666666666665,-4.266666666666667,234.66666666666666
536,-450.1333333333333,-4.266666666666667,232.53333333333333
537,-448.0,-4.266666666666667,226.13333333333333
538,-452.26666666666665,0.0,221.86666666666667
539,-445.8666666666667,2.1333333333333333,226.13333333333333
540,-448.0,8.533333333333333,228.26666666666665
541,-448.0,10.666666666666666,234.66666666666666
542,-439.46666666666664,12.8,238.93333333333334
543,-443.73333333333335,21.333333333333332,256.0
544,-443.73333333333335,19.2,253.86666666666667
545,-448.0,17.066666666666666,277.3333333333333
546,-456.5333333333333,19.2,266.6666666666667
547,-443.73333333333335,6.4,273.06666666666666
548,-448.0,6.4,270.93333333333334
549,-435.2,-6.4,279.46666666666664
550,-437.3333333333333,-12.8,268.8
551,-430.93333333333334,-10.666666666666666,268.8
552,-424.5333333333333,-10.666666666666666,277.3333333333333
553,-418.1333333333333,-10.666666666666666,283.73333333333335
554,-407.46666666666664,-10.666666666666666,285.8666666666667
555,-394.6666666666667,-17.066666666666666,285.8666666666667
556,-390.4,-25.6,279.46666666666664
557,-386.1333333333333,-21.333333333333332,290.1333333333333
558,-386.1333333333333,-29.866666666666667,281.6
559,-394.6666666666667,-29.866666666666667,283.73333333333335
560,-392.5333333333333,-32.0,285.8666666666667
561,-401.06666666666666,-27.733333333333334,290.1333333333333
562,-403.2,-14.933333333333334,288.0
563,-409.6,-8.533333333333333,283.73333333333335
564,-420.26666666666665,-6.4,279.46666666666664
565,-428.8,8.533333333333333,268.8
566,-428.8,17.066666666666666,253.86666666666667
567,-437.3333333333333,27.733333333333334,238.93333333333334
568,-424.5333333333333,25.6,253.86666666666667
569,-426.6666666666667,17.066666666666666,245.33333333333334
570,-426.6666666666667,29.866666666666667,260.26666666666665
571,-416.0,27.733333333333334,253.86666666666667
572,-411.73333333333335,29.866666666666667,247.46666666666667
573,-416.0,32.0,236.79999999999998
574,-420.26666666666665,36.266666666666666,230.4
575,-426.6666666666667,29.866666666666667,215.46666666666667
576,-433.06666666666666,27.733333333333334,219.73333333333332
577,-445.8666666666667,25.6,217.6
578,-456.5333333333333,23.466666666666665,204.8
579,-458.6666666666667,27.733333333333334,194.13333333333333
580,-471.46666666666664,25.6,196.26666666666665
581,-477.8666666666667,29.866666666666667,189.86666666666667
582,-490.6666666666667,32.0,179.2
583,-501.3333333333333,40.53333333333333,172.8
584,-509.8666666666667,36.266666666666666,177.06666666666666
585,-507.73333333333335,38.4,179.2
586,-499.2,38.4,181.33333333333334
587,-509.8666666666667,34.13333333333333,187.73333333333332
588,-516.2666666666667,29.866666666666667,192.0
589,-529.0666666666666,23.466666666666665,192.0
590,-548.2666666666667,27.733333333333334,198.4
591,-552.5333333333333,25.6,211.2
592,-541.8666666666667,25.6,211.2
593,-518.4,17.066666666666666,200.53333333333333
594,-520.5333333333333,25.6,185.6
595,-524.8,32.0,170.66666666666666
596,-529.0666666666666,42.666666666666664,172.8
597,-516.2666666666667,51.2,172.8
598,-505.59999999999997,59.733333333333334,157.86666666666667
599,-509.8666666666667,61.86666666666667,157.86666666666667
600,-509.8666666666667,61.86666666666667,170.66666666666666
601,-514.1333333333333,61.86666666666667,153.6
602,-514.1333333333333,68.26666666666667,151.46666666666667
603,-516.2666666666667,66.13333333333333,147.2
604,-518.4,59.733333333333334,138.66666666666666
605,-535.4666666666667,55.46666666666667,145.06666666666666
606,-554.6666666666666,46.93333333333333,140.8
607,-567.4666666666667,32.0,138.66666666666666
608,-567.4666666666667,21.333333333333332,138.66666666666666
609,-571.7333333333333,23.466666666666665,121.6
610,-571.7333333333333,17.066666666666666,108.8
611,-571.7333333333333,4.266666666666667,93.86666666666666
612,-569.6,-2.1333333333333333,81.06666666666666
613,-561.0666666666666,6.4,70.4
614,-556.8,2.1333333333333333,74.66666666666667
615,-539.7333333333333,-4.266666666666667,74.66666666666667
616,-531.2,-8.533333333333333,85.33333333333333
617,-520.5333333333333,-17.066666666666666,96.0
618,-518.4,-17.066666666666666,98.13333333333333
619,-514.1333333333333,-17.066666666666666,85.33333333333333
620,-509.8666666666667,-25.6,81.06666666666666
621,-514.1333333333333,-21.333333333333332,61.86666666666667
622,-516.2666666666667,-29.866666666666667,61.86666666666667
623,-524.8,-23.466666666666665,59.733333333333334
624,-526.9333333333333,-32.0,44.8
625,-535.4666666666667,-32.0,40.53333333333333
626,-541.8666666666667,-40.53333333333333,34.13333333333333
627,-552.5333333333333,-36.266666666666666,19.2
628,-569.6,-32.0,12.8
629,-578.1333333333333,-23.466666666666665,6.4
630,-605.8666666666667,-21.333333333333332,2.1333333333333333
631,-625.0666666666666,-10.666666666666666,-2.1333333333333333
632,-637.8666666666667,-4.266666666666667,-6.4
633,-646.4,6.4,-19.2
634,-640.0,6.4,-19.2
635,-635.7333333333333,10.666666666666666,-21.333333333333332
636,-629.3333333333334,4.266666666666667,-17.066666666666666
637,-627.2,-4.266666666666667,-10.666666666666666
638,-616.5333333333333,-6.4,8.533333333333333
639,-605.8666666666667,-8.533333333333333,14.933333333333334
640,-584.5333333333333,-17.066666666666666,34.13333333333333
641,-571.7333333333333,-19.2,25.6
642,-565.3333333333334,-21.333333333333332,27.733333333333334
643,-552.5333333333333,-21.333333333333332,23.466666666666665
644,-546.1333333333333,-14.933333333333334,27.733333333333334
645,-539.7333333333333,-8.533333333333333,23.466666666666665
646,-535.4666666666667,-6.4,14.933333333333334
647,-544.0,0.0,14.933333333333334
648,-544.0,-2.1333333333333333,4.266666666666667
649,-544.0,-2.1333333333333333,2.1333333333333333
650,-548.2666666666667,0.0,2.1333333333333333
651,-558.9333333333333,-2.1333333333333333,-6.4
652,-561.0666666666666,-6.4,-2.1333333333333333
653,-567.4666666666667,-12.8,-12.8
654,-571.7333333333333,-21.333333333333332,-6.4
655,-565.3333333333334,-17.066666666666666,-4.266666666666667
656,-571.7333333333333,-14.933333333333334,-6.4
657,-578.1333333333333,-12.8,0.0
658,-580.2666666666667,-14.933333333333334,2.1333333333333333
659,-578.1333333333333,-6.4,4.266666666666667
660,-582.4,-6.4,14.933333333333334
661,-573.8666666666667,0.0,14.933333333333334
662,-571.7333333333333,4.266666666666667,12.8
663,-571.7333333333333,6.4,4.266666666666667
664,-563.2,6.4,12.8
665,-552.5333333333333,4.266666666666667,10.666666666666666
666,-552.5333333333333,-4.266666666666667,17.066666666666666
667,-539.7333333333333,4.266666666666667,19.2
668,-546.1333333333333,2.1333333333333333,8.533333333333333
669,-541.8666666666667,6.4,23.466666666666665
670,-537.6,12.8,21.333333333333332
671,-535.4666666666667,17.066666666666666,19.2
672,-544.0,29.866666666666667,17.066666666666666
673,-550.4,34.13333333333333,25.6
674,-558.9333333333333,44.8,40.53333333333333
675,-561.0666666666666,42.666666666666664,36.266666666666666
676,-573.8666666666667,46.93333333333333,46.93333333333333
677,-576.0,49.06666666666666,42.666666666666664
678,-580.2666666666667,49.06666666666666,42.666666666666664
679,-582.4,49.06666666666666,44.8
680,-584.5333333333333,46.93333333333333,46.93333333333333
681,-573.8666666666667,49.06666666666666,49.06666666666666
682,-578.1333333333333,57.6,44.8
683,-573.8666666666667,53.333333333333336,40.53333333333333
684,-563.2,55.46666666666667,53.333333333333336
685,-563.2,57.6,25.6
686,-561.0666666666666,53.333333333333336,38.4
687,-554.6666666666666,53.333333333333336,42.666666666666664
688,-552.5333333333333,53.333333333333336,38.4
689,-548.2666666666667,49.06666666666666,32.0
690,-548.2666666666667,49.06666666666666,40.53333333333333
691,-544.0,53.333333333333336,38.4
692,-546.1333333333333,51.2,42.666666666666664
693,-548.2666666666667,42.666666666666664,44.8
694,-552.5333333333333,44.8,46.93333333333333
695,-546.1333333333333,38.4,40.53333333333333
696,-546.1333333333333,42.666666666666664,44.8
697,-548.2666666666667,36.266666666666666,38.4
698,-544.0,29.866666666666667,46.93333333333333
699,-544.0,34.13333333333333,44.8
700,-546.1333333333333,36.266666666666666,46.93333333333333
701,-548.2666666666667,34.13333333333333,44.8
702,-548.2666666666667,36.266666666666666,49.06666666666666
703,-550.4,36.266666666666666,44.8
704,-548.2666666666667,29.866666666666667,49.06666666666666
705,-552.5333333333333,29.866666666666667,46.93333333333333
706,-548.2666666666667,36.266666666666666,49.06666666666666
707,-554.6666666666666,38.4,40.53333333333333
708,-544.0,29.866666666666667,53.333333333333336
709,-546.1333333333333,34.13333333333333,55.46666666666667
710,-546.1333333333333,25.6,53.333333333333336
711,-546.1333333333333,25.6,49.06666666666666
712,-546.1333333333333,17.066666666666666,55.46666666666667
713,-539.7333333333333,21.333333333333332,57.6
714,-539.7333333333333,21.333333333333332,61.86666666666667
715,-544.0,19.2,61.86666666666667
716,-541.8666666666667,19.2,61.86666666666667
717,-539.7333333333333,23.466666666666665,66.13333333333333
718,-541.8666666666667,21.333333333333332,59.733333333333334
719,-550.4,23.466666666666665,55.46666666666667
720,-548.2666666666667,23.466666666666665,61.86666666666667
721,-539.7333333333333,21.333333333333332,61.86666666666667
722,-550.4,23.466666666666665,64.0
723,-541.8666666666667,17.066666666666666,55.46666666666667
724,-539.7333333333333,23.466666666666665,59.733333333333334
725,-548.2666666666667,21.333333333333332,53.333333333333336
726,-544.0,23.466666666666665,49.06666666666666
727,-541.8666666666667,21.333333333333332,51.2
728,-541.8666666666667,27.733333333333334,51.2
729,-550.4,19.2,51.2
730,-548.2666666666667,21.333333333333332,49.06666666666666
731,-552.5333333333333,25.6,53.333333333333336
732,-550.4,23.466666666666665,42.666666666666664
733,-554.6666666666666,25.6,51.2
734,-552.5333333333333,21.333333333333332,49.06666666666666
735,-552.5333333333333,17.066666666666666,51.2
736,-550.4,25.6,51.2
737,-552.5333333333333,25.6,46.93333333333333
738,-546.1333333333333,14.933333333333334,46.93333333333333
739,-550.4,21.333333333333332,44.8
740,-548.2666666666667,21.333333333333332,36.266666666666666
741,-550.4,17.066666666666666,42.666666666666664
742,-548.2666666666667,6.4,51.2
743,-546.1333333333333,21.333333333333332,36.266666666666666
744,-544.0,19.2,36.266666666666666
745,-546.1333333333333,17.066666666666666,42.666666666666664
746,-552.5333333333333,23.466666666666665,49.06666666666666
747,-548.2666666666667,21.333333333333332,42.666666666666664
748,-546.1333333333333,19.2,46.93333333333333
749,-554.6666666666666,27.733333333333334,38.4
750,-550.4,27.733333333333334,36.266666666666666
751,-552.5333333333333,23.466666666666665,42.666666666666664
752,-552.5333333333333,21.333333333333332,49.06666666666666
753,-552.5333333333333,25.6,40.53333333333333
754,-554.6666666666666,27.733333333333334,44.8
755,-558.9333333333333,29.866666666666667,46.93333333333333
756,-561.0666666666666,29.866666666666667,38.4
757,-556.8,29.866666666666667,38.4
758,-556.8,23.466666666666665,40.53333333333333
759,-556.8,29.866666666666667,38.4
760,-550.4,23.466666666666665,53.333333333333336
761,-558.9333333333333,29.866666666666667,36.266666666666666
762,-558.9333333333333,29.866666666666667,49.06666666666666
763,-556.8,32.0,38.4
764,-558.9333333333333,29.866666666666667,49.06666666666666
765,-556.8,36.266666666666666,46.93333333333333
766,-554.6666666666666,38.4,46.93333333333333
767,-558.9333333333333,32.0,38.4
768,-552.5333333333333,27.733333333333334,40.53333333333333
769,-552.5333333333333,27.733333333333334,46.93333333333333
770,-556.8,27.733333333333334,46.93333333333333
771,-556.8,29.866666666666667,40.53333333333333
772,-554.6666666666666,27.733333333333334,44.8
773,-554.6666666666666,29.866666666666667,40.53333333333333
774,-552.5333333333333,32.0,40.53333333333333
775,-548.2666666666667,27.733333333333334,44.8
776,-548.2666666666667,21.333333333333332,44.8
777,-548.2666666666667,23.466666666666665,53.333333333333336
778,-546.1333333333333,23.466666666666665,51.2
779,-544.0,23.466666666666665,53.333333333333336
780,-548.2666666666667,29.866666666666667,42.666666666666664
781,-548.2666666666667,29.866666666666667,44.8
782,-550.4,25.6,51.2
783,-548.2666666666667,23.466666666666665,55.46666666666667
784,-548.2666666666667,27.733333333333334,59.733333333333334
785,-546.1333333333333,25.6,55.46666666666667
786,-548.2666666666667,34.13333333333333,51.2
787,-552.5333333333333,36.266666666666666,53.333333333333336
788,-550.4,34.13333333333333,55.46666666666667
789,-554.6666666666666,29.866666666666667,53.333333333333336
790,-554.6666666666666,25.6,51.2
791,-550.4,27.733333333333334,49.06666666666666
792,-550.4,25.6,64.0
793,-550.4,17.066666666666666,55.46666666666667
794,-552.5333333333333,25.6,55.46666666666667
795,-548.2666666666667,23.466666666666665,61.86666666666667
796,-550.4,21.333333333333332,55.46666666666667
797,-546.1333333333333,19.2,53.333333333333336
798,-548.2666666666667,19.2,61.86666666666667
799,-548.2666666666667,21.333333333333332,59.733333333333334
800,-546.1333333333333,23.466666666666665,51.2
801,-546.1333333333333,23.466666666666665,61.86666666666667
802,-541.8666666666667,25.6,59.733333333333334
803,-546.1333333333333,32.0,55.46666666666667
804,-544.0,23.466666666666665,68.26666666666667
805,-541.8666666666667,23.466666666666665,59.733333333333334
806,-544.0,32.0,64.0
807,-546.1333333333333,27.733333333333334,64.0
808,-539.7333333333333,21.333333333333332,55.46666666666667
809,-552.5333333333333,32.0,61.86666666666667
810,-546.1333333333333,29.866666666666667,59.733333333333334
811,-544.0,25.6,53.333333333333336
812,-546.1333333333333,25.6,57.6
813,-548.2666666666667,29.866666666666667,68.26666666666667
814,-550.4,27.733333333333334,51.2
815,-552.5333333333333,27.733333333333334,55.46666666666667
816,-541.8666666666667,25.6,55.46666666666667
817,-550.4,27.733333333333334,53.333333333333336
818,-546.1333333333333,23.466666666666665,49.06666666666666
819,-552.5333333333333,27.733333333333334,46.93333333333333
820,-554.6666666666666,25.6,59.733333333333334
821,-550.4,25.6,49.06666666666666
822,-552.5333333333333,25.6,59.733333333333334
823,-550.4,27.733333333333334,51.2
824,-554.6666666666666,23.466666666666665,51.2
825,-548.2666666666667,23.466666666666665,46.93333333333333
826,-548.2666666666667,25.6,51.2
827,-554.6666666666666,29.866666666666667,55.46666666666667
828,-550.4,21.333333333333332,51.2
829,-554.6666666666666,23.466666666666665,59.733333333333334
830,-550.4,25.6,53.333333333333336
831,-548.2666666666667,19.2,55.46666666666667
832,-548.2666666666667,25.6,59.733333333333334
833,-550.4,25.6,51.2
834,-550.4,29.866666666666667,46.93333333333333
835,-546.1333333333333,23.466666666666665,49.06666666666666
836,-546.1333333333333,25.6,46.93333333333333
837,-552.5333333333333,29.866666666666667,55.46666666666667
838,-548.2666666666667,29.866666666666667,44.8
839,-548.2666666666667,25.6,51.2
840,-554.6666666666666,29.866666666666667,57.6
841,-550.4,19.2,55.46666666666667
842,-548.2666666666667,27.733333333333334,51.2
843,-550.4,23.466666666666665,46.93333333333333
844,-552.5333333333333,32.0,49.06666666666666
845,-548.2666666666667,25.6,49.06666666666666
846,-554.6666666666666,32.0,42.666666666666664
847,-550.4,29.866666666666667,53.333333333333336
848,-548.2666666666667,23.466666666666665,40.53333333333333
849,-546.1333333333333,23.466666666666665,49.06666666666666
850,-548.2666666666667,29.866666666666667,44.8
851,-554.6666666666666,32.0,46.93333333333333
852,-554.6666666666666,27.733333333333334,51.2
853,-556.8,29.866666666666667,53.333333333333336
854,-554.6666666666666,29.866666666666667,46.93333333333333
855,-554.6666666666666,21.333333333333332,55.46666666666667
856,-550.4,27.733333333333334,51.2
857,-554.6666666666666,27.733333333333334,46.93333333333333
858,-550.4,23.466666666666665,44.8
859,-552.5333333333333,34.13333333333333,38.4
860,-548.2666666666667,19.2,51.2
861,-558.9333333333333,27.733333333333334,42.666666666666664
862,-552.5333333333333,27.733333333333334,53.333333333333336
863,-552.5333333333333,29.866666666666667,51.2
864,-550.4,23.466666666666665,49.06666666666666
865,-556.8,27.733333333333334,53.333333333333336
866,-550.4,25.6,57.6
867,-554.6666666666666,23.466666666666665,53.333333333333336
868,-546.1333333333333,25.6,53.333333333333336
869,-550.4,29.866666666666667,51.2
870,-552.5333333333333,25.6,49.06666666666666
871,-552.5333333333333,27.733333333333334,55.46666666666667
872,-546.1333333333333,25.6,53.333333333333336
873,-552.5333333333333,32.0,53.333333333333336
874,-548.2666666666667,29.866666666666667,53.333333333333336
875,-550.4,23.466666666666665,53.333333333333336
876,-546.1333333333333,25.6,61.86666666666667
877,-544.0,17.066666666666666,46.93333333333333
878,-548.2666666666667,23.466666666666665,61.86666666666667
879,-550.4,23.466666666666665,42.666666666666664
880,-552.5333333333333,23.466666666666665,51.2
881,-550.4,27.733333333333334,46.93333333333333
882,-552.5333333333333,25.6,55.46666666666667
883,-554.6666666666666,23.466666666666665,59.733333333333334
884,-548.2666666666667,21.333333333333332,44.8
885,-548.2666666666667,17.066666666666666,53.333333333333336
886,-550.4,23.466666666666665,42.666666666666664
887,-552.5333333333333,21.333333333333332,57.6
888,-548.2666666666667,27.733333333333334,55.46666666666667
889,-552.5333333333333,25.6,51.2
890,-550.4,29.866666666666667,57.6
891,-548.2666666666667,29.866666666666667,53.333333333333336
892,-546.1333333333333,29.866666666666667,55.46666666666667
893,-546.1333333333333,23.466666666666665,55.46666666666667
894,-552.5333333333333,34.13333333333333,57.6
895,-554.6666666666666,25.6,57.6
896,-548.2666666666667,21.333333333333332,53.333333333333336
897,-552.5333333333333,27.733333333333334,46.93333333333333
898,-548.2666666666667,29.866666666666667,55.46666666666667
899,-548.2666666666667,27.733333333333334,57.6
900,-550.4,29.866666666666667,51.2
901,-552.5333333333333,32.0,53.333333333333336
902,-550.4,27.733333333333334,53.333333333333336
903,-550.4,25.6,51.2
904,-552.5333333333333,32.0,53.333333333333336
905,-546.1333333333333,25.6,55.46666666666667
906,-550.4,19.2,44.8
907,-552.5333333333333,36.266666666666666,51.2
908,-548.2666666666667,27.733333333333334,57.6
909,-546.1333333333333,25.6,55.46666666666667
910,-548.2666666666667,27.733333333333334,46.93333333333333
911,-550.4,32.0,53.333333333333336
912,-548.2666666666667,23.466666666666665,53.333333333333336
913,-548.2666666666667,23.466666666666665,59.733333333333334
914,-548.2666666666667,29.866666666666667,53.333333333333336
915,-544.0,21.333333333333332,53.333333333333336
916,-552.5333333333333,21.333333333333332,57.6
917,-546.1333333333333,27.733333333333334,53.333333333333336
918,-556.8,23.466666666666665,55.46666666666667
919,-550.4,21.333333333333332,57.6
920,-548.2666666666667,23.466666666666665,57.6
921,-550.4,21.333333333333332,68.26666666666667
922,-552.5333333333333,25.6,61.86666666666667
923,-552.5333333333333,25.6,53.333333333333336
924,-597.3333333333334,21.333333333333332,55.46666666666667
925,-544.0,34.13333333333333,87.46666666666667
926,-554.6666666666666,17.066666666666666,66.13333333333333
927,-554.6666666666666,25.6,53.333333333333336
928,-544.0,25.6,38.4
929,-544.0,29.866666666666667,61.86666666666667
930,-546.1333333333333,27.733333333333334,44.8
931,-552.5333333333333,21.333333333333332,53.333333333333336
932,-548.2666666666667,21.333333333333332,46.93333333333333
933,-554.6666666666666,25.6,46.93333333333333
934,-558.9333333333333,21.333333333333332,51.2
935,-554.6666666666666,23.466666666666665,49.06666666666666
936,-552.5333333333333,25.6,53.333333333333336
937,-550.4,29.866666666666667,53.333333333333336
938,-550.4,25.6,55.46666666666667
939,-552.5333333333333,32.0,46.93333333333333
940,-552.5333333333333,29.866666666666667,57.6
941,-550.4,32.0,61.86666666666667
942,-552.5333333333333,23.466666666666665,57.6
943,-550.4,25.6,44.8
944,-550.4,32.0,49.06666666666666
945,-544.0,21.333333333333332,53.333333333333336
946,-552.5333333333333,25.6,57.6
947,-546.1333333333333,21.333333333333332,46.93333333333333
948,-548.2666666666667,21.333333333333332,51.2
949,-550.4,25.6,53.333333333333336
950,-548.2666666666667,21.333333333333332,51.2
951,-550.4,21.333333333333332,64.0
952,-546.1333333333333,21.333333333333332,64.0
953,-546.1333333333333,19.2,57.6
954,-556.8,25.6,53.333333333333336
955,-548.2666666666667,25.6,57.6
956,-561.0666666666666,23.466666666666665,51.2
957,-554.6666666666666,21.333333333333332,55.46666666666667
958,-550.4,29.866666666666667,51.2
959,-548.2666666666667,23.466666666666665,44.8
960,-550.4,25.6,55.46666666666667
961,-550.4,32.0,61.86666666666667
962,-552.5333333333333,27.733333333333334,51.2
963,-548.2666666666667,32.0,51.2
964,-550.4,23.466666666666665,46.93333333333333
965,-550.4,29.866666666666667,51.2
966,-550.4,27.733333333333334,46.93333333333333
967,-544.0,19.2,51.2
968,-552.5333333333333,19.2,51.2
969,-550.4,23.466666666666665,57.6
970,-546.1333333333333,19.2,61.86666666666667
971,-554.6666666666666,29.866666666666667,61.86666666666667
972,-548.2666666666667,27.733333333333334,55.46666666666667
973,-546.1333333333333,21.333333333333332,55.46666666666667
974,-546.1333333333333,19.2,64.0
975,-541.8666666666667,19.2,55.46666666666667
976,-554.6666666666666,25.6,53.333333333333336
977,-554.6666666666666,27.733333333333334,57.6
978,-548.2666666666667,23.466666666666665,81.06666666666666
979,-550.4,32.0,55.46666666666667
980,-544.0,32.0,51.2
981,-550.4,29.866666666666667,59.733333333333334
982,-550.4,23.466666666666665,46.93333333333333
983,-550.4,21.333333333333332,55.46666666666667
984,-556.8,23.466666666666665,53.333333333333336
985,-556.8,29.866666666666667,57.6
986,-550.4,21.333333333333332,49.06666666666666
987,-554.6666666666666,27.733333333333334,57.6
988,-548.2666666666667,29.866666666666667,51.2
989,-548.2666666666667,32.0,53.333333333333336
990,-546.1333333333333,27.733333333333334,49.06666666666666
991,-550.4,23.466666666666665,46.93333333333333
992,-552.5333333333333,29.866666666666667,64.0
993,-552.5333333333333,25.6,55.46666666666667
994,-537.6,23.466666666666665,55.46666666666667
995,-544.0,19.2,59.733333333333334
996,-546.1333333333333,25.6,55.46666666666667
997,-548.2666666666667,29.866666666666667,42.666666666666664
998,-544.0,29.866666666666667,49.06666666666666
999,-550.4,29.866666666666667,53.333333333333336
1000,-541.8666666666667,19.2,57.6
1001,-552.5333333333333,29.866666666666667,55.46666666666667
1002,-552.5333333333333,27.733333333333334,53.333333333333336
1003,-550.4,25.6,53.333333333333336
1004,-550.4,27.733333333333334,44.8
1005,-554.6666666666666,27.733333333333334,57.6
1006,-552.5333333333333,23.466666666666665,57.6
1007,-548.2666666666667,27.733333333333334,57.6
1008,-554.6666666666666,29.866666666666667,53.333333333333336
1009,-550.4,23.466666666666665,49.06666666666666
1010,-552.5333333333333,25.6,55.46666666666667
1011,-548.2666666666667,21.333333333333332,49.06666666666666
1012,-548.2666666666667,29.866666666666667,55.46666666666667
1013,-544.0,21.333333333333332,49.06666666666666
1014,-552.5333333333333,32.0,57.6
1015,-544.0,27.733333333333334,53.333333333333336
1016,-552.5333333333333,27.733333333333334,51.2
1017,-548.2666666666667,27.733333333333334,53.333333333333336
1018,-550.4,29.866666666666667,57.6
1019,-546.1333333333333,25.6,55.46666666666667
1020,-552.5333333333333,29.866666666666667,53.333333333333336
1021,-546.1333333333333,27.733333333333334,53.333333333333336
1022,-546.1333333333333,23.466666666666665,57.6
1023,-548.2666666666667,32.0,57.6
1024,-552.5333333333333,29.866666666666667,59.733333333333334
1025,-546.1333333333333,29.866666666666667,55.46666666666667
1026,-548.2666666666667,27.733333333333334,51.2
1027,-548.2666666666667,32.0,55.46666666666667
1028,-546.1333333333333,25.6,57.6
1029,-552.5333333333333,29.866666666666667,61.86666666666667
1030,-550.4,27.733333333333334,53.333333333333336
1031,-546.1333333333333,25.6,51.2
1032,-550.4,23.466666666666665,44.8
1033,-548.2666666666667,29.866666666666667,59.733333333333334
1034,-550.4,29.866666666666667,55.46666666666667
1035,-546.1333333333333,25.6,49.06666666666666
1036,-541.8666666666667,21.333333333333332,49.06666666666666
1037,-552.5333333333333,25.6,53.333333333333336
1038,-550.4,25.6,49.06666666666666
1039,-554.6666666666666,25.6,59.733333333333334
1040,-552.5333333333333,29.866666666666667,57.6
1041,-548.2666666666667,21.333333333333332,51.2
1042,-546.1333333333333,21.333333333333332,57.6
1043,-546.1333333333333,21.333333333333332,44.8
1044,-552.5333333333333,27.733333333333334,46.93333333333333
1045,-552.5333333333333,21.333333333333332,59.733333333333334
1046,-552.5333333333333,25.6,55.46666666666667
1047,-554.6666666666666,23.466666666666665,61.86666666666667
1048,-548.2666666666667,27.733333333333334,51.2
1049,-552.5333333333333,25.6,46.93333333333333
1050,-546.1333333333333,27.733333333333334,61.86666666666667
1051,-548.2666666666667,23.466666666666665,44.8
1052,-552.5333333333333,23.466666666666665,51.2
1053,-548.2666666666667,19.2,53.333333333333336
1054,-552.5333333333333,25.6,49.06666666666666
1055,-552.5333333333333,25.6,53.333333333333336
1056,-556.8,23.466666666666665,53.333333333333336
1057,-544.0,23.466666666666665,49.06666666666666
1058,-550.4,23.466666666666665,49.06666666666666
1059,-552.5333333333333,27.733333333333334,57.6
1060,-550.4,25.6,53.333333333333336
1061,-550.4,29.866666666666667,51.2
1062,-556.8,29.866666666666667,51.2
1063,-546.1333333333333,25.6,46.93333333333333
1064,-550.4,21.333333333333332,57.6
1065,-550.4,27.733333333333334,53.333333333333336
1066,-544.0,25.6,49.06666666666666
1067,-548.2666666666667,29.866666666666667,59.733333333333334
1068,-544.0,25.6,61.86666666666667
1069,-544.0,23.466666666666665,57.6
1070,-550.4,21.333333333333332,55.46666666666667
1071,-552.5333333333333,25.6,59.733333333333334
1072,-558.9333333333333,29.866666666666667,59.733333333333334
1073,-552.5333333333333,27.733333333333334,59.733333333333334
1074,-550.4,27.733333333333334,57.6
1075,-552.5333333333333,27.733333333333334,53.333333333333336
1076,-548.2666666666667,21.333333333333332,44.8
1077,-554.6666666666666,36.266666666666666,59.733333333333334
1078,-548.2666666666667,25.6,46.93333333333333
1079,-554.6666666666666,27.733333333333334,51.2
1080,-554.6666666666666,32.0,55.46666666666667
1081,-552.5333333333333,25.6,53.333333333333336
1082,-546.1333333333333,32.0,57.6
1083,-544.0,29.866666666666667,55.46666666666667
1084,-546.1333333333333,27.733333333333334,55.46666666666667
1085,-550.4,25.6,57.6
1086,-550.4,27.733333333333334,55.46666666666667
1087,-548.2666666666667,29.866666666666667,46.93333333333333
1088,-544.0,25.6,53.333333333333336
1089,-548.2666666666667,25.6,51.2
1090,-541.8666666666667,25.6,53.333333333333336
1091,-548.2666666666667,27.733333333333334,55.46666666666667
1092,-550.4,32.0,49.06666666666666
1093,-550.4,25.6,57.6
1094,-546.1333333333333,29.866666666666667,53.333333333333336
1095,-552.5333333333333,32.0,51.2
1096,-548.2666666666667,29.866666666666667,61.86666666666667
1097,-550.4,27.733333333333334,53.333333333333336
1098,-550.4,29.866666666666667,55.46666666666667
1099,-556.8,25.6,57.6
1100,-558.9333333333333,23.466666666666665,57.6
1101,-565.3333333333334,25.6,57.6
1102,-556.8,21.333333333333332,57.6
1103,-561.0666666666666,23.466666666666665,57.6
1104,-552.5333333333333,27.733333333333334,57.6
1105,-552.5333333333333,25.6,64.0
1106,-550.4,25.6,57.6
1107,-550.4,29.866666666666667,57.6
1108,-546.1333333333333,27.733333333333334,57.6
1109,-546.1333333333333,27.733333333333334,46.93333333333333
1110,-544.0,25.6,51.2
1111,-546.1333333333333,27.733333333333334,66.13333333333333
1112,-548.2666666666667,32.0,61.86666666666667
1113,-550.4,25.6,64.0
1114,-552.5333333333333,25.6,64.0
1115,-552.5333333333333,23.466666666666665,70.4
1116,-554.6666666666666,25.6,59.733333333333334
1117,-558.9333333333333,25.6,57.6
1118,-556.8,27.733333333333334,55.46666666666667
1119,-565.3333333333334,32.0,49.06666666666666
1120,-554.6666666666666,25.6,53.333333333333336
1121,-554.6666666666666,17.066666666666666,42.666666666666664
1122,-548.2666666666667,23.466666666666665,36.266666666666666
1123,-541.8666666666667,12.8,36.266666666666666
1124,-544.0,12.8,42.666666666666664
1125,-539.7333333333333,12.8,40.53333333333333
1126,-539.7333333333333,14.933333333333334,46.93333333333333
1127,-544.0,17.066666666666666,59.733333333333334
1128,-544.0,19.2,59.733333333333334
1129,-544.0,19.2,61.86666666666667
1130,-554.6666666666666,21.333333333333332,64.0
1131,-552.5333333333333,23.466666666666665,70.4
1132,-558.9333333333333,32.0,68.26666666666667
1133,-565.3333333333334,32.0,61.86666666666667
1134,-565.3333333333334,29.866666666666667,68.26666666666667
1135,-573.8666666666667,40.53333333333333,72.53333333333333
1136,-576.0,32.0,66.13333333333333
1137,-580.2666666666667,36.266666666666666,68.26666666666667
1138,-588.8,27.733333333333334,64.0
1139,-584.5333333333333,32.0,64.0
1140,-571.7333333333333,29.866666666666667,61.86666666666667
1141,-576.0,19.2,49.06666666666666
1142,-573.8666666666667,17.066666666666666,55.46666666666667
1143,-573.8666666666667,12.8,38.4
1144,-573.8666666666667,10.666666666666666,40.53333333333333
1145,-571.7333333333333,6.4,49.06666666666666
1146,-565.3333333333334,0.0,44.8
1147,-561.0666666666666,-4.266666666666667,42.666666666666664
1148,-556.8,-4.266666666666667,46.93333333333333
1149,-554.6666666666666,-4.266666666666667,46.93333333333333
1150,-552.5333333333333,10.666666666666666,51.2
1151,-550.4,8.533333333333333,64.0
1152,-544.0,19.2,51.2
1153,-531.2,23.466666666666665,49.06666666666666
1154,-526.9333333333333,25.6,42.666666666666664
1155,-533.3333333333334,32.0,51.2
1156,-531.2,36.266666666666666,49.06666666666666
1157,-535.4666666666667,32.0,42.666666666666664
1158,-529.0666666666666,25.6,42.666666666666664
1159,-544.0,32.0,40.53333333333333
1160,-546.1333333333333,29.866666666666667,46.93333333333333
1161,-563.2,32.0,53.333333333333336
1162,-554.6666666666666,29.866666666666667,59.733333333333334
1163,-558.9333333333333,23.466666666666665,78.93333333333334
1164,-558.9333333333333,23.466666666666665,72.53333333333333
1165,-561.0666666666666,29.866666666666667,70.4
1166,-548.2666666666667,27.733333333333334,70.4
1167,-546.1333333333333,25.6,72.53333333333333
1168,-535.4666666666667,19.2,55.46666666666667
1169,-529.0666666666666,21.333333333333332,66.13333333333333
1170,-533.3333333333334,21.333333333333332,70.4
1171,-522.6666666666666,14.933333333333334,59.733333333333334
1172,-526.9333333333333,19.2,59.733333333333334
1173,-520.5333333333333,27.733333333333334,59.733333333333334
1174,-520.5333333333333,25.6,57.6
1175,-524.8,25.6,61.86666666666667
1176,-539.7333333333333,25.6,61.86666666666667
1177,-541.8666666666667,27.733333333333334,70.4
1178,-544.0,23.466666666666665,74.66666666666667
1179,-546.1333333333333,23.466666666666665,81.06666666666666
1180,-554.6666666666666,27.733333333333334,85.33333333333333
1181,-556.8,40.53333333333333,89.6
1182,-558.9333333333333,40.53333333333333,89.6
1183,-550.4,46.93333333333333,96.0
1184,-546.1333333333333,53.333333333333336,96.0
1185,-544.0,61.86666666666667,100.26666666666667
1186,-535.4666666666667,64.0,102.4
1187,-535.4666666666667,61.86666666666667,96.0
1188,-529.0666666666666,61.86666666666667,106.66666666666667
1189,-526.9333333333333,55.46666666666667,104.53333333333333
1190,-524.8,55.46666666666667,102.4
1191,-524.8,64.0,113.06666666666666
1192,-518.4,57.6,119.46666666666667
1193,-518.4,59.733333333333334,110.93333333333334
1194,-518.4,59.733333333333334,119.46666666666667
1195,-516.2666666666667,66.13333333333333,121.6
1196,-514.1333333333333,66.13333333333333,119.46666666666667
1197,-512.0,68.26666666666667,128.0
1198,-512.0,59.733333333333334,130.13333333333333
1199,-516.2666666666667,64.0,140.8
1200,-520.5333333333333,66.13333333333333,147.2
1201,-516.2666666666667,70.4,151.46666666666667
1202,-522.6666666666666,70.4,160.0
1203,-518.4,66.13333333333333,155.73333333333332
1204,-524.8,70.4,157.86666666666667
1205,-522.6666666666666,64.0,151.46666666666667
1206,-522.6666666666666,68.26666666666667,149.33333333333334
1207,-520.5333333333333,57.6,142.93333333333334
1208,-516.2666666666667,51.2,147.2
1209,-516.2666666666667,46.93333333333333,153.6
1210,-514.1333333333333,46.93333333333333,142.93333333333334
1211,-514.1333333333333,44.8,145.06666666666666
1212,-509.8666666666667,49.06666666666666,153.6
1213,-507.73333333333335,49.06666666666666,149.33333333333334
1214,-505.59999999999997,59.733333333333334,153.6
1215,-497.06666666666666,57.6,153.6
1216,-505.59999999999997,61.86666666666667,162.13333333333333
1217,-499.2,57.6,162.13333333333333
1218,-505.59999999999997,57.6,162.13333333333333
1219,-507.73333333333335,59.733333333333334,174.93333333333334
1220,-503.46666666666664,53.333333333333336,166.4
1221,-499.2,49.06666666666666,166.4
1222,-492.8,55.46666666666667,177.06666666666666
1223,-484.26666666666665,53.333333333333336,164.26666666666665
1224,-488.5333333333333,59.733333333333334,166.4
1225,-475.73333333333335,55.46666666666667,155.73333333333332
1226,-477.8666666666667,55.46666666666667,145.06666666666666
1227,-475.73333333333335,55.46666666666667,153.6
1228,-467.2,59.733333333333334,153.6
1229,-471.46666666666664,59.733333333333334,155.73333333333332
1230,-469.3333333333333,61.86666666666667,155.73333333333332
1231,-471.46666666666664,61.86666666666667,153.6
1232,-469.3333333333333,59.733333333333334,151.46666666666667
1233,-465.06666666666666,66.13333333333333,149.33333333333334
1234,-462.93333333333334,72.53333333333333,145.06666666666666
1235,-456.5333333333333,74.66666666666667,145.06666666666666
1236,-462.93333333333334,83.2,136.53333333333333
1237,-477.8666666666667,87.46666666666667,136.53333333333333
1238,-482.1333333333333,98.13333333333333,121.6
1239,-492.8,104.53333333333333,117.33333333333333
1240,-503.46666666666664,104.53333333333333,104.53333333333333
1241,-505.59999999999997,96.0,96.0
1242,-522.6666666666666,91.73333333333333,93.86666666666666
1243,-533.3333333333334,83.2,83.2
1244,-533.3333333333334,70.4,87.46666666666667
1245,-552.5333333333333,57.6,100.26666666666667
1246,-556.8,55.46666666666667,102.4
1247,-556.8,57.6,98.13333333333333
1248,-552.5333333333333,55.46666666666667,110.93333333333334
1249,-546.1333333333333,51.2,93.86666666666666
1250,-541.8666666666667,55.46666666666667,83.2
1251,-541.8666666666667,61.86666666666667,83.2
1252,-546.1333333333333,68.26666666666667,93.86666666666666
1253,-569.6,85.33333333333333,74.66666666666667
1254,-584.5333333333333,89.6,72.53333333333333
1255,-599.4666666666667,83.2,70.4
1256,-625.0666666666666,76.8,42.666666666666664
1257,-646.4,66.13333333333333,25.6
1258,-663.4666666666667,61.86666666666667,19.2
1259,-678.4,42.666666666666664,6.4
1260,-701.8666666666667,34.13333333333333,-25.6
1261,-704.0,32.0,-32.0
1262,-708.2666666666667,36.266666666666666,-46.93333333333333
1263,-708.2666666666667,29.866666666666667,-64.0
1264,-695.4666666666667,21.333333333333332,-81.06666666666666
1265,-680.5333333333333,23.466666666666665,-85.33333333333333
1266,-672.0,23.466666666666665,-85.33333333333333
1267,-644.2666666666667,21.333333333333332,-85.33333333333333
1268,-631.4666666666667,21.333333333333332,-78.93333333333334
1269,-612.2666666666667,12.8,-85.33333333333333
1270,-590.9333333333333,14.933333333333334,-78.93333333333334
1271,-576.0,0.0,-91.73333333333333
1272,-558.9333333333333,-8.533333333333333,-91.73333333333333
1273,-548.2666666666667,-6.4,-100.26666666666667
1274,-539.7333333333333,-8.533333333333333,-100.26666666666667
1275,-539.7333333333333,-8.533333333333333,-104.53333333333333
1276,-529.0666666666666,-8.533333333333333,-121.6
1277,-524.8,-8.533333333333333,-130.13333333333333
1278,-522.6666666666666,-21.333333333333332,-136.53333333333333
1279,-524.8,-25.6,-145.06666666666666
1280,-520.5333333333333,-32.0,-155.73333333333332
1281,-526.9333333333333,-40.53333333333333,-149.33333333333334
1282,-516.2666666666667,-53.333333333333336,-149.33333333333334
1283,-529.0666666666666,-53.333333333333336,-151.46666666666667
1284,-544.0,-55.46666666666667,-166.4
1285,-552.5333333333333,-49.06666666666666,-157.86666666666667
1286,-561.0666666666666,-57.6,-166.4
1287,-571.7333333333333,-51.2,-170.66666666666666
1288,-588.8,-59.733333333333334,-172.8
1289,-601.6,-61.86666666666667,-170.66666666666666
1290,-622.9333333333333,-64.0,-181.33333333333334
1291,-625.0666666666666,-70.4,-177.06666666666666
1292,-635.7333333333333,-72.53333333333333,-183.46666666666667
1293,-635.7333333333333,-78.93333333333334,-177.06666666666666
1294,-635.7333333333333,-81.06666666666666,-170.66666666666666
1295,-625.0666666666666,-87.46666666666667,-177.06666666666666
1296,-612.2666666666667,-100.26666666666667,-177.06666666666666
1297,-601.6,-89.6,-164.26666666666665
1298,-580.2666666666667,-108.8,-166.4
1299,-569.6,-115.2,-153.6
1300,-556.8,-123.73333333333333,-149.33333333333334
1301,-541.8666666666667,-134.4,-138.66666666666666
1302,-533.3333333333334,-138.66666666666666,-140.8
1303,-522.6666666666666,-147.2,-140.8
1304,-514.1333333333333,-153.6,-160.0
1305,-509.8666666666667,-162.13333333333333,-160.0
1306,-507.73333333333335,-172.8,-162.13333333333333
1307,-507.73333333333335,-174.93333333333334,-157.86666666666667
1308,-514.1333333333333,-174.93333333333334,-162.13333333333333
1309,-518.4,-172.8,-177.06666666666666
1310,-520.5333333333333,-174.93333333333334,-179.2
1311,-522.6666666666666,-179.2,-177.06666666666666
1312,-526.9333333333333,-179.2,-174.93333333333334
1313,-531.2,-174.93333333333334,-174.93333333333334
1314,-526.9333333333333,-172.8,-181.33333333333334
1315,-524.8,-174.93333333333334,-181.33333333333334
1316,-531.2,-168.53333333333333,-181.33333333333334
1317,-522.6666666666666,-174.93333333333334,-187.73333333333332
1318,-522.6666666666666,-174.93333333333334,-185.6
1319,-512.0,-172.8,-181.33333333333334
1320,-505.59999999999997,-172.8,-187.73333333333332
1321,-492.8,-172.8,-177.06666666666666
1322,-484.26666666666665,-177.06666666666666,-155.73333333333332
1323,-488.5333333333333,-168.53333333333333,-153.6
1324,-484.26666666666665,-170.66666666666666,-134.4
1325,-484.26666666666665,-168.53333333333333,-128.0
1326,-465.06666666666666,-187.73333333333332,-130.13333333333333
1327,-469.3333333333333,-196.26666666666665,-125.86666666666666
1328,-460.8,-198.4,-123.73333333333333
1329,-439.46666666666664,-219.73333333333332,-119.46666666666667
1330,-435.2,-224.0,-106.66666666666667
1331,-424.5333333333333,-238.93333333333334,-91.73333333333333
1332,-426.6666666666667,-249.6,-89.6
1333,-433.06666666666666,-256.0,-81.06666666666666
1334,-433.06666666666666,-275.2,-85.33333333333333
1335,-433.06666666666666,-279.46666666666664,-89.6
1336,-439.46666666666664,-283.73333333333335,-100.26666666666667
1337,-445.8666666666667,-288.0,-96.0
1338,-467.2,-290.1333333333333,-81.06666666666666
1339,-482.1333333333333,-294.4,-68.26666666666667
1340,-486.4,-307.2,-61.86666666666667
1341,-486.4,-317.8666666666667,-59.733333333333334
1342,-475.73333333333335,-324.26666666666665,-81.06666666666666
1343,-458.6666666666667,-324.26666666666665,-87.46666666666667
1344,-452.26666666666665,-315.73333333333335,-115.2
1345,-443.73333333333335,-311.46666666666664,-128.0
1346,-435.2,-302.93333333333334,-149.33333333333334
1347,-430.93333333333334,-292.26666666666665,-147.2
1348,-422.4,-290.1333333333333,-147.2
1349,-420.26666666666665,-281.6,-132.26666666666665
1350,-407.46666666666664,-281.6,-125.86666666666666
1351,-405.3333333333333,-283.73333333333335,-104.53333333333333
1352,-398.93333333333334,-288.0,-89.6
1353,-405.3333333333333,-298.6666666666667,-70.4
1354,-392.5333333333333,-317.8666666666667,-51.2
1355,-394.6666666666667,-330.6666666666667,-44.8
1356,-390.4,-343.46666666666664,-21.333333333333332
1357,-392.5333333333333,-354.1333333333333,-21.333333333333332
1358,-390.4,-362.6666666666667,-17.066666666666666
1359,-386.1333333333333,-371.2,-14.933333333333334
1360,-381.8666666666667,-386.1333333333333,-8.533333333333333
1361,-388.26666666666665,-392.5333333333333,2.1333333333333333
1362,-381.8666666666667,-398.93333333333334,-4.266666666666667
1363,-388.26666666666665,-398.93333333333334,0.0
1364,-379.73333333333335,-401.06666666666666,12.8
1365,-394.6666666666667,-398.93333333333334,17.066666666666666
1366,-392.5333333333333,-398.93333333333334,17.066666666666666
1367,-379.73333333333335,-398.93333333333334,21.333333333333332
1368,-369.06666666666666,-403.2,34.13333333333333
1369,-371.2,-401.06666666666666,25.6
1370,-362.6666666666667,-403.2,27.733333333333334
1371,-354.1333333333333,-392.5333333333333,32.0
1372,-354.1333333333333,-392.5333333333333,27.733333333333334
1373,-339.2,-396.8,21.333333333333332
1374,-332.8,-396.8,21.333333333333332
1375,-326.4,-392.5333333333333,23.466666666666665
1376,-322.1333333333333,-403.2,19.2
1377,-322.1333333333333,-403.2,25.6
1378,-320.0,-403.2,27.733333333333334
1379,-320.0,-405.3333333333333,29.866666666666667
1380,-320.0,-413.8666666666667,19.2
1381,-326.4,-411.73333333333335,19.2
1382,-337.06666666666666,-409.6,23.466666666666665
1383,-334.93333333333334,-413.8666666666667,19.2
1384,-334.93333333333334,-411.73333333333335,14.933333333333334
1385,-337.06666666666666,-411.73333333333335,17.066666666666666
1386,-341.3333333333333,-405.3333333333333,17.066666666666666
1387,-332.8,-409.6,17.066666666666666
1388,-334.93333333333334,-407.46666666666664,14.933333333333334
1389,-339.2,-405.3333333333333,14.933333333333334
1390,-345.6,-409.6,14.933333333333334
1391,-347.73333333333335,-409.6,19.2
1392,-349.8666666666667,-409.6,10.666666666666666
1393,-334.93333333333334,-413.8666666666667,10.666666666666666
1394,-330.6666666666667,-413.8666666666667,12.8
1395,-324.26666666666665,-416.0,10.666666666666666
1396,-313.6,-413.8666666666667,10.666666666666666
1397,-313.6,-413.8666666666667,14.933333333333334
1398,-311.46666666666664,-409.6,4.266666666666667
1399,-298.6666666666667,-418.1333333333333,4.266666666666667
1400,-298.6666666666667,-420.26666666666665,2.1333333333333333
1401,-298.6666666666667,-418.1333333333333,-2.1333333333333333
1402,-298.6666666666667,-422.4,6.4
1403,-302.93333333333334,-422.4,2.1333333333333333
1404,-296.5333333333333,-426.6666666666667,-2.1333333333333333
1405,-292.26666666666665,-428.8,2.1333333333333333
1406,-294.4,-420.26666666666665,14.933333333333334
1407,-294.4,-420.26666666666665,2.1333333333333333
1408,-294.4,-420.26666666666665,10.666666666666666
1409,-300.8,-422.4,0.0
1410,-302.93333333333334,-418.1333333333333,-2.1333333333333333
1411,-302.93333333333334,-413.8666666666667,-4.266666666666667
1412,-309.3333333333333,-413.8666666666667,-4.266666666666667
1413,-320.0,-418.1333333333333,-17.066666666666666
1414,-324.26666666666665,-420.26666666666665,-14.933333333333334
1415,-324.26666666666665,-422.4,-14.933333333333334
1416,-328.5333333333333,-424.5333333333333,-17.066666666666666
1417,-337.06666666666666,-428.8,-14.933333333333334
1418,-330.6666666666667,-435.2,-17.066666666666666
1419,-326.4,-441.59999999999997,-17.066666666666666
1420,-320.0,-441.59999999999997,-12.8
1421,-315.73333333333335,-439.46666666666664,-14.933333333333334
1422,-307.2,-439.46666666666664,-14.933333333333334
1423,-302.93333333333334,-441.59999999999997,-19.2
1424,-296.5333333333333,-433.06666666666666,-19.2
1425,-298.6666666666667,-433.06666666666666,-32.0
1426,-294.4,-428.8,-32.0
1427,-296.5333333333333,-433.06666666666666,-29.866666666666667
1428,-294.4,-424.5333333333333,-29.866666666666667
1429,-294.4,-426.6666666666667,-25.6
1430,-288.0,-428.8,-21.333333333333332
1431,-283.73333333333335,-433.06666666666666,-19.2
1432,-288.0,-433.06666666666666,-23.466666666666665
1433,-283.73333333333335,-428.8,-14.933333333333334
1434,-275.2,-437.3333333333333,-19.2
1435,-273.06666666666666,-439.46666666666664,-10.666666666666666
1436,-264.5333333333333,-445.8666666666667,-27.733333333333334
1437,-256.0,-458.6666666666667,-21.333333333333332
1438,-251.73333333333332,-465.06666666666666,-19.2
1439,-249.6,-471.46666666666664,-19.2
1440,-238.93333333333334,-480.0,-10.666666666666666
1441,-232.53333333333333,-486.4,-10.666666666666666
1442,-238.93333333333334,-488.5333333333333,-10.666666666666666
1443,-232.53333333333333,-486.4,-4.266666666666667
1444,-234.66666666666666,-482.1333333333333,-6.4
1445,-232.53333333333333,-477.8666666666667,-8.533333333333333
1446,-236.79999999999998,-473.59999999999997,2.1333333333333333
1447,-247.46666666666667,-471.46666666666664,8.533333333333333
1448,-245.33333333333334,-462.93333333333334,8.533333333333333
1449,-251.73333333333332,-460.8,4.266666666666667
1450,-258.1333333333333,-462.93333333333334,6.4
1451,-262.4,-458.6666666666667,8.533333333333333
1452,-268.8,-452.26666666666665,-4.266666666666667
1453,-262.4,-452.26666666666665,10.666666666666666
1454,-256.0,-450.1333333333333,17.066666666666666
1455,-253.86666666666667,-441.59999999999997,17.066666666666666
1456,-234.66666666666666,-450.1333333333333,17.066666666666666
1457,-217.6,-454.4,19.2
1458,-217.6,-452.26666666666665,27.733333333333334
1459,-200.53333333333333,-465.06666666666666,25.6
1460,-185.6,-471.46666666666664,29.866666666666667
1461,-185.6,-488.5333333333333,27.733333333333334
1462,-177.06666666666666,-494.93333333333334,29.866666666666667
1463,-179.2,-507.73333333333335,21.333333333333332
1464,-174.93333333333334,-524.8,19.2
1465,-181.33333333333334,-529.0666666666666,17.066666666666666
1466,-181.33333333333334,-541.8666666666667,32.0
1467,-181.33333333333334,-539.7333333333333,14.933333333333334
1468,-194.13333333333333,-544.0,14.933333333333334
1469,-189.86666666666667,-541.8666666666667,17.066666666666666
1470,-194.13333333333333,-541.8666666666667,12.8
1471,-192.0,-537.6,8.533333333333333
1472,-192.0,-526.9333333333333,17.066666666666666
1473,-185.6,-520.5333333333333,4.266666666666667
1474,-187.73333333333332,-520.5333333333333,2.1333333333333333
1475,-174.93333333333334,-514.1333333333333,10.666666666666666
1476,-172.8,-514.1333333333333,4.266666666666667
1477,-177.06666666666666,-505.59999999999997,6.4
1478,-164.26666666666665,-509.8666666666667,0.0
1479,-166.4,-501.3333333333333,-4.266666666666667
1480,-157.86666666666667,-509.8666666666667,-4.266666666666667
1481,-160.0,-512.0,-10.666666666666666
1482,-157.86666666666667,-522.6666666666666,-10.666666666666666
1483,-155.73333333333332,-518.4,-23.466666666666665
1484,-153.6,-524.8,-27.733333333333334
1485,-153.6,-529.0666666666666,-29.866666666666667
1486,-155.73333333333332,-535.4666666666667,-27.733333333333334
1487,-162.13333333333333,-535.4666666666667,-27.733333333333334
1488,-155.73333333333332,-541.8666666666667,-27.733333333333334
1489,-157.86666666666667,-546.1333333333333,-21.333333333333332
1490,-153.6,-556.8,-21.333333333333332
1491,-157.86666666666667,-554.6666666666666,-27.733333333333334
1492,-155.73333333333332,-554.6666666666666,-27.733333333333334
1493,-155.73333333333332,-548.2666666666667,-25.6
1494,-147.2,-539.7333333333333,-34.13333333333333
1495,-145.06666666666666,-529.0666666666666,-32.0
1496,-147.2,-526.9333333333333,-29.866666666666667
1497,-145.06666666666666,-526.9333333333333,-29.866666666666667
1498,-138.66666666666666,-520.5333333333333,-40.53333333333333
1499,-130.13333333333333,-516.2666666666667,-42.666666666666664
1500,-125.86666666666666,-522.6666666666666,-40.53333333333333
1501,-115.2,-522.6666666666666,-42.666666666666664
1502,-121.6,-526.9333333333333,-36.266666666666666
1503,-115.2,-531.2,-46.93333333333333
1504,-108.8,-539.7333333333333,-38.4
1505,-89.6,-546.1333333333333,-36.266666666666666
1506,-85.33333333333333,-550.4,-32.0
1507,-78.93333333333334,-556.8,-38.4
1508,-72.53333333333333,-558.9333333333333,-25.6
1509,-72.53333333333333,-554.6666666666666,-32.0
1510,-61.86666666666667,-554.6666666666666,-14.933333333333334
1511,-61.86666666666667,-558.9333333333333,-21.333333333333332
1512,-57.6,-558.9333333333333,-8.533333333333333
1513,-59.733333333333334,-561.0666666666666,0.0
1514,-55.46666666666667,-556.8,-8.533333333333333
1515,-64.0,-554.6666666666666,-4.266666666666667
1516,-59.733333333333334,-550.4,-8.533333333333333
1517,-61.86666666666667,-548.2666666666667,-2.1333333333333333
1518,-66.13333333333333,-539.7333333333333,-4.266666666666667
1519,-72.53333333333333,-544.0,-8.533333333333333
1520,-68.26666666666667,-539.7333333333333,-8.533333333333333
1521,-70.4,-539.7333333333333,-14.933333333333334
1522,-64.0,-539.7333333333333,-6.4
1523,-61.86666666666667,-537.6,-6.4
1524,-55.46666666666667,-541.8666666666667,-10.666666666666666
1525,-44.8,-548.2666666666667,-6.4
1526,-40.53333333333333,-552.5333333333333,-10.666666666666666
1527,-32.0,-548.2666666666667,-2.1333333333333333
1528,-25.6,-561.0666666666666,-8.533333333333333
1529,-23.466666666666665,-571.7333333333333,2.1333333333333333
1530,-10.666666666666666,-584.5333333333333,2.1333333333333333
1531,-6.4,-586.6666666666666,-8.533333333333333
1532,6.4,-593.0666666666666,4.266666666666667
1533,19.2,-608.0,6.4
1534,32.0,-616.5333333333333,14.933333333333334
1535,40.53333333333333,-620.8,12.8
1536,44.8,-633.6,23.466666666666665
1537,53.333333333333336,-627.2,21.333333333333332
1538,53.333333333333336,-618.6666666666666,36.266666666666666
1539,55.46666666666667,-603.7333333333333,42.666666666666664
1540,59.733333333333334,-573.8666666666667,44.8
1541,51.2,-556.8,44.8
1542,59.733333333333334,-541.8666666666667,29.866666666666667
1543,49.06666666666666,-514.1333333333333,36.266666666666666
1544,42.666666666666664,-499.2,40.53333333333333
1545,34.13333333333333,-482.1333333333333,29.866666666666667
1546,36.266666666666666,-471.46666666666664,25.6
1547,34.13333333333333,-469.3333333333333,27.733333333333334
1548,34.13333333333333,-477.8666666666667,21.333333333333332
1549,34.13333333333333,-475.73333333333335,40.53333333333333
1550,29.866666666666667,-488.5333333333333,40.53333333333333
1551,34.13333333333333,-505.59999999999997,34.13333333333333
1552,36.266666666666666,-518.4,32.0
1553,34.13333333333333,-522.6666666666666,42.666666666666664
1554,38.4,-537.6,46.93333333333333
1555,27.733333333333334,-548.2666666666667,42.666666666666664
1556,34.13333333333333,-546.1333333333333,29.866666666666667
1557,32.0,-550.4,46.93333333333333
1558,38.4,-546.1333333333333,40.53333333333333
1559,40.53333333333333,-550.4,40.53333333333333
1560,38.4,-546.1333333333333,27.733333333333334
1561,49.06666666666666,-548.2666666666667,29.866666666666667
1562,51.2,-541.8666666666667,34.13333333333333
1563,49.06666666666666,-539.7333333333333,34.13333333333333
1564,46.93333333333333,-531.2,34.13333333333333
1565,44.8,-529.0666666666666,29.866666666666667
1566,42.666666666666664,-520.5333333333333,40.53333333333333
1567,38.4,-522.6666666666666,32.0
1568,34.13333333333333,-509.8666666666667,42.666666666666664
1569,36.266666666666666,-516.2666666666667,29.866666666666667
1570,32.0,-516.2666666666667,32.0
1571,27.733333333333334,-507.73333333333335,32.0
1572,29.866666666666667,-512.0,34.13333333333333
1573,25.6,-512.0,32.0
1574,23.466666666666665,-518.4,29.866666666666667
1575,29.866666666666667,-524.8,27.733333333333334
1576,38.4,-533.3333333333334,36.266666666666666
1577,27.733333333333334,-520.5333333333333,27.733333333333334
1578,42.666666666666664,-533.3333333333334,32.0
1579,51.2,-529.0666666666666,25.6
1580,40.53333333333333,-531.2,32.0
1581,51.2,-535.4666666666667,29.866666666666667
1582,55.46666666666667,-535.4666666666667,27.733333333333334
1583,55.46666666666667,-533.3333333333334,36.266666666666666
1584,55.46666666666667,-539.7333333333333,34.13333333333333
1585,61.86666666666667,-533.3333333333334,27.733333333333334
1586,55.46666666666667,-537.6,32.0
1587,59.733333333333334,-531.2,32.0
1588,51.2,-526.9333333333333,32.0
1589,49.06666666666666,-526.9333333333333,23.466666666666665
1590,46.93333333333333,-524.8,29.866666666666667
1591,34.13333333333333,-526.9333333333333,25.6
1592,36.266666666666666,-524.8,27.733333333333334
1593,32.0,-526.9333333333333,17.066666666666666
1594,25.6,-533.3333333333334,23.466666666666665
1595,29.866666666666667,-535.4666666666667,12.8
1596,27.733333333333334,-544.0,17.066666666666666
1597,32.0,-550.4,19.2
1598,27.733333333333334,-550.4,8.533333333333333
1599,27.733333333333334,-556.8,4.266666666666667
1600,27.733333333333334,-554.6666666666666,10.666666666666666
1601,34.13333333333333,-558.9333333333333,6.4
1602,44.8,-556.8,0.0
1603,29.866666666666667,-552.5333333333333,0.0
1604,49.06666666666666,-537.6,14.933333333333334
1605,32.0,-563.2,12.8
1606,34.13333333333333,-550.4,14.933333333333334
1607,38.4,-539.7333333333333,0.0
1608,40.53333333333333,-535.4666666666667,12.8
1609,40.53333333333333,-526.9333333333333,12.8
1610,38.4,-529.0666666666666,12.8
1611,34.13333333333333,-522.6666666666666,17.066666666666666
1612,34.13333333333333,-526.9333333333333,14.933333333333334
1613,34.13333333333333,-529.0666666666666,8.533333333333333
1614,29.866666666666667,-533.3333333333334,14.933333333333334
1615,23.466666666666665,-520.5333333333333,14.933333333333334
1616,23.466666666666665,-529.0666666666666,17.066666666666666
1617,21.333333333333332,-533.3333333333334,23.466666666666665
1618,14.933333333333334,-535.4666666666667,17.066666666666666
1619,21.333333333333332,-544.0,14.933333333333334
1620,14.933333333333334,-537.6,14.933333333333334
1621,17.066666666666666,-550.4,12.8
1622,19.2,-544.0,14.933333333333334
1623,21.333333333333332,-544.0,12.8
1624,19.2,-541.8666666666667,12.8
1625,25.6,-541.8666666666667,17.066666666666666
1626,23.466666666666665,-541.8666666666667,12.8
1627,25.6,-541.8666666666667,12.8
1628,23.466666666666665,-544.0,8.533333333333333
1629,29.866666666666667,-541.8666666666667,2.1333333333333333
1630,29.866666666666667,-546.1333333333333,8.533333333333333
1631,27.733333333333334,-550.4,10.666666666666666
1632,25.6,-548.2666666666667,8.533333333333333
1633,21.333333333333332,-544.0,12.8
1634,21.333333333333332,-539.7333333333333,0.0
1635,17.066666666666666,-541.8666666666667,10.666666666666666
1636,23.466666666666665,-546.1333333333333,8.533333333333333
1637,21.333333333333332,-552.5333333333333,17.066666666666666
1638,23.466666666666665,-550.4,12.8
1639,17.066666666666666,-550.4,14.933333333333334
1640,21.333333333333332,-548.2666666666667,10.666666666666666
1641,19.2,-550.4,12.8
1642,17.066666666666666,-552.5333333333333,12.8
1643,10.666666666666666,-550.4,10.666666666666666
1644,17.066666666666666,-550.4,12.8
1645,17.066666666666666,-548.2666666666667,14.933333333333334
1646,12.8,-548.2666666666667,10.666666666666666
1647,6.4,-546.1333333333333,10.666666666666666
1648,17.066666666666666,-546.1333333333333,17.066666666666666
1649,8.533333333333333,-550.4,8.533333333333333
1650,10.666666666666666,-546.1333333333333,12.8
1651,21.333333333333332,-550.4,17.066666666666666
1652,2.1333333333333333,-546.1333333333333,17.066666666666666
1653,6.4,-546.1333333333333,19.2
1654,12.8,-552.5333333333333,14.933333333333334
1655,4.266666666666667,-552.5333333333333,6.4
1656,2.1333333333333333,-550.4,4.266666666666667
1657,-2.1333333333333333,-541.8666666666667,10.666666666666666
1658,-6.4,-541.8666666666667,-2.1333333333333333
1659,0.0,-541.8666666666667,2.1333333333333333
1660,2.1333333333333333,-546.1333333333333,12.8
1661,-2.1333333333333333,-548.2666666666667,2.1333333333333333
1662,0.0,-548.2666666666667,6.4
1663,-2.1333333333333333,-541.8666666666667,10.666666666666666
1664,2.1333333333333333,-548.2666666666667,14.933333333333334
1665,-4.266666666666667,-550.4,0.0
1666,4.266666666666667,-552.5333333333333,12.8
1667,0.0,-552.5333333333333,10.666666666666666
1668,4.266666666666667,-554.6666666666666,2.1333333333333333
1669,-6.4,-548.2666666666667,4.266666666666667
1670,-2.1333333333333333,-548.2666666666667,4.266666666666667
1671,6.4,-552.5333333333333,8.533333333333333
1672,-2.1333333333333333,-548.2666666666667,14.933333333333334
1673,-2.1333333333333333,-548.2666666666667,6.4
1674,2.1333333333333333,-548.2666666666667,6.4
1675,-4.266666666666667,-544.0,12.8
1676,0.0,-544.0,12.8
1677,-2.1333333333333333,-539.7333333333333,14.933333333333334
1678,-2.1333333333333333,-539.7333333333333,10.666666666666666
1679,-8.533333333333333,-533.3333333333334,12.8
1680,-2.1333333333333333,-539.7333333333333,14.933333333333334
1681,-10.666666666666666,-541.8666666666667,10.666666666666666
1682,-4.266666666666667,-546.1333333333333,6.4
1683,-10.666666666666666,-544.0,6.4
1684,-8.533333333333333,-544.0,2.1333333333333333
1685,-10.666666666666666,-546.1333333333333,6.4
1686,-10.666666666666666,-537.6,12.8
1687,-6.4,-548.2666666666667,25.6
1688,-10.666666666666666,-544.0,6.4
1689,-6.4,-548.2666666666667,6.4
1690,-8.533333333333333,-546.1333333333333,4.266666666666667
1691,-10.666666666666666,-539.7333333333333,10.666666666666666
1692,-8.533333333333333,-539.7333333333333,4.266666666666667
1693,-12.8,-546.1333333333333,0.0
1694,-6.4,-544.0,12.8
1695,-6.4,-548.2666666666667,0.0
1696,-6.4,-546.1333333333333,-6.4
1697,-6.4,-548.2666666666667,4.266666666666667
1698,-4.266666666666667,-550.4,8.533333333333333
1699,-2.1333333333333333,-548.2666666666667,4.266666666666667
1700,-4.266666666666667,-544.0,17.066666666666666
1701,-4.266666666666667,-541.8666666666667,14.933333333333334
1702,-8.533333333333333,-544.0,14.933333333333334
1703,-8.533333333333333,-548.2666666666667,14.933333333333334
1704,-4.266666666666667,-548.2666666666667,10.666666666666666
1705,-10.666666666666666,-544.0,8.533333333333333
1706,-2.1333333333333333,-550.4,4.266666666666667
1707,-12.8,-544.0,10.666666666666666
1708,-2.1333333333333333,-548.2666666666667,8.533333333333333
1709,-8.533333333333333,-546.1333333333333,10.666666666666666
1710,-2.1333333333333333,-548.2666666666667,17.066666666666666
1711,-6.4,-544.0,6.4
1712,-4.266666666666667,-546.1333333333333,12.8
1713,-6.4,-548.2666666666667,0.0
1714,4.266666666666667,-544.0,17.066666666666666
1715,0.0,-552.5333333333333,8.533333333333333
1716,2.1333333333333333,-552.5333333333333,10.666666666666666
1717,-4.266666666666667,-544.0,10.666666666666666
1718,4.266666666666667,-548.2666666666667,10.666666666666666
1719,-2.1333333333333333,-546.1333333333333,10.666666666666666
1720,-6.4,-541.8666666666667,17.066666666666666
1721,-4.266666666666667,-544.0,12.8
1722,-4.266666666666667,-544.0,6.4
1723,-8.533333333333333,-544.0,4.266666666666667
1724,-4.266666666666667,-544.0,6.4
1725,0.0,-539.7333333333333,12.8
1726,-4.266666666666667,-546.1333333333333,8.533333333333333
1727,0.0,-544.0,17.066666666666666
1728,0.0,-546.1333333333333,12.8
1729,2.1333333333333333,-548.2666666666667,14.933333333333334
1730,0.0,-541.8666666666667,17.066666666666666
1731,2.1333333333333333,-544.0,12.8
1732,0.0,-546.1333333333333,4.266666666666667
1733,0.0,-537.6,14.933333333333334
1734,-2.1333333333333333,-541.8666666666667,4.266666666666667
1735,0.0,-544.0,6.4
1736,6.4,-544.0,10.666666666666666
1737,4.266666666666667,-544.0,2.1333333333333333
1738,0.0,-544.0,10.666666666666666
1739,-2.1333333333333333,-537.6,14.933333333333334
1740,0.0,-535.4666666666667,12.8
1741,0.0,-541.8666666666667,14.933333333333334
1742,0.0,-541.8666666666667,14.933333333333334
1743,-4.266666666666667,-546.1333333333333,17.066666666666666
1744,-4.266666666666667,-544.0,6.4
1745,0.0,-541.8666666666667,10.666666666666666
1746,0.0,-548.2666666666667,10.666666666666666
1747,-2.1333333333333333,-546.1333333333333,17.066666666666666
1748,-4.266666666666667,-544.0,8.533333333333333
1749,-2.1333333333333333,-544.0,17.066666666666666
1750,-2.1333333333333333,-537.6,17.066666666666666
1751,-4.266666666666667,-544.0,4.266666666666667
1752,2.1333333333333333,-544.0,12.8
1753,0.0,-548.2666666666667,8.533333333333333
1754,-4.266666666666667,-544.0,2.1333333333333333
1755,-4.266666666666667,-546.1333333333333,12.8
1756,0.0,-544.0,14.933333333333334
1757,-4.266666666666667,-544.0,8.533333333333333
1758,0.0,-544.0,4.266666666666667
1759,2.1333333333333333,-541.8666666666667,10.666666666666666
1760,-10.666666666666666,-539.7333333333333,6.4
1761,-6.4,-541.8666666666667,8.533333333333333
1762,-4.266666666666667,-544.0,6.4
1763,-10.666666666666666,-539.7333333333333,17.066666666666666
1764,-10.666666666666666,-544.0,17.066666666666666
1765,-6.4,-539.7333333333333,17.066666666666666
1766,2.1333333333333333,-546.1333333333333,17.066666666666666
1767,-2.1333333333333333,-548.2666666666667,17.066666666666666
1768,-8.533333333333333,-546.1333333333333,6.4
1769,-6.4,-539.7333333333333,10.666666666666666
1770,-6.4,-541.8666666666667,17.066666666666666
1771,-6.4,-541.8666666666667,10.666666666666666
1772,-8.533333333333333,-544.0,10.666666666666666
1773,-2.1333333333333333,-544.0,8.533333333333333
1774,-4.266666666666667,-539.7333333333333,14.933333333333334
1775,-8.533333333333333,-539.7333333333333,12.8
1776,-6.4,-546.1333333333333,4.266666666666667
1777,-8.533333333333333,-539.7333333333333,17.066666666666666
1778,-12.8,-544.0,14.933333333333334
1779,-12.8,-541.8666666666667,12.8
1780,-8.533333333333333,-546.1333333333333,8.533333333333333
1781,-8.533333333333333,-544.0,6.4
1782,-2.1333333333333333,-544.0,8.533333333333333
1783,-4.266666666666667,-541.8666666666667,10.666666666666666
1784,-6.4,-541.8666666666667,19.2
1785,-6.4,-537.6,17.066666666666666
1786,0.0,-541.8666666666667,12.8
1787,-4.266666666666667,-546.1333333333333,12.8
1788,-2.1333333333333333,-544.0,8.533333333333333
1789,0.0,-539.7333333333333,10.666666666666666
1790,-2.1333333333333333,-537.6,10.666666666666666
1791,0.0,-546.1333333333333,8.533333333333333
1792,-2.1333333333333333,-546.1333333333333,12.8
1793,-4.266666666666667,-533.3333333333334,12.8
1794,-6.4,-541.8666666666667,17.066666666666666
1795,-2.1333333333333333,-537.6,17.066666666666666
1796,-4.266666666666667,-541.8666666666667,17.066666666666666
1797,-6.4,-541.8666666666667,19.2
1798,-6.4,-541.8666666666667,19.2
1799,-4.266666666666667,-533.3333333333334,17.066666666666666
1800,-6.4,-546.1333333333333,10.666666666666666
1801,-2.1333333333333333,-548.2666666666667,12.8
1802,0.0,-550.4,14.933333333333334
1803,-4.266666666666667,-546.1333333333333,14.933333333333334
1804,-2.1333333333333333,-550.4,12.8
1805,-2.1333333333333333,-546.1333333333333,17.066666666666666
1806,-8.533333333333333,-546.1333333333333,10.666666666666666
1807,-6.4,-548.2666666666667,10.666666666666666
1808,-2.1333333333333333,-541.8666666666667,17.066666666666666
1809,-4.266666666666667,-546.1333333333333,14.933333333333334
1810,0.0,-539.7333333333333,17.066666666666666
1811,0.0,-544.0,14.933333333333334
1812,-4.266666666666667,-533.3333333333334,19.2
1813,-2.1333333333333333,-539.7333333333333,12.8
1814,0.0,-541.8666666666667,19.2
1815,-8.533333333333333,-541.8666666666667,8.533333333333333
1816,-6.4,-539.7333333333333,6.4
1817,-8.533333333333333,-535.4666666666667,17.066666666666666
1818,-4.266666666666667,-537.6,14.933333333333334
1819,2.1333333333333333,-544.0,14.933333333333334
1820,0.0,-554.6666666666666,21.333333333333332
1821,-6.4,-546.1333333333333,6.4
1822,-6.4,-541.8666666666667,6.4
1823,-2.1333333333333333,-548.2666666666667,17.066666666666666
1824,2.1333333333333333,-550.4,14.933333333333334
1825,-4.266666666666667,-541.8666666666667,8.533333333333333
1826,-6.4,-546.1333333333333,17.066666666666666
1827,0.0,-544.0,8.533333333333333
1828,-2.1333333333333333,-546.1333333333333,17.066666666666666
1829,0.0,-546.1333333333333,6.4
1830,0.0,-541.8666666666667,10.666666666666666
1831,2.1333333333333333,-546.1333333333333,8.533333333333333
1832,0.0,-541.8666666666667,8.533333333333333
1833,0.0,-546.1333333333333,10.666666666666666
1834,-4.266666666666667,-546.1333333333333,2.1333333333333333
1835,0.0,-546.1333333333333,4.266666666666667
1836,-2.1333333333333333,-546.1333333333333,14.933333333333334
1837,-4.266666666666667,-546.1333333333333,10.666666666666666
1838,-6.4,-541.8666666666667,14.933333333333334
1839,0.0,-544.0,2.1333333333333333
1840,-4.266666666666667,-548.2666666666667,4.266666666666667
1841,2.1333333333333333,-546.1333333333333,2.1333333333333333
1842,-2.1333333333333333,-548.2666666666667,17.066666666666666
1843,-6.4,-552.5333333333333,10.666666666666666
1844,-4.266666666666667,-544.0,4.266666666666667
1845,-2.1333333333333333,-550.4,4.266666666666667
1846,-2.1333333333333333,-552.5333333333333,14.933333333333334
1847,0.0,-548.2666666666667,0.0
1848,0.0,-541.8666666666667,10.666666666666666
1849,2.1333333333333333,-546.1333333333333,14.933333333333334
1850,-2.1333333333333333,-544.0,4.266666666666667
1851,-2.1333333333333333,-541.8666666666667,4.266666666666667
1852,-4.266666666666667,-539.7333333333333,8.533333333333333
1853,-4.266666666666667,-541.8666666666667,4.266666666666667
1854,-10.666666666666666,-537.6,0.0
1855,2.1333333333333333,-541.8666666666667,17.066666666666666
1856,-10.666666666666666,-537.6,14.933333333333334
1857,2.1333333333333333,-537.6,6.4
1858,-2.1333333333333333,-548.2666666666667,12.8
1859,-2.1333333333333333,-544.0,10.666666666666666
1860,-2.1333333333333333,-544.0,10.666666666666666
1861,-8.533333333333333,-535.4666666666667,10.666666666666666
1862,-2.1333333333333333,-550.4,14.933333333333334
1863,-2.1333333333333333,-548.2666666666667,10.666666666666666
1864,-4.266666666666667,-541.8666666666667,17.066666666666666
1865,-4.266666666666667,-541.8666666666667,14.933333333333334
1866,-4.266666666666667,-539.7333333333333,17.066666666666666
1867,0.0,-544.0,10.666666666666666
1868,0.0,-544.0,17.066666666666666
1869,-6.4,-544.0,10.666666666666666
1870,-2.1333333333333333,-544.0,8.533333333333333
1871,-2.1333333333333333,-548.2666666666667,8.533333333333333
1872,-2.1333333333333333,-544.0,17.066666666666666
1873,-4.266666666666667,-535.4666666666667,14.933333333333334
1874,-8.533333333333333,-541.8666666666667,12.8
1875,-6.4,-544.0,17.066666666666666
1876,-10.666666666666666,-546.1333333333333,17.066666666666666
1877,-8.533333333333333,-544.0,17.066666666666666
1878,-4.266666666666667,-541.8666666666667,14.933333333333334
1879,-2.1333333333333333,-548.2666666666667,12.8
1880,-4.266666666666667,-541.8666666666667,12.8
1881,2.1333333333333333,-546.1333333333333,6.4
1882,-6.4,-544.0,8.533333333333333
1883,-6.4,-539.7333333333333,14.933333333333334
1884,-4.266666666666667,-548.2666666666667,23.466666666666665
1885,-10.666666666666666,-544.0,12.8
1886,-6.4,-544.0,17.066666666666666
1887,-4.266666666666667,-539.7333333333333,19.2
1888,-6.4,-539.7333333333333,12.8
1889,-6.4,-541.8666666666667,12.8
1890,-4.266666666666667,-546.1333333333333,17.066666666666666
1891,-2.1333333333333333,-548.2666666666667,14.933333333333334
1892,-6.4,-544.0,12.8
1893,0.0,-541.8666666666667,8.533333333333333
1894,-2.1333333333333333,-546.1333333333333,12.8
1895,0.0,-539.7333333333333,17.066666666666666
1896,-4.266666666666667,-539.7333333333333,6.4
1897,-10.666666666666666,-539.7333333333333,17.066666666666666
1898,-6.4,-539.7333333333333,10.666666666666666
1899,-8.533333333333333,-550.4,6.4
1900,-6.4,-544.0,12.8
1901,-6.4,-544.0,12.8
1902,0.0,-544.0,19.2
1903,-4.266666666666667,-546.1333333333333,14.933333333333334
1904,-4.266666666666667,-544.0,17.066666666666666
1905,-6.4,-539.7333333333333,17.066666666666666
1906,-12.8,-541.8666666666667,8.533333333333333
1907,-8.533333333333333,-539.7333333333333,10.666666666666666
1908,-6.4,-544.0,14.933333333333334
1909,-8.533333333333333,-544.0,10.666666666666666
1910,-2.1333333333333333,-535.4666666666667,14.933333333333334
1911,0.0,-546.1333333333333,19.2
1912,-4.266666666666667,-544.0,12.8
1913,-4.266666666666667,-544.0,12.8
1914,-8.533333333333333,-539.7333333333333,17.066666666666666
1915,-4.266666666666667,-544.0,17.066666666666666
1916,-2.1333333333333333,-546.1333333333333,23.466666666666665
1917,-2.1333333333333333,-548.2666666666667,17.066666666666666
1918,-4.266666666666667,-550.4,10.666666666666666
1919,0.0,-552.5333333333333,19.2
1920,-6.4,-546.1333333333333,12.8
1921,-2.1333333333333333,-544.0,17.066666666666666
1922,-10.666666666666666,-548.2666666666667,17.066666666666666
1923,-2.1333333333333333,-548.2666666666667,21.333333333333332
1924,-4.266666666666667,-550.4,19.2
1925,-4.266666666666667,-544.0,10.666666666666666
1926,-8.533333333333333,-535.4666666666667,17.066666666666666
1927,-4.266666666666667,-546.1333333333333,23.466666666666665
1928,-6.4,-531.2,17.066666666666666
1929,-4.266666666666667,-535.4666666666667,12.8
1930,0.0,-535.4666666666667,17.066666666666666
1931,-6.4,-541.8666666666667,19.2
1932,-12.8,-535.4666666666667,21.333333333333332
1933,-6.4,-537.6,19.2
1934,-4.266666666666667,-544.0,17.066666666666666
1935,-2.1333333333333333,-544.0,19.2
1936,-8.533333333333333,-550.4,17.066666666666666
1937,-2.1333333333333333,-548.2666666666667,17.066666666666666
1938,-4.266666666666667,-548.2666666666667,17.066666666666666
1939,-4.266666666666667,-546.1333333333333,19.2
1940,-6.4,-550.4,17.066666666666666
1941,-6.4,-546.1333333333333,17.066666666666666
1942,-6.4,-546.1333333333333,17.066666666666666
1943,-6.4,-541.8666666666667,19.2
1944,-2.1333333333333333,-544.0,17.066666666666666
1945,-6.4,-537.6,17.066666666666666
1946,-10.666666666666666,-539.7333333333333,14.933333333333334
1947,-2.1333333333333333,-539.7333333333333,19.2
1948,-2.1333333333333333,-541.8666666666667,12.8
1949,-6.4,-544.0,10.666666666666666
1950,-8.533333333333333,-541.8666666666667,17.066666666666666
1951,-8.533333333333333,-541.8666666666667,23.466666666666665
1952,-4.266666666666667,-541.8666666666667,19.2
1953,-4.266666666666667,-541.8666666666667,23.466666666666665
1954,-4.266666666666667,-537.6,17.066666666666666
1955,-6.4,-539.7333333333333,19.2
1956,-8.533333333333333,-535.4666666666667,17.066666666666666
1957,-6.4,-546.1333333333333,14.933333333333334
1958,-10.666666666666666,-539.7333333333333,21.333333333333332
1959,-2.1333333333333333,-541.8666666666667,14.933333333333334
1960,-6.4,-546.1333333333333,21.333333333333332
1961,-8.533333333333333,-541.8666666666667,17.066666666666666
1962,-6.4,-544.0,12.8
1963,-8.533333333333333,-539.7333333333333,19.2
1964,-2.1333333333333333,-544.0,14.933333333333334
1965,-2.1333333333333333,-541.8666666666667,17.066666666666666
1966,-4.266666666666667,-544.0,14.933333333333334
1967,-12.8,-546.1333333333333,19.2
1968,-6.4,-539.7333333333333,17.066666666666666
1969,-4.266666666666667,-544.0,23.466666666666665
1970,-4.266666666666667,-544.0,17.066666666666666
1971,-2.1333333333333333,-550.4,17.066666666666666
1972,-4.266666666666667,-544.0,21.333333333333332
1973,-2.1333333333333333,-541.8666666666667,17.066666666666666
1974,-8.533333333333333,-539.7333333333333,17.066666666666666
1975,-4.266666666666667,-546.1333333333333,19.2
1976,-2.1333333333333333,-544.0,19.2
1977,0.0,-541.8666666666667,21.333333333333332
1978,-2.1333333333333333,-541.8666666666667,19.2
1979,-10.666666666666666,-539.7333333333333,23.466666666666665
1980,-4.266666666666667,-541.8666666666667,19.2
1981,-2.1333333333333333,-544.0,19.2
1982,-8.533333333333333,-546.1333333333333,19.2
1983,-6.4,-546.1333333333333,19.2
1984,-4.266666666666667,-544.0,21.333333333333332
1985,-8.533333333333333,-541.8666666666667,19.2
1986,-10.666666666666666,-541.8666666666667,17.066666666666666
1987,-6.4,-539.7333333333333,19.2
1988,-6.4,-544.0,21.333333333333332
1989,-4.266666666666667,-541.8666666666667,19.2
1990,-8.533333333333333,-541.8666666666667,17.066666666666666
1991,2.1333333333333333,-548.2666666666667,21.333333333333332
1992,-6.4,-541.8666666666667,17.066666666666666
1993,-4.266666666666667,-537.6,19.2
1994,-12.8,-544.0,19.2
1995,-2.1333333333333333,-539.7333333333333,19.2
1996,-4.266666666666667,-544.0,17.066666666666666
1997,-6.4,-541.8666666666667,19.2
1998,-4.266666666666667,-546.1333333333333,25.6
1999,-6.4,-544.0,19.2
2000,-8.533333333333333,-546.1333333333333,17.066666666666666
2001,-8.533333333333333,-539.7333333333333,17.066666666666666
2002,-8.533333333333333,-546.1333333333333,19.2
2003,-4.266666666666667,-546.1333333333333,19.2
2004,-6.4,-546.1333333333333,10.666666666666666
2005,-4.266666666666667,-544.0,14.933333333333334
2006,0.0,-541.8666666666667,19.2
2007,0.0,-539.7333333333333,19.2
2008,-4.266666666666667,-539.7333333333333,21.333333333333332
2009,-8.533333333333333,-544.0,19.2
2010,-8.533333333333333,-548.2666666666667,19.2
2011,-2.1333333333333333,-544.0,21.333333333333332
2012,-4.266666666666667,-548.2666666666667,17.066666666666666
2013,-8.533333333333333,-541.8666666666667,17.066666666666666
2014,-8.533333333333333,-544.0,17.066666666666666
2015,-4.266666666666667,-548.2666666666667,19.2
2016,-8.533333333333333,-541.8666666666667,21.333333333333332
2017,-6.4,-541.8666666666667,19.2
2018,-8.533333333333333,-544.0,17.066666666666666
2019,-2.1333333333333333,-541.8666666666667,21.333333333333332
2020,-4.266666666666667,-535.4666666666667,17.066666666666666
2021,-6.4,-539.7333333333333,23.466666666666665
2022,-6.4,-546.1333333333333,19.2
2023,-6.4,-537.6,14.933333333333334
2024,-6.4,-537.6,23.466666666666665
2025,-4.266666666666667,-548.2666666666667,12.8
2026,-8.533333333333333,-544.0,21.333333333333332
2027,-4.266666666666667,-544.0,21.333333333333332
2028,-4.266666666666667,-541.8666666666667,14.933333333333334
2029,-10.666666666666666,-541.8666666666667,23.466666666666665
2030,-4.266666666666667,-546.1333333333333,17.066666666666666
2031,-2.1333333333333333,-541.8666666666667,17.066666666666666
2032,0.0,-548.2666666666667,17.066666666666666
2033,-4.266666666666667,-541.8666666666667,25.6
2034,-2.1333333333333333,-544.0,19.2
2035,-4.266666666666667,-544.0,21.333333333333332
2036,-4.266666666666667,-539.7333333333333,19.2
2037,-4.266666666666667,-539.7333333333333,25.6
2038,-2.1333333333333333,-541.8666666666667,21.333333333333332
2039,-8.533333333333333,-546.1333333333333,21.333333333333332
2040,-10.666666666666666,-544.0,21.333333333333332
2041,-6.4,-541.8666666666667,21.333333333333332
2042,-4.266666666666667,-541.8666666666667,19.2
2043,-2.1333333333333333,-539.7333333333333,21.333333333333332
2044,-10.666666666666666,-539.7333333333333,21.333333333333332
2045,-4.266666666666667,-546.1333333333333,25.6
2046,-4.266666666666667,-537.6,19.2
2047,-8.533333333333333,-541.8666666666667,23.466666666666665
2048,-4.266666666666667,-541.8666666666667,23.466666666666665
2049,0.0,-550.4,19.2
2050,2.1333333333333333,-546.1333333333333,19.2
2051,-4.266666666666667,-541.8666666666667,23.466666666666665
2052,0.0,-546.1333333333333,21.333333333333332
2053,-6.4,-533.3333333333334,19.2
2054,-6.4,-535.4666666666667,17.066666666666666
2055,-8.533333333333333,-541.8666666666667,19.2
2056,-4.266666666666667,-541.8666666666667,23.466666666666665
2057,-2.1333333333333333,-539.7333333333333,19.2
2058,0.0,-546.1333333333333,12.8
2059,-4.266666666666667,-544.0,17.066666666666666
2060,-6.4,-544.0,23.466666666666665
2061,-8.533333333333333,-546.1333333333333,17.066666666666666
2062,-6.4,-544.0,21.333333333333332
2063,-6.4,-541.8666666666667,19.2
2064,-4.266666666666667,-541.8666666666667,25.6
2065,-2.1333333333333333,-533.3333333333334,17.066666666666666
2066,-2.1333333333333333,-535.4666666666667,19.2
2067,-8.533333333333333,-539.7333333333333,21.333333333333332
2068,-4.266666666666667,-531.2,19.2
2069,-8.533333333333333,-535.4666666666667,19.2
2070,-12.8,-539.7333333333333,19.2
2071,-12.8,-539.7333333333333,27.733333333333334
2072,-6.4,-539.7333333333333,19.2
2073,-4.266666666666667,-539.7333333333333,23.466666666666665
2074,-8.533333333333333,-537.6,19.2
2075,-2.1333333333333333,-544.0,17.066666666666666
2076,-10.666666666666666,-544.0,29.866666666666667
2077,-2.1333333333333333,-546.1333333333333,17.066666666666666
2078,-2.1333333333333333,-550.4,17.066666666666666
2079,-6.4,-548.2666666666667,19.2
2080,0.0,-544.0,21.333333333333332
2081,-6.4,-544.0,17.066666666666666
2082,-6.4,-548.2666666666667,19.2
2083,-10.666666666666666,-541.8666666666667,21.333333333333332
2084,-4.266666666666667,-541.8666666666667,19.2
2085,-8.533333333333333,-539.7333333333333,19.2
2086,2.1333333333333333,-544.0,23.466666666666665
2087,-8.533333333333333,-537.6,17.066666666666666
2088,-8.533333333333333,-537.6,23.466666666666665
2089,-8.533333333333333,-544.0,19.2
2090,-6.4,-544.0,10.666666666666666
2091,-4.266666666666667,-541.8666666666667,19.2
2092,-10.666666666666666,-539.7333333333333,17.066666666666666
2093,-4.266666666666667,-544.0,21.333333333333332
2094,0.0,-537.6,21.333333333333332
2095,-2.1333333333333333,-546.1333333333333,19.2
2096,-10.666666666666666,-541.8666666666667,21.333333333333332
2097,-6.4,-541.8666666666667,17.066666666666666
2098,-2.1333333333333333,-539.7333333333333,19.2
2099,-2.1333333333333333,-548.2666666666667,17.066666666666666
2100,0.0,-541.8666666666667,14.933333333333334
2101,-4.266666666666667,-546.1333333333333,23.466666666666665
2102,-4.266666666666667,-539.7333333333333,17.066666666666666
2103,-4.266666666666667,-544.0,17.066666666666666
2104,-2.1333333333333333,-537.6,23.466666666666665
2105,-8.533333333333333,-539.7333333333333,19.2
2106,-2.1333333333333333,-539.7333333333333,21.333333333333332
2107,-8.533333333333333,-541.8666666666667,21.333333333333332
2108,-4.266666666666667,-544.0,21.333333333333332
2109,-6.4,-541.8666666666667,19.2
2110,-6.4,-546.1333333333333,23.466666666666665
2111,-2.1333333333333333,-544.0,17.066666666666666
2112,-6.4,-541.8666666666667,23.466666666666665
2113,-4.266666666666667,-544.0,21.333333333333332
2114,-10.666666666666666,-544.0,19.2
2115,-4.266666666666667,-541.8666666666667,17.066666666666666
2116,-4.266666666666667,-546.1333333333333,19.2
2117,-4.266666666666667,-548.2666666666667,17.066666666666666
2118,-4.266666666666667,-548.2666666666667,19.2
2119,0.0,-546.1333333333333,21.333333333333332
2120,-2.1333333333333333,-541.8666666666667,17.066666666666666
2121,-8.533333333333333,-544.0,27.733333333333334
2122,-6.4,-541.8666666666667,19.2
2123,-8.533333333333333,-537.6,17.066666666666666
2124,-4.266666666666667,-546.1333333333333,17.066666666666666
2125,-10.666666666666666,-535.4666666666667,19.2
2126,-6.4,-539.7333333333333,12.8
2127,-6.4,-546.1333333333333,19.2
2128,-4.266666666666667,-537.6,21.333333333333332
2129,-12.8,-533.3333333333334,23.466666666666665
2130,-4.266666666666667,-544.0,19.2
2131,-6.4,-541.8666666666667,23.466666666666665
2132,-4.266666666666667,-544.0,19.2
2133,-6.4,-541.8666666666667,19.2
2134,-4.266666666666667,-544.0,25.6
2135,-6.4,-539.7333333333333,21.333333333333332
2136,-2.1333333333333333,-541.8666666666667,27.733333333333334
2137,-2.1333333333333333,-546.1333333333333,25.6
2138,-8.533333333333333,-544.0,23.466666666666665
2139,-8.533333333333333,-541.8666666666667,17.066666666666666
2140,-8.533333333333333,-539.7333333333333,19.2
2141,0.0,-548.2666666666667,19.2
2142,-8.533333333333333,-541.8666666666667,17.066666666666666
2143,-12.8,-544.0,17.066666666666666
2144,-8.533333333333333,-548.2666666666667,23.466666666666665
2145,-4.266666666666667,-548.2666666666667,21.333333333333332
2146,-6.4,-537.6,17.066666666666666
2147,-2.1333333333333333,-546.1333333333333,19.2
2148,0.0,-546.1333333333333,17.066666666666666
2149,-6.4,-544.0,21.333333333333332
2150,-6.4,-539.7333333333333,19.2
2151,-2.1333333333333333,-546.1333333333333,17.066666666666666
2152,-6.4,-544.0,14.933333333333334
2153,-2.1333333333333333,-541.8666666666667,25.6
2154,-4.266666666666667,-537.6,19.2
2155,-4.266666666666667,-546.1333333333333,17.066666666666666
2156,0.0,-541.8666666666667,19.2
2157,-4.266666666666667,-533.3333333333334,23.466666666666665
2158,-6.4,-544.0,19.2
2159,-8.533333333333333,-544.0,19.2
2160,-4.266666666666667,-544.0,19.2
2161,-2.1333333333333333,-541.8666666666667,19.2
2162,0.0,-544.0,17.066666666666666
2163,-12.8,-546.1333333333333,17.066666666666666
2164,-2.1333333333333333,-546.1333333333333,12.8
2165,-2.1333333333333333,-541.8666666666667,21.333333333333332
2166,-4.266666666666667,-548.2666666666667,17.066666666666666
2167,-6.4,-544.0,17.066666666666666
2168,-6.4,-544.0,19.2
2169,2.1333333333333333,-548.2666666666667,17.066666666666666
2170,0.0,-544.0,17.066666666666666
2171,-10.666666666666666,-541.8666666666667,19.2
2172,-2.1333333333333333,-544.0,19.2
2173,-6.4,-539.7333333333333,12.8
2174,-4.266666666666667,-544.0,4.266666666666667
2175,-2.1333333333333333,-541.8666666666667,17.066666666666666
2176,-2.1333333333333333,-544.0,10.666666666666666
2177,0.0,-539.7333333333333,19.2
2178,-2.1333333333333333,-546.1333333333333,17.066666666666666
2179,-8.533333333333333,-544.0,17.066666666666666
2180,-4.266666666666667,-539.7333333333333,12.8
2181,0.0,-552.5333333333333,19.2
2182,-2.1333333333333333,-544.0,8.533333333333333
2183,-6.4,-544.0,12.8
2184,-4.266666666666667,-548.2666666666667,12.8
2185,-6.4,-550.4,14.933333333333334
2186,-6.4,-539.7333333333333,12.8
2187,-2.1333333333333333,-541.8666666666667,17.066666666666666
2188,-4.266666666666667,-548.2666666666667,19.2
2189,-6.4,-537.6,12.8
2190,-2.1333333333333333,-541.8666666666667,17.066666666666666
2191,-6.4,-537.6,12.8
2192,-4.266666666666667,-539.7333333333333,2.1333333333333333
2193,-2.1333333333333333,-546.1333333333333,17.066666666666666
2194,-2.1333333333333333,-539.7333333333333,12.8
2195,-4.266666666666667,-539.7333333333333,17.066666666666666
2196,0.0,-544.0,6.4
2197,-10.666666666666666,-541.8666666666667,8.533333333333333
2198,-6.4,-539.7333333333333,2.1333333333333333
2199,-4.266666666666667,-544.0,10.666666666666666
2200,-2.1333333333333333,-550.4,6.4
2201,-4.266666666666667,-548.2666666666667,14.933333333333334
2202,-2.1333333333333333,-544.0,12.8
2203,-4.266666666666667,-546.1333333333333,17.066666666666666
2204,-8.533333333333333,-539.7333333333333,10.666666666666666
2205,-8.533333333333333,-539.7333333333333,10.666666666666666
2206,-6.4,-541.8666666666667,14.933333333333334
2207,0.0,-537.6,2.1333333333333333
2208,-4.266666666666667,-537.6,12.8
2209,2.1333333333333333,-541.8666666666667,14.933333333333334
2210,-8.533333333333333,-537.6,8.533333333333333
2211,-6.4,-533.3333333333334,14.933333333333334
2212,-10.666666666666666,-541.8666666666667,8.533333333333333
2213,-6.4,-539.7333333333333,12.8
2214,0.0,-548.2666666666667,10.666666666666666
2215,2.1333333333333333,-550.4,14.933333333333334
2216,-4.266666666666667,-548.2666666666667,8.533333333333333
2217,-2.1333333333333333,-546.1333333333333,8.533333333333333
2218,0.0,-546.1333333333333,12.8
2219,2.1333333333333333,-550.4,14.933333333333334
2220,-6.4,-546.1333333333333,8.533333333333333
2221,-6.4,-548.2666666666667,17.066666666666666
2222,-8.533333333333333,-539.7333333333333,4.266666666666667
2223,-6.4,-541.8666666666667,12.8
2224,-6.4,-541.8666666666667,14.933333333333334
2225,-2.1333333333333333,-541.8666666666667,6.4
2226,-4.266666666666667,-546.1333333333333,4.266666666666667
2227,-4.266666666666667,-541.8666666666667,6.4
2228,-2.1333333333333333,-541.8666666666667,12.8
2229,-2.1333333333333333,-537.6,8.533333333333333
2230,-4.266666666666667,-535.4666666666667,-2.1333333333333333
2231,-6.4,-541.8666666666667,10.666666666666666
2232,-2.1333333333333333,-548.2666666666667,14.933333333333334
2233,2.1333333333333333,-548.2666666666667,8.533333333333333
2234,-8.533333333333333,-546.1333333333333,8.533333333333333
2235,-6.4,-548.2666666666667,-4.266666666666667
2236,-2.1333333333333333,-548.2666666666667,6.4
2237,-4.266666666666667,-541.8666666666667,14.933333333333334
2238,-2.1333333333333333,-546.1333333333333,10.666666666666666
2239,-4.266666666666667,-541.8666666666667,12.8
2240,0.0,-546.1333333333333,4.266666666666667
2241,-8.533333333333333,-541.8666666666667,4.266666666666667
2242,2.1333333333333333,-546.1333333333333,6.4
2243,-6.4,-541.8666666666667,4.266666666666667
2244,-2.1333333333333333,-541.8666666666667,6.4
2245,-2.1333333333333333,-539.7333333333333,17.066666666666666
2246,-2.1333333333333333,-541.8666666666667,10.666666666666666
2247,2.1333333333333333,-546.1333333333333,2.1333333333333333
2248,-10.666666666666666,-535.4666666666667,10.666666666666666
2249,-4.266666666666667,-541.8666666666667,10.666666666666666
2250,-8.533333333333333,-544.0,4.266666666666667
2251,-4.266666666666667,-535.4666666666667,17.066666666666666
2252,-2.1333333333333333,-539.7333333333333,12.8
2253,-6.4,-541.8666666666667,17.066666666666666
2254,-4.266666666666667,-544.0,4.266666666666667
2255,-2.1333333333333333,-550.4,4.266666666666667
2256,-6.4,-546.1333333333333,4.266666666666667
2257,-4.266666666666667,-550.4,17.066666666666666
2258,-6.4,-546.1333333333333,6.4
2259,2.1333333333333333,-546.1333333333333,12.8
2260,-6.4,-546.1333333333333,17.066666666666666
2261,0.0,-544.0,12.8
2262,0.0,-546.1333333333333,8.533333333333333
2263,-2.1333333333333333,-541.8666666666667,12.8
2264,0.0,-537.6,2.1333333333333333
2265,-10.666666666666666,-544.0,6.4
2266,0.0,-541.8666666666667,32.0
2267,-6.4,-505.59999999999997,19.2
2268,4.266666666666667,-541.8666666666667,12.8
2269,0.0,-537.6,6.4
2270,-4.266666666666667,-586.6666666666666,21.333333333333332
2271,2.1333333333333333,-518.4,-14.933333333333334
2272,-2.1333333333333333,-544.0,8.533333333333333
2273,0.0,-548.2666666666667,-2.1333333333333333
2274,-8.533333333333333,-546.1333333333333,10.666666666666666
2275,2.1333333333333333,-546.1333333333333,12.8
2276,0.0,-546.1333333333333,17.066666666666666
2277,-6.4,-546.1333333333333,6.4
2278,-2.1333333333333333,-550.4,4.266666666666667
2279,-2.1333333333333333,-552.5333333333333,6.4
2280,2.1333333333333333,-544.0,8.533333333333333
2281,-4.266666666666667,-546.1333333333333,10.666666666666666
2282,-6.4,-539.7333333333333,8.533333333333333
2283,-8.533333333333333,-541.8666666666667,6.4
2284,-4.266666666666667,-539.7333333333333,10.666666666666666
2285,-4.266666666666667,-544.0,10.666666666666666
2286,-6.4,-541.8666666666667,8.533333333333333
2287,4.266666666666667,-539.7333333333333,10.666666666666666
2288,-2.1333333333333333,-541.8666666666667,4.266666666666667
2289,-4.266666666666667,-546.1333333333333,6.4
2290,0.0,-550.4,4.266666666666667
2291,0.0,-541.8666666666667,10.666666666666666
2292,-6.4,-546.1333333333333,4.266666666666667
2293,0.0,-546.1333333333333,8.533333333333333
2294,0.0,-546.1333333333333,4.266666666666667
2295,0.0,-541.8666666666667,14.933333333333334
2296,2.1333333333333333,-546.1333333333333,12.8
2297,-2.1333333333333333,-539.7333333333333,2.1333333333333333
2298,-4.266666666666667,-539.7333333333333,10.666666666666666
2299,-2.1333333333333333,-541.8666666666667,4.266666666666667
2300,0.0,-546.1333333333333,6.4
2301,-2.1333333333333333,-544.0,8.533333333333333
2302,4.266666666666667,-541.8666666666667,8.533333333333333
2303,6.4,-546.1333333333333,6.4
2304,-4.266666666666667,-544.0,8.533333333333333
2305,-8.533333333333333,-541.8666666666667,2.1333333333333333
2306,2.1333333333333333,-539.7333333333333,17.066666666666666
2307,-2.1333333333333333,-539.7333333333333,12.8
2308,4.266666666666667,-546.1333333333333,2.1333333333333333
2309,-4.266666666666667,-539.7333333333333,17.066666666666666
2310,0.0,-541.8666666666667,17.066666666666666
2311,-6.4,-546.1333333333333,8.533333333333333
2312,-2.1333333333333333,-544.0,4.266666666666667
2313,0.0,-546.1333333333333,6.4
2314,4.266666666666667,-544.0,8.533333333333333
2315,4.266666666666667,-546.1333333333333,10.666666666666666
2316,-4.266666666666667,-539.7333333333333,4.266666666666667
2317,-2.1333333333333333,-539.7333333333333,8.533333333333333
2318,-4.266666666666667,-541.8666666666667,10.666666666666666
2319,-4.266666666666667,-541.8666666666667,2.1333333333333333
2320,0.0,-539.7333333333333,2.1333333333333333
2321,-4.266666666666667,-544.0,14.933333333333334
2322,-2.1333333333333333,-541.8666666666667,8.533333333333333
2323,0.0,-548.2666666666667,12.8
2324,-4.266666666666667,-541.8666666666667,12.8
2325,-6.4,-539.7333333333333,6.4
2326,2.1333333333333333,-544.0,10.666666666666666
2327,-2.1333333333333333,-544.0,4.266666666666667
2328,-4.266666666666667,-546.1333333333333,17.066666666666666
2329,-4.266666666666667,-546.1333333333333,12.8
2330,-8.533333333333333,-537.6,10.666666666666666
2331,-6.4,-544.0,10.666666666666666
2332,-2.1333333333333333,-541.8666666666667,10.666666666666666
2333,-2.1333333333333333,-546.1333333333333,17.066666666666666
2334,-2.1333333333333333,-548.2666666666667,8.533333333333333
2335,-6.4,-544.0,6.4
2336,-4.266666666666667,-548.2666666666667,4.266666666666667
2337,-4.266666666666667,-544.0,14.933333333333334
2338,-2.1333333333333333,-546.1333333333333,12.8
2339,-2.1333333333333333,-550.4,10.666666666666666
2340,2.1333333333333333,-546.1333333333333,2.1333333333333333
2341,-2.1333333333333333,-544.0,14.933333333333334
2342,-4.266666666666667,-548.2666666666667,23.466666666666665
2343,-14.933333333333334,-539.7333333333333,4.266666666666667
2344,-2.1333333333333333,-541.8666666666667,14.933333333333334
2345,0.0,-546.1333333333333,14.933333333333334
2346,0.0,-544.0,8.533333333333333
2347,-4.266666666666667,-544.0,8.533333333333333
2348,-4.266666666666667,-546.1333333333333,10.666666666666666
2349,-2.1333333333333333,-541.8666666666667,17.066666666666666
2350,-2.1333333333333333,-550.4,14.933333333333334
2351,0.0,-544.0,10.666666666666666
2352,0.0,-548.2666666666667,6.4
2353,-4.266666666666667,-548.2666666666667,14.933333333333334
2354,0.0,-541.8666666666667,10.666666666666666
2355,-4.266666666666667,-552.5333333333333,10.666666666666666
2356,0.0,-546.1333333333333,14.933333333333334
2357,0.0,-537.6,12.8
2358,-2.1333333333333333,-544.0,17.066666666666666
2359,-8.533333333333333,-544.0,17.066666666666666
2360,0.0,-541.8666666666667,14.933333333333334
2361,-6.4,-541.8666666666667,12.8
2362,-2.1333333333333333,-541.8666666666667,10.666666666666666
2363,2.1333333333333333,-539.7333333333333,6.4
2364,-2.1333333333333333,-544.0,17.066666666666666
2365,-4.266666666666667,-539.7333333333333,17.066666666666666
2366,0.0,-548.2666666666667,2.1333333333333333
2367,2.1333333333333333,-548.2666666666667,17.066666666666666
2368,0.0,-548.2666666666667,17.066666666666666
2369,-6.4,-546.1333333333333,17.066666666666666
2370,-4.266666666666667,-548.2666666666667,17.066666666666666
2371,0.0,-546.1333333333333,10.666666666666666
2372,-2.1333333333333333,-546.1333333333333,17.066666666666666
2373,-4.266666666666667,-541.8666666666667,2.1333333333333333
2374,-6.4,-539.7333333333333,17.066666666666666
2375,-2.1333333333333333,-541.8666666666667,12.8
2376,-2.1333333333333333,-548.2666666666667,12.8
2377,6.4,-546.1333333333333,14.933333333333334
2378,-6.4,-537.6,14.933333333333334
2379,-2.1333333333333333,-539.7333333333333,6.4
2380,0.0,-544.0,17.066666666666666
2381,-2.1333333333333333,-541.8666666666667,19.2
2382,-8.533333333333333,-533.3333333333334,17.066666666666666
2383,-8.533333333333333,-539.7333333333333,19.2
2384,-6.4,-537.6,17.066666666666666
2385,-4.266666666666667,-539.7333333333333,17.066666666666666
2386,-6.4,-539.7333333333333,21.333333333333332
2387,-2.1333333333333333,-550.4,14.933333333333334
2388,-8.533333333333333,-546.1333333333333,17.066666666666666
2389,-4.266666666666667,-541.8666666666667,23.466666666666665
2390,-4.266666666666667,-541.8666666666667,6.4
2391,2.1333333333333333,-546.1333333333333,17.066666666666666
2392,-8.533333333333333,-546.1333333333333,8.533333333333333
2393,-2.1333333333333333,-546.1333333333333,12.8
2394,-2.1333333333333333,-541.8666666666667,17.066666666666666
2395,-2.1333333333333333,-544.0,17.066666666666666
2396,-2.1333333333333333,-541.8666666666667,17.066666666666666
2397,2.1333333333333333,-537.6,14.933333333333334
2398,0.0,-541.8666666666667,8.533333333333333
2399,-2.1333333333333333,-539.7333333333333,17.066666666666666
