,accelerometerAccelerationX(G),accelerometerAccelerationY(G),accelerometerAccelerationZ(G)
0,89.6,-134.4,430.93333333333334
1,93.86666666666666,-130.13333333333333,426.6666666666667
2,87.46666666666667,-132.26666666666665,435.2
3,89.6,-132.26666666666665,435.2
4,81.06666666666666,-134.4,428.8
5,83.2,-140.8,426.6666666666667
6,83.2,-130.13333333333333,424.5333333333333
7,83.2,-134.4,433.06666666666666
8,85.33333333333333,-134.4,435.2
9,81.06666666666666,-134.4,435.2
10,83.2,-136.53333333333333,441.59999999999997
11,85.33333333333333,-132.26666666666665,430.93333333333334
12,83.2,-136.53333333333333,428.8
13,81.06666666666666,-132.26666666666665,422.4
14,89.6,-134.4,439.46666666666664
15,87.46666666666667,-130.13333333333333,418.1333333333333
16,87.46666666666667,-136.53333333333333,428.8
17,85.33333333333333,-142.93333333333334,420.26666666666665
18,85.33333333333333,-138.66666666666666,430.93333333333334
19,91.73333333333333,-136.53333333333333,435.2
20,83.2,-130.13333333333333,426.6666666666667
21,89.6,-136.53333333333333,430.93333333333334
22,83.2,-142.93333333333334,422.4
23,85.33333333333333,-132.26666666666665,433.06666666666666
24,87.46666666666667,-134.4,426.6666666666667
25,85.33333333333333,-132.26666666666665,433.06666666666666
26,102.4,-134.4,435.2
27,89.6,-134.4,437.3333333333333
28,89.6,-130.13333333333333,430.93333333333334
29,83.2,-130.13333333333333,424.5333333333333
30,89.6,-130.13333333333333,435.2
31,85.33333333333333,-132.26666666666665,437.3333333333333
32,91.73333333333333,-130.13333333333333,435.2
33,85.33333333333333,-130.13333333333333,435.2
34,91.73333333333333,-134.4,437.3333333333333
35,87.46666666666667,-136.53333333333333,426.6666666666667
36,93.86666666666666,-134.4,430.93333333333334
37,91.73333333333333,-136.53333333333333,439.46666666666664
38,85.33333333333333,-136.53333333333333,435.2
39,89.6,-136.53333333333333,433.06666666666666
40,85.33333333333333,-136.53333333333333,428.8
41,87.46666666666667,-138.66666666666666,433.06666666666666
42,87.46666666666667,-140.8,435.2
43,85.33333333333333,-130.13333333333333,433.06666666666666
44,85.33333333333333,-134.4,441.59999999999997
45,91.73333333333333,-138.66666666666666,433.06666666666666
46,85.33333333333333,-138.66666666666666,437.3333333333333
47,87.46666666666667,-132.26666666666665,420.26666666666665
48,81.06666666666666,-138.66666666666666,430.93333333333334
49,89.6,-136.53333333333333,435.2
50,85.33333333333333,-142.93333333333334,433.06666666666666
51,81.06666666666666,-136.53333333333333,430.93333333333334
52,89.6,-142.93333333333334,430.93333333333334
53,83.2,-138.66666666666666,426.6666666666667
54,85.33333333333333,-140.8,430.93333333333334
55,87.46666666666667,-147.2,430.93333333333334
56,89.6,-140.8,435.2
57,89.6,-138.66666666666666,441.59999999999997
58,85.33333333333333,-140.8,437.3333333333333
59,78.93333333333334,-142.93333333333334,428.8
60,87.46666666666667,-138.66666666666666,428.8
61,85.33333333333333,-140.8,433.06666666666666
62,81.06666666666666,-138.66666666666666,422.4
63,83.2,-142.93333333333334,424.5333333333333
64,85.33333333333333,-140.8,430.93333333333334
65,78.93333333333334,-138.66666666666666,426.6666666666667
66,87.46666666666667,-142.93333333333334,430.93333333333334
67,89.6,-140.8,426.6666666666667
68,85.33333333333333,-140.8,433.06666666666666
69,87.46666666666667,-136.53333333333333,433.06666666666666
70,98.13333333333333,-136.53333333333333,420.26666666666665
71,81.06666666666666,-136.53333333333333,426.6666666666667
72,83.2,-140.8,435.2
73,83.2,-136.53333333333333,420.26666666666665
74,78.93333333333334,-138.66666666666666,428.8
75,85.33333333333333,-142.93333333333334,424.5333333333333
76,85.33333333333333,-147.2,428.8
77,78.93333333333334,-140.8,424.5333333333333
78,89.6,-142.93333333333334,424.5333333333333
79,83.2,-145.06666666666666,439.46666666666664
80,74.66666666666667,-140.8,422.4
81,78.93333333333334,-149.33333333333334,426.6666666666667
82,76.8,-140.8,422.4
83,83.2,-147.2,424.5333333333333
84,81.06666666666666,-151.46666666666667,430.93333333333334
85,83.2,-138.66666666666666,433.06666666666666
86,81.06666666666666,-142.93333333333334,430.93333333333334
87,78.93333333333334,-140.8,426.6666666666667
88,81.06666666666666,-142.93333333333334,433.06666666666666
89,74.66666666666667,-142.93333333333334,422.4
90,85.33333333333333,-145.06666666666666,420.26666666666665
91,85.33333333333333,-142.93333333333334,420.26666666666665
92,91.73333333333333,-134.4,424.5333333333333
93,78.93333333333334,-140.8,426.6666666666667
94,81.06666666666666,-140.8,418.1333333333333
95,83.2,-140.8,418.1333333333333
96,85.33333333333333,-142.93333333333334,424.5333333333333
97,83.2,-140.8,420.26666666666665
98,85.33333333333333,-140.8,418.1333333333333
99,83.2,-140.8,424.5333333333333
100,76.8,-140.8,420.26666666666665
101,81.06666666666666,-140.8,418.1333333333333
102,78.93333333333334,-136.53333333333333,424.5333333333333
103,85.33333333333333,-134.4,430.93333333333334
104,89.6,-138.66666666666666,416.0
105,87.46666666666667,-136.53333333333333,430.93333333333334
106,87.46666666666667,-138.66666666666666,433.06666666666666
107,81.06666666666666,-138.66666666666666,428.8
108,85.33333333333333,-136.53333333333333,422.4
109,85.33333333333333,-138.66666666666666,428.8
110,83.2,-138.66666666666666,428.8
111,85.33333333333333,-136.53333333333333,422.4
112,87.46666666666667,-145.06666666666666,418.1333333333333
113,72.53333333333333,-147.2,428.8
114,85.33333333333333,-142.93333333333334,428.8
115,83.2,-136.53333333333333,426.6666666666667
116,89.6,-151.46666666666667,430.93333333333334
117,85.33333333333333,-142.93333333333334,437.3333333333333
118,83.2,-145.06666666666666,424.5333333333333
119,87.46666666666667,-140.8,424.5333333333333
120,87.46666666666667,-140.8,433.06666666666666
121,87.46666666666667,-138.66666666666666,426.6666666666667
122,83.2,-138.66666666666666,426.6666666666667
123,85.33333333333333,-145.06666666666666,428.8
124,78.93333333333334,-147.2,433.06666666666666
125,89.6,-138.66666666666666,430.93333333333334
126,87.46666666666667,-140.8,430.93333333333334
127,87.46666666666667,-142.93333333333334,426.6666666666667
128,91.73333333333333,-142.93333333333334,430.93333333333334
129,93.86666666666666,-138.66666666666666,430.93333333333334
130,85.33333333333333,-138.66666666666666,428.8
131,89.6,-142.93333333333334,428.8
132,81.06666666666666,-140.8,420.26666666666665
133,78.93333333333334,-136.53333333333333,422.4
134,85.33333333333333,-142.93333333333334,426.6666666666667
135,85.33333333333333,-140.8,430.93333333333334
136,83.2,-138.66666666666666,428.8
137,87.46666666666667,-138.66666666666666,433.06666666666666
138,85.33333333333333,-142.93333333333334,420.26666666666665
139,83.2,-138.66666666666666,428.8
140,85.33333333333333,-142.93333333333334,435.2
141,78.93333333333334,-138.66666666666666,422.4
142,91.73333333333333,-145.06666666666666,428.8
143,87.46666666666667,-142.93333333333334,430.93333333333334
144,78.93333333333334,-145.06666666666666,426.6666666666667
145,87.46666666666667,-136.53333333333333,430.93333333333334
146,83.2,-136.53333333333333,428.8
147,81.06666666666666,-138.66666666666666,422.4
148,85.33333333333333,-140.8,418.1333333333333
149,85.33333333333333,-140.8,420.26666666666665
150,78.93333333333334,-140.8,422.4
151,81.06666666666666,-138.66666666666666,424.5333333333333
152,81.06666666666666,-138.66666666666666,424.5333333333333
153,83.2,-145.06666666666666,416.0
154,83.2,-140.8,420.26666666666665
155,85.33333333333333,-142.93333333333334,420.26666666666665
156,87.46666666666667,-147.2,428.8
157,87.46666666666667,-147.2,428.8
158,81.06666666666666,-138.66666666666666,428.8
159,78.93333333333334,-136.53333333333333,428.8
160,83.2,-138.66666666666666,428.8
161,85.33333333333333,-138.66666666666666,428.8
162,85.33333333333333,-138.66666666666666,418.1333333333333
163,87.46666666666667,-140.8,424.5333333333333
164,81.06666666666666,-138.66666666666666,424.5333333333333
165,81.06666666666666,-138.66666666666666,435.2
166,83.2,-145.06666666666666,428.8
167,85.33333333333333,-142.93333333333334,426.6666666666667
168,68.26666666666667,-134.4,426.6666666666667
169,85.33333333333333,-142.93333333333334,435.2
170,85.33333333333333,-136.53333333333333,426.6666666666667
171,83.2,-138.66666666666666,428.8
172,83.2,-142.93333333333334,428.8
173,76.8,-136.53333333333333,426.6666666666667
174,81.06666666666666,-136.53333333333333,422.4
175,87.46666666666667,-140.8,424.5333333333333
176,91.73333333333333,-140.8,424.5333333333333
177,89.6,-136.53333333333333,424.5333333333333
178,85.33333333333333,-136.53333333333333,426.6666666666667
179,87.46666666666667,-145.06666666666666,422.4
180,85.33333333333333,-134.4,426.6666666666667
181,85.33333333333333,-138.66666666666666,430.93333333333334
182,89.6,-140.8,413.8666666666667
183,89.6,-138.66666666666666,424.5333333333333
184,83.2,-136.53333333333333,420.26666666666665
185,85.33333333333333,-138.66666666666666,435.2
186,89.6,-140.8,435.2
187,93.86666666666666,-142.93333333333334,426.6666666666667
188,87.46666666666667,-136.53333333333333,433.06666666666666
189,87.46666666666667,-136.53333333333333,437.3333333333333
190,91.73333333333333,-145.06666666666666,418.1333333333333
191,87.46666666666667,-147.2,430.93333333333334
192,85.33333333333333,-140.8,439.46666666666664
193,85.33333333333333,-138.66666666666666,433.06666666666666
194,87.46666666666667,-138.66666666666666,437.3333333333333
195,83.2,-145.06666666666666,426.6666666666667
196,93.86666666666666,-142.93333333333334,428.8
197,91.73333333333333,-142.93333333333334,433.06666666666666
198,91.73333333333333,-142.93333333333334,435.2
199,87.46666666666667,-147.2,430.93333333333334
200,91.73333333333333,-140.8,428.8
201,87.46666666666667,-132.26666666666665,426.6666666666667
202,87.46666666666667,-136.53333333333333,428.8
203,85.33333333333333,-136.53333333333333,430.93333333333334
204,89.6,-136.53333333333333,424.5333333333333
205,89.6,-136.53333333333333,430.93333333333334
206,85.33333333333333,-136.53333333333333,422.4
207,87.46666666666667,-130.13333333333333,426.6666666666667
208,89.6,-132.26666666666665,433.06666666666666
209,93.86666666666666,-138.66666666666666,430.93333333333334
210,93.86666666666666,-132.26666666666665,441.59999999999997
211,91.73333333333333,-134.4,422.4
212,91.73333333333333,-138.66666666666666,430.93333333333334
213,93.86666666666666,-134.4,430.93333333333334
214,91.73333333333333,-136.53333333333333,430.93333333333334
215,89.6,-136.53333333333333,435.2
216,96.0,-142.93333333333334,426.6666666666667
217,89.6,-136.53333333333333,433.06666666666666
218,85.33333333333333,-140.8,430.93333333333334
219,87.46666666666667,-138.66666666666666,433.06666666666666
220,93.86666666666666,-140.8,437.3333333333333
221,91.73333333333333,-140.8,428.8
222,81.06666666666666,-147.2,428.8
223,87.46666666666667,-136.53333333333333,435.2
224,81.06666666666666,-138.66666666666666,437.3333333333333
225,89.6,-138.66666666666666,430.93333333333334
226,96.0,-136.53333333333333,435.2
227,85.33333333333333,-136.53333333333333,428.8
228,87.46666666666667,-136.53333333333333,435.2
229,89.6,-136.53333333333333,426.6666666666667
230,85.33333333333333,-134.4,428.8
231,93.86666666666666,-134.4,433.06666666666666
232,87.46666666666667,-136.53333333333333,424.5333333333333
233,96.0,-130.13333333333333,426.6666666666667
234,87.46666666666667,-136.53333333333333,418.1333333333333
235,87.46666666666667,-134.4,433.06666666666666
236,91.73333333333333,-134.4,430.93333333333334
237,96.0,-134.4,422.4
238,91.73333333333333,-136.53333333333333,430.93333333333334
239,93.86666666666666,-134.4,428.8
240,93.86666666666666,-134.4,426.6666666666667
241,87.46666666666667,-134.4,426.6666666666667
242,98.13333333333333,-132.26666666666665,428.8
243,96.0,-134.4,433.06666666666666
244,98.13333333333333,-125.86666666666666,409.6
245,96.0,-134.4,428.8
246,100.26666666666667,-132.26666666666665,426.6666666666667
247,96.0,-132.26666666666665,437.3333333333333
248,91.73333333333333,-130.13333333333333,448.0
249,93.86666666666666,-132.26666666666665,433.06666666666666
250,87.46666666666667,-130.13333333333333,433.06666666666666
251,96.0,-134.4,441.59999999999997
252,87.46666666666667,-136.53333333333333,433.06666666666666
253,98.13333333333333,-134.4,441.59999999999997
254,93.86666666666666,-130.13333333333333,437.3333333333333
255,89.6,-130.13333333333333,445.8666666666667
256,87.46666666666667,-136.53333333333333,430.93333333333334
257,89.6,-130.13333333333333,439.46666666666664
258,89.6,-132.26666666666665,428.8
259,87.46666666666667,-132.26666666666665,433.06666666666666
260,87.46666666666667,-132.26666666666665,430.93333333333334
261,87.46666666666667,-134.4,430.93333333333334
262,100.26666666666667,-136.53333333333333,430.93333333333334
263,96.0,-132.26666666666665,435.2
264,93.86666666666666,-134.4,435.2
265,98.13333333333333,-136.53333333333333,428.8
266,98.13333333333333,-130.13333333333333,426.6666666666667
267,93.86666666666666,-138.66666666666666,439.46666666666664
268,91.73333333333333,-128.0,433.06666666666666
269,89.6,-130.13333333333333,424.5333333333333
270,93.86666666666666,-132.26666666666665,428.8
271,91.73333333333333,-130.13333333333333,428.8
272,96.0,-130.13333333333333,433.06666666666666
273,93.86666666666666,-132.26666666666665,426.6666666666667
274,104.53333333333333,-130.13333333333333,424.5333333333333
275,100.26666666666667,-132.26666666666665,430.93333333333334
276,96.0,-121.6,433.06666666666666
277,98.13333333333333,-132.26666666666665,430.93333333333334
278,98.13333333333333,-128.0,437.3333333333333
279,93.86666666666666,-128.0,435.2
280,98.13333333333333,-132.26666666666665,430.93333333333334
281,93.86666666666666,-128.0,437.3333333333333
282,89.6,-134.4,424.5333333333333
283,91.73333333333333,-134.4,435.2
284,93.86666666666666,-132.26666666666665,433.06666666666666
285,91.73333333333333,-130.13333333333333,441.59999999999997
286,89.6,-125.86666666666666,422.4
287,98.13333333333333,-132.26666666666665,424.5333333333333
288,83.2,-130.13333333333333,437.3333333333333
289,89.6,-134.4,422.4
290,93.86666666666666,-132.26666666666665,430.93333333333334
291,87.46666666666667,-128.0,430.93333333333334
292,100.26666666666667,-134.4,428.8
293,93.86666666666666,-128.0,426.6666666666667
294,91.73333333333333,-128.0,433.06666666666666
295,93.86666666666666,-128.0,435.2
296,85.33333333333333,-130.13333333333333,433.06666666666666
297,93.86666666666666,-130.13333333333333,426.6666666666667
298,96.0,-136.53333333333333,424.5333333333333
299,91.73333333333333,-130.13333333333333,422.4
300,93.86666666666666,-125.86666666666666,420.26666666666665
301,96.0,-130.13333333333333,430.93333333333334
302,91.73333333333333,-130.13333333333333,437.3333333333333
303,96.0,-130.13333333333333,437.3333333333333
304,93.86666666666666,-123.73333333333333,435.2
305,98.13333333333333,-128.0,430.93333333333334
306,102.4,-134.4,428.8
307,104.53333333333333,-125.86666666666666,435.2
308,91.73333333333333,-123.73333333333333,428.8
309,93.86666666666666,-123.73333333333333,433.06666666666666
310,91.73333333333333,-110.93333333333334,428.8
311,98.13333333333333,-130.13333333333333,441.59999999999997
312,98.13333333333333,-125.86666666666666,428.8
313,98.13333333333333,-119.46666666666667,435.2
314,91.73333333333333,-123.73333333333333,433.06666666666666
315,102.4,-128.0,428.8
316,100.26666666666667,-125.86666666666666,439.46666666666664
317,98.13333333333333,-123.73333333333333,439.46666666666664
318,100.26666666666667,-121.6,441.59999999999997
319,98.13333333333333,-128.0,439.46666666666664
320,93.86666666666666,-119.46666666666667,435.2
321,98.13333333333333,-132.26666666666665,437.3333333333333
322,96.0,-130.13333333333333,433.06666666666666
323,98.13333333333333,-125.86666666666666,430.93333333333334
324,98.13333333333333,-132.26666666666665,430.93333333333334
325,100.26666666666667,-128.0,430.93333333333334
326,96.0,-128.0,435.2
327,93.86666666666666,-121.6,439.46666666666664
328,91.73333333333333,-130.13333333333333,433.06666666666666
329,96.0,-123.73333333333333,433.06666666666666
330,96.0,-128.0,430.93333333333334
331,100.26666666666667,-123.73333333333333,437.3333333333333
332,96.0,-128.0,441.59999999999997
333,93.86666666666666,-125.86666666666666,428.8
334,96.0,-125.86666666666666,428.8
335,98.13333333333333,-128.0,433.06666666666666
336,100.26666666666667,-125.86666666666666,428.8
337,98.13333333333333,-125.86666666666666,437.3333333333333
338,98.13333333333333,-123.73333333333333,433.06666666666666
339,93.86666666666666,-123.73333333333333,437.3333333333333
340,102.4,-128.0,426.6666666666667
341,110.93333333333334,-128.0,433.06666666666666
342,96.0,-119.46666666666667,433.06666666666666
343,91.73333333333333,-119.46666666666667,433.06666666666666
344,102.4,-125.86666666666666,435.2
345,93.86666666666666,-121.6,435.2
346,102.4,-125.86666666666666,430.93333333333334
347,98.13333333333333,-123.73333333333333,435.2
348,96.0,-121.6,437.3333333333333
349,104.53333333333333,-117.33333333333333,437.3333333333333
350,98.13333333333333,-123.73333333333333,439.46666666666664
351,102.4,-125.86666666666666,439.46666666666664
352,104.53333333333333,-132.26666666666665,437.3333333333333
353,100.26666666666667,-123.73333333333333,439.46666666666664
354,100.26666666666667,-125.86666666666666,443.73333333333335
355,102.4,-128.0,437.3333333333333
356,98.13333333333333,-125.86666666666666,439.46666666666664
357,91.73333333333333,-123.73333333333333,428.8
358,98.13333333333333,-123.73333333333333,435.2
359,100.26666666666667,-128.0,435.2
360,98.13333333333333,-125.86666666666666,413.8666666666667
361,93.86666666666666,-121.6,428.8
362,96.0,-121.6,426.6666666666667
363,102.4,-130.13333333333333,441.59999999999997
364,93.86666666666666,-121.6,428.8
365,96.0,-121.6,433.06666666666666
366,96.0,-117.33333333333333,426.6666666666667
367,102.4,-128.0,435.2
368,102.4,-119.46666666666667,428.8
369,100.26666666666667,-121.6,433.06666666666666
370,98.13333333333333,-113.06666666666666,433.06666666666666
371,102.4,-123.73333333333333,437.3333333333333
372,104.53333333333333,-110.93333333333334,437.3333333333333
373,96.0,-117.33333333333333,439.46666666666664
374,91.73333333333333,-113.06666666666666,426.6666666666667
375,100.26666666666667,-125.86666666666666,439.46666666666664
376,98.13333333333333,-119.46666666666667,439.46666666666664
377,104.53333333333333,-125.86666666666666,435.2
378,100.26666666666667,-121.6,437.3333333333333
379,98.13333333333333,-115.2,428.8
380,96.0,-113.06666666666666,426.6666666666667
381,96.0,-117.33333333333333,435.2
382,96.0,-113.06666666666666,435.2
383,100.26666666666667,-110.93333333333334,428.8
384,96.0,-110.93333333333334,433.06666666666666
385,104.53333333333333,-117.33333333333333,430.93333333333334
386,108.8,-121.6,445.8666666666667
387,106.66666666666667,-121.6,433.06666666666666
388,98.13333333333333,-117.33333333333333,428.8
389,98.13333333333333,-115.2,437.3333333333333
390,106.66666666666667,-115.2,437.3333333333333
391,100.26666666666667,-119.46666666666667,439.46666666666664
392,100.26666666666667,-119.46666666666667,433.06666666666666
393,91.73333333333333,-115.2,433.06666666666666
394,96.0,-115.2,435.2
395,87.46666666666667,-110.93333333333334,437.3333333333333
396,96.0,-123.73333333333333,437.3333333333333
397,91.73333333333333,-100.26666666666667,424.5333333333333
398,89.6,-117.33333333333333,437.3333333333333
399,96.0,-117.33333333333333,433.06666666666666
400,102.4,-113.06666666666666,437.3333333333333
401,96.0,-117.33333333333333,437.3333333333333
402,91.73333333333333,-121.6,435.2
403,96.0,-121.6,430.93333333333334
404,98.13333333333333,-119.46666666666667,439.46666666666664
405,93.86666666666666,-115.2,430.93333333333334
406,89.6,-121.6,424.5333333333333
407,100.26666666666667,-115.2,443.73333333333335
408,93.86666666666666,-113.06666666666666,433.06666666666666
409,98.13333333333333,-115.2,443.73333333333335
410,96.0,-113.06666666666666,437.3333333333333
411,96.0,-121.6,443.73333333333335
412,104.53333333333333,-113.06666666666666,430.93333333333334
413,100.26666666666667,-115.2,433.06666666666666
414,96.0,-117.33333333333333,437.3333333333333
415,106.66666666666667,-115.2,433.06666666666666
416,96.0,-119.46666666666667,441.59999999999997
417,100.26666666666667,-117.33333333333333,441.59999999999997
418,115.2,-121.6,418.1333333333333
419,98.13333333333333,-113.06666666666666,426.6666666666667
420,96.0,-119.46666666666667,428.8
421,100.26666666666667,-115.2,437.3333333333333
422,98.13333333333333,-123.73333333333333,433.06666666666666
423,98.13333333333333,-123.73333333333333,437.3333333333333
424,102.4,-115.2,435.2
425,100.26666666666667,-123.73333333333333,430.93333333333334
426,98.13333333333333,-117.33333333333333,433.06666666666666
427,98.13333333333333,-115.2,433.06666666666666
428,102.4,-119.46666666666667,443.73333333333335
429,108.8,-123.73333333333333,435.2
430,104.53333333333333,-119.46666666666667,433.06666666666666
431,98.13333333333333,-121.6,433.06666666666666
432,100.26666666666667,-119.46666666666667,426.6666666666667
433,102.4,-115.2,435.2
434,98.13333333333333,-117.33333333333333,433.06666666666666
435,102.4,-121.6,435.2
436,104.53333333333333,-119.46666666666667,428.8
437,100.26666666666667,-117.33333333333333,439.46666666666664
438,96.0,-106.66666666666667,433.06666666666666
439,110.93333333333334,-108.8,443.73333333333335
440,102.4,-113.06666666666666,430.93333333333334
441,100.26666666666667,-104.53333333333333,443.73333333333335
442,98.13333333333333,-106.66666666666667,441.59999999999997
443,98.13333333333333,-115.2,435.2
444,104.53333333333333,-110.93333333333334,439.46666666666664
445,106.66666666666667,-113.06666666666666,437.3333333333333
446,104.53333333333333,-108.8,443.73333333333335
447,100.26666666666667,-108.8,448.0
448,98.13333333333333,-108.8,448.0
449,104.53333333333333,-121.6,450.1333333333333
450,102.4,-117.33333333333333,437.3333333333333
451,91.73333333333333,-115.2,452.26666666666665
452,98.13333333333333,-110.93333333333334,445.8666666666667
453,102.4,-117.33333333333333,439.46666666666664
454,98.13333333333333,-119.46666666666667,433.06666666666666
455,98.13333333333333,-117.33333333333333,435.2
456,96.0,-121.6,437.3333333333333
457,98.13333333333333,-117.33333333333333,433.06666666666666
458,100.26666666666667,-113.06666666666666,441.59999999999997
459,102.4,-115.2,443.73333333333335
460,102.4,-115.2,435.2
461,102.4,-117.33333333333333,433.06666666666666
462,113.06666666666666,-134.4,430.93333333333334
463,104.53333333333333,-117.33333333333333,435.2
464,98.13333333333333,-119.46666666666667,433.06666666666666
465,102.4,-125.86666666666666,433.06666666666666
466,96.0,-117.33333333333333,435.2
467,100.26666666666667,-121.6,428.8
468,91.73333333333333,-121.6,430.93333333333334
469,96.0,-123.73333333333333,437.3333333333333
470,100.26666666666667,-123.73333333333333,433.06666666666666
471,104.53333333333333,-128.0,433.06666666666666
472,104.53333333333333,-125.86666666666666,428.8
473,108.8,-123.73333333333333,416.0
474,98.13333333333333,-123.73333333333333,426.6666666666667
475,93.86666666666666,-119.46666666666667,428.8
476,102.4,-128.0,433.06666666666666
477,98.13333333333333,-123.73333333333333,439.46666666666664
478,93.86666666666666,-123.73333333333333,437.3333333333333
479,102.4,-130.13333333333333,435.2
480,96.0,-128.0,430.93333333333334
481,93.86666666666666,-121.6,433.06666666666666
482,98.13333333333333,-125.86666666666666,439.46666666666664
483,100.26666666666667,-123.73333333333333,437.3333333333333
484,78.93333333333334,-123.73333333333333,430.93333333333334
485,96.0,-121.6,437.3333333333333
486,102.4,-132.26666666666665,428.8
487,96.0,-130.13333333333333,439.46666666666664
488,100.26666666666667,-123.73333333333333,437.3333333333333
489,93.86666666666666,-128.0,437.3333333333333
490,93.86666666666666,-125.86666666666666,428.8
491,96.0,-128.0,443.73333333333335
492,91.73333333333333,-128.0,443.73333333333335
493,100.26666666666667,-130.13333333333333,437.3333333333333
494,93.86666666666666,-132.26666666666665,435.2
495,85.33333333333333,-128.0,439.46666666666664
496,96.0,-136.53333333333333,435.2
497,89.6,-132.26666666666665,428.8
498,93.86666666666666,-134.4,441.59999999999997
499,87.46666666666667,-138.66666666666666,428.8
500,91.73333333333333,-136.53333333333333,428.8
501,89.6,-136.53333333333333,435.2
502,87.46666666666667,-136.53333333333333,437.3333333333333
503,96.0,-136.53333333333333,433.06666666666666
504,83.2,-136.53333333333333,422.4
505,87.46666666666667,-134.4,428.8
506,78.93333333333334,-130.13333333333333,422.4
507,89.6,-132.26666666666665,433.06666666666666
508,98.13333333333333,-136.53333333333333,435.2
509,96.0,-134.4,430.93333333333334
510,98.13333333333333,-132.26666666666665,422.4
511,91.73333333333333,-128.0,422.4
512,91.73333333333333,-132.26666666666665,435.2
513,89.6,-123.73333333333333,422.4
514,100.26666666666667,-134.4,424.5333333333333
515,96.0,-134.4,426.6666666666667
516,89.6,-130.13333333333333,428.8
517,91.73333333333333,-125.86666666666666,422.4
518,93.86666666666666,-136.53333333333333,435.2
519,87.46666666666667,-128.0,430.93333333333334
520,91.73333333333333,-132.26666666666665,437.3333333333333
521,96.0,-136.53333333333333,428.8
522,96.0,-134.4,433.06666666666666
523,96.0,-134.4,435.2
524,87.46666666666667,-134.4,435.2
525,87.46666666666667,-136.53333333333333,430.93333333333334
526,87.46666666666667,-140.8,428.8
527,93.86666666666666,-136.53333333333333,424.5333333333333
528,93.86666666666666,-138.66666666666666,437.3333333333333
529,93.86666666666666,-136.53333333333333,437.3333333333333
530,89.6,-138.66666666666666,435.2
531,91.73333333333333,-145.06666666666666,422.4
532,89.6,-142.93333333333334,435.2
533,89.6,-145.06666666666666,435.2
534,91.73333333333333,-147.2,422.4
535,87.46666666666667,-145.06666666666666,435.2
536,87.46666666666667,-149.33333333333334,435.2
537,85.33333333333333,-138.66666666666666,439.46666666666664
538,76.8,-145.06666666666666,426.6666666666667
539,91.73333333333333,-145.06666666666666,445.8666666666667
540,85.33333333333333,-147.2,443.73333333333335
541,89.6,-147.2,448.0
542,89.6,-145.06666666666666,452.26666666666665
543,89.6,-140.8,452.26666666666665
544,85.33333333333333,-147.2,462.93333333333334
545,83.2,-140.8,467.2
546,74.66666666666667,-149.33333333333334,475.73333333333335
547,68.26666666666667,-151.46666666666667,488.5333333333333
548,61.86666666666667,-140.8,501.3333333333333
549,66.13333333333333,-140.8,524.8
550,68.26666666666667,-155.73333333333332,526.9333333333333
551,57.6,-166.4,535.4666666666667
552,53.333333333333336,-166.4,522.6666666666666
553,53.333333333333336,-179.2,520.5333333333333
554,61.86666666666667,-170.66666666666666,505.59999999999997
555,61.86666666666667,-183.46666666666667,488.5333333333333
556,66.13333333333333,-189.86666666666667,467.2
557,61.86666666666667,-185.6,433.06666666666666
558,51.2,-192.0,407.46666666666664
559,49.06666666666666,-194.13333333333333,381.8666666666667
560,49.06666666666666,-196.26666666666665,362.6666666666667
561,32.0,-194.13333333333333,352.0
562,27.733333333333334,-196.26666666666665,347.73333333333335
563,12.8,-187.73333333333332,352.0
564,12.8,-181.33333333333334,337.06666666666666
565,23.466666666666665,-172.8,347.73333333333335
566,27.733333333333334,-157.86666666666667,345.6
567,32.0,-142.93333333333334,349.8666666666667
568,34.13333333333333,-128.0,356.26666666666665
569,44.8,-117.33333333333333,369.06666666666666
570,44.8,-104.53333333333333,377.6
571,44.8,-96.0,388.26666666666665
572,53.333333333333336,-91.73333333333333,398.93333333333334
573,57.6,-91.73333333333333,413.8666666666667
574,59.733333333333334,-83.2,418.1333333333333
575,53.333333333333336,-93.86666666666666,435.2
576,46.93333333333333,-106.66666666666667,452.26666666666665
577,40.53333333333333,-117.33333333333333,467.2
578,21.333333333333332,-130.13333333333333,465.06666666666666
579,29.866666666666667,-138.66666666666666,462.93333333333334
580,17.066666666666666,-138.66666666666666,471.46666666666664
581,23.466666666666665,-138.66666666666666,460.8
582,12.8,-121.6,448.0
583,23.466666666666665,-132.26666666666665,450.1333333333333
584,12.8,-123.73333333333333,454.4
585,21.333333333333332,-115.2,441.59999999999997
586,32.0,-113.06666666666666,424.5333333333333
587,46.93333333333333,-110.93333333333334,413.8666666666667
588,44.8,-113.06666666666666,405.3333333333333
589,53.333333333333336,-106.66666666666667,416.0
590,68.26666666666667,-115.2,407.46666666666664
591,76.8,-119.46666666666667,411.73333333333335
592,83.2,-125.86666666666666,420.26666666666665
593,93.86666666666666,-136.53333333333333,435.2
594,98.13333333333333,-145.06666666666666,426.6666666666667
595,102.4,-155.73333333333332,418.1333333333333
596,104.53333333333333,-153.6,424.5333333333333
597,113.06666666666666,-155.73333333333332,428.8
598,115.2,-151.46666666666667,420.26666666666665
599,119.46666666666667,-147.2,413.8666666666667
600,130.13333333333333,-140.8,405.3333333333333
601,125.86666666666666,-132.26666666666665,390.4
602,130.13333333333333,-128.0,396.8
603,119.46666666666667,-130.13333333333333,386.1333333333333
604,110.93333333333334,-115.2,386.1333333333333
605,106.66666666666667,-113.06666666666666,386.1333333333333
606,102.4,-117.33333333333333,390.4
607,106.66666666666667,-123.73333333333333,392.5333333333333
608,108.8,-123.73333333333333,398.93333333333334
609,108.8,-128.0,418.1333333333333
610,117.33333333333333,-128.0,422.4
611,123.73333333333333,-121.6,433.06666666666666
612,130.13333333333333,-130.13333333333333,422.4
613,121.6,-117.33333333333333,433.06666666666666
614,130.13333333333333,-110.93333333333334,437.3333333333333
615,123.73333333333333,-113.06666666666666,428.8
616,132.26666666666665,-115.2,437.3333333333333
617,134.4,-123.73333333333333,450.1333333333333
618,132.26666666666665,-130.13333333333333,458.6666666666667
619,121.6,-130.13333333333333,452.26666666666665
620,119.46666666666667,-134.4,456.5333333333333
621,125.86666666666666,-138.66666666666666,452.26666666666665
622,121.6,-140.8,465.06666666666666
623,113.06666666666666,-136.53333333333333,465.06666666666666
624,100.26666666666667,-123.73333333333333,452.26666666666665
625,83.2,-117.33333333333333,433.06666666666666
626,81.06666666666666,-113.06666666666666,411.73333333333335
627,74.66666666666667,-115.2,405.3333333333333
628,46.93333333333333,-106.66666666666667,403.2
629,49.06666666666666,-125.86666666666666,416.0
630,55.46666666666667,-132.26666666666665,409.6
631,55.46666666666667,-132.26666666666665,426.6666666666667
632,44.8,-138.66666666666666,435.2
633,17.066666666666666,-140.8,433.06666666666666
634,23.466666666666665,-138.66666666666666,433.06666666666666
635,25.6,-134.4,439.46666666666664
636,27.733333333333334,-138.66666666666666,458.6666666666667
637,10.666666666666666,-145.06666666666666,456.5333333333333
638,12.8,-155.73333333333332,456.5333333333333
639,34.13333333333333,-153.6,452.26666666666665
640,72.53333333333333,-157.86666666666667,462.93333333333334
641,83.2,-174.93333333333334,454.4
642,29.866666666666667,-185.6,458.6666666666667
643,4.266666666666667,-192.0,458.6666666666667
644,0.0,-204.8,450.1333333333333
645,-46.93333333333333,-213.33333333333334,452.26666666666665
646,-93.86666666666666,-238.93333333333334,456.5333333333333
647,-373.3333333333333,-262.4,531.2
648,-61.86666666666667,-238.93333333333334,484.26666666666665
649,209.06666666666666,-277.3333333333333,332.8
650,128.0,-273.06666666666666,347.73333333333335
651,2.1333333333333333,-234.66666666666666,362.6666666666667
652,-91.73333333333333,-251.73333333333332,369.06666666666666
653,-119.46666666666667,-247.46666666666667,343.46666666666664
654,-115.2,-236.79999999999998,328.5333333333333
655,-72.53333333333333,-232.53333333333333,326.4
656,-42.666666666666664,-238.93333333333334,345.6
657,-19.2,-249.6,356.26666666666665
658,-2.1333333333333333,-249.6,362.6666666666667
659,2.1333333333333333,-238.93333333333334,384.0
660,17.066666666666666,-230.4,381.8666666666667
661,32.0,-241.06666666666666,392.5333333333333
662,29.866666666666667,-238.93333333333334,388.26666666666665
663,42.666666666666664,-251.73333333333332,394.6666666666667
664,42.666666666666664,-262.4,390.4
665,38.4,-268.8,390.4
666,49.06666666666666,-268.8,386.1333333333333
667,68.26666666666667,-281.6,394.6666666666667
668,72.53333333333333,-281.6,379.73333333333335
669,81.06666666666666,-285.8666666666667,388.26666666666665
670,104.53333333333333,-294.4,388.26666666666665
671,104.53333333333333,-305.06666666666666,396.8
672,98.13333333333333,-302.93333333333334,398.93333333333334
673,108.8,-302.93333333333334,403.2
674,115.2,-288.0,396.8
675,121.6,-283.73333333333335,394.6666666666667
676,123.73333333333333,-273.06666666666666,396.8
677,130.13333333333333,-262.4,377.6
678,132.26666666666665,-256.0,373.3333333333333
679,145.06666666666666,-249.6,362.6666666666667
680,151.46666666666667,-245.33333333333334,347.73333333333335
681,151.46666666666667,-234.66666666666666,339.2
682,147.2,-232.53333333333333,354.1333333333333
683,140.8,-221.86666666666667,364.8
684,136.53333333333333,-213.33333333333334,375.46666666666664
685,134.4,-200.53333333333333,394.6666666666667
686,128.0,-177.06666666666666,413.8666666666667
687,132.26666666666665,-162.13333333333333,430.93333333333334
688,138.66666666666666,-145.06666666666666,441.59999999999997
689,145.06666666666666,-138.66666666666666,443.73333333333335
690,153.6,-128.0,430.93333333333334
691,157.86666666666667,-128.0,422.4
692,160.0,-136.53333333333333,418.1333333333333
693,164.26666666666665,-134.4,407.46666666666664
694,160.0,-145.06666666666666,405.3333333333333
695,164.26666666666665,-162.13333333333333,409.6
696,170.66666666666666,-179.2,407.46666666666664
697,185.6,-189.86666666666667,411.73333333333335
698,187.73333333333332,-192.0,433.06666666666666
699,215.46666666666667,-211.2,445.8666666666667
700,217.6,-215.46666666666667,435.2
701,243.2,-226.13333333333333,443.73333333333335
702,243.2,-226.13333333333333,433.06666666666666
703,256.0,-219.73333333333332,443.73333333333335
704,251.73333333333332,-209.06666666666666,437.3333333333333
705,236.79999999999998,-198.4,437.3333333333333
706,232.53333333333333,-187.73333333333332,435.2
707,226.13333333333333,-166.4,426.6666666666667
708,234.66666666666666,-155.73333333333332,426.6666666666667
709,232.53333333333333,-145.06666666666666,426.6666666666667
710,224.0,-125.86666666666666,416.0
711,232.53333333333333,-128.0,413.8666666666667
712,236.79999999999998,-110.93333333333334,407.46666666666664
713,230.4,-104.53333333333333,390.4
714,238.93333333333334,-98.13333333333333,381.8666666666667
715,262.4,-87.46666666666667,371.2
716,275.2,-93.86666666666666,343.46666666666664
717,285.8666666666667,-89.6,337.06666666666666
718,296.5333333333333,-91.73333333333333,317.8666666666667
719,305.06666666666666,-85.33333333333333,307.2
720,315.73333333333335,-76.8,294.4
721,324.26666666666665,-68.26666666666667,294.4
722,330.6666666666667,-70.4,281.6
723,320.0,-55.46666666666667,268.8
724,343.46666666666664,-59.733333333333334,268.8
725,356.26666666666665,-55.46666666666667,258.1333333333333
726,360.5333333333333,-51.2,270.93333333333334
727,366.93333333333334,-53.333333333333336,258.1333333333333
728,371.2,-49.06666666666666,253.86666666666667
729,371.2,-53.333333333333336,247.46666666666667
730,377.6,-55.46666666666667,238.93333333333334
731,373.3333333333333,-66.13333333333333,230.4
732,373.3333333333333,-59.733333333333334,234.66666666666666
733,377.6,-68.26666666666667,234.66666666666666
734,384.0,-72.53333333333333,249.6
735,379.73333333333335,-76.8,243.2
736,388.26666666666665,-78.93333333333334,247.46666666666667
737,392.5333333333333,-81.06666666666666,249.6
738,403.2,-91.73333333333333,247.46666666666667
739,401.06666666666666,-87.46666666666667,245.33333333333334
740,407.46666666666664,-93.86666666666666,251.73333333333332
741,405.3333333333333,-96.0,245.33333333333334
742,409.6,-96.0,243.2
743,413.8666666666667,-93.86666666666666,243.2
744,420.26666666666665,-104.53333333333333,228.26666666666665
745,418.1333333333333,-96.0,224.0
746,420.26666666666665,-96.0,202.66666666666666
747,418.1333333333333,-87.46666666666667,187.73333333333332
748,418.1333333333333,-76.8,174.93333333333334
749,420.26666666666665,-70.4,166.4
750,413.8666666666667,-68.26666666666667,151.46666666666667
751,422.4,-64.0,151.46666666666667
752,435.2,-66.13333333333333,151.46666666666667
753,435.2,-66.13333333333333,147.2
754,435.2,-61.86666666666667,153.6
755,439.46666666666664,-72.53333333333333,113.06666666666666
756,443.73333333333335,-68.26666666666667,117.33333333333333
757,445.8666666666667,-66.13333333333333,115.2
758,445.8666666666667,-61.86666666666667,91.73333333333333
759,458.6666666666667,-68.26666666666667,89.6
760,462.93333333333334,-66.13333333333333,87.46666666666667
761,469.3333333333333,-68.26666666666667,87.46666666666667
762,460.8,-74.66666666666667,81.06666666666666
763,473.59999999999997,-83.2,87.46666666666667
764,484.26666666666665,-89.6,74.66666666666667
765,482.1333333333333,-74.66666666666667,93.86666666666666
766,480.0,-85.33333333333333,64.0
767,486.4,-81.06666666666666,57.6
768,497.06666666666666,-93.86666666666666,64.0
769,505.59999999999997,-98.13333333333333,61.86666666666667
770,507.73333333333335,-93.86666666666666,44.8
771,512.0,-98.13333333333333,29.866666666666667
772,522.6666666666666,-98.13333333333333,34.13333333333333
773,529.0666666666666,-104.53333333333333,38.4
774,541.8666666666667,-106.66666666666667,36.266666666666666
775,554.6666666666666,-121.6,42.666666666666664
776,558.9333333333333,-117.33333333333333,53.333333333333336
777,567.4666666666667,-115.2,51.2
778,571.7333333333333,-110.93333333333334,59.733333333333334
779,595.2,-108.8,68.26666666666667
780,620.8,-108.8,61.86666666666667
781,642.1333333333333,-110.93333333333334,78.93333333333334
782,672.0,-113.06666666666666,85.33333333333333
783,695.4666666666667,-123.73333333333333,91.73333333333333
784,718.9333333333333,-123.73333333333333,100.26666666666667
785,736.0,-130.13333333333333,91.73333333333333
786,761.6,-142.93333333333334,100.26666666666667
787,782.9333333333333,-134.4,108.8
788,797.8666666666667,-136.53333333333333,100.26666666666667
789,800.0,-138.66666666666666,98.13333333333333
790,782.9333333333333,-138.66666666666666,98.13333333333333
791,750.9333333333333,-130.13333333333333,64.0
792,714.6666666666666,-123.73333333333333,27.733333333333334
793,684.8,-121.6,2.1333333333333333
794,672.0,-113.06666666666666,-4.266666666666667
795,648.5333333333333,-115.2,-46.93333333333333
796,629.3333333333334,-106.66666666666667,-68.26666666666667
797,614.4,-117.33333333333333,-85.33333333333333
798,597.3333333333334,-100.26666666666667,-98.13333333333333
799,593.0666666666666,-96.0,-113.06666666666666
800,571.7333333333333,-83.2,-132.26666666666665
801,556.8,-70.4,-128.0
802,548.2666666666667,-64.0,-134.4
803,546.1333333333333,-55.46666666666667,-134.4
804,539.7333333333333,-46.93333333333333,-130.13333333333333
805,546.1333333333333,-40.53333333333333,-121.6
806,546.1333333333333,-25.6,-117.33333333333333
807,537.6,-6.4,-121.6
808,552.5333333333333,-2.1333333333333333,-128.0
809,556.8,2.1333333333333333,-136.53333333333333
810,561.0666666666666,6.4,-142.93333333333334
811,580.2666666666667,14.933333333333334,-155.73333333333332
812,588.8,25.6,-160.0
813,612.2666666666667,27.733333333333334,-166.4
814,631.4666666666667,34.13333333333333,-174.93333333333334
815,648.5333333333333,40.53333333333333,-183.46666666666667
816,654.9333333333333,49.06666666666666,-189.86666666666667
817,659.2,53.333333333333336,-189.86666666666667
818,669.8666666666667,51.2,-194.13333333333333
819,665.6,55.46666666666667,-211.2
820,678.4,46.93333333333333,-204.8
821,672.0,46.93333333333333,-221.86666666666667
822,676.2666666666667,46.93333333333333,-226.13333333333333
823,676.2666666666667,42.666666666666664,-236.79999999999998
824,678.4,42.666666666666664,-241.06666666666666
825,680.5333333333333,27.733333333333334,-253.86666666666667
826,674.1333333333333,27.733333333333334,-243.2
827,676.2666666666667,27.733333333333334,-241.06666666666666
828,682.6666666666666,17.066666666666666,-234.66666666666666
829,676.2666666666667,10.666666666666666,-234.66666666666666
830,659.2,8.533333333333333,-221.86666666666667
831,650.6666666666666,2.1333333333333333,-211.2
832,648.5333333333333,0.0,-196.26666666666665
833,654.9333333333333,0.0,-200.53333333333333
834,650.6666666666666,-12.8,-200.53333333333333
835,644.2666666666667,-14.933333333333334,-194.13333333333333
836,640.0,-19.2,-189.86666666666667
837,629.3333333333334,-19.2,-189.86666666666667
838,637.8666666666667,-29.866666666666667,-177.06666666666666
839,627.2,-25.6,-179.2
840,618.6666666666666,-34.13333333333333,-177.06666666666666
841,610.1333333333333,-36.266666666666666,-166.4
842,599.4666666666667,-38.4,-174.93333333333334
843,586.6666666666666,-34.13333333333333,-168.53333333333333
844,590.9333333333333,-40.53333333333333,-170.66666666666666
845,595.2,-34.13333333333333,-170.66666666666666
846,593.0666666666666,-38.4,-168.53333333333333
847,595.2,-34.13333333333333,-174.93333333333334
848,605.8666666666667,-36.266666666666666,-181.33333333333334
849,599.4666666666667,-34.13333333333333,-168.53333333333333
850,614.4,-38.4,-166.4
851,608.0,-49.06666666666666,-168.53333333333333
852,610.1333333333333,-23.466666666666665,-181.33333333333334
853,610.1333333333333,-27.733333333333334,-170.66666666666666
854,614.4,-19.2,-185.6
855,625.0666666666666,-10.666666666666666,-181.33333333333334
856,633.6,-6.4,-187.73333333333332
857,640.0,2.1333333333333333,-192.0
858,644.2666666666667,8.533333333333333,-194.13333333333333
859,646.4,19.2,-198.4
860,644.2666666666667,17.066666666666666,-198.4
861,644.2666666666667,27.733333333333334,-194.13333333333333
862,633.6,27.733333333333334,-206.93333333333334
863,644.2666666666667,29.866666666666667,-211.2
864,631.4666666666667,34.13333333333333,-204.8
865,631.4666666666667,23.466666666666665,-206.93333333333334
866,622.9333333333333,21.333333333333332,-215.46666666666667
867,618.6666666666666,25.6,-204.8
868,614.4,17.066666666666666,-209.06666666666666
869,612.2666666666667,21.333333333333332,-204.8
870,595.2,17.066666666666666,-198.4
871,590.9333333333333,10.666666666666666,-211.2
872,586.6666666666666,21.333333333333332,-213.33333333333334
873,578.1333333333333,21.333333333333332,-219.73333333333332
874,580.2666666666667,17.066666666666666,-211.2
875,576.0,14.933333333333334,-211.2
876,580.2666666666667,10.666666666666666,-209.06666666666666
877,586.6666666666666,14.933333333333334,-204.8
878,588.8,12.8,-206.93333333333334
879,593.0666666666666,8.533333333333333,-204.8
880,595.2,8.533333333333333,-202.66666666666666
881,612.2666666666667,6.4,-204.8
882,614.4,6.4,-198.4
883,618.6666666666666,-2.1333333333333333,-196.26666666666665
884,612.2666666666667,8.533333333333333,-226.13333333333333
885,627.2,0.0,-192.0
886,629.3333333333334,-2.1333333333333333,-179.2
887,635.7333333333333,-8.533333333333333,-177.06666666666666
888,633.6,-2.1333333333333333,-179.2
889,635.7333333333333,0.0,-192.0
890,629.3333333333334,-4.266666666666667,-189.86666666666667
891,625.0666666666666,6.4,-181.33333333333334
892,625.0666666666666,2.1333333333333333,-181.33333333333334
893,627.2,-10.666666666666666,-183.46666666666667
894,622.9333333333333,-17.066666666666666,-185.6
895,622.9333333333333,-8.533333333333333,-189.86666666666667
896,608.0,-23.466666666666665,-183.46666666666667
897,605.8666666666667,-27.733333333333334,-179.2
898,599.4666666666667,-34.13333333333333,-179.2
899,588.8,-34.13333333333333,-172.8
900,590.9333333333333,-44.8,-168.53333333333333
901,593.0666666666666,-40.53333333333333,-170.66666666666666
902,586.6666666666666,-46.93333333333333,-166.4
903,595.2,-49.06666666666666,-179.2
904,595.2,-42.666666666666664,-164.26666666666665
905,595.2,-36.266666666666666,-166.4
906,605.8666666666667,-42.666666666666664,-151.46666666666667
907,599.4666666666667,-38.4,-162.13333333333333
908,593.0666666666666,-36.266666666666666,-166.4
909,588.8,-40.53333333333333,-166.4
910,599.4666666666667,-32.0,-166.4
911,595.2,-34.13333333333333,-166.4
912,586.6666666666666,-32.0,-155.73333333333332
913,588.8,-34.13333333333333,-162.13333333333333
914,588.8,-32.0,-160.0
915,582.4,-27.733333333333334,-147.2
916,590.9333333333333,-17.066666666666666,-151.46666666666667
917,580.2666666666667,-25.6,-149.33333333333334
918,582.4,-14.933333333333334,-147.2
919,580.2666666666667,-17.066666666666666,-140.8
920,584.5333333333333,-17.066666666666666,-145.06666666666666
921,582.4,-8.533333333333333,-136.53333333333333
922,582.4,-10.666666666666666,-145.06666666666666
923,578.1333333333333,-14.933333333333334,-145.06666666666666
924,584.5333333333333,-12.8,-147.2
925,578.1333333333333,-8.533333333333333,-151.46666666666667
926,584.5333333333333,-10.666666666666666,-157.86666666666667
927,586.6666666666666,-6.4,-145.06666666666666
928,586.6666666666666,-17.066666666666666,-155.73333333333332
929,588.8,-21.333333333333332,-157.86666666666667
930,588.8,-21.333333333333332,-162.13333333333333
931,588.8,-23.466666666666665,-162.13333333333333
932,586.6666666666666,-27.733333333333334,-170.66666666666666
933,588.8,-32.0,-162.13333333333333
934,590.9333333333333,-29.866666666666667,-162.13333333333333
935,584.5333333333333,-27.733333333333334,-166.4
936,578.1333333333333,-25.6,-153.6
937,584.5333333333333,-25.6,-168.53333333333333
938,582.4,-23.466666666666665,-162.13333333333333
939,590.9333333333333,-25.6,-151.46666666666667
940,595.2,-12.8,-155.73333333333332
941,595.2,-21.333333333333332,-155.73333333333332
942,597.3333333333334,-10.666666666666666,-162.13333333333333
943,595.2,-14.933333333333334,-164.26666666666665
944,597.3333333333334,-8.533333333333333,-153.6
945,599.4666666666667,-14.933333333333334,-162.13333333333333
946,610.1333333333333,-21.333333333333332,-155.73333333333332
947,608.0,-17.066666666666666,-166.4
948,608.0,-19.2,-164.26666666666665
949,616.5333333333333,-17.066666666666666,-168.53333333333333
950,625.0666666666666,-19.2,-164.26666666666665
951,610.1333333333333,-10.666666666666666,-174.93333333333334
952,614.4,-12.8,-181.33333333333334
953,608.0,-12.8,-183.46666666666667
954,610.1333333333333,-6.4,-185.6
955,618.6666666666666,-14.933333333333334,-179.2
956,612.2666666666667,-21.333333333333332,-192.0
957,610.1333333333333,-17.066666666666666,-183.46666666666667
958,612.2666666666667,-27.733333333333334,-196.26666666666665
959,608.0,-25.6,-196.26666666666665
960,605.8666666666667,-32.0,-183.46666666666667
961,603.7333333333333,-27.733333333333334,-202.66666666666666
962,597.3333333333334,-34.13333333333333,-200.53333333333333
963,597.3333333333334,-38.4,-194.13333333333333
964,588.8,-38.4,-194.13333333333333
965,590.9333333333333,-44.8,-189.86666666666667
966,582.4,-40.53333333333333,-192.0
967,586.6666666666666,-42.666666666666664,-200.53333333333333
968,584.5333333333333,-38.4,-194.13333333333333
969,578.1333333333333,-36.266666666666666,-187.73333333333332
970,578.1333333333333,-34.13333333333333,-181.33333333333334
971,588.8,-36.266666666666666,-172.8
972,588.8,-32.0,-194.13333333333333
973,590.9333333333333,-29.866666666666667,-185.6
974,593.0666666666666,-29.866666666666667,-196.26666666666665
975,601.6,-34.13333333333333,-194.13333333333333
976,605.8666666666667,-27.733333333333334,-183.46666666666667
977,608.0,-27.733333333333334,-196.26666666666665
978,612.2666666666667,-23.466666666666665,-185.6
979,618.6666666666666,-21.333333333333332,-187.73333333333332
980,614.4,-25.6,-192.0
981,620.8,-19.2,-185.6
982,618.6666666666666,-14.933333333333334,-189.86666666666667
983,625.0666666666666,-23.466666666666665,-181.33333333333334
984,625.0666666666666,-29.866666666666667,-187.73333333333332
985,629.3333333333334,-29.866666666666667,-181.33333333333334
986,616.5333333333333,-27.733333333333334,-179.2
987,625.0666666666666,-27.733333333333334,-179.2
988,629.3333333333334,-36.266666666666666,-179.2
989,627.2,-29.866666666666667,-174.93333333333334
990,618.6666666666666,-34.13333333333333,-177.06666666666666
991,612.2666666666667,-23.466666666666665,-179.2
992,614.4,-34.13333333333333,-174.93333333333334
993,625.0666666666666,-29.866666666666667,-177.06666666666666
994,622.9333333333333,-25.6,-185.6
995,627.2,-29.866666666666667,-189.86666666666667
996,646.4,-23.466666666666665,-187.73333333333332
997,616.5333333333333,-32.0,-181.33333333333334
998,563.2,-36.266666666666666,-168.53333333333333
999,565.3333333333334,-32.0,-151.46666666666667
1000,576.0,-25.6,-162.13333333333333
1001,584.5333333333333,-27.733333333333334,-162.13333333333333
1002,584.5333333333333,-23.466666666666665,-162.13333333333333
1003,584.5333333333333,-29.866666666666667,-157.86666666666667
1004,580.2666666666667,-27.733333333333334,-157.86666666666667
1005,578.1333333333333,-27.733333333333334,-164.26666666666665
1006,582.4,-25.6,-162.13333333333333
1007,586.6666666666666,-27.733333333333334,-157.86666666666667
1008,582.4,-23.466666666666665,-157.86666666666667
1009,582.4,-21.333333333333332,-142.93333333333334
1010,586.6666666666666,-17.066666666666666,-149.33333333333334
1011,582.4,-23.466666666666665,-140.8
1012,590.9333333333333,-34.13333333333333,-145.06666666666666
1013,595.2,-29.866666666666667,-145.06666666666666
1014,599.4666666666667,-29.866666666666667,-136.53333333333333
1015,610.1333333333333,-36.266666666666666,-140.8
1016,603.7333333333333,-34.13333333333333,-142.93333333333334
1017,608.0,-36.266666666666666,-132.26666666666665
1018,601.6,-38.4,-138.66666666666666
1019,605.8666666666667,-36.266666666666666,-134.4
1020,605.8666666666667,-38.4,-134.4
1021,605.8666666666667,-32.0,-128.0
1022,610.1333333333333,-38.4,-128.0
1023,612.2666666666667,-34.13333333333333,-123.73333333333333
1024,605.8666666666667,-25.6,-130.13333333333333
1025,599.4666666666667,-29.866666666666667,-128.0
1026,593.0666666666666,-32.0,-115.2
1027,608.0,-32.0,-117.33333333333333
1028,601.6,-29.866666666666667,-115.2
1029,599.4666666666667,-29.866666666666667,-113.06666666666666
1030,599.4666666666667,-32.0,-106.66666666666667
1031,603.7333333333333,-38.4,-113.06666666666666
1032,590.9333333333333,-32.0,-119.46666666666667
1033,590.9333333333333,-40.53333333333333,-102.4
1034,584.5333333333333,-42.666666666666664,-106.66666666666667
1035,584.5333333333333,-42.666666666666664,-108.8
1036,590.9333333333333,-38.4,-98.13333333333333
1037,590.9333333333333,-44.8,-93.86666666666666
1038,580.2666666666667,-44.8,-98.13333333333333
1039,586.6666666666666,-42.666666666666664,-91.73333333333333
1040,571.7333333333333,-40.53333333333333,-87.46666666666667
1041,582.4,-49.06666666666666,-83.2
1042,573.8666666666667,-46.93333333333333,-78.93333333333334
1043,580.2666666666667,-51.2,-78.93333333333334
1044,580.2666666666667,-49.06666666666666,-81.06666666666666
1045,580.2666666666667,-55.46666666666667,-87.46666666666667
1046,582.4,-61.86666666666667,-85.33333333333333
1047,580.2666666666667,-46.93333333333333,-78.93333333333334
1048,584.5333333333333,-57.6,-76.8
1049,586.6666666666666,-55.46666666666667,-81.06666666666666
1050,590.9333333333333,-59.733333333333334,-81.06666666666666
1051,584.5333333333333,-49.06666666666666,-76.8
1052,593.0666666666666,-51.2,-78.93333333333334
1053,590.9333333333333,-57.6,-72.53333333333333
1054,590.9333333333333,-57.6,-72.53333333333333
1055,588.8,-53.333333333333336,-83.2
1056,590.9333333333333,-53.333333333333336,-76.8
1057,584.5333333333333,-51.2,-89.6
1058,584.5333333333333,-64.0,-85.33333333333333
1059,597.3333333333334,-61.86666666666667,-78.93333333333334
1060,593.0666666666666,-64.0,-81.06666666666666
1061,595.2,-68.26666666666667,-76.8
1062,586.6666666666666,-66.13333333333333,-70.4
1063,586.6666666666666,-57.6,-66.13333333333333
1064,586.6666666666666,-66.13333333333333,-70.4
1065,578.1333333333333,-64.0,-61.86666666666667
1066,590.9333333333333,-66.13333333333333,-64.0
1067,584.5333333333333,-66.13333333333333,-64.0
1068,580.2666666666667,-70.4,-70.4
1069,595.2,-66.13333333333333,-78.93333333333334
1070,578.1333333333333,-61.86666666666667,-53.333333333333336
1071,582.4,-66.13333333333333,-64.0
1072,582.4,-61.86666666666667,-59.733333333333334
1073,580.2666666666667,-59.733333333333334,-57.6
1074,578.1333333333333,-55.46666666666667,-53.333333333333336
1075,584.5333333333333,-55.46666666666667,-57.6
1076,584.5333333333333,-61.86666666666667,-49.06666666666666
1077,584.5333333333333,-49.06666666666666,-53.333333333333336
1078,586.6666666666666,-40.53333333333333,-61.86666666666667
1079,582.4,-32.0,-68.26666666666667
1080,593.0666666666666,-25.6,-68.26666666666667
1081,599.4666666666667,-32.0,-72.53333333333333
1082,599.4666666666667,-32.0,-68.26666666666667
1083,601.6,-46.93333333333333,-78.93333333333334
1084,597.3333333333334,-46.93333333333333,-81.06666666666666
1085,599.4666666666667,-46.93333333333333,-74.66666666666667
1086,593.0666666666666,-53.333333333333336,-83.2
1087,582.4,-49.06666666666666,-83.2
1088,590.9333333333333,-70.4,-76.8
1089,584.5333333333333,-68.26666666666667,-81.06666666666666
1090,584.5333333333333,-72.53333333333333,-78.93333333333334
1091,590.9333333333333,-70.4,-51.2
1092,582.4,-76.8,-81.06666666666666
1093,578.1333333333333,-78.93333333333334,-72.53333333333333
1094,571.7333333333333,-72.53333333333333,-72.53333333333333
1095,578.1333333333333,-76.8,-72.53333333333333
1096,573.8666666666667,-74.66666666666667,-72.53333333333333
1097,582.4,-72.53333333333333,-81.06666666666666
1098,588.8,-68.26666666666667,-72.53333333333333
1099,588.8,-70.4,-85.33333333333333
1100,593.0666666666666,-55.46666666666667,-89.6
1101,599.4666666666667,-51.2,-83.2
1102,590.9333333333333,-46.93333333333333,-89.6
1103,608.0,-46.93333333333333,-91.73333333333333
1104,605.8666666666667,-51.2,-102.4
1105,610.1333333333333,-44.8,-93.86666666666666
1106,618.6666666666666,-53.333333333333336,-96.0
1107,618.6666666666666,-49.06666666666666,-100.26666666666667
1108,620.8,-55.46666666666667,-93.86666666666666
1109,629.3333333333334,-55.46666666666667,-96.0
1110,631.4666666666667,-64.0,-93.86666666666666
1111,631.4666666666667,-57.6,-100.26666666666667
1112,627.2,-61.86666666666667,-91.73333333333333
1113,629.3333333333334,-64.0,-91.73333333333333
1114,627.2,-66.13333333333333,-96.0
1115,629.3333333333334,-68.26666666666667,-93.86666666666666
1116,627.2,-59.733333333333334,-96.0
1117,629.3333333333334,-70.4,-91.73333333333333
1118,620.8,-64.0,-100.26666666666667
1119,622.9333333333333,-64.0,-96.0
1120,618.6666666666666,-66.13333333333333,-91.73333333333333
1121,622.9333333333333,-61.86666666666667,-93.86666666666666
1122,616.5333333333333,-66.13333333333333,-100.26666666666667
1123,625.0666666666666,-72.53333333333333,-96.0
1124,610.1333333333333,-57.6,-98.13333333333333
1125,614.4,-59.733333333333334,-102.4
1126,608.0,-57.6,-110.93333333333334
1127,608.0,-55.46666666666667,-106.66666666666667
1128,603.7333333333333,-57.6,-119.46666666666667
1129,605.8666666666667,-53.333333333333336,-113.06666666666666
1130,605.8666666666667,-46.93333333333333,-106.66666666666667
1131,597.3333333333334,-40.53333333333333,-108.8
1132,599.4666666666667,-40.53333333333333,-113.06666666666666
1133,608.0,-40.53333333333333,-113.06666666666666
1134,601.6,-42.666666666666664,-121.6
1135,597.3333333333334,-36.266666666666666,-108.8
1136,597.3333333333334,-36.266666666666666,-110.93333333333334
1137,597.3333333333334,-40.53333333333333,-110.93333333333334
1138,597.3333333333334,-40.53333333333333,-110.93333333333334
1139,601.6,-44.8,-106.66666666666667
1140,595.2,-42.666666666666664,-96.0
1141,599.4666666666667,-49.06666666666666,-102.4
1142,608.0,-51.2,-100.26666666666667
1143,597.3333333333334,-46.93333333333333,-115.2
1144,601.6,-42.666666666666664,-102.4
1145,608.0,-42.666666666666664,-91.73333333333333
1146,614.4,-57.6,-93.86666666666666
1147,608.0,-36.266666666666666,-98.13333333333333
1148,605.8666666666667,-38.4,-89.6
1149,610.1333333333333,-38.4,-93.86666666666666
1150,608.0,-36.266666666666666,-104.53333333333333
1151,603.7333333333333,-34.13333333333333,-98.13333333333333
1152,610.1333333333333,-40.53333333333333,-98.13333333333333
1153,610.1333333333333,-42.666666666666664,-100.26666666666667
1154,603.7333333333333,-38.4,-100.26666666666667
1155,597.3333333333334,-42.666666666666664,-102.4
1156,590.9333333333333,-36.266666666666666,-96.0
1157,603.7333333333333,-51.2,-115.2
1158,597.3333333333334,-44.8,-110.93333333333334
1159,593.0666666666666,-44.8,-115.2
1160,588.8,-49.06666666666666,-115.2
1161,586.6666666666666,-51.2,-110.93333333333334
1162,586.6666666666666,-51.2,-110.93333333333334
1163,584.5333333333333,-46.93333333333333,-110.93333333333334
1164,582.4,-44.8,-110.93333333333334
1165,584.5333333333333,-49.06666666666666,-106.66666666666667
1166,586.6666666666666,-44.8,-123.73333333333333
1167,588.8,-53.333333333333336,-117.33333333333333
1168,593.0666666666666,-49.06666666666666,-117.33333333333333
1169,595.2,-49.06666666666666,-108.8
1170,597.3333333333334,-49.06666666666666,-117.33333333333333
1171,595.2,-51.2,-113.06666666666666
1172,599.4666666666667,-49.06666666666666,-113.06666666666666
1173,601.6,-51.2,-115.2
1174,597.3333333333334,-51.2,-119.46666666666667
1175,608.0,-42.666666666666664,-117.33333333333333
1176,610.1333333333333,-44.8,-121.6
1177,601.6,-42.666666666666664,-125.86666666666666
1178,601.6,-40.53333333333333,-149.33333333333334
1179,610.1333333333333,-38.4,-134.4
1180,603.7333333333333,-32.0,-142.93333333333334
1181,601.6,-32.0,-140.8
1182,597.3333333333334,-32.0,-145.06666666666666
1183,601.6,-34.13333333333333,-151.46666666666667
1184,599.4666666666667,-32.0,-157.86666666666667
1185,593.0666666666666,-29.866666666666667,-151.46666666666667
1186,590.9333333333333,-23.466666666666665,-155.73333333333332
1187,593.0666666666666,-32.0,-155.73333333333332
1188,595.2,-34.13333333333333,-177.06666666666666
1189,584.5333333333333,-29.866666666666667,-166.4
1190,584.5333333333333,-29.866666666666667,-166.4
1191,582.4,-17.066666666666666,-172.8
1192,586.6666666666666,-21.333333333333332,-168.53333333333333
1193,582.4,-23.466666666666665,-166.4
1194,593.0666666666666,-25.6,-166.4
1195,593.0666666666666,-21.333333333333332,-168.53333333333333
1196,588.8,-19.2,-160.0
1197,590.9333333333333,-17.066666666666666,-160.0
1198,599.4666666666667,-21.333333333333332,-155.73333333333332
1199,595.2,-23.466666666666665,-153.6
1200,593.0666666666666,-19.2,-157.86666666666667
1201,605.8666666666667,-21.333333333333332,-140.8
1202,599.4666666666667,-27.733333333333334,-142.93333333333334
1203,608.0,-19.2,-142.93333333333334
1204,605.8666666666667,-21.333333333333332,-138.66666666666666
1205,610.1333333333333,-23.466666666666665,-149.33333333333334
1206,610.1333333333333,-23.466666666666665,-138.66666666666666
1207,610.1333333333333,-23.466666666666665,-132.26666666666665
1208,612.2666666666667,-17.066666666666666,-138.66666666666666
1209,612.2666666666667,-25.6,-138.66666666666666
1210,614.4,-19.2,-147.2
1211,605.8666666666667,-14.933333333333334,-164.26666666666665
1212,608.0,-6.4,-142.93333333333334
1213,612.2666666666667,-14.933333333333334,-153.6
1214,616.5333333333333,-17.066666666666666,-155.73333333333332
1215,616.5333333333333,-12.8,-160.0
1216,612.2666666666667,-14.933333333333334,-157.86666666666667
1217,610.1333333333333,-10.666666666666666,-157.86666666666667
1218,601.6,-10.666666666666666,-168.53333333333333
1219,610.1333333333333,-17.066666666666666,-164.26666666666665
1220,608.0,-8.533333333333333,-168.53333333333333
1221,614.4,-8.533333333333333,-181.33333333333334
1222,608.0,-2.1333333333333333,-181.33333333333334
1223,608.0,-12.8,-172.8
1224,614.4,-8.533333333333333,-168.53333333333333
1225,616.5333333333333,-8.533333333333333,-172.8
1226,608.0,-17.066666666666666,-177.06666666666666
1227,605.8666666666667,-10.666666666666666,-162.13333333333333
1228,601.6,-12.8,-162.13333333333333
1229,599.4666666666667,-14.933333333333334,-157.86666666666667
1230,597.3333333333334,-17.066666666666666,-164.26666666666665
1231,599.4666666666667,-14.933333333333334,-155.73333333333332
1232,593.0666666666666,-21.333333333333332,-157.86666666666667
1233,593.0666666666666,-23.466666666666665,-160.0
1234,597.3333333333334,-21.333333333333332,-155.73333333333332
1235,593.0666666666666,-23.466666666666665,-153.6
1236,586.6666666666666,-23.466666666666665,-157.86666666666667
1237,590.9333333333333,-23.466666666666665,-147.2
1238,590.9333333333333,-21.333333333333332,-147.2
1239,590.9333333333333,-21.333333333333332,-153.6
1240,582.4,-27.733333333333334,-140.8
1241,582.4,-25.6,-145.06666666666666
1242,582.4,-25.6,-151.46666666666667
1243,582.4,-29.866666666666667,-142.93333333333334
1244,578.1333333333333,-29.866666666666667,-157.86666666666667
1245,582.4,-23.466666666666665,-147.2
1246,584.5333333333333,-27.733333333333334,-140.8
1247,586.6666666666666,-36.266666666666666,-142.93333333333334
1248,590.9333333333333,-29.866666666666667,-142.93333333333334
1249,586.6666666666666,-25.6,-138.66666666666666
1250,595.2,-29.866666666666667,-142.93333333333334
1251,599.4666666666667,-29.866666666666667,-140.8
1252,597.3333333333334,-27.733333333333334,-138.66666666666666
1253,599.4666666666667,-25.6,-134.4
1254,605.8666666666667,-32.0,-142.93333333333334
1255,595.2,-19.2,-149.33333333333334
1256,597.3333333333334,-23.466666666666665,-136.53333333333333
1257,608.0,-19.2,-145.06666666666666
1258,608.0,-14.933333333333334,-147.2
1259,610.1333333333333,-19.2,-149.33333333333334
1260,601.6,-17.066666666666666,-151.46666666666667
1261,605.8666666666667,-21.333333333333332,-168.53333333333333
1262,610.1333333333333,-14.933333333333334,-162.13333333333333
1263,605.8666666666667,-14.933333333333334,-170.66666666666666
1264,608.0,-23.466666666666665,-168.53333333333333
1265,597.3333333333334,-17.066666666666666,-162.13333333333333
1266,599.4666666666667,-21.333333333333332,-155.73333333333332
1267,599.4666666666667,-29.866666666666667,-151.46666666666667
1268,595.2,-21.333333333333332,-155.73333333333332
1269,599.4666666666667,-23.466666666666665,-155.73333333333332
1270,599.4666666666667,-27.733333333333334,-142.93333333333334
1271,597.3333333333334,-23.466666666666665,-149.33333333333334
1272,603.7333333333333,-27.733333333333334,-149.33333333333334
1273,593.0666666666666,-21.333333333333332,-142.93333333333334
1274,593.0666666666666,-21.333333333333332,-147.2
1275,590.9333333333333,-27.733333333333334,-142.93333333333334
1276,595.2,-17.066666666666666,-153.6
1277,593.0666666666666,-23.466666666666665,-140.8
1278,586.6666666666666,-19.2,-149.33333333333334
1279,588.8,-27.733333333333334,-145.06666666666666
1280,590.9333333333333,-25.6,-140.8
1281,590.9333333333333,-27.733333333333334,-138.66666666666666
1282,599.4666666666667,-36.266666666666666,-138.66666666666666
1283,588.8,-27.733333333333334,-138.66666666666666
1284,593.0666666666666,-34.13333333333333,-138.66666666666666
1285,590.9333333333333,-21.333333333333332,-132.26666666666665
1286,593.0666666666666,-32.0,-142.93333333333334
1287,595.2,-23.466666666666665,-145.06666666666666
1288,586.6666666666666,-23.466666666666665,-136.53333333333333
1289,595.2,-19.2,-140.8
1290,599.4666666666667,-27.733333333333334,-142.93333333333334
1291,599.4666666666667,-21.333333333333332,-145.06666666666666
1292,597.3333333333334,-25.6,-145.06666666666666
1293,593.0666666666666,-25.6,-140.8
1294,595.2,-23.466666666666665,-145.06666666666666
1295,593.0666666666666,-17.066666666666666,-149.33333333333334
1296,593.0666666666666,-14.933333333333334,-147.2
1297,599.4666666666667,-21.333333333333332,-151.46666666666667
1298,620.8,-27.733333333333334,-153.6
1299,599.4666666666667,-21.333333333333332,-140.8
1300,599.4666666666667,-25.6,-153.6
1301,593.0666666666666,-14.933333333333334,-149.33333333333334
1302,599.4666666666667,-21.333333333333332,-147.2
1303,601.6,-23.466666666666665,-153.6
1304,608.0,-27.733333333333334,-142.93333333333334
1305,597.3333333333334,-19.2,-147.2
1306,608.0,-32.0,-149.33333333333334
1307,597.3333333333334,-27.733333333333334,-145.06666666666666
1308,599.4666666666667,-17.066666666666666,-142.93333333333334
1309,597.3333333333334,-19.2,-145.06666666666666
1310,597.3333333333334,-32.0,-140.8
1311,595.2,-19.2,-138.66666666666666
1312,597.3333333333334,-25.6,-138.66666666666666
1313,593.0666666666666,-21.333333333333332,-145.06666666666666
1314,597.3333333333334,-19.2,-138.66666666666666
1315,595.2,-17.066666666666666,-140.8
1316,588.8,-12.8,-140.8
1317,593.0666666666666,-14.933333333333334,-138.66666666666666
1318,588.8,-12.8,-151.46666666666667
1319,593.0666666666666,-19.2,-149.33333333333334
1320,593.0666666666666,-12.8,-140.8
1321,597.3333333333334,-19.2,-147.2
1322,597.3333333333334,-17.066666666666666,-138.66666666666666
1323,593.0666666666666,-21.333333333333332,-138.66666666666666
1324,595.2,-19.2,-147.2
1325,597.3333333333334,-10.666666666666666,-147.2
1326,601.6,-19.2,-151.46666666666667
1327,601.6,-19.2,-153.6
1328,608.0,-17.066666666666666,-170.66666666666666
1329,608.0,-21.333333333333332,-149.33333333333334
1330,603.7333333333333,-17.066666666666666,-155.73333333333332
1331,597.3333333333334,-10.666666666666666,-164.26666666666665
1332,603.7333333333333,-8.533333333333333,-157.86666666666667
1333,601.6,-14.933333333333334,-160.0
1334,599.4666666666667,-19.2,-149.33333333333334
1335,603.7333333333333,-17.066666666666666,-153.6
1336,593.0666666666666,-10.666666666666666,-157.86666666666667
1337,599.4666666666667,-10.666666666666666,-153.6
1338,599.4666666666667,-6.4,-149.33333333333334
1339,608.0,-14.933333333333334,-157.86666666666667
1340,601.6,-19.2,-151.46666666666667
1341,608.0,-21.333333333333332,-151.46666666666667
1342,595.2,-4.266666666666667,-155.73333333333332
1343,601.6,-12.8,-151.46666666666667
1344,597.3333333333334,-14.933333333333334,-155.73333333333332
1345,603.7333333333333,-12.8,-153.6
1346,603.7333333333333,-12.8,-149.33333333333334
1347,601.6,-10.666666666666666,-149.33333333333334
1348,599.4666666666667,-14.933333333333334,-153.6
1349,599.4666666666667,-23.466666666666665,-153.6
1350,599.4666666666667,-21.333333333333332,-147.2
1351,610.1333333333333,-19.2,-153.6
1352,603.7333333333333,-23.466666666666665,-147.2
1353,603.7333333333333,-6.4,-157.86666666666667
1354,597.3333333333334,-14.933333333333334,-153.6
1355,597.3333333333334,-6.4,-149.33333333333334
1356,599.4666666666667,-12.8,-160.0
1357,597.3333333333334,-12.8,-160.0
1358,599.4666666666667,-6.4,-151.46666666666667
1359,599.4666666666667,-8.533333333333333,-153.6
1360,593.0666666666666,-6.4,-147.2
1361,597.3333333333334,-10.666666666666666,-153.6
1362,599.4666666666667,-10.666666666666666,-160.0
1363,603.7333333333333,-10.666666666666666,-157.86666666666667
1364,603.7333333333333,-14.933333333333334,-162.13333333333333
1365,605.8666666666667,-12.8,-170.66666666666666
1366,597.3333333333334,-14.933333333333334,-162.13333333333333
1367,597.3333333333334,-12.8,-160.0
1368,599.4666666666667,-12.8,-164.26666666666665
1369,601.6,-6.4,-172.8
1370,599.4666666666667,-25.6,-157.86666666666667
1371,601.6,-21.333333333333332,-162.13333333333333
1372,599.4666666666667,-19.2,-155.73333333333332
1373,605.8666666666667,-19.2,-164.26666666666665
1374,610.1333333333333,-17.066666666666666,-168.53333333333333
1375,601.6,-6.4,-160.0
1376,603.7333333333333,-19.2,-157.86666666666667
1377,601.6,-12.8,-160.0
1378,608.0,-19.2,-157.86666666666667
1379,605.8666666666667,-17.066666666666666,-155.73333333333332
1380,603.7333333333333,-8.533333333333333,-162.13333333333333
1381,610.1333333333333,-17.066666666666666,-153.6
1382,603.7333333333333,-4.266666666666667,-153.6
1383,612.2666666666667,-10.666666666666666,-174.93333333333334
1384,603.7333333333333,-21.333333333333332,-157.86666666666667
1385,597.3333333333334,-19.2,-149.33333333333334
1386,603.7333333333333,-19.2,-153.6
1387,605.8666666666667,-19.2,-151.46666666666667
1388,601.6,-14.933333333333334,-155.73333333333332
1389,603.7333333333333,-14.933333333333334,-149.33333333333334
1390,605.8666666666667,-17.066666666666666,-153.6
1391,597.3333333333334,-17.066666666666666,-155.73333333333332
1392,599.4666666666667,-8.533333333333333,-151.46666666666667
1393,601.6,-19.2,-157.86666666666667
1394,597.3333333333334,-14.933333333333334,-153.6
1395,590.9333333333333,-17.066666666666666,-149.33333333333334
1396,597.3333333333334,-17.066666666666666,-157.86666666666667
1397,593.0666666666666,-14.933333333333334,-160.0
1398,590.9333333333333,-23.466666666666665,-151.46666666666667
1399,590.9333333333333,-14.933333333333334,-157.86666666666667
1400,599.4666666666667,-19.2,-162.13333333333333
1401,595.2,-19.2,-164.26666666666665
1402,595.2,-19.2,-170.66666666666666
1403,597.3333333333334,-14.933333333333334,-164.26666666666665
1404,595.2,-17.066666666666666,-157.86666666666667
1405,590.9333333333333,-8.533333333333333,-170.66666666666666
1406,593.0666666666666,-8.533333333333333,-172.8
1407,588.8,-10.666666666666666,-177.06666666666666
1408,599.4666666666667,-21.333333333333332,-177.06666666666666
1409,597.3333333333334,-21.333333333333332,-162.13333333333333
1410,593.0666666666666,-14.933333333333334,-164.26666666666665
1411,599.4666666666667,-14.933333333333334,-164.26666666666665
1412,599.4666666666667,-14.933333333333334,-168.53333333333333
1413,599.4666666666667,-19.2,-162.13333333333333
1414,597.3333333333334,-23.466666666666665,-157.86666666666667
1415,597.3333333333334,-23.466666666666665,-151.46666666666667
1416,597.3333333333334,-21.333333333333332,-149.33333333333334
1417,599.4666666666667,-29.866666666666667,-157.86666666666667
1418,605.8666666666667,-27.733333333333334,-164.26666666666665
1419,601.6,-25.6,-153.6
1420,601.6,-25.6,-149.33333333333334
1421,595.2,-21.333333333333332,-149.33333333333334
1422,597.3333333333334,-25.6,-160.0
1423,595.2,-23.466666666666665,-164.26666666666665
1424,595.2,-17.066666666666666,-157.86666666666667
1425,597.3333333333334,-19.2,-168.53333333333333
1426,588.8,-14.933333333333334,-160.0
1427,599.4666666666667,-29.866666666666667,-166.4
1428,597.3333333333334,-17.066666666666666,-166.4
1429,590.9333333333333,-21.333333333333332,-162.13333333333333
1430,595.2,-12.8,-166.4
1431,590.9333333333333,-17.066666666666666,-168.53333333333333
1432,590.9333333333333,-14.933333333333334,-162.13333333333333
1433,590.9333333333333,-19.2,-160.0
1434,593.0666666666666,-21.333333333333332,-164.26666666666665
1435,588.8,-17.066666666666666,-166.4
1436,597.3333333333334,-19.2,-162.13333333333333
1437,599.4666666666667,-27.733333333333334,-170.66666666666666
1438,597.3333333333334,-21.333333333333332,-168.53333333333333
1439,597.3333333333334,-23.466666666666665,-166.4
1440,605.8666666666667,-10.666666666666666,-168.53333333333333
1441,603.7333333333333,-21.333333333333332,-162.13333333333333
1442,603.7333333333333,-19.2,-166.4
1443,601.6,-17.066666666666666,-162.13333333333333
1444,599.4666666666667,-14.933333333333334,-164.26666666666665
1445,601.6,-14.933333333333334,-166.4
1446,603.7333333333333,-19.2,-168.53333333333333
1447,610.1333333333333,-23.466666666666665,-172.8
1448,603.7333333333333,-17.066666666666666,-162.13333333333333
1449,597.3333333333334,-19.2,-177.06666666666666
1450,601.6,-10.666666666666666,-181.33333333333334
1451,601.6,-25.6,-160.0
1452,599.4666666666667,-17.066666666666666,-162.13333333333333
1453,597.3333333333334,-14.933333333333334,-160.0
1454,597.3333333333334,-12.8,-153.6
1455,601.6,-17.066666666666666,-160.0
1456,599.4666666666667,-8.533333333333333,-160.0
1457,601.6,-10.666666666666666,-160.0
1458,590.9333333333333,-2.1333333333333333,-168.53333333333333
1459,603.7333333333333,-10.666666666666666,-160.0
1460,603.7333333333333,-8.533333333333333,-160.0
1461,590.9333333333333,-2.1333333333333333,-155.73333333333332
1462,599.4666666666667,-10.666666666666666,-164.26666666666665
1463,599.4666666666667,-10.666666666666666,-164.26666666666665
1464,603.7333333333333,-10.666666666666666,-168.53333333333333
1465,601.6,-14.933333333333334,-168.53333333333333
1466,597.3333333333334,-14.933333333333334,-170.66666666666666
1467,597.3333333333334,-6.4,-174.93333333333334
1468,593.0666666666666,-17.066666666666666,-172.8
1469,590.9333333333333,-10.666666666666666,-174.93333333333334
1470,590.9333333333333,-10.666666666666666,-177.06666666666666
1471,595.2,-6.4,-172.8
1472,599.4666666666667,-17.066666666666666,-179.2
1473,593.0666666666666,-17.066666666666666,-170.66666666666666
1474,599.4666666666667,-14.933333333333334,-179.2
1475,601.6,-14.933333333333334,-172.8
1476,597.3333333333334,-19.2,-172.8
1477,601.6,-19.2,-174.93333333333334
1478,597.3333333333334,-23.466666666666665,-172.8
1479,597.3333333333334,-12.8,-166.4
1480,603.7333333333333,-23.466666666666665,-172.8
1481,601.6,-23.466666666666665,-177.06666666666666
1482,608.0,-21.333333333333332,-172.8
1483,601.6,-17.066666666666666,-170.66666666666666
1484,616.5333333333333,-12.8,-172.8
1485,629.3333333333334,-25.6,-172.8
1486,612.2666666666667,-21.333333333333332,-177.06666666666666
1487,569.6,-14.933333333333334,-157.86666666666667
1488,558.9333333333333,-34.13333333333333,-166.4
1489,573.8666666666667,-25.6,-153.6
1490,584.5333333333333,-21.333333333333332,-174.93333333333334
1491,605.8666666666667,-10.666666666666666,-160.0
1492,612.2666666666667,-2.1333333333333333,-134.4
1493,590.9333333333333,-25.6,-155.73333333333332
1494,588.8,-4.266666666666667,-162.13333333333333
1495,603.7333333333333,-21.333333333333332,-155.73333333333332
1496,599.4666666666667,-27.733333333333334,-172.8
1497,582.4,-12.8,-179.2
1498,588.8,-14.933333333333334,-138.66666666666666
1499,605.8666666666667,-14.933333333333334,-162.13333333333333
1500,597.3333333333334,-23.466666666666665,-164.26666666666665
1501,588.8,-10.666666666666666,-170.66666666666666
1502,584.5333333333333,-19.2,-162.13333333333333
1503,595.2,-17.066666666666666,-196.26666666666665
1504,569.6,-29.866666666666667,-174.93333333333334
1505,586.6666666666666,-12.8,-162.13333333333333
1506,601.6,-32.0,-168.53333333333333
1507,586.6666666666666,-17.066666666666666,-160.0
1508,580.2666666666667,-19.2,-172.8
1509,595.2,-6.4,-166.4
1510,586.6666666666666,-34.13333333333333,-185.6
1511,622.9333333333333,-21.333333333333332,-151.46666666666667
1512,595.2,-21.333333333333332,-166.4
1513,588.8,-12.8,-157.86666666666667
1514,595.2,-10.666666666666666,-164.26666666666665
1515,599.4666666666667,-14.933333333333334,-160.0
1516,590.9333333333333,-14.933333333333334,-160.0
1517,593.0666666666666,-4.266666666666667,-166.4
1518,599.4666666666667,-17.066666666666666,-157.86666666666667
1519,599.4666666666667,-10.666666666666666,-164.26666666666665
1520,601.6,-14.933333333333334,-160.0
1521,593.0666666666666,-19.2,-155.73333333333332
1522,601.6,-17.066666666666666,-153.6
1523,597.3333333333334,-10.666666666666666,-160.0
1524,603.7333333333333,-19.2,-172.8
1525,599.4666666666667,-12.8,-157.86666666666667
1526,599.4666666666667,-10.666666666666666,-187.73333333333332
1527,599.4666666666667,-17.066666666666666,-172.8
1528,610.1333333333333,-19.2,-174.93333333333334
1529,597.3333333333334,-14.933333333333334,-181.33333333333334
1530,605.8666666666667,-6.4,-168.53333333333333
1531,599.4666666666667,-21.333333333333332,-177.06666666666666
1532,601.6,-21.333333333333332,-170.66666666666666
1533,595.2,-17.066666666666666,-172.8
1534,595.2,-12.8,-168.53333333333333
1535,595.2,-21.333333333333332,-179.2
1536,595.2,-17.066666666666666,-170.66666666666666
1537,593.0666666666666,-14.933333333333334,-170.66666666666666
1538,599.4666666666667,-23.466666666666665,-189.86666666666667
1539,593.0666666666666,-12.8,-168.53333333333333
1540,595.2,-21.333333333333332,-177.06666666666666
1541,593.0666666666666,-19.2,-172.8
1542,588.8,-14.933333333333334,-162.13333333333333
1543,601.6,-17.066666666666666,-164.26666666666665
1544,595.2,-19.2,-162.13333333333333
1545,595.2,-19.2,-170.66666666666666
1546,590.9333333333333,-14.933333333333334,-162.13333333333333
1547,595.2,-10.666666666666666,-166.4
1548,590.9333333333333,-23.466666666666665,-160.0
1549,605.8666666666667,-8.533333333333333,-170.66666666666666
1550,595.2,-14.933333333333334,-157.86666666666667
1551,597.3333333333334,-17.066666666666666,-164.26666666666665
1552,590.9333333333333,-17.066666666666666,-157.86666666666667
1553,597.3333333333334,-23.466666666666665,-160.0
1554,595.2,-17.066666666666666,-153.6
1555,599.4666666666667,-14.933333333333334,-153.6
1556,595.2,-19.2,-168.53333333333333
1557,595.2,-17.066666666666666,-149.33333333333334
1558,603.7333333333333,-25.6,-166.4
1559,603.7333333333333,-25.6,-157.86666666666667
1560,595.2,-25.6,-179.2
1561,605.8666666666667,-23.466666666666665,-170.66666666666666
1562,599.4666666666667,-21.333333333333332,-160.0
1563,601.6,-21.333333333333332,-166.4
1564,603.7333333333333,-25.6,-166.4
1565,595.2,-21.333333333333332,-166.4
1566,595.2,-29.866666666666667,-168.53333333333333
1567,601.6,-21.333333333333332,-168.53333333333333
1568,595.2,-19.2,-166.4
1569,590.9333333333333,-27.733333333333334,-172.8
1570,593.0666666666666,-10.666666666666666,-160.0
1571,597.3333333333334,-21.333333333333332,-164.26666666666665
1572,595.2,-19.2,-164.26666666666665
1573,595.2,-19.2,-170.66666666666666
1574,601.6,-23.466666666666665,-164.26666666666665
1575,590.9333333333333,-27.733333333333334,-166.4
1576,593.0666666666666,-19.2,-160.0
1577,590.9333333333333,-17.066666666666666,-170.66666666666666
1578,588.8,-21.333333333333332,-162.13333333333333
1579,590.9333333333333,-14.933333333333334,-172.8
1580,582.4,-19.2,-149.33333333333334
1581,595.2,-29.866666666666667,-160.0
1582,597.3333333333334,-21.333333333333332,-164.26666666666665
1583,590.9333333333333,-17.066666666666666,-166.4
1584,593.0666666666666,-21.333333333333332,-164.26666666666665
1585,595.2,-19.2,-168.53333333333333
1586,595.2,-17.066666666666666,-164.26666666666665
1587,599.4666666666667,-21.333333333333332,-162.13333333333333
1588,597.3333333333334,-21.333333333333332,-166.4
1589,597.3333333333334,-19.2,-168.53333333333333
1590,597.3333333333334,-19.2,-172.8
1591,601.6,-21.333333333333332,-166.4
1592,593.0666666666666,-12.8,-177.06666666666666
1593,605.8666666666667,-23.466666666666665,-172.8
1594,597.3333333333334,-17.066666666666666,-166.4
1595,601.6,-23.466666666666665,-177.06666666666666
1596,608.0,-21.333333333333332,-170.66666666666666
1597,612.2666666666667,-19.2,-174.93333333333334
1598,605.8666666666667,-19.2,-172.8
1599,612.2666666666667,-19.2,-172.8
1600,610.1333333333333,-23.466666666666665,-164.26666666666665
1601,610.1333333333333,-17.066666666666666,-166.4
1602,612.2666666666667,-19.2,-174.93333333333334
1603,614.4,-34.13333333333333,-160.0
1604,616.5333333333333,-25.6,-179.2
1605,614.4,-29.866666666666667,-177.06666666666666
1606,614.4,-27.733333333333334,-168.53333333333333
1607,614.4,-21.333333333333332,-172.8
1608,612.2666666666667,-23.466666666666665,-179.2
1609,612.2666666666667,-25.6,-177.06666666666666
1610,612.2666666666667,-23.466666666666665,-174.93333333333334
1611,620.8,-27.733333333333334,-177.06666666666666
1612,608.0,-23.466666666666665,-183.46666666666667
1613,620.8,-19.2,-181.33333333333334
1614,610.1333333333333,-19.2,-170.66666666666666
1615,614.4,-25.6,-177.06666666666666
1616,616.5333333333333,-21.333333333333332,-177.06666666666666
1617,614.4,-25.6,-183.46666666666667
1618,608.0,-19.2,-185.6
1619,612.2666666666667,-23.466666666666665,-172.8
1620,616.5333333333333,-23.466666666666665,-174.93333333333334
1621,614.4,-17.066666666666666,-179.2
1622,612.2666666666667,-17.066666666666666,-174.93333333333334
1623,618.6666666666666,-21.333333333333332,-181.33333333333334
1624,618.6666666666666,-27.733333333333334,-181.33333333333334
1625,618.6666666666666,-19.2,-179.2
1626,616.5333333333333,-25.6,-172.8
1627,618.6666666666666,-29.866666666666667,-172.8
1628,618.6666666666666,-32.0,-172.8
1629,618.6666666666666,-32.0,-166.4
1630,618.6666666666666,-29.866666666666667,-157.86666666666667
1631,620.8,-34.13333333333333,-166.4
1632,618.6666666666666,-38.4,-164.26666666666665
1633,610.1333333333333,-25.6,-162.13333333333333
1634,618.6666666666666,-34.13333333333333,-166.4
1635,616.5333333333333,-36.266666666666666,-170.66666666666666
1636,610.1333333333333,-17.066666666666666,-157.86666666666667
1637,608.0,-21.333333333333332,-162.13333333333333
1638,610.1333333333333,-23.466666666666665,-172.8
1639,608.0,-21.333333333333332,-168.53333333333333
1640,601.6,-17.066666666666666,-181.33333333333334
1641,612.2666666666667,-21.333333333333332,-187.73333333333332
1642,610.1333333333333,-21.333333333333332,-179.2
1643,603.7333333333333,-17.066666666666666,-172.8
1644,605.8666666666667,-21.333333333333332,-181.33333333333334
1645,601.6,-25.6,-179.2
1646,612.2666666666667,-27.733333333333334,-177.06666666666666
1647,599.4666666666667,-27.733333333333334,-174.93333333333334
1648,608.0,-23.466666666666665,-174.93333333333334
1649,614.4,-29.866666666666667,-168.53333333333333
1650,618.6666666666666,-34.13333333333333,-168.53333333333333
1651,618.6666666666666,-34.13333333333333,-174.93333333333334
1652,612.2666666666667,-29.866666666666667,-174.93333333333334
1653,612.2666666666667,-36.266666666666666,-162.13333333333333
1654,614.4,-34.13333333333333,-162.13333333333333
1655,610.1333333333333,-38.4,-155.73333333333332
1656,612.2666666666667,-36.266666666666666,-147.2
1657,612.2666666666667,-44.8,-153.6
1658,612.2666666666667,-42.666666666666664,-155.73333333333332
1659,616.5333333333333,-49.06666666666666,-147.2
1660,612.2666666666667,-55.46666666666667,-142.93333333333334
1661,608.0,-51.2,-147.2
1662,616.5333333333333,-64.0,-140.8
1663,612.2666666666667,-59.733333333333334,-145.06666666666666
1664,603.7333333333333,-66.13333333333333,-142.93333333333334
1665,612.2666666666667,-66.13333333333333,-140.8
1666,610.1333333333333,-68.26666666666667,-142.93333333333334
1667,614.4,-72.53333333333333,-134.4
1668,603.7333333333333,-83.2,-134.4
1669,616.5333333333333,-83.2,-128.0
1670,608.0,-81.06666666666666,-132.26666666666665
1671,603.7333333333333,-83.2,-123.73333333333333
1672,608.0,-89.6,-115.2
1673,601.6,-74.66666666666667,-117.33333333333333
1674,608.0,-74.66666666666667,-115.2
1675,618.6666666666666,-83.2,-106.66666666666667
1676,614.4,-81.06666666666666,-100.26666666666667
1677,616.5333333333333,-74.66666666666667,-98.13333333333333
1678,622.9333333333333,-70.4,-98.13333333333333
1679,616.5333333333333,-91.73333333333333,-83.2
1680,625.0666666666666,-68.26666666666667,-93.86666666666666
1681,631.4666666666667,-59.733333333333334,-78.93333333333334
1682,631.4666666666667,-61.86666666666667,-85.33333333333333
1683,640.0,-68.26666666666667,-83.2
1684,646.4,-68.26666666666667,-70.4
1685,644.2666666666667,-78.93333333333334,-74.66666666666667
1686,635.7333333333333,-74.66666666666667,-74.66666666666667
1687,633.6,-81.06666666666666,-83.2
1688,637.8666666666667,-72.53333333333333,-76.8
1689,640.0,-68.26666666666667,-93.86666666666666
1690,657.0666666666666,-70.4,-93.86666666666666
1691,646.4,-66.13333333333333,-98.13333333333333
1692,631.4666666666667,-59.733333333333334,-106.66666666666667
1693,620.8,-57.6,-106.66666666666667
1694,603.7333333333333,-51.2,-117.33333333333333
1695,603.7333333333333,-42.666666666666664,-113.06666666666666
1696,603.7333333333333,-59.733333333333334,-102.4
1697,601.6,-68.26666666666667,-96.0
1698,595.2,-64.0,-70.4
1699,582.4,-70.4,-76.8
1700,578.1333333333333,-66.13333333333333,-70.4
1701,595.2,-70.4,-59.733333333333334
1702,578.1333333333333,-55.46666666666667,-72.53333333333333
1703,584.5333333333333,-57.6,-66.13333333333333
1704,595.2,-64.0,-68.26666666666667
1705,593.0666666666666,-55.46666666666667,-66.13333333333333
1706,595.2,-55.46666666666667,-64.0
1707,601.6,-55.46666666666667,-66.13333333333333
1708,597.3333333333334,-53.333333333333336,-59.733333333333334
1709,590.9333333333333,-46.93333333333333,-64.0
1710,599.4666666666667,-46.93333333333333,-59.733333333333334
1711,599.4666666666667,-40.53333333333333,-55.46666666666667
1712,601.6,-64.0,-55.46666666666667
1713,608.0,-61.86666666666667,-59.733333333333334
1714,612.2666666666667,-68.26666666666667,-57.6
1715,612.2666666666667,-64.0,-59.733333333333334
1716,616.5333333333333,-64.0,-49.06666666666666
1717,618.6666666666666,-70.4,-36.266666666666666
1718,618.6666666666666,-53.333333333333336,-21.333333333333332
1719,627.2,-53.333333333333336,-10.666666666666666
1720,635.7333333333333,-46.93333333333333,12.8
1721,631.4666666666667,-34.13333333333333,27.733333333333334
1722,633.6,-32.0,46.93333333333333
1723,635.7333333333333,-34.13333333333333,49.06666666666666
1724,635.7333333333333,-25.6,49.06666666666666
1725,642.1333333333333,-32.0,55.46666666666667
1726,672.0,-14.933333333333334,66.13333333333333
1727,682.6666666666666,-17.066666666666666,66.13333333333333
1728,661.3333333333334,-29.866666666666667,64.0
1729,646.4,-25.6,76.8
1730,627.2,-42.666666666666664,81.06666666666666
1731,616.5333333333333,-36.266666666666666,91.73333333333333
1732,601.6,-49.06666666666666,100.26666666666667
1733,595.2,-55.46666666666667,98.13333333333333
1734,586.6666666666666,-66.13333333333333,104.53333333333333
1735,576.0,-66.13333333333333,108.8
1736,554.6666666666666,-68.26666666666667,117.33333333333333
1737,550.4,-72.53333333333333,115.2
1738,544.0,-76.8,128.0
1739,533.3333333333334,-81.06666666666666,130.13333333333333
1740,514.1333333333333,-85.33333333333333,136.53333333333333
1741,520.5333333333333,-98.13333333333333,151.46666666666667
1742,497.06666666666666,-85.33333333333333,162.13333333333333
1743,501.3333333333333,-91.73333333333333,153.6
1744,492.8,-91.73333333333333,160.0
1745,486.4,-91.73333333333333,164.26666666666665
1746,486.4,-96.0,153.6
1747,480.0,-102.4,164.26666666666665
1748,469.3333333333333,-98.13333333333333,166.4
1749,480.0,-110.93333333333334,166.4
1750,482.1333333333333,-113.06666666666666,172.8
1751,462.93333333333334,-115.2,172.8
1752,456.5333333333333,-121.6,179.2
1753,450.1333333333333,-136.53333333333333,183.46666666666667
1754,437.3333333333333,-147.2,185.6
1755,443.73333333333335,-166.4,187.73333333333332
1756,448.0,-160.0,194.13333333333333
1757,426.6666666666667,-172.8,181.33333333333334
1758,450.1333333333333,-187.73333333333332,189.86666666666667
1759,456.5333333333333,-194.13333333333333,183.46666666666667
1760,458.6666666666667,-198.4,181.33333333333334
1761,473.59999999999997,-200.53333333333333,157.86666666666667
1762,465.06666666666666,-211.2,168.53333333333333
1763,473.59999999999997,-219.73333333333332,153.6
1764,469.3333333333333,-224.0,147.2
1765,465.06666666666666,-230.4,155.73333333333332
1766,458.6666666666667,-234.66666666666666,160.0
1767,448.0,-251.73333333333332,151.46666666666667
1768,445.8666666666667,-245.33333333333334,151.46666666666667
1769,441.59999999999997,-245.33333333333334,164.26666666666665
1770,437.3333333333333,-262.4,168.53333333333333
1771,435.2,-270.93333333333334,166.4
1772,443.73333333333335,-277.3333333333333,168.53333333333333
1773,460.8,-277.3333333333333,157.86666666666667
1774,454.4,-285.8666666666667,166.4
1775,465.06666666666666,-283.73333333333335,145.06666666666666
1776,475.73333333333335,-288.0,134.4
1777,477.8666666666667,-296.5333333333333,138.66666666666666
1778,473.59999999999997,-279.46666666666664,134.4
1779,460.8,-281.6,128.0
1780,475.73333333333335,-288.0,134.4
1781,471.46666666666664,-283.73333333333335,142.93333333333334
1782,452.26666666666665,-279.46666666666664,140.8
1783,448.0,-273.06666666666666,142.93333333333334
1784,441.59999999999997,-268.8,160.0
1785,450.1333333333333,-266.6666666666667,164.26666666666665
1786,424.5333333333333,-249.6,170.66666666666666
1787,420.26666666666665,-236.79999999999998,166.4
1788,420.26666666666665,-228.26666666666665,162.13333333333333
1789,433.06666666666666,-224.0,160.0
1790,439.46666666666664,-221.86666666666667,155.73333333333332
1791,448.0,-213.33333333333334,157.86666666666667
1792,460.8,-213.33333333333334,157.86666666666667
1793,448.0,-219.73333333333332,160.0
1794,458.6666666666667,-213.33333333333334,151.46666666666667
1795,454.4,-213.33333333333334,138.66666666666666
1796,448.0,-213.33333333333334,140.8
1797,437.3333333333333,-204.8,149.33333333333334
1798,443.73333333333335,-194.13333333333333,157.86666666666667
1799,450.1333333333333,-177.06666666666666,149.33333333333334
1800,454.4,-162.13333333333333,179.2
1801,469.3333333333333,-149.33333333333334,181.33333333333334
1802,477.8666666666667,-138.66666666666666,189.86666666666667
1803,484.26666666666665,-134.4,194.13333333333333
1804,480.0,-119.46666666666667,209.06666666666666
1805,499.2,-121.6,219.73333333333332
1806,494.93333333333334,-115.2,221.86666666666667
1807,507.73333333333335,-123.73333333333333,213.33333333333334
1808,522.6666666666666,-123.73333333333333,215.46666666666667
1809,518.4,-130.13333333333333,202.66666666666666
1810,518.4,-121.6,213.33333333333334
1811,529.0666666666666,-125.86666666666666,213.33333333333334
1812,531.2,-132.26666666666665,209.06666666666666
1813,529.0666666666666,-128.0,206.93333333333334
1814,522.6666666666666,-119.46666666666667,198.4
1815,533.3333333333334,-125.86666666666666,198.4
1816,529.0666666666666,-117.33333333333333,202.66666666666666
1817,529.0666666666666,-117.33333333333333,198.4
1818,520.5333333333333,-119.46666666666667,198.4
1819,526.9333333333333,-115.2,213.33333333333334
1820,514.1333333333333,-113.06666666666666,213.33333333333334
1821,526.9333333333333,-119.46666666666667,204.8
1822,522.6666666666666,-132.26666666666665,200.53333333333333
1823,505.59999999999997,-138.66666666666666,215.46666666666667
1824,494.93333333333334,-140.8,217.6
1825,488.5333333333333,-140.8,215.46666666666667
1826,475.73333333333335,-138.66666666666666,215.46666666666667
1827,469.3333333333333,-145.06666666666666,211.2
1828,477.8666666666667,-145.06666666666666,204.8
1829,467.2,-132.26666666666665,202.66666666666666
1830,456.5333333333333,-130.13333333333333,179.2
1831,452.26666666666665,-121.6,183.46666666666667
1832,450.1333333333333,-106.66666666666667,185.6
1833,458.6666666666667,-98.13333333333333,177.06666666666666
1834,460.8,-106.66666666666667,179.2
1835,467.2,-128.0,202.66666666666666
1836,460.8,-136.53333333333333,211.2
1837,454.4,-151.46666666666667,215.46666666666667
1838,443.73333333333335,-153.6,224.0
1839,441.59999999999997,-164.26666666666665,238.93333333333334
1840,441.59999999999997,-172.8,241.06666666666666
1841,443.73333333333335,-153.6,268.8
1842,448.0,-147.2,290.1333333333333
1843,454.4,-138.66666666666666,300.8
1844,445.8666666666667,-134.4,307.2
1845,435.2,-123.73333333333333,326.4
1846,424.5333333333333,-108.8,330.6666666666667
1847,418.1333333333333,-100.26666666666667,332.8
1848,411.73333333333335,-93.86666666666666,330.6666666666667
1849,411.73333333333335,-74.66666666666667,326.4
1850,416.0,-57.6,305.06666666666666
1851,422.4,-36.266666666666666,283.73333333333335
1852,420.26666666666665,-14.933333333333334,260.26666666666665
1853,428.8,0.0,258.1333333333333
1854,426.6666666666667,14.933333333333334,228.26666666666665
1855,435.2,10.666666666666666,234.66666666666666
1856,428.8,2.1333333333333333,234.66666666666666
1857,430.93333333333334,2.1333333333333333,230.4
1858,426.6666666666667,-19.2,236.79999999999998
1859,424.5333333333333,-23.466666666666665,230.4
1860,416.0,-32.0,232.53333333333333
1861,413.8666666666667,-49.06666666666666,232.53333333333333
1862,403.2,-51.2,251.73333333333332
1863,407.46666666666664,-76.8,256.0
1864,418.1333333333333,-89.6,279.46666666666664
1865,422.4,-106.66666666666667,296.5333333333333
1866,426.6666666666667,-132.26666666666665,307.2
1867,433.06666666666666,-145.06666666666666,317.8666666666667
1868,437.3333333333333,-162.13333333333333,330.6666666666667
1869,443.73333333333335,-183.46666666666667,341.3333333333333
1870,448.0,-198.4,352.0
1871,462.93333333333334,-211.2,362.6666666666667
1872,460.8,-226.13333333333333,373.3333333333333
1873,458.6666666666667,-221.86666666666667,375.46666666666664
1874,454.4,-236.79999999999998,375.46666666666664
1875,454.4,-238.93333333333334,390.4
1876,456.5333333333333,-251.73333333333332,373.3333333333333
1877,454.4,-247.46666666666667,369.06666666666666
1878,460.8,-241.06666666666666,364.8
1879,450.1333333333333,-230.4,373.3333333333333
1880,450.1333333333333,-226.13333333333333,362.6666666666667
1881,443.73333333333335,-209.06666666666666,358.4
1882,441.59999999999997,-194.13333333333333,354.1333333333333
1883,428.8,-192.0,330.6666666666667
1884,428.8,-187.73333333333332,332.8
1885,430.93333333333334,-174.93333333333334,328.5333333333333
1886,441.59999999999997,-160.0,334.93333333333334
1887,441.59999999999997,-162.13333333333333,324.26666666666665
1888,439.46666666666664,-155.73333333333332,324.26666666666665
1889,441.59999999999997,-151.46666666666667,317.8666666666667
1890,454.4,-149.33333333333334,317.8666666666667
1891,456.5333333333333,-140.8,322.1333333333333
1892,462.93333333333334,-147.2,313.6
1893,458.6666666666667,-142.93333333333334,300.8
1894,458.6666666666667,-125.86666666666666,294.4
1895,458.6666666666667,-115.2,292.26666666666665
1896,458.6666666666667,-104.53333333333333,273.06666666666666
1897,458.6666666666667,-78.93333333333334,279.46666666666664
1898,471.46666666666664,-87.46666666666667,285.8666666666667
1899,465.06666666666666,-87.46666666666667,290.1333333333333
1900,452.26666666666665,-76.8,288.0
1901,454.4,-76.8,302.93333333333334
1902,439.46666666666664,-78.93333333333334,300.8
1903,435.2,-89.6,294.4
1904,420.26666666666665,-89.6,292.26666666666665
1905,411.73333333333335,-102.4,300.8
1906,403.2,-106.66666666666667,298.6666666666667
1907,398.93333333333334,-113.06666666666666,298.6666666666667
1908,390.4,-117.33333333333333,296.5333333333333
1909,377.6,-121.6,296.5333333333333
1910,371.2,-113.06666666666666,296.5333333333333
1911,364.8,-113.06666666666666,305.06666666666666
1912,352.0,-113.06666666666666,305.06666666666666
1913,349.8666666666667,-113.06666666666666,313.6
1914,343.46666666666664,-108.8,332.8
1915,334.93333333333334,-115.2,343.46666666666664
1916,317.8666666666667,-104.53333333333333,341.3333333333333
1917,307.2,-117.33333333333333,345.6
1918,296.5333333333333,-104.53333333333333,360.5333333333333
1919,270.93333333333334,-104.53333333333333,373.3333333333333
1920,251.73333333333332,-102.4,364.8
1921,226.13333333333333,-115.2,369.06666666666666
1922,202.66666666666666,-110.93333333333334,392.5333333333333
1923,189.86666666666667,-119.46666666666667,392.5333333333333
1924,177.06666666666666,-121.6,398.93333333333334
1925,153.6,-119.46666666666667,390.4
1926,138.66666666666666,-117.33333333333333,407.46666666666664
1927,123.73333333333333,-102.4,405.3333333333333
1928,108.8,-102.4,409.6
1929,104.53333333333333,-93.86666666666666,416.0
1930,113.06666666666666,-100.26666666666667,413.8666666666667
1931,100.26666666666667,-96.0,424.5333333333333
1932,93.86666666666666,-100.26666666666667,422.4
1933,87.46666666666667,-98.13333333333333,422.4
1934,81.06666666666666,-100.26666666666667,409.6
1935,74.66666666666667,-83.2,401.06666666666666
1936,76.8,-85.33333333333333,394.6666666666667
1937,70.4,-70.4,377.6
1938,72.53333333333333,-66.13333333333333,379.73333333333335
1939,81.06666666666666,-61.86666666666667,369.06666666666666
1940,85.33333333333333,-68.26666666666667,352.0
1941,59.733333333333334,-68.26666666666667,349.8666666666667
1942,78.93333333333334,-66.13333333333333,343.46666666666664
1943,85.33333333333333,-59.733333333333334,339.2
1944,96.0,-57.6,330.6666666666667
1945,102.4,-46.93333333333333,341.3333333333333
1946,106.66666666666667,-49.06666666666666,341.3333333333333
1947,115.2,-46.93333333333333,345.6
1948,115.2,-44.8,347.73333333333335
1949,125.86666666666666,-42.666666666666664,347.73333333333335
1950,130.13333333333333,-38.4,345.6
1951,123.73333333333333,-34.13333333333333,354.1333333333333
1952,110.93333333333334,-25.6,341.3333333333333
1953,119.46666666666667,-27.733333333333334,337.06666666666666
1954,117.33333333333333,-25.6,334.93333333333334
1955,108.8,-21.333333333333332,339.2
1956,108.8,-21.333333333333332,341.3333333333333
1957,104.53333333333333,-23.466666666666665,343.46666666666664
1958,98.13333333333333,-19.2,347.73333333333335
1959,93.86666666666666,-23.466666666666665,356.26666666666665
1960,96.0,-29.866666666666667,358.4
1961,96.0,-21.333333333333332,356.26666666666665
1962,91.73333333333333,-17.066666666666666,345.6
1963,96.0,-14.933333333333334,354.1333333333333
1964,98.13333333333333,-17.066666666666666,364.8
1965,100.26666666666667,-19.2,360.5333333333333
1966,96.0,-17.066666666666666,364.8
1967,96.0,-23.466666666666665,377.6
1968,102.4,-32.0,394.6666666666667
1969,132.26666666666665,-42.666666666666664,396.8
1970,138.66666666666666,-61.86666666666667,405.3333333333333
1971,128.0,-83.2,407.46666666666664
1972,132.26666666666665,-96.0,445.8666666666667
1973,134.4,-108.8,458.6666666666667
1974,128.0,-128.0,467.2
1975,125.86666666666666,-136.53333333333333,480.0
1976,125.86666666666666,-145.06666666666666,499.2
1977,117.33333333333333,-160.0,512.0
1978,110.93333333333334,-168.53333333333333,531.2
1979,102.4,-185.6,539.7333333333333
1980,100.26666666666667,-200.53333333333333,541.8666666666667
1981,89.6,-206.93333333333334,548.2666666666667
1982,64.0,-219.73333333333332,552.5333333333333
1983,46.93333333333333,-234.66666666666666,552.5333333333333
1984,27.733333333333334,-236.79999999999998,548.2666666666667
1985,4.266666666666667,-247.46666666666667,546.1333333333333
1986,8.533333333333333,-260.26666666666665,539.7333333333333
1987,-14.933333333333334,-268.8,544.0
1988,-89.6,-285.8666666666667,541.8666666666667
1989,-121.6,-290.1333333333333,554.6666666666666
1990,-123.73333333333333,-300.8,552.5333333333333
1991,-119.46666666666667,-313.6,550.4
1992,-108.8,-322.1333333333333,546.1333333333333
1993,-100.26666666666667,-330.6666666666667,544.0
1994,-102.4,-328.5333333333333,546.1333333333333
1995,-91.73333333333333,-343.46666666666664,520.5333333333333
1996,-85.33333333333333,-309.3333333333333,522.6666666666666
1997,-74.66666666666667,-300.8,503.46666666666664
1998,-68.26666666666667,-285.8666666666667,482.1333333333333
1999,-61.86666666666667,-270.93333333333334,465.06666666666666
2000,-46.93333333333333,-249.6,456.5333333333333
2001,-36.266666666666666,-228.26666666666665,441.59999999999997
2002,-23.466666666666665,-206.93333333333334,433.06666666666666
2003,-17.066666666666666,-192.0,420.26666666666665
2004,-12.8,-157.86666666666667,413.8666666666667
2005,-14.933333333333334,-151.46666666666667,407.46666666666664
2006,-17.066666666666666,-130.13333333333333,392.5333333333333
2007,-6.4,-106.66666666666667,390.4
2008,0.0,-100.26666666666667,362.6666666666667
2009,0.0,-76.8,347.73333333333335
2010,-2.1333333333333333,-72.53333333333333,332.8
2011,0.0,-74.66666666666667,324.26666666666665
2012,-12.8,-72.53333333333333,334.93333333333334
2013,-27.733333333333334,-81.06666666666666,337.06666666666666
2014,-38.4,-93.86666666666666,349.8666666666667
2015,-32.0,-102.4,347.73333333333335
2016,-40.53333333333333,-117.33333333333333,362.6666666666667
2017,-59.733333333333334,-123.73333333333333,375.46666666666664
2018,-64.0,-136.53333333333333,388.26666666666665
2019,-72.53333333333333,-140.8,390.4
2020,-74.66666666666667,-149.33333333333334,405.3333333333333
2021,-83.2,-147.2,420.26666666666665
2022,-96.0,-155.73333333333332,424.5333333333333
2023,-100.26666666666667,-155.73333333333332,422.4
2024,-104.53333333333333,-155.73333333333332,441.59999999999997
2025,-113.06666666666666,-162.13333333333333,448.0
2026,-98.13333333333333,-170.66666666666666,454.4
2027,-106.66666666666667,-172.8,456.5333333333333
2028,-104.53333333333333,-177.06666666666666,465.06666666666666
2029,-102.4,-174.93333333333334,469.3333333333333
2030,-102.4,-168.53333333333333,482.1333333333333
2031,-110.93333333333334,-170.66666666666666,475.73333333333335
2032,-108.8,-168.53333333333333,473.59999999999997
2033,-113.06666666666666,-157.86666666666667,471.46666666666664
2034,-96.0,-166.4,456.5333333333333
2035,-123.73333333333333,-162.13333333333333,437.3333333333333
2036,-113.06666666666666,-155.73333333333332,428.8
2037,-115.2,-160.0,411.73333333333335
2038,-123.73333333333333,-153.6,396.8
2039,-119.46666666666667,-155.73333333333332,386.1333333333333
2040,-121.6,-153.6,375.46666666666664
2041,-83.2,-162.13333333333333,366.93333333333334
2042,-128.0,-166.4,375.46666666666664
2043,-125.86666666666666,-174.93333333333334,373.3333333333333
2044,-104.53333333333333,-183.46666666666667,373.3333333333333
2045,-102.4,-198.4,375.46666666666664
2046,-91.73333333333333,-200.53333333333333,379.73333333333335
2047,-91.73333333333333,-217.6,373.3333333333333
2048,-93.86666666666666,-219.73333333333332,375.46666666666664
2049,-106.66666666666667,-219.73333333333332,379.73333333333335
2050,-100.26666666666667,-234.66666666666666,373.3333333333333
2051,-100.26666666666667,-234.66666666666666,375.46666666666664
2052,-98.13333333333333,-243.2,373.3333333333333
2053,-87.46666666666667,-243.2,371.2
2054,-78.93333333333334,-258.1333333333333,364.8
2055,-68.26666666666667,-262.4,373.3333333333333
2056,-64.0,-266.6666666666667,373.3333333333333
2057,-53.333333333333336,-273.06666666666666,384.0
2058,-49.06666666666666,-273.06666666666666,392.5333333333333
2059,-46.93333333333333,-273.06666666666666,384.0
2060,-38.4,-273.06666666666666,375.46666666666664
2061,-53.333333333333336,-273.06666666666666,384.0
2062,-29.866666666666667,-260.26666666666665,377.6
2063,-19.2,-256.0,371.2
2064,-25.6,-236.79999999999998,373.3333333333333
2065,-23.466666666666665,-234.66666666666666,364.8
2066,4.266666666666667,-228.26666666666665,373.3333333333333
2067,-46.93333333333333,-221.86666666666667,386.1333333333333
2068,-12.8,-209.06666666666666,396.8
2069,-2.1333333333333333,-211.2,388.26666666666665
2070,0.0,-202.66666666666666,405.3333333333333
2071,0.0,-196.26666666666665,405.3333333333333
2072,8.533333333333333,-206.93333333333334,413.8666666666667
2073,17.066666666666666,-198.4,413.8666666666667
2074,27.733333333333334,-194.13333333333333,416.0
2075,34.13333333333333,-198.4,433.06666666666666
2076,40.53333333333333,-194.13333333333333,422.4
2077,40.53333333333333,-192.0,420.26666666666665
2078,44.8,-189.86666666666667,413.8666666666667
2079,49.06666666666666,-192.0,416.0
2080,46.93333333333333,-189.86666666666667,426.6666666666667
2081,51.2,-187.73333333333332,405.3333333333333
2082,36.266666666666666,-196.26666666666665,420.26666666666665
2083,55.46666666666667,-202.66666666666666,411.73333333333335
2084,55.46666666666667,-204.8,405.3333333333333
2085,38.4,-206.93333333333334,409.6
2086,27.733333333333334,-206.93333333333334,405.3333333333333
2087,19.2,-219.73333333333332,403.2
2088,10.666666666666666,-213.33333333333334,394.6666666666667
2089,-4.266666666666667,-219.73333333333332,401.06666666666666
2090,4.266666666666667,-221.86666666666667,392.5333333333333
2091,6.4,-221.86666666666667,396.8
2092,10.666666666666666,-232.53333333333333,381.8666666666667
2093,2.1333333333333333,-228.26666666666665,386.1333333333333
2094,2.1333333333333333,-230.4,381.8666666666667
2095,6.4,-226.13333333333333,379.73333333333335
2096,17.066666666666666,-224.0,384.0
2097,23.466666666666665,-215.46666666666667,381.8666666666667
2098,27.733333333333334,-211.2,379.73333333333335
2099,40.53333333333333,-200.53333333333333,379.73333333333335
2100,49.06666666666666,-194.13333333333333,390.4
2101,55.46666666666667,-187.73333333333332,398.93333333333334
2102,70.4,-179.2,396.8
2103,76.8,-166.4,403.2
2104,76.8,-166.4,424.5333333333333
2105,87.46666666666667,-157.86666666666667,426.6666666666667
2106,102.4,-151.46666666666667,437.3333333333333
2107,104.53333333333333,-140.8,433.06666666666666
2108,110.93333333333334,-130.13333333333333,448.0
2109,117.33333333333333,-130.13333333333333,456.5333333333333
2110,117.33333333333333,-130.13333333333333,448.0
2111,117.33333333333333,-125.86666666666666,458.6666666666667
2112,125.86666666666666,-123.73333333333333,456.5333333333333
2113,123.73333333333333,-117.33333333333333,475.73333333333335
2114,125.86666666666666,-115.2,465.06666666666666
2115,121.6,-110.93333333333334,465.06666666666666
2116,130.13333333333333,-108.8,460.8
2117,119.46666666666667,-104.53333333333333,452.26666666666665
2118,123.73333333333333,-102.4,450.1333333333333
2119,128.0,-98.13333333333333,465.06666666666666
2120,123.73333333333333,-98.13333333333333,448.0
2121,83.2,-96.0,456.5333333333333
2122,89.6,-93.86666666666666,465.06666666666666
2123,102.4,-89.6,460.8
2124,98.13333333333333,-91.73333333333333,450.1333333333333
2125,96.0,-87.46666666666667,460.8
2126,89.6,-100.26666666666667,465.06666666666666
2127,91.73333333333333,-91.73333333333333,454.4
2128,81.06666666666666,-102.4,450.1333333333333
2129,85.33333333333333,-102.4,445.8666666666667
2130,76.8,-113.06666666666666,486.4
2131,78.93333333333334,-108.8,435.2
2132,70.4,-113.06666666666666,443.73333333333335
2133,72.53333333333333,-119.46666666666667,439.46666666666664
2134,68.26666666666667,-119.46666666666667,430.93333333333334
2135,68.26666666666667,-128.0,439.46666666666664
2136,64.0,-130.13333333333333,428.8
2137,70.4,-130.13333333333333,437.3333333333333
2138,61.86666666666667,-134.4,443.73333333333335
2139,66.13333333333333,-134.4,441.59999999999997
2140,64.0,-134.4,443.73333333333335
2141,66.13333333333333,-136.53333333333333,441.59999999999997
2142,61.86666666666667,-136.53333333333333,450.1333333333333
2143,57.6,-134.4,454.4
2144,53.333333333333336,-134.4,458.6666666666667
2145,46.93333333333333,-125.86666666666666,458.6666666666667
2146,51.2,-123.73333333333333,443.73333333333335
2147,44.8,-125.86666666666666,452.26666666666665
2148,51.2,-138.66666666666666,456.5333333333333
2149,46.93333333333333,-130.13333333333333,443.73333333333335
2150,40.53333333333333,-123.73333333333333,441.59999999999997
2151,44.8,-123.73333333333333,448.0
2152,42.666666666666664,-128.0,448.0
2153,38.4,-125.86666666666666,441.59999999999997
2154,29.866666666666667,-119.46666666666667,445.8666666666667
2155,25.6,-123.73333333333333,445.8666666666667
2156,29.866666666666667,-123.73333333333333,454.4
2157,19.2,-121.6,439.46666666666664
2158,21.333333333333332,-128.0,448.0
2159,14.933333333333334,-130.13333333333333,448.0
2160,8.533333333333333,-128.0,445.8666666666667
2161,10.666666666666666,-125.86666666666666,439.46666666666664
2162,10.666666666666666,-125.86666666666666,435.2
2163,4.266666666666667,-130.13333333333333,433.06666666666666
2164,8.533333333333333,-136.53333333333333,426.6666666666667
2165,12.8,-138.66666666666666,433.06666666666666
2166,12.8,-125.86666666666666,424.5333333333333
2167,12.8,-136.53333333333333,424.5333333333333
2168,14.933333333333334,-147.2,435.2
2169,14.933333333333334,-145.06666666666666,422.4
2170,14.933333333333334,-151.46666666666667,426.6666666666667
2171,10.666666666666666,-155.73333333333332,420.26666666666665
2172,17.066666666666666,-160.0,422.4
2173,21.333333333333332,-160.0,420.26666666666665
2174,23.466666666666665,-164.26666666666665,420.26666666666665
2175,25.6,-164.26666666666665,426.6666666666667
2176,23.466666666666665,-166.4,420.26666666666665
2177,25.6,-166.4,428.8
2178,27.733333333333334,-170.66666666666666,420.26666666666665
2179,32.0,-164.26666666666665,430.93333333333334
2180,38.4,-183.46666666666667,422.4
2181,42.666666666666664,-170.66666666666666,426.6666666666667
2182,46.93333333333333,-170.66666666666666,430.93333333333334
2183,38.4,-168.53333333333333,422.4
2184,44.8,-166.4,437.3333333333333
2185,49.06666666666666,-166.4,422.4
2186,44.8,-170.66666666666666,422.4
2187,34.13333333333333,-164.26666666666665,424.5333333333333
2188,40.53333333333333,-168.53333333333333,418.1333333333333
2189,44.8,-168.53333333333333,422.4
2190,42.666666666666664,-168.53333333333333,424.5333333333333
2191,27.733333333333334,-157.86666666666667,405.3333333333333
2192,44.8,-164.26666666666665,418.1333333333333
2193,42.666666666666664,-153.6,411.73333333333335
2194,42.666666666666664,-164.26666666666665,416.0
2195,42.666666666666664,-149.33333333333334,413.8666666666667
2196,36.266666666666666,-151.46666666666667,422.4
2197,42.666666666666664,-147.2,409.6
2198,40.53333333333333,-151.46666666666667,411.73333333333335
2199,51.2,-151.46666666666667,418.1333333333333
2200,57.6,-147.2,409.6
2201,53.333333333333336,-142.93333333333334,411.73333333333335
2202,40.53333333333333,-145.06666666666666,403.2
2203,57.6,-136.53333333333333,420.26666666666665
2204,53.333333333333336,-140.8,418.1333333333333
2205,55.46666666666667,-136.53333333333333,416.0
2206,55.46666666666667,-136.53333333333333,424.5333333333333
2207,64.0,-138.66666666666666,424.5333333333333
2208,57.6,-138.66666666666666,428.8
2209,51.2,-136.53333333333333,422.4
2210,46.93333333333333,-132.26666666666665,430.93333333333334
2211,44.8,-136.53333333333333,428.8
2212,38.4,-125.86666666666666,441.59999999999997
2213,34.13333333333333,-123.73333333333333,443.73333333333335
2214,40.53333333333333,-130.13333333333333,443.73333333333335
2215,40.53333333333333,-132.26666666666665,437.3333333333333
2216,40.53333333333333,-119.46666666666667,443.73333333333335
2217,38.4,-130.13333333333333,448.0
2218,34.13333333333333,-132.26666666666665,445.8666666666667
2219,38.4,-128.0,445.8666666666667
2220,34.13333333333333,-121.6,448.0
2221,40.53333333333333,-123.73333333333333,445.8666666666667
2222,34.13333333333333,-121.6,448.0
2223,36.266666666666666,-130.13333333333333,458.6666666666667
2224,42.666666666666664,-125.86666666666666,439.46666666666664
2225,36.266666666666666,-123.73333333333333,435.2
2226,38.4,-134.4,443.73333333333335
2227,40.53333333333333,-130.13333333333333,435.2
2228,34.13333333333333,-125.86666666666666,445.8666666666667
2229,38.4,-128.0,435.2
2230,42.666666666666664,-130.13333333333333,435.2
2231,42.666666666666664,-121.6,439.46666666666664
2232,36.266666666666666,-121.6,433.06666666666666
2233,40.53333333333333,-130.13333333333333,422.4
2234,46.93333333333333,-128.0,430.93333333333334
2235,46.93333333333333,-121.6,428.8
2236,46.93333333333333,-130.13333333333333,428.8
2237,44.8,-123.73333333333333,424.5333333333333
2238,49.06666666666666,-128.0,435.2
2239,51.2,-121.6,435.2
2240,46.93333333333333,-128.0,426.6666666666667
2241,53.333333333333336,-132.26666666666665,435.2
2242,51.2,-123.73333333333333,426.6666666666667
2243,51.2,-119.46666666666667,433.06666666666666
2244,51.2,-128.0,420.26666666666665
2245,53.333333333333336,-121.6,426.6666666666667
2246,64.0,-113.06666666666666,413.8666666666667
2247,59.733333333333334,-125.86666666666666,418.1333333333333
2248,64.0,-123.73333333333333,422.4
2249,66.13333333333333,-125.86666666666666,426.6666666666667
2250,55.46666666666667,-121.6,422.4
2251,66.13333333333333,-132.26666666666665,424.5333333333333
2252,64.0,-130.13333333333333,424.5333333333333
2253,61.86666666666667,-132.26666666666665,418.1333333333333
2254,61.86666666666667,-123.73333333333333,420.26666666666665
2255,61.86666666666667,-132.26666666666665,433.06666666666666
2256,68.26666666666667,-132.26666666666665,426.6666666666667
2257,59.733333333333334,-132.26666666666665,433.06666666666666
2258,72.53333333333333,-142.93333333333334,420.26666666666665
2259,64.0,-136.53333333333333,416.0
2260,61.86666666666667,-145.06666666666666,424.5333333333333
2261,51.2,-136.53333333333333,430.93333333333334
2262,46.93333333333333,-138.66666666666666,420.26666666666665
2263,42.666666666666664,-142.93333333333334,418.1333333333333
2264,44.8,-136.53333333333333,428.8
2265,42.666666666666664,-138.66666666666666,420.26666666666665
2266,51.2,-140.8,420.26666666666665
2267,44.8,-136.53333333333333,426.6666666666667
2268,55.46666666666667,-134.4,420.26666666666665
2269,46.93333333333333,-134.4,433.06666666666666
2270,51.2,-138.66666666666666,428.8
2271,44.8,-138.66666666666666,430.93333333333334
2272,53.333333333333336,-136.53333333333333,426.6666666666667
2273,51.2,-142.93333333333334,439.46666666666664
2274,44.8,-140.8,430.93333333333334
2275,49.06666666666666,-140.8,439.46666666666664
2276,53.333333333333336,-140.8,441.59999999999997
2277,53.333333333333336,-138.66666666666666,443.73333333333335
2278,51.2,-140.8,441.59999999999997
2279,61.86666666666667,-145.06666666666666,426.6666666666667
2280,59.733333333333334,-140.8,437.3333333333333
2281,64.0,-136.53333333333333,430.93333333333334
2282,59.733333333333334,-136.53333333333333,433.06666666666666
2283,70.4,-134.4,426.6666666666667
2284,72.53333333333333,-130.13333333333333,430.93333333333334
2285,78.93333333333334,-134.4,437.3333333333333
2286,85.33333333333333,-132.26666666666665,433.06666666666666
2287,76.8,-134.4,433.06666666666666
2288,78.93333333333334,-132.26666666666665,441.59999999999997
2289,85.33333333333333,-117.33333333333333,445.8666666666667
2290,85.33333333333333,-117.33333333333333,450.1333333333333
2291,83.2,-113.06666666666666,443.73333333333335
2292,81.06666666666666,-110.93333333333334,439.46666666666664
2293,89.6,-106.66666666666667,439.46666666666664
2294,89.6,-104.53333333333333,443.73333333333335
2295,89.6,-104.53333333333333,437.3333333333333
2296,96.0,-104.53333333333333,430.93333333333334
2297,89.6,-102.4,439.46666666666664
2298,87.46666666666667,-104.53333333333333,439.46666666666664
2299,96.0,-98.13333333333333,437.3333333333333
2300,91.73333333333333,-106.66666666666667,441.59999999999997
2301,91.73333333333333,-106.66666666666667,445.8666666666667
2302,89.6,-113.06666666666666,439.46666666666664
2303,89.6,-110.93333333333334,439.46666666666664
2304,89.6,-119.46666666666667,443.73333333333335
2305,87.46666666666667,-117.33333333333333,441.59999999999997
2306,83.2,-117.33333333333333,439.46666666666664
2307,81.06666666666666,-119.46666666666667,430.93333333333334
2308,81.06666666666666,-123.73333333333333,426.6666666666667
2309,74.66666666666667,-119.46666666666667,433.06666666666666
2310,78.93333333333334,-128.0,437.3333333333333
2311,81.06666666666666,-134.4,430.93333333333334
2312,76.8,-121.6,426.6666666666667
2313,78.93333333333334,-132.26666666666665,428.8
2314,72.53333333333333,-130.13333333333333,426.6666666666667
2315,76.8,-130.13333333333333,433.06666666666666
2316,78.93333333333334,-134.4,441.59999999999997
2317,76.8,-130.13333333333333,435.2
2318,76.8,-125.86666666666666,439.46666666666664
2319,78.93333333333334,-125.86666666666666,433.06666666666666
2320,76.8,-123.73333333333333,448.0
2321,70.4,-119.46666666666667,443.73333333333335
2322,89.6,-136.53333333333333,443.73333333333335
2323,83.2,-119.46666666666667,450.1333333333333
2324,87.46666666666667,-108.8,458.6666666666667
2325,89.6,-110.93333333333334,456.5333333333333
2326,91.73333333333333,-102.4,452.26666666666665
2327,102.4,-104.53333333333333,450.1333333333333
2328,100.26666666666667,-93.86666666666666,454.4
2329,100.26666666666667,-96.0,458.6666666666667
2330,113.06666666666666,-91.73333333333333,454.4
2331,108.8,-85.33333333333333,450.1333333333333
2332,110.93333333333334,-85.33333333333333,452.26666666666665
2333,125.86666666666666,-83.2,443.73333333333335
2334,110.93333333333334,-81.06666666666666,445.8666666666667
2335,115.2,-76.8,445.8666666666667
2336,113.06666666666666,-81.06666666666666,445.8666666666667
2337,110.93333333333334,-85.33333333333333,437.3333333333333
2338,108.8,-78.93333333333334,439.46666666666664
2339,110.93333333333334,-93.86666666666666,437.3333333333333
2340,106.66666666666667,-91.73333333333333,439.46666666666664
2341,102.4,-91.73333333333333,430.93333333333334
2342,104.53333333333333,-98.13333333333333,430.93333333333334
2343,102.4,-100.26666666666667,433.06666666666666
2344,89.6,-100.26666666666667,437.3333333333333
2345,89.6,-102.4,426.6666666666667
2346,93.86666666666666,-108.8,426.6666666666667
2347,85.33333333333333,-110.93333333333334,426.6666666666667
2348,83.2,-119.46666666666667,422.4
2349,76.8,-108.8,426.6666666666667
2350,74.66666666666667,-121.6,418.1333333333333
2351,76.8,-119.46666666666667,424.5333333333333
2352,72.53333333333333,-128.0,426.6666666666667
2353,68.26666666666667,-125.86666666666666,420.26666666666665
2354,74.66666666666667,-117.33333333333333,424.5333333333333
2355,64.0,-123.73333333333333,433.06666666666666
2356,68.26666666666667,-134.4,420.26666666666665
2357,64.0,-136.53333333333333,435.2
2358,68.26666666666667,-134.4,435.2
2359,68.26666666666667,-134.4,445.8666666666667
2360,61.86666666666667,-132.26666666666665,435.2
2361,68.26666666666667,-132.26666666666665,439.46666666666664
2362,61.86666666666667,-128.0,439.46666666666664
2363,66.13333333333333,-121.6,443.73333333333335
2364,74.66666666666667,-125.86666666666666,443.73333333333335
2365,68.26666666666667,-117.33333333333333,443.73333333333335
2366,78.93333333333334,-121.6,435.2
2367,78.93333333333334,-113.06666666666666,448.0
2368,78.93333333333334,-108.8,448.0
2369,76.8,-104.53333333333333,448.0
2370,81.06666666666666,-102.4,450.1333333333333
2371,81.06666666666666,-102.4,454.4
2372,81.06666666666666,-96.0,454.4
2373,85.33333333333333,-96.0,452.26666666666665
2374,81.06666666666666,-98.13333333333333,450.1333333333333
2375,76.8,-96.0,443.73333333333335
2376,81.06666666666666,-93.86666666666666,433.06666666666666
2377,85.33333333333333,-89.6,445.8666666666667
2378,81.06666666666666,-102.4,437.3333333333333
2379,83.2,-102.4,437.3333333333333
2380,87.46666666666667,-102.4,430.93333333333334
2381,89.6,-104.53333333333333,437.3333333333333
2382,89.6,-106.66666666666667,428.8
2383,93.86666666666666,-104.53333333333333,424.5333333333333
2384,91.73333333333333,-108.8,424.5333333333333
2385,87.46666666666667,-102.4,424.5333333333333
2386,91.73333333333333,-108.8,433.06666666666666
2387,89.6,-125.86666666666666,418.1333333333333
2388,83.2,-108.8,433.06666666666666
2389,81.06666666666666,-119.46666666666667,426.6666666666667
2390,85.33333333333333,-117.33333333333333,428.8
2391,83.2,-121.6,430.93333333333334
2392,83.2,-123.73333333333333,424.5333333333333
2393,87.46666666666667,-130.13333333333333,424.5333333333333
2394,81.06666666666666,-121.6,433.06666666666666
2395,78.93333333333334,-123.73333333333333,428.8
2396,83.2,-123.73333333333333,433.06666666666666
2397,78.93333333333334,-119.46666666666667,433.06666666666666
2398,83.2,-113.06666666666666,430.93333333333334
2399,76.8,-121.6,433.06666666666666
