,accelerometerAccelerationX(G),accelerometerAccelerationY(G),accelerometerAccelerationZ(G)
0,-113.06666666666666,-66.13333333333333,550.4
1,-117.33333333333333,-57.6,548.2666666666667
2,-119.46666666666667,-59.733333333333334,548.2666666666667
3,-119.46666666666667,-59.733333333333334,546.1333333333333
4,-119.46666666666667,-61.86666666666667,546.1333333333333
5,-110.93333333333334,-66.13333333333333,539.7333333333333
6,-93.86666666666666,-51.2,550.4
7,-98.13333333333333,-40.53333333333333,529.0666666666666
8,-104.53333333333333,-72.53333333333333,548.2666666666667
9,-125.86666666666666,-42.666666666666664,556.8
10,-106.66666666666667,-85.33333333333333,556.8
11,-119.46666666666667,-51.2,541.8666666666667
12,-119.46666666666667,-38.4,554.6666666666666
13,-130.13333333333333,-66.13333333333333,541.8666666666667
14,-119.46666666666667,-66.13333333333333,503.46666666666664
15,-100.26666666666667,-64.0,535.4666666666667
16,-117.33333333333333,-64.0,550.4
17,-119.46666666666667,-64.0,554.6666666666666
18,-117.33333333333333,-66.13333333333333,546.1333333333333
19,-119.46666666666667,-68.26666666666667,554.6666666666666
20,-119.46666666666667,-59.733333333333334,548.2666666666667
21,-113.06666666666666,-68.26666666666667,539.7333333333333
22,-117.33333333333333,-68.26666666666667,546.1333333333333
23,-110.93333333333334,-68.26666666666667,546.1333333333333
24,-117.33333333333333,-68.26666666666667,550.4
25,-115.2,-66.13333333333333,546.1333333333333
26,-119.46666666666667,-66.13333333333333,544.0
27,-113.06666666666666,-66.13333333333333,546.1333333333333
28,-117.33333333333333,-64.0,544.0
29,-113.06666666666666,-76.8,546.1333333333333
30,-115.2,-64.0,546.1333333333333
31,-119.46666666666667,-57.6,541.8666666666667
32,-115.2,-61.86666666666667,541.8666666666667
33,-115.2,-59.733333333333334,544.0
34,-115.2,-57.6,541.8666666666667
35,-113.06666666666666,-61.86666666666667,550.4
36,-117.33333333333333,-59.733333333333334,546.1333333333333
37,-117.33333333333333,-57.6,546.1333333333333
38,-110.93333333333334,-59.733333333333334,548.2666666666667
39,-117.33333333333333,-55.46666666666667,554.6666666666666
40,-115.2,-61.86666666666667,550.4
41,-115.2,-61.86666666666667,541.8666666666667
42,-117.33333333333333,-59.733333333333334,546.1333333333333
43,-119.46666666666667,-66.13333333333333,546.1333333333333
44,-115.2,-57.6,544.0
45,-115.2,-59.733333333333334,546.1333333333333
46,-117.33333333333333,-61.86666666666667,546.1333333333333
47,-115.2,-61.86666666666667,550.4
48,-117.33333333333333,-59.733333333333334,544.0
49,-119.46666666666667,-59.733333333333334,544.0
50,-121.6,-57.6,539.7333333333333
51,-115.2,-68.26666666666667,541.8666666666667
52,-119.46666666666667,-59.733333333333334,544.0
53,-117.33333333333333,-55.46666666666667,546.1333333333333
54,-117.33333333333333,-59.733333333333334,546.1333333333333
55,-119.46666666666667,-64.0,544.0
56,-117.33333333333333,-64.0,544.0
57,-110.93333333333334,-68.26666666666667,546.1333333333333
58,-117.33333333333333,-64.0,550.4
59,-115.2,-57.6,537.6
60,-113.06666666666666,-68.26666666666667,548.2666666666667
61,-119.46666666666667,-66.13333333333333,548.2666666666667
62,-117.33333333333333,-59.733333333333334,544.0
63,-115.2,-61.86666666666667,548.2666666666667
64,-123.73333333333333,-64.0,546.1333333333333
65,-117.33333333333333,-55.46666666666667,546.1333333333333
66,-117.33333333333333,-59.733333333333334,546.1333333333333
67,-117.33333333333333,-59.733333333333334,548.2666666666667
68,-113.06666666666666,-55.46666666666667,546.1333333333333
69,-119.46666666666667,-55.46666666666667,544.0
70,-113.06666666666666,-61.86666666666667,546.1333333333333
71,-117.33333333333333,-66.13333333333333,546.1333333333333
72,-117.33333333333333,-68.26666666666667,546.1333333333333
73,-113.06666666666666,-61.86666666666667,544.0
74,-115.2,-59.733333333333334,544.0
75,-115.2,-61.86666666666667,546.1333333333333
76,-117.33333333333333,-53.333333333333336,550.4
77,-121.6,-57.6,554.6666666666666
78,-121.6,-55.46666666666667,544.0
79,-119.46666666666667,-59.733333333333334,548.2666666666667
80,-119.46666666666667,-55.46666666666667,548.2666666666667
81,-117.33333333333333,-59.733333333333334,546.1333333333333
82,-115.2,-61.86666666666667,544.0
83,-119.46666666666667,-55.46666666666667,541.8666666666667
84,-113.06666666666666,-57.6,546.1333333333333
85,-117.33333333333333,-59.733333333333334,546.1333333333333
86,-117.33333333333333,-57.6,548.2666666666667
87,-117.33333333333333,-57.6,544.0
88,-115.2,-55.46666666666667,550.4
89,-115.2,-53.333333333333336,548.2666666666667
90,-117.33333333333333,-55.46666666666667,541.8666666666667
91,-117.33333333333333,-55.46666666666667,546.1333333333333
92,-121.6,-59.733333333333334,550.4
93,-113.06666666666666,-55.46666666666667,546.1333333333333
94,-117.33333333333333,-49.06666666666666,544.0
95,-119.46666666666667,-57.6,544.0
96,-115.2,-55.46666666666667,550.4
97,-110.93333333333334,-53.333333333333336,548.2666666666667
98,-110.93333333333334,-55.46666666666667,546.1333333333333
99,-119.46666666666667,-55.46666666666667,548.2666666666667
100,-125.86666666666666,-53.333333333333336,544.0
101,-119.46666666666667,-51.2,548.2666666666667
102,-119.46666666666667,-49.06666666666666,541.8666666666667
103,-115.2,-51.2,548.2666666666667
104,-115.2,-51.2,554.6666666666666
105,-113.06666666666666,-51.2,552.5333333333333
106,-117.33333333333333,-44.8,544.0
107,-119.46666666666667,-49.06666666666666,544.0
108,-117.33333333333333,-51.2,552.5333333333333
109,-119.46666666666667,-44.8,548.2666666666667
110,-117.33333333333333,-46.93333333333333,550.4
111,-117.33333333333333,-49.06666666666666,544.0
112,-113.06666666666666,-49.06666666666666,548.2666666666667
113,-113.06666666666666,-51.2,546.1333333333333
114,-117.33333333333333,-46.93333333333333,550.4
115,-117.33333333333333,-46.93333333333333,546.1333333333333
116,-115.2,-53.333333333333336,550.4
117,-113.06666666666666,-46.93333333333333,550.4
118,-121.6,-46.93333333333333,548.2666666666667
119,-115.2,-46.93333333333333,550.4
120,-113.06666666666666,-51.2,554.6666666666666
121,-115.2,-40.53333333333333,546.1333333333333
122,-119.46666666666667,-42.666666666666664,550.4
123,-115.2,-51.2,548.2666666666667
124,-113.06666666666666,-44.8,552.5333333333333
125,-119.46666666666667,-40.53333333333333,546.1333333333333
126,-117.33333333333333,-44.8,548.2666666666667
127,-113.06666666666666,-42.666666666666664,546.1333333333333
128,-106.66666666666667,-46.93333333333333,552.5333333333333
129,-117.33333333333333,-42.666666666666664,550.4
130,-113.06666666666666,-40.53333333333333,548.2666666666667
131,-119.46666666666667,-46.93333333333333,552.5333333333333
132,-113.06666666666666,-49.06666666666666,552.5333333333333
133,-110.93333333333334,-40.53333333333333,550.4
134,-106.66666666666667,-53.333333333333336,541.8666666666667
135,-117.33333333333333,-38.4,546.1333333333333
136,-113.06666666666666,-49.06666666666666,550.4
137,-119.46666666666667,-40.53333333333333,546.1333333333333
138,-115.2,-46.93333333333333,546.1333333333333
139,-113.06666666666666,-42.666666666666664,544.0
140,-115.2,-40.53333333333333,548.2666666666667
141,-119.46666666666667,-38.4,546.1333333333333
142,-115.2,-42.666666666666664,552.5333333333333
143,-119.46666666666667,-36.266666666666666,546.1333333333333
144,-115.2,-38.4,548.2666666666667
145,-119.46666666666667,-40.53333333333333,548.2666666666667
146,-115.2,-38.4,554.6666666666666
147,-115.2,-38.4,544.0
148,-117.33333333333333,-38.4,546.1333333333333
149,-115.2,-44.8,546.1333333333333
150,-115.2,-36.266666666666666,550.4
151,-115.2,-38.4,548.2666666666667
152,-113.06666666666666,-36.266666666666666,544.0
153,-115.2,-32.0,550.4
154,-115.2,-38.4,550.4
155,-113.06666666666666,-36.266666666666666,548.2666666666667
156,-117.33333333333333,-29.866666666666667,541.8666666666667
157,-121.6,-34.13333333333333,548.2666666666667
158,-115.2,-34.13333333333333,550.4
159,-117.33333333333333,-36.266666666666666,550.4
160,-110.93333333333334,-44.8,548.2666666666667
161,-115.2,-34.13333333333333,546.1333333333333
162,-113.06666666666666,-36.266666666666666,554.6666666666666
163,-106.66666666666667,-32.0,550.4
164,-113.06666666666666,-36.266666666666666,548.2666666666667
165,-110.93333333333334,-32.0,554.6666666666666
166,-110.93333333333334,-40.53333333333333,546.1333333333333
167,-119.46666666666667,-36.266666666666666,546.1333333333333
168,-115.2,-32.0,550.4
169,-115.2,-32.0,544.0
170,-115.2,-34.13333333333333,548.2666666666667
171,-110.93333333333334,-34.13333333333333,550.4
172,-117.33333333333333,-34.13333333333333,546.1333333333333
173,-115.2,-29.866666666666667,548.2666666666667
174,-115.2,-29.866666666666667,544.0
175,-119.46666666666667,-27.733333333333334,546.1333333333333
176,-115.2,-34.13333333333333,554.6666666666666
177,-117.33333333333333,-29.866666666666667,550.4
178,-113.06666666666666,-32.0,546.1333333333333
179,-93.86666666666666,-34.13333333333333,567.4666666666667
180,-110.93333333333334,-32.0,548.2666666666667
181,-117.33333333333333,-34.13333333333333,550.4
182,-119.46666666666667,-32.0,548.2666666666667
183,-113.06666666666666,-34.13333333333333,552.5333333333333
184,-108.8,-38.4,552.5333333333333
185,-123.73333333333333,-25.6,546.1333333333333
186,-115.2,-25.6,548.2666666666667
187,-115.2,-27.733333333333334,546.1333333333333
188,-117.33333333333333,-27.733333333333334,554.6666666666666
189,-104.53333333333333,-32.0,548.2666666666667
190,-119.46666666666667,-23.466666666666665,537.6
191,-106.66666666666667,-25.6,550.4
192,-115.2,-27.733333333333334,544.0
193,-115.2,-17.066666666666666,548.2666666666667
194,-115.2,-25.6,548.2666666666667
195,-113.06666666666666,-17.066666666666666,544.0
196,-115.2,-21.333333333333332,550.4
197,-113.06666666666666,-17.066666666666666,554.6666666666666
198,-115.2,-19.2,541.8666666666667
199,-115.2,-23.466666666666665,550.4
200,-113.06666666666666,-14.933333333333334,550.4
201,-102.4,-21.333333333333332,563.2
202,-110.93333333333334,-19.2,550.4
203,-110.93333333333334,-25.6,550.4
204,-113.06666666666666,-17.066666666666666,550.4
205,-108.8,-14.933333333333334,550.4
206,-115.2,-23.466666666666665,548.2666666666667
207,-108.8,-19.2,552.5333333333333
208,-113.06666666666666,-14.933333333333334,554.6666666666666
209,-113.06666666666666,-8.533333333333333,550.4
210,-108.8,-21.333333333333332,552.5333333333333
211,-113.06666666666666,-19.2,558.9333333333333
212,-113.06666666666666,-19.2,556.8
213,-117.33333333333333,-14.933333333333334,544.0
214,-113.06666666666666,-17.066666666666666,550.4
215,-117.33333333333333,-17.066666666666666,552.5333333333333
216,-115.2,-19.2,550.4
217,-108.8,-19.2,550.4
218,-110.93333333333334,-23.466666666666665,546.1333333333333
219,-113.06666666666666,-12.8,550.4
220,-113.06666666666666,-17.066666666666666,550.4
221,-108.8,-21.333333333333332,552.5333333333333
222,-110.93333333333334,-21.333333333333332,552.5333333333333
223,-108.8,-23.466666666666665,546.1333333333333
224,-115.2,-17.066666666666666,548.2666666666667
225,-113.06666666666666,-14.933333333333334,550.4
226,-110.93333333333334,-17.066666666666666,546.1333333333333
227,-113.06666666666666,-19.2,546.1333333333333
228,-106.66666666666667,-12.8,550.4
229,-113.06666666666666,-23.466666666666665,550.4
230,-110.93333333333334,-12.8,546.1333333333333
231,-110.93333333333334,-14.933333333333334,544.0
232,-117.33333333333333,-12.8,552.5333333333333
233,-113.06666666666666,-14.933333333333334,554.6666666666666
234,-110.93333333333334,-8.533333333333333,546.1333333333333
235,-108.8,-14.933333333333334,554.6666666666666
236,-110.93333333333334,-6.4,550.4
237,-110.93333333333334,-17.066666666666666,556.8
238,-108.8,-6.4,550.4
239,-110.93333333333334,-12.8,554.6666666666666
240,-106.66666666666667,-12.8,550.4
241,-113.06666666666666,-8.533333333333333,550.4
242,-113.06666666666666,-4.266666666666667,548.2666666666667
243,-110.93333333333334,-17.066666666666666,554.6666666666666
244,-102.4,-25.6,565.3333333333334
245,-108.8,-12.8,548.2666666666667
246,-106.66666666666667,-12.8,552.5333333333333
247,-117.33333333333333,-12.8,552.5333333333333
248,-113.06666666666666,-2.1333333333333333,550.4
249,-104.53333333333333,-17.066666666666666,554.6666666666666
250,-113.06666666666666,-21.333333333333332,552.5333333333333
251,-100.26666666666667,-17.066666666666666,548.2666666666667
252,-115.2,-4.266666666666667,550.4
253,-113.06666666666666,-2.1333333333333333,546.1333333333333
254,-117.33333333333333,-8.533333333333333,546.1333333333333
255,-110.93333333333334,-2.1333333333333333,554.6666666666666
256,-108.8,-10.666666666666666,554.6666666666666
257,-108.8,-6.4,550.4
258,-106.66666666666667,-8.533333333333333,550.4
259,-113.06666666666666,-6.4,552.5333333333333
260,-113.06666666666666,-4.266666666666667,546.1333333333333
261,-108.8,-8.533333333333333,552.5333333333333
262,-113.06666666666666,-6.4,552.5333333333333
263,-110.93333333333334,-10.666666666666666,550.4
264,-113.06666666666666,-8.533333333333333,548.2666666666667
265,-113.06666666666666,-6.4,550.4
266,-113.06666666666666,4.266666666666667,550.4
267,-108.8,-12.8,550.4
268,-108.8,-10.666666666666666,548.2666666666667
269,-115.2,0.0,552.5333333333333
270,-115.2,-6.4,554.6666666666666
271,-110.93333333333334,-8.533333333333333,552.5333333333333
272,-108.8,-2.1333333333333333,554.6666666666666
273,-117.33333333333333,0.0,548.2666666666667
274,-108.8,-4.266666666666667,552.5333333333333
275,-110.93333333333334,0.0,550.4
276,-108.8,2.1333333333333333,552.5333333333333
277,-106.66666666666667,-6.4,552.5333333333333
278,-110.93333333333334,-2.1333333333333333,548.2666666666667
279,-115.2,0.0,550.4
280,-113.06666666666666,-4.266666666666667,556.8
281,-108.8,-4.266666666666667,550.4
282,-115.2,-4.266666666666667,556.8
283,-115.2,0.0,548.2666666666667
284,-113.06666666666666,-2.1333333333333333,548.2666666666667
285,-113.06666666666666,0.0,548.2666666666667
286,-113.06666666666666,2.1333333333333333,550.4
287,-113.06666666666666,0.0,546.1333333333333
288,-113.06666666666666,0.0,565.3333333333334
289,-115.2,-2.1333333333333333,552.5333333333333
290,-115.2,-4.266666666666667,546.1333333333333
291,-110.93333333333334,-4.266666666666667,552.5333333333333
292,-113.06666666666666,0.0,552.5333333333333
293,-110.93333333333334,0.0,554.6666666666666
294,-110.93333333333334,0.0,556.8
295,-113.06666666666666,0.0,552.5333333333333
296,-113.06666666666666,-2.1333333333333333,558.9333333333333
297,-108.8,0.0,550.4
298,-113.06666666666666,0.0,556.8
299,-117.33333333333333,0.0,561.0666666666666
300,-110.93333333333334,0.0,548.2666666666667
301,-110.93333333333334,-2.1333333333333333,552.5333333333333
302,-110.93333333333334,0.0,554.6666666666666
303,-106.66666666666667,0.0,548.2666666666667
304,-115.2,0.0,546.1333333333333
305,-117.33333333333333,0.0,554.6666666666666
306,-113.06666666666666,0.0,554.6666666666666
307,-113.06666666666666,2.1333333333333333,552.5333333333333
308,-113.06666666666666,4.266666666666667,550.4
309,-117.33333333333333,-4.266666666666667,552.5333333333333
310,-117.33333333333333,2.1333333333333333,554.6666666666666
311,-117.33333333333333,2.1333333333333333,550.4
312,-117.33333333333333,4.266666666666667,554.6666666666666
313,-115.2,0.0,552.5333333333333
314,-117.33333333333333,0.0,552.5333333333333
315,-115.2,2.1333333333333333,552.5333333333333
316,-113.06666666666666,4.266666666666667,548.2666666666667
317,-117.33333333333333,4.266666666666667,552.5333333333333
318,-113.06666666666666,4.266666666666667,554.6666666666666
319,-115.2,2.1333333333333333,552.5333333333333
320,-121.6,4.266666666666667,550.4
321,-113.06666666666666,2.1333333333333333,550.4
322,-115.2,2.1333333333333333,554.6666666666666
323,-108.8,2.1333333333333333,544.0
324,-113.06666666666666,6.4,554.6666666666666
325,-121.6,0.0,548.2666666666667
326,-115.2,4.266666666666667,552.5333333333333
327,-117.33333333333333,0.0,552.5333333333333
328,-115.2,2.1333333333333333,548.2666666666667
329,-121.6,4.266666666666667,554.6666666666666
330,-113.06666666666666,4.266666666666667,552.5333333333333
331,-96.0,6.4,567.4666666666667
332,-119.46666666666667,2.1333333333333333,550.4
333,-115.2,2.1333333333333333,548.2666666666667
334,-115.2,2.1333333333333333,552.5333333333333
335,-113.06666666666666,0.0,552.5333333333333
336,-119.46666666666667,2.1333333333333333,554.6666666666666
337,-117.33333333333333,4.266666666666667,546.1333333333333
338,-115.2,0.0,552.5333333333333
339,-117.33333333333333,0.0,550.4
340,-113.06666666666666,0.0,550.4
341,-119.46666666666667,-4.266666666666667,548.2666666666667
342,-110.93333333333334,2.1333333333333333,552.5333333333333
343,-121.6,2.1333333333333333,554.6666666666666
344,-121.6,2.1333333333333333,558.9333333333333
345,-115.2,4.266666666666667,552.5333333333333
346,-121.6,0.0,550.4
347,-121.6,0.0,552.5333333333333
348,-121.6,0.0,558.9333333333333
349,-119.46666666666667,6.4,556.8
350,-119.46666666666667,4.266666666666667,558.9333333333333
351,-117.33333333333333,0.0,554.6666666666666
352,-119.46666666666667,2.1333333333333333,565.3333333333334
353,-121.6,2.1333333333333333,565.3333333333334
354,-123.73333333333333,6.4,554.6666666666666
355,-121.6,4.266666666666667,556.8
356,-119.46666666666667,6.4,552.5333333333333
357,-119.46666666666667,6.4,561.0666666666666
358,-119.46666666666667,8.533333333333333,558.9333333333333
359,-125.86666666666666,8.533333333333333,556.8
360,-119.46666666666667,8.533333333333333,548.2666666666667
361,-128.0,17.066666666666666,552.5333333333333
362,-121.6,14.933333333333334,548.2666666666667
363,-128.0,8.533333333333333,548.2666666666667
364,-128.0,8.533333333333333,544.0
365,-132.26666666666665,12.8,546.1333333333333
366,-130.13333333333333,4.266666666666667,537.6
367,-128.0,12.8,548.2666666666667
368,-134.4,0.0,552.5333333333333
369,-134.4,0.0,554.6666666666666
370,-134.4,0.0,556.8
371,-138.66666666666666,-2.1333333333333333,558.9333333333333
372,-145.06666666666666,-4.266666666666667,558.9333333333333
373,-145.06666666666666,-8.533333333333333,556.8
374,-142.93333333333334,-19.2,571.7333333333333
375,-140.8,-6.4,567.4666666666667
376,-157.86666666666667,-4.266666666666667,576.0
377,-157.86666666666667,-6.4,571.7333333333333
378,-164.26666666666665,-2.1333333333333333,571.7333333333333
379,-157.86666666666667,-4.266666666666667,565.3333333333334
380,-170.66666666666666,-2.1333333333333333,569.6
381,-172.8,-6.4,556.8
382,-172.8,-10.666666666666666,561.0666666666666
383,-183.46666666666667,-2.1333333333333333,561.0666666666666
384,-177.06666666666666,0.0,561.0666666666666
385,-181.33333333333334,-8.533333333333333,552.5333333333333
386,-181.33333333333334,0.0,550.4
387,-179.2,-4.266666666666667,554.6666666666666
388,-174.93333333333334,-8.533333333333333,544.0
389,-174.93333333333334,-19.2,552.5333333333333
390,-174.93333333333334,-10.666666666666666,548.2666666666667
391,-174.93333333333334,-12.8,558.9333333333333
392,-170.66666666666666,-19.2,552.5333333333333
393,-166.4,-23.466666666666665,550.4
394,-160.0,-23.466666666666665,561.0666666666666
395,-162.13333333333333,-32.0,567.4666666666667
396,-164.26666666666665,-36.266666666666666,563.2
397,-170.66666666666666,-42.666666666666664,565.3333333333334
398,-157.86666666666667,-36.266666666666666,578.1333333333333
399,-160.0,-36.266666666666666,580.2666666666667
400,-160.0,-44.8,586.6666666666666
401,-149.33333333333334,-32.0,584.5333333333333
402,-142.93333333333334,-34.13333333333333,582.4
403,-121.6,-29.866666666666667,576.0
404,-98.13333333333333,-32.0,580.2666666666667
405,-91.73333333333333,-17.066666666666666,586.6666666666666
406,-87.46666666666667,-19.2,588.8
407,-83.2,-10.666666666666666,588.8
408,-85.33333333333333,-2.1333333333333333,588.8
409,-91.73333333333333,0.0,588.8
410,-104.53333333333333,2.1333333333333333,586.6666666666666
411,-108.8,0.0,582.4
412,-110.93333333333334,6.4,576.0
413,-119.46666666666667,8.533333333333333,571.7333333333333
414,-104.53333333333333,6.4,561.0666666666666
415,-117.33333333333333,10.666666666666666,558.9333333333333
416,-115.2,10.666666666666666,565.3333333333334
417,-117.33333333333333,25.6,558.9333333333333
418,-125.86666666666666,19.2,548.2666666666667
419,-125.86666666666666,29.866666666666667,552.5333333333333
420,-132.26666666666665,32.0,550.4
421,-134.4,34.13333333333333,554.6666666666666
422,-132.26666666666665,29.866666666666667,546.1333333333333
423,-145.06666666666666,34.13333333333333,556.8
424,-142.93333333333334,34.13333333333333,556.8
425,-147.2,40.53333333333333,550.4
426,-151.46666666666667,42.666666666666664,552.5333333333333
427,-162.13333333333333,40.53333333333333,546.1333333333333
428,-174.93333333333334,40.53333333333333,535.4666666666667
429,-181.33333333333334,34.13333333333333,531.2
430,-196.26666666666665,32.0,535.4666666666667
431,-206.93333333333334,25.6,518.4
432,-213.33333333333334,12.8,518.4
433,-234.66666666666666,6.4,514.1333333333333
434,-253.86666666666667,-6.4,512.0
435,-256.0,-19.2,501.3333333333333
436,-253.86666666666667,-32.0,499.2
437,-256.0,-40.53333333333333,480.0
438,-262.4,-44.8,480.0
439,-260.26666666666665,-53.333333333333336,462.93333333333334
440,-264.5333333333333,-64.0,460.8
441,-268.8,-55.46666666666667,462.93333333333334
442,-264.5333333333333,-55.46666666666667,454.4
443,-268.8,-53.333333333333336,452.26666666666665
444,-268.8,-57.6,452.26666666666665
445,-264.5333333333333,-40.53333333333333,433.06666666666666
446,-264.5333333333333,-32.0,433.06666666666666
447,-268.8,-14.933333333333334,422.4
448,-279.46666666666664,-6.4,416.0
449,-268.8,-2.1333333333333333,411.73333333333335
450,-275.2,10.666666666666666,413.8666666666667
451,-273.06666666666666,17.066666666666666,396.8
452,-270.93333333333334,32.0,396.8
453,-262.4,42.666666666666664,390.4
454,-253.86666666666667,46.93333333333333,390.4
455,-245.33333333333334,59.733333333333334,369.06666666666666
456,-236.79999999999998,61.86666666666667,369.06666666666666
457,-226.13333333333333,61.86666666666667,364.8
458,-213.33333333333334,66.13333333333333,356.26666666666665
459,-196.26666666666665,64.0,364.8
460,-172.8,57.6,377.6
461,-153.6,53.333333333333336,347.73333333333335
462,-140.8,51.2,364.8
463,-138.66666666666666,59.733333333333334,377.6
464,-134.4,57.6,377.6
465,-132.26666666666665,51.2,396.8
466,-130.13333333333333,46.93333333333333,394.6666666666667
467,-121.6,38.4,409.6
468,-153.6,44.8,420.26666666666665
469,-181.33333333333334,38.4,428.8
470,-164.26666666666665,42.666666666666664,437.3333333333333
471,-187.73333333333332,36.266666666666666,441.59999999999997
472,-204.8,25.6,441.59999999999997
473,-256.0,25.6,452.26666666666665
474,-279.46666666666664,8.533333333333333,448.0
475,-279.46666666666664,-2.1333333333333333,448.0
476,-298.6666666666667,0.0,450.1333333333333
477,-324.26666666666665,-25.6,450.1333333333333
478,-330.6666666666667,-40.53333333333333,450.1333333333333
479,-305.06666666666666,-53.333333333333336,452.26666666666665
480,-339.2,-66.13333333333333,448.0
481,-326.4,-72.53333333333333,450.1333333333333
482,-313.6,-76.8,445.8666666666667
483,-292.26666666666665,-85.33333333333333,450.1333333333333
484,-309.3333333333333,-87.46666666666667,458.6666666666667
485,-288.0,-72.53333333333333,469.3333333333333
486,-296.5333333333333,-68.26666666666667,471.46666666666664
487,-294.4,-53.333333333333336,484.26666666666665
488,-296.5333333333333,-32.0,501.3333333333333
489,-279.46666666666664,-40.53333333333333,507.73333333333335
490,-307.2,-38.4,529.0666666666666
491,-313.6,-38.4,546.1333333333333
492,-320.0,-34.13333333333333,561.0666666666666
493,-330.6666666666667,-36.266666666666666,561.0666666666666
494,-347.73333333333335,-49.06666666666666,561.0666666666666
495,-356.26666666666665,-64.0,571.7333333333333
496,-369.06666666666666,-83.2,578.1333333333333
497,-377.6,-98.13333333333333,578.1333333333333
498,-381.8666666666667,-110.93333333333334,586.6666666666666
499,-392.5333333333333,-123.73333333333333,590.9333333333333
500,-381.8666666666667,-134.4,588.8
501,-384.0,-130.13333333333333,595.2
502,-371.2,-132.26666666666665,578.1333333333333
503,-356.26666666666665,-121.6,567.4666666666667
504,-352.0,-108.8,561.0666666666666
505,-294.4,-78.93333333333334,561.0666666666666
506,-311.46666666666664,-93.86666666666666,539.7333333333333
507,-358.4,-78.93333333333334,537.6
508,-332.8,-66.13333333333333,514.1333333333333
509,-311.46666666666664,-64.0,507.73333333333335
510,-264.5333333333333,-29.866666666666667,516.2666666666667
511,-283.73333333333335,-55.46666666666667,484.26666666666665
512,-352.0,-70.4,477.8666666666667
513,-334.93333333333334,-70.4,471.46666666666664
514,-302.93333333333334,-70.4,456.5333333333333
515,-302.93333333333334,-61.86666666666667,452.26666666666665
516,-307.2,-53.333333333333336,448.0
517,-311.46666666666664,-61.86666666666667,428.8
518,-322.1333333333333,-53.333333333333336,430.93333333333334
519,-324.26666666666665,-42.666666666666664,413.8666666666667
520,-334.93333333333334,-38.4,407.46666666666664
521,-339.2,-36.266666666666666,411.73333333333335
522,-352.0,-40.53333333333333,409.6
523,-362.6666666666667,-32.0,407.46666666666664
524,-369.06666666666666,-32.0,405.3333333333333
525,-373.3333333333333,-34.13333333333333,403.2
526,-379.73333333333335,-23.466666666666665,407.46666666666664
527,-392.5333333333333,-29.866666666666667,401.06666666666666
528,-396.8,-21.333333333333332,407.46666666666664
529,-405.3333333333333,-29.866666666666667,403.2
530,-403.2,-32.0,394.6666666666667
531,-411.73333333333335,-34.13333333333333,394.6666666666667
532,-413.8666666666667,-36.266666666666666,396.8
533,-409.6,-44.8,403.2
534,-418.1333333333333,-40.53333333333333,401.06666666666666
535,-411.73333333333335,-55.46666666666667,403.2
536,-409.6,-55.46666666666667,407.46666666666664
537,-403.2,-66.13333333333333,413.8666666666667
538,-409.6,-61.86666666666667,416.0
539,-396.8,-68.26666666666667,416.0
540,-394.6666666666667,-66.13333333333333,418.1333333333333
541,-396.8,-68.26666666666667,411.73333333333335
542,-392.5333333333333,-76.8,418.1333333333333
543,-379.73333333333335,-83.2,420.26666666666665
544,-379.73333333333335,-78.93333333333334,420.26666666666665
545,-377.6,-85.33333333333333,422.4
546,-364.8,-93.86666666666666,420.26666666666665
547,-360.5333333333333,-93.86666666666666,418.1333333333333
548,-354.1333333333333,-104.53333333333333,418.1333333333333
549,-343.46666666666664,-117.33333333333333,411.73333333333335
550,-349.8666666666667,-113.06666666666666,411.73333333333335
551,-343.46666666666664,-110.93333333333334,411.73333333333335
552,-339.2,-117.33333333333333,413.8666666666667
553,-345.6,-121.6,411.73333333333335
554,-337.06666666666666,-119.46666666666667,405.3333333333333
555,-343.46666666666664,-125.86666666666666,409.6
556,-337.06666666666666,-128.0,403.2
557,-334.93333333333334,-125.86666666666666,407.46666666666664
558,-349.8666666666667,-123.73333333333333,398.93333333333334
559,-349.8666666666667,-132.26666666666665,403.2
560,-345.6,-125.86666666666666,398.93333333333334
561,-354.1333333333333,-121.6,390.4
562,-358.4,-125.86666666666666,388.26666666666665
563,-356.26666666666665,-115.2,388.26666666666665
564,-362.6666666666667,-121.6,390.4
565,-360.5333333333333,-113.06666666666666,379.73333333333335
566,-371.2,-108.8,384.0
567,-366.93333333333334,-117.33333333333333,381.8666666666667
568,-379.73333333333335,-110.93333333333334,371.2
569,-384.0,-115.2,373.3333333333333
570,-377.6,-110.93333333333334,384.0
571,-388.26666666666665,-108.8,364.8
572,-392.5333333333333,-108.8,360.5333333333333
573,-396.8,-106.66666666666667,366.93333333333334
574,-401.06666666666666,-104.53333333333333,364.8
575,-401.06666666666666,-110.93333333333334,366.93333333333334
576,-401.06666666666666,-108.8,364.8
577,-407.46666666666664,-106.66666666666667,362.6666666666667
578,-405.3333333333333,-117.33333333333333,345.6
579,-405.3333333333333,-113.06666666666666,354.1333333333333
580,-411.73333333333335,-117.33333333333333,347.73333333333335
581,-411.73333333333335,-117.33333333333333,354.1333333333333
582,-416.0,-123.73333333333333,352.0
583,-416.0,-123.73333333333333,349.8666666666667
584,-422.4,-115.2,337.06666666666666
585,-422.4,-121.6,334.93333333333334
586,-433.06666666666666,-113.06666666666666,332.8
587,-428.8,-115.2,326.4
588,-430.93333333333334,-110.93333333333334,324.26666666666665
589,-430.93333333333334,-104.53333333333333,326.4
590,-439.46666666666664,-104.53333333333333,317.8666666666667
591,-435.2,-108.8,322.1333333333333
592,-445.8666666666667,-98.13333333333333,309.3333333333333
593,-441.59999999999997,-104.53333333333333,317.8666666666667
594,-441.59999999999997,-96.0,315.73333333333335
595,-437.3333333333333,-98.13333333333333,309.3333333333333
596,-441.59999999999997,-93.86666666666666,311.46666666666664
597,-445.8666666666667,-89.6,309.3333333333333
598,-445.8666666666667,-81.06666666666666,309.3333333333333
599,-441.59999999999997,-85.33333333333333,311.46666666666664
600,-448.0,-76.8,309.3333333333333
601,-448.0,-78.93333333333334,305.06666666666666
602,-448.0,-76.8,296.5333333333333
603,-448.0,-72.53333333333333,302.93333333333334
604,-445.8666666666667,-70.4,302.93333333333334
605,-450.1333333333333,-76.8,305.06666666666666
606,-458.6666666666667,-68.26666666666667,298.6666666666667
607,-454.4,-61.86666666666667,300.8
608,-454.4,-68.26666666666667,300.8
609,-452.26666666666665,-59.733333333333334,294.4
610,-458.6666666666667,-64.0,298.6666666666667
611,-458.6666666666667,-70.4,288.0
612,-458.6666666666667,-57.6,285.8666666666667
613,-465.06666666666666,-51.2,292.26666666666665
614,-469.3333333333333,-51.2,279.46666666666664
615,-467.2,-53.333333333333336,290.1333333333333
616,-458.6666666666667,-55.46666666666667,279.46666666666664
617,-469.3333333333333,-49.06666666666666,275.2
618,-460.8,-61.86666666666667,275.2
619,-475.73333333333335,-44.8,270.93333333333334
620,-477.8666666666667,-49.06666666666666,273.06666666666666
621,-475.73333333333335,-51.2,266.6666666666667
622,-482.1333333333333,-44.8,260.26666666666665
623,-484.26666666666665,-49.06666666666666,260.26666666666665
624,-497.06666666666666,-42.666666666666664,256.0
625,-501.3333333333333,-40.53333333333333,258.1333333333333
626,-501.3333333333333,-42.666666666666664,249.6
627,-503.46666666666664,-51.2,243.2
628,-512.0,-46.93333333333333,243.2
629,-512.0,-44.8,230.4
630,-522.6666666666666,-46.93333333333333,221.86666666666667
631,-524.8,-44.8,228.26666666666665
632,-520.5333333333333,-49.06666666666666,221.86666666666667
633,-529.0666666666666,-44.8,211.2
634,-524.8,-44.8,224.0
635,-524.8,-46.93333333333333,215.46666666666667
636,-529.0666666666666,-44.8,194.13333333333333
637,-535.4666666666667,-44.8,209.06666666666666
638,-533.3333333333334,-46.93333333333333,217.6
639,-531.2,-51.2,217.6
640,-529.0666666666666,-55.46666666666667,219.73333333333332
641,-526.9333333333333,-49.06666666666666,217.6
642,-533.3333333333334,-55.46666666666667,215.46666666666667
643,-524.8,-51.2,219.73333333333332
644,-518.4,-51.2,219.73333333333332
645,-520.5333333333333,-44.8,226.13333333333333
646,-512.0,-44.8,215.46666666666667
647,-522.6666666666666,-46.93333333333333,224.0
648,-524.8,-38.4,230.4
649,-514.1333333333333,-46.93333333333333,221.86666666666667
650,-516.2666666666667,-46.93333333333333,230.4
651,-520.5333333333333,-34.13333333333333,226.13333333333333
652,-516.2666666666667,-36.266666666666666,221.86666666666667
653,-518.4,-40.53333333333333,221.86666666666667
654,-514.1333333333333,-34.13333333333333,234.66666666666666
655,-512.0,-36.266666666666666,232.53333333333333
656,-520.5333333333333,-38.4,236.79999999999998
657,-516.2666666666667,-29.866666666666667,228.26666666666665
658,-518.4,-38.4,217.6
659,-518.4,-44.8,234.66666666666666
660,-516.2666666666667,-29.866666666666667,238.93333333333334
661,-505.59999999999997,-34.13333333333333,232.53333333333333
662,-503.46666666666664,-32.0,232.53333333333333
663,-516.2666666666667,-46.93333333333333,238.93333333333334
664,-497.06666666666666,-25.6,241.06666666666666
665,-494.93333333333334,-36.266666666666666,232.53333333333333
666,-497.06666666666666,-38.4,232.53333333333333
667,-524.8,-51.2,221.86666666666667
668,-518.4,-34.13333333333333,224.0
669,-497.06666666666666,-36.266666666666666,224.0
670,-501.3333333333333,-29.866666666666667,228.26666666666665
671,-507.73333333333335,-42.666666666666664,228.26666666666665
672,-529.0666666666666,-51.2,232.53333333333333
673,-518.4,-49.06666666666666,232.53333333333333
674,-507.73333333333335,-34.13333333333333,226.13333333333333
675,-507.73333333333335,-42.666666666666664,217.6
676,-512.0,-44.8,224.0
677,-509.8666666666667,-42.666666666666664,217.6
678,-501.3333333333333,-51.2,217.6
679,-516.2666666666667,-40.53333333333333,211.2
680,-516.2666666666667,-74.66666666666667,200.53333333333333
681,-520.5333333333333,-55.46666666666667,200.53333333333333
682,-497.06666666666666,-44.8,200.53333333333333
683,-505.59999999999997,-51.2,189.86666666666667
684,-503.46666666666664,-59.733333333333334,192.0
685,-512.0,-66.13333333333333,192.0
686,-524.8,-76.8,183.46666666666667
687,-516.2666666666667,-64.0,181.33333333333334
688,-503.46666666666664,-76.8,174.93333333333334
689,-503.46666666666664,-68.26666666666667,172.8
690,-512.0,-70.4,183.46666666666667
691,-507.73333333333335,-74.66666666666667,168.53333333333333
692,-520.5333333333333,-74.66666666666667,168.53333333333333
693,-529.0666666666666,-85.33333333333333,164.26666666666665
694,-514.1333333333333,-70.4,157.86666666666667
695,-505.59999999999997,-72.53333333333333,168.53333333333333
696,-514.1333333333333,-76.8,164.26666666666665
697,-522.6666666666666,-81.06666666666666,166.4
698,-529.0666666666666,-78.93333333333334,164.26666666666665
699,-520.5333333333333,-83.2,153.6
700,-512.0,-74.66666666666667,160.0
701,-520.5333333333333,-64.0,164.26666666666665
702,-520.5333333333333,-78.93333333333334,160.0
703,-529.0666666666666,-72.53333333333333,157.86666666666667
704,-539.7333333333333,-68.26666666666667,147.2
705,-529.0666666666666,-68.26666666666667,155.73333333333332
706,-520.5333333333333,-64.0,153.6
707,-524.8,-61.86666666666667,155.73333333333332
708,-529.0666666666666,-64.0,157.86666666666667
709,-535.4666666666667,-61.86666666666667,160.0
710,-537.6,-72.53333333333333,166.4
711,-537.6,-70.4,162.13333333333333
712,-531.2,-61.86666666666667,155.73333333333332
713,-537.6,-68.26666666666667,153.6
714,-537.6,-61.86666666666667,162.13333333333333
715,-541.8666666666667,-68.26666666666667,151.46666666666667
716,-546.1333333333333,-59.733333333333334,145.06666666666666
717,-546.1333333333333,-59.733333333333334,147.2
718,-541.8666666666667,-59.733333333333334,140.8
719,-548.2666666666667,-57.6,134.4
720,-546.1333333333333,-49.06666666666666,140.8
721,-548.2666666666667,-51.2,134.4
722,-561.0666666666666,-78.93333333333334,117.33333333333333
723,-565.3333333333334,-51.2,104.53333333333333
724,-546.1333333333333,-53.333333333333336,108.8
725,-546.1333333333333,-44.8,93.86666666666666
726,-537.6,-38.4,87.46666666666667
727,-546.1333333333333,-38.4,81.06666666666666
728,-552.5333333333333,-36.266666666666666,72.53333333333333
729,-541.8666666666667,-27.733333333333334,70.4
730,-539.7333333333333,-14.933333333333334,57.6
731,-537.6,-8.533333333333333,55.46666666666667
732,-529.0666666666666,-12.8,64.0
733,-535.4666666666667,0.0,23.466666666666665
734,-533.3333333333334,10.666666666666666,36.266666666666666
735,-531.2,6.4,34.13333333333333
736,-526.9333333333333,10.666666666666666,17.066666666666666
737,-522.6666666666666,21.333333333333332,23.466666666666665
738,-522.6666666666666,12.8,17.066666666666666
739,-529.0666666666666,19.2,12.8
740,-529.0666666666666,12.8,17.066666666666666
741,-526.9333333333333,4.266666666666667,8.533333333333333
742,-524.8,-4.266666666666667,12.8
743,-526.9333333333333,-10.666666666666666,12.8
744,-526.9333333333333,-21.333333333333332,21.333333333333332
745,-531.2,-36.266666666666666,17.066666666666666
746,-529.0666666666666,-36.266666666666666,6.4
747,-526.9333333333333,-38.4,12.8
748,-520.5333333333333,-49.06666666666666,8.533333333333333
749,-524.8,-57.6,2.1333333333333333
750,-524.8,-55.46666666666667,2.1333333333333333
751,-531.2,-51.2,-2.1333333333333333
752,-522.6666666666666,-55.46666666666667,-4.266666666666667
753,-524.8,-53.333333333333336,-6.4
754,-526.9333333333333,-46.93333333333333,-23.466666666666665
755,-522.6666666666666,-42.666666666666664,-19.2
756,-516.2666666666667,-40.53333333333333,-27.733333333333334
757,-514.1333333333333,-42.666666666666664,-38.4
758,-518.4,-34.13333333333333,-38.4
759,-516.2666666666667,-29.866666666666667,-42.666666666666664
760,-512.0,-12.8,-38.4
761,-509.8666666666667,-23.466666666666665,-44.8
762,-505.59999999999997,-17.066666666666666,-51.2
763,-503.46666666666664,-21.333333333333332,-66.13333333333333
764,-501.3333333333333,-36.266666666666666,-66.13333333333333
765,-501.3333333333333,-38.4,-66.13333333333333
766,-507.73333333333335,-40.53333333333333,-72.53333333333333
767,-509.8666666666667,-57.6,-76.8
768,-512.0,-59.733333333333334,-78.93333333333334
769,-526.9333333333333,-78.93333333333334,-78.93333333333334
770,-514.1333333333333,-76.8,-83.2
771,-524.8,-89.6,-85.33333333333333
772,-518.4,-102.4,-91.73333333333333
773,-531.2,-102.4,-96.0
774,-533.3333333333334,-108.8,-93.86666666666666
775,-539.7333333333333,-104.53333333333333,-102.4
776,-533.3333333333334,-104.53333333333333,-106.66666666666667
777,-535.4666666666667,-104.53333333333333,-117.33333333333333
778,-554.6666666666666,-96.0,-119.46666666666667
779,-548.2666666666667,-93.86666666666666,-128.0
780,-546.1333333333333,-98.13333333333333,-119.46666666666667
781,-537.6,-89.6,-121.6
782,-533.3333333333334,-91.73333333333333,-130.13333333333333
783,-535.4666666666667,-91.73333333333333,-136.53333333333333
784,-531.2,-89.6,-128.0
785,-550.4,-89.6,-136.53333333333333
786,-554.6666666666666,-96.0,-128.0
787,-548.2666666666667,-87.46666666666667,-134.4
788,-539.7333333333333,-81.06666666666666,-134.4
789,-544.0,-89.6,-147.2
790,-541.8666666666667,-87.46666666666667,-157.86666666666667
791,-537.6,-87.46666666666667,-162.13333333333333
792,-550.4,-76.8,-168.53333333333333
793,-546.1333333333333,-76.8,-164.26666666666665
794,-535.4666666666667,-66.13333333333333,-168.53333333333333
795,-512.0,-66.13333333333333,-174.93333333333334
796,-501.3333333333333,-66.13333333333333,-185.6
797,-492.8,-61.86666666666667,-181.33333333333334
798,-501.3333333333333,-44.8,-196.26666666666665
799,-497.06666666666666,-46.93333333333333,-185.6
800,-471.46666666666664,-42.666666666666664,-183.46666666666667
801,-473.59999999999997,-40.53333333333333,-196.26666666666665
802,-452.26666666666665,-34.13333333333333,-200.53333333333333
803,-454.4,-32.0,-185.6
804,-445.8666666666667,-27.733333333333334,-194.13333333333333
805,-430.93333333333334,-36.266666666666666,-183.46666666666667
806,-433.06666666666666,-34.13333333333333,-189.86666666666667
807,-433.06666666666666,-42.666666666666664,-189.86666666666667
808,-437.3333333333333,-49.06666666666666,-192.0
809,-430.93333333333334,-55.46666666666667,-192.0
810,-430.93333333333334,-66.13333333333333,-194.13333333333333
811,-430.93333333333334,-66.13333333333333,-202.66666666666666
812,-424.5333333333333,-85.33333333333333,-209.06666666666666
813,-418.1333333333333,-104.53333333333333,-209.06666666666666
814,-428.8,-102.4,-211.2
815,-437.3333333333333,-115.2,-221.86666666666667
816,-456.5333333333333,-104.53333333333333,-224.0
817,-471.46666666666664,-102.4,-243.2
818,-492.8,-100.26666666666667,-247.46666666666667
819,-509.8666666666667,-87.46666666666667,-253.86666666666667
820,-520.5333333333333,-74.66666666666667,-245.33333333333334
821,-535.4666666666667,-64.0,-245.33333333333334
822,-533.3333333333334,-53.333333333333336,-238.93333333333334
823,-552.5333333333333,-42.666666666666664,-230.4
824,-590.9333333333333,-29.866666666666667,-209.06666666666666
825,-593.0666666666666,-21.333333333333332,-200.53333333333333
826,-608.0,-23.466666666666665,-177.06666666666666
827,-616.5333333333333,-23.466666666666665,-162.13333333333333
828,-637.8666666666667,-17.066666666666666,-151.46666666666667
829,-642.1333333333333,-21.333333333333332,-138.66666666666666
830,-648.5333333333333,-23.466666666666665,-121.6
831,-648.5333333333333,-34.13333333333333,-125.86666666666666
832,-652.8,-36.266666666666666,-117.33333333333333
833,-642.1333333333333,-42.666666666666664,-117.33333333333333
834,-646.4,-49.06666666666666,-117.33333333333333
835,-648.5333333333333,-61.86666666666667,-108.8
836,-637.8666666666667,-72.53333333333333,-113.06666666666666
837,-629.3333333333334,-85.33333333333333,-119.46666666666667
838,-614.4,-93.86666666666666,-117.33333333333333
839,-601.6,-91.73333333333333,-125.86666666666666
840,-586.6666666666666,-96.0,-130.13333333333333
841,-563.2,-104.53333333333333,-142.93333333333334
842,-544.0,-108.8,-147.2
843,-533.3333333333334,-100.26666666666667,-151.46666666666667
844,-524.8,-96.0,-162.13333333333333
845,-514.1333333333333,-98.13333333333333,-164.26666666666665
846,-509.8666666666667,-93.86666666666666,-174.93333333333334
847,-497.06666666666666,-87.46666666666667,-166.4
848,-492.8,-81.06666666666666,-168.53333333333333
849,-492.8,-74.66666666666667,-149.33333333333334
850,-480.0,-78.93333333333334,-147.2
851,-473.59999999999997,-76.8,-140.8
852,-471.46666666666664,-68.26666666666667,-134.4
853,-492.8,-59.733333333333334,-125.86666666666666
854,-475.73333333333335,-59.733333333333334,-119.46666666666667
855,-480.0,-55.46666666666667,-110.93333333333334
856,-484.26666666666665,-51.2,-102.4
857,-488.5333333333333,-42.666666666666664,-108.8
858,-499.2,-38.4,-87.46666666666667
859,-512.0,-34.13333333333333,-89.6
860,-524.8,-17.066666666666666,-83.2
861,-524.8,-17.066666666666666,-83.2
862,-537.6,-19.2,-72.53333333333333
863,-539.7333333333333,-4.266666666666667,-66.13333333333333
864,-544.0,-4.266666666666667,-66.13333333333333
865,-554.6666666666666,2.1333333333333333,-51.2
866,-556.8,4.266666666666667,-46.93333333333333
867,-565.3333333333334,2.1333333333333333,-36.266666666666666
868,-567.4666666666667,4.266666666666667,-14.933333333333334
869,-565.3333333333334,4.266666666666667,-25.6
870,-567.4666666666667,2.1333333333333333,-12.8
871,-561.0666666666666,2.1333333333333333,-8.533333333333333
872,-565.3333333333334,6.4,-8.533333333333333
873,-563.2,0.0,-2.1333333333333333
874,-558.9333333333333,4.266666666666667,-12.8
875,-558.9333333333333,0.0,2.1333333333333333
876,-552.5333333333333,-2.1333333333333333,8.533333333333333
877,-546.1333333333333,0.0,10.666666666666666
878,-541.8666666666667,-10.666666666666666,4.266666666666667
879,-539.7333333333333,-10.666666666666666,2.1333333333333333
880,-539.7333333333333,-12.8,12.8
881,-531.2,-19.2,4.266666666666667
882,-531.2,-19.2,2.1333333333333333
883,-524.8,-21.333333333333332,6.4
884,-522.6666666666666,-17.066666666666666,2.1333333333333333
885,-520.5333333333333,-10.666666666666666,6.4
886,-520.5333333333333,-10.666666666666666,-8.533333333333333
887,-509.8666666666667,-2.1333333333333333,-4.266666666666667
888,-514.1333333333333,-12.8,-12.8
889,-514.1333333333333,-4.266666666666667,-14.933333333333334
890,-509.8666666666667,-4.266666666666667,-29.866666666666667
891,-522.6666666666666,0.0,-27.733333333333334
892,-526.9333333333333,-4.266666666666667,-21.333333333333332
893,-533.3333333333334,-2.1333333333333333,-19.2
894,-531.2,-10.666666666666666,-19.2
895,-531.2,-10.666666666666666,-23.466666666666665
896,-529.0666666666666,-10.666666666666666,-17.066666666666666
897,-535.4666666666667,-10.666666666666666,-23.466666666666665
898,-526.9333333333333,-17.066666666666666,-10.666666666666666
899,-531.2,-8.533333333333333,-19.2
900,-535.4666666666667,-8.533333333333333,-10.666666666666666
901,-533.3333333333334,-17.066666666666666,-6.4
902,-529.0666666666666,-12.8,-4.266666666666667
903,-524.8,-23.466666666666665,-6.4
904,-526.9333333333333,-23.466666666666665,-2.1333333333333333
905,-520.5333333333333,-29.866666666666667,-2.1333333333333333
906,-526.9333333333333,-29.866666666666667,-2.1333333333333333
907,-526.9333333333333,-25.6,0.0
908,-533.3333333333334,-32.0,0.0
909,-522.6666666666666,-29.866666666666667,2.1333333333333333
910,-529.0666666666666,-34.13333333333333,0.0
911,-531.2,-29.866666666666667,4.266666666666667
912,-522.6666666666666,-38.4,0.0
913,-524.8,-34.13333333333333,-12.8
914,-524.8,-34.13333333333333,-2.1333333333333333
915,-529.0666666666666,-32.0,-8.533333333333333
916,-522.6666666666666,-34.13333333333333,-17.066666666666666
917,-524.8,-27.733333333333334,-29.866666666666667
918,-524.8,-34.13333333333333,-17.066666666666666
919,-520.5333333333333,-40.53333333333333,-19.2
920,-533.3333333333334,-34.13333333333333,-19.2
921,-535.4666666666667,-29.866666666666667,-25.6
922,-535.4666666666667,-34.13333333333333,-25.6
923,-531.2,-32.0,-21.333333333333332
924,-535.4666666666667,-32.0,-29.866666666666667
925,-537.6,-27.733333333333334,-32.0
926,-535.4666666666667,-29.866666666666667,-29.866666666666667
927,-537.6,-29.866666666666667,-32.0
928,-531.2,-25.6,-32.0
929,-533.3333333333334,-25.6,-36.266666666666666
930,-535.4666666666667,-29.866666666666667,-40.53333333333333
931,-533.3333333333334,-27.733333333333334,-44.8
932,-535.4666666666667,-29.866666666666667,-44.8
933,-533.3333333333334,-29.866666666666667,-51.2
934,-535.4666666666667,-21.333333333333332,-55.46666666666667
935,-531.2,-29.866666666666667,-55.46666666666667
936,-529.0666666666666,-27.733333333333334,-53.333333333333336
937,-522.6666666666666,-25.6,-57.6
938,-524.8,-29.866666666666667,-57.6
939,-529.0666666666666,-38.4,-46.93333333333333
940,-529.0666666666666,-36.266666666666666,-49.06666666666666
941,-522.6666666666666,-34.13333333333333,-59.733333333333334
942,-522.6666666666666,-36.266666666666666,-66.13333333333333
943,-526.9333333333333,-38.4,-66.13333333333333
944,-524.8,-34.13333333333333,-70.4
945,-535.4666666666667,-38.4,-74.66666666666667
946,-524.8,-51.2,-78.93333333333334
947,-531.2,-46.93333333333333,-83.2
948,-533.3333333333334,-44.8,-87.46666666666667
949,-537.6,-42.666666666666664,-83.2
950,-537.6,-51.2,-100.26666666666667
951,-539.7333333333333,-51.2,-100.26666666666667
952,-539.7333333333333,-49.06666666666666,-113.06666666666666
953,-539.7333333333333,-46.93333333333333,-119.46666666666667
954,-544.0,-49.06666666666666,-119.46666666666667
955,-537.6,-53.333333333333336,-132.26666666666665
956,-546.1333333333333,-44.8,-142.93333333333334
957,-544.0,-49.06666666666666,-164.26666666666665
958,-544.0,-53.333333333333336,-177.06666666666666
959,-541.8666666666667,-51.2,-192.0
960,-541.8666666666667,-42.666666666666664,-196.26666666666665
961,-539.7333333333333,-44.8,-187.73333333333332
962,-541.8666666666667,-44.8,-181.33333333333334
963,-541.8666666666667,-53.333333333333336,-177.06666666666666
964,-541.8666666666667,-57.6,-168.53333333333333
965,-539.7333333333333,-55.46666666666667,-164.26666666666665
966,-541.8666666666667,-59.733333333333334,-160.0
967,-537.6,-49.06666666666666,-151.46666666666667
968,-537.6,-46.93333333333333,-140.8
969,-533.3333333333334,-44.8,-134.4
970,-535.4666666666667,-51.2,-130.13333333333333
971,-533.3333333333334,-51.2,-123.73333333333333
972,-533.3333333333334,-53.333333333333336,-119.46666666666667
973,-529.0666666666666,-61.86666666666667,-125.86666666666666
974,-533.3333333333334,-59.733333333333334,-128.0
975,-533.3333333333334,-61.86666666666667,-121.6
976,-533.3333333333334,-57.6,-119.46666666666667
977,-533.3333333333334,-59.733333333333334,-115.2
978,-529.0666666666666,-57.6,-119.46666666666667
979,-537.6,-51.2,-113.06666666666666
980,-535.4666666666667,-53.333333333333336,-115.2
981,-537.6,-57.6,-130.13333333333333
982,-535.4666666666667,-55.46666666666667,-125.86666666666666
983,-529.0666666666666,-59.733333333333334,-136.53333333333333
984,-531.2,-61.86666666666667,-149.33333333333334
985,-526.9333333333333,-57.6,-151.46666666666667
986,-518.4,-64.0,-153.6
987,-512.0,-61.86666666666667,-151.46666666666667
988,-509.8666666666667,-59.733333333333334,-151.46666666666667
989,-499.2,-53.333333333333336,-164.26666666666665
990,-492.8,-46.93333333333333,-164.26666666666665
991,-477.8666666666667,-51.2,-157.86666666666667
992,-480.0,-55.46666666666667,-162.13333333333333
993,-477.8666666666667,-49.06666666666666,-166.4
994,-480.0,-59.733333333333334,-170.66666666666666
995,-473.59999999999997,-70.4,-177.06666666666666
996,-473.59999999999997,-72.53333333333333,-179.2
997,-467.2,-72.53333333333333,-187.73333333333332
998,-460.8,-83.2,-194.13333333333333
999,-456.5333333333333,-85.33333333333333,-202.66666666666666
1000,-454.4,-93.86666666666666,-202.66666666666666
1001,-450.1333333333333,-93.86666666666666,-213.33333333333334
1002,-452.26666666666665,-108.8,-221.86666666666667
1003,-454.4,-104.53333333333333,-224.0
1004,-445.8666666666667,-106.66666666666667,-221.86666666666667
1005,-445.8666666666667,-110.93333333333334,-230.4
1006,-458.6666666666667,-121.6,-232.53333333333333
1007,-465.06666666666666,-115.2,-230.4
1008,-462.93333333333334,-113.06666666666666,-224.0
1009,-471.46666666666664,-117.33333333333333,-224.0
1010,-475.73333333333335,-108.8,-219.73333333333332
1011,-482.1333333333333,-102.4,-209.06666666666666
1012,-488.5333333333333,-96.0,-211.2
1013,-494.93333333333334,-93.86666666666666,-196.26666666666665
1014,-499.2,-83.2,-187.73333333333332
1015,-505.59999999999997,-78.93333333333334,-196.26666666666665
1016,-514.1333333333333,-81.06666666666666,-187.73333333333332
1017,-507.73333333333335,-83.2,-196.26666666666665
1018,-514.1333333333333,-83.2,-194.13333333333333
1019,-518.4,-83.2,-200.53333333333333
1020,-526.9333333333333,-76.8,-198.4
1021,-526.9333333333333,-78.93333333333334,-204.8
1022,-520.5333333333333,-78.93333333333334,-198.4
1023,-514.1333333333333,-81.06666666666666,-206.93333333333334
1024,-509.8666666666667,-83.2,-211.2
1025,-512.0,-81.06666666666666,-209.06666666666666
1026,-492.8,-81.06666666666666,-213.33333333333334
1027,-494.93333333333334,-81.06666666666666,-189.86666666666667
1028,-503.46666666666664,-81.06666666666666,-189.86666666666667
1029,-503.46666666666664,-78.93333333333334,-170.66666666666666
1030,-505.59999999999997,-76.8,-168.53333333333333
1031,-497.06666666666666,-78.93333333333334,-155.73333333333332
1032,-497.06666666666666,-85.33333333333333,-149.33333333333334
1033,-509.8666666666667,-68.26666666666667,-140.8
1034,-503.46666666666664,-72.53333333333333,-132.26666666666665
1035,-497.06666666666666,-66.13333333333333,-130.13333333333333
1036,-501.3333333333333,-64.0,-128.0
1037,-507.73333333333335,-42.666666666666664,-125.86666666666666
1038,-509.8666666666667,-32.0,-121.6
1039,-507.73333333333335,-23.466666666666665,-113.06666666666666
1040,-505.59999999999997,-10.666666666666666,-119.46666666666667
1041,-512.0,2.1333333333333333,-117.33333333333333
1042,-514.1333333333333,10.666666666666666,-125.86666666666666
1043,-522.6666666666666,12.8,-117.33333333333333
1044,-526.9333333333333,21.333333333333332,-115.2
1045,-529.0666666666666,19.2,-108.8
1046,-529.0666666666666,14.933333333333334,-123.73333333333333
1047,-535.4666666666667,8.533333333333333,-121.6
1048,-531.2,10.666666666666666,-115.2
1049,-531.2,4.266666666666667,-117.33333333333333
1050,-531.2,-6.4,-117.33333333333333
1051,-524.8,-17.066666666666666,-113.06666666666666
1052,-524.8,-32.0,-115.2
1053,-524.8,-34.13333333333333,-115.2
1054,-522.6666666666666,-49.06666666666666,-117.33333333333333
1055,-522.6666666666666,-53.333333333333336,-117.33333333333333
1056,-514.1333333333333,-57.6,-115.2
1057,-514.1333333333333,-57.6,-106.66666666666667
1058,-509.8666666666667,-68.26666666666667,-100.26666666666667
1059,-520.5333333333333,-66.13333333333333,-108.8
1060,-516.2666666666667,-70.4,-98.13333333333333
1061,-516.2666666666667,-59.733333333333334,-104.53333333333333
1062,-524.8,-57.6,-102.4
1063,-531.2,-53.333333333333336,-100.26666666666667
1064,-526.9333333333333,-42.666666666666664,-104.53333333333333
1065,-533.3333333333334,-36.266666666666666,-102.4
1066,-541.8666666666667,-27.733333333333334,-93.86666666666666
1067,-541.8666666666667,-25.6,-96.0
1068,-546.1333333333333,-14.933333333333334,-96.0
1069,-550.4,4.266666666666667,-96.0
1070,-556.8,2.1333333333333333,-91.73333333333333
1071,-561.0666666666666,0.0,-98.13333333333333
1072,-569.6,8.533333333333333,-93.86666666666666
1073,-569.6,4.266666666666667,-102.4
1074,-578.1333333333333,14.933333333333334,-85.33333333333333
1075,-576.0,12.8,-91.73333333333333
1076,-578.1333333333333,17.066666666666666,-89.6
1077,-573.8666666666667,21.333333333333332,-89.6
1078,-571.7333333333333,19.2,-89.6
1079,-567.4666666666667,19.2,-74.66666666666667
1080,-565.3333333333334,12.8,-76.8
1081,-550.4,12.8,-59.733333333333334
1082,-550.4,23.466666666666665,-59.733333333333334
1083,-544.0,19.2,-57.6
1084,-539.7333333333333,12.8,-51.2
1085,-539.7333333333333,19.2,-51.2
1086,-539.7333333333333,14.933333333333334,-42.666666666666664
1087,-541.8666666666667,10.666666666666666,-38.4
1088,-541.8666666666667,8.533333333333333,-36.266666666666666
1089,-539.7333333333333,4.266666666666667,-23.466666666666665
1090,-533.3333333333334,0.0,-25.6
1091,-537.6,6.4,-14.933333333333334
1092,-529.0666666666666,4.266666666666667,-25.6
1093,-533.3333333333334,2.1333333333333333,-21.333333333333332
1094,-539.7333333333333,4.266666666666667,-23.466666666666665
1095,-535.4666666666667,6.4,-23.466666666666665
1096,-537.6,10.666666666666666,-32.0
1097,-531.2,6.4,-17.066666666666666
1098,-531.2,8.533333333333333,-29.866666666666667
1099,-535.4666666666667,12.8,-23.466666666666665
1100,-524.8,14.933333333333334,-25.6
1101,-526.9333333333333,12.8,-25.6
1102,-518.4,23.466666666666665,-19.2
1103,-524.8,17.066666666666666,-19.2
1104,-522.6666666666666,23.466666666666665,-21.333333333333332
1105,-520.5333333333333,25.6,-19.2
1106,-522.6666666666666,29.866666666666667,-10.666666666666666
1107,-522.6666666666666,17.066666666666666,-8.533333333333333
1108,-520.5333333333333,21.333333333333332,-12.8
1109,-518.4,17.066666666666666,-10.666666666666666
1110,-518.4,17.066666666666666,-14.933333333333334
1111,-522.6666666666666,14.933333333333334,-19.2
1112,-520.5333333333333,8.533333333333333,-23.466666666666665
1113,-520.5333333333333,2.1333333333333333,-34.13333333333333
1114,-522.6666666666666,6.4,-34.13333333333333
1115,-526.9333333333333,-4.266666666666667,-44.8
1116,-524.8,-4.266666666666667,-55.46666666666667
1117,-520.5333333333333,-17.066666666666666,-64.0
1118,-520.5333333333333,-19.2,-78.93333333333334
1119,-531.2,-21.333333333333332,-83.2
1120,-524.8,-29.866666666666667,-100.26666666666667
1121,-516.2666666666667,-34.13333333333333,-100.26666666666667
1122,-529.0666666666666,-32.0,-100.26666666666667
1123,-529.0666666666666,-38.4,-102.4
1124,-507.73333333333335,-42.666666666666664,-102.4
1125,-505.59999999999997,-44.8,-119.46666666666667
1126,-541.8666666666667,-38.4,-113.06666666666666
1127,-548.2666666666667,-40.53333333333333,-110.93333333333334
1128,-529.0666666666666,-40.53333333333333,-117.33333333333333
1129,-492.8,-57.6,-106.66666666666667
1130,-516.2666666666667,-42.666666666666664,-121.6
1131,-539.7333333333333,-51.2,-119.46666666666667
1132,-554.6666666666666,-40.53333333333333,-130.13333333333333
1133,-537.6,-46.93333333333333,-121.6
1134,-531.2,-40.53333333333333,-128.0
1135,-526.9333333333333,-46.93333333333333,-130.13333333333333
1136,-524.8,-42.666666666666664,-128.0
1137,-526.9333333333333,-46.93333333333333,-123.73333333333333
1138,-514.1333333333333,-53.333333333333336,-121.6
1139,-524.8,-55.46666666666667,-130.13333333333333
1140,-535.4666666666667,-51.2,-128.0
1141,-535.4666666666667,-46.93333333333333,-123.73333333333333
1142,-529.0666666666666,-55.46666666666667,-123.73333333333333
1143,-524.8,-59.733333333333334,-134.4
1144,-529.0666666666666,-44.8,-128.0
1145,-524.8,-53.333333333333336,-128.0
1146,-522.6666666666666,-46.93333333333333,-130.13333333333333
1147,-514.1333333333333,-46.93333333333333,-128.0
1148,-494.93333333333334,-53.333333333333336,-121.6
1149,-539.7333333333333,-40.53333333333333,-132.26666666666665
1150,-537.6,-32.0,-132.26666666666665
1151,-533.3333333333334,-40.53333333333333,-136.53333333333333
1152,-533.3333333333334,-23.466666666666665,-125.86666666666666
1153,-533.3333333333334,-27.733333333333334,-132.26666666666665
1154,-531.2,-23.466666666666665,-134.4
1155,-535.4666666666667,-10.666666666666666,-136.53333333333333
1156,-552.5333333333333,-12.8,-134.4
1157,-544.0,-12.8,-136.53333333333333
1158,-539.7333333333333,-21.333333333333332,-134.4
1159,-539.7333333333333,-19.2,-134.4
1160,-544.0,-21.333333333333332,-138.66666666666666
1161,-548.2666666666667,-17.066666666666666,-136.53333333333333
1162,-541.8666666666667,-27.733333333333334,-134.4
1163,-544.0,-25.6,-134.4
1164,-541.8666666666667,-32.0,-132.26666666666665
1165,-544.0,-23.466666666666665,-140.8
1166,-541.8666666666667,-27.733333333333334,-132.26666666666665
1167,-539.7333333333333,-32.0,-132.26666666666665
1168,-537.6,-27.733333333333334,-132.26666666666665
1169,-535.4666666666667,-34.13333333333333,-125.86666666666666
1170,-535.4666666666667,-29.866666666666667,-121.6
1171,-537.6,-23.466666666666665,-123.73333333333333
1172,-535.4666666666667,-23.466666666666665,-121.6
1173,-537.6,-23.466666666666665,-125.86666666666666
1174,-537.6,-19.2,-125.86666666666666
1175,-537.6,-14.933333333333334,-123.73333333333333
1176,-535.4666666666667,-14.933333333333334,-125.86666666666666
1177,-539.7333333333333,-8.533333333333333,-132.26666666666665
1178,-531.2,-4.266666666666667,-117.33333333333333
1179,-537.6,0.0,-123.73333333333333
1180,-539.7333333333333,-2.1333333333333333,-121.6
1181,-537.6,-4.266666666666667,-119.46666666666667
1182,-537.6,0.0,-117.33333333333333
1183,-537.6,2.1333333333333333,-108.8
1184,-537.6,0.0,-113.06666666666666
1185,-535.4666666666667,2.1333333333333333,-119.46666666666667
1186,-539.7333333333333,0.0,-113.06666666666666
1187,-537.6,0.0,-113.06666666666666
1188,-537.6,0.0,-108.8
1189,-537.6,0.0,-108.8
1190,-535.4666666666667,4.266666666666667,-106.66666666666667
1191,-529.0666666666666,2.1333333333333333,-106.66666666666667
1192,-526.9333333333333,6.4,-113.06666666666666
1193,-529.0666666666666,8.533333333333333,-117.33333333333333
1194,-529.0666666666666,12.8,-113.06666666666666
1195,-522.6666666666666,10.666666666666666,-121.6
1196,-531.2,10.666666666666666,-115.2
1197,-524.8,12.8,-119.46666666666667
1198,-524.8,10.666666666666666,-119.46666666666667
1199,-531.2,6.4,-115.2
1200,-531.2,6.4,-119.46666666666667
1201,-535.4666666666667,6.4,-121.6
1202,-535.4666666666667,10.666666666666666,-110.93333333333334
1203,-533.3333333333334,6.4,-117.33333333333333
1204,-531.2,2.1333333333333333,-115.2
1205,-531.2,10.666666666666666,-117.33333333333333
1206,-537.6,0.0,-119.46666666666667
1207,-529.0666666666666,0.0,-104.53333333333333
1208,-535.4666666666667,0.0,-104.53333333333333
1209,-535.4666666666667,0.0,-108.8
1210,-537.6,0.0,-102.4
1211,-537.6,-10.666666666666666,-100.26666666666667
1212,-533.3333333333334,-10.666666666666666,-108.8
1213,-533.3333333333334,-6.4,-93.86666666666666
1214,-535.4666666666667,-2.1333333333333333,-89.6
1215,-535.4666666666667,-10.666666666666666,-93.86666666666666
1216,-535.4666666666667,0.0,-87.46666666666667
1217,-537.6,0.0,-89.6
1218,-531.2,0.0,-89.6
1219,-531.2,-4.266666666666667,-87.46666666666667
1220,-533.3333333333334,0.0,-78.93333333333334
1221,-531.2,2.1333333333333333,-89.6
1222,-531.2,6.4,-85.33333333333333
1223,-533.3333333333334,8.533333333333333,-85.33333333333333
1224,-535.4666666666667,6.4,-72.53333333333333
1225,-533.3333333333334,4.266666666666667,-76.8
1226,-533.3333333333334,2.1333333333333333,-78.93333333333334
1227,-535.4666666666667,6.4,-83.2
1228,-531.2,4.266666666666667,-83.2
1229,-537.6,2.1333333333333333,-78.93333333333334
1230,-535.4666666666667,4.266666666666667,-81.06666666666666
1231,-539.7333333333333,4.266666666666667,-76.8
1232,-541.8666666666667,2.1333333333333333,-74.66666666666667
1233,-535.4666666666667,0.0,-83.2
1234,-539.7333333333333,0.0,-74.66666666666667
1235,-533.3333333333334,2.1333333333333333,-70.4
1236,-535.4666666666667,4.266666666666667,-76.8
1237,-537.6,8.533333333333333,-70.4
1238,-537.6,8.533333333333333,-61.86666666666667
1239,-541.8666666666667,17.066666666666666,-68.26666666666667
1240,-537.6,10.666666666666666,-66.13333333333333
1241,-539.7333333333333,14.933333333333334,-78.93333333333334
1242,-539.7333333333333,19.2,-70.4
1243,-535.4666666666667,21.333333333333332,-81.06666666666666
1244,-529.0666666666666,23.466666666666665,-76.8
1245,-533.3333333333334,14.933333333333334,-74.66666666666667
1246,-529.0666666666666,4.266666666666667,-72.53333333333333
1247,-535.4666666666667,6.4,-68.26666666666667
1248,-533.3333333333334,0.0,-78.93333333333334
1249,-526.9333333333333,-2.1333333333333333,-74.66666666666667
1250,-529.0666666666666,-12.8,-66.13333333333333
1251,-520.5333333333333,-6.4,-66.13333333333333
1252,-526.9333333333333,0.0,-64.0
1253,-524.8,-6.4,-51.2
1254,-522.6666666666666,0.0,-61.86666666666667
1255,-524.8,0.0,-53.333333333333336
1256,-522.6666666666666,0.0,-59.733333333333334
1257,-522.6666666666666,4.266666666666667,-46.93333333333333
1258,-524.8,4.266666666666667,-64.0
1259,-520.5333333333333,0.0,-42.666666666666664
1260,-520.5333333333333,6.4,-51.2
1261,-522.6666666666666,0.0,-42.666666666666664
1262,-529.0666666666666,-2.1333333333333333,-44.8
1263,-529.0666666666666,-2.1333333333333333,-53.333333333333336
1264,-533.3333333333334,-2.1333333333333333,-49.06666666666666
1265,-539.7333333333333,-14.933333333333334,-55.46666666666667
1266,-531.2,-17.066666666666666,-46.93333333333333
1267,-535.4666666666667,-19.2,-51.2
1268,-533.3333333333334,-29.866666666666667,-61.86666666666667
1269,-537.6,-23.466666666666665,-61.86666666666667
1270,-539.7333333333333,-25.6,-55.46666666666667
1271,-537.6,-25.6,-53.333333333333336
1272,-539.7333333333333,-27.733333333333334,-59.733333333333334
1273,-537.6,-27.733333333333334,-61.86666666666667
1274,-535.4666666666667,-27.733333333333334,-68.26666666666667
1275,-539.7333333333333,-27.733333333333334,-70.4
1276,-537.6,-27.733333333333334,-64.0
1277,-533.3333333333334,-23.466666666666665,-59.733333333333334
1278,-537.6,-21.333333333333332,-57.6
1279,-535.4666666666667,-14.933333333333334,-61.86666666666667
1280,-535.4666666666667,-10.666666666666666,-55.46666666666667
1281,-529.0666666666666,-19.2,-68.26666666666667
1282,-533.3333333333334,-12.8,-64.0
1283,-531.2,-4.266666666666667,-66.13333333333333
1284,-535.4666666666667,-4.266666666666667,-59.733333333333334
1285,-533.3333333333334,-6.4,-57.6
1286,-533.3333333333334,-6.4,-51.2
1287,-529.0666666666666,-10.666666666666666,-57.6
1288,-531.2,-2.1333333333333333,-55.46666666666667
1289,-529.0666666666666,-10.666666666666666,-53.333333333333336
1290,-529.0666666666666,-6.4,-49.06666666666666
1291,-535.4666666666667,-2.1333333333333333,-49.06666666666666
1292,-529.0666666666666,0.0,-51.2
1293,-533.3333333333334,-2.1333333333333333,-46.93333333333333
1294,-533.3333333333334,-4.266666666666667,-51.2
1295,-526.9333333333333,0.0,-59.733333333333334
1296,-533.3333333333334,0.0,-53.333333333333336
1297,-531.2,-6.4,-55.46666666666667
1298,-544.0,4.266666666666667,-68.26666666666667
1299,-531.2,-4.266666666666667,-61.86666666666667
1300,-539.7333333333333,-4.266666666666667,-51.2
1301,-533.3333333333334,-8.533333333333333,-59.733333333333334
1302,-533.3333333333334,-6.4,-64.0
1303,-535.4666666666667,-10.666666666666666,-64.0
1304,-531.2,-8.533333333333333,-59.733333333333334
1305,-539.7333333333333,-4.266666666666667,-55.46666666666667
1306,-533.3333333333334,-6.4,-59.733333333333334
1307,-535.4666666666667,-6.4,-61.86666666666667
1308,-533.3333333333334,-2.1333333333333333,-57.6
1309,-546.1333333333333,-8.533333333333333,-49.06666666666666
1310,-533.3333333333334,-14.933333333333334,-53.333333333333336
1311,-535.4666666666667,-6.4,-57.6
1312,-537.6,0.0,-57.6
1313,-537.6,-2.1333333333333333,-66.13333333333333
1314,-537.6,-8.533333333333333,-61.86666666666667
1315,-537.6,-4.266666666666667,-59.733333333333334
1316,-537.6,0.0,-68.26666666666667
1317,-541.8666666666667,-4.266666666666667,-59.733333333333334
1318,-537.6,-4.266666666666667,-64.0
1319,-537.6,-2.1333333333333333,-59.733333333333334
1320,-539.7333333333333,0.0,-66.13333333333333
1321,-537.6,-4.266666666666667,-59.733333333333334
1322,-539.7333333333333,0.0,-66.13333333333333
1323,-539.7333333333333,0.0,-57.6
1324,-539.7333333333333,0.0,-61.86666666666667
1325,-537.6,0.0,-61.86666666666667
1326,-537.6,2.1333333333333333,-59.733333333333334
1327,-541.8666666666667,8.533333333333333,-64.0
1328,-544.0,4.266666666666667,-66.13333333333333
1329,-537.6,0.0,-59.733333333333334
1330,-541.8666666666667,0.0,-57.6
1331,-533.3333333333334,0.0,-38.4
1332,-546.1333333333333,2.1333333333333333,-61.86666666666667
1333,-539.7333333333333,-2.1333333333333333,-51.2
1334,-541.8666666666667,0.0,-57.6
1335,-546.1333333333333,0.0,-49.06666666666666
1336,-544.0,2.1333333333333333,-57.6
1337,-544.0,2.1333333333333333,-59.733333333333334
1338,-541.8666666666667,2.1333333333333333,-55.46666666666667
1339,-539.7333333333333,2.1333333333333333,-57.6
1340,-541.8666666666667,0.0,-44.8
1341,-541.8666666666667,0.0,-49.06666666666666
1342,-541.8666666666667,6.4,-53.333333333333336
1343,-539.7333333333333,2.1333333333333333,-59.733333333333334
1344,-544.0,2.1333333333333333,-46.93333333333333
1345,-544.0,2.1333333333333333,-49.06666666666666
1346,-539.7333333333333,0.0,-44.8
1347,-537.6,4.266666666666667,-49.06666666666666
1348,-539.7333333333333,2.1333333333333333,-51.2
1349,-539.7333333333333,2.1333333333333333,-46.93333333333333
1350,-541.8666666666667,2.1333333333333333,-46.93333333333333
1351,-539.7333333333333,0.0,-49.06666666666666
1352,-537.6,4.266666666666667,-42.666666666666664
1353,-539.7333333333333,6.4,-46.93333333333333
1354,-544.0,0.0,-46.93333333333333
1355,-537.6,2.1333333333333333,-49.06666666666666
1356,-539.7333333333333,4.266666666666667,-46.93333333333333
1357,-537.6,-2.1333333333333333,-46.93333333333333
1358,-539.7333333333333,0.0,-44.8
1359,-546.1333333333333,6.4,-42.666666666666664
1360,-539.7333333333333,-2.1333333333333333,-42.666666666666664
1361,-544.0,0.0,-49.06666666666666
1362,-535.4666666666667,2.1333333333333333,-42.666666666666664
1363,-541.8666666666667,0.0,-44.8
1364,-535.4666666666667,-4.266666666666667,-34.13333333333333
1365,-537.6,0.0,-53.333333333333336
1366,-535.4666666666667,2.1333333333333333,-38.4
1367,-537.6,-2.1333333333333333,-36.266666666666666
1368,-535.4666666666667,-6.4,-42.666666666666664
1369,-539.7333333333333,-4.266666666666667,-44.8
1370,-535.4666666666667,-4.266666666666667,-38.4
1371,-537.6,0.0,-38.4
1372,-535.4666666666667,0.0,-36.266666666666666
1373,-544.0,-8.533333333333333,-51.2
1374,-537.6,0.0,-42.666666666666664
1375,-537.6,0.0,-46.93333333333333
1376,-537.6,-2.1333333333333333,-40.53333333333333
1377,-541.8666666666667,0.0,-44.8
1378,-544.0,2.1333333333333333,-42.666666666666664
1379,-541.8666666666667,0.0,-49.06666666666666
1380,-541.8666666666667,-2.1333333333333333,-40.53333333333333
1381,-537.6,-2.1333333333333333,-44.8
1382,-533.3333333333334,-4.266666666666667,-38.4
1383,-535.4666666666667,-8.533333333333333,-42.666666666666664
1384,-544.0,-2.1333333333333333,-44.8
1385,-541.8666666666667,0.0,-40.53333333333333
1386,-537.6,0.0,-44.8
1387,-539.7333333333333,0.0,-44.8
1388,-541.8666666666667,0.0,-44.8
1389,-539.7333333333333,-4.266666666666667,-44.8
1390,-541.8666666666667,0.0,-42.666666666666664
1391,-535.4666666666667,0.0,-34.13333333333333
1392,-541.8666666666667,0.0,-38.4
1393,-539.7333333333333,-2.1333333333333333,-46.93333333333333
1394,-539.7333333333333,-4.266666666666667,-32.0
1395,-539.7333333333333,-2.1333333333333333,-44.8
1396,-544.0,0.0,-42.666666666666664
1397,-537.6,-6.4,-46.93333333333333
1398,-535.4666666666667,-2.1333333333333333,-38.4
1399,-541.8666666666667,0.0,-42.666666666666664
1400,-539.7333333333333,-4.266666666666667,-42.666666666666664
1401,-539.7333333333333,2.1333333333333333,-40.53333333333333
1402,-539.7333333333333,0.0,-40.53333333333333
1403,-539.7333333333333,4.266666666666667,-46.93333333333333
1404,-537.6,0.0,-40.53333333333333
1405,-539.7333333333333,2.1333333333333333,-34.13333333333333
1406,-539.7333333333333,2.1333333333333333,-40.53333333333333
1407,-539.7333333333333,0.0,-44.8
1408,-546.1333333333333,0.0,-38.4
1409,-539.7333333333333,0.0,-36.266666666666666
1410,-541.8666666666667,0.0,-34.13333333333333
1411,-541.8666666666667,0.0,-38.4
1412,-539.7333333333333,2.1333333333333333,-36.266666666666666
1413,-539.7333333333333,0.0,-44.8
1414,-535.4666666666667,0.0,-44.8
1415,-537.6,-2.1333333333333333,-46.93333333333333
1416,-544.0,4.266666666666667,-40.53333333333333
1417,-544.0,0.0,-23.466666666666665
1418,-539.7333333333333,0.0,-40.53333333333333
1419,-539.7333333333333,-2.1333333333333333,-42.666666666666664
1420,-541.8666666666667,0.0,-36.266666666666666
1421,-544.0,0.0,-40.53333333333333
1422,-544.0,0.0,-34.13333333333333
1423,-535.4666666666667,-2.1333333333333333,-36.266666666666666
1424,-544.0,0.0,-36.266666666666666
1425,-541.8666666666667,0.0,-40.53333333333333
1426,-539.7333333333333,-2.1333333333333333,-42.666666666666664
1427,-535.4666666666667,-2.1333333333333333,-44.8
1428,-535.4666666666667,0.0,-46.93333333333333
1429,-544.0,4.266666666666667,-51.2
1430,-539.7333333333333,0.0,-42.666666666666664
1431,-537.6,-2.1333333333333333,-38.4
1432,-537.6,0.0,-46.93333333333333
1433,-537.6,0.0,-40.53333333333333
1434,-541.8666666666667,0.0,-36.266666666666666
1435,-539.7333333333333,-2.1333333333333333,-40.53333333333333
1436,-539.7333333333333,2.1333333333333333,-36.266666666666666
1437,-539.7333333333333,2.1333333333333333,-38.4
1438,-539.7333333333333,-2.1333333333333333,-40.53333333333333
1439,-546.1333333333333,6.4,-32.0
1440,-537.6,2.1333333333333333,-36.266666666666666
1441,-546.1333333333333,0.0,-40.53333333333333
1442,-537.6,0.0,-40.53333333333333
1443,-544.0,2.1333333333333333,-42.666666666666664
1444,-541.8666666666667,-6.4,-42.666666666666664
1445,-541.8666666666667,0.0,-36.266666666666666
1446,-539.7333333333333,0.0,-32.0
1447,-544.0,2.1333333333333333,-40.53333333333333
1448,-539.7333333333333,0.0,-29.866666666666667
1449,-544.0,4.266666666666667,-44.8
1450,-539.7333333333333,0.0,-40.53333333333333
1451,-541.8666666666667,4.266666666666667,-38.4
1452,-537.6,-4.266666666666667,-38.4
1453,-537.6,0.0,-40.53333333333333
1454,-541.8666666666667,0.0,-38.4
1455,-539.7333333333333,0.0,-38.4
1456,-539.7333333333333,0.0,-38.4
1457,-539.7333333333333,0.0,-40.53333333333333
1458,-544.0,2.1333333333333333,-36.266666666666666
1459,-541.8666666666667,0.0,-38.4
1460,-541.8666666666667,-2.1333333333333333,-49.06666666666666
1461,-539.7333333333333,-6.4,-38.4
1462,-539.7333333333333,-2.1333333333333333,-36.266666666666666
1463,-535.4666666666667,-4.266666666666667,-40.53333333333333
1464,-539.7333333333333,-2.1333333333333333,-32.0
1465,-535.4666666666667,0.0,-38.4
1466,-544.0,0.0,-46.93333333333333
1467,-539.7333333333333,-2.1333333333333333,-40.53333333333333
1468,-539.7333333333333,0.0,-38.4
1469,-544.0,0.0,-32.0
1470,-537.6,-4.266666666666667,-34.13333333333333
1471,-539.7333333333333,2.1333333333333333,-32.0
1472,-537.6,0.0,-40.53333333333333
1473,-541.8666666666667,0.0,-40.53333333333333
1474,-535.4666666666667,0.0,-44.8
1475,-539.7333333333333,0.0,-49.06666666666666
1476,-539.7333333333333,-2.1333333333333333,-32.0
1477,-541.8666666666667,0.0,-36.266666666666666
1478,-541.8666666666667,0.0,-36.266666666666666
1479,-537.6,0.0,-38.4
1480,-541.8666666666667,0.0,-40.53333333333333
1481,-539.7333333333333,0.0,-34.13333333333333
1482,-539.7333333333333,2.1333333333333333,-42.666666666666664
1483,-539.7333333333333,0.0,-36.266666666666666
1484,-537.6,-2.1333333333333333,-42.666666666666664
1485,-541.8666666666667,-4.266666666666667,-36.266666666666666
1486,-544.0,-4.266666666666667,-36.266666666666666
1487,-537.6,0.0,-36.266666666666666
1488,-541.8666666666667,-2.1333333333333333,-42.666666666666664
1489,-539.7333333333333,0.0,-38.4
1490,-537.6,0.0,-36.266666666666666
1491,-546.1333333333333,0.0,-38.4
1492,-537.6,-2.1333333333333333,-42.666666666666664
1493,-541.8666666666667,-2.1333333333333333,-36.266666666666666
1494,-537.6,0.0,-38.4
1495,-539.7333333333333,0.0,-32.0
1496,-535.4666666666667,-2.1333333333333333,-40.53333333333333
1497,-537.6,0.0,-36.266666666666666
1498,-537.6,0.0,-38.4
1499,-539.7333333333333,0.0,-36.266666666666666
1500,-539.7333333333333,2.1333333333333333,-42.666666666666664
1501,-541.8666666666667,0.0,-36.266666666666666
1502,-539.7333333333333,-2.1333333333333333,-29.866666666666667
1503,-563.2,8.533333333333333,-32.0
1504,-554.6666666666666,6.4,-40.53333333333333
1505,-558.9333333333333,-17.066666666666666,-49.06666666666666
1506,-512.0,8.533333333333333,-21.333333333333332
1507,-505.59999999999997,0.0,-8.533333333333333
1508,-561.0666666666666,0.0,-66.13333333333333
1509,-524.8,2.1333333333333333,-27.733333333333334
1510,-541.8666666666667,-10.666666666666666,-46.93333333333333
1511,-552.5333333333333,-8.533333333333333,-19.2
1512,-539.7333333333333,0.0,-27.733333333333334
1513,-526.9333333333333,-10.666666666666666,-10.666666666666666
1514,-537.6,-2.1333333333333333,-32.0
1515,-541.8666666666667,-2.1333333333333333,-40.53333333333333
1516,-539.7333333333333,-2.1333333333333333,-34.13333333333333
1517,-539.7333333333333,-2.1333333333333333,-36.266666666666666
1518,-544.0,-12.8,-29.866666666666667
1519,-537.6,10.666666666666666,-23.466666666666665
1520,-535.4666666666667,6.4,-29.866666666666667
1521,-541.8666666666667,4.266666666666667,-66.13333333333333
1522,-541.8666666666667,2.1333333333333333,-44.8
1523,-541.8666666666667,6.4,-38.4
1524,-541.8666666666667,-12.8,-44.8
1525,-535.4666666666667,-2.1333333333333333,-40.53333333333333
1526,-546.1333333333333,2.1333333333333333,-53.333333333333336
1527,-546.1333333333333,0.0,-32.0
1528,-544.0,8.533333333333333,-49.06666666666666
1529,-548.2666666666667,2.1333333333333333,-49.06666666666666
1530,-546.1333333333333,2.1333333333333333,-42.666666666666664
1531,-548.2666666666667,2.1333333333333333,-51.2
1532,-546.1333333333333,0.0,-44.8
1533,-563.2,14.933333333333334,-44.8
1534,-541.8666666666667,14.933333333333334,-70.4
1535,-548.2666666666667,8.533333333333333,-72.53333333333333
1536,-586.6666666666666,6.4,-36.266666666666666
1537,-561.0666666666666,17.066666666666666,-55.46666666666667
1538,-535.4666666666667,-12.8,-98.13333333333333
1539,-531.2,8.533333333333333,-29.866666666666667
1540,-554.6666666666666,10.666666666666666,-29.866666666666667
1541,-548.2666666666667,-19.2,-34.13333333333333
1542,-535.4666666666667,-4.266666666666667,-49.06666666666666
1543,-539.7333333333333,2.1333333333333333,-44.8
1544,-552.5333333333333,6.4,-55.46666666666667
1545,-544.0,2.1333333333333333,-49.06666666666666
1546,-548.2666666666667,0.0,-53.333333333333336
1547,-546.1333333333333,4.266666666666667,-53.333333333333336
1548,-552.5333333333333,-19.2,-49.06666666666666
1549,-537.6,2.1333333333333333,-46.93333333333333
1550,-541.8666666666667,0.0,-59.733333333333334
1551,-556.8,0.0,-70.4
1552,-535.4666666666667,-2.1333333333333333,-46.93333333333333
1553,-552.5333333333333,-17.066666666666666,-59.733333333333334
1554,-507.73333333333335,-4.266666666666667,-68.26666666666667
1555,-590.9333333333333,32.0,-66.13333333333333
1556,-580.2666666666667,12.8,-32.0
1557,-588.8,-8.533333333333333,-55.46666666666667
1558,-548.2666666666667,-14.933333333333334,-64.0
1559,-556.8,-2.1333333333333333,-57.6
1560,-552.5333333333333,-6.4,-49.06666666666666
1561,-552.5333333333333,-10.666666666666666,-49.06666666666666
1562,-544.0,-14.933333333333334,-44.8
1563,-541.8666666666667,-19.2,-46.93333333333333
1564,-531.2,-19.2,-46.93333333333333
1565,-552.5333333333333,-10.666666666666666,-29.866666666666667
1566,-546.1333333333333,-32.0,-44.8
1567,-524.8,-10.666666666666666,-34.13333333333333
1568,-544.0,-23.466666666666665,-25.6
1569,-558.9333333333333,-6.4,-64.0
1570,-535.4666666666667,-38.4,-23.466666666666665
1571,-526.9333333333333,-34.13333333333333,-51.2
1572,-554.6666666666666,-21.333333333333332,-12.8
1573,-546.1333333333333,-38.4,-17.066666666666666
1574,-539.7333333333333,-14.933333333333334,-34.13333333333333
1575,-533.3333333333334,-10.666666666666666,-29.866666666666667
1576,-533.3333333333334,-10.666666666666666,-19.2
1577,-531.2,-12.8,-25.6
1578,-529.0666666666666,-6.4,-29.866666666666667
1579,-501.3333333333333,-4.266666666666667,-8.533333333333333
1580,-539.7333333333333,-17.066666666666666,-29.866666666666667
1581,-518.4,14.933333333333334,-32.0
1582,-509.8666666666667,14.933333333333334,-32.0
1583,-546.1333333333333,-53.333333333333336,-10.666666666666666
1584,-520.5333333333333,6.4,-17.066666666666666
1585,-524.8,4.266666666666667,-25.6
1586,-516.2666666666667,-10.666666666666666,-6.4
1587,-524.8,-12.8,-2.1333333333333333
1588,-535.4666666666667,19.2,-32.0
1589,-507.73333333333335,2.1333333333333333,-29.866666666666667
1590,-535.4666666666667,0.0,-23.466666666666665
1591,-533.3333333333334,0.0,-27.733333333333334
1592,-533.3333333333334,0.0,-23.466666666666665
1593,-537.6,0.0,-32.0
1594,-535.4666666666667,0.0,-40.53333333333333
1595,-529.0666666666666,6.4,-23.466666666666665
1596,-541.8666666666667,-2.1333333333333333,-27.733333333333334
1597,-537.6,4.266666666666667,-34.13333333333333
1598,-531.2,0.0,-44.8
1599,-544.0,4.266666666666667,-46.93333333333333
1600,-541.8666666666667,2.1333333333333333,-38.4
1601,-541.8666666666667,2.1333333333333333,-40.53333333333333
1602,-539.7333333333333,4.266666666666667,-36.266666666666666
1603,-546.1333333333333,0.0,-38.4
1604,-544.0,2.1333333333333333,-32.0
1605,-550.4,0.0,-36.266666666666666
1606,-548.2666666666667,-2.1333333333333333,-36.266666666666666
1607,-552.5333333333333,0.0,-34.13333333333333
1608,-554.6666666666666,0.0,-42.666666666666664
1609,-556.8,-4.266666666666667,-29.866666666666667
1610,-550.4,-8.533333333333333,-36.266666666666666
1611,-554.6666666666666,-10.666666666666666,-29.866666666666667
1612,-565.3333333333334,-2.1333333333333333,-27.733333333333334
1613,-563.2,-6.4,-29.866666666666667
1614,-558.9333333333333,-2.1333333333333333,-23.466666666666665
1615,-558.9333333333333,-8.533333333333333,-34.13333333333333
1616,-558.9333333333333,-8.533333333333333,-19.2
1617,-550.4,-14.933333333333334,-12.8
1618,-558.9333333333333,-8.533333333333333,-19.2
1619,-556.8,-8.533333333333333,-17.066666666666666
1620,-550.4,-8.533333333333333,-17.066666666666666
1621,-544.0,-4.266666666666667,-6.4
1622,-535.4666666666667,-2.1333333333333333,-8.533333333333333
1623,-546.1333333333333,-2.1333333333333333,-6.4
1624,-546.1333333333333,0.0,-4.266666666666667
1625,-546.1333333333333,2.1333333333333333,0.0
1626,-544.0,0.0,2.1333333333333333
1627,-541.8666666666667,0.0,4.266666666666667
1628,-546.1333333333333,0.0,4.266666666666667
1629,-541.8666666666667,0.0,0.0
1630,-539.7333333333333,-4.266666666666667,2.1333333333333333
1631,-546.1333333333333,2.1333333333333333,12.8
1632,-539.7333333333333,4.266666666666667,12.8
1633,-544.0,0.0,19.2
1634,-550.4,-2.1333333333333333,14.933333333333334
1635,-548.2666666666667,6.4,14.933333333333334
1636,-541.8666666666667,0.0,10.666666666666666
1637,-546.1333333333333,2.1333333333333333,4.266666666666667
1638,-541.8666666666667,0.0,6.4
1639,-537.6,0.0,8.533333333333333
1640,-539.7333333333333,-4.266666666666667,8.533333333333333
1641,-533.3333333333334,-6.4,4.266666666666667
1642,-537.6,0.0,8.533333333333333
1643,-533.3333333333334,-4.266666666666667,14.933333333333334
1644,-533.3333333333334,-4.266666666666667,14.933333333333334
1645,-535.4666666666667,-12.8,17.066666666666666
1646,-529.0666666666666,-17.066666666666666,17.066666666666666
1647,-533.3333333333334,-14.933333333333334,23.466666666666665
1648,-535.4666666666667,-12.8,27.733333333333334
1649,-535.4666666666667,-10.666666666666666,25.6
1650,-535.4666666666667,-17.066666666666666,34.13333333333333
1651,-539.7333333333333,-23.466666666666665,49.06666666666666
1652,-537.6,-19.2,59.733333333333334
1653,-541.8666666666667,-14.933333333333334,57.6
1654,-548.2666666666667,-32.0,66.13333333333333
1655,-539.7333333333333,-14.933333333333334,53.333333333333336
1656,-550.4,-12.8,46.93333333333333
1657,-548.2666666666667,-4.266666666666667,42.666666666666664
1658,-556.8,-2.1333333333333333,27.733333333333334
1659,-552.5333333333333,-8.533333333333333,25.6
1660,-546.1333333333333,-10.666666666666666,6.4
1661,-541.8666666666667,-4.266666666666667,-23.466666666666665
1662,-554.6666666666666,0.0,-27.733333333333334
1663,-546.1333333333333,-2.1333333333333333,-49.06666666666666
1664,-550.4,0.0,-72.53333333333333
1665,-554.6666666666666,0.0,-78.93333333333334
1666,-569.6,6.4,-93.86666666666666
1667,-567.4666666666667,2.1333333333333333,-98.13333333333333
1668,-578.1333333333333,2.1333333333333333,-87.46666666666667
1669,-582.4,2.1333333333333333,-98.13333333333333
1670,-586.6666666666666,6.4,-98.13333333333333
1671,-588.8,4.266666666666667,-89.6
1672,-593.0666666666666,8.533333333333333,-93.86666666666666
1673,-590.9333333333333,10.666666666666666,-89.6
1674,-582.4,8.533333333333333,-91.73333333333333
1675,-578.1333333333333,14.933333333333334,-85.33333333333333
1676,-573.8666666666667,19.2,-93.86666666666666
1677,-569.6,19.2,-102.4
1678,-565.3333333333334,21.333333333333332,-106.66666666666667
1679,-561.0666666666666,14.933333333333334,-104.53333333333333
1680,-552.5333333333333,21.333333333333332,-104.53333333333333
1681,-548.2666666666667,6.4,-104.53333333333333
1682,-552.5333333333333,10.666666666666666,-85.33333333333333
1683,-544.0,2.1333333333333333,-64.0
1684,-546.1333333333333,0.0,-51.2
1685,-539.7333333333333,-12.8,-44.8
1686,-548.2666666666667,-14.933333333333334,-29.866666666666667
1687,-544.0,-10.666666666666666,-34.13333333333333
1688,-548.2666666666667,-8.533333333333333,-38.4
1689,-554.6666666666666,-8.533333333333333,-38.4
1690,-558.9333333333333,-4.266666666666667,-34.13333333333333
1691,-554.6666666666666,-14.933333333333334,-21.333333333333332
1692,-556.8,-21.333333333333332,-14.933333333333334
1693,-546.1333333333333,-21.333333333333332,-12.8
1694,-544.0,-23.466666666666665,0.0
1695,-537.6,-34.13333333333333,-4.266666666666667
1696,-546.1333333333333,-42.666666666666664,-10.666666666666666
1697,-541.8666666666667,-25.6,-14.933333333333334
1698,-535.4666666666667,-21.333333333333332,-34.13333333333333
1699,-533.3333333333334,-29.866666666666667,-38.4
1700,-531.2,-32.0,-44.8
1701,-533.3333333333334,-44.8,-27.733333333333334
1702,-531.2,-46.93333333333333,-29.866666666666667
1703,-526.9333333333333,-57.6,-27.733333333333334
1704,-526.9333333333333,-57.6,-25.6
1705,-522.6666666666666,-64.0,-29.866666666666667
1706,-524.8,-68.26666666666667,-19.2
1707,-529.0666666666666,-61.86666666666667,-12.8
1708,-526.9333333333333,-78.93333333333334,10.666666666666666
1709,-537.6,-83.2,23.466666666666665
1710,-544.0,-87.46666666666667,21.333333333333332
1711,-541.8666666666667,-89.6,19.2
1712,-539.7333333333333,-87.46666666666667,19.2
1713,-550.4,-89.6,6.4
1714,-539.7333333333333,-89.6,-4.266666666666667
1715,-535.4666666666667,-104.53333333333333,-6.4
1716,-544.0,-93.86666666666666,-12.8
1717,-520.5333333333333,-106.66666666666667,-32.0
1718,-520.5333333333333,-102.4,-36.266666666666666
1719,-524.8,-104.53333333333333,-46.93333333333333
1720,-522.6666666666666,-104.53333333333333,-49.06666666666666
1721,-518.4,-100.26666666666667,-38.4
1722,-535.4666666666667,-102.4,-40.53333333333333
1723,-541.8666666666667,-96.0,-36.266666666666666
1724,-531.2,-104.53333333333333,-44.8
1725,-546.1333333333333,-81.06666666666666,-38.4
1726,-533.3333333333334,-91.73333333333333,-46.93333333333333
1727,-526.9333333333333,-96.0,-40.53333333333333
1728,-548.2666666666667,-93.86666666666666,-44.8
1729,-541.8666666666667,-102.4,-53.333333333333336
1730,-533.3333333333334,-104.53333333333333,-46.93333333333333
1731,-544.0,-106.66666666666667,-40.53333333333333
1732,-524.8,-104.53333333333333,-49.06666666666666
1733,-537.6,-98.13333333333333,-51.2
1734,-531.2,-91.73333333333333,-66.13333333333333
1735,-482.1333333333333,-93.86666666666666,-53.333333333333336
1736,-518.4,-85.33333333333333,-57.6
1737,-507.73333333333335,-93.86666666666666,-49.06666666666666
1738,-526.9333333333333,-89.6,-36.266666666666666
1739,-529.0666666666666,-91.73333333333333,-40.53333333333333
1740,-531.2,-89.6,-29.866666666666667
1741,-501.3333333333333,-96.0,-4.266666666666667
1742,-467.2,-108.8,4.266666666666667
1743,-531.2,-102.4,21.333333333333332
1744,-524.8,-110.93333333333334,42.666666666666664
1745,-505.59999999999997,-102.4,49.06666666666666
1746,-497.06666666666666,-98.13333333333333,40.53333333333333
1747,-473.59999999999997,-91.73333333333333,17.066666666666666
1748,-467.2,-91.73333333333333,4.266666666666667
1749,-522.6666666666666,-98.13333333333333,-2.1333333333333333
1750,-522.6666666666666,-89.6,2.1333333333333333
1751,-512.0,-87.46666666666667,2.1333333333333333
1752,-522.6666666666666,-89.6,0.0
1753,-535.4666666666667,-91.73333333333333,0.0
1754,-539.7333333333333,-87.46666666666667,17.066666666666666
1755,-550.4,-74.66666666666667,36.266666666666666
1756,-548.2666666666667,-59.733333333333334,55.46666666666667
1757,-584.5333333333333,-53.333333333333336,66.13333333333333
1758,-582.4,-57.6,72.53333333333333
1759,-573.8666666666667,-55.46666666666667,81.06666666666666
1760,-590.9333333333333,-46.93333333333333,81.06666666666666
1761,-597.3333333333334,-66.13333333333333,89.6
1762,-590.9333333333333,-64.0,91.73333333333333
1763,-586.6666666666666,-68.26666666666667,96.0
1764,-580.2666666666667,-66.13333333333333,93.86666666666666
1765,-588.8,-64.0,96.0
1766,-567.4666666666667,-59.733333333333334,96.0
1767,-533.3333333333334,-57.6,89.6
1768,-563.2,-51.2,98.13333333333333
1769,-554.6666666666666,-53.333333333333336,106.66666666666667
1770,-550.4,-44.8,108.8
1771,-529.0666666666666,-51.2,93.86666666666666
1772,-512.0,-46.93333333333333,89.6
1773,-520.5333333333333,-49.06666666666666,98.13333333333333
1774,-541.8666666666667,-57.6,96.0
1775,-524.8,-51.2,104.53333333333333
1776,-522.6666666666666,-42.666666666666664,110.93333333333334
1777,-512.0,-42.666666666666664,110.93333333333334
1778,-524.8,-49.06666666666666,108.8
1779,-512.0,-44.8,93.86666666666666
1780,-520.5333333333333,-57.6,110.93333333333334
1781,-537.6,-59.733333333333334,108.8
1782,-535.4666666666667,-53.333333333333336,113.06666666666666
1783,-537.6,-46.93333333333333,100.26666666666667
1784,-516.2666666666667,-42.666666666666664,115.2
1785,-524.8,-40.53333333333333,119.46666666666667
1786,-501.3333333333333,-44.8,121.6
1787,-533.3333333333334,-40.53333333333333,130.13333333333333
1788,-541.8666666666667,-42.666666666666664,132.26666666666665
1789,-535.4666666666667,-38.4,140.8
1790,-526.9333333333333,-32.0,136.53333333333333
1791,-526.9333333333333,-34.13333333333333,140.8
1792,-512.0,-40.53333333333333,142.93333333333334
1793,-533.3333333333334,-29.866666666666667,145.06666666666666
1794,-537.6,-40.53333333333333,151.46666666666667
1795,-526.9333333333333,-36.266666666666666,151.46666666666667
1796,-522.6666666666666,-36.266666666666666,155.73333333333332
1797,-524.8,-36.266666666666666,151.46666666666667
1798,-518.4,-36.266666666666666,151.46666666666667
1799,-518.4,-29.866666666666667,151.46666666666667
1800,-514.1333333333333,-40.53333333333333,164.26666666666665
1801,-520.5333333333333,-38.4,155.73333333333332
1802,-516.2666666666667,-38.4,155.73333333333332
1803,-512.0,-42.666666666666664,160.0
1804,-507.73333333333335,-36.266666666666666,166.4
1805,-526.9333333333333,-23.466666666666665,164.26666666666665
1806,-526.9333333333333,-38.4,170.66666666666666
1807,-516.2666666666667,-40.53333333333333,174.93333333333334
1808,-518.4,-40.53333333333333,179.2
1809,-516.2666666666667,-36.266666666666666,170.66666666666666
1810,-509.8666666666667,-42.666666666666664,177.06666666666666
1811,-518.4,-40.53333333333333,174.93333333333334
1812,-516.2666666666667,-44.8,177.06666666666666
1813,-512.0,-46.93333333333333,177.06666666666666
1814,-516.2666666666667,-40.53333333333333,183.46666666666667
1815,-514.1333333333333,-46.93333333333333,168.53333333333333
1816,-512.0,-40.53333333333333,179.2
1817,-514.1333333333333,-40.53333333333333,174.93333333333334
1818,-518.4,-32.0,179.2
1819,-520.5333333333333,-32.0,172.8
1820,-520.5333333333333,-42.666666666666664,183.46666666666667
1821,-505.59999999999997,-46.93333333333333,177.06666666666666
1822,-522.6666666666666,-40.53333333333333,183.46666666666667
1823,-516.2666666666667,-44.8,183.46666666666667
1824,-507.73333333333335,-40.53333333333333,192.0
1825,-501.3333333333333,-42.666666666666664,196.26666666666665
1826,-507.73333333333335,-38.4,183.46666666666667
1827,-497.06666666666666,-38.4,187.73333333333332
1828,-505.59999999999997,-36.266666666666666,183.46666666666667
1829,-501.3333333333333,-27.733333333333334,196.26666666666665
1830,-507.73333333333335,-38.4,194.13333333333333
1831,-505.59999999999997,-36.266666666666666,185.6
1832,-522.6666666666666,-32.0,194.13333333333333
1833,-522.6666666666666,-34.13333333333333,192.0
1834,-531.2,-25.6,198.4
1835,-531.2,-29.866666666666667,198.4
1836,-531.2,-27.733333333333334,196.26666666666665
1837,-535.4666666666667,-34.13333333333333,189.86666666666667
1838,-546.1333333333333,-32.0,183.46666666666667
1839,-552.5333333333333,-42.666666666666664,187.73333333333332
1840,-554.6666666666666,-61.86666666666667,185.6
1841,-556.8,-74.66666666666667,185.6
1842,-552.5333333333333,-87.46666666666667,192.0
1843,-539.7333333333333,-102.4,187.73333333333332
1844,-537.6,-121.6,198.4
1845,-539.7333333333333,-128.0,196.26666666666665
1846,-535.4666666666667,-138.66666666666666,204.8
1847,-544.0,-136.53333333333333,213.33333333333334
1848,-539.7333333333333,-145.06666666666666,224.0
1849,-544.0,-136.53333333333333,221.86666666666667
1850,-541.8666666666667,-145.06666666666666,224.0
1851,-548.2666666666667,-147.2,238.93333333333334
1852,-529.0666666666666,-155.73333333333332,228.26666666666665
1853,-531.2,-160.0,226.13333333333333
1854,-531.2,-168.53333333333333,221.86666666666667
1855,-497.06666666666666,-170.66666666666666,221.86666666666667
1856,-497.06666666666666,-170.66666666666666,221.86666666666667
1857,-507.73333333333335,-172.8,226.13333333333333
1858,-501.3333333333333,-179.2,232.53333333333333
1859,-503.46666666666664,-170.66666666666666,247.46666666666667
1860,-501.3333333333333,-179.2,245.33333333333334
1861,-492.8,-177.06666666666666,249.6
1862,-484.26666666666665,-181.33333333333334,256.0
1863,-497.06666666666666,-179.2,249.6
1864,-471.46666666666664,-187.73333333333332,245.33333333333334
1865,-475.73333333333335,-192.0,236.79999999999998
1866,-471.46666666666664,-183.46666666666667,226.13333333333333
1867,-460.8,-189.86666666666667,224.0
1868,-475.73333333333335,-189.86666666666667,219.73333333333332
1869,-486.4,-202.66666666666666,217.6
1870,-482.1333333333333,-189.86666666666667,213.33333333333334
1871,-503.46666666666664,-196.26666666666665,215.46666666666667
1872,-484.26666666666665,-200.53333333333333,211.2
1873,-482.1333333333333,-202.66666666666666,196.26666666666665
1874,-486.4,-204.8,189.86666666666667
1875,-497.06666666666666,-213.33333333333334,177.06666666666666
1876,-480.0,-204.8,179.2
1877,-475.73333333333335,-209.06666666666666,166.4
1878,-490.6666666666667,-198.4,166.4
1879,-494.93333333333334,-192.0,157.86666666666667
1880,-492.8,-187.73333333333332,151.46666666666667
1881,-482.1333333333333,-185.6,149.33333333333334
1882,-460.8,-172.8,138.66666666666666
1883,-475.73333333333335,-162.13333333333333,136.53333333333333
1884,-460.8,-149.33333333333334,145.06666666666666
1885,-467.2,-151.46666666666667,136.53333333333333
1886,-456.5333333333333,-136.53333333333333,138.66666666666666
1887,-452.26666666666665,-138.66666666666666,130.13333333333333
1888,-441.59999999999997,-138.66666666666666,128.0
1889,-452.26666666666665,-130.13333333333333,123.73333333333333
1890,-411.73333333333335,-123.73333333333333,106.66666666666667
1891,-413.8666666666667,-115.2,117.33333333333333
1892,-426.6666666666667,-104.53333333333333,104.53333333333333
1893,-428.8,-110.93333333333334,108.8
1894,-437.3333333333333,-110.93333333333334,102.4
1895,-426.6666666666667,-102.4,98.13333333333333
1896,-422.4,-100.26666666666667,96.0
1897,-428.8,-98.13333333333333,87.46666666666667
1898,-441.59999999999997,-108.8,91.73333333333333
1899,-452.26666666666665,-102.4,85.33333333333333
1900,-443.73333333333335,-102.4,93.86666666666666
1901,-454.4,-121.6,93.86666666666666
1902,-482.1333333333333,-115.2,91.73333333333333
1903,-490.6666666666667,-132.26666666666665,108.8
1904,-499.2,-134.4,115.2
1905,-509.8666666666667,-134.4,125.86666666666666
1906,-516.2666666666667,-140.8,132.26666666666665
1907,-522.6666666666666,-147.2,142.93333333333334
1908,-522.6666666666666,-151.46666666666667,142.93333333333334
1909,-529.0666666666666,-157.86666666666667,155.73333333333332
1910,-537.6,-168.53333333333333,172.8
1911,-544.0,-170.66666666666666,168.53333333333333
1912,-556.8,-168.53333333333333,189.86666666666667
1913,-546.1333333333333,-174.93333333333334,194.13333333333333
1914,-554.6666666666666,-170.66666666666666,206.93333333333334
1915,-561.0666666666666,-172.8,200.53333333333333
1916,-567.4666666666667,-168.53333333333333,204.8
1917,-578.1333333333333,-170.66666666666666,200.53333333333333
1918,-584.5333333333333,-172.8,204.8
1919,-590.9333333333333,-168.53333333333333,202.66666666666666
1920,-590.9333333333333,-166.4,202.66666666666666
1921,-588.8,-166.4,192.0
1922,-588.8,-162.13333333333333,192.0
1923,-580.2666666666667,-155.73333333333332,189.86666666666667
1924,-578.1333333333333,-142.93333333333334,187.73333333333332
1925,-567.4666666666667,-136.53333333333333,189.86666666666667
1926,-565.3333333333334,-132.26666666666665,204.8
1927,-544.0,-121.6,209.06666666666666
1928,-544.0,-113.06666666666666,211.2
1929,-535.4666666666667,-102.4,224.0
1930,-524.8,-87.46666666666667,232.53333333333333
1931,-516.2666666666667,-81.06666666666666,251.73333333333332
1932,-503.46666666666664,-78.93333333333334,264.5333333333333
1933,-492.8,-66.13333333333333,275.2
1934,-486.4,-68.26666666666667,281.6
1935,-492.8,-59.733333333333334,294.4
1936,-465.06666666666666,-57.6,309.3333333333333
1937,-467.2,-55.46666666666667,317.8666666666667
1938,-462.93333333333334,-53.333333333333336,324.26666666666665
1939,-443.73333333333335,-59.733333333333334,339.2
1940,-439.46666666666664,-59.733333333333334,341.3333333333333
1941,-430.93333333333334,-59.733333333333334,345.6
1942,-426.6666666666667,-64.0,345.6
1943,-413.8666666666667,-70.4,349.8666666666667
1944,-409.6,-72.53333333333333,347.73333333333335
1945,-407.46666666666664,-76.8,347.73333333333335
1946,-398.93333333333334,-78.93333333333334,345.6
1947,-401.06666666666666,-87.46666666666667,347.73333333333335
1948,-403.2,-87.46666666666667,349.8666666666667
1949,-403.2,-89.6,347.73333333333335
1950,-407.46666666666664,-100.26666666666667,352.0
1951,-409.6,-96.0,354.1333333333333
1952,-409.6,-104.53333333333333,354.1333333333333
1953,-420.26666666666665,-108.8,341.3333333333333
1954,-420.26666666666665,-110.93333333333334,347.73333333333335
1955,-433.06666666666666,-115.2,337.06666666666666
1956,-433.06666666666666,-113.06666666666666,332.8
1957,-433.06666666666666,-104.53333333333333,337.06666666666666
1958,-439.46666666666664,-119.46666666666667,334.93333333333334
1959,-441.59999999999997,-117.33333333333333,337.06666666666666
1960,-445.8666666666667,-119.46666666666667,341.3333333333333
1961,-437.3333333333333,-119.46666666666667,328.5333333333333
1962,-450.1333333333333,-100.26666666666667,330.6666666666667
1963,-445.8666666666667,-113.06666666666666,332.8
1964,-450.1333333333333,-100.26666666666667,330.6666666666667
1965,-443.73333333333335,-74.66666666666667,330.6666666666667
1966,-450.1333333333333,-98.13333333333333,328.5333333333333
1967,-452.26666666666665,-85.33333333333333,326.4
1968,-450.1333333333333,-72.53333333333333,332.8
1969,-437.3333333333333,-76.8,317.8666666666667
1970,-441.59999999999997,-68.26666666666667,309.3333333333333
1971,-435.2,-68.26666666666667,324.26666666666665
1972,-422.4,-74.66666666666667,332.8
1973,-413.8666666666667,-74.66666666666667,320.0
1974,-416.0,-74.66666666666667,330.6666666666667
1975,-411.73333333333335,-85.33333333333333,328.5333333333333
1976,-407.46666666666664,-87.46666666666667,332.8
1977,-405.3333333333333,-96.0,334.93333333333334
1978,-413.8666666666667,-87.46666666666667,345.6
1979,-407.46666666666664,-96.0,349.8666666666667
1980,-407.46666666666664,-102.4,349.8666666666667
1981,-405.3333333333333,-106.66666666666667,349.8666666666667
1982,-409.6,-104.53333333333333,345.6
1983,-409.6,-115.2,356.26666666666665
1984,-411.73333333333335,-119.46666666666667,354.1333333333333
1985,-418.1333333333333,-117.33333333333333,349.8666666666667
1986,-413.8666666666667,-123.73333333333333,349.8666666666667
1987,-418.1333333333333,-125.86666666666666,352.0
1988,-424.5333333333333,-125.86666666666666,347.73333333333335
1989,-422.4,-130.13333333333333,347.73333333333335
1990,-426.6666666666667,-132.26666666666665,339.2
1991,-437.3333333333333,-123.73333333333333,341.3333333333333
1992,-430.93333333333334,-134.4,343.46666666666664
1993,-435.2,-136.53333333333333,341.3333333333333
1994,-439.46666666666664,-132.26666666666665,347.73333333333335
1995,-443.73333333333335,-130.13333333333333,345.6
1996,-441.59999999999997,-138.66666666666666,337.06666666666666
1997,-441.59999999999997,-136.53333333333333,343.46666666666664
1998,-435.2,-136.53333333333333,339.2
1999,-441.59999999999997,-145.06666666666666,339.2
2000,-452.26666666666665,-142.93333333333334,341.3333333333333
2001,-439.46666666666664,-145.06666666666666,332.8
2002,-448.0,-140.8,330.6666666666667
2003,-452.26666666666665,-147.2,339.2
2004,-445.8666666666667,-149.33333333333334,324.26666666666665
2005,-448.0,-151.46666666666667,328.5333333333333
2006,-458.6666666666667,-151.46666666666667,322.1333333333333
2007,-448.0,-151.46666666666667,315.73333333333335
2008,-456.5333333333333,-145.06666666666666,322.1333333333333
2009,-450.1333333333333,-151.46666666666667,315.73333333333335
2010,-439.46666666666664,-155.73333333333332,322.1333333333333
2011,-441.59999999999997,-162.13333333333333,317.8666666666667
2012,-443.73333333333335,-160.0,334.93333333333334
2013,-448.0,-153.6,332.8
2014,-437.3333333333333,-164.26666666666665,328.5333333333333
2015,-445.8666666666667,-160.0,337.06666666666666
2016,-433.06666666666666,-164.26666666666665,337.06666666666666
2017,-443.73333333333335,-155.73333333333332,352.0
2018,-450.1333333333333,-149.33333333333334,347.73333333333335
2019,-450.1333333333333,-138.66666666666666,349.8666666666667
2020,-448.0,-134.4,352.0
2021,-443.73333333333335,-136.53333333333333,354.1333333333333
2022,-448.0,-117.33333333333333,358.4
2023,-448.0,-123.73333333333333,358.4
2024,-443.73333333333335,-123.73333333333333,371.2
2025,-430.93333333333334,-117.33333333333333,371.2
2026,-435.2,-117.33333333333333,369.06666666666666
2027,-430.93333333333334,-110.93333333333334,369.06666666666666
2028,-433.06666666666666,-110.93333333333334,375.46666666666664
2029,-443.73333333333335,-106.66666666666667,386.1333333333333
2030,-433.06666666666666,-110.93333333333334,392.5333333333333
2031,-426.6666666666667,-113.06666666666666,396.8
2032,-422.4,-104.53333333333333,396.8
2033,-422.4,-106.66666666666667,405.3333333333333
2034,-411.73333333333335,-102.4,405.3333333333333
2035,-405.3333333333333,-96.0,411.73333333333335
2036,-407.46666666666664,-96.0,413.8666666666667
2037,-401.06666666666666,-98.13333333333333,413.8666666666667
2038,-386.1333333333333,-91.73333333333333,428.8
2039,-388.26666666666665,-91.73333333333333,413.8666666666667
2040,-375.46666666666664,-83.2,422.4
2041,-388.26666666666665,-81.06666666666666,416.0
2042,-369.06666666666666,-85.33333333333333,430.93333333333334
2043,-379.73333333333335,-85.33333333333333,420.26666666666665
2044,-375.46666666666664,-85.33333333333333,437.3333333333333
2045,-392.5333333333333,-81.06666666666666,430.93333333333334
2046,-384.0,-85.33333333333333,430.93333333333334
2047,-390.4,-85.33333333333333,430.93333333333334
2048,-392.5333333333333,-81.06666666666666,437.3333333333333
2049,-388.26666666666665,-76.8,439.46666666666664
2050,-394.6666666666667,-74.66666666666667,445.8666666666667
2051,-394.6666666666667,-72.53333333333333,439.46666666666664
2052,-396.8,-72.53333333333333,439.46666666666664
2053,-398.93333333333334,-61.86666666666667,448.0
2054,-394.6666666666667,-55.46666666666667,441.59999999999997
2055,-384.0,-51.2,439.46666666666664
2056,-388.26666666666665,-40.53333333333333,430.93333333333334
2057,-388.26666666666665,-36.266666666666666,439.46666666666664
2058,-384.0,-27.733333333333334,430.93333333333334
2059,-366.93333333333334,-29.866666666666667,441.59999999999997
2060,-366.93333333333334,-29.866666666666667,439.46666666666664
2061,-347.73333333333335,-29.866666666666667,443.73333333333335
2062,-341.3333333333333,-21.333333333333332,452.26666666666665
2063,-334.93333333333334,-25.6,456.5333333333333
2064,-328.5333333333333,-19.2,450.1333333333333
2065,-322.1333333333333,-19.2,462.93333333333334
2066,-313.6,-21.333333333333332,467.2
2067,-300.8,-14.933333333333334,473.59999999999997
2068,-292.26666666666665,-21.333333333333332,473.59999999999997
2069,-285.8666666666667,-23.466666666666665,473.59999999999997
2070,-277.3333333333333,-19.2,480.0
2071,-268.8,-8.533333333333333,477.8666666666667
2072,-262.4,-12.8,480.0
2073,-249.6,-12.8,484.26666666666665
2074,-243.2,-2.1333333333333333,490.6666666666667
2075,-224.0,-12.8,486.4
2076,-211.2,-6.4,501.3333333333333
2077,-206.93333333333334,-2.1333333333333333,499.2
2078,-187.73333333333332,0.0,514.1333333333333
2079,-177.06666666666666,-4.266666666666667,512.0
2080,-166.4,4.266666666666667,518.4
2081,-155.73333333333332,6.4,531.2
2082,-151.46666666666667,8.533333333333333,529.0666666666666
2083,-134.4,14.933333333333334,531.2
2084,-128.0,17.066666666666666,535.4666666666667
2085,-123.73333333333333,19.2,539.7333333333333
2086,-113.06666666666666,23.466666666666665,535.4666666666667
2087,-93.86666666666666,25.6,539.7333333333333
2088,-91.73333333333333,42.666666666666664,531.2
2089,-85.33333333333333,38.4,531.2
2090,-78.93333333333334,51.2,522.6666666666666
2091,-74.66666666666667,51.2,518.4
2092,-61.86666666666667,51.2,516.2666666666667
2093,-55.46666666666667,57.6,509.8666666666667
2094,-44.8,53.333333333333336,507.73333333333335
2095,-42.666666666666664,55.46666666666667,499.2
2096,-29.866666666666667,53.333333333333336,494.93333333333334
2097,-19.2,57.6,507.73333333333335
2098,-25.6,55.46666666666667,486.4
2099,-12.8,46.93333333333333,501.3333333333333
2100,-8.533333333333333,44.8,503.46666666666664
2101,-6.4,38.4,514.1333333333333
2102,-17.066666666666666,38.4,503.46666666666664
2103,-6.4,38.4,512.0
2104,2.1333333333333333,38.4,503.46666666666664
2105,-2.1333333333333333,32.0,499.2
2106,-12.8,38.4,497.06666666666666
2107,-10.666666666666666,32.0,492.8
2108,-14.933333333333334,29.866666666666667,484.26666666666665
2109,-14.933333333333334,38.4,477.8666666666667
2110,-21.333333333333332,42.666666666666664,475.73333333333335
2111,-29.866666666666667,46.93333333333333,482.1333333333333
2112,-32.0,40.53333333333333,473.59999999999997
2113,-32.0,46.93333333333333,467.2
2114,-36.266666666666666,51.2,454.4
2115,-44.8,55.46666666666667,456.5333333333333
2116,-49.06666666666666,61.86666666666667,467.2
2117,-51.2,55.46666666666667,458.6666666666667
2118,-55.46666666666667,66.13333333333333,458.6666666666667
2119,-64.0,68.26666666666667,458.6666666666667
2120,-72.53333333333333,72.53333333333333,454.4
2121,-85.33333333333333,78.93333333333334,450.1333333333333
2122,-93.86666666666666,76.8,454.4
2123,-93.86666666666666,81.06666666666666,469.3333333333333
2124,-104.53333333333333,89.6,456.5333333333333
2125,-119.46666666666667,85.33333333333333,460.8
2126,-117.33333333333333,89.6,471.46666666666664
2127,-121.6,78.93333333333334,469.3333333333333
2128,-130.13333333333333,85.33333333333333,469.3333333333333
2129,-142.93333333333334,87.46666666666667,477.8666666666667
2130,-149.33333333333334,85.33333333333333,482.1333333333333
2131,-155.73333333333332,87.46666666666667,484.26666666666665
2132,-164.26666666666665,74.66666666666667,473.59999999999997
2133,-168.53333333333333,70.4,486.4
2134,-170.66666666666666,70.4,484.26666666666665
2135,-174.93333333333334,59.733333333333334,482.1333333333333
2136,-179.2,51.2,490.6666666666667
2137,-194.13333333333333,46.93333333333333,488.5333333333333
2138,-196.26666666666665,23.466666666666665,501.3333333333333
2139,-198.4,14.933333333333334,509.8666666666667
2140,-196.26666666666665,6.4,514.1333333333333
2141,-200.53333333333333,2.1333333333333333,509.8666666666667
2142,-198.4,-2.1333333333333333,520.5333333333333
2143,-198.4,-6.4,535.4666666666667
2144,-194.13333333333333,-32.0,531.2
2145,-192.0,-38.4,541.8666666666667
2146,-185.6,-38.4,546.1333333333333
2147,-183.46666666666667,-46.93333333333333,561.0666666666666
2148,-174.93333333333334,-53.333333333333336,576.0
2149,-177.06666666666666,-64.0,586.6666666666666
2150,-170.66666666666666,-78.93333333333334,588.8
2151,-164.26666666666665,-64.0,597.3333333333334
2152,-162.13333333333333,-83.2,610.1333333333333
2153,-155.73333333333332,-96.0,618.6666666666666
2154,-151.46666666666667,-106.66666666666667,642.1333333333333
2155,-140.8,-121.6,657.0666666666666
2156,-145.06666666666666,-134.4,672.0
2157,-157.86666666666667,-147.2,693.3333333333334
2158,-160.0,-162.13333333333333,714.6666666666666
2159,-164.26666666666665,-177.06666666666666,725.3333333333334
2160,-164.26666666666665,-187.73333333333332,725.3333333333334
2161,-164.26666666666665,-189.86666666666667,736.0
2162,-151.46666666666667,-189.86666666666667,725.3333333333334
2163,-142.93333333333334,-187.73333333333332,714.6666666666666
2164,-142.93333333333334,-177.06666666666666,710.4
2165,-142.93333333333334,-164.26666666666665,695.4666666666667
2166,-134.4,-155.73333333333332,682.6666666666666
2167,-130.13333333333333,-132.26666666666665,663.4666666666667
2168,-125.86666666666666,-125.86666666666666,646.4
2169,-110.93333333333334,-96.0,625.0666666666666
2170,-104.53333333333333,-74.66666666666667,608.0
2171,-96.0,-57.6,578.1333333333333
2172,-78.93333333333334,-40.53333333333333,554.6666666666666
2173,-83.2,-27.733333333333334,533.3333333333334
2174,-78.93333333333334,-12.8,516.2666666666667
2175,-78.93333333333334,-10.666666666666666,499.2
2176,-87.46666666666667,0.0,488.5333333333333
2177,-83.2,-4.266666666666667,475.73333333333335
2178,-81.06666666666666,0.0,467.2
2179,-83.2,0.0,456.5333333333333
2180,-87.46666666666667,-2.1333333333333333,456.5333333333333
2181,-93.86666666666666,-19.2,462.93333333333334
2182,-93.86666666666666,-21.333333333333332,467.2
2183,-106.66666666666667,-27.733333333333334,475.73333333333335
2184,-110.93333333333334,-44.8,492.8
2185,-121.6,-46.93333333333333,499.2
2186,-121.6,-55.46666666666667,524.8
2187,-128.0,-51.2,526.9333333333333
2188,-134.4,-59.733333333333334,531.2
2189,-138.66666666666666,-61.86666666666667,546.1333333333333
2190,-142.93333333333334,-57.6,548.2666666666667
2191,-151.46666666666667,-57.6,558.9333333333333
2192,-155.73333333333332,-61.86666666666667,565.3333333333334
2193,-166.4,-53.333333333333336,578.1333333333333
2194,-170.66666666666666,-55.46666666666667,569.6
2195,-174.93333333333334,-55.46666666666667,561.0666666666666
2196,-170.66666666666666,-66.13333333333333,552.5333333333333
2197,-177.06666666666666,-64.0,550.4
2198,-183.46666666666667,-59.733333333333334,541.8666666666667
2199,-174.93333333333334,-59.733333333333334,512.0
2200,-170.66666666666666,-44.8,471.46666666666664
2201,-179.2,-19.2,430.93333333333334
2202,-183.46666666666667,-10.666666666666666,435.2
2203,-196.26666666666665,-42.666666666666664,445.8666666666667
2204,-198.4,-44.8,494.93333333333334
2205,-187.73333333333332,-72.53333333333333,531.2
2206,-183.46666666666667,-102.4,588.8
2207,-160.0,-130.13333333333333,620.8
2208,-151.46666666666667,-136.53333333333333,646.4
2209,-147.2,-164.26666666666665,650.6666666666666
2210,-149.33333333333334,-172.8,631.4666666666667
2211,-160.0,-177.06666666666666,614.4
2212,-170.66666666666666,-179.2,601.6
2213,-177.06666666666666,-166.4,565.3333333333334
2214,-168.53333333333333,-147.2,548.2666666666667
2215,-166.4,-138.66666666666666,541.8666666666667
2216,-168.53333333333333,-130.13333333333333,535.4666666666667
2217,-160.0,-113.06666666666666,524.8
2218,-157.86666666666667,-102.4,518.4
2219,-160.0,-87.46666666666667,514.1333333333333
2220,-157.86666666666667,-87.46666666666667,512.0
2221,-157.86666666666667,-83.2,524.8
2222,-157.86666666666667,-78.93333333333334,524.8
2223,-157.86666666666667,-76.8,529.0666666666666
2224,-160.0,-68.26666666666667,529.0666666666666
2225,-160.0,-81.06666666666666,544.0
2226,-155.73333333333332,-74.66666666666667,546.1333333333333
2227,-155.73333333333332,-78.93333333333334,537.6
2228,-160.0,-89.6,546.1333333333333
2229,-151.46666666666667,-91.73333333333333,539.7333333333333
2230,-147.2,-87.46666666666667,541.8666666666667
2231,-140.8,-96.0,535.4666666666667
2232,-136.53333333333333,-93.86666666666666,526.9333333333333
2233,-136.53333333333333,-96.0,531.2
2234,-138.66666666666666,-91.73333333333333,535.4666666666667
2235,-136.53333333333333,-93.86666666666666,531.2
2236,-128.0,-102.4,535.4666666666667
2237,-128.0,-100.26666666666667,533.3333333333334
2238,-123.73333333333333,-106.66666666666667,567.4666666666667
2239,-128.0,-106.66666666666667,548.2666666666667
2240,-121.6,-108.8,550.4
2241,-130.13333333333333,-106.66666666666667,546.1333333333333
2242,-128.0,-104.53333333333333,539.7333333333333
2243,-136.53333333333333,-91.73333333333333,526.9333333333333
2244,-140.8,-91.73333333333333,520.5333333333333
2245,-149.33333333333334,-87.46666666666667,524.8
2246,-151.46666666666667,-91.73333333333333,524.8
2247,-164.26666666666665,-87.46666666666667,518.4
2248,-160.0,-81.06666666666666,524.8
2249,-160.0,-91.73333333333333,524.8
2250,-160.0,-93.86666666666666,524.8
2251,-162.13333333333333,-110.93333333333334,522.6666666666666
2252,-164.26666666666665,-108.8,522.6666666666666
2253,-166.4,-110.93333333333334,524.8
2254,-168.53333333333333,-110.93333333333334,518.4
2255,-174.93333333333334,-106.66666666666667,505.59999999999997
2256,-174.93333333333334,-110.93333333333334,507.73333333333335
2257,-170.66666666666666,-113.06666666666666,512.0
2258,-170.66666666666666,-106.66666666666667,509.8666666666667
2259,-168.53333333333333,-108.8,497.06666666666666
2260,-164.26666666666665,-104.53333333333333,520.5333333333333
2261,-170.66666666666666,-104.53333333333333,499.2
2262,-174.93333333333334,-106.66666666666667,509.8666666666667
2263,-168.53333333333333,-104.53333333333333,509.8666666666667
2264,-168.53333333333333,-100.26666666666667,518.4
2265,-172.8,-106.66666666666667,520.5333333333333
2266,-166.4,-102.4,529.0666666666666
2267,-174.93333333333334,-104.53333333333333,514.1333333333333
2268,-168.53333333333333,-110.93333333333334,526.9333333333333
2269,-166.4,-108.8,533.3333333333334
2270,-172.8,-110.93333333333334,535.4666666666667
2271,-177.06666666666666,-104.53333333333333,526.9333333333333
2272,-177.06666666666666,-104.53333333333333,535.4666666666667
2273,-164.26666666666665,-113.06666666666666,529.0666666666666
2274,-160.0,-110.93333333333334,535.4666666666667
2275,-166.4,-102.4,539.7333333333333
2276,-168.53333333333333,-100.26666666666667,531.2
2277,-174.93333333333334,-102.4,529.0666666666666
2278,-177.06666666666666,-102.4,531.2
2279,-170.66666666666666,-102.4,537.6
2280,-174.93333333333334,-96.0,539.7333333333333
2281,-174.93333333333334,-93.86666666666666,529.0666666666666
2282,-179.2,-108.8,524.8
2283,-187.73333333333332,-100.26666666666667,524.8
2284,-185.6,-102.4,526.9333333333333
2285,-183.46666666666667,-100.26666666666667,520.5333333333333
2286,-189.86666666666667,-98.13333333333333,520.5333333333333
2287,-198.4,-102.4,522.6666666666666
2288,-192.0,-104.53333333333333,514.1333333333333
2289,-194.13333333333333,-106.66666666666667,501.3333333333333
2290,-200.53333333333333,-98.13333333333333,509.8666666666667
2291,-200.53333333333333,-98.13333333333333,505.59999999999997
2292,-202.66666666666666,-100.26666666666667,507.73333333333335
2293,-204.8,-100.26666666666667,505.59999999999997
2294,-189.86666666666667,-104.53333333333333,503.46666666666664
2295,-196.26666666666665,-100.26666666666667,499.2
2296,-200.53333333333333,-100.26666666666667,499.2
2297,-189.86666666666667,-110.93333333333334,509.8666666666667
2298,-194.13333333333333,-115.2,507.73333333333335
2299,-202.66666666666666,-108.8,507.73333333333335
2300,-196.26666666666665,-108.8,509.8666666666667
2301,-196.26666666666665,-115.2,503.46666666666664
2302,-198.4,-113.06666666666666,507.73333333333335
2303,-196.26666666666665,-134.4,505.59999999999997
2304,-194.13333333333333,-128.0,505.59999999999997
2305,-196.26666666666665,-128.0,505.59999999999997
2306,-196.26666666666665,-130.13333333333333,503.46666666666664
2307,-194.13333333333333,-130.13333333333333,507.73333333333335
2308,-187.73333333333332,-134.4,501.3333333333333
2309,-192.0,-132.26666666666665,518.4
2310,-181.33333333333334,-134.4,514.1333333333333
2311,-179.2,-128.0,514.1333333333333
2312,-185.6,-125.86666666666666,509.8666666666667
2313,-177.06666666666666,-123.73333333333333,516.2666666666667
2314,-177.06666666666666,-121.6,531.2
2315,-183.46666666666667,-115.2,507.73333333333335
2316,-177.06666666666666,-119.46666666666667,524.8
2317,-172.8,-113.06666666666666,531.2
2318,-177.06666666666666,-115.2,526.9333333333333
2319,-172.8,-113.06666666666666,524.8
2320,-174.93333333333334,-106.66666666666667,524.8
2321,-172.8,-110.93333333333334,524.8
2322,-168.53333333333333,-108.8,529.0666666666666
2323,-172.8,-102.4,529.0666666666666
2324,-170.66666666666666,-104.53333333333333,531.2
2325,-170.66666666666666,-100.26666666666667,533.3333333333334
2326,-179.2,-91.73333333333333,529.0666666666666
2327,-166.4,-98.13333333333333,526.9333333333333
2328,-170.66666666666666,-91.73333333333333,529.0666666666666
2329,-166.4,-91.73333333333333,522.6666666666666
2330,-164.26666666666665,-87.46666666666667,524.8
2331,-168.53333333333333,-91.73333333333333,520.5333333333333
2332,-164.26666666666665,-83.2,520.5333333333333
2333,-174.93333333333334,-78.93333333333334,520.5333333333333
2334,-168.53333333333333,-93.86666666666666,516.2666666666667
2335,-166.4,-85.33333333333333,509.8666666666667
2336,-166.4,-87.46666666666667,509.8666666666667
2337,-160.0,-91.73333333333333,512.0
2338,-164.26666666666665,-89.6,505.59999999999997
2339,-162.13333333333333,-89.6,505.59999999999997
2340,-155.73333333333332,-85.33333333333333,507.73333333333335
2341,-151.46666666666667,-91.73333333333333,507.73333333333335
2342,-153.6,-85.33333333333333,501.3333333333333
2343,-149.33333333333334,-85.33333333333333,524.8
2344,-149.33333333333334,-87.46666666666667,509.8666666666667
2345,-151.46666666666667,-93.86666666666666,507.73333333333335
2346,-153.6,-93.86666666666666,522.6666666666666
2347,-145.06666666666666,-93.86666666666666,529.0666666666666
2348,-157.86666666666667,-91.73333333333333,526.9333333333333
2349,-160.0,-93.86666666666666,529.0666666666666
2350,-164.26666666666665,-93.86666666666666,522.6666666666666
2351,-172.8,-93.86666666666666,529.0666666666666
2352,-183.46666666666667,-93.86666666666666,544.0
2353,-185.6,-98.13333333333333,539.7333333333333
2354,-192.0,-91.73333333333333,544.0
2355,-187.73333333333332,-102.4,539.7333333333333
2356,-192.0,-98.13333333333333,546.1333333333333
2357,-189.86666666666667,-98.13333333333333,544.0
2358,-194.13333333333333,-93.86666666666666,544.0
2359,-192.0,-100.26666666666667,539.7333333333333
2360,-185.6,-93.86666666666666,537.6
2361,-183.46666666666667,-93.86666666666666,533.3333333333334
2362,-179.2,-96.0,526.9333333333333
2363,-183.46666666666667,-98.13333333333333,539.7333333333333
2364,-179.2,-93.86666666666666,524.8
2365,-172.8,-98.13333333333333,531.2
2366,-172.8,-96.0,531.2
2367,-172.8,-100.26666666666667,531.2
2368,-166.4,-96.0,518.4
2369,-174.93333333333334,-91.73333333333333,512.0
2370,-162.13333333333333,-93.86666666666666,535.4666666666667
2371,-164.26666666666665,-85.33333333333333,526.9333333333333
2372,-162.13333333333333,-83.2,531.2
2373,-166.4,-81.06666666666666,533.3333333333334
2374,-162.13333333333333,-83.2,522.6666666666666
2375,-168.53333333333333,-74.66666666666667,529.0666666666666
2376,-168.53333333333333,-70.4,531.2
2377,-166.4,-74.66666666666667,537.6
2378,-160.0,-72.53333333333333,539.7333333333333
2379,-160.0,-74.66666666666667,531.2
2380,-164.26666666666665,-72.53333333333333,541.8666666666667
2381,-160.0,-78.93333333333334,541.8666666666667
2382,-157.86666666666667,-72.53333333333333,541.8666666666667
2383,-160.0,-78.93333333333334,535.4666666666667
2384,-153.6,-76.8,548.2666666666667
2385,-151.46666666666667,-74.66666666666667,539.7333333333333
2386,-149.33333333333334,-78.93333333333334,539.7333333333333
2387,-151.46666666666667,-68.26666666666667,554.6666666666666
2388,-151.46666666666667,-74.66666666666667,544.0
2389,-149.33333333333334,-70.4,535.4666666666667
2390,-147.2,-78.93333333333334,548.2666666666667
2391,-140.8,-72.53333333333333,550.4
2392,-149.33333333333334,-76.8,546.1333333333333
2393,-147.2,-70.4,537.6
2394,-134.4,-74.66666666666667,548.2666666666667
2395,-147.2,-64.0,546.1333333333333
2396,-142.93333333333334,-66.13333333333333,541.8666666666667
2397,-138.66666666666666,-68.26666666666667,539.7333333333333
2398,-140.8,-72.53333333333333,541.8666666666667
2399,-142.93333333333334,-70.4,544.0
