,accelerometerAccelerationX(G),accelerometerAccelerationY(G),accelerometerAccelerationZ(G)
0,19.2,-53.333333333333336,512.0
1,19.2,-49.06666666666666,518.4
2,21.333333333333332,-46.93333333333333,503.46666666666664
3,23.466666666666665,-51.2,512.0
4,23.466666666666665,-40.53333333333333,501.3333333333333
5,17.066666666666666,-61.86666666666667,514.1333333333333
6,23.466666666666665,-49.06666666666666,503.46666666666664
7,21.333333333333332,-44.8,505.59999999999997
8,23.466666666666665,-44.8,505.59999999999997
9,25.6,-46.93333333333333,507.73333333333335
10,17.066666666666666,-46.93333333333333,514.1333333333333
11,19.2,-46.93333333333333,512.0
12,19.2,-46.93333333333333,512.0
13,21.333333333333332,-44.8,512.0
14,27.733333333333334,-51.2,518.4
15,21.333333333333332,-42.666666666666664,514.1333333333333
16,19.2,-46.93333333333333,509.8666666666667
17,21.333333333333332,-55.46666666666667,529.0666666666666
18,14.933333333333334,-51.2,526.9333333333333
19,19.2,-51.2,514.1333333333333
20,19.2,-44.8,514.1333333333333
21,23.466666666666665,-53.333333333333336,524.8
22,19.2,-53.333333333333336,526.9333333333333
23,21.333333333333332,-53.333333333333336,514.1333333333333
24,21.333333333333332,-51.2,514.1333333333333
25,21.333333333333332,-51.2,520.5333333333333
26,27.733333333333334,-49.06666666666666,524.8
27,17.066666666666666,-46.93333333333333,520.5333333333333
28,14.933333333333334,-51.2,516.2666666666667
29,14.933333333333334,-49.06666666666666,518.4
30,19.2,-51.2,526.9333333333333
31,14.933333333333334,-46.93333333333333,522.6666666666666
32,23.466666666666665,-55.46666666666667,529.0666666666666
33,25.6,-57.6,529.0666666666666
34,25.6,-57.6,531.2
35,19.2,-57.6,541.8666666666667
36,19.2,-53.333333333333336,539.7333333333333
37,23.466666666666665,-59.733333333333334,541.8666666666667
38,21.333333333333332,-59.733333333333334,541.8666666666667
39,27.733333333333334,-57.6,535.4666666666667
40,14.933333333333334,-59.733333333333334,539.7333333333333
41,17.066666666666666,-51.2,531.2
42,27.733333333333334,-55.46666666666667,518.4
43,19.2,-53.333333333333336,518.4
44,23.466666666666665,-55.46666666666667,518.4
45,14.933333333333334,-51.2,512.0
46,21.333333333333332,-57.6,505.59999999999997
47,21.333333333333332,-53.333333333333336,505.59999999999997
48,23.466666666666665,-53.333333333333336,509.8666666666667
49,27.733333333333334,-64.0,494.93333333333334
50,23.466666666666665,-61.86666666666667,494.93333333333334
51,27.733333333333334,-55.46666666666667,484.26666666666665
52,29.866666666666667,-61.86666666666667,492.8
53,27.733333333333334,-61.86666666666667,488.5333333333333
54,32.0,-64.0,492.8
55,29.866666666666667,-66.13333333333333,501.3333333333333
56,32.0,-72.53333333333333,503.46666666666664
57,34.13333333333333,-78.93333333333334,497.06666666666666
58,36.266666666666666,-83.2,505.59999999999997
59,36.266666666666666,-87.46666666666667,509.8666666666667
60,38.4,-87.46666666666667,509.8666666666667
61,34.13333333333333,-83.2,512.0
62,36.266666666666666,-85.33333333333333,514.1333333333333
63,34.13333333333333,-81.06666666666666,516.2666666666667
64,36.266666666666666,-89.6,520.5333333333333
65,36.266666666666666,-78.93333333333334,520.5333333333333
66,36.266666666666666,-76.8,524.8
67,32.0,-74.66666666666667,507.73333333333335
68,34.13333333333333,-70.4,509.8666666666667
69,34.13333333333333,-74.66666666666667,512.0
70,25.6,-78.93333333333334,492.8
71,36.266666666666666,-64.0,514.1333333333333
72,27.733333333333334,-59.733333333333334,505.59999999999997
73,34.13333333333333,-66.13333333333333,503.46666666666664
74,32.0,-59.733333333333334,505.59999999999997
75,27.733333333333334,-61.86666666666667,518.4
76,36.266666666666666,-72.53333333333333,507.73333333333335
77,32.0,-68.26666666666667,512.0
78,36.266666666666666,-66.13333333333333,512.0
79,36.266666666666666,-66.13333333333333,518.4
80,34.13333333333333,-72.53333333333333,522.6666666666666
81,34.13333333333333,-76.8,518.4
82,32.0,-66.13333333333333,518.4
83,29.866666666666667,-68.26666666666667,522.6666666666666
84,36.266666666666666,-74.66666666666667,524.8
85,36.266666666666666,-70.4,531.2
86,34.13333333333333,-68.26666666666667,529.0666666666666
87,34.13333333333333,-59.733333333333334,520.5333333333333
88,38.4,-68.26666666666667,526.9333333333333
89,38.4,-66.13333333333333,520.5333333333333
90,34.13333333333333,-61.86666666666667,516.2666666666667
91,34.13333333333333,-66.13333333333333,518.4
92,42.666666666666664,-61.86666666666667,503.46666666666664
93,40.53333333333333,-68.26666666666667,512.0
94,32.0,-59.733333333333334,507.73333333333335
95,34.13333333333333,-66.13333333333333,499.2
96,40.53333333333333,-74.66666666666667,512.0
97,29.866666666666667,-72.53333333333333,505.59999999999997
98,36.266666666666666,-76.8,503.46666666666664
99,36.266666666666666,-78.93333333333334,509.8666666666667
100,32.0,-76.8,516.2666666666667
101,34.13333333333333,-85.33333333333333,522.6666666666666
102,27.733333333333334,-81.06666666666666,520.5333333333333
103,36.266666666666666,-85.33333333333333,524.8
104,36.266666666666666,-81.06666666666666,514.1333333333333
105,32.0,-83.2,516.2666666666667
106,32.0,-78.93333333333334,522.6666666666666
107,32.0,-83.2,518.4
108,34.13333333333333,-74.66666666666667,518.4
109,36.266666666666666,-78.93333333333334,509.8666666666667
110,34.13333333333333,-78.93333333333334,522.6666666666666
111,36.266666666666666,-85.33333333333333,524.8
112,38.4,-76.8,524.8
113,29.866666666666667,-87.46666666666667,518.4
114,36.266666666666666,-83.2,522.6666666666666
115,32.0,-81.06666666666666,535.4666666666667
116,38.4,-87.46666666666667,526.9333333333333
117,34.13333333333333,-83.2,529.0666666666666
118,38.4,-83.2,533.3333333333334
119,40.53333333333333,-85.33333333333333,520.5333333333333
120,38.4,-83.2,516.2666666666667
121,38.4,-87.46666666666667,509.8666666666667
122,38.4,-91.73333333333333,514.1333333333333
123,38.4,-87.46666666666667,505.59999999999997
124,38.4,-83.2,501.3333333333333
125,44.8,-89.6,490.6666666666667
126,32.0,-93.86666666666666,503.46666666666664
127,42.666666666666664,-91.73333333333333,492.8
128,34.13333333333333,-98.13333333333333,494.93333333333334
129,36.266666666666666,-102.4,501.3333333333333
130,34.13333333333333,-106.66666666666667,486.4
131,32.0,-115.2,494.93333333333334
132,34.13333333333333,-110.93333333333334,492.8
133,40.53333333333333,-117.33333333333333,492.8
134,42.666666666666664,-115.2,492.8
135,66.13333333333333,-100.26666666666667,497.06666666666666
136,49.06666666666666,-115.2,480.0
137,51.2,-108.8,482.1333333333333
138,61.86666666666667,-110.93333333333334,486.4
139,53.333333333333336,-104.53333333333333,492.8
140,53.333333333333336,-106.66666666666667,490.6666666666667
141,59.733333333333334,-106.66666666666667,494.93333333333334
142,64.0,-100.26666666666667,490.6666666666667
143,59.733333333333334,-108.8,497.06666666666666
144,51.2,-102.4,497.06666666666666
145,55.46666666666667,-106.66666666666667,503.46666666666664
146,49.06666666666666,-100.26666666666667,507.73333333333335
147,57.6,-98.13333333333333,503.46666666666664
148,55.46666666666667,-98.13333333333333,509.8666666666667
149,53.333333333333336,-93.86666666666666,505.59999999999997
150,59.733333333333334,-93.86666666666666,494.93333333333334
151,53.333333333333336,-87.46666666666667,503.46666666666664
152,53.333333333333336,-85.33333333333333,501.3333333333333
153,51.2,-83.2,488.5333333333333
154,46.93333333333333,-78.93333333333334,499.2
155,46.93333333333333,-87.46666666666667,492.8
156,40.53333333333333,-83.2,497.06666666666666
157,36.266666666666666,-91.73333333333333,499.2
158,32.0,-91.73333333333333,499.2
159,19.2,-89.6,488.5333333333333
160,25.6,-100.26666666666667,497.06666666666666
161,27.733333333333334,-100.26666666666667,501.3333333333333
162,17.066666666666666,-98.13333333333333,503.46666666666664
163,14.933333333333334,-108.8,501.3333333333333
164,17.066666666666666,-104.53333333333333,494.93333333333334
165,19.2,-102.4,501.3333333333333
166,14.933333333333334,-108.8,501.3333333333333
167,17.066666666666666,-106.66666666666667,501.3333333333333
168,10.666666666666666,-102.4,492.8
169,14.933333333333334,-100.26666666666667,497.06666666666666
170,12.8,-100.26666666666667,505.59999999999997
171,12.8,-93.86666666666666,501.3333333333333
172,17.066666666666666,-93.86666666666666,505.59999999999997
173,14.933333333333334,-87.46666666666667,503.46666666666664
174,8.533333333333333,-87.46666666666667,501.3333333333333
175,17.066666666666666,-89.6,503.46666666666664
176,17.066666666666666,-89.6,505.59999999999997
177,19.2,-96.0,507.73333333333335
178,21.333333333333332,-93.86666666666666,509.8666666666667
179,12.8,-98.13333333333333,512.0
180,27.733333333333334,-100.26666666666667,514.1333333333333
181,25.6,-98.13333333333333,512.0
182,17.066666666666666,-89.6,514.1333333333333
183,27.733333333333334,-96.0,509.8666666666667
184,27.733333333333334,-100.26666666666667,507.73333333333335
185,34.13333333333333,-106.66666666666667,509.8666666666667
186,29.866666666666667,-98.13333333333333,514.1333333333333
187,29.866666666666667,-98.13333333333333,514.1333333333333
188,32.0,-96.0,503.46666666666664
189,25.6,-98.13333333333333,512.0
190,34.13333333333333,-102.4,503.46666666666664
191,29.866666666666667,-98.13333333333333,497.06666666666666
192,32.0,-98.13333333333333,492.8
193,34.13333333333333,-100.26666666666667,490.6666666666667
194,32.0,-100.26666666666667,499.2
195,36.266666666666666,-100.26666666666667,501.3333333333333
196,36.266666666666666,-100.26666666666667,503.46666666666664
197,32.0,-98.13333333333333,505.59999999999997
198,40.53333333333333,-100.26666666666667,505.59999999999997
199,42.666666666666664,-104.53333333333333,494.93333333333334
200,49.06666666666666,-104.53333333333333,503.46666666666664
201,53.333333333333336,-89.6,512.0
202,40.53333333333333,-98.13333333333333,501.3333333333333
203,42.666666666666664,-106.66666666666667,499.2
204,46.93333333333333,-96.0,507.73333333333335
205,46.93333333333333,-100.26666666666667,505.59999999999997
206,40.53333333333333,-98.13333333333333,501.3333333333333
207,51.2,-98.13333333333333,499.2
208,49.06666666666666,-106.66666666666667,499.2
209,46.93333333333333,-102.4,499.2
210,51.2,-102.4,497.06666666666666
211,46.93333333333333,-104.53333333333333,492.8
212,57.6,-108.8,507.73333333333335
213,59.733333333333334,-106.66666666666667,501.3333333333333
214,55.46666666666667,-102.4,501.3333333333333
215,59.733333333333334,-110.93333333333334,505.59999999999997
216,59.733333333333334,-106.66666666666667,514.1333333333333
217,59.733333333333334,-98.13333333333333,507.73333333333335
218,66.13333333333333,-102.4,512.0
219,61.86666666666667,-96.0,509.8666666666667
220,59.733333333333334,-93.86666666666666,520.5333333333333
221,57.6,-91.73333333333333,507.73333333333335
222,78.93333333333334,-83.2,516.2666666666667
223,61.86666666666667,-91.73333333333333,503.46666666666664
224,59.733333333333334,-91.73333333333333,503.46666666666664
225,57.6,-100.26666666666667,501.3333333333333
226,57.6,-96.0,501.3333333333333
227,49.06666666666666,-91.73333333333333,499.2
228,51.2,-100.26666666666667,501.3333333333333
229,49.06666666666666,-104.53333333333333,503.46666666666664
230,51.2,-106.66666666666667,516.2666666666667
231,44.8,-104.53333333333333,509.8666666666667
232,51.2,-106.66666666666667,507.73333333333335
233,46.93333333333333,-108.8,501.3333333333333
234,46.93333333333333,-106.66666666666667,512.0
235,44.8,-100.26666666666667,507.73333333333335
236,49.06666666666666,-106.66666666666667,503.46666666666664
237,51.2,-106.66666666666667,505.59999999999997
238,46.93333333333333,-106.66666666666667,507.73333333333335
239,49.06666666666666,-100.26666666666667,509.8666666666667
240,40.53333333333333,-98.13333333333333,507.73333333333335
241,42.666666666666664,-96.0,514.1333333333333
242,44.8,-100.26666666666667,505.59999999999997
243,42.666666666666664,-102.4,516.2666666666667
244,49.06666666666666,-98.13333333333333,509.8666666666667
245,40.53333333333333,-100.26666666666667,505.59999999999997
246,49.06666666666666,-100.26666666666667,503.46666666666664
247,40.53333333333333,-96.0,503.46666666666664
248,38.4,-93.86666666666666,501.3333333333333
249,44.8,-100.26666666666667,499.2
250,40.53333333333333,-102.4,505.59999999999997
251,36.266666666666666,-96.0,497.06666666666666
252,46.93333333333333,-96.0,501.3333333333333
253,40.53333333333333,-102.4,497.06666666666666
254,34.13333333333333,-98.13333333333333,503.46666666666664
255,42.666666666666664,-100.26666666666667,494.93333333333334
256,38.4,-104.53333333333333,501.3333333333333
257,40.53333333333333,-106.66666666666667,503.46666666666664
258,34.13333333333333,-102.4,503.46666666666664
259,38.4,-104.53333333333333,501.3333333333333
260,44.8,-104.53333333333333,507.73333333333335
261,44.8,-102.4,501.3333333333333
262,51.2,-106.66666666666667,501.3333333333333
263,42.666666666666664,-100.26666666666667,503.46666666666664
264,49.06666666666666,-96.0,507.73333333333335
265,44.8,-102.4,509.8666666666667
266,46.93333333333333,-89.6,509.8666666666667
267,40.53333333333333,-91.73333333333333,507.73333333333335
268,40.53333333333333,-91.73333333333333,503.46666666666664
269,44.8,-102.4,501.3333333333333
270,44.8,-91.73333333333333,505.59999999999997
271,42.666666666666664,-102.4,503.46666666666664
272,46.93333333333333,-100.26666666666667,501.3333333333333
273,49.06666666666666,-106.66666666666667,507.73333333333335
274,49.06666666666666,-102.4,501.3333333333333
275,46.93333333333333,-106.66666666666667,505.59999999999997
276,44.8,-102.4,497.06666666666666
277,46.93333333333333,-98.13333333333333,505.59999999999997
278,49.06666666666666,-96.0,507.73333333333335
279,44.8,-100.26666666666667,497.06666666666666
280,44.8,-96.0,490.6666666666667
281,40.53333333333333,-96.0,505.59999999999997
282,44.8,-100.26666666666667,503.46666666666664
283,46.93333333333333,-98.13333333333333,494.93333333333334
284,44.8,-96.0,499.2
285,40.53333333333333,-96.0,501.3333333333333
286,34.13333333333333,-98.13333333333333,501.3333333333333
287,36.266666666666666,-93.86666666666666,509.8666666666667
288,46.93333333333333,-91.73333333333333,512.0
289,55.46666666666667,-98.13333333333333,501.3333333333333
290,38.4,-93.86666666666666,497.06666666666666
291,42.666666666666664,-96.0,507.73333333333335
292,42.666666666666664,-91.73333333333333,503.46666666666664
293,49.06666666666666,-98.13333333333333,512.0
294,46.93333333333333,-98.13333333333333,505.59999999999997
295,49.06666666666666,-102.4,494.93333333333334
296,44.8,-89.6,507.73333333333335
297,44.8,-98.13333333333333,505.59999999999997
298,42.666666666666664,-102.4,497.06666666666666
299,46.93333333333333,-102.4,512.0
300,44.8,-98.13333333333333,505.59999999999997
301,46.93333333333333,-96.0,501.3333333333333
302,42.666666666666664,-100.26666666666667,509.8666666666667
303,46.93333333333333,-100.26666666666667,501.3333333333333
304,49.06666666666666,-100.26666666666667,505.59999999999997
305,44.8,-96.0,501.3333333333333
306,53.333333333333336,-104.53333333333333,512.0
307,46.93333333333333,-98.13333333333333,505.59999999999997
308,49.06666666666666,-96.0,516.2666666666667
309,51.2,-98.13333333333333,516.2666666666667
310,42.666666666666664,-93.86666666666666,509.8666666666667
311,44.8,-93.86666666666666,512.0
312,49.06666666666666,-96.0,520.5333333333333
313,49.06666666666666,-98.13333333333333,514.1333333333333
314,44.8,-102.4,514.1333333333333
315,49.06666666666666,-104.53333333333333,507.73333333333335
316,57.6,-104.53333333333333,505.59999999999997
317,51.2,-113.06666666666666,505.59999999999997
318,44.8,-108.8,512.0
319,49.06666666666666,-110.93333333333334,514.1333333333333
320,44.8,-117.33333333333333,507.73333333333335
321,46.93333333333333,-110.93333333333334,512.0
322,49.06666666666666,-117.33333333333333,516.2666666666667
323,46.93333333333333,-113.06666666666666,509.8666666666667
324,44.8,-106.66666666666667,514.1333333333333
325,44.8,-108.8,516.2666666666667
326,49.06666666666666,-104.53333333333333,507.73333333333335
327,38.4,-100.26666666666667,514.1333333333333
328,32.0,-98.13333333333333,509.8666666666667
329,34.13333333333333,-104.53333333333333,512.0
330,27.733333333333334,-104.53333333333333,505.59999999999997
331,40.53333333333333,-102.4,518.4
332,29.866666666666667,-108.8,526.9333333333333
333,32.0,-115.2,535.4666666666667
334,32.0,-117.33333333333333,539.7333333333333
335,27.733333333333334,-113.06666666666666,544.0
336,29.866666666666667,-117.33333333333333,539.7333333333333
337,38.4,-117.33333333333333,537.6
338,34.13333333333333,-119.46666666666667,533.3333333333334
339,34.13333333333333,-110.93333333333334,533.3333333333334
340,32.0,-110.93333333333334,531.2
341,29.866666666666667,-113.06666666666666,520.5333333333333
342,27.733333333333334,-108.8,522.6666666666666
343,25.6,-108.8,516.2666666666667
344,23.466666666666665,-117.33333333333333,501.3333333333333
345,19.2,-117.33333333333333,503.46666666666664
346,10.666666666666666,-110.93333333333334,499.2
347,12.8,-115.2,494.93333333333334
348,8.533333333333333,-113.06666666666666,499.2
349,17.066666666666666,-115.2,501.3333333333333
350,10.666666666666666,-110.93333333333334,509.8666666666667
351,17.066666666666666,-104.53333333333333,509.8666666666667
352,14.933333333333334,-102.4,512.0
353,17.066666666666666,-106.66666666666667,516.2666666666667
354,27.733333333333334,-100.26666666666667,524.8
355,29.866666666666667,-102.4,516.2666666666667
356,34.13333333333333,-96.0,516.2666666666667
357,42.666666666666664,-98.13333333333333,516.2666666666667
358,49.06666666666666,-96.0,512.0
359,55.46666666666667,-98.13333333333333,509.8666666666667
360,66.13333333333333,-89.6,507.73333333333335
361,87.46666666666667,-106.66666666666667,505.59999999999997
362,91.73333333333333,-106.66666666666667,494.93333333333334
363,102.4,-108.8,503.46666666666664
364,102.4,-104.53333333333333,497.06666666666666
365,102.4,-104.53333333333333,494.93333333333334
366,93.86666666666666,-91.73333333333333,494.93333333333334
367,85.33333333333333,-85.33333333333333,497.06666666666666
368,76.8,-81.06666666666666,497.06666666666666
369,70.4,-78.93333333333334,497.06666666666666
370,61.86666666666667,-76.8,492.8
371,57.6,-81.06666666666666,499.2
372,51.2,-76.8,494.93333333333334
373,46.93333333333333,-76.8,499.2
374,49.06666666666666,-70.4,497.06666666666666
375,55.46666666666667,-72.53333333333333,514.1333333333333
376,53.333333333333336,-68.26666666666667,516.2666666666667
377,51.2,-66.13333333333333,509.8666666666667
378,59.733333333333334,-66.13333333333333,520.5333333333333
379,61.86666666666667,-64.0,518.4
380,57.6,-53.333333333333336,509.8666666666667
381,57.6,-51.2,514.1333333333333
382,53.333333333333336,-42.666666666666664,507.73333333333335
383,55.46666666666667,-44.8,488.5333333333333
384,53.333333333333336,-49.06666666666666,490.6666666666667
385,51.2,-53.333333333333336,486.4
386,53.333333333333336,-64.0,475.73333333333335
387,40.53333333333333,-72.53333333333333,475.73333333333335
388,34.13333333333333,-74.66666666666667,475.73333333333335
389,34.13333333333333,-74.66666666666667,488.5333333333333
390,25.6,-81.06666666666666,492.8
391,29.866666666666667,-78.93333333333334,503.46666666666664
392,23.466666666666665,-85.33333333333333,503.46666666666664
393,12.8,-85.33333333333333,509.8666666666667
394,6.4,-81.06666666666666,507.73333333333335
395,8.533333333333333,-87.46666666666667,501.3333333333333
396,10.666666666666666,-89.6,503.46666666666664
397,12.8,-93.86666666666666,501.3333333333333
398,25.6,-96.0,499.2
399,36.266666666666666,-102.4,499.2
400,49.06666666666666,-100.26666666666667,507.73333333333335
401,64.0,-113.06666666666666,509.8666666666667
402,68.26666666666667,-108.8,501.3333333333333
403,68.26666666666667,-115.2,507.73333333333335
404,66.13333333333333,-108.8,503.46666666666664
405,72.53333333333333,-110.93333333333334,499.2
406,70.4,-108.8,488.5333333333333
407,66.13333333333333,-121.6,486.4
408,64.0,-115.2,482.1333333333333
409,64.0,-113.06666666666666,492.8
410,66.13333333333333,-110.93333333333334,486.4
411,70.4,-108.8,499.2
412,68.26666666666667,-108.8,505.59999999999997
413,64.0,-113.06666666666666,503.46666666666664
414,61.86666666666667,-113.06666666666666,509.8666666666667
415,49.06666666666666,-115.2,499.2
416,42.666666666666664,-117.33333333333333,492.8
417,36.266666666666666,-119.46666666666667,486.4
418,27.733333333333334,-142.93333333333334,484.26666666666665
419,14.933333333333334,-138.66666666666666,471.46666666666664
420,-2.1333333333333333,-138.66666666666666,473.59999999999997
421,-6.4,-140.8,477.8666666666667
422,-25.6,-145.06666666666666,475.73333333333335
423,-23.466666666666665,-147.2,488.5333333333333
424,-25.6,-157.86666666666667,488.5333333333333
425,-34.13333333333333,-157.86666666666667,484.26666666666665
426,-34.13333333333333,-166.4,488.5333333333333
427,-36.266666666666666,-160.0,490.6666666666667
428,-46.93333333333333,-166.4,490.6666666666667
429,-38.4,-162.13333333333333,494.93333333333334
430,-34.13333333333333,-157.86666666666667,501.3333333333333
431,-34.13333333333333,-151.46666666666667,497.06666666666666
432,-32.0,-151.46666666666667,499.2
433,-32.0,-155.73333333333332,492.8
434,-19.2,-155.73333333333332,492.8
435,-21.333333333333332,-160.0,490.6666666666667
436,-25.6,-157.86666666666667,494.93333333333334
437,-25.6,-149.33333333333334,499.2
438,-17.066666666666666,-151.46666666666667,499.2
439,-19.2,-147.2,507.73333333333335
440,-19.2,-149.33333333333334,512.0
441,-12.8,-142.93333333333334,501.3333333333333
442,-10.666666666666666,-138.66666666666666,507.73333333333335
443,-17.066666666666666,-125.86666666666666,505.59999999999997
444,-8.533333333333333,-125.86666666666666,499.2
445,-2.1333333333333333,-119.46666666666667,503.46666666666664
446,10.666666666666666,-108.8,499.2
447,21.333333333333332,-110.93333333333334,488.5333333333333
448,36.266666666666666,-110.93333333333334,494.93333333333334
449,38.4,-113.06666666666666,494.93333333333334
450,38.4,-119.46666666666667,492.8
451,36.266666666666666,-113.06666666666666,499.2
452,32.0,-110.93333333333334,503.46666666666664
453,29.866666666666667,-113.06666666666666,501.3333333333333
454,23.466666666666665,-113.06666666666666,518.4
455,8.533333333333333,-100.26666666666667,520.5333333333333
456,12.8,-108.8,520.5333333333333
457,14.933333333333334,-93.86666666666666,531.2
458,19.2,-85.33333333333333,518.4
459,21.333333333333332,-70.4,518.4
460,29.866666666666667,-74.66666666666667,526.9333333333333
461,32.0,-66.13333333333333,524.8
462,25.6,-57.6,522.6666666666666
463,27.733333333333334,-46.93333333333333,522.6666666666666
464,23.466666666666665,-40.53333333333333,522.6666666666666
465,12.8,-38.4,518.4
466,-4.266666666666667,-23.466666666666665,522.6666666666666
467,-23.466666666666665,-14.933333333333334,522.6666666666666
468,-32.0,-12.8,520.5333333333333
469,-34.13333333333333,-6.4,533.3333333333334
470,-40.53333333333333,-12.8,529.0666666666666
471,-34.13333333333333,-8.533333333333333,541.8666666666667
472,-34.13333333333333,-8.533333333333333,539.7333333333333
473,-29.866666666666667,-8.533333333333333,548.2666666666667
474,-17.066666666666666,-8.533333333333333,558.9333333333333
475,2.1333333333333333,-8.533333333333333,556.8
476,23.466666666666665,-4.266666666666667,563.2
477,42.666666666666664,0.0,565.3333333333334
478,64.0,4.266666666666667,556.8
479,87.46666666666667,2.1333333333333333,552.5333333333333
480,100.26666666666667,6.4,546.1333333333333
481,128.0,6.4,529.0666666666666
482,157.86666666666667,8.533333333333333,520.5333333333333
483,181.33333333333334,0.0,518.4
484,189.86666666666667,-6.4,522.6666666666666
485,194.13333333333333,-17.066666666666666,522.6666666666666
486,185.6,-23.466666666666665,526.9333333333333
487,189.86666666666667,-40.53333333333333,526.9333333333333
488,187.73333333333332,-40.53333333333333,531.2
489,192.0,-49.06666666666666,533.3333333333334
490,189.86666666666667,-40.53333333333333,544.0
491,187.73333333333332,-42.666666666666664,567.4666666666667
492,187.73333333333332,-42.666666666666664,586.6666666666666
493,174.93333333333334,-29.866666666666667,603.7333333333333
494,164.26666666666665,-27.733333333333334,631.4666666666667
495,157.86666666666667,-27.733333333333334,650.6666666666666
496,157.86666666666667,-29.866666666666667,659.2
497,134.4,-34.13333333333333,663.4666666666667
498,100.26666666666667,-46.93333333333333,678.4
499,49.06666666666666,-49.06666666666666,699.7333333333333
500,10.666666666666666,-66.13333333333333,708.2666666666667
501,-10.666666666666666,-70.4,704.0
502,-21.333333333333332,-78.93333333333334,686.9333333333333
503,-44.8,-85.33333333333333,682.6666666666666
504,-74.66666666666667,-87.46666666666667,674.1333333333333
505,-91.73333333333333,-87.46666666666667,644.2666666666667
506,-117.33333333333333,-87.46666666666667,614.4
507,-125.86666666666666,-110.93333333333334,595.2
508,-134.4,-117.33333333333333,571.7333333333333
509,-132.26666666666665,-130.13333333333333,563.2
510,-128.0,-138.66666666666666,544.0
511,-106.66666666666667,-142.93333333333334,524.8
512,-98.13333333333333,-145.06666666666666,501.3333333333333
513,-91.73333333333333,-145.06666666666666,473.59999999999997
514,-78.93333333333334,-136.53333333333333,460.8
515,-53.333333333333336,-117.33333333333333,443.73333333333335
516,-14.933333333333334,-93.86666666666666,428.8
517,17.066666666666666,-64.0,403.2
518,44.8,-29.866666666666667,392.5333333333333
519,64.0,-2.1333333333333333,369.06666666666666
520,74.66666666666667,17.066666666666666,358.4
521,89.6,32.0,345.6
522,102.4,53.333333333333336,337.06666666666666
523,117.33333333333333,64.0,313.6
524,134.4,78.93333333333334,296.5333333333333
525,151.46666666666667,96.0,270.93333333333334
526,174.93333333333334,104.53333333333333,260.26666666666665
527,185.6,119.46666666666667,241.06666666666666
528,194.13333333333333,119.46666666666667,219.73333333333332
529,194.13333333333333,128.0,198.4
530,192.0,132.26666666666665,185.6
531,198.4,136.53333333333333,174.93333333333334
532,206.93333333333334,125.86666666666666,170.66666666666666
533,217.6,128.0,160.0
534,228.26666666666665,123.73333333333333,160.0
535,236.79999999999998,119.46666666666667,155.73333333333332
536,247.46666666666667,104.53333333333333,145.06666666666666
537,260.26666666666665,102.4,160.0
538,270.93333333333334,89.6,166.4
539,283.73333333333335,74.66666666666667,162.13333333333333
540,296.5333333333333,70.4,162.13333333333333
541,309.3333333333333,57.6,160.0
542,320.0,55.46666666666667,168.53333333333333
543,334.93333333333334,46.93333333333333,162.13333333333333
544,341.3333333333333,49.06666666666666,170.66666666666666
545,349.8666666666667,38.4,170.66666666666666
546,360.5333333333333,34.13333333333333,166.4
547,373.3333333333333,23.466666666666665,172.8
548,388.26666666666665,25.6,187.73333333333332
549,401.06666666666666,-2.1333333333333333,172.8
550,411.73333333333335,-8.533333333333333,170.66666666666666
551,422.4,-19.2,192.0
552,428.8,-27.733333333333334,187.73333333333332
553,433.06666666666666,-38.4,192.0
554,443.73333333333335,-44.8,209.06666666666666
555,454.4,-53.333333333333336,213.33333333333334
556,469.3333333333333,-59.733333333333334,226.13333333333333
557,492.8,-64.0,224.0
558,516.2666666666667,-51.2,228.26666666666665
559,539.7333333333333,-44.8,236.79999999999998
560,563.2,-38.4,234.66666666666666
561,582.4,-32.0,238.93333333333334
562,586.6666666666666,-8.533333333333333,249.6
563,593.0666666666666,-8.533333333333333,264.5333333333333
564,595.2,-6.4,296.5333333333333
565,608.0,-8.533333333333333,334.93333333333334
566,665.6,-8.533333333333333,375.46666666666664
567,746.6666666666666,12.8,443.73333333333335
568,819.2,36.266666666666666,484.26666666666665
569,870.4,38.4,499.2
570,930.1333333333333,51.2,497.06666666666666
571,964.2666666666667,42.666666666666664,509.8666666666667
572,970.6666666666666,49.06666666666666,482.1333333333333
573,938.6666666666666,72.53333333333333,437.3333333333333
574,883.1999999999999,102.4,369.06666666666666
575,782.9333333333333,132.26666666666665,300.8
576,674.1333333333333,160.0,230.4
577,588.8,168.53333333333333,187.73333333333332
578,477.8666666666667,174.93333333333334,160.0
579,375.46666666666664,179.2,119.46666666666667
580,277.3333333333333,181.33333333333334,119.46666666666667
581,204.8,177.06666666666666,132.26666666666665
582,138.66666666666666,164.26666666666665,162.13333333333333
583,113.06666666666666,153.6,206.93333333333334
584,106.66666666666667,140.8,260.26666666666665
585,123.73333333333333,125.86666666666666,288.0
586,166.4,117.33333333333333,324.26666666666665
587,221.86666666666667,106.66666666666667,337.06666666666666
588,273.06666666666666,100.26666666666667,356.26666666666665
589,330.6666666666667,85.33333333333333,352.0
590,381.8666666666667,78.93333333333334,330.6666666666667
591,422.4,66.13333333333333,309.3333333333333
592,456.5333333333333,44.8,283.73333333333335
593,488.5333333333333,34.13333333333333,260.26666666666665
594,518.4,25.6,238.93333333333334
595,558.9333333333333,23.466666666666665,219.73333333333332
596,584.5333333333333,27.733333333333334,213.33333333333334
597,625.0666666666666,40.53333333333333,198.4
598,648.5333333333333,53.333333333333336,177.06666666666666
599,672.0,74.66666666666667,162.13333333333333
600,682.6666666666666,104.53333333333333,140.8
601,684.8,115.2,123.73333333333333
602,695.4666666666667,125.86666666666666,110.93333333333334
603,686.9333333333333,130.13333333333333,100.26666666666667
604,680.5333333333333,121.6,98.13333333333333
605,648.5333333333333,113.06666666666666,83.2
606,618.6666666666666,100.26666666666667,85.33333333333333
607,584.5333333333333,83.2,93.86666666666666
608,561.0666666666666,78.93333333333334,102.4
609,548.2666666666667,74.66666666666667,115.2
610,539.7333333333333,64.0,123.73333333333333
611,533.3333333333334,55.46666666666667,142.93333333333334
612,522.6666666666666,46.93333333333333,153.6
613,522.6666666666666,27.733333333333334,168.53333333333333
614,522.6666666666666,14.933333333333334,164.26666666666665
615,518.4,-2.1333333333333333,157.86666666666667
616,524.8,-21.333333333333332,164.26666666666665
617,520.5333333333333,-40.53333333333333,160.0
618,524.8,-61.86666666666667,164.26666666666665
619,516.2666666666667,-76.8,172.8
620,522.6666666666666,-96.0,177.06666666666666
621,518.4,-96.0,177.06666666666666
622,529.0666666666666,-91.73333333333333,177.06666666666666
623,539.7333333333333,-87.46666666666667,177.06666666666666
624,550.4,-70.4,170.66666666666666
625,558.9333333333333,-68.26666666666667,166.4
626,576.0,-46.93333333333333,162.13333333333333
627,573.8666666666667,-27.733333333333334,162.13333333333333
628,578.1333333333333,-17.066666666666666,151.46666666666667
629,580.2666666666667,-4.266666666666667,151.46666666666667
630,567.4666666666667,-6.4,160.0
631,563.2,-2.1333333333333333,157.86666666666667
632,561.0666666666666,-2.1333333333333333,172.8
633,561.0666666666666,-8.533333333333333,174.93333333333334
634,541.8666666666667,-12.8,174.93333333333334
635,526.9333333333333,-23.466666666666665,183.46666666666667
636,526.9333333333333,-23.466666666666665,179.2
637,514.1333333333333,-25.6,177.06666666666666
638,516.2666666666667,-32.0,157.86666666666667
639,518.4,-27.733333333333334,162.13333333333333
640,520.5333333333333,-29.866666666666667,157.86666666666667
641,516.2666666666667,-19.2,153.6
642,512.0,-23.466666666666665,136.53333333333333
643,507.73333333333335,-19.2,140.8
644,509.8666666666667,-36.266666666666666,125.86666666666666
645,516.2666666666667,-21.333333333333332,123.73333333333333
646,507.73333333333335,-27.733333333333334,117.33333333333333
647,512.0,-34.13333333333333,113.06666666666666
648,509.8666666666667,-29.866666666666667,113.06666666666666
649,512.0,-32.0,113.06666666666666
650,514.1333333333333,-27.733333333333334,102.4
651,518.4,-25.6,104.53333333333333
652,522.6666666666666,-27.733333333333334,89.6
653,514.1333333333333,-32.0,76.8
654,518.4,-29.866666666666667,83.2
655,518.4,-36.266666666666666,76.8
656,522.6666666666666,-29.866666666666667,81.06666666666666
657,533.3333333333334,-19.2,66.13333333333333
658,526.9333333333333,-25.6,74.66666666666667
659,516.2666666666667,-10.666666666666666,83.2
660,518.4,-25.6,81.06666666666666
661,520.5333333333333,-29.866666666666667,85.33333333333333
662,524.8,-36.266666666666666,76.8
663,524.8,-38.4,78.93333333333334
664,522.6666666666666,-42.666666666666664,81.06666666666666
665,524.8,-44.8,85.33333333333333
666,520.5333333333333,-51.2,76.8
667,516.2666666666667,-51.2,81.06666666666666
668,509.8666666666667,-49.06666666666666,78.93333333333334
669,512.0,-46.93333333333333,74.66666666666667
670,512.0,-40.53333333333333,68.26666666666667
671,512.0,-46.93333333333333,64.0
672,512.0,-46.93333333333333,61.86666666666667
673,516.2666666666667,-40.53333333333333,55.46666666666667
674,512.0,-34.13333333333333,57.6
675,509.8666666666667,-32.0,66.13333333333333
676,507.73333333333335,-25.6,70.4
677,503.46666666666664,-19.2,78.93333333333334
678,509.8666666666667,-12.8,83.2
679,509.8666666666667,-8.533333333333333,78.93333333333334
680,512.0,-6.4,81.06666666666666
681,522.6666666666666,-2.1333333333333333,85.33333333333333
682,520.5333333333333,2.1333333333333333,89.6
683,535.4666666666667,6.4,81.06666666666666
684,535.4666666666667,21.333333333333332,68.26666666666667
685,539.7333333333333,12.8,72.53333333333333
686,546.1333333333333,12.8,70.4
687,550.4,10.666666666666666,68.26666666666667
688,556.8,10.666666666666666,66.13333333333333
689,558.9333333333333,10.666666666666666,64.0
690,563.2,12.8,70.4
691,569.6,8.533333333333333,72.53333333333333
692,565.3333333333334,10.666666666666666,68.26666666666667
693,567.4666666666667,12.8,70.4
694,565.3333333333334,14.933333333333334,66.13333333333333
695,563.2,14.933333333333334,66.13333333333333
696,569.6,12.8,57.6
697,573.8666666666667,8.533333333333333,49.06666666666666
698,563.2,4.266666666666667,42.666666666666664
699,565.3333333333334,6.4,49.06666666666666
700,561.0666666666666,6.4,36.266666666666666
701,558.9333333333333,2.1333333333333333,29.866666666666667
702,554.6666666666666,-6.4,29.866666666666667
703,563.2,-2.1333333333333333,27.733333333333334
704,552.5333333333333,-2.1333333333333333,25.6
705,550.4,-2.1333333333333333,25.6
706,546.1333333333333,-6.4,32.0
707,544.0,0.0,32.0
708,548.2666666666667,-2.1333333333333333,34.13333333333333
709,548.2666666666667,0.0,32.0
710,548.2666666666667,0.0,29.866666666666667
711,550.4,-6.4,38.4
712,561.0666666666666,-6.4,44.8
713,558.9333333333333,4.266666666666667,40.53333333333333
714,554.6666666666666,10.666666666666666,44.8
715,565.3333333333334,14.933333333333334,36.266666666666666
716,563.2,23.466666666666665,42.666666666666664
717,567.4666666666667,29.866666666666667,44.8
718,561.0666666666666,42.666666666666664,36.266666666666666
719,556.8,49.06666666666666,36.266666666666666
720,567.4666666666667,49.06666666666666,42.666666666666664
721,558.9333333333333,53.333333333333336,51.2
722,580.2666666666667,44.8,36.266666666666666
723,569.6,59.733333333333334,36.266666666666666
724,573.8666666666667,57.6,34.13333333333333
725,571.7333333333333,61.86666666666667,34.13333333333333
726,576.0,53.333333333333336,25.6
727,563.2,53.333333333333336,27.733333333333334
728,569.6,40.53333333333333,27.733333333333334
729,556.8,40.53333333333333,25.6
730,556.8,27.733333333333334,36.266666666666666
731,550.4,32.0,36.266666666666666
732,546.1333333333333,14.933333333333334,40.53333333333333
733,537.6,2.1333333333333333,57.6
734,529.0666666666666,2.1333333333333333,70.4
735,524.8,-6.4,72.53333333333333
736,520.5333333333333,-19.2,83.2
737,514.1333333333333,-25.6,96.0
738,514.1333333333333,-34.13333333333333,96.0
739,514.1333333333333,-42.666666666666664,104.53333333333333
740,520.5333333333333,-51.2,113.06666666666666
741,514.1333333333333,-51.2,108.8
742,514.1333333333333,-44.8,110.93333333333334
743,520.5333333333333,-49.06666666666666,110.93333333333334
744,518.4,-40.53333333333333,110.93333333333334
745,518.4,-42.666666666666664,93.86666666666666
746,512.0,-25.6,98.13333333333333
747,516.2666666666667,-25.6,98.13333333333333
748,512.0,-8.533333333333333,91.73333333333333
749,509.8666666666667,-8.533333333333333,85.33333333333333
750,509.8666666666667,-2.1333333333333333,78.93333333333334
751,512.0,0.0,76.8
752,512.0,6.4,76.8
753,512.0,6.4,72.53333333333333
754,512.0,17.066666666666666,74.66666666666667
755,512.0,12.8,78.93333333333334
756,514.1333333333333,14.933333333333334,78.93333333333334
757,516.2666666666667,12.8,78.93333333333334
758,522.6666666666666,14.933333333333334,64.0
759,526.9333333333333,25.6,76.8
760,531.2,14.933333333333334,70.4
761,535.4666666666667,21.333333333333332,68.26666666666667
762,537.6,23.466666666666665,68.26666666666667
763,541.8666666666667,25.6,78.93333333333334
764,550.4,27.733333333333334,68.26666666666667
765,546.1333333333333,25.6,72.53333333333333
766,550.4,21.333333333333332,74.66666666666667
767,561.0666666666666,23.466666666666665,66.13333333333333
768,565.3333333333334,25.6,66.13333333333333
769,563.2,17.066666666666666,57.6
770,563.2,4.266666666666667,59.733333333333334
771,567.4666666666667,4.266666666666667,49.06666666666666
772,563.2,2.1333333333333333,55.46666666666667
773,561.0666666666666,-6.4,57.6
774,556.8,-6.4,59.733333333333334
775,550.4,-6.4,66.13333333333333
776,539.7333333333333,-6.4,61.86666666666667
777,524.8,-4.266666666666667,59.733333333333334
778,526.9333333333333,-4.266666666666667,57.6
779,518.4,-6.4,64.0
780,512.0,-2.1333333333333333,55.46666666666667
781,507.73333333333335,4.266666666666667,53.333333333333336
782,509.8666666666667,4.266666666666667,55.46666666666667
783,509.8666666666667,12.8,53.333333333333336
784,503.46666666666664,10.666666666666666,51.2
785,507.73333333333335,10.666666666666666,44.8
786,509.8666666666667,19.2,42.666666666666664
787,512.0,17.066666666666666,40.53333333333333
788,514.1333333333333,19.2,38.4
789,514.1333333333333,23.466666666666665,34.13333333333333
790,520.5333333333333,21.333333333333332,29.866666666666667
791,522.6666666666666,25.6,17.066666666666666
792,524.8,23.466666666666665,27.733333333333334
793,526.9333333333333,21.333333333333332,19.2
794,535.4666666666667,23.466666666666665,23.466666666666665
795,537.6,23.466666666666665,12.8
796,544.0,29.866666666666667,21.333333333333332
797,561.0666666666666,19.2,6.4
798,561.0666666666666,27.733333333333334,10.666666666666666
799,569.6,21.333333333333332,8.533333333333333
800,569.6,25.6,-2.1333333333333333
801,578.1333333333333,19.2,-8.533333333333333
802,578.1333333333333,14.933333333333334,-6.4
803,576.0,21.333333333333332,-12.8
804,578.1333333333333,14.933333333333334,-6.4
805,571.7333333333333,19.2,-12.8
806,573.8666666666667,14.933333333333334,-17.066666666666666
807,569.6,19.2,-17.066666666666666
808,567.4666666666667,17.066666666666666,-23.466666666666665
809,565.3333333333334,10.666666666666666,-25.6
810,563.2,14.933333333333334,-25.6
811,554.6666666666666,17.066666666666666,-29.866666666666667
812,561.0666666666666,14.933333333333334,-34.13333333333333
813,554.6666666666666,10.666666666666666,-36.266666666666666
814,550.4,8.533333333333333,-34.13333333333333
815,554.6666666666666,0.0,-40.53333333333333
816,554.6666666666666,6.4,-34.13333333333333
817,556.8,10.666666666666666,-34.13333333333333
818,563.2,4.266666666666667,-44.8
819,569.6,8.533333333333333,-44.8
820,578.1333333333333,14.933333333333334,-51.2
821,580.2666666666667,4.266666666666667,-53.333333333333336
822,590.9333333333333,12.8,-57.6
823,595.2,6.4,-57.6
824,599.4666666666667,12.8,-68.26666666666667
825,608.0,19.2,-70.4
826,610.1333333333333,17.066666666666666,-74.66666666666667
827,612.2666666666667,27.733333333333334,-74.66666666666667
828,610.1333333333333,32.0,-76.8
829,608.0,44.8,-83.2
830,603.7333333333333,42.666666666666664,-89.6
831,605.8666666666667,40.53333333333333,-104.53333333333333
832,603.7333333333333,38.4,-108.8
833,597.3333333333334,42.666666666666664,-110.93333333333334
834,586.6666666666666,44.8,-106.66666666666667
835,578.1333333333333,46.93333333333333,-102.4
836,580.2666666666667,44.8,-98.13333333333333
837,571.7333333333333,40.53333333333333,-102.4
838,556.8,38.4,-93.86666666666666
839,558.9333333333333,38.4,-87.46666666666667
840,550.4,46.93333333333333,-91.73333333333333
841,550.4,36.266666666666666,-83.2
842,554.6666666666666,42.666666666666664,-78.93333333333334
843,558.9333333333333,36.266666666666666,-83.2
844,558.9333333333333,32.0,-78.93333333333334
845,556.8,34.13333333333333,-72.53333333333333
846,550.4,32.0,-68.26666666666667
847,548.2666666666667,25.6,-68.26666666666667
848,556.8,19.2,-57.6
849,563.2,19.2,-53.333333333333336
850,556.8,14.933333333333334,-57.6
851,563.2,23.466666666666665,-46.93333333333333
852,567.4666666666667,25.6,-53.333333333333336
853,586.6666666666666,32.0,-42.666666666666664
854,573.8666666666667,32.0,-44.8
855,573.8666666666667,27.733333333333334,-44.8
856,573.8666666666667,23.466666666666665,-51.2
857,563.2,25.6,-57.6
858,567.4666666666667,21.333333333333332,-66.13333333333333
859,567.4666666666667,21.333333333333332,-57.6
860,565.3333333333334,25.6,-59.733333333333334
861,569.6,27.733333333333334,-68.26666666666667
862,571.7333333333333,23.466666666666665,-78.93333333333334
863,563.2,25.6,-83.2
864,558.9333333333333,27.733333333333334,-91.73333333333333
865,563.2,21.333333333333332,-93.86666666666666
866,556.8,25.6,-87.46666666666667
867,548.2666666666667,27.733333333333334,-91.73333333333333
868,556.8,25.6,-87.46666666666667
869,554.6666666666666,25.6,-93.86666666666666
870,539.7333333333333,34.13333333333333,-93.86666666666666
871,548.2666666666667,34.13333333333333,-87.46666666666667
872,544.0,38.4,-78.93333333333334
873,541.8666666666667,32.0,-78.93333333333334
874,541.8666666666667,38.4,-87.46666666666667
875,533.3333333333334,32.0,-46.93333333333333
876,546.1333333333333,23.466666666666665,-68.26666666666667
877,535.4666666666667,21.333333333333332,-66.13333333333333
878,541.8666666666667,19.2,-59.733333333333334
879,546.1333333333333,12.8,-53.333333333333336
880,544.0,8.533333333333333,-46.93333333333333
881,546.1333333333333,10.666666666666666,-42.666666666666664
882,531.2,8.533333333333333,-36.266666666666666
883,537.6,8.533333333333333,-34.13333333333333
884,535.4666666666667,0.0,-27.733333333333334
885,533.3333333333334,-4.266666666666667,-14.933333333333334
886,537.6,-6.4,-10.666666666666666
887,541.8666666666667,-8.533333333333333,-6.4
888,539.7333333333333,-8.533333333333333,-2.1333333333333333
889,535.4666666666667,-6.4,0.0
890,535.4666666666667,-2.1333333333333333,4.266666666666667
891,533.3333333333334,-4.266666666666667,0.0
892,531.2,-6.4,2.1333333333333333
893,529.0666666666666,-6.4,-2.1333333333333333
894,531.2,-6.4,-10.666666666666666
895,529.0666666666666,-4.266666666666667,0.0
896,533.3333333333334,-4.266666666666667,2.1333333333333333
897,531.2,6.4,-2.1333333333333333
898,522.6666666666666,12.8,-4.266666666666667
899,531.2,6.4,-10.666666666666666
900,526.9333333333333,14.933333333333334,-2.1333333333333333
901,522.6666666666666,21.333333333333332,-12.8
902,524.8,21.333333333333332,-8.533333333333333
903,526.9333333333333,29.866666666666667,-8.533333333333333
904,522.6666666666666,32.0,-8.533333333333333
905,522.6666666666666,40.53333333333333,0.0
906,520.5333333333333,53.333333333333336,-6.4
907,520.5333333333333,40.53333333333333,4.266666666666667
908,529.0666666666666,46.93333333333333,4.266666666666667
909,524.8,57.6,6.4
910,526.9333333333333,55.46666666666667,4.266666666666667
911,524.8,55.46666666666667,6.4
912,533.3333333333334,59.733333333333334,2.1333333333333333
913,529.0666666666666,59.733333333333334,-2.1333333333333333
914,529.0666666666666,55.46666666666667,4.266666666666667
915,526.9333333333333,59.733333333333334,8.533333333333333
916,529.0666666666666,64.0,-2.1333333333333333
917,537.6,57.6,-6.4
918,522.6666666666666,46.93333333333333,2.1333333333333333
919,529.0666666666666,49.06666666666666,6.4
920,531.2,42.666666666666664,8.533333333333333
921,539.7333333333333,29.866666666666667,12.8
922,539.7333333333333,34.13333333333333,10.666666666666666
923,539.7333333333333,17.066666666666666,19.2
924,546.1333333333333,19.2,23.466666666666665
925,548.2666666666667,14.933333333333334,27.733333333333334
926,556.8,6.4,17.066666666666666
927,561.0666666666666,2.1333333333333333,21.333333333333332
928,563.2,6.4,21.333333333333332
929,554.6666666666666,19.2,27.733333333333334
930,554.6666666666666,21.333333333333332,25.6
931,561.0666666666666,14.933333333333334,21.333333333333332
932,554.6666666666666,21.333333333333332,19.2
933,550.4,34.13333333333333,12.8
934,556.8,38.4,10.666666666666666
935,554.6666666666666,42.666666666666664,2.1333333333333333
936,554.6666666666666,49.06666666666666,8.533333333333333
937,558.9333333333333,46.93333333333333,-10.666666666666666
938,556.8,51.2,-4.266666666666667
939,548.2666666666667,49.06666666666666,-8.533333333333333
940,548.2666666666667,44.8,-32.0
941,552.5333333333333,55.46666666666667,-12.8
942,550.4,53.333333333333336,-8.533333333333333
943,548.2666666666667,46.93333333333333,-12.8
944,546.1333333333333,40.53333333333333,-4.266666666666667
945,544.0,46.93333333333333,-8.533333333333333
946,537.6,38.4,2.1333333333333333
947,539.7333333333333,46.93333333333333,6.4
948,539.7333333333333,44.8,6.4
949,544.0,40.53333333333333,8.533333333333333
950,541.8666666666667,42.666666666666664,0.0
951,539.7333333333333,44.8,14.933333333333334
952,537.6,46.93333333333333,14.933333333333334
953,539.7333333333333,46.93333333333333,4.266666666666667
954,544.0,51.2,2.1333333333333333
955,541.8666666666667,51.2,0.0
956,537.6,49.06666666666666,-6.4
957,535.4666666666667,61.86666666666667,-2.1333333333333333
958,535.4666666666667,53.333333333333336,-4.266666666666667
959,529.0666666666666,57.6,-6.4
960,533.3333333333334,53.333333333333336,-12.8
961,533.3333333333334,53.333333333333336,-8.533333333333333
962,524.8,51.2,-10.666666666666666
963,529.0666666666666,40.53333333333333,-4.266666666666667
964,522.6666666666666,49.06666666666666,-8.533333333333333
965,531.2,40.53333333333333,0.0
966,531.2,42.666666666666664,-2.1333333333333333
967,533.3333333333334,36.266666666666666,2.1333333333333333
968,537.6,36.266666666666666,8.533333333333333
969,537.6,27.733333333333334,17.066666666666666
970,529.0666666666666,29.866666666666667,10.666666666666666
971,524.8,25.6,17.066666666666666
972,533.3333333333334,14.933333333333334,25.6
973,531.2,17.066666666666666,21.333333333333332
974,531.2,12.8,23.466666666666665
975,537.6,10.666666666666666,36.266666666666666
976,539.7333333333333,6.4,32.0
977,539.7333333333333,4.266666666666667,40.53333333333333
978,541.8666666666667,4.266666666666667,44.8
979,541.8666666666667,8.533333333333333,38.4
980,539.7333333333333,8.533333333333333,51.2
981,546.1333333333333,10.666666666666666,34.13333333333333
982,546.1333333333333,14.933333333333334,42.666666666666664
983,546.1333333333333,17.066666666666666,32.0
984,550.4,21.333333333333332,38.4
985,548.2666666666667,21.333333333333332,32.0
986,544.0,25.6,25.6
987,544.0,29.866666666666667,23.466666666666665
988,544.0,32.0,23.466666666666665
989,541.8666666666667,32.0,21.333333333333332
990,544.0,36.266666666666666,21.333333333333332
991,544.0,40.53333333333333,27.733333333333334
992,548.2666666666667,46.93333333333333,19.2
993,544.0,53.333333333333336,17.066666666666666
994,552.5333333333333,51.2,6.4
995,556.8,53.333333333333336,14.933333333333334
996,541.8666666666667,61.86666666666667,12.8
997,552.5333333333333,61.86666666666667,17.066666666666666
998,563.2,59.733333333333334,-4.266666666666667
999,561.0666666666666,66.13333333333333,2.1333333333333333
1000,565.3333333333334,59.733333333333334,-2.1333333333333333
1001,558.9333333333333,64.0,0.0
1002,573.8666666666667,66.13333333333333,-2.1333333333333333
1003,565.3333333333334,57.6,-8.533333333333333
1004,563.2,59.733333333333334,0.0
1005,569.6,51.2,-2.1333333333333333
1006,567.4666666666667,64.0,-6.4
1007,569.6,57.6,-2.1333333333333333
1008,569.6,51.2,-6.4
1009,567.4666666666667,55.46666666666667,-2.1333333333333333
1010,565.3333333333334,53.333333333333336,-4.266666666666667
1011,565.3333333333334,46.93333333333333,2.1333333333333333
1012,569.6,46.93333333333333,6.4
1013,565.3333333333334,49.06666666666666,0.0
1014,563.2,49.06666666666666,8.533333333333333
1015,558.9333333333333,51.2,2.1333333333333333
1016,556.8,46.93333333333333,0.0
1017,548.2666666666667,51.2,4.266666666666667
1018,554.6666666666666,46.93333333333333,4.266666666666667
1019,546.1333333333333,51.2,2.1333333333333333
1020,554.6666666666666,44.8,0.0
1021,544.0,49.06666666666666,-2.1333333333333333
1022,548.2666666666667,46.93333333333333,6.4
1023,541.8666666666667,51.2,2.1333333333333333
1024,546.1333333333333,44.8,10.666666666666666
1025,537.6,46.93333333333333,12.8
1026,544.0,44.8,8.533333333333333
1027,539.7333333333333,44.8,6.4
1028,539.7333333333333,44.8,17.066666666666666
1029,544.0,42.666666666666664,14.933333333333334
1030,541.8666666666667,42.666666666666664,19.2
1031,544.0,46.93333333333333,12.8
1032,541.8666666666667,49.06666666666666,19.2
1033,537.6,51.2,25.6
1034,541.8666666666667,42.666666666666664,17.066666666666666
1035,535.4666666666667,53.333333333333336,25.6
1036,539.7333333333333,44.8,25.6
1037,539.7333333333333,49.06666666666666,25.6
1038,539.7333333333333,53.333333333333336,32.0
1039,544.0,46.93333333333333,27.733333333333334
1040,539.7333333333333,51.2,27.733333333333334
1041,541.8666666666667,57.6,27.733333333333334
1042,544.0,55.46666666666667,32.0
1043,548.2666666666667,55.46666666666667,27.733333333333334
1044,550.4,55.46666666666667,27.733333333333334
1045,544.0,57.6,29.866666666666667
1046,548.2666666666667,61.86666666666667,27.733333333333334
1047,548.2666666666667,59.733333333333334,27.733333333333334
1048,544.0,64.0,27.733333333333334
1049,541.8666666666667,66.13333333333333,25.6
1050,548.2666666666667,61.86666666666667,19.2
1051,550.4,64.0,12.8
1052,546.1333333333333,70.4,27.733333333333334
1053,544.0,74.66666666666667,17.066666666666666
1054,544.0,68.26666666666667,27.733333333333334
1055,544.0,74.66666666666667,23.466666666666665
1056,546.1333333333333,76.8,19.2
1057,546.1333333333333,74.66666666666667,19.2
1058,548.2666666666667,78.93333333333334,4.266666666666667
1059,546.1333333333333,74.66666666666667,14.933333333333334
1060,537.6,76.8,0.0
1061,537.6,81.06666666666666,8.533333333333333
1062,546.1333333333333,81.06666666666666,17.066666666666666
1063,546.1333333333333,68.26666666666667,12.8
1064,546.1333333333333,74.66666666666667,12.8
1065,548.2666666666667,74.66666666666667,4.266666666666667
1066,548.2666666666667,72.53333333333333,17.066666666666666
1067,546.1333333333333,68.26666666666667,8.533333333333333
1068,550.4,72.53333333333333,-4.266666666666667
1069,550.4,64.0,2.1333333333333333
1070,546.1333333333333,74.66666666666667,2.1333333333333333
1071,552.5333333333333,61.86666666666667,12.8
1072,546.1333333333333,70.4,2.1333333333333333
1073,552.5333333333333,61.86666666666667,10.666666666666666
1074,554.6666666666666,64.0,6.4
1075,554.6666666666666,59.733333333333334,12.8
1076,550.4,61.86666666666667,14.933333333333334
1077,550.4,64.0,4.266666666666667
1078,552.5333333333333,53.333333333333336,14.933333333333334
1079,552.5333333333333,57.6,4.266666666666667
1080,554.6666666666666,61.86666666666667,8.533333333333333
1081,550.4,61.86666666666667,4.266666666666667
1082,554.6666666666666,55.46666666666667,6.4
1083,552.5333333333333,55.46666666666667,4.266666666666667
1084,552.5333333333333,59.733333333333334,12.8
1085,548.2666666666667,55.46666666666667,8.533333333333333
1086,546.1333333333333,59.733333333333334,10.666666666666666
1087,552.5333333333333,53.333333333333336,0.0
1088,548.2666666666667,55.46666666666667,2.1333333333333333
1089,548.2666666666667,59.733333333333334,0.0
1090,550.4,55.46666666666667,-2.1333333333333333
1091,548.2666666666667,46.93333333333333,2.1333333333333333
1092,546.1333333333333,49.06666666666666,10.666666666666666
1093,541.8666666666667,55.46666666666667,-2.1333333333333333
1094,544.0,53.333333333333336,6.4
1095,550.4,51.2,8.533333333333333
1096,548.2666666666667,51.2,4.266666666666667
1097,550.4,51.2,2.1333333333333333
1098,541.8666666666667,55.46666666666667,0.0
1099,544.0,49.06666666666666,8.533333333333333
1100,552.5333333333333,49.06666666666666,4.266666666666667
1101,541.8666666666667,51.2,6.4
1102,544.0,49.06666666666666,2.1333333333333333
1103,535.4666666666667,32.0,-12.8
1104,546.1333333333333,55.46666666666667,2.1333333333333333
1105,544.0,49.06666666666666,0.0
1106,541.8666666666667,46.93333333333333,8.533333333333333
1107,541.8666666666667,55.46666666666667,2.1333333333333333
1108,544.0,53.333333333333336,17.066666666666666
1109,541.8666666666667,57.6,8.533333333333333
1110,541.8666666666667,49.06666666666666,21.333333333333332
1111,544.0,53.333333333333336,12.8
1112,541.8666666666667,51.2,14.933333333333334
1113,544.0,55.46666666666667,14.933333333333334
1114,541.8666666666667,64.0,29.866666666666667
1115,535.4666666666667,57.6,19.2
1116,541.8666666666667,59.733333333333334,14.933333333333334
1117,546.1333333333333,59.733333333333334,25.6
1118,550.4,59.733333333333334,19.2
1119,541.8666666666667,61.86666666666667,14.933333333333334
1120,548.2666666666667,61.86666666666667,17.066666666666666
1121,548.2666666666667,61.86666666666667,25.6
1122,546.1333333333333,59.733333333333334,12.8
1123,544.0,59.733333333333334,17.066666666666666
1124,550.4,72.53333333333333,2.1333333333333333
1125,548.2666666666667,59.733333333333334,21.333333333333332
1126,546.1333333333333,57.6,17.066666666666666
1127,544.0,55.46666666666667,10.666666666666666
1128,546.1333333333333,59.733333333333334,12.8
1129,546.1333333333333,57.6,14.933333333333334
1130,550.4,55.46666666666667,21.333333333333332
1131,544.0,57.6,6.4
1132,554.6666666666666,51.2,8.533333333333333
1133,539.7333333333333,66.13333333333333,17.066666666666666
1134,544.0,64.0,6.4
1135,546.1333333333333,53.333333333333336,14.933333333333334
1136,546.1333333333333,57.6,14.933333333333334
1137,546.1333333333333,61.86666666666667,12.8
1138,546.1333333333333,57.6,19.2
1139,544.0,57.6,8.533333333333333
1140,541.8666666666667,51.2,12.8
1141,541.8666666666667,59.733333333333334,10.666666666666666
1142,546.1333333333333,51.2,6.4
1143,539.7333333333333,59.733333333333334,12.8
1144,544.0,59.733333333333334,8.533333333333333
1145,539.7333333333333,59.733333333333334,21.333333333333332
1146,539.7333333333333,59.733333333333334,12.8
1147,541.8666666666667,59.733333333333334,14.933333333333334
1148,548.2666666666667,59.733333333333334,23.466666666666665
1149,539.7333333333333,64.0,8.533333333333333
1150,544.0,53.333333333333336,8.533333333333333
1151,544.0,57.6,19.2
1152,544.0,59.733333333333334,21.333333333333332
1153,541.8666666666667,64.0,12.8
1154,548.2666666666667,64.0,10.666666666666666
1155,544.0,59.733333333333334,12.8
1156,541.8666666666667,64.0,10.666666666666666
1157,539.7333333333333,70.4,12.8
1158,539.7333333333333,51.2,23.466666666666665
1159,537.6,51.2,23.466666666666665
1160,567.4666666666667,89.6,17.066666666666666
1161,533.3333333333334,46.93333333333333,27.733333333333334
1162,546.1333333333333,64.0,-8.533333333333333
1163,550.4,46.93333333333333,-8.533333333333333
1164,531.2,70.4,17.066666666666666
1165,544.0,57.6,19.2
1166,539.7333333333333,61.86666666666667,14.933333333333334
1167,552.5333333333333,57.6,19.2
1168,529.0666666666666,40.53333333333333,36.266666666666666
1169,554.6666666666666,59.733333333333334,21.333333333333332
1170,544.0,57.6,19.2
1171,539.7333333333333,59.733333333333334,12.8
1172,550.4,55.46666666666667,14.933333333333334
1173,544.0,57.6,61.86666666666667
1174,546.1333333333333,66.13333333333333,17.066666666666666
1175,548.2666666666667,59.733333333333334,21.333333333333332
1176,526.9333333333333,64.0,23.466666666666665
1177,535.4666666666667,61.86666666666667,12.8
1178,548.2666666666667,72.53333333333333,36.266666666666666
1179,541.8666666666667,51.2,27.733333333333334
1180,541.8666666666667,68.26666666666667,21.333333333333332
1181,531.2,61.86666666666667,38.4
1182,531.2,49.06666666666666,12.8
1183,552.5333333333333,68.26666666666667,34.13333333333333
1184,541.8666666666667,57.6,25.6
1185,546.1333333333333,55.46666666666667,27.733333333333334
1186,544.0,61.86666666666667,27.733333333333334
1187,552.5333333333333,57.6,21.333333333333332
1188,539.7333333333333,66.13333333333333,23.466666666666665
1189,550.4,53.333333333333336,36.266666666666666
1190,526.9333333333333,59.733333333333334,59.733333333333334
1191,518.4,70.4,57.6
1192,561.0666666666666,61.86666666666667,10.666666666666666
1193,522.6666666666666,42.666666666666664,32.0
1194,546.1333333333333,70.4,21.333333333333332
1195,529.0666666666666,70.4,27.733333333333334
1196,552.5333333333333,64.0,8.533333333333333
1197,550.4,68.26666666666667,14.933333333333334
1198,539.7333333333333,68.26666666666667,23.466666666666665
1199,544.0,64.0,34.13333333333333
1200,541.8666666666667,59.733333333333334,27.733333333333334
1201,544.0,57.6,25.6
1202,537.6,61.86666666666667,27.733333333333334
1203,546.1333333333333,57.6,25.6
1204,531.2,51.2,21.333333333333332
1205,531.2,51.2,34.13333333333333
1206,537.6,34.13333333333333,4.266666666666667
1207,524.8,36.266666666666666,42.666666666666664
1208,550.4,89.6,8.533333333333333
1209,571.7333333333333,29.866666666666667,53.333333333333336
1210,563.2,85.33333333333333,34.13333333333333
1211,514.1333333333333,70.4,23.466666666666665
1212,550.4,53.333333333333336,40.53333333333333
1213,524.8,68.26666666666667,40.53333333333333
1214,539.7333333333333,57.6,27.733333333333334
1215,537.6,59.733333333333334,36.266666666666666
1216,544.0,53.333333333333336,32.0
1217,544.0,59.733333333333334,29.866666666666667
1218,537.6,40.53333333333333,32.0
1219,531.2,49.06666666666666,42.666666666666664
1220,558.9333333333333,89.6,25.6
1221,573.8666666666667,70.4,25.6
1222,550.4,61.86666666666667,32.0
1223,537.6,59.733333333333334,19.2
1224,546.1333333333333,64.0,38.4
1225,544.0,64.0,27.733333333333334
1226,563.2,76.8,25.6
1227,573.8666666666667,78.93333333333334,27.733333333333334
1228,563.2,61.86666666666667,40.53333333333333
1229,535.4666666666667,49.06666666666666,36.266666666666666
1230,548.2666666666667,61.86666666666667,27.733333333333334
1231,539.7333333333333,59.733333333333334,27.733333333333334
1232,546.1333333333333,57.6,29.866666666666667
1233,541.8666666666667,59.733333333333334,32.0
1234,552.5333333333333,64.0,49.06666666666666
1235,552.5333333333333,66.13333333333333,36.266666666666666
1236,533.3333333333334,36.266666666666666,29.866666666666667
1237,522.6666666666666,64.0,36.266666666666666
1238,544.0,59.733333333333334,38.4
1239,541.8666666666667,66.13333333333333,53.333333333333336
1240,539.7333333333333,51.2,29.866666666666667
1241,541.8666666666667,70.4,29.866666666666667
1242,565.3333333333334,44.8,59.733333333333334
1243,552.5333333333333,64.0,53.333333333333336
1244,539.7333333333333,64.0,42.666666666666664
1245,550.4,61.86666666666667,34.13333333333333
1246,548.2666666666667,57.6,38.4
1247,548.2666666666667,57.6,42.666666666666664
1248,541.8666666666667,57.6,46.93333333333333
1249,556.8,64.0,57.6
1250,552.5333333333333,40.53333333333333,49.06666666666666
1251,535.4666666666667,53.333333333333336,34.13333333333333
1252,529.0666666666666,57.6,29.866666666666667
1253,535.4666666666667,61.86666666666667,81.06666666666666
1254,539.7333333333333,57.6,40.53333333333333
1255,539.7333333333333,57.6,44.8
1256,544.0,59.733333333333334,32.0
1257,539.7333333333333,59.733333333333334,46.93333333333333
1258,544.0,61.86666666666667,40.53333333333333
1259,544.0,53.333333333333336,42.666666666666664
1260,541.8666666666667,59.733333333333334,36.266666666666666
1261,541.8666666666667,57.6,42.666666666666664
1262,539.7333333333333,59.733333333333334,34.13333333333333
1263,558.9333333333333,83.2,72.53333333333333
1264,539.7333333333333,55.46666666666667,46.93333333333333
1265,541.8666666666667,57.6,36.266666666666666
1266,539.7333333333333,64.0,38.4
1267,544.0,53.333333333333336,32.0
1268,544.0,57.6,36.266666666666666
1269,539.7333333333333,55.46666666666667,40.53333333333333
1270,537.6,61.86666666666667,36.266666666666666
1271,546.1333333333333,57.6,40.53333333333333
1272,535.4666666666667,40.53333333333333,53.333333333333336
1273,546.1333333333333,59.733333333333334,38.4
1274,541.8666666666667,57.6,38.4
1275,541.8666666666667,59.733333333333334,36.266666666666666
1276,539.7333333333333,61.86666666666667,38.4
1277,535.4666666666667,61.86666666666667,34.13333333333333
1278,544.0,57.6,34.13333333333333
1279,544.0,57.6,36.266666666666666
1280,541.8666666666667,59.733333333333334,42.666666666666664
1281,544.0,59.733333333333334,44.8
1282,537.6,66.13333333333333,40.53333333333333
1283,537.6,64.0,44.8
1284,541.8666666666667,55.46666666666667,40.53333333333333
1285,546.1333333333333,55.46666666666667,42.666666666666664
1286,548.2666666666667,57.6,40.53333333333333
1287,535.4666666666667,59.733333333333334,49.06666666666666
1288,541.8666666666667,61.86666666666667,44.8
1289,537.6,70.4,32.0
1290,537.6,59.733333333333334,53.333333333333336
1291,539.7333333333333,57.6,42.666666666666664
1292,539.7333333333333,57.6,49.06666666666666
1293,541.8666666666667,57.6,51.2
1294,546.1333333333333,55.46666666666667,34.13333333333333
1295,544.0,55.46666666666667,44.8
1296,548.2666666666667,57.6,51.2
1297,541.8666666666667,59.733333333333334,38.4
1298,539.7333333333333,64.0,38.4
1299,544.0,59.733333333333334,44.8
1300,546.1333333333333,57.6,42.666666666666664
1301,539.7333333333333,53.333333333333336,49.06666666666666
1302,546.1333333333333,61.86666666666667,42.666666666666664
1303,539.7333333333333,57.6,49.06666666666666
1304,546.1333333333333,57.6,44.8
1305,546.1333333333333,59.733333333333334,40.53333333333333
1306,544.0,55.46666666666667,32.0
1307,546.1333333333333,55.46666666666667,38.4
1308,539.7333333333333,59.733333333333334,38.4
1309,541.8666666666667,57.6,38.4
1310,537.6,61.86666666666667,32.0
1311,546.1333333333333,53.333333333333336,42.666666666666664
1312,541.8666666666667,61.86666666666667,36.266666666666666
1313,539.7333333333333,59.733333333333334,34.13333333333333
1314,537.6,59.733333333333334,38.4
1315,539.7333333333333,57.6,38.4
1316,541.8666666666667,53.333333333333336,42.666666666666664
1317,537.6,64.0,42.666666666666664
1318,533.3333333333334,61.86666666666667,36.266666666666666
1319,537.6,61.86666666666667,38.4
1320,541.8666666666667,59.733333333333334,42.666666666666664
1321,541.8666666666667,55.46666666666667,40.53333333333333
1322,541.8666666666667,64.0,53.333333333333336
1323,544.0,61.86666666666667,44.8
1324,541.8666666666667,59.733333333333334,51.2
1325,537.6,55.46666666666667,42.666666666666664
1326,548.2666666666667,55.46666666666667,49.06666666666666
1327,544.0,57.6,46.93333333333333
1328,544.0,55.46666666666667,46.93333333333333
1329,541.8666666666667,59.733333333333334,46.93333333333333
1330,541.8666666666667,57.6,46.93333333333333
1331,544.0,49.06666666666666,46.93333333333333
1332,548.2666666666667,59.733333333333334,40.53333333333333
1333,544.0,59.733333333333334,49.06666666666666
1334,539.7333333333333,55.46666666666667,51.2
1335,548.2666666666667,61.86666666666667,40.53333333333333
1336,544.0,61.86666666666667,42.666666666666664
1337,544.0,57.6,44.8
1338,544.0,55.46666666666667,49.06666666666666
1339,546.1333333333333,57.6,46.93333333333333
1340,539.7333333333333,68.26666666666667,38.4
1341,544.0,57.6,42.666666666666664
1342,544.0,61.86666666666667,46.93333333333333
1343,541.8666666666667,55.46666666666667,49.06666666666666
1344,548.2666666666667,55.46666666666667,42.666666666666664
1345,541.8666666666667,57.6,44.8
1346,537.6,55.46666666666667,44.8
1347,544.0,61.86666666666667,44.8
1348,539.7333333333333,57.6,42.666666666666664
1349,544.0,61.86666666666667,44.8
1350,544.0,64.0,46.93333333333333
1351,537.6,61.86666666666667,42.666666666666664
1352,541.8666666666667,57.6,44.8
1353,539.7333333333333,55.46666666666667,44.8
1354,529.0666666666666,40.53333333333333,44.8
1355,539.7333333333333,64.0,49.06666666666666
1356,544.0,59.733333333333334,46.93333333333333
1357,541.8666666666667,51.2,53.333333333333336
1358,546.1333333333333,57.6,49.06666666666666
1359,541.8666666666667,61.86666666666667,55.46666666666667
1360,539.7333333333333,61.86666666666667,46.93333333333333
1361,541.8666666666667,55.46666666666667,44.8
1362,537.6,55.46666666666667,51.2
1363,539.7333333333333,57.6,44.8
1364,544.0,53.333333333333336,51.2
1365,541.8666666666667,57.6,55.46666666666667
1366,546.1333333333333,53.333333333333336,44.8
1367,546.1333333333333,53.333333333333336,46.93333333333333
1368,537.6,61.86666666666667,51.2
1369,541.8666666666667,55.46666666666667,49.06666666666666
1370,537.6,64.0,51.2
1371,541.8666666666667,59.733333333333334,42.666666666666664
1372,537.6,57.6,51.2
1373,541.8666666666667,57.6,49.06666666666666
1374,537.6,57.6,44.8
1375,541.8666666666667,64.0,51.2
1376,541.8666666666667,44.8,59.733333333333334
1377,544.0,55.46666666666667,46.93333333333333
1378,541.8666666666667,59.733333333333334,51.2
1379,537.6,59.733333333333334,53.333333333333336
1380,541.8666666666667,59.733333333333334,42.666666666666664
1381,544.0,57.6,46.93333333333333
1382,544.0,57.6,44.8
1383,546.1333333333333,61.86666666666667,49.06666666666666
1384,548.2666666666667,59.733333333333334,49.06666666666666
1385,541.8666666666667,64.0,51.2
1386,544.0,59.733333333333334,44.8
1387,541.8666666666667,53.333333333333336,42.666666666666664
1388,544.0,55.46666666666667,49.06666666666666
1389,539.7333333333333,61.86666666666667,40.53333333333333
1390,548.2666666666667,55.46666666666667,44.8
1391,544.0,55.46666666666667,46.93333333333333
1392,552.5333333333333,51.2,38.4
1393,541.8666666666667,64.0,53.333333333333336
1394,537.6,55.46666666666667,49.06666666666666
1395,544.0,55.46666666666667,40.53333333333333
1396,539.7333333333333,59.733333333333334,46.93333333333333
1397,539.7333333333333,61.86666666666667,46.93333333333333
1398,539.7333333333333,59.733333333333334,46.93333333333333
1399,544.0,57.6,49.06666666666666
1400,546.1333333333333,57.6,46.93333333333333
1401,544.0,51.2,46.93333333333333
1402,544.0,55.46666666666667,53.333333333333336
1403,541.8666666666667,57.6,44.8
1404,548.2666666666667,57.6,55.46666666666667
1405,544.0,57.6,51.2
1406,544.0,49.06666666666666,49.06666666666666
1407,541.8666666666667,49.06666666666666,64.0
1408,546.1333333333333,57.6,46.93333333333333
1409,541.8666666666667,61.86666666666667,49.06666666666666
1410,546.1333333333333,57.6,49.06666666666666
1411,548.2666666666667,59.733333333333334,44.8
1412,537.6,59.733333333333334,51.2
1413,548.2666666666667,55.46666666666667,38.4
1414,535.4666666666667,53.333333333333336,44.8
1415,541.8666666666667,61.86666666666667,49.06666666666666
1416,544.0,57.6,55.46666666666667
1417,541.8666666666667,55.46666666666667,44.8
1418,544.0,51.2,44.8
1419,544.0,55.46666666666667,53.333333333333336
1420,546.1333333333333,53.333333333333336,44.8
1421,544.0,53.333333333333336,49.06666666666666
1422,546.1333333333333,57.6,49.06666666666666
1423,548.2666666666667,53.333333333333336,44.8
1424,548.2666666666667,51.2,44.8
1425,546.1333333333333,61.86666666666667,51.2
1426,541.8666666666667,64.0,53.333333333333336
1427,552.5333333333333,64.0,44.8
1428,546.1333333333333,59.733333333333334,51.2
1429,546.1333333333333,59.733333333333334,51.2
1430,550.4,57.6,44.8
1431,544.0,59.733333333333334,42.666666666666664
1432,554.6666666666666,55.46666666666667,49.06666666666666
1433,546.1333333333333,53.333333333333336,51.2
1434,548.2666666666667,51.2,40.53333333333333
1435,541.8666666666667,51.2,44.8
1436,544.0,53.333333333333336,51.2
1437,539.7333333333333,59.733333333333334,38.4
1438,535.4666666666667,57.6,46.93333333333333
1439,537.6,59.733333333333334,46.93333333333333
1440,546.1333333333333,53.333333333333336,49.06666666666666
1441,522.6666666666666,40.53333333333333,32.0
1442,533.3333333333334,57.6,49.06666666666666
1443,529.0666666666666,59.733333333333334,53.333333333333336
1444,533.3333333333334,55.46666666666667,53.333333333333336
1445,539.7333333333333,55.46666666666667,55.46666666666667
1446,531.2,53.333333333333336,46.93333333333333
1447,529.0666666666666,61.86666666666667,57.6
1448,537.6,57.6,55.46666666666667
1449,535.4666666666667,51.2,49.06666666666666
1450,537.6,55.46666666666667,53.333333333333336
1451,529.0666666666666,68.26666666666667,51.2
1452,535.4666666666667,55.46666666666667,53.333333333333336
1453,529.0666666666666,55.46666666666667,57.6
1454,539.7333333333333,59.733333333333334,57.6
1455,533.3333333333334,55.46666666666667,53.333333333333336
1456,537.6,51.2,61.86666666666667
1457,537.6,59.733333333333334,61.86666666666667
1458,546.1333333333333,53.333333333333336,59.733333333333334
1459,537.6,51.2,59.733333333333334
1460,537.6,53.333333333333336,61.86666666666667
1461,544.0,55.46666666666667,59.733333333333334
1462,539.7333333333333,49.06666666666666,55.46666666666667
1463,539.7333333333333,49.06666666666666,55.46666666666667
1464,541.8666666666667,49.06666666666666,53.333333333333336
1465,539.7333333333333,57.6,55.46666666666667
1466,537.6,55.46666666666667,66.13333333333333
1467,537.6,57.6,59.733333333333334
1468,539.7333333333333,49.06666666666666,53.333333333333336
1469,541.8666666666667,55.46666666666667,57.6
1470,537.6,55.46666666666667,51.2
1471,537.6,51.2,59.733333333333334
1472,539.7333333333333,55.46666666666667,59.733333333333334
1473,539.7333333333333,51.2,46.93333333333333
1474,539.7333333333333,51.2,55.46666666666667
1475,541.8666666666667,51.2,51.2
1476,531.2,59.733333333333334,61.86666666666667
1477,535.4666666666667,57.6,57.6
1478,544.0,55.46666666666667,53.333333333333336
1479,539.7333333333333,55.46666666666667,53.333333333333336
1480,539.7333333333333,57.6,53.333333333333336
1481,537.6,59.733333333333334,68.26666666666667
1482,541.8666666666667,57.6,57.6
1483,533.3333333333334,57.6,57.6
1484,537.6,66.13333333333333,55.46666666666667
1485,533.3333333333334,61.86666666666667,66.13333333333333
1486,541.8666666666667,61.86666666666667,70.4
1487,537.6,61.86666666666667,57.6
1488,535.4666666666667,55.46666666666667,59.733333333333334
1489,539.7333333333333,61.86666666666667,64.0
1490,550.4,46.93333333333333,64.0
1491,546.1333333333333,57.6,57.6
1492,535.4666666666667,57.6,64.0
1493,541.8666666666667,57.6,64.0
1494,539.7333333333333,57.6,59.733333333333334
1495,541.8666666666667,55.46666666666667,55.46666666666667
1496,548.2666666666667,55.46666666666667,61.86666666666667
1497,546.1333333333333,51.2,61.86666666666667
1498,544.0,53.333333333333336,64.0
1499,548.2666666666667,55.46666666666667,57.6
1500,544.0,53.333333333333336,66.13333333333333
1501,552.5333333333333,51.2,55.46666666666667
1502,552.5333333333333,55.46666666666667,57.6
1503,548.2666666666667,55.46666666666667,59.733333333333334
1504,548.2666666666667,57.6,55.46666666666667
1505,548.2666666666667,59.733333333333334,59.733333333333334
1506,552.5333333333333,57.6,57.6
1507,552.5333333333333,59.733333333333334,61.86666666666667
1508,556.8,61.86666666666667,64.0
1509,554.6666666666666,57.6,55.46666666666667
1510,558.9333333333333,64.0,57.6
1511,561.0666666666666,57.6,61.86666666666667
1512,561.0666666666666,66.13333333333333,51.2
1513,561.0666666666666,59.733333333333334,57.6
1514,558.9333333333333,64.0,57.6
1515,561.0666666666666,64.0,61.86666666666667
1516,556.8,53.333333333333336,53.333333333333336
1517,558.9333333333333,57.6,46.93333333333333
1518,558.9333333333333,53.333333333333336,55.46666666666667
1519,558.9333333333333,61.86666666666667,46.93333333333333
1520,554.6666666666666,57.6,42.666666666666664
1521,556.8,53.333333333333336,44.8
1522,554.6666666666666,59.733333333333334,55.46666666666667
1523,558.9333333333333,57.6,42.666666666666664
1524,554.6666666666666,53.333333333333336,44.8
1525,554.6666666666666,57.6,38.4
1526,537.6,57.6,44.8
1527,556.8,49.06666666666666,34.13333333333333
1528,529.0666666666666,51.2,27.733333333333334
1529,535.4666666666667,55.46666666666667,27.733333333333334
1530,541.8666666666667,44.8,36.266666666666666
1531,541.8666666666667,46.93333333333333,34.13333333333333
1532,537.6,42.666666666666664,36.266666666666666
1533,535.4666666666667,42.666666666666664,38.4
1534,529.0666666666666,42.666666666666664,36.266666666666666
1535,539.7333333333333,40.53333333333333,44.8
1536,535.4666666666667,40.53333333333333,38.4
1537,531.2,44.8,40.53333333333333
1538,533.3333333333334,38.4,42.666666666666664
1539,524.8,44.8,44.8
1540,535.4666666666667,42.666666666666664,42.666666666666664
1541,539.7333333333333,44.8,46.93333333333333
1542,531.2,40.53333333333333,57.6
1543,535.4666666666667,44.8,55.46666666666667
1544,529.0666666666666,42.666666666666664,49.06666666666666
1545,531.2,42.666666666666664,61.86666666666667
1546,522.6666666666666,44.8,53.333333333333336
1547,529.0666666666666,44.8,57.6
1548,533.3333333333334,44.8,64.0
1549,529.0666666666666,51.2,55.46666666666667
1550,526.9333333333333,46.93333333333333,68.26666666666667
1551,533.3333333333334,42.666666666666664,64.0
1552,533.3333333333334,42.666666666666664,68.26666666666667
1553,526.9333333333333,42.666666666666664,66.13333333333333
1554,529.0666666666666,44.8,66.13333333333333
1555,533.3333333333334,40.53333333333333,61.86666666666667
1556,529.0666666666666,44.8,78.93333333333334
1557,531.2,42.666666666666664,66.13333333333333
1558,531.2,36.266666666666666,72.53333333333333
1559,533.3333333333334,40.53333333333333,76.8
1560,531.2,36.266666666666666,70.4
1561,535.4666666666667,36.266666666666666,74.66666666666667
1562,535.4666666666667,34.13333333333333,72.53333333333333
1563,533.3333333333334,36.266666666666666,87.46666666666667
1564,533.3333333333334,40.53333333333333,83.2
1565,535.4666666666667,40.53333333333333,83.2
1566,539.7333333333333,36.266666666666666,81.06666666666666
1567,535.4666666666667,44.8,78.93333333333334
1568,535.4666666666667,46.93333333333333,87.46666666666667
1569,533.3333333333334,46.93333333333333,81.06666666666666
1570,533.3333333333334,46.93333333333333,81.06666666666666
1571,535.4666666666667,53.333333333333336,78.93333333333334
1572,537.6,68.26666666666667,83.2
1573,537.6,49.06666666666666,78.93333333333334
1574,531.2,64.0,81.06666666666666
1575,529.0666666666666,59.733333333333334,83.2
1576,529.0666666666666,57.6,85.33333333333333
1577,531.2,66.13333333333333,81.06666666666666
1578,533.3333333333334,61.86666666666667,83.2
1579,533.3333333333334,66.13333333333333,89.6
1580,537.6,55.46666666666667,81.06666666666666
1581,535.4666666666667,61.86666666666667,83.2
1582,533.3333333333334,66.13333333333333,76.8
1583,537.6,59.733333333333334,74.66666666666667
1584,533.3333333333334,61.86666666666667,81.06666666666666
1585,533.3333333333334,57.6,74.66666666666667
1586,544.0,57.6,70.4
1587,537.6,57.6,78.93333333333334
1588,537.6,55.46666666666667,81.06666666666666
1589,537.6,57.6,78.93333333333334
1590,539.7333333333333,57.6,72.53333333333333
1591,537.6,59.733333333333334,66.13333333333333
1592,539.7333333333333,55.46666666666667,76.8
1593,537.6,57.6,66.13333333333333
1594,522.6666666666666,49.06666666666666,59.733333333333334
1595,537.6,51.2,68.26666666666667
1596,537.6,55.46666666666667,68.26666666666667
1597,533.3333333333334,57.6,74.66666666666667
1598,537.6,57.6,68.26666666666667
1599,535.4666666666667,55.46666666666667,70.4
1600,531.2,57.6,66.13333333333333
1601,537.6,46.93333333333333,66.13333333333333
1602,535.4666666666667,53.333333333333336,70.4
1603,529.0666666666666,55.46666666666667,64.0
1604,537.6,53.333333333333336,64.0
1605,537.6,51.2,72.53333333333333
1606,535.4666666666667,53.333333333333336,64.0
1607,533.3333333333334,55.46666666666667,68.26666666666667
1608,541.8666666666667,51.2,70.4
1609,537.6,53.333333333333336,74.66666666666667
1610,537.6,55.46666666666667,66.13333333333333
1611,537.6,53.333333333333336,76.8
1612,541.8666666666667,49.06666666666666,74.66666666666667
1613,537.6,55.46666666666667,72.53333333333333
1614,539.7333333333333,51.2,70.4
1615,539.7333333333333,44.8,74.66666666666667
1616,539.7333333333333,49.06666666666666,76.8
1617,541.8666666666667,42.666666666666664,70.4
1618,535.4666666666667,51.2,76.8
1619,537.6,51.2,78.93333333333334
1620,539.7333333333333,49.06666666666666,74.66666666666667
1621,535.4666666666667,49.06666666666666,76.8
1622,537.6,44.8,64.0
1623,529.0666666666666,51.2,76.8
1624,537.6,42.666666666666664,66.13333333333333
1625,539.7333333333333,49.06666666666666,76.8
1626,537.6,49.06666666666666,70.4
1627,535.4666666666667,46.93333333333333,76.8
1628,537.6,46.93333333333333,72.53333333333333
1629,539.7333333333333,51.2,76.8
1630,533.3333333333334,53.333333333333336,76.8
1631,537.6,51.2,74.66666666666667
1632,539.7333333333333,46.93333333333333,74.66666666666667
1633,535.4666666666667,53.333333333333336,74.66666666666667
1634,531.2,55.46666666666667,74.66666666666667
1635,537.6,49.06666666666666,74.66666666666667
1636,535.4666666666667,49.06666666666666,72.53333333333333
1637,541.8666666666667,42.666666666666664,66.13333333333333
1638,537.6,46.93333333333333,66.13333333333333
1639,533.3333333333334,44.8,66.13333333333333
1640,537.6,46.93333333333333,70.4
1641,537.6,51.2,64.0
1642,537.6,49.06666666666666,70.4
1643,541.8666666666667,44.8,70.4
1644,541.8666666666667,44.8,68.26666666666667
1645,533.3333333333334,53.333333333333336,70.4
1646,537.6,46.93333333333333,74.66666666666667
1647,531.2,51.2,72.53333333333333
1648,539.7333333333333,49.06666666666666,72.53333333333333
1649,535.4666666666667,53.333333333333336,61.86666666666667
1650,535.4666666666667,51.2,72.53333333333333
1651,533.3333333333334,46.93333333333333,70.4
1652,533.3333333333334,42.666666666666664,74.66666666666667
1653,535.4666666666667,46.93333333333333,66.13333333333333
1654,531.2,53.333333333333336,72.53333333333333
1655,533.3333333333334,51.2,72.53333333333333
1656,544.0,44.8,72.53333333333333
1657,541.8666666666667,51.2,72.53333333333333
1658,535.4666666666667,49.06666666666666,70.4
1659,554.6666666666666,57.6,68.26666666666667
1660,537.6,51.2,70.4
1661,537.6,59.733333333333334,66.13333333333333
1662,539.7333333333333,51.2,78.93333333333334
1663,539.7333333333333,49.06666666666666,66.13333333333333
1664,541.8666666666667,51.2,68.26666666666667
1665,541.8666666666667,53.333333333333336,59.733333333333334
1666,541.8666666666667,49.06666666666666,72.53333333333333
1667,535.4666666666667,53.333333333333336,68.26666666666667
1668,537.6,57.6,59.733333333333334
1669,539.7333333333333,44.8,59.733333333333334
1670,541.8666666666667,53.333333333333336,64.0
1671,544.0,51.2,68.26666666666667
1672,537.6,53.333333333333336,53.333333333333336
1673,535.4666666666667,49.06666666666666,59.733333333333334
1674,539.7333333333333,51.2,51.2
1675,541.8666666666667,49.06666666666666,64.0
1676,537.6,53.333333333333336,64.0
1677,535.4666666666667,44.8,70.4
1678,537.6,53.333333333333336,55.46666666666667
1679,541.8666666666667,49.06666666666666,57.6
1680,546.1333333333333,46.93333333333333,53.333333333333336
1681,537.6,49.06666666666666,68.26666666666667
1682,541.8666666666667,49.06666666666666,57.6
1683,544.0,44.8,55.46666666666667
1684,539.7333333333333,53.333333333333336,57.6
1685,535.4666666666667,55.46666666666667,61.86666666666667
1686,546.1333333333333,57.6,61.86666666666667
1687,541.8666666666667,46.93333333333333,51.2
1688,541.8666666666667,57.6,64.0
1689,546.1333333333333,46.93333333333333,57.6
1690,541.8666666666667,51.2,57.6
1691,539.7333333333333,51.2,55.46666666666667
1692,546.1333333333333,53.333333333333336,61.86666666666667
1693,546.1333333333333,42.666666666666664,57.6
1694,544.0,55.46666666666667,55.46666666666667
1695,537.6,55.46666666666667,64.0
1696,552.5333333333333,46.93333333333333,49.06666666666666
1697,546.1333333333333,51.2,53.333333333333336
1698,546.1333333333333,44.8,55.46666666666667
1699,544.0,55.46666666666667,53.333333333333336
1700,541.8666666666667,51.2,57.6
1701,546.1333333333333,49.06666666666666,57.6
1702,544.0,49.06666666666666,49.06666666666666
1703,548.2666666666667,55.46666666666667,59.733333333333334
1704,544.0,51.2,61.86666666666667
1705,535.4666666666667,57.6,64.0
1706,535.4666666666667,51.2,59.733333333333334
1707,537.6,55.46666666666667,57.6
1708,541.8666666666667,51.2,55.46666666666667
1709,533.3333333333334,57.6,59.733333333333334
1710,541.8666666666667,38.4,64.0
1711,537.6,51.2,49.06666666666666
1712,539.7333333333333,57.6,66.13333333333333
1713,539.7333333333333,51.2,70.4
1714,541.8666666666667,51.2,53.333333333333336
1715,537.6,53.333333333333336,59.733333333333334
1716,539.7333333333333,46.93333333333333,61.86666666666667
1717,541.8666666666667,51.2,64.0
1718,541.8666666666667,46.93333333333333,57.6
1719,535.4666666666667,57.6,55.46666666666667
1720,535.4666666666667,49.06666666666666,57.6
1721,539.7333333333333,51.2,61.86666666666667
1722,539.7333333333333,51.2,59.733333333333334
1723,537.6,53.333333333333336,66.13333333333333
1724,529.0666666666666,51.2,72.53333333333333
1725,539.7333333333333,53.333333333333336,61.86666666666667
1726,537.6,49.06666666666666,68.26666666666667
1727,541.8666666666667,49.06666666666666,72.53333333333333
1728,548.2666666666667,44.8,74.66666666666667
1729,539.7333333333333,51.2,66.13333333333333
1730,541.8666666666667,46.93333333333333,68.26666666666667
1731,546.1333333333333,49.06666666666666,64.0
1732,548.2666666666667,46.93333333333333,64.0
1733,541.8666666666667,51.2,59.733333333333334
1734,533.3333333333334,51.2,61.86666666666667
1735,539.7333333333333,57.6,70.4
1736,541.8666666666667,49.06666666666666,70.4
1737,541.8666666666667,46.93333333333333,70.4
1738,535.4666666666667,53.333333333333336,72.53333333333333
1739,539.7333333333333,53.333333333333336,70.4
1740,535.4666666666667,55.46666666666667,66.13333333333333
1741,539.7333333333333,55.46666666666667,68.26666666666667
1742,541.8666666666667,53.333333333333336,70.4
1743,541.8666666666667,49.06666666666666,64.0
1744,541.8666666666667,57.6,61.86666666666667
1745,541.8666666666667,53.333333333333336,66.13333333333333
1746,544.0,51.2,64.0
1747,544.0,55.46666666666667,64.0
1748,546.1333333333333,42.666666666666664,64.0
1749,544.0,55.46666666666667,66.13333333333333
1750,546.1333333333333,53.333333333333336,66.13333333333333
1751,548.2666666666667,55.46666666666667,66.13333333333333
1752,548.2666666666667,51.2,72.53333333333333
1753,552.5333333333333,46.93333333333333,57.6
1754,548.2666666666667,55.46666666666667,59.733333333333334
1755,546.1333333333333,59.733333333333334,66.13333333333333
1756,548.2666666666667,55.46666666666667,64.0
1757,550.4,42.666666666666664,61.86666666666667
1758,544.0,46.93333333333333,68.26666666666667
1759,544.0,49.06666666666666,72.53333333333333
1760,546.1333333333333,42.666666666666664,70.4
1761,541.8666666666667,46.93333333333333,72.53333333333333
1762,548.2666666666667,42.666666666666664,76.8
1763,554.6666666666666,44.8,72.53333333333333
1764,554.6666666666666,51.2,76.8
1765,556.8,44.8,74.66666666666667
1766,561.0666666666666,46.93333333333333,76.8
1767,565.3333333333334,49.06666666666666,74.66666666666667
1768,571.7333333333333,44.8,83.2
1769,571.7333333333333,46.93333333333333,76.8
1770,576.0,46.93333333333333,81.06666666666666
1771,588.8,44.8,85.33333333333333
1772,590.9333333333333,51.2,85.33333333333333
1773,590.9333333333333,49.06666666666666,93.86666666666666
1774,599.4666666666667,55.46666666666667,89.6
1775,610.1333333333333,42.666666666666664,76.8
1776,614.4,46.93333333333333,87.46666666666667
1777,620.8,51.2,68.26666666666667
1778,622.9333333333333,46.93333333333333,74.66666666666667
1779,618.6666666666666,51.2,70.4
1780,620.8,46.93333333333333,68.26666666666667
1781,620.8,49.06666666666666,55.46666666666667
1782,616.5333333333333,44.8,53.333333333333336
1783,610.1333333333333,42.666666666666664,57.6
1784,601.6,46.93333333333333,46.93333333333333
1785,599.4666666666667,40.53333333333333,57.6
1786,590.9333333333333,51.2,57.6
1787,580.2666666666667,55.46666666666667,66.13333333333333
1788,563.2,57.6,57.6
1789,561.0666666666666,59.733333333333334,66.13333333333333
1790,548.2666666666667,61.86666666666667,61.86666666666667
1791,541.8666666666667,59.733333333333334,66.13333333333333
1792,535.4666666666667,64.0,68.26666666666667
1793,539.7333333333333,57.6,64.0
1794,537.6,53.333333333333336,66.13333333333333
1795,533.3333333333334,55.46666666666667,72.53333333333333
1796,533.3333333333334,55.46666666666667,68.26666666666667
1797,526.9333333333333,46.93333333333333,61.86666666666667
1798,526.9333333333333,42.666666666666664,59.733333333333334
1799,524.8,42.666666666666664,53.333333333333336
1800,520.5333333333333,36.266666666666666,46.93333333333333
1801,520.5333333333333,29.866666666666667,42.666666666666664
1802,520.5333333333333,25.6,38.4
1803,524.8,19.2,34.13333333333333
1804,524.8,19.2,34.13333333333333
1805,518.4,17.066666666666666,36.266666666666666
1806,518.4,17.066666666666666,40.53333333333333
1807,522.6666666666666,19.2,36.266666666666666
1808,520.5333333333333,19.2,38.4
1809,514.1333333333333,29.866666666666667,44.8
1810,516.2666666666667,36.266666666666666,36.266666666666666
1811,518.4,32.0,36.266666666666666
1812,522.6666666666666,21.333333333333332,32.0
1813,529.0666666666666,40.53333333333333,25.6
1814,537.6,36.266666666666666,19.2
1815,541.8666666666667,40.53333333333333,21.333333333333332
1816,550.4,34.13333333333333,19.2
1817,556.8,23.466666666666665,25.6
1818,552.5333333333333,19.2,27.733333333333334
1819,556.8,6.4,29.866666666666667
1820,558.9333333333333,4.266666666666667,27.733333333333334
1821,554.6666666666666,-6.4,34.13333333333333
1822,552.5333333333333,-12.8,34.13333333333333
1823,539.7333333333333,-19.2,38.4
1824,533.3333333333334,-23.466666666666665,38.4
1825,520.5333333333333,-29.866666666666667,53.333333333333336
1826,512.0,-32.0,49.06666666666666
1827,509.8666666666667,-40.53333333333333,64.0
1828,503.46666666666664,-29.866666666666667,76.8
1829,499.2,-19.2,91.73333333333333
1830,507.73333333333335,-12.8,89.6
1831,505.59999999999997,-8.533333333333333,113.06666666666666
1832,503.46666666666664,-4.266666666666667,110.93333333333334
1833,507.73333333333335,0.0,117.33333333333333
1834,514.1333333333333,0.0,125.86666666666666
1835,518.4,0.0,121.6
1836,526.9333333333333,0.0,128.0
1837,531.2,0.0,130.13333333333333
1838,529.0666666666666,2.1333333333333333,138.66666666666666
1839,537.6,4.266666666666667,138.66666666666666
1840,537.6,8.533333333333333,134.4
1841,539.7333333333333,10.666666666666666,136.53333333333333
1842,537.6,12.8,140.8
1843,533.3333333333334,14.933333333333334,145.06666666666666
1844,537.6,19.2,136.53333333333333
1845,526.9333333333333,27.733333333333334,134.4
1846,524.8,34.13333333333333,142.93333333333334
1847,522.6666666666666,36.266666666666666,136.53333333333333
1848,518.4,44.8,147.2
1849,522.6666666666666,38.4,155.73333333333332
1850,518.4,44.8,157.86666666666667
1851,518.4,38.4,157.86666666666667
1852,522.6666666666666,38.4,153.6
1853,529.0666666666666,40.53333333333333,157.86666666666667
1854,531.2,25.6,145.06666666666666
1855,526.9333333333333,23.466666666666665,151.46666666666667
1856,533.3333333333334,10.666666666666666,145.06666666666666
1857,526.9333333333333,4.266666666666667,147.2
1858,522.6666666666666,-4.266666666666667,155.73333333333332
1859,518.4,-12.8,160.0
1860,514.1333333333333,-21.333333333333332,157.86666666666667
1861,512.0,-21.333333333333332,164.26666666666665
1862,509.8666666666667,-23.466666666666665,168.53333333333333
1863,509.8666666666667,-23.466666666666665,172.8
1864,512.0,-23.466666666666665,166.4
1865,509.8666666666667,-17.066666666666666,179.2
1866,512.0,-25.6,181.33333333333334
1867,514.1333333333333,-32.0,166.4
1868,514.1333333333333,-29.866666666666667,168.53333333333333
1869,512.0,-25.6,168.53333333333333
1870,514.1333333333333,-27.733333333333334,162.13333333333333
1871,520.5333333333333,-29.866666666666667,181.33333333333334
1872,516.2666666666667,-29.866666666666667,168.53333333333333
1873,516.2666666666667,-23.466666666666665,166.4
1874,516.2666666666667,-34.13333333333333,170.66666666666666
1875,514.1333333333333,-34.13333333333333,170.66666666666666
1876,512.0,-29.866666666666667,179.2
1877,503.46666666666664,-27.733333333333334,177.06666666666666
1878,514.1333333333333,-29.866666666666667,183.46666666666667
1879,507.73333333333335,-27.733333333333334,194.13333333333333
1880,512.0,-34.13333333333333,200.53333333333333
1881,512.0,-27.733333333333334,209.06666666666666
1882,516.2666666666667,-25.6,211.2
1883,512.0,-27.733333333333334,219.73333333333332
1884,516.2666666666667,-14.933333333333334,228.26666666666665
1885,507.73333333333335,-19.2,228.26666666666665
1886,505.59999999999997,-10.666666666666666,224.0
1887,492.8,-8.533333333333333,219.73333333333332
1888,492.8,-8.533333333333333,215.46666666666667
1889,482.1333333333333,-10.666666666666666,221.86666666666667
1890,477.8666666666667,-10.666666666666666,211.2
1891,456.5333333333333,-12.8,224.0
1892,445.8666666666667,-17.066666666666666,226.13333333333333
1893,437.3333333333333,-23.466666666666665,238.93333333333334
1894,424.5333333333333,-29.866666666666667,268.8
1895,416.0,-34.13333333333333,262.4
1896,409.6,-36.266666666666666,283.73333333333335
1897,407.46666666666664,-38.4,285.8666666666667
1898,416.0,-46.93333333333333,294.4
1899,392.5333333333333,-59.733333333333334,302.93333333333334
1900,401.06666666666666,-46.93333333333333,307.2
1901,396.8,-46.93333333333333,313.6
1902,394.6666666666667,-44.8,313.6
1903,401.06666666666666,-46.93333333333333,311.46666666666664
1904,401.06666666666666,-38.4,313.6
1905,407.46666666666664,-49.06666666666666,317.8666666666667
1906,401.06666666666666,-46.93333333333333,309.3333333333333
1907,405.3333333333333,-51.2,320.0
1908,416.0,-51.2,324.26666666666665
1909,416.0,-53.333333333333336,326.4
1910,437.3333333333333,-59.733333333333334,322.1333333333333
1911,435.2,-64.0,315.73333333333335
1912,426.6666666666667,-70.4,322.1333333333333
1913,413.8666666666667,-68.26666666666667,320.0
1914,403.2,-72.53333333333333,309.3333333333333
1915,396.8,-72.53333333333333,302.93333333333334
1916,396.8,-76.8,292.26666666666665
1917,386.1333333333333,-78.93333333333334,294.4
1918,392.5333333333333,-76.8,283.73333333333335
1919,398.93333333333334,-74.66666666666667,292.26666666666665
1920,398.93333333333334,-55.46666666666667,296.5333333333333
1921,396.8,-55.46666666666667,309.3333333333333
1922,398.93333333333334,-53.333333333333336,313.6
1923,390.4,-44.8,320.0
1924,396.8,-46.93333333333333,326.4
1925,384.0,-42.666666666666664,330.6666666666667
1926,366.93333333333334,-42.666666666666664,343.46666666666664
1927,369.06666666666666,-53.333333333333336,341.3333333333333
1928,352.0,-57.6,339.2
1929,347.73333333333335,-64.0,341.3333333333333
1930,360.5333333333333,-70.4,349.8666666666667
1931,362.6666666666667,-70.4,358.4
1932,369.06666666666666,-70.4,364.8
1933,375.46666666666664,-68.26666666666667,373.3333333333333
1934,392.5333333333333,-70.4,381.8666666666667
1935,401.06666666666666,-61.86666666666667,388.26666666666665
1936,416.0,-76.8,392.5333333333333
1937,407.46666666666664,-74.66666666666667,379.73333333333335
1938,411.73333333333335,-68.26666666666667,384.0
1939,405.3333333333333,-78.93333333333334,381.8666666666667
1940,405.3333333333333,-81.06666666666666,358.4
1941,411.73333333333335,-78.93333333333334,347.73333333333335
1942,409.6,-85.33333333333333,315.73333333333335
1943,420.26666666666665,-68.26666666666667,315.73333333333335
1944,430.93333333333334,-55.46666666666667,313.6
1945,437.3333333333333,-46.93333333333333,315.73333333333335
1946,450.1333333333333,-42.666666666666664,315.73333333333335
1947,445.8666666666667,-27.733333333333334,322.1333333333333
1948,452.26666666666665,-21.333333333333332,324.26666666666665
1949,460.8,-12.8,328.5333333333333
1950,462.93333333333334,-10.666666666666666,322.1333333333333
1951,467.2,-14.933333333333334,322.1333333333333
1952,458.6666666666667,-17.066666666666666,317.8666666666667
1953,452.26666666666665,-21.333333333333332,315.73333333333335
1954,456.5333333333333,-23.466666666666665,311.46666666666664
1955,458.6666666666667,-32.0,302.93333333333334
1956,458.6666666666667,-27.733333333333334,294.4
1957,465.06666666666666,-38.4,290.1333333333333
1958,462.93333333333334,-40.53333333333333,300.8
1959,454.4,-40.53333333333333,302.93333333333334
1960,439.46666666666664,-32.0,300.8
1961,439.46666666666664,-46.93333333333333,309.3333333333333
1962,443.73333333333335,-55.46666666666667,307.2
1963,445.8666666666667,-61.86666666666667,313.6
1964,430.93333333333334,-57.6,339.2
1965,439.46666666666664,-53.333333333333336,328.5333333333333
1966,437.3333333333333,-64.0,339.2
1967,441.59999999999997,-66.13333333333333,345.6
1968,437.3333333333333,-68.26666666666667,347.73333333333335
1969,441.59999999999997,-72.53333333333333,362.6666666666667
1970,452.26666666666665,-74.66666666666667,366.93333333333334
1971,460.8,-76.8,377.6
1972,473.59999999999997,-81.06666666666666,390.4
1973,494.93333333333334,-81.06666666666666,396.8
1974,501.3333333333333,-87.46666666666667,405.3333333333333
1975,512.0,-87.46666666666667,411.73333333333335
1976,518.4,-93.86666666666666,420.26666666666665
1977,529.0666666666666,-91.73333333333333,409.6
1978,529.0666666666666,-83.2,390.4
1979,533.3333333333334,-72.53333333333333,379.73333333333335
1980,526.9333333333333,-70.4,356.26666666666665
1981,535.4666666666667,-46.93333333333333,341.3333333333333
1982,531.2,-27.733333333333334,317.8666666666667
1983,533.3333333333334,-8.533333333333333,307.2
1984,514.1333333333333,19.2,296.5333333333333
1985,488.5333333333333,46.93333333333333,305.06666666666666
1986,471.46666666666664,66.13333333333333,298.6666666666667
1987,475.73333333333335,91.73333333333333,294.4
1988,465.06666666666666,98.13333333333333,300.8
1989,450.1333333333333,115.2,313.6
1990,422.4,123.73333333333333,324.26666666666665
1991,398.93333333333334,130.13333333333333,345.6
1992,384.0,130.13333333333333,360.5333333333333
1993,373.3333333333333,130.13333333333333,373.3333333333333
1994,375.46666666666664,121.6,388.26666666666665
1995,371.2,123.73333333333333,386.1333333333333
1996,358.4,121.6,386.1333333333333
1997,347.73333333333335,117.33333333333333,384.0
1998,328.5333333333333,104.53333333333333,373.3333333333333
1999,315.73333333333335,96.0,364.8
2000,298.6666666666667,89.6,360.5333333333333
2001,277.3333333333333,83.2,362.6666666666667
2002,266.6666666666667,72.53333333333333,360.5333333333333
2003,258.1333333333333,68.26666666666667,362.6666666666667
2004,245.33333333333334,74.66666666666667,362.6666666666667
2005,238.93333333333334,72.53333333333333,364.8
2006,232.53333333333333,66.13333333333333,356.26666666666665
2007,234.66666666666666,64.0,364.8
2008,215.46666666666667,61.86666666666667,364.8
2009,213.33333333333334,61.86666666666667,364.8
2010,204.8,57.6,358.4
2011,198.4,57.6,379.73333333333335
2012,183.46666666666667,55.46666666666667,377.6
2013,179.2,57.6,364.8
2014,166.4,59.733333333333334,366.93333333333334
2015,164.26666666666665,64.0,364.8
2016,147.2,66.13333333333333,371.2
2017,134.4,68.26666666666667,364.8
2018,117.33333333333333,72.53333333333333,358.4
2019,100.26666666666667,81.06666666666666,371.2
2020,85.33333333333333,81.06666666666666,364.8
2021,64.0,83.2,373.3333333333333
2022,44.8,78.93333333333334,366.93333333333334
2023,14.933333333333334,76.8,366.93333333333334
2024,-4.266666666666667,70.4,369.06666666666666
2025,-34.13333333333333,59.733333333333334,377.6
2026,-68.26666666666667,59.733333333333334,398.93333333333334
2027,-108.8,53.333333333333336,416.0
2028,-140.8,49.06666666666666,426.6666666666667
2029,-162.13333333333333,46.93333333333333,445.8666666666667
2030,-215.46666666666667,36.266666666666666,462.93333333333334
2031,-245.33333333333334,32.0,477.8666666666667
2032,-277.3333333333333,23.466666666666665,501.3333333333333
2033,-292.26666666666665,17.066666666666666,509.8666666666667
2034,-300.8,12.8,512.0
2035,-302.93333333333334,6.4,520.5333333333333
2036,-298.6666666666667,10.666666666666666,529.0666666666666
2037,-298.6666666666667,6.4,537.6
2038,-283.73333333333335,10.666666666666666,526.9333333333333
2039,-258.1333333333333,10.666666666666666,509.8666666666667
2040,-230.4,6.4,507.73333333333335
2041,-198.4,6.4,499.2
2042,-142.93333333333334,10.666666666666666,482.1333333333333
2043,-78.93333333333334,10.666666666666666,462.93333333333334
2044,-38.4,17.066666666666666,445.8666666666667
2045,-8.533333333333333,17.066666666666666,433.06666666666666
2046,23.466666666666665,14.933333333333334,416.0
2047,32.0,14.933333333333334,403.2
2048,42.666666666666664,12.8,396.8
2049,46.93333333333333,10.666666666666666,405.3333333333333
2050,49.06666666666666,8.533333333333333,413.8666666666667
2051,46.93333333333333,6.4,416.0
2052,42.666666666666664,8.533333333333333,428.8
2053,25.6,12.8,439.46666666666664
2054,23.466666666666665,14.933333333333334,458.6666666666667
2055,38.4,8.533333333333333,486.4
2056,27.733333333333334,10.666666666666666,522.6666666666666
2057,-2.1333333333333333,0.0,558.9333333333333
2058,-32.0,-8.533333333333333,616.5333333333333
2059,-40.53333333333333,-29.866666666666667,657.0666666666666
2060,-40.53333333333333,-42.666666666666664,697.6
2061,-49.06666666666666,-74.66666666666667,742.4
2062,-34.13333333333333,-102.4,791.4666666666667
2063,-21.333333333333332,-117.33333333333333,844.8
2064,-8.533333333333333,-134.4,876.8
2065,-4.266666666666667,-142.93333333333334,896.0
2066,-10.666666666666666,-142.93333333333334,900.2666666666667
2067,-32.0,-130.13333333333333,874.6666666666666
2068,-57.6,-128.0,849.0666666666666
2069,-76.8,-117.33333333333333,808.5333333333333
2070,-93.86666666666666,-110.93333333333334,761.6
2071,-96.0,-121.6,706.1333333333333
2072,-91.73333333333333,-134.4,642.1333333333333
2073,-83.2,-145.06666666666666,576.0
2074,-74.66666666666667,-155.73333333333332,514.1333333333333
2075,-64.0,-164.26666666666665,445.8666666666667
2076,-61.86666666666667,-164.26666666666665,398.93333333333334
2077,-57.6,-157.86666666666667,313.6
2078,-55.46666666666667,-142.93333333333334,253.86666666666667
2079,-49.06666666666666,-119.46666666666667,215.46666666666667
2080,-51.2,-87.46666666666667,206.93333333333334
2081,-51.2,-64.0,230.4
2082,-57.6,-40.53333333333333,283.73333333333335
2083,-59.733333333333334,-14.933333333333334,341.3333333333333
2084,-61.86666666666667,-21.333333333333332,390.4
2085,-57.6,-25.6,458.6666666666667
2086,-64.0,-40.53333333333333,531.2
2087,-49.06666666666666,-66.13333333333333,580.2666666666667
2088,-38.4,-81.06666666666666,616.5333333333333
2089,-32.0,-104.53333333333333,635.7333333333333
2090,-29.866666666666667,-121.6,635.7333333333333
2091,-21.333333333333332,-130.13333333333333,612.2666666666667
2092,-17.066666666666666,-132.26666666666665,608.0
2093,0.0,-123.73333333333333,580.2666666666667
2094,6.4,-110.93333333333334,556.8
2095,10.666666666666666,-85.33333333333333,524.8
2096,10.666666666666666,-64.0,512.0
2097,12.8,-44.8,494.93333333333334
2098,2.1333333333333333,-44.8,480.0
2099,6.4,-32.0,462.93333333333334
2100,14.933333333333334,-42.666666666666664,448.0
2101,29.866666666666667,-49.06666666666666,441.59999999999997
2102,40.53333333333333,-59.733333333333334,445.8666666666667
2103,46.93333333333333,-76.8,452.26666666666665
2104,46.93333333333333,-89.6,462.93333333333334
2105,44.8,-98.13333333333333,486.4
2106,55.46666666666667,-117.33333333333333,492.8
2107,44.8,-119.46666666666667,503.46666666666664
2108,49.06666666666666,-123.73333333333333,503.46666666666664
2109,51.2,-115.2,509.8666666666667
2110,49.06666666666666,-113.06666666666666,507.73333333333335
2111,46.93333333333333,-98.13333333333333,499.2
2112,42.666666666666664,-91.73333333333333,497.06666666666666
2113,46.93333333333333,-83.2,501.3333333333333
2114,57.6,-76.8,501.3333333333333
2115,57.6,-66.13333333333333,499.2
2116,61.86666666666667,-59.733333333333334,503.46666666666664
2117,68.26666666666667,-53.333333333333336,507.73333333333335
2118,74.66666666666667,-44.8,501.3333333333333
2119,81.06666666666666,-42.666666666666664,507.73333333333335
2120,85.33333333333333,-38.4,507.73333333333335
2121,83.2,-40.53333333333333,501.3333333333333
2122,87.46666666666667,-42.666666666666664,509.8666666666667
2123,89.6,-42.666666666666664,505.59999999999997
2124,81.06666666666666,-44.8,505.59999999999997
2125,81.06666666666666,-51.2,505.59999999999997
2126,72.53333333333333,-55.46666666666667,512.0
2127,68.26666666666667,-57.6,507.73333333333335
2128,59.733333333333334,-61.86666666666667,516.2666666666667
2129,57.6,-61.86666666666667,505.59999999999997
2130,46.93333333333333,-66.13333333333333,507.73333333333335
2131,51.2,-72.53333333333333,501.3333333333333
2132,57.6,-85.33333333333333,505.59999999999997
2133,59.733333333333334,-83.2,499.2
2134,74.66666666666667,-91.73333333333333,512.0
2135,74.66666666666667,-91.73333333333333,507.73333333333335
2136,85.33333333333333,-91.73333333333333,522.6666666666666
2137,96.0,-91.73333333333333,533.3333333333334
2138,104.53333333333333,-78.93333333333334,526.9333333333333
2139,110.93333333333334,-81.06666666666666,531.2
2140,110.93333333333334,-72.53333333333333,520.5333333333333
2141,117.33333333333333,-68.26666666666667,520.5333333333333
2142,117.33333333333333,-64.0,512.0
2143,128.0,-64.0,509.8666666666667
2144,130.13333333333333,-59.733333333333334,499.2
2145,138.66666666666666,-59.733333333333334,499.2
2146,147.2,-64.0,494.93333333333334
2147,140.8,-59.733333333333334,507.73333333333335
2148,142.93333333333334,-46.93333333333333,512.0
2149,136.53333333333333,-59.733333333333334,512.0
2150,138.66666666666666,-70.4,507.73333333333335
2151,134.4,-70.4,499.2
2152,134.4,-78.93333333333334,492.8
2153,136.53333333333333,-85.33333333333333,492.8
2154,128.0,-93.86666666666666,480.0
2155,128.0,-102.4,477.8666666666667
2156,121.6,-106.66666666666667,477.8666666666667
2157,123.73333333333333,-117.33333333333333,477.8666666666667
2158,110.93333333333334,-115.2,494.93333333333334
2159,113.06666666666666,-130.13333333333333,497.06666666666666
2160,108.8,-136.53333333333333,499.2
2161,104.53333333333333,-140.8,497.06666666666666
2162,100.26666666666667,-138.66666666666666,501.3333333333333
2163,102.4,-145.06666666666666,499.2
2164,104.53333333333333,-147.2,509.8666666666667
2165,100.26666666666667,-138.66666666666666,499.2
2166,102.4,-142.93333333333334,494.93333333333334
2167,104.53333333333333,-145.06666666666666,503.46666666666664
2168,102.4,-145.06666666666666,497.06666666666666
2169,113.06666666666666,-142.93333333333334,497.06666666666666
2170,104.53333333333333,-136.53333333333333,490.6666666666667
2171,104.53333333333333,-136.53333333333333,486.4
2172,102.4,-138.66666666666666,482.1333333333333
2173,108.8,-140.8,480.0
2174,104.53333333333333,-140.8,475.73333333333335
2175,102.4,-142.93333333333334,480.0
2176,98.13333333333333,-142.93333333333334,477.8666666666667
2177,91.73333333333333,-145.06666666666666,484.26666666666665
2178,96.0,-138.66666666666666,482.1333333333333
2179,96.0,-138.66666666666666,486.4
2180,93.86666666666666,-136.53333333333333,484.26666666666665
2181,85.33333333333333,-132.26666666666665,490.6666666666667
2182,91.73333333333333,-134.4,480.0
2183,89.6,-130.13333333333333,503.46666666666664
2184,87.46666666666667,-136.53333333333333,490.6666666666667
2185,78.93333333333334,-130.13333333333333,499.2
2186,72.53333333333333,-132.26666666666665,503.46666666666664
2187,66.13333333333333,-132.26666666666665,497.06666666666666
2188,57.6,-136.53333333333333,494.93333333333334
2189,57.6,-136.53333333333333,499.2
2190,49.06666666666666,-134.4,492.8
2191,46.93333333333333,-138.66666666666666,492.8
2192,32.0,-128.0,492.8
2193,32.0,-136.53333333333333,505.59999999999997
2194,27.733333333333334,-130.13333333333333,499.2
2195,23.466666666666665,-132.26666666666665,501.3333333333333
2196,34.13333333333333,-128.0,490.6666666666667
2197,29.866666666666667,-130.13333333333333,488.5333333333333
2198,34.13333333333333,-119.46666666666667,490.6666666666667
2199,36.266666666666666,-123.73333333333333,492.8
2200,40.53333333333333,-121.6,497.06666666666666
2201,40.53333333333333,-115.2,497.06666666666666
2202,36.266666666666666,-117.33333333333333,505.59999999999997
2203,46.93333333333333,-113.06666666666666,507.73333333333335
2204,51.2,-113.06666666666666,507.73333333333335
2205,49.06666666666666,-104.53333333333333,503.46666666666664
2206,55.46666666666667,-106.66666666666667,503.46666666666664
2207,53.333333333333336,-100.26666666666667,503.46666666666664
2208,53.333333333333336,-93.86666666666666,501.3333333333333
2209,55.46666666666667,-102.4,509.8666666666667
2210,61.86666666666667,-91.73333333333333,505.59999999999997
2211,66.13333333333333,-81.06666666666666,507.73333333333335
2212,64.0,-76.8,507.73333333333335
2213,68.26666666666667,-74.66666666666667,503.46666666666664
2214,66.13333333333333,-74.66666666666667,512.0
2215,68.26666666666667,-76.8,512.0
2216,61.86666666666667,-78.93333333333334,514.1333333333333
2217,51.2,-81.06666666666666,509.8666666666667
2218,36.266666666666666,-87.46666666666667,503.46666666666664
2219,19.2,-91.73333333333333,501.3333333333333
2220,12.8,-98.13333333333333,503.46666666666664
2221,4.266666666666667,-102.4,503.46666666666664
2222,0.0,-117.33333333333333,501.3333333333333
2223,-10.666666666666666,-123.73333333333333,503.46666666666664
2224,-12.8,-138.66666666666666,507.73333333333335
2225,-19.2,-142.93333333333334,505.59999999999997
2226,-19.2,-140.8,501.3333333333333
2227,-14.933333333333334,-142.93333333333334,503.46666666666664
2228,-4.266666666666667,-138.66666666666666,497.06666666666666
2229,-2.1333333333333333,-142.93333333333334,505.59999999999997
2230,6.4,-147.2,503.46666666666664
2231,17.066666666666666,-142.93333333333334,497.06666666666666
2232,25.6,-138.66666666666666,494.93333333333334
2233,38.4,-132.26666666666665,486.4
2234,49.06666666666666,-130.13333333333333,477.8666666666667
2235,55.46666666666667,-123.73333333333333,484.26666666666665
2236,55.46666666666667,-125.86666666666666,473.59999999999997
2237,55.46666666666667,-121.6,477.8666666666667
2238,55.46666666666667,-119.46666666666667,482.1333333333333
2239,57.6,-115.2,484.26666666666665
2240,55.46666666666667,-113.06666666666666,482.1333333333333
2241,64.0,-113.06666666666666,484.26666666666665
2242,64.0,-113.06666666666666,486.4
2243,59.733333333333334,-115.2,490.6666666666667
2244,70.4,-110.93333333333334,494.93333333333334
2245,68.26666666666667,-106.66666666666667,494.93333333333334
2246,64.0,-104.53333333333333,494.93333333333334
2247,85.33333333333333,-115.2,486.4
2248,76.8,-104.53333333333333,484.26666666666665
2249,70.4,-104.53333333333333,497.06666666666666
2250,81.06666666666666,-106.66666666666667,505.59999999999997
2251,87.46666666666667,-100.26666666666667,503.46666666666664
2252,85.33333333333333,-91.73333333333333,505.59999999999997
2253,83.2,-91.73333333333333,514.1333333333333
2254,87.46666666666667,-93.86666666666666,518.4
2255,85.33333333333333,-76.8,516.2666666666667
2256,83.2,-74.66666666666667,512.0
2257,74.66666666666667,-74.66666666666667,526.9333333333333
2258,72.53333333333333,-64.0,529.0666666666666
2259,68.26666666666667,-61.86666666666667,522.6666666666666
2260,64.0,-57.6,520.5333333333333
2261,57.6,-59.733333333333334,507.73333333333335
2262,51.2,-61.86666666666667,512.0
2263,38.4,-55.46666666666667,512.0
2264,27.733333333333334,-61.86666666666667,503.46666666666664
2265,25.6,-66.13333333333333,507.73333333333335
2266,23.466666666666665,-76.8,514.1333333333333
2267,12.8,-85.33333333333333,518.4
2268,6.4,-91.73333333333333,507.73333333333335
2269,6.4,-98.13333333333333,512.0
2270,0.0,-102.4,505.59999999999997
2271,4.266666666666667,-100.26666666666667,505.59999999999997
2272,4.266666666666667,-115.2,507.73333333333335
2273,2.1333333333333333,-108.8,501.3333333333333
2274,8.533333333333333,-113.06666666666666,494.93333333333334
2275,4.266666666666667,-113.06666666666666,501.3333333333333
2276,-4.266666666666667,-102.4,501.3333333333333
2277,4.266666666666667,-108.8,494.93333333333334
2278,4.266666666666667,-108.8,501.3333333333333
2279,8.533333333333333,-100.26666666666667,512.0
2280,10.666666666666666,-104.53333333333333,505.59999999999997
2281,6.4,-87.46666666666667,503.46666666666664
2282,12.8,-93.86666666666666,499.2
2283,10.666666666666666,-78.93333333333334,509.8666666666667
2284,12.8,-70.4,518.4
2285,19.2,-74.66666666666667,499.2
2286,21.333333333333332,-70.4,505.59999999999997
2287,29.866666666666667,-72.53333333333333,520.5333333333333
2288,34.13333333333333,-68.26666666666667,514.1333333333333
2289,38.4,-59.733333333333334,518.4
2290,36.266666666666666,-61.86666666666667,516.2666666666667
2291,44.8,-55.46666666666667,514.1333333333333
2292,44.8,-59.733333333333334,516.2666666666667
2293,51.2,-68.26666666666667,518.4
2294,53.333333333333336,-61.86666666666667,524.8
2295,55.46666666666667,-64.0,514.1333333333333
2296,53.333333333333336,-70.4,524.8
2297,61.86666666666667,-72.53333333333333,522.6666666666666
2298,49.06666666666666,-76.8,531.2
2299,49.06666666666666,-76.8,533.3333333333334
2300,51.2,-78.93333333333334,529.0666666666666
2301,51.2,-85.33333333333333,529.0666666666666
2302,44.8,-78.93333333333334,518.4
2303,44.8,-78.93333333333334,520.5333333333333
2304,44.8,-76.8,516.2666666666667
2305,44.8,-83.2,518.4
2306,40.53333333333333,-76.8,509.8666666666667
2307,38.4,-74.66666666666667,514.1333333333333
2308,42.666666666666664,-72.53333333333333,507.73333333333335
2309,36.266666666666666,-70.4,507.73333333333335
2310,40.53333333333333,-76.8,509.8666666666667
2311,36.266666666666666,-68.26666666666667,505.59999999999997
2312,25.6,-68.26666666666667,505.59999999999997
2313,36.266666666666666,-66.13333333333333,509.8666666666667
2314,38.4,-74.66666666666667,507.73333333333335
2315,36.266666666666666,-68.26666666666667,512.0
2316,32.0,-68.26666666666667,505.59999999999997
2317,29.866666666666667,-68.26666666666667,499.2
2318,32.0,-70.4,505.59999999999997
2319,29.866666666666667,-72.53333333333333,512.0
2320,32.0,-74.66666666666667,505.59999999999997
2321,27.733333333333334,-81.06666666666666,512.0
2322,34.13333333333333,-76.8,507.73333333333335
2323,32.0,-76.8,501.3333333333333
2324,32.0,-78.93333333333334,512.0
2325,34.13333333333333,-76.8,501.3333333333333
2326,32.0,-81.06666666666666,505.59999999999997
2327,42.666666666666664,-78.93333333333334,501.3333333333333
2328,38.4,-83.2,501.3333333333333
2329,32.0,-78.93333333333334,512.0
2330,36.266666666666666,-72.53333333333333,499.2
2331,32.0,-68.26666666666667,499.2
2332,36.266666666666666,-76.8,507.73333333333335
2333,38.4,-66.13333333333333,499.2
2334,42.666666666666664,-70.4,505.59999999999997
2335,40.53333333333333,-72.53333333333333,505.59999999999997
2336,44.8,-66.13333333333333,512.0
2337,46.93333333333333,-66.13333333333333,520.5333333333333
2338,40.53333333333333,-61.86666666666667,514.1333333333333
2339,44.8,-59.733333333333334,516.2666666666667
2340,44.8,-61.86666666666667,514.1333333333333
2341,44.8,-59.733333333333334,524.8
2342,42.666666666666664,-61.86666666666667,524.8
2343,40.53333333333333,-61.86666666666667,522.6666666666666
2344,40.53333333333333,-59.733333333333334,529.0666666666666
2345,36.266666666666666,-53.333333333333336,522.6666666666666
2346,36.266666666666666,-57.6,529.0666666666666
2347,36.266666666666666,-49.06666666666666,512.0
2348,34.13333333333333,-53.333333333333336,516.2666666666667
2349,38.4,-57.6,520.5333333333333
2350,38.4,-59.733333333333334,514.1333333333333
2351,38.4,-57.6,505.59999999999997
2352,38.4,-57.6,507.73333333333335
2353,34.13333333333333,-59.733333333333334,507.73333333333335
2354,34.13333333333333,-55.46666666666667,499.2
2355,42.666666666666664,-66.13333333333333,505.59999999999997
2356,44.8,-70.4,516.2666666666667
2357,40.53333333333333,-70.4,514.1333333333333
2358,40.53333333333333,-68.26666666666667,501.3333333333333
2359,38.4,-76.8,520.5333333333333
2360,40.53333333333333,-76.8,514.1333333333333
2361,42.666666666666664,-70.4,520.5333333333333
2362,38.4,-66.13333333333333,518.4
2363,40.53333333333333,-66.13333333333333,524.8
2364,34.13333333333333,-61.86666666666667,514.1333333333333
2365,36.266666666666666,-61.86666666666667,509.8666666666667
2366,38.4,-68.26666666666667,501.3333333333333
2367,32.0,-57.6,507.73333333333335
2368,29.866666666666667,-53.333333333333336,516.2666666666667
2369,32.0,-59.733333333333334,516.2666666666667
2370,34.13333333333333,-59.733333333333334,514.1333333333333
2371,36.266666666666666,-51.2,514.1333333333333
2372,32.0,-51.2,516.2666666666667
2373,29.866666666666667,-53.333333333333336,514.1333333333333
2374,21.333333333333332,-49.06666666666666,514.1333333333333
2375,21.333333333333332,-51.2,522.6666666666666
2376,25.6,-55.46666666666667,516.2666666666667
2377,25.6,-51.2,518.4
2378,12.8,-55.46666666666667,518.4
2379,25.6,-53.333333333333336,516.2666666666667
2380,27.733333333333334,-59.733333333333334,522.6666666666666
2381,25.6,-57.6,520.5333333333333
2382,23.466666666666665,-59.733333333333334,518.4
2383,25.6,-55.46666666666667,512.0
2384,27.733333333333334,-55.46666666666667,516.2666666666667
2385,32.0,-57.6,516.2666666666667
2386,29.866666666666667,-57.6,514.1333333333333
2387,27.733333333333334,-57.6,518.4
2388,34.13333333333333,-53.333333333333336,522.6666666666666
2389,27.733333333333334,-55.46666666666667,516.2666666666667
2390,29.866666666666667,-61.86666666666667,512.0
2391,29.866666666666667,-59.733333333333334,514.1333333333333
2392,29.866666666666667,-51.2,512.0
2393,34.13333333333333,-61.86666666666667,524.8
2394,34.13333333333333,-57.6,512.0
2395,40.53333333333333,-59.733333333333334,524.8
2396,40.53333333333333,-59.733333333333334,514.1333333333333
2397,42.666666666666664,-59.733333333333334,518.4
2398,32.0,-55.46666666666667,512.0
2399,34.13333333333333,-53.333333333333336,516.2666666666667
