,accelerometerAccelerationX(G),accelerometerAccelerationY(G),accelerometerAccelerationZ(G)
0,8.533333333333333,-57.6,509.8666666666667
1,10.666666666666666,-55.46666666666667,512.0
2,4.266666666666667,-53.333333333333336,514.1333333333333
3,8.533333333333333,-53.333333333333336,522.6666666666666
4,4.266666666666667,-61.86666666666667,514.1333333333333
5,17.066666666666666,-57.6,520.5333333333333
6,8.533333333333333,-57.6,520.5333333333333
7,12.8,-59.733333333333334,509.8666666666667
8,10.666666666666666,-59.733333333333334,520.5333333333333
9,8.533333333333333,-57.6,516.2666666666667
10,0.0,-55.46666666666667,512.0
11,10.666666666666666,-59.733333333333334,518.4
12,6.4,-55.46666666666667,524.8
13,6.4,-57.6,514.1333333333333
14,2.1333333333333333,-57.6,524.8
15,10.666666666666666,-64.0,520.5333333333333
16,8.533333333333333,-57.6,512.0
17,8.533333333333333,-66.13333333333333,509.8666666666667
18,8.533333333333333,-66.13333333333333,535.4666666666667
19,2.1333333333333333,-59.733333333333334,512.0
20,6.4,-59.733333333333334,518.4
21,4.266666666666667,-61.86666666666667,514.1333333333333
22,12.8,-68.26666666666667,514.1333333333333
23,8.533333333333333,-57.6,514.1333333333333
24,4.266666666666667,-57.6,512.0
25,8.533333333333333,-64.0,518.4
26,4.266666666666667,-55.46666666666667,509.8666666666667
27,4.266666666666667,-57.6,514.1333333333333
28,6.4,-51.2,514.1333333333333
29,10.666666666666666,-51.2,507.73333333333335
30,6.4,-53.333333333333336,518.4
31,6.4,-51.2,512.0
32,10.666666666666666,-51.2,522.6666666666666
33,6.4,-51.2,518.4
34,2.1333333333333333,-55.46666666666667,518.4
35,6.4,-59.733333333333334,512.0
36,4.266666666666667,-53.333333333333336,522.6666666666666
37,4.266666666666667,-55.46666666666667,520.5333333333333
38,6.4,-53.333333333333336,518.4
39,2.1333333333333333,-61.86666666666667,514.1333333333333
40,8.533333333333333,-66.13333333333333,520.5333333333333
41,6.4,-61.86666666666667,520.5333333333333
42,6.4,-66.13333333333333,514.1333333333333
43,6.4,-66.13333333333333,516.2666666666667
44,6.4,-61.86666666666667,514.1333333333333
45,8.533333333333333,-64.0,512.0
46,6.4,-61.86666666666667,514.1333333333333
47,2.1333333333333333,-53.333333333333336,520.5333333333333
48,6.4,-55.46666666666667,516.2666666666667
49,6.4,-53.333333333333336,509.8666666666667
50,2.1333333333333333,-53.333333333333336,520.5333333333333
51,6.4,-57.6,507.73333333333335
52,2.1333333333333333,-57.6,520.5333333333333
53,6.4,-55.46666666666667,514.1333333333333
54,4.266666666666667,-49.06666666666666,518.4
55,8.533333333333333,-51.2,518.4
56,0.0,-46.93333333333333,520.5333333333333
57,6.4,-53.333333333333336,516.2666666666667
58,8.533333333333333,-53.333333333333336,516.2666666666667
59,2.1333333333333333,-53.333333333333336,512.0
60,6.4,-61.86666666666667,512.0
61,8.533333333333333,-61.86666666666667,518.4
62,6.4,-66.13333333333333,516.2666666666667
63,6.4,-57.6,518.4
64,6.4,-59.733333333333334,512.0
65,12.8,-57.6,520.5333333333333
66,8.533333333333333,-49.06666666666666,520.5333333333333
67,10.666666666666666,-55.46666666666667,509.8666666666667
68,8.533333333333333,-61.86666666666667,518.4
69,2.1333333333333333,-55.46666666666667,516.2666666666667
70,10.666666666666666,-57.6,518.4
71,6.4,-57.6,522.6666666666666
72,4.266666666666667,-53.333333333333336,516.2666666666667
73,4.266666666666667,-53.333333333333336,512.0
74,4.266666666666667,-57.6,514.1333333333333
75,10.666666666666666,-59.733333333333334,516.2666666666667
76,4.266666666666667,-53.333333333333336,514.1333333333333
77,0.0,-57.6,520.5333333333333
78,8.533333333333333,-55.46666666666667,516.2666666666667
79,6.4,-61.86666666666667,516.2666666666667
80,2.1333333333333333,-51.2,514.1333333333333
81,2.1333333333333333,-51.2,520.5333333333333
82,10.666666666666666,-59.733333333333334,514.1333333333333
83,8.533333333333333,-51.2,514.1333333333333
84,4.266666666666667,-53.333333333333336,514.1333333333333
85,2.1333333333333333,-49.06666666666666,522.6666666666666
86,6.4,-51.2,520.5333333333333
87,4.266666666666667,-46.93333333333333,512.0
88,10.666666666666666,-59.733333333333334,516.2666666666667
89,8.533333333333333,-61.86666666666667,518.4
90,12.8,-55.46666666666667,520.5333333333333
91,6.4,-59.733333333333334,516.2666666666667
92,8.533333333333333,-57.6,522.6666666666666
93,4.266666666666667,-51.2,516.2666666666667
94,4.266666666666667,-53.333333333333336,512.0
95,2.1333333333333333,-51.2,516.2666666666667
96,2.1333333333333333,-53.333333333333336,518.4
97,8.533333333333333,-59.733333333333334,520.5333333333333
98,4.266666666666667,-53.333333333333336,516.2666666666667
99,6.4,-61.86666666666667,514.1333333333333
100,4.266666666666667,-57.6,512.0
101,8.533333333333333,-55.46666666666667,512.0
102,6.4,-59.733333333333334,524.8
103,10.666666666666666,-57.6,520.5333333333333
104,10.666666666666666,-59.733333333333334,512.0
105,6.4,-57.6,518.4
106,2.1333333333333333,-55.46666666666667,516.2666666666667
107,8.533333333333333,-57.6,522.6666666666666
108,6.4,-55.46666666666667,512.0
109,6.4,-57.6,514.1333333333333
110,6.4,-55.46666666666667,516.2666666666667
111,0.0,-57.6,514.1333333333333
112,6.4,-53.333333333333336,516.2666666666667
113,2.1333333333333333,-49.06666666666666,524.8
114,4.266666666666667,-61.86666666666667,514.1333333333333
115,6.4,-61.86666666666667,520.5333333333333
116,6.4,-57.6,514.1333333333333
117,6.4,-59.733333333333334,518.4
118,6.4,-59.733333333333334,518.4
119,4.266666666666667,-59.733333333333334,524.8
120,10.666666666666666,-64.0,516.2666666666667
121,2.1333333333333333,-61.86666666666667,516.2666666666667
122,14.933333333333334,-59.733333333333334,512.0
123,4.266666666666667,-55.46666666666667,518.4
124,14.933333333333334,-68.26666666666667,509.8666666666667
125,4.266666666666667,-53.333333333333336,520.5333333333333
126,8.533333333333333,-61.86666666666667,516.2666666666667
127,4.266666666666667,-57.6,516.2666666666667
128,8.533333333333333,-61.86666666666667,518.4
129,4.266666666666667,-51.2,514.1333333333333
130,10.666666666666666,-57.6,518.4
131,4.266666666666667,-55.46666666666667,518.4
132,8.533333333333333,-61.86666666666667,516.2666666666667
133,10.666666666666666,-59.733333333333334,514.1333333333333
134,6.4,-64.0,516.2666666666667
135,6.4,-61.86666666666667,507.73333333333335
136,6.4,-64.0,512.0
137,2.1333333333333333,-68.26666666666667,509.8666666666667
138,8.533333333333333,-66.13333333333333,509.8666666666667
139,2.1333333333333333,-66.13333333333333,514.1333333333333
140,4.266666666666667,-68.26666666666667,516.2666666666667
141,6.4,-70.4,524.8
142,2.1333333333333333,-68.26666666666667,522.6666666666666
143,6.4,-70.4,516.2666666666667
144,2.1333333333333333,-70.4,518.4
145,10.666666666666666,-70.4,524.8
146,10.666666666666666,-70.4,514.1333333333333
147,10.666666666666666,-74.66666666666667,514.1333333333333
148,8.533333333333333,-68.26666666666667,516.2666666666667
149,6.4,-68.26666666666667,514.1333333333333
150,12.8,-64.0,514.1333333333333
151,10.666666666666666,-68.26666666666667,507.73333333333335
152,8.533333333333333,-61.86666666666667,518.4
153,8.533333333333333,-68.26666666666667,522.6666666666666
154,10.666666666666666,-68.26666666666667,505.59999999999997
155,4.266666666666667,-66.13333333333333,514.1333333333333
156,14.933333333333334,-61.86666666666667,497.06666666666666
157,8.533333333333333,-64.0,507.73333333333335
158,2.1333333333333333,-66.13333333333333,512.0
159,4.266666666666667,-61.86666666666667,509.8666666666667
160,2.1333333333333333,-61.86666666666667,522.6666666666666
161,-4.266666666666667,-57.6,514.1333333333333
162,4.266666666666667,-59.733333333333334,518.4
163,-2.1333333333333333,-61.86666666666667,514.1333333333333
164,4.266666666666667,-66.13333333333333,522.6666666666666
165,2.1333333333333333,-68.26666666666667,526.9333333333333
166,0.0,-66.13333333333333,522.6666666666666
167,2.1333333333333333,-68.26666666666667,522.6666666666666
168,4.266666666666667,-74.66666666666667,526.9333333333333
169,6.4,-61.86666666666667,537.6
170,8.533333333333333,-72.53333333333333,526.9333333333333
171,10.666666666666666,-66.13333333333333,533.3333333333334
172,8.533333333333333,-72.53333333333333,526.9333333333333
173,6.4,-59.733333333333334,526.9333333333333
174,4.266666666666667,-66.13333333333333,514.1333333333333
175,6.4,-64.0,512.0
176,6.4,-64.0,501.3333333333333
177,0.0,-61.86666666666667,501.3333333333333
178,2.1333333333333333,-70.4,501.3333333333333
179,0.0,-72.53333333333333,503.46666666666664
180,4.266666666666667,-81.06666666666666,501.3333333333333
181,2.1333333333333333,-85.33333333333333,499.2
182,0.0,-91.73333333333333,499.2
183,0.0,-98.13333333333333,503.46666666666664
184,0.0,-98.13333333333333,509.8666666666667
185,0.0,-98.13333333333333,518.4
186,0.0,-93.86666666666666,526.9333333333333
187,0.0,-85.33333333333333,531.2
188,4.266666666666667,-85.33333333333333,533.3333333333334
189,0.0,-66.13333333333333,524.8
190,0.0,-55.46666666666667,531.2
191,10.666666666666666,-57.6,516.2666666666667
192,8.533333333333333,-46.93333333333333,516.2666666666667
193,12.8,-53.333333333333336,520.5333333333333
194,17.066666666666666,-38.4,520.5333333333333
195,17.066666666666666,-46.93333333333333,507.73333333333335
196,21.333333333333332,-53.333333333333336,509.8666666666667
197,17.066666666666666,-51.2,505.59999999999997
198,10.666666666666666,-53.333333333333336,512.0
199,19.2,-59.733333333333334,514.1333333333333
200,8.533333333333333,-70.4,516.2666666666667
201,2.1333333333333333,-72.53333333333333,518.4
202,0.0,-85.33333333333333,518.4
203,0.0,-87.46666666666667,522.6666666666666
204,-2.1333333333333333,-83.2,531.2
205,0.0,-91.73333333333333,526.9333333333333
206,-6.4,-93.86666666666666,526.9333333333333
207,-8.533333333333333,-89.6,520.5333333333333
208,-12.8,-93.86666666666666,533.3333333333334
209,-6.4,-89.6,514.1333333333333
210,-2.1333333333333333,-76.8,516.2666666666667
211,0.0,-74.66666666666667,503.46666666666664
212,0.0,-74.66666666666667,509.8666666666667
213,-4.266666666666667,-70.4,509.8666666666667
214,0.0,-64.0,514.1333333333333
215,0.0,-66.13333333333333,505.59999999999997
216,0.0,-59.733333333333334,518.4
217,-6.4,-55.46666666666667,520.5333333333333
218,2.1333333333333333,-55.46666666666667,520.5333333333333
219,0.0,-64.0,522.6666666666666
220,2.1333333333333333,-70.4,526.9333333333333
221,0.0,-74.66666666666667,529.0666666666666
222,0.0,-78.93333333333334,535.4666666666667
223,4.266666666666667,-83.2,537.6
224,2.1333333333333333,-85.33333333333333,535.4666666666667
225,2.1333333333333333,-87.46666666666667,539.7333333333333
226,4.266666666666667,-91.73333333333333,524.8
227,0.0,-81.06666666666666,518.4
228,0.0,-81.06666666666666,514.1333333333333
229,2.1333333333333333,-93.86666666666666,520.5333333333333
230,2.1333333333333333,-87.46666666666667,514.1333333333333
231,-6.4,-78.93333333333334,524.8
232,-8.533333333333333,-85.33333333333333,522.6666666666666
233,-19.2,-91.73333333333333,531.2
234,-23.466666666666665,-81.06666666666666,546.1333333333333
235,-23.466666666666665,-81.06666666666666,550.4
236,-40.53333333333333,-85.33333333333333,569.6
237,-57.6,-85.33333333333333,569.6
238,-55.46666666666667,-93.86666666666666,565.3333333333334
239,-61.86666666666667,-98.13333333333333,563.2
240,-57.6,-102.4,558.9333333333333
241,-44.8,-110.93333333333334,554.6666666666666
242,-38.4,-115.2,552.5333333333333
243,-19.2,-117.33333333333333,552.5333333333333
244,2.1333333333333333,-117.33333333333333,556.8
245,0.0,-113.06666666666666,544.0
246,0.0,-113.06666666666666,546.1333333333333
247,-8.533333333333333,-108.8,548.2666666666667
248,-21.333333333333332,-98.13333333333333,533.3333333333334
249,-23.466666666666665,-96.0,526.9333333333333
250,-27.733333333333334,-93.86666666666666,507.73333333333335
251,-29.866666666666667,-74.66666666666667,503.46666666666664
252,-34.13333333333333,-81.06666666666666,497.06666666666666
253,-46.93333333333333,-74.66666666666667,488.5333333333333
254,-42.666666666666664,-78.93333333333334,482.1333333333333
255,-23.466666666666665,-78.93333333333334,497.06666666666666
256,-40.53333333333333,-89.6,503.46666666666664
257,-38.4,-91.73333333333333,514.1333333333333
258,-34.13333333333333,-91.73333333333333,526.9333333333333
259,-23.466666666666665,-96.0,541.8666666666667
260,-25.6,-89.6,552.5333333333333
261,-8.533333333333333,-89.6,563.2
262,-2.1333333333333333,-76.8,567.4666666666667
263,0.0,-61.86666666666667,556.8
264,6.4,-59.733333333333334,546.1333333333333
265,17.066666666666666,-46.93333333333333,548.2666666666667
266,23.466666666666665,-53.333333333333336,524.8
267,10.666666666666666,-44.8,520.5333333333333
268,4.266666666666667,-38.4,512.0
269,2.1333333333333333,-49.06666666666666,507.73333333333335
270,4.266666666666667,-57.6,512.0
271,-2.1333333333333333,-70.4,512.0
272,-2.1333333333333333,-74.66666666666667,512.0
273,-4.266666666666667,-74.66666666666667,518.4
274,-12.8,-74.66666666666667,535.4666666666667
275,-17.066666666666666,-76.8,544.0
276,-21.333333333333332,-85.33333333333333,550.4
277,-25.6,-83.2,546.1333333333333
278,-42.666666666666664,-76.8,548.2666666666667
279,-49.06666666666666,-78.93333333333334,539.7333333333333
280,-53.333333333333336,-68.26666666666667,526.9333333333333
281,-55.46666666666667,-59.733333333333334,512.0
282,-64.0,-53.333333333333336,505.59999999999997
283,-68.26666666666667,-40.53333333333333,492.8
284,-68.26666666666667,-36.266666666666666,488.5333333333333
285,-68.26666666666667,-42.666666666666664,490.6666666666667
286,-74.66666666666667,-53.333333333333336,480.0
287,-74.66666666666667,-68.26666666666667,484.26666666666665
288,-78.93333333333334,-78.93333333333334,499.2
289,-81.06666666666666,-91.73333333333333,503.46666666666664
290,-91.73333333333333,-100.26666666666667,512.0
291,-96.0,-117.33333333333333,526.9333333333333
292,-113.06666666666666,-117.33333333333333,526.9333333333333
293,-106.66666666666667,-115.2,524.8
294,-113.06666666666666,-104.53333333333333,522.6666666666666
295,-138.66666666666666,-91.73333333333333,509.8666666666667
296,-115.2,-81.06666666666666,494.93333333333334
297,-113.06666666666666,-68.26666666666667,473.59999999999997
298,-113.06666666666666,-49.06666666666666,458.6666666666667
299,-119.46666666666667,-49.06666666666666,456.5333333333333
300,-123.73333333333333,-38.4,448.0
301,-128.0,-46.93333333333333,445.8666666666667
302,-130.13333333333333,-57.6,452.26666666666665
303,-130.13333333333333,-68.26666666666667,450.1333333333333
304,-130.13333333333333,-74.66666666666667,454.4
305,-132.26666666666665,-81.06666666666666,456.5333333333333
306,-136.53333333333333,-87.46666666666667,456.5333333333333
307,-140.8,-85.33333333333333,469.3333333333333
308,-147.2,-83.2,458.6666666666667
309,-145.06666666666666,-81.06666666666666,450.1333333333333
310,-147.2,-78.93333333333334,443.73333333333335
311,-145.06666666666666,-70.4,426.6666666666667
312,-160.0,-64.0,418.1333333333333
313,-155.73333333333332,-57.6,409.6
314,-162.13333333333333,-51.2,401.06666666666666
315,-168.53333333333333,-36.266666666666666,394.6666666666667
316,-174.93333333333334,-32.0,396.8
317,-179.2,-27.733333333333334,407.46666666666664
318,-172.8,-32.0,407.46666666666664
319,-181.33333333333334,-27.733333333333334,411.73333333333335
320,-166.4,-32.0,413.8666666666667
321,-174.93333333333334,-32.0,407.46666666666664
322,-170.66666666666666,-25.6,413.8666666666667
323,-179.2,-27.733333333333334,407.46666666666664
324,-181.33333333333334,-34.13333333333333,413.8666666666667
325,-189.86666666666667,-36.266666666666666,422.4
326,-192.0,-44.8,416.0
327,-196.26666666666665,-49.06666666666666,428.8
328,-200.53333333333333,-59.733333333333334,420.26666666666665
329,-196.26666666666665,-61.86666666666667,411.73333333333335
330,-202.66666666666666,-61.86666666666667,401.06666666666666
331,-200.53333333333333,-53.333333333333336,403.2
332,-206.93333333333334,-55.46666666666667,409.6
333,-202.66666666666666,-46.93333333333333,416.0
334,-200.53333333333333,-34.13333333333333,416.0
335,-194.13333333333333,-32.0,426.6666666666667
336,-181.33333333333334,-23.466666666666665,430.93333333333334
337,-181.33333333333334,-21.333333333333332,452.26666666666665
338,-174.93333333333334,-17.066666666666666,462.93333333333334
339,-170.66666666666666,-14.933333333333334,469.3333333333333
340,-166.4,-17.066666666666666,477.8666666666667
341,-168.53333333333333,-19.2,480.0
342,-147.2,-19.2,460.8
343,-162.13333333333333,-32.0,477.8666666666667
344,-170.66666666666666,-40.53333333333333,484.26666666666665
345,-172.8,-59.733333333333334,505.59999999999997
346,-177.06666666666666,-81.06666666666666,520.5333333333333
347,-168.53333333333333,-108.8,558.9333333333333
348,-168.53333333333333,-121.6,580.2666666666667
349,-157.86666666666667,-130.13333333333333,582.4
350,-157.86666666666667,-130.13333333333333,563.2
351,-166.4,-119.46666666666667,548.2666666666667
352,-179.2,-110.93333333333334,533.3333333333334
353,-196.26666666666665,-119.46666666666667,552.5333333333333
354,-204.8,-125.86666666666666,558.9333333333333
355,-217.6,-138.66666666666666,578.1333333333333
356,-228.26666666666665,-166.4,644.2666666666667
357,-253.86666666666667,-172.8,684.8
358,-266.6666666666667,-179.2,727.4666666666667
359,-266.6666666666667,-179.2,736.0
360,-266.6666666666667,-177.06666666666666,736.0
361,-251.73333333333332,-164.26666666666665,714.6666666666666
362,-245.33333333333334,-149.33333333333334,644.2666666666667
363,-224.0,-123.73333333333333,588.8
364,-194.13333333333333,-98.13333333333333,518.4
365,-155.73333333333332,-78.93333333333334,441.59999999999997
366,-110.93333333333334,-57.6,390.4
367,-70.4,-42.666666666666664,388.26666666666665
368,-32.0,-32.0,398.93333333333334
369,-10.666666666666666,-36.266666666666666,430.93333333333334
370,0.0,-51.2,452.26666666666665
371,4.266666666666667,-59.733333333333334,484.26666666666665
372,2.1333333333333333,-64.0,490.6666666666667
373,-12.8,-66.13333333333333,494.93333333333334
374,-44.8,-70.4,488.5333333333333
375,-57.6,-61.86666666666667,469.3333333333333
376,-91.73333333333333,-64.0,460.8
377,-125.86666666666666,-68.26666666666667,456.5333333333333
378,-149.33333333333334,-85.33333333333333,460.8
379,-181.33333333333334,-104.53333333333333,460.8
380,-206.93333333333334,-128.0,452.26666666666665
381,-213.33333333333334,-164.26666666666665,452.26666666666665
382,-221.86666666666667,-181.33333333333334,443.73333333333335
383,-219.73333333333332,-192.0,443.73333333333335
384,-230.4,-198.4,445.8666666666667
385,-230.4,-213.33333333333334,448.0
386,-238.93333333333334,-211.2,467.2
387,-236.79999999999998,-209.06666666666666,494.93333333333334
388,-243.2,-202.66666666666666,497.06666666666666
389,-245.33333333333334,-189.86666666666667,497.06666666666666
390,-253.86666666666667,-179.2,477.8666666666667
391,-258.1333333333333,-160.0,460.8
392,-249.6,-136.53333333333333,435.2
393,-232.53333333333333,-125.86666666666666,405.3333333333333
394,-224.0,-106.66666666666667,381.8666666666667
395,-219.73333333333332,-87.46666666666667,369.06666666666666
396,-221.86666666666667,-74.66666666666667,375.46666666666664
397,-234.66666666666666,-59.733333333333334,388.26666666666665
398,-258.1333333333333,-55.46666666666667,407.46666666666664
399,-275.2,-46.93333333333333,413.8666666666667
400,-288.0,-57.6,422.4
401,-305.06666666666666,-68.26666666666667,430.93333333333334
402,-330.6666666666667,-81.06666666666666,422.4
403,-345.6,-98.13333333333333,441.59999999999997
404,-364.8,-100.26666666666667,448.0
405,-362.6666666666667,-117.33333333333333,448.0
406,-356.26666666666665,-108.8,420.26666666666665
407,-330.6666666666667,-115.2,411.73333333333335
408,-309.3333333333333,-106.66666666666667,386.1333333333333
409,-277.3333333333333,-100.26666666666667,381.8666666666667
410,-256.0,-87.46666666666667,377.6
411,-245.33333333333334,-78.93333333333334,401.06666666666666
412,-241.06666666666666,-81.06666666666666,420.26666666666665
413,-245.33333333333334,-81.06666666666666,441.59999999999997
414,-258.1333333333333,-87.46666666666667,465.06666666666666
415,-270.93333333333334,-104.53333333333333,494.93333333333334
416,-285.8666666666667,-125.86666666666666,488.5333333333333
417,-300.8,-145.06666666666666,477.8666666666667
418,-294.4,-155.73333333333332,467.2
419,-281.6,-160.0,450.1333333333333
420,-270.93333333333334,-157.86666666666667,445.8666666666667
421,-264.5333333333333,-136.53333333333333,428.8
422,-262.4,-125.86666666666666,424.5333333333333
423,-260.26666666666665,-113.06666666666666,409.6
424,-268.8,-91.73333333333333,407.46666666666664
425,-277.3333333333333,-70.4,411.73333333333335
426,-281.6,-59.733333333333334,430.93333333333334
427,-294.4,-59.733333333333334,443.73333333333335
428,-302.93333333333334,-83.2,477.8666666666667
429,-313.6,-93.86666666666666,494.93333333333334
430,-309.3333333333333,-119.46666666666667,494.93333333333334
431,-305.06666666666666,-147.2,490.6666666666667
432,-285.8666666666667,-164.26666666666665,471.46666666666664
433,-270.93333333333334,-179.2,456.5333333333333
434,-249.6,-177.06666666666666,448.0
435,-234.66666666666666,-153.6,416.0
436,-219.73333333333332,-134.4,409.6
437,-217.6,-119.46666666666667,398.93333333333334
438,-217.6,-115.2,401.06666666666666
439,-224.0,-104.53333333333333,407.46666666666664
440,-221.86666666666667,-108.8,422.4
441,-230.4,-104.53333333333333,435.2
442,-228.26666666666665,-110.93333333333334,445.8666666666667
443,-230.4,-113.06666666666666,458.6666666666667
444,-236.79999999999998,-110.93333333333334,465.06666666666666
445,-234.66666666666666,-117.33333333333333,467.2
446,-234.66666666666666,-121.6,469.3333333333333
447,-226.13333333333333,-113.06666666666666,454.4
448,-228.26666666666665,-113.06666666666666,441.59999999999997
449,-241.06666666666666,-102.4,433.06666666666666
450,-260.26666666666665,-89.6,424.5333333333333
451,-264.5333333333333,-98.13333333333333,426.6666666666667
452,-283.73333333333335,-89.6,401.06666666666666
453,-292.26666666666665,-85.33333333333333,394.6666666666667
454,-307.2,-89.6,409.6
455,-317.8666666666667,-96.0,416.0
456,-339.2,-98.13333333333333,424.5333333333333
457,-347.73333333333335,-104.53333333333333,418.1333333333333
458,-352.0,-102.4,411.73333333333335
459,-352.0,-108.8,407.46666666666664
460,-352.0,-100.26666666666667,411.73333333333335
461,-356.26666666666665,-108.8,401.06666666666666
462,-349.8666666666667,-106.66666666666667,401.06666666666666
463,-356.26666666666665,-110.93333333333334,403.2
464,-360.5333333333333,-93.86666666666666,403.2
465,-356.26666666666665,-93.86666666666666,384.0
466,-356.26666666666665,-89.6,377.6
467,-358.4,-89.6,366.93333333333334
468,-360.5333333333333,-85.33333333333333,369.06666666666666
469,-373.3333333333333,-81.06666666666666,377.6
470,-369.06666666666666,-91.73333333333333,388.26666666666665
471,-369.06666666666666,-93.86666666666666,396.8
472,-373.3333333333333,-102.4,403.2
473,-366.93333333333334,-104.53333333333333,411.73333333333335
474,-366.93333333333334,-119.46666666666667,418.1333333333333
475,-371.2,-115.2,416.0
476,-364.8,-121.6,416.0
477,-366.93333333333334,-123.73333333333333,407.46666666666664
478,-356.26666666666665,-130.13333333333333,401.06666666666666
479,-349.8666666666667,-136.53333333333333,396.8
480,-352.0,-136.53333333333333,401.06666666666666
481,-358.4,-125.86666666666666,403.2
482,-349.8666666666667,-121.6,401.06666666666666
483,-356.26666666666665,-110.93333333333334,390.4
484,-339.2,-100.26666666666667,403.2
485,-330.6666666666667,-85.33333333333333,403.2
486,-330.6666666666667,-64.0,407.46666666666664
487,-324.26666666666665,-59.733333333333334,398.93333333333334
488,-322.1333333333333,-51.2,405.3333333333333
489,-320.0,-46.93333333333333,416.0
490,-322.1333333333333,-61.86666666666667,433.06666666666666
491,-324.26666666666665,-74.66666666666667,409.6
492,-328.5333333333333,-83.2,407.46666666666664
493,-324.26666666666665,-93.86666666666666,411.73333333333335
494,-328.5333333333333,-93.86666666666666,407.46666666666664
495,-326.4,-108.8,407.46666666666664
496,-326.4,-108.8,403.2
497,-326.4,-117.33333333333333,405.3333333333333
498,-324.26666666666665,-121.6,398.93333333333334
499,-317.8666666666667,-123.73333333333333,405.3333333333333
500,-322.1333333333333,-119.46666666666667,403.2
501,-313.6,-117.33333333333333,416.0
502,-313.6,-108.8,416.0
503,-317.8666666666667,-96.0,420.26666666666665
504,-315.73333333333335,-96.0,426.6666666666667
505,-313.6,-85.33333333333333,426.6666666666667
506,-317.8666666666667,-74.66666666666667,424.5333333333333
507,-317.8666666666667,-70.4,428.8
508,-315.73333333333335,-64.0,422.4
509,-313.6,-64.0,422.4
510,-313.6,-66.13333333333333,420.26666666666665
511,-309.3333333333333,-66.13333333333333,416.0
512,-300.8,-76.8,409.6
513,-300.8,-85.33333333333333,405.3333333333333
514,-298.6666666666667,-83.2,405.3333333333333
515,-294.4,-87.46666666666667,411.73333333333335
516,-296.5333333333333,-83.2,416.0
517,-296.5333333333333,-87.46666666666667,422.4
518,-288.0,-85.33333333333333,428.8
519,-283.73333333333335,-81.06666666666666,439.46666666666664
520,-283.73333333333335,-74.66666666666667,439.46666666666664
521,-288.0,-70.4,437.3333333333333
522,-285.8666666666667,-78.93333333333334,435.2
523,-294.4,-68.26666666666667,428.8
524,-292.26666666666665,-61.86666666666667,424.5333333333333
525,-294.4,-57.6,437.3333333333333
526,-296.5333333333333,-59.733333333333334,435.2
527,-294.4,-72.53333333333333,428.8
528,-296.5333333333333,-74.66666666666667,435.2
529,-285.8666666666667,-76.8,435.2
530,-292.26666666666665,-81.06666666666666,441.59999999999997
531,-288.0,-91.73333333333333,426.6666666666667
532,-288.0,-91.73333333333333,437.3333333333333
533,-283.73333333333335,-100.26666666666667,420.26666666666665
534,-283.73333333333335,-98.13333333333333,411.73333333333335
535,-290.1333333333333,-96.0,413.8666666666667
536,-290.1333333333333,-104.53333333333333,413.8666666666667
537,-294.4,-98.13333333333333,405.3333333333333
538,-294.4,-85.33333333333333,420.26666666666665
539,-300.8,-91.73333333333333,426.6666666666667
540,-302.93333333333334,-74.66666666666667,428.8
541,-313.6,-68.26666666666667,435.2
542,-311.46666666666664,-64.0,428.8
543,-313.6,-55.46666666666667,437.3333333333333
544,-315.73333333333335,-55.46666666666667,430.93333333333334
545,-322.1333333333333,-55.46666666666667,435.2
546,-326.4,-53.333333333333336,435.2
547,-326.4,-57.6,418.1333333333333
548,-326.4,-66.13333333333333,418.1333333333333
549,-328.5333333333333,-74.66666666666667,407.46666666666664
550,-322.1333333333333,-85.33333333333333,396.8
551,-311.46666666666664,-87.46666666666667,396.8
552,-307.2,-91.73333333333333,394.6666666666667
553,-302.93333333333334,-93.86666666666666,396.8
554,-305.06666666666666,-87.46666666666667,407.46666666666664
555,-305.06666666666666,-89.6,407.46666666666664
556,-302.93333333333334,-89.6,411.73333333333335
557,-311.46666666666664,-89.6,420.26666666666665
558,-315.73333333333335,-81.06666666666666,411.73333333333335
559,-315.73333333333335,-87.46666666666667,422.4
560,-326.4,-74.66666666666667,416.0
561,-328.5333333333333,-81.06666666666666,409.6
562,-326.4,-81.06666666666666,405.3333333333333
563,-328.5333333333333,-78.93333333333334,396.8
564,-326.4,-87.46666666666667,396.8
565,-328.5333333333333,-76.8,396.8
566,-332.8,-78.93333333333334,405.3333333333333
567,-324.26666666666665,-87.46666666666667,424.5333333333333
568,-315.73333333333335,-85.33333333333333,420.26666666666665
569,-317.8666666666667,-93.86666666666666,418.1333333333333
570,-320.0,-89.6,424.5333333333333
571,-322.1333333333333,-83.2,409.6
572,-326.4,-93.86666666666666,407.46666666666664
573,-322.1333333333333,-98.13333333333333,398.93333333333334
574,-324.26666666666665,-93.86666666666666,411.73333333333335
575,-326.4,-100.26666666666667,407.46666666666664
576,-328.5333333333333,-91.73333333333333,398.93333333333334
577,-332.8,-93.86666666666666,398.93333333333334
578,-322.1333333333333,-100.26666666666667,403.2
579,-326.4,-93.86666666666666,405.3333333333333
580,-326.4,-96.0,409.6
581,-326.4,-91.73333333333333,409.6
582,-322.1333333333333,-76.8,422.4
583,-324.26666666666665,-76.8,398.93333333333334
584,-328.5333333333333,-74.66666666666667,388.26666666666665
585,-322.1333333333333,-72.53333333333333,394.6666666666667
586,-317.8666666666667,-68.26666666666667,386.1333333333333
587,-322.1333333333333,-68.26666666666667,390.4
588,-328.5333333333333,-68.26666666666667,394.6666666666667
589,-328.5333333333333,-74.66666666666667,394.6666666666667
590,-324.26666666666665,-76.8,401.06666666666666
591,-324.26666666666665,-85.33333333333333,392.5333333333333
592,-330.6666666666667,-81.06666666666666,398.93333333333334
593,-341.3333333333333,-83.2,401.06666666666666
594,-341.3333333333333,-83.2,394.6666666666667
595,-343.46666666666664,-76.8,392.5333333333333
596,-334.93333333333334,-76.8,392.5333333333333
597,-339.2,-74.66666666666667,388.26666666666665
598,-343.46666666666664,-68.26666666666667,386.1333333333333
599,-343.46666666666664,-68.26666666666667,384.0
600,-345.6,-72.53333333333333,384.0
601,-352.0,-74.66666666666667,384.0
602,-352.0,-70.4,386.1333333333333
603,-369.06666666666666,-74.66666666666667,386.1333333333333
604,-356.26666666666665,-78.93333333333334,392.5333333333333
605,-379.73333333333335,-78.93333333333334,388.26666666666665
606,-375.46666666666664,-85.33333333333333,388.26666666666665
607,-375.46666666666664,-78.93333333333334,390.4
608,-371.2,-74.66666666666667,386.1333333333333
609,-366.93333333333334,-72.53333333333333,381.8666666666667
610,-371.2,-64.0,377.6
611,-375.46666666666664,-55.46666666666667,369.06666666666666
612,-373.3333333333333,-51.2,371.2
613,-384.0,-55.46666666666667,356.26666666666665
614,-392.5333333333333,-55.46666666666667,362.6666666666667
615,-390.4,-53.333333333333336,354.1333333333333
616,-390.4,-59.733333333333334,356.26666666666665
617,-398.93333333333334,-59.733333333333334,360.5333333333333
618,-396.8,-61.86666666666667,345.6
619,-398.93333333333334,-59.733333333333334,349.8666666666667
620,-398.93333333333334,-59.733333333333334,347.73333333333335
621,-392.5333333333333,-59.733333333333334,343.46666666666664
622,-392.5333333333333,-59.733333333333334,334.93333333333334
623,-401.06666666666666,-59.733333333333334,330.6666666666667
624,-403.2,-51.2,328.5333333333333
625,-407.46666666666664,-57.6,322.1333333333333
626,-411.73333333333335,-53.333333333333336,322.1333333333333
627,-411.73333333333335,-53.333333333333336,324.26666666666665
628,-426.6666666666667,-46.93333333333333,334.93333333333334
629,-416.0,-53.333333333333336,337.06666666666666
630,-418.1333333333333,-55.46666666666667,341.3333333333333
631,-424.5333333333333,-57.6,339.2
632,-422.4,-53.333333333333336,339.2
633,-416.0,-57.6,343.46666666666664
634,-424.5333333333333,-53.333333333333336,330.6666666666667
635,-424.5333333333333,-49.06666666666666,330.6666666666667
636,-420.26666666666665,-49.06666666666666,330.6666666666667
637,-420.26666666666665,-51.2,324.26666666666665
638,-420.26666666666665,-51.2,322.1333333333333
639,-426.6666666666667,-46.93333333333333,317.8666666666667
640,-430.93333333333334,-51.2,324.26666666666665
641,-428.8,-42.666666666666664,322.1333333333333
642,-435.2,-44.8,324.26666666666665
643,-437.3333333333333,-42.666666666666664,317.8666666666667
644,-430.93333333333334,-40.53333333333333,315.73333333333335
645,-433.06666666666666,-40.53333333333333,324.26666666666665
646,-428.8,-38.4,311.46666666666664
647,-433.06666666666666,-42.666666666666664,320.0
648,-430.93333333333334,-34.13333333333333,309.3333333333333
649,-439.46666666666664,-32.0,305.06666666666666
650,-445.8666666666667,-32.0,309.3333333333333
651,-450.1333333333333,-36.266666666666666,300.8
652,-445.8666666666667,-51.2,302.93333333333334
653,-454.4,-46.93333333333333,294.4
654,-445.8666666666667,-55.46666666666667,300.8
655,-445.8666666666667,-59.733333333333334,298.6666666666667
656,-441.59999999999997,-64.0,298.6666666666667
657,-445.8666666666667,-59.733333333333334,292.26666666666665
658,-443.73333333333335,-57.6,290.1333333333333
659,-443.73333333333335,-53.333333333333336,285.8666666666667
660,-443.73333333333335,-53.333333333333336,288.0
661,-443.73333333333335,-44.8,277.3333333333333
662,-452.26666666666665,-53.333333333333336,281.6
663,-452.26666666666665,-49.06666666666666,281.6
664,-460.8,-44.8,275.2
665,-456.5333333333333,-46.93333333333333,268.8
666,-458.6666666666667,-36.266666666666666,279.46666666666664
667,-462.93333333333334,-42.666666666666664,275.2
668,-467.2,-40.53333333333333,268.8
669,-467.2,-57.6,279.46666666666664
670,-467.2,-49.06666666666666,268.8
671,-469.3333333333333,-55.46666666666667,260.26666666666665
672,-473.59999999999997,-49.06666666666666,258.1333333333333
673,-473.59999999999997,-55.46666666666667,251.73333333333332
674,-477.8666666666667,-49.06666666666666,266.6666666666667
675,-490.6666666666667,-42.666666666666664,258.1333333333333
676,-499.2,-34.13333333333333,256.0
677,-488.5333333333333,-44.8,256.0
678,-494.93333333333334,-36.266666666666666,251.73333333333332
679,-499.2,-38.4,256.0
680,-486.4,-25.6,245.33333333333334
681,-475.73333333333335,-27.733333333333334,241.06666666666666
682,-467.2,-32.0,232.53333333333333
683,-458.6666666666667,-23.466666666666665,226.13333333333333
684,-454.4,-17.066666666666666,226.13333333333333
685,-448.0,-23.466666666666665,226.13333333333333
686,-456.5333333333333,-29.866666666666667,228.26666666666665
687,-460.8,-25.6,228.26666666666665
688,-462.93333333333334,-34.13333333333333,228.26666666666665
689,-467.2,-40.53333333333333,226.13333333333333
690,-473.59999999999997,-36.266666666666666,221.86666666666667
691,-490.6666666666667,-53.333333333333336,230.4
692,-488.5333333333333,-46.93333333333333,219.73333333333332
693,-494.93333333333334,-44.8,217.6
694,-492.8,-49.06666666666666,215.46666666666667
695,-497.06666666666666,-38.4,215.46666666666667
696,-503.46666666666664,-44.8,213.33333333333334
697,-505.59999999999997,-42.666666666666664,206.93333333333334
698,-505.59999999999997,-34.13333333333333,204.8
699,-516.2666666666667,-27.733333333333334,206.93333333333334
700,-520.5333333333333,-27.733333333333334,200.53333333333333
701,-522.6666666666666,-23.466666666666665,202.66666666666666
702,-520.5333333333333,-17.066666666666666,196.26666666666665
703,-524.8,-21.333333333333332,189.86666666666667
704,-524.8,-8.533333333333333,181.33333333333334
705,-512.0,-21.333333333333332,194.13333333333333
706,-514.1333333333333,-21.333333333333332,187.73333333333332
707,-512.0,-27.733333333333334,194.13333333333333
708,-514.1333333333333,-27.733333333333334,196.26666666666665
709,-516.2666666666667,-32.0,194.13333333333333
710,-524.8,-32.0,202.66666666666666
711,-524.8,-29.866666666666667,198.4
712,-533.3333333333334,-25.6,194.13333333333333
713,-544.0,-21.333333333333332,174.93333333333334
714,-537.6,-32.0,174.93333333333334
715,-531.2,-19.2,170.66666666666666
716,-533.3333333333334,-17.066666666666666,172.8
717,-529.0666666666666,-23.466666666666665,164.26666666666665
718,-516.2666666666667,-25.6,168.53333333333333
719,-509.8666666666667,-17.066666666666666,160.0
720,-499.2,-19.2,168.53333333333333
721,-488.5333333333333,-27.733333333333334,181.33333333333334
722,-490.6666666666667,-25.6,181.33333333333334
723,-490.6666666666667,-21.333333333333332,174.93333333333334
724,-488.5333333333333,-25.6,172.8
725,-492.8,-32.0,177.06666666666666
726,-499.2,-25.6,162.13333333333333
727,-516.2666666666667,-23.466666666666665,166.4
728,-524.8,-19.2,155.73333333333332
729,-526.9333333333333,-19.2,151.46666666666667
730,-529.0666666666666,-19.2,153.6
731,-535.4666666666667,-14.933333333333334,151.46666666666667
732,-529.0666666666666,-19.2,155.73333333333332
733,-531.2,-21.333333333333332,164.26666666666665
734,-529.0666666666666,-17.066666666666666,164.26666666666665
735,-524.8,-14.933333333333334,157.86666666666667
736,-518.4,-21.333333333333332,153.6
737,-520.5333333333333,-19.2,153.6
738,-518.4,-23.466666666666665,155.73333333333332
739,-524.8,-14.933333333333334,147.2
740,-526.9333333333333,-21.333333333333332,149.33333333333334
741,-531.2,-17.066666666666666,138.66666666666666
742,-533.3333333333334,-17.066666666666666,147.2
743,-531.2,-17.066666666666666,145.06666666666666
744,-524.8,-12.8,128.0
745,-529.0666666666666,-10.666666666666666,128.0
746,-522.6666666666666,-21.333333333333332,130.13333333333333
747,-522.6666666666666,-21.333333333333332,132.26666666666665
748,-531.2,-17.066666666666666,132.26666666666665
749,-529.0666666666666,-23.466666666666665,142.93333333333334
750,-524.8,-19.2,140.8
751,-535.4666666666667,-21.333333333333332,134.4
752,-533.3333333333334,-17.066666666666666,140.8
753,-535.4666666666667,-12.8,132.26666666666665
754,-541.8666666666667,-6.4,130.13333333333333
755,-539.7333333333333,0.0,132.26666666666665
756,-531.2,19.2,132.26666666666665
757,-539.7333333333333,12.8,128.0
758,-535.4666666666667,8.533333333333333,119.46666666666667
759,-526.9333333333333,10.666666666666666,115.2
760,-524.8,14.933333333333334,119.46666666666667
761,-520.5333333333333,17.066666666666666,119.46666666666667
762,-526.9333333333333,14.933333333333334,121.6
763,-526.9333333333333,8.533333333333333,123.73333333333333
764,-526.9333333333333,6.4,123.73333333333333
765,-531.2,2.1333333333333333,121.6
766,-539.7333333333333,2.1333333333333333,134.4
767,-535.4666666666667,0.0,123.73333333333333
768,-544.0,-10.666666666666666,123.73333333333333
769,-541.8666666666667,-4.266666666666667,128.0
770,-539.7333333333333,-10.666666666666666,125.86666666666666
771,-546.1333333333333,-6.4,119.46666666666667
772,-546.1333333333333,-6.4,121.6
773,-548.2666666666667,-2.1333333333333333,104.53333333333333
774,-554.6666666666666,0.0,113.06666666666666
775,-546.1333333333333,-8.533333333333333,113.06666666666666
776,-544.0,-12.8,106.66666666666667
777,-544.0,-6.4,100.26666666666667
778,-531.2,-14.933333333333334,104.53333333333333
779,-537.6,-6.4,93.86666666666666
780,-533.3333333333334,-4.266666666666667,104.53333333333333
781,-529.0666666666666,2.1333333333333333,102.4
782,-524.8,-4.266666666666667,104.53333333333333
783,-531.2,2.1333333333333333,102.4
784,-541.8666666666667,4.266666666666667,110.93333333333334
785,-539.7333333333333,17.066666666666666,102.4
786,-546.1333333333333,12.8,98.13333333333333
787,-546.1333333333333,10.666666666666666,100.26666666666667
788,-550.4,21.333333333333332,87.46666666666667
789,-550.4,14.933333333333334,83.2
790,-552.5333333333333,17.066666666666666,83.2
791,-550.4,17.066666666666666,83.2
792,-550.4,14.933333333333334,76.8
793,-548.2666666666667,4.266666666666667,76.8
794,-546.1333333333333,10.666666666666666,83.2
795,-546.1333333333333,8.533333333333333,74.66666666666667
796,-546.1333333333333,4.266666666666667,81.06666666666666
797,-544.0,4.266666666666667,76.8
798,-537.6,8.533333333333333,81.06666666666666
799,-548.2666666666667,10.666666666666666,72.53333333333333
800,-544.0,17.066666666666666,85.33333333333333
801,-539.7333333333333,17.066666666666666,70.4
802,-544.0,17.066666666666666,72.53333333333333
803,-535.4666666666667,17.066666666666666,70.4
804,-537.6,14.933333333333334,68.26666666666667
805,-535.4666666666667,17.066666666666666,72.53333333333333
806,-544.0,17.066666666666666,76.8
807,-544.0,17.066666666666666,78.93333333333334
808,-548.2666666666667,19.2,81.06666666666666
809,-550.4,17.066666666666666,83.2
810,-558.9333333333333,6.4,66.13333333333333
811,-556.8,4.266666666666667,72.53333333333333
812,-569.6,-2.1333333333333333,61.86666666666667
813,-569.6,-2.1333333333333333,59.733333333333334
814,-565.3333333333334,4.266666666666667,68.26666666666667
815,-569.6,12.8,70.4
816,-573.8666666666667,17.066666666666666,70.4
817,-576.0,19.2,70.4
818,-580.2666666666667,23.466666666666665,76.8
819,-576.0,29.866666666666667,72.53333333333333
820,-576.0,27.733333333333334,70.4
821,-565.3333333333334,23.466666666666665,55.46666666666667
822,-556.8,32.0,59.733333333333334
823,-548.2666666666667,34.13333333333333,59.733333333333334
824,-546.1333333333333,29.866666666666667,55.46666666666667
825,-539.7333333333333,21.333333333333332,57.6
826,-529.0666666666666,17.066666666666666,46.93333333333333
827,-533.3333333333334,10.666666666666666,57.6
828,-531.2,12.8,53.333333333333336
829,-529.0666666666666,2.1333333333333333,55.46666666666667
830,-541.8666666666667,10.666666666666666,51.2
831,-535.4666666666667,10.666666666666666,61.86666666666667
832,-544.0,14.933333333333334,55.46666666666667
833,-548.2666666666667,14.933333333333334,51.2
834,-548.2666666666667,17.066666666666666,40.53333333333333
835,-548.2666666666667,2.1333333333333333,36.266666666666666
836,-552.5333333333333,6.4,25.6
837,-554.6666666666666,12.8,27.733333333333334
838,-550.4,17.066666666666666,21.333333333333332
839,-554.6666666666666,19.2,25.6
840,-561.0666666666666,23.466666666666665,27.733333333333334
841,-561.0666666666666,32.0,36.266666666666666
842,-561.0666666666666,40.53333333333333,29.866666666666667
843,-556.8,44.8,38.4
844,-563.2,46.93333333333333,32.0
845,-558.9333333333333,57.6,36.266666666666666
846,-561.0666666666666,59.733333333333334,32.0
847,-563.2,61.86666666666667,34.13333333333333
848,-558.9333333333333,57.6,34.13333333333333
849,-556.8,53.333333333333336,46.93333333333333
850,-552.5333333333333,49.06666666666666,42.666666666666664
851,-548.2666666666667,36.266666666666666,46.93333333333333
852,-548.2666666666667,36.266666666666666,42.666666666666664
853,-550.4,27.733333333333334,44.8
854,-556.8,25.6,46.93333333333333
855,-556.8,27.733333333333334,38.4
856,-558.9333333333333,21.333333333333332,44.8
857,-558.9333333333333,25.6,40.53333333333333
858,-565.3333333333334,23.466666666666665,34.13333333333333
859,-565.3333333333334,17.066666666666666,29.866666666666667
860,-561.0666666666666,17.066666666666666,19.2
861,-563.2,14.933333333333334,27.733333333333334
862,-563.2,12.8,25.6
863,-554.6666666666666,17.066666666666666,32.0
864,-558.9333333333333,23.466666666666665,32.0
865,-550.4,21.333333333333332,36.266666666666666
866,-546.1333333333333,19.2,36.266666666666666
867,-552.5333333333333,23.466666666666665,44.8
868,-546.1333333333333,23.466666666666665,38.4
869,-548.2666666666667,32.0,44.8
870,-544.0,27.733333333333334,51.2
871,-548.2666666666667,46.93333333333333,38.4
872,-548.2666666666667,40.53333333333333,46.93333333333333
873,-546.1333333333333,36.266666666666666,42.666666666666664
874,-554.6666666666666,44.8,34.13333333333333
875,-550.4,40.53333333333333,42.666666666666664
876,-554.6666666666666,36.266666666666666,38.4
877,-554.6666666666666,32.0,38.4
878,-552.5333333333333,27.733333333333334,38.4
879,-561.0666666666666,27.733333333333334,44.8
880,-558.9333333333333,23.466666666666665,38.4
881,-558.9333333333333,23.466666666666665,42.666666666666664
882,-558.9333333333333,25.6,38.4
883,-556.8,17.066666666666666,40.53333333333333
884,-563.2,23.466666666666665,46.93333333333333
885,-556.8,29.866666666666667,44.8
886,-550.4,19.2,44.8
887,-550.4,21.333333333333332,34.13333333333333
888,-548.2666666666667,21.333333333333332,42.666666666666664
889,-544.0,25.6,34.13333333333333
890,-546.1333333333333,27.733333333333334,40.53333333333333
891,-550.4,27.733333333333334,40.53333333333333
892,-552.5333333333333,40.53333333333333,40.53333333333333
893,-552.5333333333333,27.733333333333334,34.13333333333333
894,-552.5333333333333,25.6,32.0
895,-548.2666666666667,42.666666666666664,42.666666666666664
896,-552.5333333333333,25.6,40.53333333333333
897,-552.5333333333333,21.333333333333332,29.866666666666667
898,-548.2666666666667,21.333333333333332,27.733333333333334
899,-548.2666666666667,17.066666666666666,29.866666666666667
900,-550.4,14.933333333333334,29.866666666666667
901,-546.1333333333333,17.066666666666666,34.13333333333333
902,-544.0,17.066666666666666,38.4
903,-550.4,19.2,32.0
904,-546.1333333333333,17.066666666666666,21.333333333333332
905,-550.4,21.333333333333332,25.6
906,-554.6666666666666,29.866666666666667,44.8
907,-546.1333333333333,25.6,32.0
908,-548.2666666666667,27.733333333333334,38.4
909,-550.4,23.466666666666665,32.0
910,-548.2666666666667,27.733333333333334,29.866666666666667
911,-548.2666666666667,27.733333333333334,36.266666666666666
912,-546.1333333333333,23.466666666666665,32.0
913,-548.2666666666667,25.6,34.13333333333333
914,-546.1333333333333,21.333333333333332,32.0
915,-550.4,34.13333333333333,38.4
916,-550.4,23.466666666666665,36.266666666666666
917,-550.4,21.333333333333332,36.266666666666666
918,-550.4,19.2,40.53333333333333
919,-548.2666666666667,17.066666666666666,44.8
920,-554.6666666666666,21.333333333333332,38.4
921,-550.4,14.933333333333334,51.2
922,-546.1333333333333,12.8,42.666666666666664
923,-546.1333333333333,17.066666666666666,40.53333333333333
924,-544.0,14.933333333333334,40.53333333333333
925,-548.2666666666667,19.2,42.666666666666664
926,-548.2666666666667,10.666666666666666,34.13333333333333
927,-548.2666666666667,17.066666666666666,42.666666666666664
928,-544.0,14.933333333333334,36.266666666666666
929,-544.0,14.933333333333334,38.4
930,-552.5333333333333,19.2,46.93333333333333
931,-552.5333333333333,21.333333333333332,38.4
932,-548.2666666666667,17.066666666666666,49.06666666666666
933,-548.2666666666667,17.066666666666666,57.6
934,-548.2666666666667,21.333333333333332,44.8
935,-548.2666666666667,32.0,53.333333333333336
936,-548.2666666666667,19.2,57.6
937,-546.1333333333333,27.733333333333334,55.46666666666667
938,-544.0,27.733333333333334,51.2
939,-544.0,29.866666666666667,53.333333333333336
940,-541.8666666666667,17.066666666666666,64.0
941,-544.0,21.333333333333332,59.733333333333334
942,-541.8666666666667,21.333333333333332,59.733333333333334
943,-544.0,17.066666666666666,66.13333333333333
944,-541.8666666666667,19.2,57.6
945,-535.4666666666667,17.066666666666666,57.6
946,-541.8666666666667,21.333333333333332,57.6
947,-546.1333333333333,19.2,61.86666666666667
948,-548.2666666666667,17.066666666666666,57.6
949,-535.4666666666667,17.066666666666666,53.333333333333336
950,-541.8666666666667,17.066666666666666,68.26666666666667
951,-546.1333333333333,17.066666666666666,72.53333333333333
952,-546.1333333333333,19.2,66.13333333333333
953,-550.4,17.066666666666666,72.53333333333333
954,-554.6666666666666,19.2,66.13333333333333
955,-554.6666666666666,19.2,70.4
956,-550.4,19.2,70.4
957,-556.8,17.066666666666666,66.13333333333333
958,-552.5333333333333,17.066666666666666,68.26666666666667
959,-554.6666666666666,19.2,64.0
960,-548.2666666666667,19.2,57.6
961,-546.1333333333333,19.2,57.6
962,-544.0,19.2,57.6
963,-541.8666666666667,19.2,53.333333333333336
964,-539.7333333333333,19.2,51.2
965,-548.2666666666667,17.066666666666666,57.6
966,-544.0,19.2,49.06666666666666
967,-546.1333333333333,19.2,55.46666666666667
968,-546.1333333333333,17.066666666666666,38.4
969,-544.0,19.2,49.06666666666666
970,-548.2666666666667,17.066666666666666,49.06666666666666
971,-539.7333333333333,23.466666666666665,59.733333333333334
972,-548.2666666666667,17.066666666666666,46.93333333333333
973,-548.2666666666667,21.333333333333332,51.2
974,-546.1333333333333,17.066666666666666,44.8
975,-548.2666666666667,17.066666666666666,53.333333333333336
976,-550.4,19.2,51.2
977,-548.2666666666667,21.333333333333332,59.733333333333334
978,-548.2666666666667,23.466666666666665,55.46666666666667
979,-552.5333333333333,19.2,49.06666666666666
980,-548.2666666666667,19.2,55.46666666666667
981,-546.1333333333333,19.2,51.2
982,-550.4,21.333333333333332,53.333333333333336
983,-548.2666666666667,23.466666666666665,46.93333333333333
984,-548.2666666666667,17.066666666666666,42.666666666666664
985,-546.1333333333333,21.333333333333332,49.06666666666666
986,-546.1333333333333,17.066666666666666,42.666666666666664
987,-544.0,21.333333333333332,34.13333333333333
988,-548.2666666666667,19.2,42.666666666666664
989,-548.2666666666667,19.2,53.333333333333336
990,-548.2666666666667,17.066666666666666,51.2
991,-552.5333333333333,12.8,49.06666666666666
992,-552.5333333333333,21.333333333333332,36.266666666666666
993,-554.6666666666666,19.2,40.53333333333333
994,-554.6666666666666,19.2,42.666666666666664
995,-550.4,17.066666666666666,53.333333333333336
996,-548.2666666666667,14.933333333333334,49.06666666666666
997,-544.0,17.066666666666666,53.333333333333336
998,-552.5333333333333,19.2,49.06666666666666
999,-554.6666666666666,12.8,51.2
1000,-546.1333333333333,14.933333333333334,49.06666666666666
1001,-546.1333333333333,17.066666666666666,57.6
1002,-544.0,14.933333333333334,59.733333333333334
1003,-550.4,19.2,46.93333333333333
1004,-550.4,19.2,51.2
1005,-550.4,19.2,40.53333333333333
1006,-548.2666666666667,17.066666666666666,51.2
1007,-550.4,17.066666666666666,49.06666666666666
1008,-556.8,17.066666666666666,57.6
1009,-552.5333333333333,23.466666666666665,64.0
1010,-552.5333333333333,19.2,53.333333333333336
1011,-550.4,21.333333333333332,51.2
1012,-548.2666666666667,19.2,57.6
1013,-554.6666666666666,14.933333333333334,49.06666666666666
1014,-552.5333333333333,19.2,49.06666666666666
1015,-548.2666666666667,27.733333333333334,53.333333333333336
1016,-550.4,19.2,59.733333333333334
1017,-554.6666666666666,25.6,46.93333333333333
1018,-552.5333333333333,19.2,57.6
1019,-552.5333333333333,21.333333333333332,61.86666666666667
1020,-552.5333333333333,23.466666666666665,66.13333333333333
1021,-552.5333333333333,21.333333333333332,53.333333333333336
1022,-552.5333333333333,21.333333333333332,57.6
1023,-552.5333333333333,17.066666666666666,64.0
1024,-548.2666666666667,17.066666666666666,66.13333333333333
1025,-548.2666666666667,21.333333333333332,68.26666666666667
1026,-546.1333333333333,17.066666666666666,64.0
1027,-548.2666666666667,17.066666666666666,53.333333333333336
1028,-544.0,19.2,57.6
1029,-541.8666666666667,19.2,57.6
1030,-544.0,19.2,53.333333333333336
1031,-544.0,10.666666666666666,53.333333333333336
1032,-541.8666666666667,17.066666666666666,53.333333333333336
1033,-541.8666666666667,19.2,59.733333333333334
1034,-537.6,12.8,61.86666666666667
1035,-539.7333333333333,4.266666666666667,57.6
1036,-546.1333333333333,10.666666666666666,53.333333333333336
1037,-546.1333333333333,8.533333333333333,51.2
1038,-546.1333333333333,8.533333333333333,53.333333333333336
1039,-546.1333333333333,14.933333333333334,57.6
1040,-541.8666666666667,10.666666666666666,57.6
1041,-546.1333333333333,14.933333333333334,51.2
1042,-550.4,17.066666666666666,51.2
1043,-544.0,17.066666666666666,44.8
1044,-548.2666666666667,19.2,49.06666666666666
1045,-548.2666666666667,23.466666666666665,51.2
1046,-550.4,14.933333333333334,53.333333333333336
1047,-548.2666666666667,17.066666666666666,51.2
1048,-548.2666666666667,17.066666666666666,53.333333333333336
1049,-550.4,19.2,59.733333333333334
1050,-552.5333333333333,14.933333333333334,57.6
1051,-546.1333333333333,10.666666666666666,55.46666666666667
1052,-548.2666666666667,10.666666666666666,57.6
1053,-550.4,12.8,53.333333333333336
1054,-548.2666666666667,17.066666666666666,51.2
1055,-548.2666666666667,10.666666666666666,51.2
1056,-546.1333333333333,14.933333333333334,49.06666666666666
1057,-550.4,17.066666666666666,55.46666666666667
1058,-548.2666666666667,12.8,57.6
1059,-548.2666666666667,12.8,57.6
1060,-548.2666666666667,19.2,61.86666666666667
1061,-546.1333333333333,14.933333333333334,53.333333333333336
1062,-548.2666666666667,17.066666666666666,53.333333333333336
1063,-546.1333333333333,17.066666666666666,51.2
1064,-548.2666666666667,14.933333333333334,57.6
1065,-546.1333333333333,19.2,66.13333333333333
1066,-548.2666666666667,19.2,61.86666666666667
1067,-548.2666666666667,17.066666666666666,57.6
1068,-548.2666666666667,19.2,61.86666666666667
1069,-548.2666666666667,17.066666666666666,51.2
1070,-546.1333333333333,17.066666666666666,53.333333333333336
1071,-548.2666666666667,17.066666666666666,64.0
1072,-544.0,12.8,59.733333333333334
1073,-546.1333333333333,12.8,59.733333333333334
1074,-546.1333333333333,10.666666666666666,68.26666666666667
1075,-546.1333333333333,10.666666666666666,64.0
1076,-546.1333333333333,14.933333333333334,61.86666666666667
1077,-544.0,17.066666666666666,57.6
1078,-539.7333333333333,10.666666666666666,81.06666666666666
1079,-550.4,12.8,55.46666666666667
1080,-548.2666666666667,17.066666666666666,55.46666666666667
1081,-546.1333333333333,19.2,53.333333333333336
1082,-544.0,14.933333333333334,59.733333333333334
1083,-548.2666666666667,17.066666666666666,59.733333333333334
1084,-548.2666666666667,12.8,57.6
1085,-546.1333333333333,17.066666666666666,64.0
1086,-548.2666666666667,21.333333333333332,64.0
1087,-546.1333333333333,17.066666666666666,68.26666666666667
1088,-546.1333333333333,17.066666666666666,61.86666666666667
1089,-550.4,17.066666666666666,70.4
1090,-550.4,19.2,72.53333333333333
1091,-546.1333333333333,12.8,61.86666666666667
1092,-548.2666666666667,17.066666666666666,57.6
1093,-548.2666666666667,12.8,59.733333333333334
1094,-541.8666666666667,12.8,57.6
1095,-544.0,17.066666666666666,64.0
1096,-541.8666666666667,10.666666666666666,61.86666666666667
1097,-548.2666666666667,17.066666666666666,57.6
1098,-546.1333333333333,14.933333333333334,59.733333333333334
1099,-548.2666666666667,17.066666666666666,53.333333333333336
1100,-550.4,14.933333333333334,66.13333333333333
1101,-546.1333333333333,17.066666666666666,59.733333333333334
1102,-550.4,23.466666666666665,70.4
1103,-546.1333333333333,17.066666666666666,59.733333333333334
1104,-544.0,17.066666666666666,61.86666666666667
1105,-546.1333333333333,17.066666666666666,55.46666666666667
1106,-546.1333333333333,10.666666666666666,61.86666666666667
1107,-546.1333333333333,10.666666666666666,64.0
1108,-548.2666666666667,14.933333333333334,64.0
1109,-546.1333333333333,12.8,61.86666666666667
1110,-548.2666666666667,14.933333333333334,53.333333333333336
1111,-546.1333333333333,10.666666666666666,66.13333333333333
1112,-544.0,17.066666666666666,61.86666666666667
1113,-548.2666666666667,10.666666666666666,64.0
1114,-550.4,19.2,61.86666666666667
1115,-554.6666666666666,23.466666666666665,64.0
1116,-548.2666666666667,17.066666666666666,66.13333333333333
1117,-548.2666666666667,19.2,68.26666666666667
1118,-546.1333333333333,17.066666666666666,66.13333333333333
1119,-552.5333333333333,19.2,59.733333333333334
1120,-544.0,17.066666666666666,64.0
1121,-546.1333333333333,17.066666666666666,64.0
1122,-550.4,17.066666666666666,66.13333333333333
1123,-546.1333333333333,17.066666666666666,66.13333333333333
1124,-550.4,17.066666666666666,59.733333333333334
1125,-544.0,17.066666666666666,64.0
1126,-546.1333333333333,17.066666666666666,72.53333333333333
1127,-546.1333333333333,17.066666666666666,61.86666666666667
1128,-546.1333333333333,17.066666666666666,66.13333333333333
1129,-548.2666666666667,12.8,64.0
1130,-550.4,17.066666666666666,66.13333333333333
1131,-556.8,14.933333333333334,64.0
1132,-550.4,4.266666666666667,66.13333333333333
1133,-544.0,10.666666666666666,66.13333333333333
1134,-550.4,8.533333333333333,68.26666666666667
1135,-546.1333333333333,17.066666666666666,72.53333333333333
1136,-546.1333333333333,4.266666666666667,68.26666666666667
1137,-544.0,14.933333333333334,70.4
1138,-548.2666666666667,14.933333333333334,68.26666666666667
1139,-550.4,12.8,64.0
1140,-548.2666666666667,14.933333333333334,66.13333333333333
1141,-541.8666666666667,17.066666666666666,70.4
1142,-546.1333333333333,14.933333333333334,66.13333333333333
1143,-546.1333333333333,14.933333333333334,74.66666666666667
1144,-546.1333333333333,19.2,70.4
1145,-548.2666666666667,17.066666666666666,66.13333333333333
1146,-548.2666666666667,17.066666666666666,74.66666666666667
1147,-548.2666666666667,17.066666666666666,61.86666666666667
1148,-548.2666666666667,17.066666666666666,61.86666666666667
1149,-546.1333333333333,19.2,61.86666666666667
1150,-546.1333333333333,14.933333333333334,68.26666666666667
1151,-550.4,17.066666666666666,59.733333333333334
1152,-533.3333333333334,10.666666666666666,106.66666666666667
1153,-558.9333333333333,17.066666666666666,74.66666666666667
1154,-554.6666666666666,19.2,102.4
1155,-539.7333333333333,10.666666666666666,59.733333333333334
1156,-541.8666666666667,12.8,76.8
1157,-552.5333333333333,8.533333333333333,68.26666666666667
1158,-552.5333333333333,8.533333333333333,51.2
1159,-539.7333333333333,12.8,66.13333333333333
1160,-537.6,12.8,59.733333333333334
1161,-552.5333333333333,14.933333333333334,64.0
1162,-550.4,17.066666666666666,59.733333333333334
1163,-544.0,6.4,72.53333333333333
1164,-546.1333333333333,14.933333333333334,61.86666666666667
1165,-550.4,12.8,64.0
1166,-537.6,12.8,68.26666666666667
1167,-548.2666666666667,14.933333333333334,64.0
1168,-552.5333333333333,44.8,74.66666666666667
1169,-567.4666666666667,10.666666666666666,81.06666666666666
1170,-503.46666666666664,29.866666666666667,51.2
1171,-533.3333333333334,21.333333333333332,121.6
1172,-546.1333333333333,19.2,44.8
1173,-539.7333333333333,17.066666666666666,78.93333333333334
1174,-544.0,21.333333333333332,70.4
1175,-548.2666666666667,14.933333333333334,55.46666666666667
1176,-546.1333333333333,0.0,72.53333333333333
1177,-541.8666666666667,19.2,64.0
1178,-537.6,2.1333333333333333,81.06666666666666
1179,-546.1333333333333,17.066666666666666,68.26666666666667
1180,-544.0,17.066666666666666,72.53333333333333
1181,-548.2666666666667,14.933333333333334,70.4
1182,-546.1333333333333,14.933333333333334,70.4
1183,-552.5333333333333,17.066666666666666,70.4
1184,-546.1333333333333,14.933333333333334,78.93333333333334
1185,-544.0,8.533333333333333,72.53333333333333
1186,-546.1333333333333,6.4,72.53333333333333
1187,-544.0,14.933333333333334,66.13333333333333
1188,-546.1333333333333,17.066666666666666,85.33333333333333
1189,-533.3333333333334,29.866666666666667,59.733333333333334
1190,-546.1333333333333,14.933333333333334,51.2
1191,-541.8666666666667,38.4,78.93333333333334
1192,-526.9333333333333,19.2,76.8
1193,-548.2666666666667,2.1333333333333333,78.93333333333334
1194,-544.0,14.933333333333334,66.13333333333333
1195,-548.2666666666667,12.8,68.26666666666667
1196,-544.0,14.933333333333334,64.0
1197,-552.5333333333333,12.8,70.4
1198,-544.0,29.866666666666667,74.66666666666667
1199,-544.0,17.066666666666666,72.53333333333333
1200,-578.1333333333333,27.733333333333334,40.53333333333333
1201,-533.3333333333334,-2.1333333333333333,66.13333333333333
1202,-554.6666666666666,14.933333333333334,42.666666666666664
1203,-556.8,12.8,91.73333333333333
1204,-533.3333333333334,4.266666666666667,66.13333333333333
1205,-561.0666666666666,14.933333333333334,64.0
1206,-539.7333333333333,21.333333333333332,72.53333333333333
1207,-544.0,10.666666666666666,81.06666666666666
1208,-533.3333333333334,10.666666666666666,76.8
1209,-535.4666666666667,6.4,76.8
1210,-546.1333333333333,6.4,66.13333333333333
1211,-546.1333333333333,14.933333333333334,76.8
1212,-546.1333333333333,17.066666666666666,70.4
1213,-544.0,17.066666666666666,68.26666666666667
1214,-539.7333333333333,19.2,70.4
1215,-544.0,23.466666666666665,66.13333333333333
1216,-541.8666666666667,17.066666666666666,70.4
1217,-544.0,12.8,78.93333333333334
1218,-548.2666666666667,14.933333333333334,61.86666666666667
1219,-552.5333333333333,14.933333333333334,61.86666666666667
1220,-554.6666666666666,14.933333333333334,59.733333333333334
1221,-544.0,10.666666666666666,53.333333333333336
1222,-563.2,27.733333333333334,74.66666666666667
1223,-563.2,8.533333333333333,53.333333333333336
1224,-514.1333333333333,19.2,53.333333333333336
1225,-546.1333333333333,10.666666666666666,66.13333333333333
1226,-550.4,17.066666666666666,61.86666666666667
1227,-544.0,14.933333333333334,66.13333333333333
1228,-552.5333333333333,19.2,66.13333333333333
1229,-548.2666666666667,17.066666666666666,66.13333333333333
1230,-544.0,6.4,51.2
1231,-546.1333333333333,12.8,78.93333333333334
1232,-550.4,19.2,57.6
1233,-546.1333333333333,17.066666666666666,55.46666666666667
1234,-550.4,14.933333333333334,74.66666666666667
1235,-556.8,21.333333333333332,53.333333333333336
1236,-548.2666666666667,21.333333333333332,64.0
1237,-550.4,10.666666666666666,70.4
1238,-535.4666666666667,10.666666666666666,76.8
1239,-539.7333333333333,14.933333333333334,68.26666666666667
1240,-550.4,17.066666666666666,68.26666666666667
1241,-546.1333333333333,14.933333333333334,72.53333333333333
1242,-544.0,14.933333333333334,81.06666666666666
1243,-548.2666666666667,17.066666666666666,68.26666666666667
1244,-541.8666666666667,6.4,70.4
1245,-548.2666666666667,25.6,78.93333333333334
1246,-544.0,12.8,78.93333333333334
1247,-541.8666666666667,8.533333333333333,70.4
1248,-554.6666666666666,12.8,83.2
1249,-546.1333333333333,17.066666666666666,72.53333333333333
1250,-544.0,19.2,85.33333333333333
1251,-544.0,12.8,72.53333333333333
1252,-548.2666666666667,12.8,64.0
1253,-518.4,-14.933333333333334,64.0
1254,-548.2666666666667,17.066666666666666,78.93333333333334
1255,-544.0,10.666666666666666,66.13333333333333
1256,-548.2666666666667,17.066666666666666,68.26666666666667
1257,-544.0,17.066666666666666,68.26666666666667
1258,-544.0,14.933333333333334,64.0
1259,-546.1333333333333,14.933333333333334,70.4
1260,-550.4,17.066666666666666,76.8
1261,-544.0,12.8,76.8
1262,-535.4666666666667,17.066666666666666,78.93333333333334
1263,-546.1333333333333,2.1333333333333333,76.8
1264,-548.2666666666667,14.933333333333334,78.93333333333334
1265,-546.1333333333333,12.8,76.8
1266,-544.0,10.666666666666666,87.46666666666667
1267,-550.4,8.533333333333333,83.2
1268,-548.2666666666667,2.1333333333333333,76.8
1269,-544.0,8.533333333333333,81.06666666666666
1270,-546.1333333333333,8.533333333333333,78.93333333333334
1271,-546.1333333333333,14.933333333333334,68.26666666666667
1272,-563.2,10.666666666666666,102.4
1273,-544.0,8.533333333333333,78.93333333333334
1274,-544.0,4.266666666666667,78.93333333333334
1275,-537.6,4.266666666666667,81.06666666666666
1276,-541.8666666666667,8.533333333333333,76.8
1277,-541.8666666666667,12.8,76.8
1278,-533.3333333333334,8.533333333333333,81.06666666666666
1279,-541.8666666666667,17.066666666666666,81.06666666666666
1280,-541.8666666666667,8.533333333333333,81.06666666666666
1281,-539.7333333333333,8.533333333333333,74.66666666666667
1282,-548.2666666666667,14.933333333333334,83.2
1283,-546.1333333333333,14.933333333333334,76.8
1284,-546.1333333333333,12.8,74.66666666666667
1285,-546.1333333333333,12.8,76.8
1286,-544.0,12.8,76.8
1287,-546.1333333333333,12.8,76.8
1288,-546.1333333333333,10.666666666666666,78.93333333333334
1289,-544.0,10.666666666666666,76.8
1290,-546.1333333333333,14.933333333333334,83.2
1291,-533.3333333333334,2.1333333333333333,85.33333333333333
1292,-544.0,4.266666666666667,74.66666666666667
1293,-546.1333333333333,17.066666666666666,76.8
1294,-546.1333333333333,10.666666666666666,78.93333333333334
1295,-544.0,14.933333333333334,78.93333333333334
1296,-541.8666666666667,10.666666666666666,76.8
1297,-544.0,12.8,83.2
1298,-541.8666666666667,17.066666666666666,74.66666666666667
1299,-544.0,14.933333333333334,81.06666666666666
1300,-541.8666666666667,14.933333333333334,78.93333333333334
1301,-541.8666666666667,19.2,66.13333333333333
1302,-539.7333333333333,17.066666666666666,83.2
1303,-541.8666666666667,12.8,74.66666666666667
1304,-546.1333333333333,17.066666666666666,83.2
1305,-546.1333333333333,6.4,78.93333333333334
1306,-546.1333333333333,12.8,74.66666666666667
1307,-544.0,12.8,83.2
1308,-544.0,14.933333333333334,76.8
1309,-544.0,4.266666666666667,78.93333333333334
1310,-550.4,12.8,83.2
1311,-548.2666666666667,12.8,78.93333333333334
1312,-546.1333333333333,6.4,81.06666666666666
1313,-546.1333333333333,10.666666666666666,74.66666666666667
1314,-544.0,12.8,81.06666666666666
1315,-544.0,6.4,83.2
1316,-546.1333333333333,10.666666666666666,81.06666666666666
1317,-546.1333333333333,17.066666666666666,70.4
1318,-544.0,17.066666666666666,87.46666666666667
1319,-544.0,17.066666666666666,76.8
1320,-546.1333333333333,14.933333333333334,76.8
1321,-546.1333333333333,10.666666666666666,76.8
1322,-548.2666666666667,14.933333333333334,83.2
1323,-544.0,4.266666666666667,83.2
1324,-546.1333333333333,8.533333333333333,78.93333333333334
1325,-546.1333333333333,6.4,74.66666666666667
1326,-548.2666666666667,4.266666666666667,83.2
1327,-546.1333333333333,4.266666666666667,74.66666666666667
1328,-548.2666666666667,12.8,72.53333333333333
1329,-548.2666666666667,12.8,76.8
1330,-546.1333333333333,10.666666666666666,78.93333333333334
1331,-546.1333333333333,12.8,78.93333333333334
1332,-548.2666666666667,12.8,81.06666666666666
1333,-550.4,12.8,81.06666666666666
1334,-548.2666666666667,12.8,81.06666666666666
1335,-546.1333333333333,12.8,83.2
1336,-546.1333333333333,12.8,85.33333333333333
1337,-548.2666666666667,10.666666666666666,83.2
1338,-552.5333333333333,12.8,78.93333333333334
1339,-550.4,10.666666666666666,81.06666666666666
1340,-550.4,14.933333333333334,85.33333333333333
1341,-544.0,10.666666666666666,85.33333333333333
1342,-552.5333333333333,12.8,87.46666666666667
1343,-548.2666666666667,8.533333333333333,89.6
1344,-546.1333333333333,14.933333333333334,83.2
1345,-544.0,17.066666666666666,89.6
1346,-544.0,6.4,89.6
1347,-546.1333333333333,12.8,93.86666666666666
1348,-541.8666666666667,6.4,85.33333333333333
1349,-544.0,12.8,85.33333333333333
1350,-544.0,4.266666666666667,81.06666666666666
1351,-546.1333333333333,2.1333333333333333,89.6
1352,-537.6,2.1333333333333333,83.2
1353,-544.0,8.533333333333333,87.46666666666667
1354,-544.0,-4.266666666666667,76.8
1355,-541.8666666666667,6.4,78.93333333333334
1356,-541.8666666666667,-2.1333333333333333,81.06666666666666
1357,-541.8666666666667,4.266666666666667,78.93333333333334
1358,-546.1333333333333,12.8,83.2
1359,-533.3333333333334,14.933333333333334,76.8
1360,-544.0,10.666666666666666,83.2
1361,-541.8666666666667,10.666666666666666,81.06666666666666
1362,-546.1333333333333,12.8,85.33333333333333
1363,-550.4,10.666666666666666,83.2
1364,-544.0,14.933333333333334,78.93333333333334
1365,-541.8666666666667,14.933333333333334,83.2
1366,-546.1333333333333,8.533333333333333,78.93333333333334
1367,-544.0,6.4,81.06666666666666
1368,-546.1333333333333,0.0,83.2
1369,-546.1333333333333,4.266666666666667,83.2
1370,-541.8666666666667,2.1333333333333333,83.2
1371,-544.0,4.266666666666667,81.06666666666666
1372,-537.6,8.533333333333333,76.8
1373,-539.7333333333333,0.0,74.66666666666667
1374,-541.8666666666667,14.933333333333334,81.06666666666666
1375,-541.8666666666667,2.1333333333333333,83.2
1376,-544.0,10.666666666666666,87.46666666666667
1377,-537.6,-14.933333333333334,85.33333333333333
1378,-546.1333333333333,6.4,83.2
1379,-539.7333333333333,6.4,78.93333333333334
1380,-544.0,12.8,93.86666666666666
1381,-539.7333333333333,2.1333333333333333,87.46666666666667
1382,-537.6,-2.1333333333333333,87.46666666666667
1383,-544.0,-2.1333333333333333,78.93333333333334
1384,-541.8666666666667,4.266666666666667,83.2
1385,-541.8666666666667,8.533333333333333,81.06666666666666
1386,-546.1333333333333,8.533333333333333,85.33333333333333
1387,-544.0,17.066666666666666,74.66666666666667
1388,-544.0,8.533333333333333,87.46666666666667
1389,-548.2666666666667,10.666666666666666,74.66666666666667
1390,-546.1333333333333,10.666666666666666,76.8
1391,-546.1333333333333,10.666666666666666,81.06666666666666
1392,-546.1333333333333,14.933333333333334,83.2
1393,-544.0,10.666666666666666,85.33333333333333
1394,-544.0,17.066666666666666,89.6
1395,-541.8666666666667,8.533333333333333,85.33333333333333
1396,-544.0,14.933333333333334,78.93333333333334
1397,-544.0,6.4,76.8
1398,-548.2666666666667,10.666666666666666,76.8
1399,-544.0,10.666666666666666,76.8
1400,-544.0,0.0,78.93333333333334
1401,-546.1333333333333,4.266666666666667,87.46666666666667
1402,-539.7333333333333,4.266666666666667,78.93333333333334
1403,-544.0,6.4,81.06666666666666
1404,-544.0,0.0,85.33333333333333
1405,-546.1333333333333,0.0,85.33333333333333
1406,-544.0,0.0,87.46666666666667
1407,-546.1333333333333,2.1333333333333333,91.73333333333333
1408,-544.0,-2.1333333333333333,87.46666666666667
1409,-544.0,6.4,87.46666666666667
1410,-548.2666666666667,4.266666666666667,76.8
1411,-548.2666666666667,6.4,81.06666666666666
1412,-546.1333333333333,2.1333333333333333,81.06666666666666
1413,-544.0,6.4,83.2
1414,-541.8666666666667,8.533333333333333,81.06666666666666
1415,-537.6,0.0,78.93333333333334
1416,-541.8666666666667,6.4,78.93333333333334
1417,-537.6,0.0,78.93333333333334
1418,-550.4,17.066666666666666,76.8
1419,-550.4,12.8,81.06666666666666
1420,-552.5333333333333,12.8,81.06666666666666
1421,-546.1333333333333,6.4,83.2
1422,-546.1333333333333,6.4,83.2
1423,-546.1333333333333,-2.1333333333333333,78.93333333333334
1424,-546.1333333333333,6.4,78.93333333333334
1425,-546.1333333333333,8.533333333333333,76.8
1426,-546.1333333333333,2.1333333333333333,81.06666666666666
1427,-548.2666666666667,0.0,76.8
1428,-544.0,4.266666666666667,76.8
1429,-546.1333333333333,6.4,81.06666666666666
1430,-544.0,2.1333333333333333,76.8
1431,-546.1333333333333,8.533333333333333,72.53333333333333
1432,-548.2666666666667,6.4,74.66666666666667
1433,-544.0,8.533333333333333,83.2
1434,-544.0,6.4,78.93333333333334
1435,-548.2666666666667,6.4,81.06666666666666
1436,-541.8666666666667,4.266666666666667,81.06666666666666
1437,-544.0,0.0,93.86666666666666
1438,-546.1333333333333,12.8,72.53333333333333
1439,-544.0,12.8,93.86666666666666
1440,-544.0,10.666666666666666,78.93333333333334
1441,-529.0666666666666,0.0,81.06666666666666
1442,-541.8666666666667,4.266666666666667,81.06666666666666
1443,-546.1333333333333,6.4,89.6
1444,-544.0,6.4,87.46666666666667
1445,-539.7333333333333,-4.266666666666667,89.6
1446,-541.8666666666667,4.266666666666667,83.2
1447,-541.8666666666667,0.0,81.06666666666666
1448,-537.6,-2.1333333333333333,83.2
1449,-541.8666666666667,2.1333333333333333,78.93333333333334
1450,-546.1333333333333,4.266666666666667,78.93333333333334
1451,-539.7333333333333,-2.1333333333333333,81.06666666666666
1452,-544.0,4.266666666666667,83.2
1453,-539.7333333333333,-2.1333333333333333,81.06666666666666
1454,-546.1333333333333,8.533333333333333,76.8
1455,-546.1333333333333,4.266666666666667,87.46666666666667
1456,-548.2666666666667,8.533333333333333,76.8
1457,-546.1333333333333,6.4,81.06666666666666
1458,-546.1333333333333,10.666666666666666,83.2
1459,-546.1333333333333,8.533333333333333,85.33333333333333
1460,-541.8666666666667,10.666666666666666,89.6
1461,-546.1333333333333,8.533333333333333,85.33333333333333
1462,-544.0,8.533333333333333,78.93333333333334
1463,-544.0,12.8,61.86666666666667
1464,-548.2666666666667,8.533333333333333,78.93333333333334
1465,-546.1333333333333,2.1333333333333333,85.33333333333333
1466,-546.1333333333333,4.266666666666667,83.2
1467,-548.2666666666667,0.0,78.93333333333334
1468,-544.0,0.0,83.2
1469,-548.2666666666667,6.4,76.8
1470,-546.1333333333333,0.0,78.93333333333334
1471,-546.1333333333333,6.4,83.2
1472,-546.1333333333333,0.0,81.06666666666666
1473,-539.7333333333333,2.1333333333333333,83.2
1474,-544.0,6.4,83.2
1475,-548.2666666666667,8.533333333333333,81.06666666666666
1476,-548.2666666666667,6.4,87.46666666666667
1477,-548.2666666666667,6.4,85.33333333333333
1478,-546.1333333333333,12.8,83.2
1479,-544.0,6.4,85.33333333333333
1480,-548.2666666666667,4.266666666666667,85.33333333333333
1481,-541.8666666666667,4.266666666666667,78.93333333333334
1482,-546.1333333333333,2.1333333333333333,81.06666666666666
1483,-539.7333333333333,10.666666666666666,83.2
1484,-544.0,0.0,83.2
1485,-537.6,0.0,85.33333333333333
1486,-546.1333333333333,-2.1333333333333333,85.33333333333333
1487,-544.0,4.266666666666667,76.8
1488,-544.0,-4.266666666666667,85.33333333333333
1489,-544.0,-4.266666666666667,83.2
1490,-544.0,-4.266666666666667,83.2
1491,-544.0,0.0,83.2
1492,-548.2666666666667,-2.1333333333333333,89.6
1493,-546.1333333333333,2.1333333333333333,87.46666666666667
1494,-548.2666666666667,10.666666666666666,100.26666666666667
1495,-548.2666666666667,2.1333333333333333,78.93333333333334
1496,-548.2666666666667,8.533333333333333,85.33333333333333
1497,-546.1333333333333,0.0,76.8
1498,-548.2666666666667,6.4,87.46666666666667
1499,-546.1333333333333,0.0,81.06666666666666
1500,-554.6666666666666,14.933333333333334,78.93333333333334
1501,-548.2666666666667,2.1333333333333333,74.66666666666667
1502,-556.8,4.266666666666667,78.93333333333334
1503,-552.5333333333333,4.266666666666667,83.2
1504,-552.5333333333333,8.533333333333333,81.06666666666666
1505,-548.2666666666667,4.266666666666667,76.8
1506,-554.6666666666666,8.533333333333333,83.2
1507,-554.6666666666666,2.1333333333333333,85.33333333333333
1508,-558.9333333333333,4.266666666666667,76.8
1509,-556.8,0.0,85.33333333333333
1510,-554.6666666666666,0.0,85.33333333333333
1511,-556.8,0.0,83.2
1512,-556.8,-8.533333333333333,87.46666666666667
1513,-556.8,-4.266666666666667,81.06666666666666
1514,-554.6666666666666,-8.533333333333333,85.33333333333333
1515,-558.9333333333333,-2.1333333333333333,91.73333333333333
1516,-565.3333333333334,-10.666666666666666,85.33333333333333
1517,-565.3333333333334,-6.4,83.2
1518,-565.3333333333334,-8.533333333333333,89.6
1519,-563.2,-14.933333333333334,87.46666666666667
1520,-569.6,-14.933333333333334,83.2
1521,-556.8,-21.333333333333332,91.73333333333333
1522,-561.0666666666666,-17.066666666666666,85.33333333333333
1523,-563.2,-17.066666666666666,85.33333333333333
1524,-548.2666666666667,-23.466666666666665,85.33333333333333
1525,-548.2666666666667,-25.6,91.73333333333333
1526,-546.1333333333333,-27.733333333333334,93.86666666666666
1527,-541.8666666666667,-34.13333333333333,87.46666666666667
1528,-552.5333333333333,-23.466666666666665,93.86666666666666
1529,-552.5333333333333,-19.2,91.73333333333333
1530,-558.9333333333333,-14.933333333333334,81.06666666666666
1531,-558.9333333333333,-6.4,87.46666666666667
1532,-569.6,0.0,78.93333333333334
1533,-569.6,2.1333333333333333,81.06666666666666
1534,-576.0,6.4,83.2
1535,-576.0,12.8,85.33333333333333
1536,-578.1333333333333,6.4,87.46666666666667
1537,-573.8666666666667,12.8,87.46666666666667
1538,-569.6,17.066666666666666,85.33333333333333
1539,-565.3333333333334,21.333333333333332,85.33333333333333
1540,-558.9333333333333,19.2,87.46666666666667
1541,-556.8,19.2,91.73333333333333
1542,-550.4,12.8,98.13333333333333
1543,-546.1333333333333,17.066666666666666,93.86666666666666
1544,-546.1333333333333,12.8,102.4
1545,-541.8666666666667,10.666666666666666,104.53333333333333
1546,-531.2,2.1333333333333333,108.8
1547,-531.2,-4.266666666666667,108.8
1548,-524.8,-10.666666666666666,108.8
1549,-518.4,-17.066666666666666,102.4
1550,-518.4,-17.066666666666666,102.4
1551,-518.4,-19.2,102.4
1552,-520.5333333333333,-21.333333333333332,96.0
1553,-522.6666666666666,-17.066666666666666,104.53333333333333
1554,-518.4,-29.866666666666667,100.26666666666667
1555,-522.6666666666666,-19.2,96.0
1556,-520.5333333333333,-17.066666666666666,98.13333333333333
1557,-522.6666666666666,-17.066666666666666,100.26666666666667
1558,-516.2666666666667,-19.2,106.66666666666667
1559,-520.5333333333333,-12.8,100.26666666666667
1560,-509.8666666666667,-12.8,110.93333333333334
1561,-516.2666666666667,-8.533333333333333,113.06666666666666
1562,-516.2666666666667,-12.8,125.86666666666666
1563,-522.6666666666666,-10.666666666666666,130.13333333333333
1564,-524.8,-8.533333333333333,136.53333333333333
1565,-522.6666666666666,-12.8,138.66666666666666
1566,-531.2,-21.333333333333332,147.2
1567,-529.0666666666666,-25.6,147.2
1568,-524.8,-21.333333333333332,151.46666666666667
1569,-526.9333333333333,-23.466666666666665,155.73333333333332
1570,-522.6666666666666,-25.6,174.93333333333334
1571,-535.4666666666667,-19.2,155.73333333333332
1572,-535.4666666666667,-17.066666666666666,164.26666666666665
1573,-529.0666666666666,-23.466666666666665,168.53333333333333
1574,-529.0666666666666,-23.466666666666665,172.8
1575,-524.8,-23.466666666666665,181.33333333333334
1576,-516.2666666666667,-29.866666666666667,172.8
1577,-512.0,-21.333333333333332,179.2
1578,-499.2,-36.266666666666666,198.4
1579,-503.46666666666664,-38.4,187.73333333333332
1580,-499.2,-38.4,196.26666666666665
1581,-497.06666666666666,-40.53333333333333,198.4
1582,-490.6666666666667,-44.8,200.53333333333333
1583,-488.5333333333333,-49.06666666666666,204.8
1584,-486.4,-55.46666666666667,200.53333333333333
1585,-484.26666666666665,-51.2,213.33333333333334
1586,-482.1333333333333,-68.26666666666667,226.13333333333333
1587,-484.26666666666665,-61.86666666666667,232.53333333333333
1588,-488.5333333333333,-66.13333333333333,232.53333333333333
1589,-486.4,-61.86666666666667,238.93333333333334
1590,-486.4,-57.6,245.33333333333334
1591,-484.26666666666665,-59.733333333333334,251.73333333333332
1592,-492.8,-49.06666666666666,270.93333333333334
1593,-475.73333333333335,-46.93333333333333,253.86666666666667
1594,-473.59999999999997,-27.733333333333334,253.86666666666667
1595,-471.46666666666664,-21.333333333333332,249.6
1596,-456.5333333333333,-23.466666666666665,251.73333333333332
1597,-460.8,-17.066666666666666,253.86666666666667
1598,-460.8,-17.066666666666666,260.26666666666665
1599,-458.6666666666667,-8.533333333333333,258.1333333333333
1600,-462.93333333333334,-25.6,268.8
1601,-454.4,-29.866666666666667,270.93333333333334
1602,-454.4,-32.0,277.3333333333333
1603,-450.1333333333333,-44.8,281.6
1604,-454.4,-46.93333333333333,283.73333333333335
1605,-452.26666666666665,-53.333333333333336,296.5333333333333
1606,-445.8666666666667,-51.2,281.6
1607,-448.0,-59.733333333333334,277.3333333333333
1608,-454.4,-64.0,283.73333333333335
1609,-443.73333333333335,-55.46666666666667,281.6
1610,-439.46666666666664,-59.733333333333334,281.6
1611,-437.3333333333333,-64.0,290.1333333333333
1612,-443.73333333333335,-61.86666666666667,296.5333333333333
1613,-445.8666666666667,-46.93333333333333,296.5333333333333
1614,-450.1333333333333,-42.666666666666664,309.3333333333333
1615,-445.8666666666667,-38.4,315.73333333333335
1616,-441.59999999999997,-25.6,320.0
1617,-439.46666666666664,-17.066666666666666,320.0
1618,-439.46666666666664,-8.533333333333333,322.1333333333333
1619,-439.46666666666664,-2.1333333333333333,317.8666666666667
1620,-441.59999999999997,-4.266666666666667,332.8
1621,-430.93333333333334,-12.8,326.4
1622,-437.3333333333333,-17.066666666666666,330.6666666666667
1623,-428.8,-34.13333333333333,332.8
1624,-435.2,-36.266666666666666,317.8666666666667
1625,-435.2,-42.666666666666664,313.6
1626,-441.59999999999997,-55.46666666666667,307.2
1627,-435.2,-66.13333333333333,311.46666666666664
1628,-424.5333333333333,-72.53333333333333,315.73333333333335
1629,-416.0,-81.06666666666666,341.3333333333333
1630,-403.2,-102.4,352.0
1631,-405.3333333333333,-117.33333333333333,362.6666666666667
1632,-409.6,-113.06666666666666,360.5333333333333
1633,-420.26666666666665,-119.46666666666667,360.5333333333333
1634,-441.59999999999997,-113.06666666666666,354.1333333333333
1635,-439.46666666666664,-100.26666666666667,349.8666666666667
1636,-484.26666666666665,-85.33333333333333,332.8
1637,-488.5333333333333,-70.4,311.46666666666664
1638,-480.0,-53.333333333333336,288.0
1639,-467.2,-51.2,283.73333333333335
1640,-452.26666666666665,-46.93333333333333,288.0
1641,-426.6666666666667,-51.2,290.1333333333333
1642,-420.26666666666665,-51.2,294.4
1643,-411.73333333333335,-55.46666666666667,307.2
1644,-422.4,-49.06666666666666,305.06666666666666
1645,-422.4,-44.8,313.6
1646,-439.46666666666664,-32.0,315.73333333333335
1647,-448.0,-17.066666666666666,324.26666666666665
1648,-456.5333333333333,-6.4,337.06666666666666
1649,-462.93333333333334,4.266666666666667,354.1333333333333
1650,-458.6666666666667,4.266666666666667,369.06666666666666
1651,-456.5333333333333,4.266666666666667,373.3333333333333
1652,-452.26666666666665,-8.533333333333333,369.06666666666666
1653,-439.46666666666664,-25.6,354.1333333333333
1654,-433.06666666666666,-40.53333333333333,337.06666666666666
1655,-413.8666666666667,-57.6,322.1333333333333
1656,-398.93333333333334,-78.93333333333334,324.26666666666665
1657,-384.0,-89.6,317.8666666666667
1658,-390.4,-98.13333333333333,302.93333333333334
1659,-366.93333333333334,-98.13333333333333,288.0
1660,-369.06666666666666,-100.26666666666667,298.6666666666667
1661,-362.6666666666667,-104.53333333333333,328.5333333333333
1662,-366.93333333333334,-106.66666666666667,337.06666666666666
1663,-375.46666666666664,-96.0,343.46666666666664
1664,-373.3333333333333,-91.73333333333333,334.93333333333334
1665,-375.46666666666664,-85.33333333333333,334.93333333333334
1666,-381.8666666666667,-85.33333333333333,341.3333333333333
1667,-386.1333333333333,-78.93333333333334,343.46666666666664
1668,-384.0,-76.8,345.6
1669,-379.73333333333335,-68.26666666666667,360.5333333333333
1670,-390.4,-61.86666666666667,366.93333333333334
1671,-384.0,-68.26666666666667,375.46666666666664
1672,-386.1333333333333,-70.4,373.3333333333333
1673,-377.6,-74.66666666666667,364.8
1674,-369.06666666666666,-76.8,358.4
1675,-356.26666666666665,-87.46666666666667,347.73333333333335
1676,-345.6,-96.0,337.06666666666666
1677,-337.06666666666666,-102.4,343.46666666666664
1678,-320.0,-117.33333333333333,347.73333333333335
1679,-322.1333333333333,-117.33333333333333,356.26666666666665
1680,-334.93333333333334,-119.46666666666667,377.6
1681,-349.8666666666667,-125.86666666666666,379.73333333333335
1682,-352.0,-134.4,388.26666666666665
1683,-352.0,-138.66666666666666,394.6666666666667
1684,-354.1333333333333,-134.4,403.2
1685,-362.6666666666667,-130.13333333333333,396.8
1686,-354.1333333333333,-130.13333333333333,388.26666666666665
1687,-362.6666666666667,-123.73333333333333,394.6666666666667
1688,-354.1333333333333,-132.26666666666665,388.26666666666665
1689,-337.06666666666666,-134.4,405.3333333333333
1690,-332.8,-134.4,398.93333333333334
1691,-326.4,-136.53333333333333,396.8
1692,-320.0,-134.4,388.26666666666665
1693,-311.46666666666664,-140.8,386.1333333333333
1694,-302.93333333333334,-145.06666666666666,373.3333333333333
1695,-294.4,-142.93333333333334,379.73333333333335
1696,-292.26666666666665,-145.06666666666666,377.6
1697,-296.5333333333333,-145.06666666666666,390.4
1698,-294.4,-145.06666666666666,398.93333333333334
1699,-305.06666666666666,-140.8,422.4
1700,-313.6,-145.06666666666666,435.2
1701,-320.0,-136.53333333333333,445.8666666666667
1702,-339.2,-134.4,426.6666666666667
1703,-352.0,-142.93333333333334,422.4
1704,-352.0,-136.53333333333333,416.0
1705,-358.4,-145.06666666666666,411.73333333333335
1706,-366.93333333333334,-145.06666666666666,407.46666666666664
1707,-358.4,-147.2,398.93333333333334
1708,-358.4,-145.06666666666666,394.6666666666667
1709,-360.5333333333333,-140.8,396.8
1710,-347.73333333333335,-132.26666666666665,390.4
1711,-347.73333333333335,-121.6,405.3333333333333
1712,-341.3333333333333,-113.06666666666666,398.93333333333334
1713,-341.3333333333333,-89.6,394.6666666666667
1714,-339.2,-72.53333333333333,392.5333333333333
1715,-330.6666666666667,-51.2,390.4
1716,-324.26666666666665,-51.2,398.93333333333334
1717,-326.4,-66.13333333333333,403.2
1718,-326.4,-76.8,403.2
1719,-326.4,-89.6,407.46666666666664
1720,-307.2,-113.06666666666666,403.2
1721,-294.4,-121.6,398.93333333333334
1722,-279.46666666666664,-136.53333333333333,401.06666666666666
1723,-277.3333333333333,-128.0,401.06666666666666
1724,-268.8,-121.6,407.46666666666664
1725,-262.4,-119.46666666666667,424.5333333333333
1726,-262.4,-113.06666666666666,433.06666666666666
1727,-264.5333333333333,-110.93333333333334,443.73333333333335
1728,-264.5333333333333,-104.53333333333333,450.1333333333333
1729,-262.4,-93.86666666666666,441.59999999999997
1730,-256.0,-91.73333333333333,448.0
1731,-245.33333333333334,-93.86666666666666,443.73333333333335
1732,-238.93333333333334,-96.0,443.73333333333335
1733,-224.0,-93.86666666666666,441.59999999999997
1734,-217.6,-106.66666666666667,435.2
1735,-217.6,-115.2,441.59999999999997
1736,-204.8,-119.46666666666667,433.06666666666666
1737,-200.53333333333333,-121.6,433.06666666666666
1738,-194.13333333333333,-125.86666666666666,439.46666666666664
1739,-198.4,-121.6,443.73333333333335
1740,-198.4,-117.33333333333333,450.1333333333333
1741,-196.26666666666665,-110.93333333333334,454.4
1742,-200.53333333333333,-96.0,460.8
1743,-200.53333333333333,-100.26666666666667,460.8
1744,-196.26666666666665,-96.0,467.2
1745,-204.8,-87.46666666666667,458.6666666666667
1746,-200.53333333333333,-81.06666666666666,452.26666666666665
1747,-194.13333333333333,-96.0,458.6666666666667
1748,-189.86666666666667,-93.86666666666666,454.4
1749,-177.06666666666666,-98.13333333333333,456.5333333333333
1750,-164.26666666666665,-100.26666666666667,465.06666666666666
1751,-149.33333333333334,-93.86666666666666,469.3333333333333
1752,-136.53333333333333,-91.73333333333333,490.6666666666667
1753,-121.6,-87.46666666666667,490.6666666666667
1754,-96.0,-70.4,503.46666666666664
1755,-91.73333333333333,-53.333333333333336,505.59999999999997
1756,-78.93333333333334,-53.333333333333336,499.2
1757,-76.8,-46.93333333333333,484.26666666666665
1758,-81.06666666666666,-44.8,475.73333333333335
1759,-74.66666666666667,-51.2,475.73333333333335
1760,-85.33333333333333,-57.6,471.46666666666664
1761,-89.6,-66.13333333333333,467.2
1762,-98.13333333333333,-78.93333333333334,469.3333333333333
1763,-104.53333333333333,-98.13333333333333,477.8666666666667
1764,-115.2,-110.93333333333334,488.5333333333333
1765,-125.86666666666666,-119.46666666666667,494.93333333333334
1766,-130.13333333333333,-119.46666666666667,503.46666666666664
1767,-132.26666666666665,-142.93333333333334,509.8666666666667
1768,-134.4,-121.6,520.5333333333333
1769,-130.13333333333333,-115.2,524.8
1770,-119.46666666666667,-106.66666666666667,537.6
1771,-100.26666666666667,-96.0,539.7333333333333
1772,-81.06666666666666,-76.8,537.6
1773,-51.2,-70.4,537.6
1774,-42.666666666666664,-66.13333333333333,526.9333333333333
1775,-29.866666666666667,-61.86666666666667,524.8
1776,-23.466666666666665,-53.333333333333336,522.6666666666666
1777,-23.466666666666665,-61.86666666666667,518.4
1778,-14.933333333333334,-68.26666666666667,524.8
1779,-2.1333333333333333,-74.66666666666667,529.0666666666666
1780,0.0,-81.06666666666666,529.0666666666666
1781,4.266666666666667,-89.6,535.4666666666667
1782,4.266666666666667,-98.13333333333333,541.8666666666667
1783,8.533333333333333,-102.4,544.0
1784,4.266666666666667,-104.53333333333333,533.3333333333334
1785,0.0,-106.66666666666667,537.6
1786,2.1333333333333333,-106.66666666666667,531.2
1787,0.0,-108.8,537.6
1788,0.0,-110.93333333333334,526.9333333333333
1789,-4.266666666666667,-119.46666666666667,550.4
1790,-12.8,-119.46666666666667,552.5333333333333
1791,-14.933333333333334,-125.86666666666666,567.4666666666667
1792,-29.866666666666667,-138.66666666666666,561.0666666666666
1793,-29.866666666666667,-142.93333333333334,556.8
1794,-38.4,-147.2,539.7333333333333
1795,-36.266666666666666,-140.8,550.4
1796,-36.266666666666666,-151.46666666666667,541.8666666666667
1797,-36.266666666666666,-151.46666666666667,541.8666666666667
1798,-34.13333333333333,-149.33333333333334,535.4666666666667
1799,-34.13333333333333,-145.06666666666666,544.0
1800,-32.0,-151.46666666666667,546.1333333333333
1801,-27.733333333333334,-151.46666666666667,533.3333333333334
1802,-29.866666666666667,-164.26666666666665,541.8666666666667
1803,-29.866666666666667,-157.86666666666667,537.6
1804,-32.0,-164.26666666666665,537.6
1805,-42.666666666666664,-166.4,546.1333333333333
1806,-61.86666666666667,-166.4,548.2666666666667
1807,-68.26666666666667,-164.26666666666665,550.4
1808,-98.13333333333333,-151.46666666666667,546.1333333333333
1809,-113.06666666666666,-149.33333333333334,531.2
1810,-134.4,-145.06666666666666,512.0
1811,-140.8,-134.4,501.3333333333333
1812,-149.33333333333334,-119.46666666666667,482.1333333333333
1813,-155.73333333333332,-110.93333333333334,469.3333333333333
1814,-149.33333333333334,-100.26666666666667,467.2
1815,-147.2,-91.73333333333333,469.3333333333333
1816,-134.4,-89.6,462.93333333333334
1817,-125.86666666666666,-85.33333333333333,482.1333333333333
1818,-108.8,-83.2,486.4
1819,-91.73333333333333,-87.46666666666667,486.4
1820,-68.26666666666667,-98.13333333333333,494.93333333333334
1821,-51.2,-106.66666666666667,490.6666666666667
1822,-32.0,-113.06666666666666,494.93333333333334
1823,-10.666666666666666,-117.33333333333333,494.93333333333334
1824,10.666666666666666,-121.6,499.2
1825,38.4,-130.13333333333333,507.73333333333335
1826,59.733333333333334,-132.26666666666665,505.59999999999997
1827,74.66666666666667,-128.0,516.2666666666667
1828,87.46666666666667,-123.73333333333333,518.4
1829,96.0,-125.86666666666666,516.2666666666667
1830,96.0,-121.6,518.4
1831,98.13333333333333,-117.33333333333333,503.46666666666664
1832,110.93333333333334,-104.53333333333333,494.93333333333334
1833,96.0,-83.2,480.0
1834,96.0,-68.26666666666667,486.4
1835,102.4,-64.0,484.26666666666665
1836,96.0,-51.2,494.93333333333334
1837,93.86666666666666,-44.8,497.06666666666666
1838,106.66666666666667,-36.266666666666666,497.06666666666666
1839,110.93333333333334,-36.266666666666666,501.3333333333333
1840,121.6,-40.53333333333333,494.93333333333334
1841,132.26666666666665,-40.53333333333333,499.2
1842,138.66666666666666,-51.2,509.8666666666667
1843,138.66666666666666,-55.46666666666667,512.0
1844,125.86666666666666,-72.53333333333333,516.2666666666667
1845,115.2,-93.86666666666666,518.4
1846,87.46666666666667,-102.4,505.59999999999997
1847,72.53333333333333,-125.86666666666666,492.8
1848,53.333333333333336,-128.0,473.59999999999997
1849,42.666666666666664,-136.53333333333333,452.26666666666665
1850,36.266666666666666,-132.26666666666665,428.8
1851,38.4,-125.86666666666666,409.6
1852,46.93333333333333,-113.06666666666666,413.8666666666667
1853,61.86666666666667,-93.86666666666666,403.2
1854,68.26666666666667,-78.93333333333334,401.06666666666666
1855,76.8,-59.733333333333334,401.06666666666666
1856,100.26666666666667,-44.8,420.26666666666665
1857,119.46666666666667,-23.466666666666665,416.0
1858,130.13333333333333,-19.2,424.5333333333333
1859,142.93333333333334,-10.666666666666666,428.8
1860,162.13333333333333,2.1333333333333333,437.3333333333333
1861,168.53333333333333,4.266666666666667,443.73333333333335
1862,168.53333333333333,4.266666666666667,454.4
1863,164.26666666666665,0.0,452.26666666666665
1864,142.93333333333334,-6.4,450.1333333333333
1865,128.0,-8.533333333333333,456.5333333333333
1866,104.53333333333333,-21.333333333333332,454.4
1867,76.8,-32.0,450.1333333333333
1868,53.333333333333336,-40.53333333333333,456.5333333333333
1869,25.6,-46.93333333333333,467.2
1870,0.0,-59.733333333333334,458.6666666666667
1871,-14.933333333333334,-74.66666666666667,471.46666666666664
1872,-34.13333333333333,-89.6,484.26666666666665
1873,-51.2,-89.6,486.4
1874,-46.93333333333333,-108.8,482.1333333333333
1875,-34.13333333333333,-100.26666666666667,482.1333333333333
1876,-42.666666666666664,-117.33333333333333,488.5333333333333
1877,-44.8,-115.2,499.2
1878,-29.866666666666667,-119.46666666666667,509.8666666666667
1879,-14.933333333333334,-123.73333333333333,524.8
1880,-8.533333333333333,-119.46666666666667,548.2666666666667
1881,0.0,-130.13333333333333,582.4
1882,17.066666666666666,-136.53333333333333,631.4666666666667
1883,17.066666666666666,-145.06666666666666,667.7333333333333
1884,29.866666666666667,-160.0,714.6666666666666
1885,40.53333333333333,-177.06666666666666,736.0
1886,57.6,-200.53333333333333,731.7333333333333
1887,72.53333333333333,-211.2,721.0666666666666
1888,87.46666666666667,-226.13333333333333,691.2
1889,78.93333333333334,-219.73333333333332,672.0
1890,74.66666666666667,-202.66666666666666,652.8
1891,49.06666666666666,-177.06666666666666,635.7333333333333
1892,34.13333333333333,-147.2,605.8666666666667
1893,23.466666666666665,-119.46666666666667,554.6666666666666
1894,10.666666666666666,-85.33333333333333,497.06666666666666
1895,4.266666666666667,-36.266666666666666,448.0
1896,12.8,10.666666666666666,386.1333333333333
1897,2.1333333333333333,57.6,366.93333333333334
1898,10.666666666666666,91.73333333333333,347.73333333333335
1899,12.8,93.86666666666666,360.5333333333333
1900,6.4,91.73333333333333,375.46666666666664
1901,-8.533333333333333,61.86666666666667,413.8666666666667
1902,-12.8,19.2,454.4
1903,-32.0,-42.666666666666664,501.3333333333333
1904,-42.666666666666664,-106.66666666666667,529.0666666666666
1905,-53.333333333333336,-168.53333333333333,561.0666666666666
1906,-55.46666666666667,-211.2,573.8666666666667
1907,-53.333333333333336,-238.93333333333334,580.2666666666667
1908,-55.46666666666667,-249.6,586.6666666666666
1909,-55.46666666666667,-241.06666666666666,582.4
1910,-59.733333333333334,-211.2,556.8
1911,-55.46666666666667,-168.53333333333333,539.7333333333333
1912,-53.333333333333336,-136.53333333333333,520.5333333333333
1913,-42.666666666666664,-98.13333333333333,507.73333333333335
1914,-40.53333333333333,-64.0,497.06666666666666
1915,-34.13333333333333,-40.53333333333333,499.2
1916,-32.0,-23.466666666666665,501.3333333333333
1917,-32.0,-19.2,505.59999999999997
1918,-21.333333333333332,-32.0,505.59999999999997
1919,-19.2,-51.2,520.5333333333333
1920,-21.333333333333332,-64.0,526.9333333333333
1921,-21.333333333333332,-85.33333333333333,529.0666666666666
1922,-19.2,-100.26666666666667,531.2
1923,-19.2,-117.33333333333333,531.2
1924,-12.8,-128.0,512.0
1925,-14.933333333333334,-138.66666666666666,505.59999999999997
1926,-10.666666666666666,-145.06666666666666,494.93333333333334
1927,-12.8,-145.06666666666666,486.4
1928,-8.533333333333333,-149.33333333333334,473.59999999999997
1929,-12.8,-145.06666666666666,480.0
1930,-19.2,-149.33333333333334,480.0
1931,-21.333333333333332,-147.2,482.1333333333333
1932,-29.866666666666667,-147.2,482.1333333333333
1933,-27.733333333333334,-151.46666666666667,492.8
1934,-38.4,-142.93333333333334,492.8
1935,-57.6,-138.66666666666666,501.3333333333333
1936,-57.6,-134.4,497.06666666666666
1937,-59.733333333333334,-138.66666666666666,499.2
1938,-72.53333333333333,-130.13333333333333,509.8666666666667
1939,-76.8,-121.6,514.1333333333333
1940,-78.93333333333334,-121.6,512.0
1941,-78.93333333333334,-119.46666666666667,518.4
1942,-76.8,-115.2,509.8666666666667
1943,-78.93333333333334,-106.66666666666667,520.5333333333333
1944,-72.53333333333333,-110.93333333333334,524.8
1945,-61.86666666666667,-102.4,524.8
1946,-68.26666666666667,-83.2,533.3333333333334
1947,-68.26666666666667,-89.6,522.6666666666666
1948,-72.53333333333333,-78.93333333333334,524.8
1949,-72.53333333333333,-85.33333333333333,512.0
1950,-78.93333333333334,-81.06666666666666,509.8666666666667
1951,-74.66666666666667,-78.93333333333334,503.46666666666664
1952,-76.8,-83.2,507.73333333333335
1953,-81.06666666666666,-91.73333333333333,501.3333333333333
1954,-72.53333333333333,-100.26666666666667,499.2
1955,-70.4,-110.93333333333334,512.0
1956,-72.53333333333333,-123.73333333333333,514.1333333333333
1957,-66.13333333333333,-121.6,531.2
1958,-64.0,-130.13333333333333,529.0666666666666
1959,-70.4,-125.86666666666666,524.8
1960,-61.86666666666667,-123.73333333333333,535.4666666666667
1961,-68.26666666666667,-117.33333333333333,526.9333333333333
1962,-64.0,-134.4,531.2
1963,-61.86666666666667,-121.6,512.0
1964,-64.0,-113.06666666666666,516.2666666666667
1965,-66.13333333333333,-104.53333333333333,509.8666666666667
1966,-70.4,-106.66666666666667,503.46666666666664
1967,-66.13333333333333,-98.13333333333333,501.3333333333333
1968,-55.46666666666667,-106.66666666666667,503.46666666666664
1969,-46.93333333333333,-100.26666666666667,520.5333333333333
1970,-38.4,-100.26666666666667,516.2666666666667
1971,-27.733333333333334,-102.4,514.1333333333333
1972,-21.333333333333332,-96.0,516.2666666666667
1973,-8.533333333333333,-91.73333333333333,509.8666666666667
1974,0.0,-98.13333333333333,503.46666666666664
1975,2.1333333333333333,-89.6,488.5333333333333
1976,4.266666666666667,-85.33333333333333,486.4
1977,12.8,-74.66666666666667,486.4
1978,17.066666666666666,-81.06666666666666,488.5333333333333
1979,10.666666666666666,-74.66666666666667,494.93333333333334
1980,19.2,-81.06666666666666,499.2
1981,12.8,-81.06666666666666,512.0
1982,8.533333333333333,-89.6,516.2666666666667
1983,10.666666666666666,-96.0,529.0666666666666
1984,2.1333333333333333,-93.86666666666666,539.7333333333333
1985,-14.933333333333334,-89.6,529.0666666666666
1986,-21.333333333333332,-96.0,533.3333333333334
1987,-34.13333333333333,-98.13333333333333,529.0666666666666
1988,-42.666666666666664,-93.86666666666666,520.5333333333333
1989,-44.8,-89.6,507.73333333333335
1990,-44.8,-93.86666666666666,505.59999999999997
1991,-36.266666666666666,-102.4,505.59999999999997
1992,-25.6,-119.46666666666667,501.3333333333333
1993,-21.333333333333332,-121.6,501.3333333333333
1994,-25.6,-134.4,501.3333333333333
1995,-12.8,-140.8,514.1333333333333
1996,-17.066666666666666,-132.26666666666665,509.8666666666667
1997,-6.4,-130.13333333333333,512.0
1998,0.0,-125.86666666666666,497.06666666666666
1999,2.1333333333333333,-119.46666666666667,490.6666666666667
2000,2.1333333333333333,-98.13333333333333,492.8
2001,4.266666666666667,-89.6,501.3333333333333
2002,0.0,-59.733333333333334,507.73333333333335
2003,-8.533333333333333,-55.46666666666667,505.59999999999997
2004,-19.2,-49.06666666666666,518.4
2005,-40.53333333333333,-49.06666666666666,516.2666666666667
2006,-44.8,-59.733333333333334,518.4
2007,-64.0,-74.66666666666667,514.1333333333333
2008,-83.2,-102.4,518.4
2009,-89.6,-119.46666666666667,516.2666666666667
2010,-102.4,-125.86666666666666,507.73333333333335
2011,-104.53333333333333,-132.26666666666665,499.2
2012,-108.8,-125.86666666666666,494.93333333333334
2013,-113.06666666666666,-130.13333333333333,486.4
2014,-115.2,-121.6,492.8
2015,-108.8,-121.6,497.06666666666666
2016,-104.53333333333333,-119.46666666666667,499.2
2017,-93.86666666666666,-110.93333333333334,503.46666666666664
2018,-89.6,-106.66666666666667,507.73333333333335
2019,-78.93333333333334,-110.93333333333334,512.0
2020,-74.66666666666667,-104.53333333333333,524.8
2021,-51.2,-102.4,522.6666666666666
2022,-42.666666666666664,-98.13333333333333,524.8
2023,-29.866666666666667,-106.66666666666667,516.2666666666667
2024,-27.733333333333334,-104.53333333333333,516.2666666666667
2025,-27.733333333333334,-104.53333333333333,509.8666666666667
2026,-21.333333333333332,-113.06666666666666,512.0
2027,-21.333333333333332,-113.06666666666666,507.73333333333335
2028,-29.866666666666667,-123.73333333333333,505.59999999999997
2029,-12.8,-121.6,512.0
2030,-8.533333333333333,-128.0,505.59999999999997
2031,-17.066666666666666,-125.86666666666666,505.59999999999997
2032,-6.4,-123.73333333333333,514.1333333333333
2033,-10.666666666666666,-132.26666666666665,514.1333333333333
2034,-10.666666666666666,-130.13333333333333,505.59999999999997
2035,-14.933333333333334,-125.86666666666666,507.73333333333335
2036,-10.666666666666666,-125.86666666666666,505.59999999999997
2037,-14.933333333333334,-119.46666666666667,505.59999999999997
2038,-8.533333333333333,-121.6,507.73333333333335
2039,-19.2,-117.33333333333333,503.46666666666664
2040,-12.8,-110.93333333333334,497.06666666666666
2041,-6.4,-117.33333333333333,499.2
2042,-4.266666666666667,-110.93333333333334,503.46666666666664
2043,-10.666666666666666,-108.8,505.59999999999997
2044,-12.8,-104.53333333333333,505.59999999999997
2045,-8.533333333333333,-108.8,505.59999999999997
2046,0.0,-110.93333333333334,509.8666666666667
2047,-6.4,-108.8,507.73333333333335
2048,-6.4,-104.53333333333333,514.1333333333333
2049,-2.1333333333333333,-108.8,516.2666666666667
2050,0.0,-113.06666666666666,514.1333333333333
2051,0.0,-104.53333333333333,520.5333333333333
2052,0.0,-108.8,505.59999999999997
2053,2.1333333333333333,-102.4,505.59999999999997
2054,0.0,-108.8,503.46666666666664
2055,4.266666666666667,-108.8,505.59999999999997
2056,2.1333333333333333,-106.66666666666667,499.2
2057,4.266666666666667,-113.06666666666666,507.73333333333335
2058,10.666666666666666,-102.4,503.46666666666664
2059,21.333333333333332,-110.93333333333334,503.46666666666664
2060,29.866666666666667,-115.2,512.0
2061,44.8,-115.2,518.4
2062,44.8,-115.2,524.8
2063,57.6,-117.33333333333333,514.1333333333333
2064,59.733333333333334,-113.06666666666666,512.0
2065,59.733333333333334,-102.4,507.73333333333335
2066,64.0,-98.13333333333333,501.3333333333333
2067,64.0,-93.86666666666666,494.93333333333334
2068,72.53333333333333,-93.86666666666666,501.3333333333333
2069,61.86666666666667,-93.86666666666666,501.3333333333333
2070,57.6,-93.86666666666666,505.59999999999997
2071,53.333333333333336,-108.8,512.0
2072,51.2,-110.93333333333334,509.8666666666667
2073,49.06666666666666,-117.33333333333333,514.1333333333333
2074,53.333333333333336,-115.2,505.59999999999997
2075,44.8,-115.2,520.5333333333333
2076,44.8,-115.2,514.1333333333333
2077,38.4,-117.33333333333333,516.2666666666667
2078,40.53333333333333,-119.46666666666667,507.73333333333335
2079,42.666666666666664,-113.06666666666666,505.59999999999997
2080,36.266666666666666,-110.93333333333334,505.59999999999997
2081,36.266666666666666,-110.93333333333334,507.73333333333335
2082,27.733333333333334,-104.53333333333333,503.46666666666664
2083,27.733333333333334,-104.53333333333333,501.3333333333333
2084,36.266666666666666,-108.8,501.3333333333333
2085,29.866666666666667,-104.53333333333333,505.59999999999997
2086,32.0,-98.13333333333333,512.0
2087,27.733333333333334,-106.66666666666667,501.3333333333333
2088,34.13333333333333,-98.13333333333333,505.59999999999997
2089,34.13333333333333,-93.86666666666666,503.46666666666664
2090,42.666666666666664,-89.6,512.0
2091,42.666666666666664,-93.86666666666666,501.3333333333333
2092,40.53333333333333,-98.13333333333333,501.3333333333333
2093,51.2,-78.93333333333334,497.06666666666666
2094,44.8,-93.86666666666666,490.6666666666667
2095,36.266666666666666,-100.26666666666667,492.8
2096,36.266666666666666,-100.26666666666667,492.8
2097,27.733333333333334,-113.06666666666666,499.2
2098,25.6,-110.93333333333334,499.2
2099,23.466666666666665,-110.93333333333334,505.59999999999997
2100,23.466666666666665,-115.2,512.0
2101,17.066666666666666,-113.06666666666666,514.1333333333333
2102,14.933333333333334,-108.8,509.8666666666667
2103,17.066666666666666,-104.53333333333333,509.8666666666667
2104,23.466666666666665,-106.66666666666667,514.1333333333333
2105,17.066666666666666,-96.0,507.73333333333335
2106,27.733333333333334,-100.26666666666667,514.1333333333333
2107,27.733333333333334,-91.73333333333333,512.0
2108,23.466666666666665,-96.0,509.8666666666667
2109,27.733333333333334,-96.0,512.0
2110,27.733333333333334,-98.13333333333333,516.2666666666667
2111,17.066666666666666,-91.73333333333333,509.8666666666667
2112,19.2,-89.6,512.0
2113,14.933333333333334,-87.46666666666667,512.0
2114,8.533333333333333,-85.33333333333333,505.59999999999997
2115,10.666666666666666,-83.2,505.59999999999997
2116,12.8,-74.66666666666667,501.3333333333333
2117,8.533333333333333,-74.66666666666667,501.3333333333333
2118,10.666666666666666,-85.33333333333333,507.73333333333335
2119,6.4,-87.46666666666667,516.2666666666667
2120,2.1333333333333333,-89.6,518.4
2121,6.4,-91.73333333333333,516.2666666666667
2122,0.0,-93.86666666666666,518.4
2123,6.4,-93.86666666666666,514.1333333333333
2124,6.4,-91.73333333333333,520.5333333333333
2125,8.533333333333333,-83.2,509.8666666666667
2126,4.266666666666667,-78.93333333333334,505.59999999999997
2127,2.1333333333333333,-83.2,509.8666666666667
2128,0.0,-76.8,512.0
2129,0.0,-74.66666666666667,514.1333333333333
2130,0.0,-81.06666666666666,514.1333333333333
2131,-6.4,-81.06666666666666,514.1333333333333
2132,-4.266666666666667,-81.06666666666666,503.46666666666664
2133,-10.666666666666666,-81.06666666666666,509.8666666666667
2134,-4.266666666666667,-85.33333333333333,516.2666666666667
2135,-2.1333333333333333,-76.8,505.59999999999997
2136,-2.1333333333333333,-93.86666666666666,507.73333333333335
2137,0.0,-91.73333333333333,507.73333333333335
2138,0.0,-98.13333333333333,518.4
2139,2.1333333333333333,-93.86666666666666,526.9333333333333
2140,-8.533333333333333,-91.73333333333333,531.2
2141,-2.1333333333333333,-85.33333333333333,529.0666666666666
2142,-12.8,-78.93333333333334,524.8
2143,-6.4,-68.26666666666667,518.4
2144,-8.533333333333333,-61.86666666666667,524.8
2145,-10.666666666666666,-46.93333333333333,512.0
2146,-14.933333333333334,-51.2,520.5333333333333
2147,-14.933333333333334,-53.333333333333336,514.1333333333333
2148,-12.8,-57.6,516.2666666666667
2149,-12.8,-55.46666666666667,512.0
2150,-10.666666666666666,-70.4,524.8
2151,-6.4,-76.8,518.4
2152,0.0,-89.6,516.2666666666667
2153,0.0,-98.13333333333333,514.1333333333333
2154,-6.4,-96.0,514.1333333333333
2155,6.4,-96.0,512.0
2156,6.4,-96.0,514.1333333333333
2157,8.533333333333333,-93.86666666666666,509.8666666666667
2158,6.4,-91.73333333333333,518.4
2159,10.666666666666666,-83.2,524.8
2160,10.666666666666666,-81.06666666666666,520.5333333333333
2161,4.266666666666667,-78.93333333333334,520.5333333333333
2162,8.533333333333333,-72.53333333333333,522.6666666666666
2163,2.1333333333333333,-66.13333333333333,531.2
2164,4.266666666666667,-70.4,520.5333333333333
2165,-6.4,-59.733333333333334,520.5333333333333
2166,-4.266666666666667,-61.86666666666667,520.5333333333333
2167,-12.8,-55.46666666666667,518.4
2168,-10.666666666666666,-57.6,509.8666666666667
2169,-23.466666666666665,-59.733333333333334,514.1333333333333
2170,-25.6,-64.0,516.2666666666667
2171,-25.6,-70.4,516.2666666666667
2172,-32.0,-68.26666666666667,507.73333333333335
2173,-29.866666666666667,-78.93333333333334,509.8666666666667
2174,-25.6,-76.8,507.73333333333335
2175,-6.4,-87.46666666666667,505.59999999999997
2176,-6.4,-91.73333333333333,507.73333333333335
2177,0.0,-87.46666666666667,501.3333333333333
2178,12.8,-96.0,505.59999999999997
2179,10.666666666666666,-87.46666666666667,509.8666666666667
2180,17.066666666666666,-83.2,503.46666666666664
2181,25.6,-87.46666666666667,505.59999999999997
2182,19.2,-81.06666666666666,507.73333333333335
2183,23.466666666666665,-83.2,518.4
2184,12.8,-81.06666666666666,507.73333333333335
2185,19.2,-78.93333333333334,516.2666666666667
2186,6.4,-78.93333333333334,520.5333333333333
2187,4.266666666666667,-74.66666666666667,512.0
2188,2.1333333333333333,-68.26666666666667,514.1333333333333
2189,2.1333333333333333,-70.4,509.8666666666667
2190,0.0,-64.0,509.8666666666667
2191,-2.1333333333333333,-61.86666666666667,512.0
2192,0.0,-55.46666666666667,514.1333333333333
2193,-6.4,-51.2,514.1333333333333
2194,0.0,-55.46666666666667,516.2666666666667
2195,0.0,-53.333333333333336,512.0
2196,2.1333333333333333,-53.333333333333336,516.2666666666667
2197,4.266666666666667,-59.733333333333334,516.2666666666667
2198,4.266666666666667,-57.6,520.5333333333333
2199,6.4,-57.6,520.5333333333333
2200,10.666666666666666,-70.4,518.4
2201,14.933333333333334,-70.4,520.5333333333333
2202,21.333333333333332,-70.4,531.2
2203,14.933333333333334,-68.26666666666667,516.2666666666667
2204,23.466666666666665,-70.4,516.2666666666667
2205,27.733333333333334,-76.8,509.8666666666667
2206,25.6,-76.8,514.1333333333333
2207,27.733333333333334,-78.93333333333334,507.73333333333335
2208,25.6,-72.53333333333333,512.0
2209,34.13333333333333,-70.4,509.8666666666667
2210,29.866666666666667,-74.66666666666667,514.1333333333333
2211,27.733333333333334,-68.26666666666667,507.73333333333335
2212,27.733333333333334,-74.66666666666667,509.8666666666667
2213,32.0,-66.13333333333333,518.4
2214,27.733333333333334,-61.86666666666667,512.0
2215,27.733333333333334,-59.733333333333334,512.0
2216,25.6,-64.0,512.0
2217,17.066666666666666,-57.6,518.4
2218,27.733333333333334,-64.0,520.5333333333333
2219,29.866666666666667,-64.0,516.2666666666667
2220,32.0,-57.6,520.5333333333333
2221,34.13333333333333,-57.6,518.4
2222,38.4,-59.733333333333334,518.4
2223,29.866666666666667,-66.13333333333333,514.1333333333333
2224,38.4,-64.0,516.2666666666667
2225,34.13333333333333,-59.733333333333334,520.5333333333333
2226,36.266666666666666,-61.86666666666667,524.8
2227,42.666666666666664,-59.733333333333334,524.8
2228,34.13333333333333,-57.6,518.4
2229,25.6,-53.333333333333336,529.0666666666666
2230,25.6,-57.6,526.9333333333333
2231,21.333333333333332,-64.0,531.2
2232,12.8,-55.46666666666667,539.7333333333333
2233,6.4,-61.86666666666667,531.2
2234,2.1333333333333333,-55.46666666666667,541.8666666666667
2235,4.266666666666667,-57.6,541.8666666666667
2236,-6.4,-68.26666666666667,544.0
2237,-2.1333333333333333,-64.0,544.0
2238,-12.8,-61.86666666666667,535.4666666666667
2239,0.0,-64.0,539.7333333333333
2240,4.266666666666667,-64.0,520.5333333333333
2241,8.533333333333333,-66.13333333333333,520.5333333333333
2242,19.2,-68.26666666666667,518.4
2243,25.6,-74.66666666666667,518.4
2244,25.6,-78.93333333333334,512.0
2245,29.866666666666667,-85.33333333333333,509.8666666666667
2246,27.733333333333334,-89.6,507.73333333333335
2247,34.13333333333333,-93.86666666666666,509.8666666666667
2248,27.733333333333334,-98.13333333333333,505.59999999999997
2249,21.333333333333332,-102.4,507.73333333333335
2250,21.333333333333332,-104.53333333333333,499.2
2251,19.2,-106.66666666666667,499.2
2252,17.066666666666666,-87.46666666666667,501.3333333333333
2253,14.933333333333334,-96.0,499.2
2254,23.466666666666665,-89.6,497.06666666666666
2255,8.533333333333333,-76.8,484.26666666666665
2256,14.933333333333334,-83.2,505.59999999999997
2257,17.066666666666666,-78.93333333333334,503.46666666666664
2258,14.933333333333334,-72.53333333333333,507.73333333333335
2259,12.8,-70.4,505.59999999999997
2260,14.933333333333334,-72.53333333333333,509.8666666666667
2261,10.666666666666666,-64.0,512.0
2262,6.4,-61.86666666666667,509.8666666666667
2263,10.666666666666666,-72.53333333333333,512.0
2264,8.533333333333333,-70.4,505.59999999999997
2265,12.8,-70.4,518.4
2266,8.533333333333333,-70.4,514.1333333333333
2267,21.333333333333332,-78.93333333333334,524.8
2268,19.2,-74.66666666666667,514.1333333333333
2269,21.333333333333332,-81.06666666666666,514.1333333333333
2270,27.733333333333334,-83.2,505.59999999999997
2271,27.733333333333334,-85.33333333333333,507.73333333333335
2272,32.0,-87.46666666666667,507.73333333333335
2273,36.266666666666666,-85.33333333333333,509.8666666666667
2274,34.13333333333333,-85.33333333333333,507.73333333333335
2275,38.4,-91.73333333333333,503.46666666666664
2276,36.266666666666666,-89.6,505.59999999999997
2277,32.0,-89.6,505.59999999999997
2278,25.6,-78.93333333333334,503.46666666666664
2279,25.6,-85.33333333333333,516.2666666666667
2280,32.0,-85.33333333333333,512.0
2281,29.866666666666667,-91.73333333333333,516.2666666666667
2282,29.866666666666667,-81.06666666666666,516.2666666666667
2283,25.6,-81.06666666666666,509.8666666666667
2284,27.733333333333334,-78.93333333333334,509.8666666666667
2285,23.466666666666665,-81.06666666666666,514.1333333333333
2286,25.6,-76.8,509.8666666666667
2287,27.733333333333334,-74.66666666666667,507.73333333333335
2288,25.6,-76.8,507.73333333333335
2289,27.733333333333334,-72.53333333333333,501.3333333333333
2290,29.866666666666667,-72.53333333333333,509.8666666666667
2291,32.0,-68.26666666666667,505.59999999999997
2292,29.866666666666667,-72.53333333333333,505.59999999999997
2293,34.13333333333333,-74.66666666666667,509.8666666666667
2294,29.866666666666667,-70.4,509.8666666666667
2295,27.733333333333334,-72.53333333333333,512.0
2296,32.0,-74.66666666666667,516.2666666666667
2297,27.733333333333334,-70.4,509.8666666666667
2298,25.6,-70.4,522.6666666666666
2299,32.0,-68.26666666666667,524.8
2300,27.733333333333334,-74.66666666666667,509.8666666666667
2301,27.733333333333334,-68.26666666666667,520.5333333333333
2302,19.2,-70.4,516.2666666666667
2303,19.2,-70.4,514.1333333333333
2304,27.733333333333334,-70.4,520.5333333333333
2305,23.466666666666665,-81.06666666666666,518.4
2306,27.733333333333334,-78.93333333333334,518.4
2307,25.6,-83.2,512.0
2308,19.2,-78.93333333333334,526.9333333333333
2309,14.933333333333334,-78.93333333333334,516.2666666666667
2310,12.8,-68.26666666666667,509.8666666666667
2311,23.466666666666665,-74.66666666666667,520.5333333333333
2312,21.333333333333332,-78.93333333333334,512.0
2313,23.466666666666665,-78.93333333333334,518.4
2314,19.2,-76.8,520.5333333333333
2315,21.333333333333332,-70.4,512.0
2316,25.6,-78.93333333333334,520.5333333333333
2317,27.733333333333334,-78.93333333333334,516.2666666666667
2318,27.733333333333334,-81.06666666666666,514.1333333333333
2319,19.2,-78.93333333333334,518.4
2320,23.466666666666665,-78.93333333333334,520.5333333333333
2321,23.466666666666665,-78.93333333333334,507.73333333333335
2322,21.333333333333332,-76.8,514.1333333333333
2323,19.2,-78.93333333333334,520.5333333333333
2324,19.2,-83.2,505.59999999999997
2325,29.866666666666667,-81.06666666666666,505.59999999999997
2326,23.466666666666665,-78.93333333333334,507.73333333333335
2327,19.2,-85.33333333333333,509.8666666666667
2328,19.2,-81.06666666666666,509.8666666666667
2329,23.466666666666665,-76.8,516.2666666666667
2330,25.6,-81.06666666666666,509.8666666666667
2331,27.733333333333334,-81.06666666666666,514.1333333333333
2332,32.0,-81.06666666666666,509.8666666666667
2333,23.466666666666665,-89.6,512.0
2334,25.6,-74.66666666666667,509.8666666666667
2335,23.466666666666665,-76.8,512.0
2336,29.866666666666667,-74.66666666666667,512.0
2337,29.866666666666667,-72.53333333333333,509.8666666666667
2338,21.333333333333332,-78.93333333333334,514.1333333333333
2339,23.466666666666665,-70.4,509.8666666666667
2340,29.866666666666667,-78.93333333333334,518.4
2341,32.0,-76.8,512.0
2342,34.13333333333333,-74.66666666666667,516.2666666666667
2343,32.0,-81.06666666666666,514.1333333333333
2344,27.733333333333334,-78.93333333333334,512.0
2345,32.0,-81.06666666666666,512.0
2346,34.13333333333333,-74.66666666666667,509.8666666666667
2347,32.0,-76.8,514.1333333333333
2348,34.13333333333333,-74.66666666666667,516.2666666666667
2349,23.466666666666665,-66.13333333333333,512.0
2350,32.0,-74.66666666666667,520.5333333333333
2351,25.6,-72.53333333333333,509.8666666666667
2352,32.0,-76.8,516.2666666666667
2353,36.266666666666666,-74.66666666666667,509.8666666666667
2354,32.0,-66.13333333333333,522.6666666666666
2355,29.866666666666667,-81.06666666666666,518.4
2356,34.13333333333333,-78.93333333333334,509.8666666666667
2357,29.866666666666667,-74.66666666666667,524.8
2358,25.6,-76.8,507.73333333333335
2359,32.0,-81.06666666666666,512.0
2360,34.13333333333333,-76.8,516.2666666666667
2361,32.0,-76.8,514.1333333333333
2362,25.6,-83.2,512.0
2363,29.866666666666667,-85.33333333333333,514.1333333333333
2364,32.0,-81.06666666666666,514.1333333333333
2365,29.866666666666667,-81.06666666666666,512.0
2366,27.733333333333334,-76.8,512.0
2367,25.6,-81.06666666666666,512.0
2368,27.733333333333334,-83.2,516.2666666666667
2369,17.066666666666666,-70.4,520.5333333333333
2370,23.466666666666665,-78.93333333333334,516.2666666666667
2371,25.6,-76.8,512.0
2372,29.866666666666667,-83.2,518.4
2373,34.13333333333333,-87.46666666666667,512.0
2374,27.733333333333334,-83.2,514.1333333333333
2375,27.733333333333334,-89.6,520.5333333333333
2376,27.733333333333334,-91.73333333333333,514.1333333333333
2377,23.466666666666665,-89.6,516.2666666666667
2378,14.933333333333334,-93.86666666666666,516.2666666666667
2379,17.066666666666666,-93.86666666666666,516.2666666666667
2380,17.066666666666666,-91.73333333333333,512.0
2381,19.2,-98.13333333333333,516.2666666666667
2382,27.733333333333334,-93.86666666666666,520.5333333333333
2383,27.733333333333334,-93.86666666666666,512.0
2384,27.733333333333334,-81.06666666666666,509.8666666666667
2385,25.6,-81.06666666666666,514.1333333333333
2386,32.0,-83.2,509.8666666666667
2387,32.0,-83.2,512.0
2388,36.266666666666666,-83.2,516.2666666666667
2389,36.266666666666666,-78.93333333333334,514.1333333333333
2390,34.13333333333333,-76.8,512.0
2391,34.13333333333333,-83.2,509.8666666666667
2392,32.0,-85.33333333333333,516.2666666666667
2393,34.13333333333333,-83.2,509.8666666666667
2394,38.4,-76.8,514.1333333333333
2395,34.13333333333333,-87.46666666666667,503.46666666666664
2396,34.13333333333333,-85.33333333333333,512.0
2397,38.4,-89.6,516.2666666666667
2398,34.13333333333333,-83.2,512.0
2399,42.666666666666664,-87.46666666666667,505.59999999999997
