,accelerometerAccelerationX(G),accelerometerAccelerationY(G),accelerometerAccelerationZ(G)
0,-8.533333333333333,-473.59999999999997,-268.8
1,0.0,-477.8666666666667,-268.8
2,0.0,-473.59999999999997,-268.8
3,-2.1333333333333333,-477.8666666666667,-266.6666666666667
4,0.0,-482.1333333333333,-270.93333333333334
5,-2.1333333333333333,-494.93333333333334,-258.1333333333333
6,0.0,-480.0,-275.2
7,0.0,-492.8,-273.06666666666666
8,2.1333333333333333,-486.4,-266.6666666666667
9,-4.266666666666667,-484.26666666666665,-268.8
10,-4.266666666666667,-484.26666666666665,-270.93333333333334
11,-2.1333333333333333,-486.4,-277.3333333333333
12,-4.266666666666667,-490.6666666666667,-277.3333333333333
13,-4.266666666666667,-490.6666666666667,-273.06666666666666
14,14.933333333333334,-494.93333333333334,-264.5333333333333
15,-2.1333333333333333,-488.5333333333333,-277.3333333333333
16,-2.1333333333333333,-486.4,-273.06666666666666
17,-8.533333333333333,-488.5333333333333,-270.93333333333334
18,-19.2,-477.8666666666667,-283.73333333333335
19,0.0,-488.5333333333333,-273.06666666666666
20,-4.266666666666667,-482.1333333333333,-268.8
21,0.0,-477.8666666666667,-273.06666666666666
22,-2.1333333333333333,-477.8666666666667,-262.4
23,-2.1333333333333333,-477.8666666666667,-264.5333333333333
24,-4.266666666666667,-477.8666666666667,-262.4
25,-2.1333333333333333,-482.1333333333333,-262.4
26,-2.1333333333333333,-477.8666666666667,-264.5333333333333
27,0.0,-477.8666666666667,-268.8
28,-2.1333333333333333,-471.46666666666664,-266.6666666666667
29,-4.266666666666667,-475.73333333333335,-264.5333333333333
30,0.0,-475.73333333333335,-266.6666666666667
31,0.0,-473.59999999999997,-268.8
32,0.0,-469.3333333333333,-262.4
33,0.0,-477.8666666666667,-266.6666666666667
34,0.0,-482.1333333333333,-264.5333333333333
35,0.0,-486.4,-270.93333333333334
36,0.0,-482.1333333333333,-273.06666666666666
37,-6.4,-477.8666666666667,-262.4
38,0.0,-477.8666666666667,-262.4
39,-4.266666666666667,-480.0,-268.8
40,-2.1333333333333333,-480.0,-268.8
41,0.0,-482.1333333333333,-268.8
42,0.0,-486.4,-273.06666666666666
43,-2.1333333333333333,-475.73333333333335,-270.93333333333334
44,-4.266666666666667,-475.73333333333335,-268.8
45,-2.1333333333333333,-480.0,-268.8
46,-10.666666666666666,-475.73333333333335,-266.6666666666667
47,0.0,-480.0,-273.06666666666666
48,-2.1333333333333333,-501.3333333333333,-264.5333333333333
49,0.0,-482.1333333333333,-262.4
50,-4.266666666666667,-475.73333333333335,-270.93333333333334
51,-2.1333333333333333,-484.26666666666665,-262.4
52,-8.533333333333333,-477.8666666666667,-264.5333333333333
53,-2.1333333333333333,-477.8666666666667,-268.8
54,0.0,-475.73333333333335,-262.4
55,2.1333333333333333,-488.5333333333333,-266.6666666666667
56,0.0,-477.8666666666667,-268.8
57,-2.1333333333333333,-482.1333333333333,-268.8
58,-8.533333333333333,-480.0,-264.5333333333333
59,-6.4,-486.4,-264.5333333333333
60,0.0,-480.0,-264.5333333333333
61,-2.1333333333333333,-473.59999999999997,-268.8
62,0.0,-475.73333333333335,-266.6666666666667
63,0.0,-484.26666666666665,-270.93333333333334
64,0.0,-480.0,-268.8
65,0.0,-475.73333333333335,-268.8
66,-8.533333333333333,-477.8666666666667,-264.5333333333333
67,0.0,-482.1333333333333,-270.93333333333334
68,-4.266666666666667,-482.1333333333333,-264.5333333333333
69,-2.1333333333333333,-482.1333333333333,-266.6666666666667
70,2.1333333333333333,-471.46666666666664,-266.6666666666667
71,-6.4,-480.0,-270.93333333333334
72,-8.533333333333333,-480.0,-264.5333333333333
73,-2.1333333333333333,-480.0,-270.93333333333334
74,-2.1333333333333333,-486.4,-262.4
75,-2.1333333333333333,-482.1333333333333,-262.4
76,-2.1333333333333333,-484.26666666666665,-266.6666666666667
77,-6.4,-484.26666666666665,-270.93333333333334
78,-2.1333333333333333,-486.4,-258.1333333333333
79,-4.266666666666667,-475.73333333333335,-264.5333333333333
80,-2.1333333333333333,-488.5333333333333,-260.26666666666665
81,-4.266666666666667,-482.1333333333333,-275.2
82,-2.1333333333333333,-482.1333333333333,-264.5333333333333
83,2.1333333333333333,-486.4,-264.5333333333333
84,-10.666666666666666,-475.73333333333335,-251.73333333333332
85,-4.266666666666667,-482.1333333333333,-260.26666666666665
86,-8.533333333333333,-477.8666666666667,-262.4
87,-4.266666666666667,-486.4,-268.8
88,0.0,-484.26666666666665,-266.6666666666667
89,-8.533333333333333,-480.0,-262.4
90,-2.1333333333333333,-477.8666666666667,-260.26666666666665
91,-2.1333333333333333,-480.0,-262.4
92,0.0,-480.0,-268.8
93,-6.4,-482.1333333333333,-262.4
94,-6.4,-477.8666666666667,-266.6666666666667
95,-2.1333333333333333,-484.26666666666665,-268.8
96,-4.266666666666667,-486.4,-264.5333333333333
97,0.0,-480.0,-266.6666666666667
98,0.0,-482.1333333333333,-264.5333333333333
99,-4.266666666666667,-480.0,-262.4
100,0.0,-480.0,-266.6666666666667
101,-4.266666666666667,-482.1333333333333,-266.6666666666667
102,0.0,-482.1333333333333,-258.1333333333333
103,-2.1333333333333333,-480.0,-273.06666666666666
104,0.0,-484.26666666666665,-270.93333333333334
105,-4.266666666666667,-473.59999999999997,-262.4
106,0.0,-490.6666666666667,-270.93333333333334
107,0.0,-482.1333333333333,-264.5333333333333
108,-2.1333333333333333,-484.26666666666665,-268.8
109,0.0,-482.1333333333333,-268.8
110,-6.4,-480.0,-258.1333333333333
111,0.0,-475.73333333333335,-268.8
112,-4.266666666666667,-475.73333333333335,-270.93333333333334
113,0.0,-484.26666666666665,-258.1333333333333
114,-4.266666666666667,-484.26666666666665,-266.6666666666667
115,-8.533333333333333,-475.73333333333335,-268.8
116,-4.266666666666667,-475.73333333333335,-260.26666666666665
117,0.0,-482.1333333333333,-268.8
118,0.0,-484.26666666666665,-268.8
119,-6.4,-482.1333333333333,-264.5333333333333
120,-2.1333333333333333,-484.26666666666665,-266.6666666666667
121,2.1333333333333333,-486.4,-264.5333333333333
122,2.1333333333333333,-486.4,-266.6666666666667
123,0.0,-490.6666666666667,-266.6666666666667
124,-2.1333333333333333,-484.26666666666665,-273.06666666666666
125,0.0,-488.5333333333333,-260.26666666666665
126,-4.266666666666667,-488.5333333333333,-260.26666666666665
127,-4.266666666666667,-484.26666666666665,-258.1333333333333
128,-2.1333333333333333,-484.26666666666665,-264.5333333333333
129,-6.4,-486.4,-256.0
130,-4.266666666666667,-488.5333333333333,-262.4
131,-6.4,-482.1333333333333,-260.26666666666665
132,-2.1333333333333333,-488.5333333333333,-262.4
133,-6.4,-477.8666666666667,-258.1333333333333
134,-4.266666666666667,-488.5333333333333,-264.5333333333333
135,2.1333333333333333,-482.1333333333333,-262.4
136,-6.4,-486.4,-268.8
137,-4.266666666666667,-482.1333333333333,-258.1333333333333
138,-4.266666666666667,-482.1333333333333,-262.4
139,-2.1333333333333333,-484.26666666666665,-266.6666666666667
140,-8.533333333333333,-482.1333333333333,-264.5333333333333
141,-6.4,-477.8666666666667,-260.26666666666665
142,-4.266666666666667,-484.26666666666665,-264.5333333333333
143,-6.4,-482.1333333333333,-262.4
144,-2.1333333333333333,-482.1333333333333,-260.26666666666665
145,-8.533333333333333,-480.0,-266.6666666666667
146,-4.266666666666667,-484.26666666666665,-262.4
147,-4.266666666666667,-486.4,-268.8
148,-2.1333333333333333,-480.0,-266.6666666666667
149,0.0,-486.4,-262.4
150,-4.266666666666667,-486.4,-260.26666666666665
151,0.0,-488.5333333333333,-260.26666666666665
152,0.0,-488.5333333333333,-268.8
153,0.0,-488.5333333333333,-260.26666666666665
154,-2.1333333333333333,-482.1333333333333,-273.06666666666666
155,0.0,-486.4,-262.4
156,-2.1333333333333333,-482.1333333333333,-262.4
157,0.0,-501.3333333333333,-273.06666666666666
158,-6.4,-475.73333333333335,-268.8
159,-2.1333333333333333,-482.1333333333333,-262.4
160,-8.533333333333333,-477.8666666666667,-264.5333333333333
161,-2.1333333333333333,-482.1333333333333,-268.8
162,0.0,-482.1333333333333,-262.4
163,-2.1333333333333333,-482.1333333333333,-256.0
164,0.0,-484.26666666666665,-258.1333333333333
165,-2.1333333333333333,-482.1333333333333,-262.4
166,0.0,-477.8666666666667,-249.6
167,-4.266666666666667,-480.0,-262.4
168,-4.266666666666667,-482.1333333333333,-251.73333333333332
169,0.0,-488.5333333333333,-262.4
170,-6.4,-482.1333333333333,-266.6666666666667
171,0.0,-488.5333333333333,-258.1333333333333
172,-4.266666666666667,-486.4,-270.93333333333334
173,0.0,-484.26666666666665,-270.93333333333334
174,0.0,-486.4,-268.8
175,-6.4,-486.4,-262.4
176,2.1333333333333333,-490.6666666666667,-268.8
177,4.266666666666667,-482.1333333333333,-262.4
178,-2.1333333333333333,-486.4,-256.0
179,10.666666666666666,-473.59999999999997,-262.4
180,0.0,-484.26666666666665,-258.1333333333333
181,-4.266666666666667,-486.4,-268.8
182,0.0,-488.5333333333333,-256.0
183,0.0,-488.5333333333333,-266.6666666666667
184,-2.1333333333333333,-482.1333333333333,-264.5333333333333
185,0.0,-480.0,-266.6666666666667
186,-2.1333333333333333,-488.5333333333333,-266.6666666666667
187,-2.1333333333333333,-488.5333333333333,-262.4
188,0.0,-486.4,-266.6666666666667
189,-2.1333333333333333,-488.5333333333333,-258.1333333333333
190,0.0,-488.5333333333333,-268.8
191,-2.1333333333333333,-484.26666666666665,-262.4
192,-4.266666666666667,-482.1333333333333,-262.4
193,-2.1333333333333333,-484.26666666666665,-256.0
194,0.0,-488.5333333333333,-264.5333333333333
195,-8.533333333333333,-482.1333333333333,-266.6666666666667
196,-6.4,-480.0,-266.6666666666667
197,0.0,-484.26666666666665,-266.6666666666667
198,-6.4,-480.0,-260.26666666666665
199,0.0,-477.8666666666667,-264.5333333333333
200,-8.533333333333333,-482.1333333333333,-262.4
201,-17.066666666666666,-482.1333333333333,-256.0
202,0.0,-484.26666666666665,-266.6666666666667
203,-4.266666666666667,-482.1333333333333,-264.5333333333333
204,0.0,-482.1333333333333,-270.93333333333334
205,-2.1333333333333333,-484.26666666666665,-262.4
206,-2.1333333333333333,-484.26666666666665,-262.4
207,0.0,-484.26666666666665,-262.4
208,0.0,-480.0,-270.93333333333334
209,-2.1333333333333333,-482.1333333333333,-258.1333333333333
210,0.0,-482.1333333333333,-260.26666666666665
211,-2.1333333333333333,-486.4,-260.26666666666665
212,-4.266666666666667,-480.0,-256.0
213,0.0,-484.26666666666665,-256.0
214,-2.1333333333333333,-488.5333333333333,-258.1333333333333
215,-4.266666666666667,-480.0,-268.8
216,2.1333333333333333,-486.4,-258.1333333333333
217,-6.4,-475.73333333333335,-264.5333333333333
218,0.0,-482.1333333333333,-262.4
219,-6.4,-486.4,-258.1333333333333
220,-2.1333333333333333,-482.1333333333333,-264.5333333333333
221,-4.266666666666667,-480.0,-260.26666666666665
222,2.1333333333333333,-480.0,-243.2
223,-2.1333333333333333,-482.1333333333333,-258.1333333333333
224,-2.1333333333333333,-480.0,-264.5333333333333
225,0.0,-490.6666666666667,-264.5333333333333
226,-4.266666666666667,-484.26666666666665,-260.26666666666665
227,-8.533333333333333,-482.1333333333333,-262.4
228,-2.1333333333333333,-490.6666666666667,-256.0
229,-2.1333333333333333,-480.0,-275.2
230,-4.266666666666667,-480.0,-260.26666666666665
231,-2.1333333333333333,-484.26666666666665,-264.5333333333333
232,0.0,-480.0,-262.4
233,0.0,-484.26666666666665,-262.4
234,-8.533333333333333,-480.0,-264.5333333333333
235,0.0,-480.0,-264.5333333333333
236,0.0,-486.4,-258.1333333333333
237,-10.666666666666666,-486.4,-260.26666666666665
238,2.1333333333333333,-484.26666666666665,-266.6666666666667
239,4.266666666666667,-490.6666666666667,-253.86666666666667
240,0.0,-492.8,-266.6666666666667
241,-8.533333333333333,-486.4,-262.4
242,-2.1333333333333333,-486.4,-260.26666666666665
243,0.0,-482.1333333333333,-260.26666666666665
244,-2.1333333333333333,-488.5333333333333,-258.1333333333333
245,-8.533333333333333,-480.0,-253.86666666666667
246,-2.1333333333333333,-492.8,-258.1333333333333
247,2.1333333333333333,-482.1333333333333,-251.73333333333332
248,0.0,-490.6666666666667,-253.86666666666667
249,-4.266666666666667,-482.1333333333333,-264.5333333333333
250,-2.1333333333333333,-480.0,-256.0
251,-2.1333333333333333,-482.1333333333333,-262.4
252,-2.1333333333333333,-482.1333333333333,-262.4
253,0.0,-486.4,-256.0
254,-2.1333333333333333,-486.4,-256.0
255,0.0,-477.8666666666667,-262.4
256,-2.1333333333333333,-480.0,-258.1333333333333
257,0.0,-488.5333333333333,-251.73333333333332
258,-4.266666666666667,-484.26666666666665,-262.4
259,-4.266666666666667,-486.4,-258.1333333333333
260,0.0,-486.4,-262.4
261,0.0,-484.26666666666665,-262.4
262,-4.266666666666667,-480.0,-260.26666666666665
263,-6.4,-482.1333333333333,-258.1333333333333
264,-2.1333333333333333,-488.5333333333333,-253.86666666666667
265,-12.8,-494.93333333333334,-260.26666666666665
266,-4.266666666666667,-482.1333333333333,-256.0
267,0.0,-486.4,-262.4
268,-2.1333333333333333,-492.8,-251.73333333333332
269,0.0,-494.93333333333334,-256.0
270,0.0,-482.1333333333333,-258.1333333333333
271,0.0,-490.6666666666667,-266.6666666666667
272,-4.266666666666667,-488.5333333333333,-262.4
273,-2.1333333333333333,-490.6666666666667,-264.5333333333333
274,-4.266666666666667,-494.93333333333334,-253.86666666666667
275,0.0,-488.5333333333333,-260.26666666666665
276,-4.266666666666667,-492.8,-253.86666666666667
277,-2.1333333333333333,-490.6666666666667,-262.4
278,0.0,-484.26666666666665,-256.0
279,0.0,-492.8,-260.26666666666665
280,0.0,-482.1333333333333,-260.26666666666665
281,-6.4,-477.8666666666667,-266.6666666666667
282,-4.266666666666667,-482.1333333333333,-262.4
283,-6.4,-480.0,-258.1333333333333
284,-4.266666666666667,-490.6666666666667,-260.26666666666665
285,-4.266666666666667,-486.4,-256.0
286,0.0,-486.4,-258.1333333333333
287,-4.266666666666667,-484.26666666666665,-245.33333333333334
288,-10.666666666666666,-488.5333333333333,-245.33333333333334
289,0.0,-484.26666666666665,-253.86666666666667
290,0.0,-486.4,-253.86666666666667
291,-4.266666666666667,-486.4,-256.0
292,-2.1333333333333333,-477.8666666666667,-258.1333333333333
293,0.0,-480.0,-256.0
294,0.0,-484.26666666666665,-262.4
295,0.0,-486.4,-258.1333333333333
296,-4.266666666666667,-486.4,-249.6
297,-6.4,-488.5333333333333,-258.1333333333333
298,0.0,-486.4,-262.4
299,-2.1333333333333333,-486.4,-256.0
300,-6.4,-480.0,-256.0
301,0.0,-484.26666666666665,-256.0
302,-2.1333333333333333,-480.0,-258.1333333333333
303,-4.266666666666667,-488.5333333333333,-253.86666666666667
304,0.0,-492.8,-256.0
305,-6.4,-484.26666666666665,-260.26666666666665
306,-4.266666666666667,-484.26666666666665,-253.86666666666667
307,0.0,-486.4,-260.26666666666665
308,-2.1333333333333333,-492.8,-249.6
309,0.0,-486.4,-258.1333333333333
310,-14.933333333333334,-473.59999999999997,-260.26666666666665
311,-6.4,-484.26666666666665,-262.4
312,-2.1333333333333333,-484.26666666666665,-253.86666666666667
313,0.0,-484.26666666666665,-260.26666666666665
314,0.0,-484.26666666666665,-258.1333333333333
315,0.0,-486.4,-251.73333333333332
316,-2.1333333333333333,-488.5333333333333,-256.0
317,-4.266666666666667,-486.4,-256.0
318,0.0,-484.26666666666665,-251.73333333333332
319,0.0,-486.4,-243.2
320,-6.4,-484.26666666666665,-262.4
321,-4.266666666666667,-484.26666666666665,-253.86666666666667
322,-4.266666666666667,-475.73333333333335,-258.1333333333333
323,-2.1333333333333333,-486.4,-247.46666666666667
324,-2.1333333333333333,-488.5333333333333,-260.26666666666665
325,-10.666666666666666,-486.4,-249.6
326,-8.533333333333333,-486.4,-264.5333333333333
327,0.0,-488.5333333333333,-258.1333333333333
328,0.0,-488.5333333333333,-260.26666666666665
329,-4.266666666666667,-484.26666666666665,-256.0
330,2.1333333333333333,-488.5333333333333,-256.0
331,-10.666666666666666,-486.4,-256.0
332,-2.1333333333333333,-488.5333333333333,-258.1333333333333
333,-2.1333333333333333,-484.26666666666665,-258.1333333333333
334,-4.266666666666667,-490.6666666666667,-256.0
335,0.0,-490.6666666666667,-256.0
336,0.0,-490.6666666666667,-262.4
337,0.0,-486.4,-256.0
338,-6.4,-480.0,-243.2
339,-8.533333333333333,-484.26666666666665,-251.73333333333332
340,-6.4,-486.4,-251.73333333333332
341,-4.266666666666667,-484.26666666666665,-266.6666666666667
342,0.0,-484.26666666666665,-266.6666666666667
343,0.0,-486.4,-260.26666666666665
344,2.1333333333333333,-486.4,-264.5333333333333
345,-6.4,-484.26666666666665,-268.8
346,0.0,-488.5333333333333,-264.5333333333333
347,0.0,-492.8,-262.4
348,-4.266666666666667,-484.26666666666665,-256.0
349,0.0,-488.5333333333333,-262.4
350,0.0,-494.93333333333334,-251.73333333333332
351,0.0,-484.26666666666665,-262.4
352,0.0,-492.8,-258.1333333333333
353,-2.1333333333333333,-490.6666666666667,-256.0
354,-4.266666666666667,-484.26666666666665,-251.73333333333332
355,0.0,-486.4,-256.0
356,0.0,-494.93333333333334,-247.46666666666667
357,0.0,-488.5333333333333,-251.73333333333332
358,-6.4,-488.5333333333333,-253.86666666666667
359,0.0,-492.8,-249.6
360,0.0,-490.6666666666667,-256.0
361,-4.266666666666667,-484.26666666666665,-262.4
362,-2.1333333333333333,-484.26666666666665,-262.4
363,0.0,-490.6666666666667,-253.86666666666667
364,-2.1333333333333333,-484.26666666666665,-251.73333333333332
365,-2.1333333333333333,-486.4,-258.1333333333333
366,0.0,-488.5333333333333,-247.46666666666667
367,-6.4,-492.8,-260.26666666666665
368,0.0,-490.6666666666667,-258.1333333333333
369,0.0,-490.6666666666667,-260.26666666666665
370,0.0,-482.1333333333333,-247.46666666666667
371,-4.266666666666667,-477.8666666666667,-256.0
372,-4.266666666666667,-484.26666666666665,-253.86666666666667
373,0.0,-490.6666666666667,-256.0
374,-2.1333333333333333,-484.26666666666665,-262.4
375,-6.4,-492.8,-245.33333333333334
376,-8.533333333333333,-484.26666666666665,-253.86666666666667
377,0.0,-486.4,-256.0
378,-6.4,-490.6666666666667,-251.73333333333332
379,0.0,-484.26666666666665,-253.86666666666667
380,0.0,-484.26666666666665,-245.33333333333334
381,0.0,-486.4,-258.1333333333333
382,0.0,-492.8,-253.86666666666667
383,-4.266666666666667,-484.26666666666665,-251.73333333333332
384,-6.4,-484.26666666666665,-251.73333333333332
385,-4.266666666666667,-486.4,-249.6
386,-2.1333333333333333,-484.26666666666665,-251.73333333333332
387,-2.1333333333333333,-488.5333333333333,-256.0
388,-2.1333333333333333,-484.26666666666665,-253.86666666666667
389,-4.266666666666667,-484.26666666666665,-251.73333333333332
390,0.0,-490.6666666666667,-251.73333333333332
391,0.0,-492.8,-260.26666666666665
392,0.0,-490.6666666666667,-260.26666666666665
393,2.1333333333333333,-492.8,-256.0
394,-2.1333333333333333,-486.4,-262.4
395,0.0,-482.1333333333333,-249.6
396,4.266666666666667,-490.6666666666667,-262.4
397,-4.266666666666667,-484.26666666666665,-266.6666666666667
398,0.0,-486.4,-256.0
399,-2.1333333333333333,-490.6666666666667,-258.1333333333333
400,0.0,-488.5333333333333,-256.0
401,-2.1333333333333333,-488.5333333333333,-256.0
402,-4.266666666666667,-486.4,-249.6
403,-4.266666666666667,-492.8,-256.0
404,-6.4,-486.4,-249.6
405,0.0,-490.6666666666667,-253.86666666666667
406,0.0,-486.4,-247.46666666666667
407,0.0,-492.8,-256.0
408,0.0,-497.06666666666666,-253.86666666666667
409,-2.1333333333333333,-492.8,-256.0
410,0.0,-492.8,-253.86666666666667
411,-2.1333333333333333,-484.26666666666665,-251.73333333333332
412,0.0,-488.5333333333333,-256.0
413,0.0,-488.5333333333333,-247.46666666666667
414,0.0,-494.93333333333334,-253.86666666666667
415,0.0,-490.6666666666667,-256.0
416,0.0,-486.4,-251.73333333333332
417,0.0,-486.4,-258.1333333333333
418,17.066666666666666,-482.1333333333333,-256.0
419,-4.266666666666667,-488.5333333333333,-256.0
420,0.0,-494.93333333333334,-256.0
421,0.0,-492.8,-245.33333333333334
422,0.0,-486.4,-253.86666666666667
423,0.0,-484.26666666666665,-253.86666666666667
424,-2.1333333333333333,-488.5333333333333,-256.0
425,4.266666666666667,-492.8,-258.1333333333333
426,0.0,-488.5333333333333,-260.26666666666665
427,-6.4,-486.4,-258.1333333333333
428,-12.8,-482.1333333333333,-253.86666666666667
429,0.0,-492.8,-251.73333333333332
430,0.0,-486.4,-258.1333333333333
431,-2.1333333333333333,-490.6666666666667,-253.86666666666667
432,0.0,-490.6666666666667,-262.4
433,-2.1333333333333333,-488.5333333333333,-253.86666666666667
434,2.1333333333333333,-488.5333333333333,-258.1333333333333
435,0.0,-482.1333333333333,-258.1333333333333
436,0.0,-482.1333333333333,-256.0
437,0.0,-490.6666666666667,-247.46666666666667
438,-2.1333333333333333,-480.0,-249.6
439,-2.1333333333333333,-484.26666666666665,-249.6
440,2.1333333333333333,-480.0,-249.6
441,0.0,-488.5333333333333,-253.86666666666667
442,0.0,-490.6666666666667,-253.86666666666667
443,4.266666666666667,-486.4,-256.0
444,-4.266666666666667,-484.26666666666665,-253.86666666666667
445,0.0,-484.26666666666665,-253.86666666666667
446,0.0,-484.26666666666665,-256.0
447,0.0,-488.5333333333333,-256.0
448,-4.266666666666667,-488.5333333333333,-249.6
449,0.0,-486.4,-256.0
450,2.1333333333333333,-490.6666666666667,-256.0
451,-2.1333333333333333,-490.6666666666667,-258.1333333333333
452,-2.1333333333333333,-490.6666666666667,-266.6666666666667
453,-4.266666666666667,-486.4,-245.33333333333334
454,0.0,-492.8,-249.6
455,-6.4,-484.26666666666665,-262.4
456,0.0,-486.4,-256.0
457,-2.1333333333333333,-488.5333333333333,-262.4
458,0.0,-490.6666666666667,-251.73333333333332
459,-2.1333333333333333,-488.5333333333333,-256.0
460,0.0,-490.6666666666667,-258.1333333333333
461,2.1333333333333333,-490.6666666666667,-247.46666666666667
462,-2.1333333333333333,-486.4,-256.0
463,-4.266666666666667,-486.4,-253.86666666666667
464,0.0,-484.26666666666665,-258.1333333333333
465,-6.4,-486.4,-260.26666666666665
466,2.1333333333333333,-494.93333333333334,-256.0
467,0.0,-480.0,-258.1333333333333
468,-4.266666666666667,-484.26666666666665,-260.26666666666665
469,-2.1333333333333333,-490.6666666666667,-260.26666666666665
470,-2.1333333333333333,-484.26666666666665,-258.1333333333333
471,-4.266666666666667,-482.1333333333333,-256.0
472,0.0,-486.4,-251.73333333333332
473,0.0,-482.1333333333333,-251.73333333333332
474,0.0,-488.5333333333333,-260.26666666666665
475,0.0,-486.4,-253.86666666666667
476,-6.4,-484.26666666666665,-256.0
477,-2.1333333333333333,-490.6666666666667,-262.4
478,2.1333333333333333,-486.4,-253.86666666666667
479,0.0,-482.1333333333333,-258.1333333333333
480,4.266666666666667,-490.6666666666667,-258.1333333333333
481,2.1333333333333333,-490.6666666666667,-253.86666666666667
482,4.266666666666667,-482.1333333333333,-253.86666666666667
483,0.0,-484.26666666666665,-251.73333333333332
484,2.1333333333333333,-490.6666666666667,-258.1333333333333
485,0.0,-484.26666666666665,-256.0
486,-2.1333333333333333,-490.6666666666667,-253.86666666666667
487,-2.1333333333333333,-490.6666666666667,-251.73333333333332
488,0.0,-486.4,-260.26666666666665
489,-2.1333333333333333,-488.5333333333333,-256.0
490,-2.1333333333333333,-486.4,-260.26666666666665
491,-2.1333333333333333,-482.1333333333333,-256.0
492,-2.1333333333333333,-488.5333333333333,-260.26666666666665
493,-6.4,-486.4,-253.86666666666667
494,-4.266666666666667,-488.5333333333333,-256.0
495,-10.666666666666666,-484.26666666666665,-258.1333333333333
496,-2.1333333333333333,-486.4,-260.26666666666665
497,0.0,-482.1333333333333,-251.73333333333332
498,-6.4,-482.1333333333333,-258.1333333333333
499,0.0,-482.1333333333333,-251.73333333333332
500,0.0,-484.26666666666665,-258.1333333333333
501,-4.266666666666667,-480.0,-258.1333333333333
502,0.0,-488.5333333333333,-260.26666666666665
503,0.0,-492.8,-251.73333333333332
504,-4.266666666666667,-477.8666666666667,-256.0
505,-8.533333333333333,-486.4,-243.2
506,-6.4,-486.4,-262.4
507,0.0,-484.26666666666665,-249.6
508,0.0,-486.4,-268.8
509,0.0,-486.4,-253.86666666666667
510,0.0,-488.5333333333333,-256.0
511,-4.266666666666667,-486.4,-251.73333333333332
512,-2.1333333333333333,-490.6666666666667,-264.5333333333333
513,-4.266666666666667,-486.4,-260.26666666666665
514,0.0,-490.6666666666667,-256.0
515,0.0,-477.8666666666667,-266.6666666666667
516,0.0,-488.5333333333333,-258.1333333333333
517,0.0,-490.6666666666667,-256.0
518,-2.1333333333333333,-484.26666666666665,-260.26666666666665
519,0.0,-490.6666666666667,-260.26666666666665
520,-2.1333333333333333,-482.1333333333333,-253.86666666666667
521,-4.266666666666667,-488.5333333333333,-260.26666666666665
522,-2.1333333333333333,-484.26666666666665,-256.0
523,-2.1333333333333333,-484.26666666666665,-260.26666666666665
524,-6.4,-488.5333333333333,-264.5333333333333
525,0.0,-482.1333333333333,-266.6666666666667
526,0.0,-486.4,-256.0
527,0.0,-503.46666666666664,-236.79999999999998
528,0.0,-486.4,-262.4
529,-4.266666666666667,-482.1333333333333,-258.1333333333333
530,-6.4,-486.4,-260.26666666666665
531,0.0,-482.1333333333333,-260.26666666666665
532,-4.266666666666667,-488.5333333333333,-260.26666666666665
533,-4.266666666666667,-484.26666666666665,-256.0
534,2.1333333333333333,-484.26666666666665,-258.1333333333333
535,0.0,-486.4,-256.0
536,0.0,-484.26666666666665,-258.1333333333333
537,-4.266666666666667,-482.1333333333333,-264.5333333333333
538,-4.266666666666667,-480.0,-258.1333333333333
539,-4.266666666666667,-482.1333333333333,-256.0
540,-4.266666666666667,-480.0,-258.1333333333333
541,0.0,-477.8666666666667,-262.4
542,0.0,-488.5333333333333,-264.5333333333333
543,0.0,-484.26666666666665,-260.26666666666665
544,-8.533333333333333,-482.1333333333333,-260.26666666666665
545,-6.4,-480.0,-266.6666666666667
546,-2.1333333333333333,-475.73333333333335,-253.86666666666667
547,0.0,-488.5333333333333,-258.1333333333333
548,-6.4,-486.4,-266.6666666666667
549,0.0,-475.73333333333335,-266.6666666666667
550,0.0,-482.1333333333333,-266.6666666666667
551,0.0,-484.26666666666665,-268.8
552,-4.266666666666667,-484.26666666666665,-264.5333333333333
553,-4.266666666666667,-480.0,-260.26666666666665
554,0.0,-482.1333333333333,-264.5333333333333
555,0.0,-490.6666666666667,-256.0
556,-8.533333333333333,-486.4,-256.0
557,0.0,-482.1333333333333,-266.6666666666667
558,-4.266666666666667,-484.26666666666665,-256.0
559,-4.266666666666667,-484.26666666666665,-253.86666666666667
560,-2.1333333333333333,-484.26666666666665,-258.1333333333333
561,2.1333333333333333,-488.5333333333333,-253.86666666666667
562,-4.266666666666667,-482.1333333333333,-251.73333333333332
563,-8.533333333333333,-484.26666666666665,-262.4
564,0.0,-480.0,-264.5333333333333
565,-2.1333333333333333,-484.26666666666665,-260.26666666666665
566,0.0,-484.26666666666665,-258.1333333333333
567,0.0,-492.8,-258.1333333333333
568,0.0,-492.8,-260.26666666666665
569,-2.1333333333333333,-484.26666666666665,-262.4
570,-2.1333333333333333,-486.4,-260.26666666666665
571,-8.533333333333333,-497.06666666666666,-253.86666666666667
572,0.0,-492.8,-256.0
573,-2.1333333333333333,-492.8,-264.5333333333333
574,-2.1333333333333333,-484.26666666666665,-262.4
575,-8.533333333333333,-484.26666666666665,-262.4
576,-4.266666666666667,-488.5333333333333,-264.5333333333333
577,-4.266666666666667,-484.26666666666665,-258.1333333333333
578,-4.266666666666667,-488.5333333333333,-258.1333333333333
579,0.0,-482.1333333333333,-258.1333333333333
580,0.0,-484.26666666666665,-258.1333333333333
581,0.0,-480.0,-260.26666666666665
582,-2.1333333333333333,-484.26666666666665,-260.26666666666665
583,0.0,-482.1333333333333,-256.0
584,0.0,-488.5333333333333,-258.1333333333333
585,-2.1333333333333333,-484.26666666666665,-266.6666666666667
586,0.0,-488.5333333333333,-264.5333333333333
587,-2.1333333333333333,-482.1333333333333,-256.0
588,-4.266666666666667,-477.8666666666667,-258.1333333333333
589,-2.1333333333333333,-486.4,-266.6666666666667
590,0.0,-484.26666666666665,-262.4
591,-4.266666666666667,-484.26666666666665,-266.6666666666667
592,-2.1333333333333333,-484.26666666666665,-258.1333333333333
593,-6.4,-482.1333333333333,-253.86666666666667
594,0.0,-484.26666666666665,-264.5333333333333
595,-8.533333333333333,-482.1333333333333,-268.8
596,-8.533333333333333,-480.0,-264.5333333333333
597,-8.533333333333333,-482.1333333333333,-260.26666666666665
598,-2.1333333333333333,-480.0,-260.26666666666665
599,0.0,-482.1333333333333,-262.4
600,0.0,-484.26666666666665,-262.4
601,-2.1333333333333333,-484.26666666666665,-256.0
602,0.0,-484.26666666666665,-266.6666666666667
603,0.0,-486.4,-264.5333333333333
604,-4.266666666666667,-477.8666666666667,-260.26666666666665
605,0.0,-482.1333333333333,-260.26666666666665
606,-4.266666666666667,-486.4,-258.1333333333333
607,-2.1333333333333333,-484.26666666666665,-266.6666666666667
608,0.0,-482.1333333333333,-260.26666666666665
609,-8.533333333333333,-484.26666666666665,-260.26666666666665
610,0.0,-484.26666666666665,-260.26666666666665
611,-2.1333333333333333,-480.0,-264.5333333333333
612,-2.1333333333333333,-482.1333333333333,-266.6666666666667
613,-2.1333333333333333,-484.26666666666665,-260.26666666666665
614,-8.533333333333333,-494.93333333333334,-258.1333333333333
615,-2.1333333333333333,-475.73333333333335,-262.4
616,2.1333333333333333,-484.26666666666665,-262.4
617,0.0,-480.0,-260.26666666666665
618,-4.266666666666667,-480.0,-266.6666666666667
619,0.0,-480.0,-260.26666666666665
620,-4.266666666666667,-480.0,-262.4
621,2.1333333333333333,-484.26666666666665,-268.8
622,0.0,-480.0,-266.6666666666667
623,2.1333333333333333,-484.26666666666665,-260.26666666666665
624,0.0,-482.1333333333333,-268.8
625,-2.1333333333333333,-484.26666666666665,-262.4
626,0.0,-482.1333333333333,-260.26666666666665
627,0.0,-482.1333333333333,-258.1333333333333
628,0.0,-488.5333333333333,-258.1333333333333
629,-10.666666666666666,-480.0,-266.6666666666667
630,0.0,-488.5333333333333,-266.6666666666667
631,-2.1333333333333333,-482.1333333333333,-264.5333333333333
632,-2.1333333333333333,-482.1333333333333,-260.26666666666665
633,-6.4,-480.0,-264.5333333333333
634,-4.266666666666667,-482.1333333333333,-260.26666666666665
635,0.0,-480.0,-260.26666666666665
636,-14.933333333333334,-490.6666666666667,-241.06666666666666
637,0.0,-482.1333333333333,-262.4
638,-10.666666666666666,-484.26666666666665,-260.26666666666665
639,-12.8,-475.73333333333335,-262.4
640,-2.1333333333333333,-477.8666666666667,-262.4
641,0.0,-480.0,-258.1333333333333
642,0.0,-488.5333333333333,-264.5333333333333
643,2.1333333333333333,-488.5333333333333,-260.26666666666665
644,0.0,-484.26666666666665,-266.6666666666667
645,-2.1333333333333333,-480.0,-270.93333333333334
646,2.1333333333333333,-488.5333333333333,-264.5333333333333
647,-8.533333333333333,-480.0,-268.8
648,-6.4,-484.26666666666665,-258.1333333333333
649,2.1333333333333333,-484.26666666666665,-262.4
650,0.0,-480.0,-258.1333333333333
651,-4.266666666666667,-486.4,-264.5333333333333
652,0.0,-482.1333333333333,-260.26666666666665
653,-8.533333333333333,-475.73333333333335,-258.1333333333333
654,0.0,-484.26666666666665,-256.0
655,-6.4,-475.73333333333335,-264.5333333333333
656,-4.266666666666667,-482.1333333333333,-266.6666666666667
657,0.0,-477.8666666666667,-268.8
658,-17.066666666666666,-484.26666666666665,-260.26666666666665
659,-2.1333333333333333,-475.73333333333335,-268.8
660,-4.266666666666667,-475.73333333333335,-258.1333333333333
661,-2.1333333333333333,-475.73333333333335,-264.5333333333333
662,-4.266666666666667,-473.59999999999997,-260.26666666666665
663,-4.266666666666667,-475.73333333333335,-264.5333333333333
664,-4.266666666666667,-471.46666666666664,-262.4
665,-2.1333333333333333,-471.46666666666664,-262.4
666,0.0,-473.59999999999997,-264.5333333333333
667,0.0,-469.3333333333333,-256.0
668,8.533333333333333,-473.59999999999997,-273.06666666666666
669,-2.1333333333333333,-473.59999999999997,-262.4
670,-6.4,-465.06666666666666,-258.1333333333333
671,-6.4,-467.2,-268.8
672,-6.4,-465.06666666666666,-266.6666666666667
673,-2.1333333333333333,-465.06666666666666,-264.5333333333333
674,-6.4,-469.3333333333333,-264.5333333333333
675,-8.533333333333333,-467.2,-266.6666666666667
676,0.0,-465.06666666666666,-268.8
677,-8.533333333333333,-462.93333333333334,-270.93333333333334
678,-2.1333333333333333,-467.2,-273.06666666666666
679,-2.1333333333333333,-462.93333333333334,-264.5333333333333
680,2.1333333333333333,-469.3333333333333,-266.6666666666667
681,-4.266666666666667,-465.06666666666666,-277.3333333333333
682,0.0,-458.6666666666667,-268.8
683,-2.1333333333333333,-458.6666666666667,-275.2
684,-2.1333333333333333,-460.8,-266.6666666666667
685,-6.4,-452.26666666666665,-277.3333333333333
686,-8.533333333333333,-452.26666666666665,-277.3333333333333
687,-6.4,-454.4,-277.3333333333333
688,-2.1333333333333333,-452.26666666666665,-277.3333333333333
689,-17.066666666666666,-448.0,-277.3333333333333
690,-12.8,-452.26666666666665,-273.06666666666666
691,-2.1333333333333333,-448.0,-281.6
692,-6.4,-448.0,-279.46666666666664
693,-2.1333333333333333,-450.1333333333333,-288.0
694,0.0,-445.8666666666667,-275.2
695,0.0,-454.4,-283.73333333333335
696,-4.266666666666667,-445.8666666666667,-298.6666666666667
697,0.0,-441.59999999999997,-292.26666666666665
698,0.0,-443.73333333333335,-290.1333333333333
699,0.0,-437.3333333333333,-283.73333333333335
700,6.4,-439.46666666666664,-296.5333333333333
701,4.266666666666667,-445.8666666666667,-281.6
702,2.1333333333333333,-439.46666666666664,-279.46666666666664
703,0.0,-443.73333333333335,-283.73333333333335
704,-4.266666666666667,-439.46666666666664,-281.6
705,0.0,-441.59999999999997,-275.2
706,0.0,-443.73333333333335,-273.06666666666666
707,-6.4,-439.46666666666664,-281.6
708,-6.4,-439.46666666666664,-279.46666666666664
709,-12.8,-433.06666666666666,-275.2
710,-6.4,-435.2,-283.73333333333335
711,0.0,-439.46666666666664,-279.46666666666664
712,0.0,-445.8666666666667,-279.46666666666664
713,-2.1333333333333333,-439.46666666666664,-285.8666666666667
714,0.0,-443.73333333333335,-288.0
715,-4.266666666666667,-445.8666666666667,-281.6
716,-6.4,-443.73333333333335,-281.6
717,-4.266666666666667,-443.73333333333335,-283.73333333333335
718,-6.4,-445.8666666666667,-296.5333333333333
719,-2.1333333333333333,-445.8666666666667,-294.4
720,-6.4,-445.8666666666667,-298.6666666666667
721,-10.666666666666666,-445.8666666666667,-302.93333333333334
722,-4.266666666666667,-448.0,-294.4
723,-4.266666666666667,-445.8666666666667,-309.3333333333333
724,-6.4,-437.3333333333333,-302.93333333333334
725,-6.4,-439.46666666666664,-302.93333333333334
726,-10.666666666666666,-443.73333333333335,-296.5333333333333
727,-2.1333333333333333,-445.8666666666667,-298.6666666666667
728,-12.8,-430.93333333333334,-305.06666666666666
729,-2.1333333333333333,-428.8,-305.06666666666666
730,-6.4,-435.2,-292.26666666666665
731,-12.8,-424.5333333333333,-302.93333333333334
732,-12.8,-424.5333333333333,-290.1333333333333
733,-12.8,-422.4,-300.8
734,-8.533333333333333,-418.1333333333333,-305.06666666666666
735,-14.933333333333334,-411.73333333333335,-300.8
736,-6.4,-420.26666666666665,-300.8
737,-14.933333333333334,-413.8666666666667,-302.93333333333334
738,-14.933333333333334,-409.6,-307.2
739,-14.933333333333334,-409.6,-305.06666666666666
740,-12.8,-407.46666666666664,-300.8
741,-14.933333333333334,-405.3333333333333,-305.06666666666666
742,-12.8,-405.3333333333333,-307.2
743,-8.533333333333333,-396.8,-307.2
744,-14.933333333333334,-405.3333333333333,-311.46666666666664
745,8.533333333333333,-386.1333333333333,-309.3333333333333
746,-6.4,-396.8,-309.3333333333333
747,-4.266666666666667,-392.5333333333333,-317.8666666666667
748,-2.1333333333333333,-396.8,-315.73333333333335
749,-4.266666666666667,-394.6666666666667,-313.6
750,2.1333333333333333,-392.5333333333333,-313.6
751,-4.266666666666667,-388.26666666666665,-313.6
752,-2.1333333333333333,-386.1333333333333,-315.73333333333335
753,-4.266666666666667,-384.0,-313.6
754,-2.1333333333333333,-381.8666666666667,-315.73333333333335
755,-2.1333333333333333,-377.6,-324.26666666666665
756,-10.666666666666666,-377.6,-313.6
757,-12.8,-375.46666666666664,-311.46666666666664
758,-10.666666666666666,-371.2,-305.06666666666666
759,-14.933333333333334,-362.6666666666667,-309.3333333333333
760,-12.8,-366.93333333333334,-313.6
761,0.0,-364.8,-320.0
762,-6.4,-364.8,-317.8666666666667
763,0.0,-364.8,-326.4
764,-6.4,-360.5333333333333,-332.8
765,0.0,-360.5333333333333,-332.8
766,0.0,-371.2,-341.3333333333333
767,0.0,-381.8666666666667,-341.3333333333333
768,0.0,-377.6,-345.6
769,2.1333333333333333,-375.46666666666664,-352.0
770,6.4,-377.6,-354.1333333333333
771,6.4,-390.4,-352.0
772,10.666666666666666,-390.4,-349.8666666666667
773,10.666666666666666,-392.5333333333333,-349.8666666666667
774,10.666666666666666,-392.5333333333333,-352.0
775,10.666666666666666,-384.0,-347.73333333333335
776,17.066666666666666,-386.1333333333333,-356.26666666666665
777,14.933333333333334,-384.0,-354.1333333333333
778,17.066666666666666,-386.1333333333333,-356.26666666666665
779,19.2,-386.1333333333333,-360.5333333333333
780,21.333333333333332,-384.0,-362.6666666666667
781,27.733333333333334,-388.26666666666665,-362.6666666666667
782,29.866666666666667,-384.0,-371.2
783,29.866666666666667,-379.73333333333335,-375.46666666666664
784,27.733333333333334,-373.3333333333333,-379.73333333333335
785,23.466666666666665,-381.8666666666667,-377.6
786,17.066666666666666,-379.73333333333335,-381.8666666666667
787,21.333333333333332,-379.73333333333335,-379.73333333333335
788,21.333333333333332,-384.0,-377.6
789,14.933333333333334,-381.8666666666667,-384.0
790,14.933333333333334,-377.6,-377.6
791,19.2,-381.8666666666667,-390.4
792,19.2,-371.2,-392.5333333333333
793,19.2,-377.6,-390.4
794,27.733333333333334,-377.6,-398.93333333333334
795,23.466666666666665,-373.3333333333333,-407.46666666666664
796,23.466666666666665,-371.2,-396.8
797,23.466666666666665,-386.1333333333333,-401.06666666666666
798,14.933333333333334,-371.2,-409.6
799,14.933333333333334,-379.73333333333335,-401.06666666666666
800,19.2,-366.93333333333334,-403.2
801,17.066666666666666,-366.93333333333334,-407.46666666666664
802,14.933333333333334,-369.06666666666666,-416.0
803,23.466666666666665,-360.5333333333333,-420.26666666666665
804,14.933333333333334,-360.5333333333333,-418.1333333333333
805,19.2,-369.06666666666666,-407.46666666666664
806,19.2,-369.06666666666666,-416.0
807,19.2,-362.6666666666667,-418.1333333333333
808,17.066666666666666,-364.8,-411.73333333333335
809,17.066666666666666,-362.6666666666667,-426.6666666666667
810,12.8,-366.93333333333334,-430.93333333333334
811,12.8,-366.93333333333334,-433.06666666666666
812,10.666666666666666,-369.06666666666666,-437.3333333333333
813,4.266666666666667,-362.6666666666667,-433.06666666666666
814,0.0,-369.06666666666666,-433.06666666666666
815,-2.1333333333333333,-377.6,-424.5333333333333
816,-6.4,-381.8666666666667,-426.6666666666667
817,-12.8,-371.2,-428.8
818,-12.8,-366.93333333333334,-433.06666666666666
819,-10.666666666666666,-369.06666666666666,-424.5333333333333
820,-14.933333333333334,-364.8,-416.0
821,-17.066666666666666,-375.46666666666664,-409.6
822,-21.333333333333332,-371.2,-418.1333333333333
823,-19.2,-366.93333333333334,-407.46666666666664
824,-21.333333333333332,-360.5333333333333,-401.06666666666666
825,-10.666666666666666,-356.26666666666665,-394.6666666666667
826,-4.266666666666667,-347.73333333333335,-394.6666666666667
827,-6.4,-330.6666666666667,-401.06666666666666
828,0.0,-328.5333333333333,-396.8
829,2.1333333333333333,-324.26666666666665,-398.93333333333334
830,2.1333333333333333,-322.1333333333333,-401.06666666666666
831,8.533333333333333,-320.0,-390.4
832,2.1333333333333333,-302.93333333333334,-396.8
833,0.0,-300.8,-401.06666666666666
834,2.1333333333333333,-300.8,-403.2
835,0.0,-292.26666666666665,-398.93333333333334
836,-4.266666666666667,-298.6666666666667,-396.8
837,0.0,-296.5333333333333,-392.5333333333333
838,-8.533333333333333,-296.5333333333333,-394.6666666666667
839,-10.666666666666666,-302.93333333333334,-398.93333333333334
840,-10.666666666666666,-302.93333333333334,-403.2
841,-4.266666666666667,-309.3333333333333,-418.1333333333333
842,-4.266666666666667,-313.6,-411.73333333333335
843,-4.266666666666667,-302.93333333333334,-416.0
844,-8.533333333333333,-315.73333333333335,-418.1333333333333
845,-2.1333333333333333,-311.46666666666664,-430.93333333333334
846,0.0,-309.3333333333333,-426.6666666666667
847,0.0,-315.73333333333335,-420.26666666666665
848,0.0,-313.6,-422.4
849,4.266666666666667,-300.8,-435.2
850,6.4,-300.8,-439.46666666666664
851,4.266666666666667,-305.06666666666666,-443.73333333333335
852,4.266666666666667,-300.8,-450.1333333333333
853,6.4,-298.6666666666667,-443.73333333333335
854,4.266666666666667,-294.4,-443.73333333333335
855,2.1333333333333333,-294.4,-439.46666666666664
856,-2.1333333333333333,-298.6666666666667,-448.0
857,0.0,-288.0,-445.8666666666667
858,0.0,-281.6,-454.4
859,-6.4,-270.93333333333334,-452.26666666666665
860,-14.933333333333334,-277.3333333333333,-448.0
861,-10.666666666666666,-270.93333333333334,-456.5333333333333
862,-10.666666666666666,-268.8,-454.4
863,-14.933333333333334,-266.6666666666667,-445.8666666666667
864,-17.066666666666666,-279.46666666666664,-452.26666666666665
865,-21.333333333333332,-294.4,-458.6666666666667
866,-12.8,-279.46666666666664,-454.4
867,-2.1333333333333333,-285.8666666666667,-454.4
868,0.0,-296.5333333333333,-456.5333333333333
869,0.0,-302.93333333333334,-458.6666666666667
870,0.0,-305.06666666666666,-452.26666666666665
871,2.1333333333333333,-313.6,-452.26666666666665
872,14.933333333333334,-322.1333333333333,-458.6666666666667
873,12.8,-322.1333333333333,-454.4
874,14.933333333333334,-322.1333333333333,-445.8666666666667
875,12.8,-311.46666666666664,-450.1333333333333
876,10.666666666666666,-332.8,-460.8
877,17.066666666666666,-302.93333333333334,-456.5333333333333
878,10.666666666666666,-290.1333333333333,-460.8
879,12.8,-285.8666666666667,-458.6666666666667
880,12.8,-279.46666666666664,-458.6666666666667
881,6.4,-270.93333333333334,-452.26666666666665
882,0.0,-266.6666666666667,-454.4
883,-10.666666666666666,-266.6666666666667,-454.4
884,-17.066666666666666,-264.5333333333333,-452.26666666666665
885,-27.733333333333334,-268.8,-450.1333333333333
886,-38.4,-264.5333333333333,-450.1333333333333
887,-40.53333333333333,-268.8,-452.26666666666665
888,-46.93333333333333,-264.5333333333333,-454.4
889,-49.06666666666666,-266.6666666666667,-460.8
890,-51.2,-266.6666666666667,-454.4
891,-53.333333333333336,-273.06666666666666,-462.93333333333334
892,-55.46666666666667,-275.2,-448.0
893,-55.46666666666667,-275.2,-454.4
894,-49.06666666666666,-275.2,-456.5333333333333
895,-49.06666666666666,-273.06666666666666,-462.93333333333334
896,-44.8,-275.2,-469.3333333333333
897,-38.4,-268.8,-460.8
898,-42.666666666666664,-275.2,-482.1333333333333
899,-32.0,-266.6666666666667,-469.3333333333333
900,-25.6,-268.8,-482.1333333333333
901,-29.866666666666667,-268.8,-475.73333333333335
902,-21.333333333333332,-279.46666666666664,-471.46666666666664
903,-29.866666666666667,-273.06666666666666,-480.0
904,-23.466666666666665,-277.3333333333333,-473.59999999999997
905,-8.533333333333333,-277.3333333333333,-475.73333333333335
906,-6.4,-277.3333333333333,-467.2
907,-6.4,-270.93333333333334,-475.73333333333335
908,-4.266666666666667,-268.8,-482.1333333333333
909,-12.8,-279.46666666666664,-480.0
910,-6.4,-281.6,-473.59999999999997
911,-12.8,-281.6,-475.73333333333335
912,-19.2,-273.06666666666666,-458.6666666666667
913,-25.6,-277.3333333333333,-473.59999999999997
914,-19.2,-270.93333333333334,-462.93333333333334
915,-23.466666666666665,-268.8,-467.2
916,-21.333333333333332,-268.8,-473.59999999999997
917,-14.933333333333334,-268.8,-471.46666666666664
918,-14.933333333333334,-268.8,-471.46666666666664
919,-17.066666666666666,-268.8,-462.93333333333334
920,-12.8,-260.26666666666665,-477.8666666666667
921,-10.666666666666666,-268.8,-462.93333333333334
922,-19.2,-260.26666666666665,-458.6666666666667
923,-14.933333333333334,-262.4,-460.8
924,-21.333333333333332,-260.26666666666665,-465.06666666666666
925,-19.2,-258.1333333333333,-462.93333333333334
926,-23.466666666666665,-260.26666666666665,-465.06666666666666
927,-19.2,-256.0,-469.3333333333333
928,-21.333333333333332,-260.26666666666665,-458.6666666666667
929,-27.733333333333334,-262.4,-462.93333333333334
930,-34.13333333333333,-258.1333333333333,-460.8
931,-34.13333333333333,-268.8,-469.3333333333333
932,-38.4,-270.93333333333334,-477.8666666666667
933,-42.666666666666664,-273.06666666666666,-475.73333333333335
934,-42.666666666666664,-270.93333333333334,-471.46666666666664
935,-42.666666666666664,-275.2,-484.26666666666665
936,-44.8,-277.3333333333333,-475.73333333333335
937,-42.666666666666664,-281.6,-480.0
938,-38.4,-281.6,-469.3333333333333
939,-40.53333333333333,-283.73333333333335,-467.2
940,-32.0,-285.8666666666667,-475.73333333333335
941,-23.466666666666665,-283.73333333333335,-473.59999999999997
942,-27.733333333333334,-283.73333333333335,-471.46666666666664
943,-19.2,-285.8666666666667,-469.3333333333333
944,-12.8,-285.8666666666667,-467.2
945,-6.4,-294.4,-467.2
946,-10.666666666666666,-290.1333333333333,-465.06666666666666
947,-10.666666666666666,-288.0,-458.6666666666667
948,-12.8,-288.0,-460.8
949,-14.933333333333334,-290.1333333333333,-465.06666666666666
950,-21.333333333333332,-288.0,-460.8
951,-23.466666666666665,-288.0,-465.06666666666666
952,-29.866666666666667,-281.6,-467.2
953,-29.866666666666667,-288.0,-465.06666666666666
954,-34.13333333333333,-279.46666666666664,-469.3333333333333
955,-38.4,-279.46666666666664,-462.93333333333334
956,-34.13333333333333,-279.46666666666664,-471.46666666666664
957,-40.53333333333333,-283.73333333333335,-473.59999999999997
958,-40.53333333333333,-279.46666666666664,-475.73333333333335
959,-34.13333333333333,-285.8666666666667,-465.06666666666666
960,-36.266666666666666,-285.8666666666667,-465.06666666666666
961,-34.13333333333333,-290.1333333333333,-467.2
962,-38.4,-288.0,-452.26666666666665
963,-27.733333333333334,-298.6666666666667,-462.93333333333334
964,-17.066666666666666,-307.2,-465.06666666666666
965,-21.333333333333332,-302.93333333333334,-469.3333333333333
966,-17.066666666666666,-302.93333333333334,-475.73333333333335
967,-17.066666666666666,-309.3333333333333,-471.46666666666664
968,-10.666666666666666,-309.3333333333333,-469.3333333333333
969,-2.1333333333333333,-309.3333333333333,-477.8666666666667
970,-8.533333333333333,-311.46666666666664,-473.59999999999997
971,-14.933333333333334,-313.6,-475.73333333333335
972,-17.066666666666666,-307.2,-475.73333333333335
973,-23.466666666666665,-311.46666666666664,-469.3333333333333
974,-34.13333333333333,-313.6,-469.3333333333333
975,-38.4,-317.8666666666667,-469.3333333333333
976,-49.06666666666666,-315.73333333333335,-469.3333333333333
977,-55.46666666666667,-311.46666666666664,-475.73333333333335
978,-68.26666666666667,-307.2,-475.73333333333335
979,-61.86666666666667,-315.73333333333335,-467.2
980,-64.0,-313.6,-471.46666666666664
981,-61.86666666666667,-320.0,-465.06666666666666
982,-66.13333333333333,-313.6,-475.73333333333335
983,-59.733333333333334,-311.46666666666664,-475.73333333333335
984,-51.2,-317.8666666666667,-486.4
985,-46.93333333333333,-320.0,-492.8
986,-51.2,-315.73333333333335,-484.26666666666665
987,-46.93333333333333,-311.46666666666664,-488.5333333333333
988,-42.666666666666664,-317.8666666666667,-488.5333333333333
989,-44.8,-311.46666666666664,-484.26666666666665
990,-42.666666666666664,-320.0,-488.5333333333333
991,-40.53333333333333,-311.46666666666664,-486.4
992,-38.4,-317.8666666666667,-475.73333333333335
993,-42.666666666666664,-313.6,-475.73333333333335
994,-38.4,-315.73333333333335,-473.59999999999997
995,-46.93333333333333,-313.6,-477.8666666666667
996,-40.53333333333333,-317.8666666666667,-467.2
997,-44.8,-324.26666666666665,-467.2
998,-40.53333333333333,-330.6666666666667,-471.46666666666664
999,-42.666666666666664,-337.06666666666666,-467.2
1000,-42.666666666666664,-341.3333333333333,-473.59999999999997
1001,-44.8,-341.3333333333333,-477.8666666666667
1002,-44.8,-343.46666666666664,-465.06666666666666
1003,-42.666666666666664,-341.3333333333333,-473.59999999999997
1004,-42.666666666666664,-341.3333333333333,-473.59999999999997
1005,-42.666666666666664,-352.0,-471.46666666666664
1006,-42.666666666666664,-347.73333333333335,-467.2
1007,-46.93333333333333,-339.2,-465.06666666666666
1008,-49.06666666666666,-349.8666666666667,-458.6666666666667
1009,-55.46666666666667,-341.3333333333333,-458.6666666666667
1010,-49.06666666666666,-349.8666666666667,-460.8
1011,-64.0,-339.2,-452.26666666666665
1012,-59.733333333333334,-334.93333333333334,-445.8666666666667
1013,-55.46666666666667,-337.06666666666666,-443.73333333333335
1014,-53.333333333333336,-328.5333333333333,-448.0
1015,-46.93333333333333,-324.26666666666665,-439.46666666666664
1016,-44.8,-326.4,-439.46666666666664
1017,-44.8,-324.26666666666665,-433.06666666666666
1018,-42.666666666666664,-328.5333333333333,-439.46666666666664
1019,-34.13333333333333,-324.26666666666665,-430.93333333333334
1020,-36.266666666666666,-317.8666666666667,-435.2
1021,-36.266666666666666,-320.0,-435.2
1022,-38.4,-324.26666666666665,-437.3333333333333
1023,-42.666666666666664,-322.1333333333333,-430.93333333333334
1024,-42.666666666666664,-326.4,-439.46666666666664
1025,-40.53333333333333,-330.6666666666667,-439.46666666666664
1026,-57.6,-337.06666666666666,-439.46666666666664
1027,-49.06666666666666,-339.2,-441.59999999999997
1028,-59.733333333333334,-339.2,-443.73333333333335
1029,-59.733333333333334,-360.5333333333333,-462.93333333333334
1030,-64.0,-352.0,-452.26666666666665
1031,-64.0,-354.1333333333333,-448.0
1032,-66.13333333333333,-360.5333333333333,-443.73333333333335
1033,-64.0,-364.8,-452.26666666666665
1034,-61.86666666666667,-358.4,-460.8
1035,-55.46666666666667,-364.8,-456.5333333333333
1036,-53.333333333333336,-364.8,-456.5333333333333
1037,-49.06666666666666,-360.5333333333333,-460.8
1038,-49.06666666666666,-364.8,-460.8
1039,-40.53333333333333,-362.6666666666667,-460.8
1040,-49.06666666666666,-362.6666666666667,-467.2
1041,-51.2,-356.26666666666665,-460.8
1042,-49.06666666666666,-352.0,-465.06666666666666
1043,-46.93333333333333,-352.0,-469.3333333333333
1044,-49.06666666666666,-349.8666666666667,-477.8666666666667
1045,-49.06666666666666,-352.0,-473.59999999999997
1046,-46.93333333333333,-352.0,-475.73333333333335
1047,-59.733333333333334,-356.26666666666665,-467.2
1048,-64.0,-358.4,-473.59999999999997
1049,-61.86666666666667,-360.5333333333333,-475.73333333333335
1050,-64.0,-360.5333333333333,-469.3333333333333
1051,-64.0,-362.6666666666667,-471.46666666666664
1052,-64.0,-364.8,-467.2
1053,-68.26666666666667,-366.93333333333334,-462.93333333333334
1054,-70.4,-366.93333333333334,-469.3333333333333
1055,-70.4,-369.06666666666666,-465.06666666666666
1056,-72.53333333333333,-369.06666666666666,-462.93333333333334
1057,-74.66666666666667,-379.73333333333335,-458.6666666666667
1058,-68.26666666666667,-375.46666666666664,-460.8
1059,-66.13333333333333,-373.3333333333333,-462.93333333333334
1060,-57.6,-373.3333333333333,-454.4
1061,-68.26666666666667,-373.3333333333333,-454.4
1062,-57.6,-377.6,-454.4
1063,-66.13333333333333,-379.73333333333335,-456.5333333333333
1064,-55.46666666666667,-379.73333333333335,-452.26666666666665
1065,-64.0,-379.73333333333335,-452.26666666666665
1066,-51.2,-388.26666666666665,-452.26666666666665
1067,-44.8,-388.26666666666665,-458.6666666666667
1068,-42.666666666666664,-388.26666666666665,-458.6666666666667
1069,-46.93333333333333,-373.3333333333333,-460.8
1070,-40.53333333333333,-369.06666666666666,-458.6666666666667
1071,-34.13333333333333,-358.4,-475.73333333333335
1072,-38.4,-366.93333333333334,-456.5333333333333
1073,-36.266666666666666,-360.5333333333333,-458.6666666666667
1074,-42.666666666666664,-358.4,-458.6666666666667
1075,-49.06666666666666,-352.0,-445.8666666666667
1076,-40.53333333333333,-352.0,-454.4
1077,-44.8,-341.3333333333333,-448.0
1078,-46.93333333333333,-343.46666666666664,-448.0
1079,-42.666666666666664,-343.46666666666664,-435.2
1080,-42.666666666666664,-345.6,-435.2
1081,-53.333333333333336,-337.06666666666666,-441.59999999999997
1082,-44.8,-337.06666666666666,-433.06666666666666
1083,-46.93333333333333,-337.06666666666666,-433.06666666666666
1084,-44.8,-341.3333333333333,-433.06666666666666
1085,-44.8,-339.2,-420.26666666666665
1086,-38.4,-337.06666666666666,-428.8
1087,-34.13333333333333,-343.46666666666664,-430.93333333333334
1088,-32.0,-345.6,-430.93333333333334
1089,-36.266666666666666,-345.6,-430.93333333333334
1090,-40.53333333333333,-347.73333333333335,-433.06666666666666
1091,-40.53333333333333,-352.0,-428.8
1092,-42.666666666666664,-349.8666666666667,-426.6666666666667
1093,-38.4,-341.3333333333333,-430.93333333333334
1094,-42.666666666666664,-343.46666666666664,-433.06666666666666
1095,-38.4,-349.8666666666667,-437.3333333333333
1096,-46.93333333333333,-347.73333333333335,-439.46666666666664
1097,-44.8,-345.6,-439.46666666666664
1098,-34.13333333333333,-343.46666666666664,-435.2
1099,-36.266666666666666,-341.3333333333333,-437.3333333333333
1100,-34.13333333333333,-341.3333333333333,-439.46666666666664
1101,-42.666666666666664,-334.93333333333334,-428.8
1102,-34.13333333333333,-334.93333333333334,-428.8
1103,-36.266666666666666,-332.8,-420.26666666666665
1104,-32.0,-337.06666666666666,-426.6666666666667
1105,-29.866666666666667,-337.06666666666666,-413.8666666666667
1106,-36.266666666666666,-334.93333333333334,-418.1333333333333
1107,-40.53333333333333,-330.6666666666667,-411.73333333333335
1108,-38.4,-334.93333333333334,-407.46666666666664
1109,-34.13333333333333,-337.06666666666666,-407.46666666666664
1110,-23.466666666666665,-343.46666666666664,-416.0
1111,-27.733333333333334,-334.93333333333334,-405.3333333333333
1112,-19.2,-341.3333333333333,-403.2
1113,-27.733333333333334,-341.3333333333333,-409.6
1114,-21.333333333333332,-345.6,-407.46666666666664
1115,-34.13333333333333,-343.46666666666664,-411.73333333333335
1116,-21.333333333333332,-354.1333333333333,-388.26666666666665
1117,-29.866666666666667,-339.2,-407.46666666666664
1118,-29.866666666666667,-341.3333333333333,-409.6
1119,-25.6,-347.73333333333335,-418.1333333333333
1120,-32.0,-343.46666666666664,-409.6
1121,-34.13333333333333,-347.73333333333335,-416.0
1122,-36.266666666666666,-347.73333333333335,-407.46666666666664
1123,-34.13333333333333,-349.8666666666667,-401.06666666666666
1124,-36.266666666666666,-347.73333333333335,-411.73333333333335
1125,-29.866666666666667,-343.46666666666664,-413.8666666666667
1126,-27.733333333333334,-352.0,-422.4
1127,-29.866666666666667,-343.46666666666664,-422.4
1128,-25.6,-347.73333333333335,-424.5333333333333
1129,-29.866666666666667,-347.73333333333335,-418.1333333333333
1130,-17.066666666666666,-341.3333333333333,-409.6
1131,-23.466666666666665,-339.2,-413.8666666666667
1132,-19.2,-343.46666666666664,-422.4
1133,-23.466666666666665,-339.2,-422.4
1134,-19.2,-352.0,-413.8666666666667
1135,-19.2,-345.6,-411.73333333333335
1136,-23.466666666666665,-349.8666666666667,-411.73333333333335
1137,-32.0,-354.1333333333333,-407.46666666666664
1138,-29.866666666666667,-349.8666666666667,-409.6
1139,-34.13333333333333,-347.73333333333335,-411.73333333333335
1140,-38.4,-352.0,-407.46666666666664
1141,-38.4,-349.8666666666667,-413.8666666666667
1142,-38.4,-349.8666666666667,-411.73333333333335
1143,-38.4,-352.0,-426.6666666666667
1144,-38.4,-352.0,-418.1333333333333
1145,-38.4,-345.6,-426.6666666666667
1146,-36.266666666666666,-347.73333333333335,-428.8
1147,-32.0,-343.46666666666664,-424.5333333333333
1148,-38.4,-343.46666666666664,-418.1333333333333
1149,-29.866666666666667,-352.0,-426.6666666666667
1150,-34.13333333333333,-352.0,-418.1333333333333
1151,-32.0,-352.0,-420.26666666666665
1152,-29.866666666666667,-352.0,-407.46666666666664
1153,-34.13333333333333,-352.0,-416.0
1154,-32.0,-356.26666666666665,-411.73333333333335
1155,-25.6,-358.4,-409.6
1156,-32.0,-360.5333333333333,-416.0
1157,-27.733333333333334,-360.5333333333333,-411.73333333333335
1158,-32.0,-360.5333333333333,-409.6
1159,-36.266666666666666,-354.1333333333333,-411.73333333333335
1160,-34.13333333333333,-356.26666666666665,-420.26666666666665
1161,-27.733333333333334,-362.6666666666667,-420.26666666666665
1162,-34.13333333333333,-364.8,-426.6666666666667
1163,-27.733333333333334,-362.6666666666667,-424.5333333333333
1164,-29.866666666666667,-360.5333333333333,-433.06666666666666
1165,-36.266666666666666,-356.26666666666665,-424.5333333333333
1166,-38.4,-354.1333333333333,-428.8
1167,-32.0,-360.5333333333333,-433.06666666666666
1168,-38.4,-356.26666666666665,-428.8
1169,-42.666666666666664,-352.0,-433.06666666666666
1170,-44.8,-352.0,-430.93333333333334
1171,-42.666666666666664,-354.1333333333333,-424.5333333333333
1172,-49.06666666666666,-339.2,-424.5333333333333
1173,-42.666666666666664,-347.73333333333335,-422.4
1174,-36.266666666666666,-347.73333333333335,-422.4
1175,-44.8,-347.73333333333335,-418.1333333333333
1176,-38.4,-345.6,-416.0
1177,-36.266666666666666,-349.8666666666667,-411.73333333333335
1178,-38.4,-341.3333333333333,-418.1333333333333
1179,-32.0,-352.0,-420.26666666666665
1180,-34.13333333333333,-341.3333333333333,-416.0
1181,-29.866666666666667,-341.3333333333333,-422.4
1182,-29.866666666666667,-345.6,-416.0
1183,-27.733333333333334,-343.46666666666664,-418.1333333333333
1184,-27.733333333333334,-349.8666666666667,-420.26666666666665
1185,-29.866666666666667,-345.6,-411.73333333333335
1186,-27.733333333333334,-343.46666666666664,-420.26666666666665
1187,-23.466666666666665,-349.8666666666667,-426.6666666666667
1188,-25.6,-343.46666666666664,-426.6666666666667
1189,-27.733333333333334,-345.6,-422.4
1190,-25.6,-347.73333333333335,-433.06666666666666
1191,-23.466666666666665,-345.6,-418.1333333333333
1192,-34.13333333333333,-345.6,-426.6666666666667
1193,-32.0,-341.3333333333333,-426.6666666666667
1194,-29.866666666666667,-343.46666666666664,-418.1333333333333
1195,-29.866666666666667,-337.06666666666666,-424.5333333333333
1196,-27.733333333333334,-347.73333333333335,-424.5333333333333
1197,-34.13333333333333,-345.6,-418.1333333333333
1198,-34.13333333333333,-339.2,-411.73333333333335
1199,-38.4,-349.8666666666667,-407.46666666666664
1200,-34.13333333333333,-347.73333333333335,-422.4
1201,-32.0,-354.1333333333333,-409.6
1202,-36.266666666666666,-352.0,-428.8
1203,-36.266666666666666,-349.8666666666667,-416.0
1204,-40.53333333333333,-354.1333333333333,-424.5333333333333
1205,-29.866666666666667,-352.0,-409.6
1206,-34.13333333333333,-347.73333333333335,-416.0
1207,-36.266666666666666,-356.26666666666665,-422.4
1208,-32.0,-360.5333333333333,-418.1333333333333
1209,-29.866666666666667,-364.8,-420.26666666666665
1210,-29.866666666666667,-354.1333333333333,-413.8666666666667
1211,-32.0,-358.4,-416.0
1212,-27.733333333333334,-349.8666666666667,-413.8666666666667
1213,-29.866666666666667,-349.8666666666667,-416.0
1214,-32.0,-349.8666666666667,-413.8666666666667
1215,-27.733333333333334,-352.0,-416.0
1216,-36.266666666666666,-343.46666666666664,-409.6
1217,-40.53333333333333,-343.46666666666664,-413.8666666666667
1218,-27.733333333333334,-354.1333333333333,-405.3333333333333
1219,-36.266666666666666,-345.6,-403.2
1220,-27.733333333333334,-347.73333333333335,-411.73333333333335
1221,-29.866666666666667,-349.8666666666667,-407.46666666666664
1222,-29.866666666666667,-356.26666666666665,-413.8666666666667
1223,-34.13333333333333,-354.1333333333333,-405.3333333333333
1224,-27.733333333333334,-349.8666666666667,-407.46666666666664
1225,-36.266666666666666,-362.6666666666667,-409.6
1226,-29.866666666666667,-354.1333333333333,-409.6
1227,-34.13333333333333,-352.0,-411.73333333333335
1228,-36.266666666666666,-349.8666666666667,-409.6
1229,-32.0,-358.4,-413.8666666666667
1230,-34.13333333333333,-352.0,-411.73333333333335
1231,-29.866666666666667,-362.6666666666667,-411.73333333333335
1232,-34.13333333333333,-347.73333333333335,-418.1333333333333
1233,-34.13333333333333,-349.8666666666667,-407.46666666666664
1234,-36.266666666666666,-354.1333333333333,-416.0
1235,-40.53333333333333,-347.73333333333335,-411.73333333333335
1236,-34.13333333333333,-349.8666666666667,-413.8666666666667
1237,-36.266666666666666,-356.26666666666665,-413.8666666666667
1238,-34.13333333333333,-354.1333333333333,-420.26666666666665
1239,-38.4,-354.1333333333333,-418.1333333333333
1240,-36.266666666666666,-349.8666666666667,-411.73333333333335
1241,-40.53333333333333,-356.26666666666665,-407.46666666666664
1242,-29.866666666666667,-352.0,-418.1333333333333
1243,-29.866666666666667,-352.0,-416.0
1244,-36.266666666666666,-352.0,-420.26666666666665
1245,-25.6,-354.1333333333333,-416.0
1246,-32.0,-324.26666666666665,-409.6
1247,-36.266666666666666,-354.1333333333333,-420.26666666666665
1248,-32.0,-352.0,-418.1333333333333
1249,-36.266666666666666,-347.73333333333335,-420.26666666666665
1250,-38.4,-356.26666666666665,-422.4
1251,-34.13333333333333,-354.1333333333333,-416.0
1252,-40.53333333333333,-345.6,-416.0
1253,-42.666666666666664,-349.8666666666667,-424.5333333333333
1254,-40.53333333333333,-352.0,-409.6
1255,-36.266666666666666,-352.0,-418.1333333333333
1256,-46.93333333333333,-341.3333333333333,-416.0
1257,-40.53333333333333,-352.0,-416.0
1258,-38.4,-347.73333333333335,-411.73333333333335
1259,-44.8,-354.1333333333333,-420.26666666666665
1260,-36.266666666666666,-354.1333333333333,-422.4
1261,-42.666666666666664,-354.1333333333333,-418.1333333333333
1262,-36.266666666666666,-354.1333333333333,-411.73333333333335
1263,-38.4,-356.26666666666665,-407.46666666666664
1264,-27.733333333333334,-356.26666666666665,-411.73333333333335
1265,-36.266666666666666,-356.26666666666665,-413.8666666666667
1266,-27.733333333333334,-356.26666666666665,-409.6
1267,-36.266666666666666,-347.73333333333335,-413.8666666666667
1268,-44.8,-354.1333333333333,-416.0
1269,-36.266666666666666,-354.1333333333333,-422.4
1270,-36.266666666666666,-356.26666666666665,-416.0
1271,-42.666666666666664,-349.8666666666667,-418.1333333333333
1272,-42.666666666666664,-352.0,-416.0
1273,-36.266666666666666,-356.26666666666665,-411.73333333333335
1274,-42.666666666666664,-349.8666666666667,-416.0
1275,-42.666666666666664,-349.8666666666667,-407.46666666666664
1276,-40.53333333333333,-356.26666666666665,-409.6
1277,-38.4,-356.26666666666665,-411.73333333333335
1278,-42.666666666666664,-358.4,-418.1333333333333
1279,-29.866666666666667,-358.4,-416.0
1280,-40.53333333333333,-358.4,-418.1333333333333
1281,-38.4,-354.1333333333333,-416.0
1282,-40.53333333333333,-356.26666666666665,-416.0
1283,-38.4,-354.1333333333333,-411.73333333333335
1284,-36.266666666666666,-356.26666666666665,-409.6
1285,-46.93333333333333,-358.4,-418.1333333333333
1286,-34.13333333333333,-364.8,-416.0
1287,-42.666666666666664,-352.0,-413.8666666666667
1288,-42.666666666666664,-358.4,-418.1333333333333
1289,-44.8,-352.0,-413.8666666666667
1290,-44.8,-360.5333333333333,-418.1333333333333
1291,-40.53333333333333,-349.8666666666667,-420.26666666666665
1292,-34.13333333333333,-352.0,-407.46666666666664
1293,-32.0,-354.1333333333333,-416.0
1294,-44.8,-347.73333333333335,-418.1333333333333
1295,-38.4,-356.26666666666665,-420.26666666666665
1296,-34.13333333333333,-356.26666666666665,-418.1333333333333
1297,-36.266666666666666,-352.0,-411.73333333333335
1298,-29.866666666666667,-349.8666666666667,-416.0
1299,-32.0,-347.73333333333335,-411.73333333333335
1300,-36.266666666666666,-354.1333333333333,-407.46666666666664
1301,-38.4,-352.0,-420.26666666666665
1302,-34.13333333333333,-356.26666666666665,-407.46666666666664
1303,-36.266666666666666,-358.4,-418.1333333333333
1304,-38.4,-358.4,-411.73333333333335
1305,-38.4,-356.26666666666665,-413.8666666666667
1306,-40.53333333333333,-354.1333333333333,-416.0
1307,-36.266666666666666,-360.5333333333333,-413.8666666666667
1308,-46.93333333333333,-356.26666666666665,-416.0
1309,-42.666666666666664,-345.6,-418.1333333333333
1310,-34.13333333333333,-358.4,-418.1333333333333
1311,-38.4,-354.1333333333333,-416.0
1312,-27.733333333333334,-352.0,-411.73333333333335
1313,-40.53333333333333,-352.0,-418.1333333333333
1314,-42.666666666666664,-352.0,-416.0
1315,-38.4,-349.8666666666667,-416.0
1316,-38.4,-354.1333333333333,-416.0
1317,-42.666666666666664,-356.26666666666665,-413.8666666666667
1318,-42.666666666666664,-356.26666666666665,-413.8666666666667
1319,-38.4,-358.4,-409.6
1320,-40.53333333333333,-356.26666666666665,-411.73333333333335
1321,-36.266666666666666,-360.5333333333333,-418.1333333333333
1322,-36.266666666666666,-360.5333333333333,-409.6
1323,-32.0,-356.26666666666665,-413.8666666666667
1324,-32.0,-358.4,-407.46666666666664
1325,-29.866666666666667,-354.1333333333333,-407.46666666666664
1326,-34.13333333333333,-349.8666666666667,-416.0
1327,-29.866666666666667,-358.4,-409.6
1328,-27.733333333333334,-356.26666666666665,-413.8666666666667
1329,-32.0,-354.1333333333333,-411.73333333333335
1330,-36.266666666666666,-354.1333333333333,-407.46666666666664
1331,-36.266666666666666,-364.8,-418.1333333333333
1332,-34.13333333333333,-360.5333333333333,-407.46666666666664
1333,-36.266666666666666,-352.0,-409.6
1334,-36.266666666666666,-352.0,-418.1333333333333
1335,-36.266666666666666,-362.6666666666667,-411.73333333333335
1336,-36.266666666666666,-358.4,-416.0
1337,-38.4,-358.4,-416.0
1338,-40.53333333333333,-356.26666666666665,-409.6
1339,-49.06666666666666,-358.4,-407.46666666666664
1340,-34.13333333333333,-358.4,-409.6
1341,-36.266666666666666,-360.5333333333333,-407.46666666666664
1342,-38.4,-358.4,-413.8666666666667
1343,-32.0,-349.8666666666667,-420.26666666666665
1344,-36.266666666666666,-356.26666666666665,-409.6
1345,-40.53333333333333,-349.8666666666667,-413.8666666666667
1346,-36.266666666666666,-358.4,-409.6
1347,-32.0,-360.5333333333333,-405.3333333333333
1348,-32.0,-352.0,-413.8666666666667
1349,-40.53333333333333,-352.0,-403.2
1350,-32.0,-356.26666666666665,-409.6
1351,-32.0,-352.0,-407.46666666666664
1352,-32.0,-360.5333333333333,-401.06666666666666
1353,-29.866666666666667,-358.4,-409.6
1354,-32.0,-358.4,-409.6
1355,-19.2,-343.46666666666664,-398.93333333333334
1356,-32.0,-349.8666666666667,-411.73333333333335
1357,-32.0,-358.4,-413.8666666666667
1358,-40.53333333333333,-352.0,-416.0
1359,-36.266666666666666,-356.26666666666665,-401.06666666666666
1360,-36.266666666666666,-354.1333333333333,-413.8666666666667
1361,-36.266666666666666,-356.26666666666665,-405.3333333333333
1362,-34.13333333333333,-362.6666666666667,-409.6
1363,-34.13333333333333,-360.5333333333333,-424.5333333333333
1364,-34.13333333333333,-362.6666666666667,-411.73333333333335
1365,-32.0,-358.4,-409.6
1366,-38.4,-362.6666666666667,-411.73333333333335
1367,-36.266666666666666,-362.6666666666667,-403.2
1368,-44.8,-358.4,-405.3333333333333
1369,-40.53333333333333,-364.8,-409.6
1370,-36.266666666666666,-362.6666666666667,-411.73333333333335
1371,-36.266666666666666,-362.6666666666667,-407.46666666666664
1372,-36.266666666666666,-362.6666666666667,-416.0
1373,-36.266666666666666,-360.5333333333333,-407.46666666666664
1374,-42.666666666666664,-356.26666666666665,-416.0
1375,-34.13333333333333,-358.4,-401.06666666666666
1376,-36.266666666666666,-360.5333333333333,-416.0
1377,-32.0,-352.0,-416.0
1378,-32.0,-362.6666666666667,-413.8666666666667
1379,-32.0,-354.1333333333333,-411.73333333333335
1380,-38.4,-354.1333333333333,-409.6
1381,-36.266666666666666,-360.5333333333333,-405.3333333333333
1382,-38.4,-358.4,-401.06666666666666
1383,-36.266666666666666,-360.5333333333333,-403.2
1384,-36.266666666666666,-360.5333333333333,-405.3333333333333
1385,-32.0,-362.6666666666667,-407.46666666666664
1386,-29.866666666666667,-366.93333333333334,-407.46666666666664
1387,-29.866666666666667,-364.8,-416.0
1388,-27.733333333333334,-362.6666666666667,-407.46666666666664
1389,-25.6,-375.46666666666664,-407.46666666666664
1390,-34.13333333333333,-366.93333333333334,-409.6
1391,-27.733333333333334,-369.06666666666666,-407.46666666666664
1392,-29.866666666666667,-366.93333333333334,-407.46666666666664
1393,-32.0,-366.93333333333334,-401.06666666666666
1394,-34.13333333333333,-362.6666666666667,-409.6
1395,-36.266666666666666,-362.6666666666667,-413.8666666666667
1396,-29.866666666666667,-369.06666666666666,-407.46666666666664
1397,-42.666666666666664,-360.5333333333333,-401.06666666666666
1398,-36.266666666666666,-358.4,-407.46666666666664
1399,-36.266666666666666,-360.5333333333333,-405.3333333333333
1400,-40.53333333333333,-362.6666666666667,-411.73333333333335
1401,-42.666666666666664,-362.6666666666667,-409.6
1402,-38.4,-366.93333333333334,-405.3333333333333
1403,-29.866666666666667,-366.93333333333334,-398.93333333333334
1404,-38.4,-362.6666666666667,-409.6
1405,-27.733333333333334,-373.3333333333333,-403.2
1406,-32.0,-369.06666666666666,-411.73333333333335
1407,-27.733333333333334,-366.93333333333334,-407.46666666666664
1408,-32.0,-369.06666666666666,-405.3333333333333
1409,-29.866666666666667,-369.06666666666666,-409.6
1410,-34.13333333333333,-375.46666666666664,-407.46666666666664
1411,-32.0,-369.06666666666666,-407.46666666666664
1412,-29.866666666666667,-366.93333333333334,-409.6
1413,-27.733333333333334,-373.3333333333333,-403.2
1414,-36.266666666666666,-371.2,-401.06666666666666
1415,-36.266666666666666,-369.06666666666666,-396.8
1416,-32.0,-371.2,-407.46666666666664
1417,-36.266666666666666,-369.06666666666666,-398.93333333333334
1418,-29.866666666666667,-369.06666666666666,-390.4
1419,-36.266666666666666,-366.93333333333334,-407.46666666666664
1420,-29.866666666666667,-371.2,-396.8
1421,-36.266666666666666,-362.6666666666667,-398.93333333333334
1422,-40.53333333333333,-369.06666666666666,-401.06666666666666
1423,-36.266666666666666,-366.93333333333334,-394.6666666666667
1424,-34.13333333333333,-366.93333333333334,-392.5333333333333
1425,-36.266666666666666,-369.06666666666666,-398.93333333333334
1426,-38.4,-362.6666666666667,-398.93333333333334
1427,-27.733333333333334,-364.8,-398.93333333333334
1428,-40.53333333333333,-364.8,-394.6666666666667
1429,-34.13333333333333,-366.93333333333334,-398.93333333333334
1430,-32.0,-377.6,-390.4
1431,-36.266666666666666,-366.93333333333334,-396.8
1432,-34.13333333333333,-369.06666666666666,-401.06666666666666
1433,-36.266666666666666,-373.3333333333333,-394.6666666666667
1434,-38.4,-377.6,-394.6666666666667
1435,-38.4,-371.2,-405.3333333333333
1436,-36.266666666666666,-371.2,-405.3333333333333
1437,-38.4,-373.3333333333333,-392.5333333333333
1438,-36.266666666666666,-377.6,-403.2
1439,-36.266666666666666,-371.2,-403.2
1440,-34.13333333333333,-371.2,-401.06666666666666
1441,-40.53333333333333,-371.2,-403.2
1442,-44.8,-371.2,-401.06666666666666
1443,-34.13333333333333,-362.6666666666667,-401.06666666666666
1444,-40.53333333333333,-366.93333333333334,-405.3333333333333
1445,-36.266666666666666,-369.06666666666666,-394.6666666666667
1446,-36.266666666666666,-362.6666666666667,-398.93333333333334
1447,-29.866666666666667,-375.46666666666664,-401.06666666666666
1448,-34.13333333333333,-371.2,-394.6666666666667
1449,-32.0,-373.3333333333333,-398.93333333333334
1450,-34.13333333333333,-369.06666666666666,-398.93333333333334
1451,-40.53333333333333,-373.3333333333333,-401.06666666666666
1452,-27.733333333333334,-381.8666666666667,-398.93333333333334
1453,-38.4,-373.3333333333333,-403.2
1454,-36.266666666666666,-375.46666666666664,-405.3333333333333
1455,-40.53333333333333,-371.2,-401.06666666666666
1456,-36.266666666666666,-377.6,-409.6
1457,-36.266666666666666,-375.46666666666664,-405.3333333333333
1458,-36.266666666666666,-366.93333333333334,-403.2
1459,-32.0,-373.3333333333333,-411.73333333333335
1460,-38.4,-371.2,-403.2
1461,-36.266666666666666,-369.06666666666666,-398.93333333333334
1462,-34.13333333333333,-364.8,-407.46666666666664
1463,-34.13333333333333,-366.93333333333334,-398.93333333333334
1464,-36.266666666666666,-384.0,-403.2
1465,-34.13333333333333,-377.6,-398.93333333333334
1466,-36.266666666666666,-375.46666666666664,-394.6666666666667
1467,-36.266666666666666,-375.46666666666664,-403.2
1468,-27.733333333333334,-381.8666666666667,-396.8
1469,-40.53333333333333,-384.0,-394.6666666666667
1470,-34.13333333333333,-384.0,-398.93333333333334
1471,-36.266666666666666,-384.0,-396.8
1472,-34.13333333333333,-377.6,-398.93333333333334
1473,-36.266666666666666,-375.46666666666664,-392.5333333333333
1474,-34.13333333333333,-373.3333333333333,-396.8
1475,-36.266666666666666,-373.3333333333333,-403.2
1476,-36.266666666666666,-379.73333333333335,-394.6666666666667
1477,-42.666666666666664,-369.06666666666666,-392.5333333333333
1478,-34.13333333333333,-375.46666666666664,-392.5333333333333
1479,-32.0,-366.93333333333334,-394.6666666666667
1480,-34.13333333333333,-373.3333333333333,-396.8
1481,-36.266666666666666,-375.46666666666664,-403.2
1482,-40.53333333333333,-371.2,-396.8
1483,-36.266666666666666,-371.2,-392.5333333333333
1484,-38.4,-379.73333333333335,-390.4
1485,-36.266666666666666,-377.6,-392.5333333333333
1486,-32.0,-377.6,-401.06666666666666
1487,-38.4,-373.3333333333333,-396.8
1488,-25.6,-386.1333333333333,-398.93333333333334
1489,-36.266666666666666,-381.8666666666667,-386.1333333333333
1490,-36.266666666666666,-377.6,-390.4
1491,-32.0,-377.6,-394.6666666666667
1492,-29.866666666666667,-377.6,-386.1333333333333
1493,-36.266666666666666,-375.46666666666664,-384.0
1494,-38.4,-379.73333333333335,-386.1333333333333
1495,-42.666666666666664,-381.8666666666667,-386.1333333333333
1496,-34.13333333333333,-379.73333333333335,-386.1333333333333
1497,-29.866666666666667,-377.6,-392.5333333333333
1498,-36.266666666666666,-375.46666666666664,-384.0
1499,-36.266666666666666,-377.6,-384.0
1500,-40.53333333333333,-373.3333333333333,-384.0
1501,-36.266666666666666,-377.6,-388.26666666666665
1502,-32.0,-379.73333333333335,-388.26666666666665
1503,-36.266666666666666,-375.46666666666664,-394.6666666666667
1504,-34.13333333333333,-381.8666666666667,-394.6666666666667
1505,-38.4,-381.8666666666667,-390.4
1506,-34.13333333333333,-381.8666666666667,-388.26666666666665
1507,-40.53333333333333,-377.6,-388.26666666666665
1508,-38.4,-377.6,-398.93333333333334
1509,-44.8,-377.6,-392.5333333333333
1510,-40.53333333333333,-386.1333333333333,-386.1333333333333
1511,-42.666666666666664,-384.0,-394.6666666666667
1512,-38.4,-386.1333333333333,-398.93333333333334
1513,-38.4,-381.8666666666667,-398.93333333333334
1514,-34.13333333333333,-388.26666666666665,-396.8
1515,-36.266666666666666,-386.1333333333333,-396.8
1516,-34.13333333333333,-390.4,-388.26666666666665
1517,-34.13333333333333,-386.1333333333333,-390.4
1518,-32.0,-392.5333333333333,-392.5333333333333
1519,-29.866666666666667,-388.26666666666665,-394.6666666666667
1520,-32.0,-386.1333333333333,-396.8
1521,-34.13333333333333,-386.1333333333333,-386.1333333333333
1522,-36.266666666666666,-386.1333333333333,-392.5333333333333
1523,-38.4,-384.0,-405.3333333333333
1524,-42.666666666666664,-384.0,-394.6666666666667
1525,-42.666666666666664,-386.1333333333333,-392.5333333333333
1526,-44.8,-381.8666666666667,-390.4
1527,-44.8,-384.0,-392.5333333333333
1528,-46.93333333333333,-375.46666666666664,-392.5333333333333
1529,-46.93333333333333,-371.2,-390.4
1530,-51.2,-375.46666666666664,-384.0
1531,-49.06666666666666,-381.8666666666667,-386.1333333333333
1532,-46.93333333333333,-375.46666666666664,-386.1333333333333
1533,-49.06666666666666,-375.46666666666664,-388.26666666666665
1534,-38.4,-386.1333333333333,-392.5333333333333
1535,-44.8,-379.73333333333335,-388.26666666666665
1536,-44.8,-384.0,-394.6666666666667
1537,-42.666666666666664,-377.6,-390.4
1538,-44.8,-377.6,-392.5333333333333
1539,-36.266666666666666,-379.73333333333335,-392.5333333333333
1540,-38.4,-381.8666666666667,-388.26666666666665
1541,-44.8,-377.6,-388.26666666666665
1542,-46.93333333333333,-377.6,-390.4
1543,-40.53333333333333,-379.73333333333335,-388.26666666666665
1544,-38.4,-375.46666666666664,-394.6666666666667
1545,-40.53333333333333,-371.2,-388.26666666666665
1546,-29.866666666666667,-379.73333333333335,-390.4
1547,-38.4,-375.46666666666664,-381.8666666666667
1548,-44.8,-373.3333333333333,-388.26666666666665
1549,-40.53333333333333,-373.3333333333333,-392.5333333333333
1550,-40.53333333333333,-377.6,-388.26666666666665
1551,-40.53333333333333,-386.1333333333333,-377.6
1552,-38.4,-375.46666666666664,-386.1333333333333
1553,-42.666666666666664,-377.6,-388.26666666666665
1554,-42.666666666666664,-373.3333333333333,-390.4
1555,-34.13333333333333,-377.6,-390.4
1556,-38.4,-375.46666666666664,-388.26666666666665
1557,-40.53333333333333,-371.2,-381.8666666666667
1558,-32.0,-381.8666666666667,-392.5333333333333
1559,-36.266666666666666,-379.73333333333335,-390.4
1560,-36.266666666666666,-381.8666666666667,-386.1333333333333
1561,-34.13333333333333,-379.73333333333335,-377.6
1562,-36.266666666666666,-384.0,-398.93333333333334
1563,-38.4,-375.46666666666664,-396.8
1564,-32.0,-371.2,-398.93333333333334
1565,-38.4,-369.06666666666666,-396.8
1566,-36.266666666666666,-377.6,-396.8
1567,-32.0,-381.8666666666667,-388.26666666666665
1568,-32.0,-377.6,-398.93333333333334
1569,-29.866666666666667,-384.0,-392.5333333333333
1570,-25.6,-377.6,-416.0
1571,-19.2,-384.0,-407.46666666666664
1572,-25.6,-386.1333333333333,-405.3333333333333
1573,-17.066666666666666,-394.6666666666667,-398.93333333333334
1574,-17.066666666666666,-392.5333333333333,-420.26666666666665
1575,-19.2,-390.4,-422.4
1576,-19.2,-390.4,-428.8
1577,-23.466666666666665,-396.8,-430.93333333333334
1578,-29.866666666666667,-396.8,-439.46666666666664
1579,-36.266666666666666,-388.26666666666665,-454.4
1580,-25.6,-398.93333333333334,-458.6666666666667
1581,-44.8,-396.8,-465.06666666666666
1582,-42.666666666666664,-401.06666666666666,-482.1333333333333
1583,-38.4,-405.3333333333333,-501.3333333333333
1584,-44.8,-403.2,-514.1333333333333
1585,-51.2,-416.0,-533.3333333333334
1586,-53.333333333333336,-420.26666666666665,-552.5333333333333
1587,-57.6,-426.6666666666667,-567.4666666666667
1588,-64.0,-426.6666666666667,-582.4
1589,-68.26666666666667,-439.46666666666664,-590.9333333333333
1590,-72.53333333333333,-441.59999999999997,-605.8666666666667
1591,-78.93333333333334,-443.73333333333335,-599.4666666666667
1592,-74.66666666666667,-456.5333333333333,-599.4666666666667
1593,-74.66666666666667,-462.93333333333334,-608.0
1594,-74.66666666666667,-467.2,-599.4666666666667
1595,-70.4,-467.2,-610.1333333333333
1596,-55.46666666666667,-486.4,-590.9333333333333
1597,-51.2,-480.0,-586.6666666666666
1598,-36.266666666666666,-484.26666666666665,-573.8666666666667
1599,-34.13333333333333,-484.26666666666665,-558.9333333333333
1600,-23.466666666666665,-480.0,-544.0
1601,-4.266666666666667,-475.73333333333335,-541.8666666666667
1602,-4.266666666666667,-467.2,-537.6
1603,-4.266666666666667,-460.8,-518.4
1604,8.533333333333333,-452.26666666666665,-520.5333333333333
1605,19.2,-437.3333333333333,-514.1333333333333
1606,25.6,-422.4,-509.8666666666667
1607,29.866666666666667,-418.1333333333333,-503.46666666666664
1608,38.4,-403.2,-499.2
1609,42.666666666666664,-394.6666666666667,-494.93333333333334
1610,36.266666666666666,-388.26666666666665,-492.8
1611,42.666666666666664,-388.26666666666665,-486.4
1612,44.8,-386.1333333333333,-480.0
1613,36.266666666666666,-381.8666666666667,-477.8666666666667
1614,36.266666666666666,-386.1333333333333,-475.73333333333335
1615,19.2,-373.3333333333333,-477.8666666666667
1616,27.733333333333334,-384.0,-475.73333333333335
1617,34.13333333333333,-386.1333333333333,-469.3333333333333
1618,25.6,-384.0,-469.3333333333333
1619,25.6,-386.1333333333333,-465.06666666666666
1620,21.333333333333332,-390.4,-467.2
1621,19.2,-381.8666666666667,-471.46666666666664
1622,19.2,-377.6,-469.3333333333333
1623,23.466666666666665,-379.73333333333335,-469.3333333333333
1624,25.6,-364.8,-467.2
1625,25.6,-364.8,-473.59999999999997
1626,23.466666666666665,-352.0,-471.46666666666664
1627,23.466666666666665,-343.46666666666664,-469.3333333333333
1628,27.733333333333334,-345.6,-467.2
1629,27.733333333333334,-347.73333333333335,-469.3333333333333
1630,29.866666666666667,-339.2,-458.6666666666667
1631,27.733333333333334,-334.93333333333334,-460.8
1632,29.866666666666667,-334.93333333333334,-450.1333333333333
1633,32.0,-337.06666666666666,-441.59999999999997
1634,27.733333333333334,-339.2,-448.0
1635,29.866666666666667,-337.06666666666666,-433.06666666666666
1636,40.53333333333333,-343.46666666666664,-428.8
1637,29.866666666666667,-334.93333333333334,-426.6666666666667
1638,19.2,-347.73333333333335,-430.93333333333334
1639,40.53333333333333,-326.4,-424.5333333333333
1640,36.266666666666666,-330.6666666666667,-424.5333333333333
1641,32.0,-324.26666666666665,-437.3333333333333
1642,38.4,-328.5333333333333,-422.4
1643,42.666666666666664,-315.73333333333335,-435.2
1644,49.06666666666666,-320.0,-426.6666666666667
1645,40.53333333333333,-328.5333333333333,-443.73333333333335
1646,51.2,-322.1333333333333,-439.46666666666664
1647,42.666666666666664,-324.26666666666665,-448.0
1648,40.53333333333333,-330.6666666666667,-445.8666666666667
1649,34.13333333333333,-324.26666666666665,-448.0
1650,29.866666666666667,-322.1333333333333,-452.26666666666665
1651,27.733333333333334,-326.4,-450.1333333333333
1652,19.2,-320.0,-448.0
1653,19.2,-313.6,-458.6666666666667
1654,14.933333333333334,-309.3333333333333,-452.26666666666665
1655,8.533333333333333,-305.06666666666666,-454.4
1656,2.1333333333333333,-311.46666666666664,-454.4
1657,4.266666666666667,-313.6,-450.1333333333333
1658,4.266666666666667,-311.46666666666664,-452.26666666666665
1659,8.533333333333333,-313.6,-448.0
1660,0.0,-313.6,-460.8
1661,4.266666666666667,-309.3333333333333,-439.46666666666664
1662,4.266666666666667,-307.2,-443.73333333333335
1663,2.1333333333333333,-309.3333333333333,-441.59999999999997
1664,10.666666666666666,-309.3333333333333,-443.73333333333335
1665,6.4,-305.06666666666666,-435.2
1666,8.533333333333333,-311.46666666666664,-437.3333333333333
1667,8.533333333333333,-307.2,-437.3333333333333
1668,8.533333333333333,-302.93333333333334,-430.93333333333334
1669,4.266666666666667,-300.8,-428.8
1670,14.933333333333334,-302.93333333333334,-430.93333333333334
1671,6.4,-288.0,-435.2
1672,6.4,-281.6,-437.3333333333333
1673,2.1333333333333333,-288.0,-437.3333333333333
1674,2.1333333333333333,-288.0,-428.8
1675,0.0,-283.73333333333335,-433.06666666666666
1676,0.0,-281.6,-428.8
1677,0.0,-281.6,-422.4
1678,0.0,-285.8666666666667,-418.1333333333333
1679,0.0,-296.5333333333333,-416.0
1680,-6.4,-305.06666666666666,-420.26666666666665
1681,-6.4,-311.46666666666664,-422.4
1682,-4.266666666666667,-315.73333333333335,-416.0
1683,-10.666666666666666,-313.6,-413.8666666666667
1684,-8.533333333333333,-328.5333333333333,-420.26666666666665
1685,-12.8,-332.8,-420.26666666666665
1686,-19.2,-328.5333333333333,-422.4
1687,-21.333333333333332,-326.4,-426.6666666666667
1688,-32.0,-324.26666666666665,-426.6666666666667
1689,-36.266666666666666,-330.6666666666667,-420.26666666666665
1690,-36.266666666666666,-332.8,-416.0
1691,-53.333333333333336,-330.6666666666667,-422.4
1692,-55.46666666666667,-337.06666666666666,-418.1333333333333
1693,-61.86666666666667,-341.3333333333333,-416.0
1694,-64.0,-339.2,-413.8666666666667
1695,-64.0,-334.93333333333334,-428.8
1696,-72.53333333333333,-328.5333333333333,-405.3333333333333
1697,-68.26666666666667,-320.0,-411.73333333333335
1698,-66.13333333333333,-320.0,-418.1333333333333
1699,-64.0,-315.73333333333335,-416.0
1700,-57.6,-315.73333333333335,-413.8666666666667
1701,-57.6,-313.6,-409.6
1702,-53.333333333333336,-317.8666666666667,-398.93333333333334
1703,-44.8,-320.0,-396.8
1704,-36.266666666666666,-317.8666666666667,-401.06666666666666
1705,-34.13333333333333,-315.73333333333335,-396.8
1706,-23.466666666666665,-315.73333333333335,-394.6666666666667
1707,-14.933333333333334,-309.3333333333333,-398.93333333333334
1708,-6.4,-315.73333333333335,-394.6666666666667
1709,-4.266666666666667,-309.3333333333333,-390.4
1710,2.1333333333333333,-317.8666666666667,-390.4
1711,10.666666666666666,-317.8666666666667,-403.2
1712,17.066666666666666,-313.6,-398.93333333333334
1713,19.2,-326.4,-392.5333333333333
1714,29.866666666666667,-326.4,-396.8
1715,32.0,-339.2,-401.06666666666666
1716,34.13333333333333,-343.46666666666664,-394.6666666666667
1717,38.4,-352.0,-394.6666666666667
1718,27.733333333333334,-360.5333333333333,-394.6666666666667
1719,23.466666666666665,-366.93333333333334,-396.8
1720,21.333333333333332,-381.8666666666667,-390.4
1721,12.8,-390.4,-403.2
1722,4.266666666666667,-394.6666666666667,-396.8
1723,2.1333333333333333,-398.93333333333334,-394.6666666666667
1724,-10.666666666666666,-401.06666666666666,-390.4
1725,-10.666666666666666,-409.6,-405.3333333333333
1726,-23.466666666666665,-411.73333333333335,-398.93333333333334
1727,-23.466666666666665,-416.0,-403.2
1728,-29.866666666666667,-416.0,-396.8
1729,-29.866666666666667,-409.6,-398.93333333333334
1730,-27.733333333333334,-396.8,-394.6666666666667
1731,-27.733333333333334,-396.8,-396.8
1732,-27.733333333333334,-392.5333333333333,-390.4
1733,-25.6,-390.4,-384.0
1734,-23.466666666666665,-388.26666666666665,-375.46666666666664
1735,-19.2,-377.6,-377.6
1736,-17.066666666666666,-373.3333333333333,-377.6
1737,-6.4,-366.93333333333334,-371.2
1738,-14.933333333333334,-362.6666666666667,-364.8
1739,-6.4,-345.6,-369.06666666666666
1740,-10.666666666666666,-343.46666666666664,-360.5333333333333
1741,-8.533333333333333,-341.3333333333333,-352.0
1742,-6.4,-334.93333333333334,-349.8666666666667
1743,-2.1333333333333333,-337.06666666666666,-349.8666666666667
1744,-2.1333333333333333,-339.2,-347.73333333333335
1745,-6.4,-337.06666666666666,-341.3333333333333
1746,2.1333333333333333,-337.06666666666666,-345.6
1747,-4.266666666666667,-328.5333333333333,-341.3333333333333
1748,-2.1333333333333333,-332.8,-347.73333333333335
1749,-2.1333333333333333,-334.93333333333334,-339.2
1750,-4.266666666666667,-337.06666666666666,-352.0
1751,-14.933333333333334,-337.06666666666666,-354.1333333333333
1752,-10.666666666666666,-337.06666666666666,-358.4
1753,-8.533333333333333,-341.3333333333333,-360.5333333333333
1754,-12.8,-347.73333333333335,-354.1333333333333
1755,-4.266666666666667,-356.26666666666665,-358.4
1756,-10.666666666666666,-352.0,-349.8666666666667
1757,-17.066666666666666,-358.4,-354.1333333333333
1758,-12.8,-362.6666666666667,-358.4
1759,-29.866666666666667,-356.26666666666665,-345.6
1760,-19.2,-364.8,-358.4
1761,-21.333333333333332,-366.93333333333334,-352.0
1762,-12.8,-375.46666666666664,-358.4
1763,-23.466666666666665,-364.8,-358.4
1764,-21.333333333333332,-366.93333333333334,-356.26666666666665
1765,-10.666666666666666,-377.6,-358.4
1766,-4.266666666666667,-371.2,-360.5333333333333
1767,0.0,-388.26666666666665,-362.6666666666667
1768,4.266666666666667,-377.6,-356.26666666666665
1769,10.666666666666666,-369.06666666666666,-356.26666666666665
1770,6.4,-379.73333333333335,-360.5333333333333
1771,17.066666666666666,-371.2,-362.6666666666667
1772,14.933333333333334,-371.2,-371.2
1773,19.2,-373.3333333333333,-369.06666666666666
1774,21.333333333333332,-366.93333333333334,-371.2
1775,23.466666666666665,-371.2,-369.06666666666666
1776,23.466666666666665,-377.6,-352.0
1777,25.6,-384.0,-354.1333333333333
1778,25.6,-386.1333333333333,-341.3333333333333
1779,34.13333333333333,-394.6666666666667,-334.93333333333334
1780,42.666666666666664,-390.4,-332.8
1781,51.2,-392.5333333333333,-328.5333333333333
1782,46.93333333333333,-392.5333333333333,-324.26666666666665
1783,44.8,-390.4,-324.26666666666665
1784,49.06666666666666,-392.5333333333333,-315.73333333333335
1785,44.8,-388.26666666666665,-311.46666666666664
1786,40.53333333333333,-386.1333333333333,-320.0
1787,27.733333333333334,-373.3333333333333,-311.46666666666664
1788,27.733333333333334,-373.3333333333333,-307.2
1789,27.733333333333334,-371.2,-313.6
1790,23.466666666666665,-366.93333333333334,-309.3333333333333
1791,19.2,-369.06666666666666,-313.6
1792,21.333333333333332,-362.6666666666667,-311.46666666666664
1793,17.066666666666666,-360.5333333333333,-315.73333333333335
1794,19.2,-360.5333333333333,-315.73333333333335
1795,19.2,-352.0,-320.0
1796,25.6,-354.1333333333333,-324.26666666666665
1797,36.266666666666666,-349.8666666666667,-330.6666666666667
1798,46.93333333333333,-356.26666666666665,-326.4
1799,42.666666666666664,-356.26666666666665,-328.5333333333333
1800,42.666666666666664,-349.8666666666667,-339.2
1801,44.8,-356.26666666666665,-330.6666666666667
1802,46.93333333333333,-362.6666666666667,-332.8
1803,42.666666666666664,-366.93333333333334,-322.1333333333333
1804,42.666666666666664,-369.06666666666666,-320.0
1805,32.0,-369.06666666666666,-317.8666666666667
1806,27.733333333333334,-381.8666666666667,-315.73333333333335
1807,21.333333333333332,-386.1333333333333,-315.73333333333335
1808,8.533333333333333,-379.73333333333335,-309.3333333333333
1809,0.0,-386.1333333333333,-315.73333333333335
1810,-2.1333333333333333,-388.26666666666665,-315.73333333333335
1811,-6.4,-394.6666666666667,-322.1333333333333
1812,-8.533333333333333,-394.6666666666667,-307.2
1813,-19.2,-388.26666666666665,-320.0
1814,-17.066666666666666,-392.5333333333333,-315.73333333333335
1815,-19.2,-398.93333333333334,-309.3333333333333
1816,-23.466666666666665,-390.4,-313.6
1817,-23.466666666666665,-390.4,-317.8666666666667
1818,-25.6,-381.8666666666667,-317.8666666666667
1819,-12.8,-388.26666666666665,-315.73333333333335
1820,-19.2,-384.0,-315.73333333333335
1821,-14.933333333333334,-375.46666666666664,-315.73333333333335
1822,-2.1333333333333333,-379.73333333333335,-315.73333333333335
1823,0.0,-381.8666666666667,-320.0
1824,0.0,-379.73333333333335,-317.8666666666667
1825,4.266666666666667,-377.6,-320.0
1826,6.4,-381.8666666666667,-315.73333333333335
1827,17.066666666666666,-379.73333333333335,-326.4
1828,17.066666666666666,-388.26666666666665,-317.8666666666667
1829,23.466666666666665,-386.1333333333333,-320.0
1830,23.466666666666665,-396.8,-313.6
1831,17.066666666666666,-396.8,-311.46666666666664
1832,17.066666666666666,-403.2,-322.1333333333333
1833,25.6,-424.5333333333333,-315.73333333333335
1834,23.466666666666665,-411.73333333333335,-317.8666666666667
1835,19.2,-416.0,-328.5333333333333
1836,17.066666666666666,-422.4,-322.1333333333333
1837,14.933333333333334,-426.6666666666667,-311.46666666666664
1838,14.933333333333334,-430.93333333333334,-322.1333333333333
1839,8.533333333333333,-433.06666666666666,-320.0
1840,8.533333333333333,-430.93333333333334,-317.8666666666667
1841,10.666666666666666,-435.2,-324.26666666666665
1842,8.533333333333333,-428.8,-322.1333333333333
1843,6.4,-428.8,-326.4
1844,4.266666666666667,-426.6666666666667,-322.1333333333333
1845,8.533333333333333,-426.6666666666667,-322.1333333333333
1846,2.1333333333333333,-422.4,-324.26666666666665
1847,0.0,-420.26666666666665,-315.73333333333335
1848,2.1333333333333333,-420.26666666666665,-315.73333333333335
1849,0.0,-418.1333333333333,-317.8666666666667
1850,0.0,-411.73333333333335,-328.5333333333333
1851,2.1333333333333333,-411.73333333333335,-324.26666666666665
1852,2.1333333333333333,-407.46666666666664,-322.1333333333333
1853,0.0,-409.6,-324.26666666666665
1854,4.266666666666667,-413.8666666666667,-324.26666666666665
1855,2.1333333333333333,-418.1333333333333,-313.6
1856,12.8,-435.2,-317.8666666666667
1857,0.0,-418.1333333333333,-317.8666666666667
1858,0.0,-418.1333333333333,-320.0
1859,-2.1333333333333333,-418.1333333333333,-311.46666666666664
1860,0.0,-424.5333333333333,-313.6
1861,0.0,-416.0,-322.1333333333333
1862,6.4,-430.93333333333334,-313.6
1863,2.1333333333333333,-439.46666666666664,-317.8666666666667
1864,2.1333333333333333,-441.59999999999997,-317.8666666666667
1865,0.0,-448.0,-313.6
1866,4.266666666666667,-448.0,-320.0
1867,6.4,-458.6666666666667,-311.46666666666664
1868,8.533333333333333,-462.93333333333334,-317.8666666666667
1869,2.1333333333333333,-467.2,-313.6
1870,2.1333333333333333,-473.59999999999997,-315.73333333333335
1871,2.1333333333333333,-484.26666666666665,-311.46666666666664
1872,0.0,-482.1333333333333,-315.73333333333335
1873,-6.4,-482.1333333333333,-320.0
1874,2.1333333333333333,-482.1333333333333,-315.73333333333335
1875,0.0,-477.8666666666667,-320.0
1876,-8.533333333333333,-475.73333333333335,-313.6
1877,-4.266666666666667,-473.59999999999997,-313.6
1878,-12.8,-467.2,-320.0
1879,0.0,-471.46666666666664,-315.73333333333335
1880,-8.533333333333333,-462.93333333333334,-311.46666666666664
1881,-10.666666666666666,-456.5333333333333,-313.6
1882,-8.533333333333333,-456.5333333333333,-311.46666666666664
1883,-12.8,-445.8666666666667,-313.6
1884,-17.066666666666666,-441.59999999999997,-309.3333333333333
1885,-6.4,-448.0,-315.73333333333335
1886,-10.666666666666666,-441.59999999999997,-311.46666666666664
1887,-10.666666666666666,-439.46666666666664,-309.3333333333333
1888,-25.6,-437.3333333333333,-313.6
1889,-12.8,-445.8666666666667,-311.46666666666664
1890,-10.666666666666666,-445.8666666666667,-309.3333333333333
1891,-8.533333333333333,-448.0,-309.3333333333333
1892,-2.1333333333333333,-441.59999999999997,-313.6
1893,-10.666666666666666,-439.46666666666664,-317.8666666666667
1894,-6.4,-441.59999999999997,-315.73333333333335
1895,-10.666666666666666,-439.46666666666664,-320.0
1896,-4.266666666666667,-445.8666666666667,-313.6
1897,-10.666666666666666,-443.73333333333335,-320.0
1898,0.0,-443.73333333333335,-322.1333333333333
1899,-2.1333333333333333,-448.0,-320.0
1900,0.0,-443.73333333333335,-320.0
1901,0.0,-441.59999999999997,-320.0
1902,2.1333333333333333,-448.0,-317.8666666666667
1903,4.266666666666667,-445.8666666666667,-313.6
1904,0.0,-448.0,-313.6
1905,2.1333333333333333,-450.1333333333333,-315.73333333333335
1906,2.1333333333333333,-452.26666666666665,-315.73333333333335
1907,0.0,-454.4,-311.46666666666664
1908,-2.1333333333333333,-454.4,-311.46666666666664
1909,-4.266666666666667,-445.8666666666667,-309.3333333333333
1910,0.0,-443.73333333333335,-313.6
1911,-12.8,-439.46666666666664,-315.73333333333335
1912,-2.1333333333333333,-433.06666666666666,-315.73333333333335
1913,-2.1333333333333333,-437.3333333333333,-320.0
1914,-10.666666666666666,-433.06666666666666,-317.8666666666667
1915,-4.266666666666667,-426.6666666666667,-317.8666666666667
1916,-4.266666666666667,-428.8,-317.8666666666667
1917,-8.533333333333333,-433.06666666666666,-313.6
1918,-12.8,-430.93333333333334,-313.6
1919,-4.266666666666667,-433.06666666666666,-309.3333333333333
1920,-8.533333333333333,-430.93333333333334,-313.6
1921,-12.8,-426.6666666666667,-309.3333333333333
1922,-8.533333333333333,-430.93333333333334,-315.73333333333335
1923,-12.8,-430.93333333333334,-322.1333333333333
1924,-12.8,-426.6666666666667,-317.8666666666667
1925,-12.8,-428.8,-315.73333333333335
1926,-14.933333333333334,-422.4,-317.8666666666667
1927,-10.666666666666666,-433.06666666666666,-320.0
1928,-21.333333333333332,-428.8,-322.1333333333333
1929,-17.066666666666666,-420.26666666666665,-317.8666666666667
1930,-10.666666666666666,-435.2,-315.73333333333335
1931,-10.666666666666666,-430.93333333333334,-322.1333333333333
1932,-8.533333333333333,-437.3333333333333,-313.6
1933,-2.1333333333333333,-437.3333333333333,-315.73333333333335
1934,-10.666666666666666,-433.06666666666666,-317.8666666666667
1935,-6.4,-435.2,-317.8666666666667
1936,-2.1333333333333333,-441.59999999999997,-309.3333333333333
1937,-4.266666666666667,-441.59999999999997,-322.1333333333333
1938,-4.266666666666667,-437.3333333333333,-324.26666666666665
1939,-4.266666666666667,-439.46666666666664,-322.1333333333333
1940,0.0,-439.46666666666664,-322.1333333333333
1941,-4.266666666666667,-443.73333333333335,-324.26666666666665
1942,-2.1333333333333333,-426.6666666666667,-326.4
1943,-6.4,-452.26666666666665,-332.8
1944,-2.1333333333333333,-452.26666666666665,-317.8666666666667
1945,-4.266666666666667,-450.1333333333333,-322.1333333333333
1946,-6.4,-456.5333333333333,-326.4
1947,-14.933333333333334,-454.4,-320.0
1948,-4.266666666666667,-456.5333333333333,-326.4
1949,-12.8,-452.26666666666665,-322.1333333333333
1950,0.0,-454.4,-332.8
1951,-2.1333333333333333,-454.4,-320.0
1952,-4.266666666666667,-450.1333333333333,-328.5333333333333
1953,-8.533333333333333,-452.26666666666665,-324.26666666666665
1954,-4.266666666666667,-445.8666666666667,-326.4
1955,-6.4,-450.1333333333333,-322.1333333333333
1956,-8.533333333333333,-452.26666666666665,-313.6
1957,-8.533333333333333,-448.0,-328.5333333333333
1958,-4.266666666666667,-450.1333333333333,-330.6666666666667
1959,-10.666666666666666,-445.8666666666667,-330.6666666666667
1960,-2.1333333333333333,-443.73333333333335,-322.1333333333333
1961,-2.1333333333333333,-441.59999999999997,-330.6666666666667
1962,0.0,-443.73333333333335,-326.4
1963,-4.266666666666667,-448.0,-328.5333333333333
1964,-10.666666666666666,-439.46666666666664,-324.26666666666665
1965,0.0,-462.93333333333334,-330.6666666666667
1966,-2.1333333333333333,-437.3333333333333,-326.4
1967,-6.4,-441.59999999999997,-324.26666666666665
1968,-4.266666666666667,-435.2,-317.8666666666667
1969,-6.4,-437.3333333333333,-324.26666666666665
1970,-2.1333333333333333,-433.06666666666666,-326.4
1971,-4.266666666666667,-428.8,-320.0
1972,-4.266666666666667,-435.2,-320.0
1973,-6.4,-439.46666666666664,-330.6666666666667
1974,0.0,-433.06666666666666,-326.4
1975,-6.4,-428.8,-332.8
1976,0.0,-428.8,-328.5333333333333
1977,-4.266666666666667,-430.93333333333334,-320.0
1978,-8.533333333333333,-430.93333333333334,-324.26666666666665
1979,-4.266666666666667,-428.8,-322.1333333333333
1980,-2.1333333333333333,-437.3333333333333,-317.8666666666667
1981,0.0,-441.59999999999997,-328.5333333333333
1982,0.0,-441.59999999999997,-326.4
1983,-10.666666666666666,-428.8,-326.4
1984,-2.1333333333333333,-433.06666666666666,-330.6666666666667
1985,-4.266666666666667,-430.93333333333334,-330.6666666666667
1986,-2.1333333333333333,-430.93333333333334,-334.93333333333334
1987,-17.066666666666666,-418.1333333333333,-320.0
1988,-4.266666666666667,-433.06666666666666,-328.5333333333333
1989,0.0,-435.2,-324.26666666666665
1990,-4.266666666666667,-439.46666666666664,-328.5333333333333
1991,-8.533333333333333,-428.8,-317.8666666666667
1992,-12.8,-435.2,-328.5333333333333
1993,-2.1333333333333333,-437.3333333333333,-322.1333333333333
1994,-8.533333333333333,-435.2,-313.6
1995,-2.1333333333333333,-435.2,-324.26666666666665
1996,0.0,-422.4,-322.1333333333333
1997,-2.1333333333333333,-430.93333333333334,-324.26666666666665
1998,-2.1333333333333333,-433.06666666666666,-326.4
1999,-4.266666666666667,-437.3333333333333,-324.26666666666665
2000,-2.1333333333333333,-430.93333333333334,-326.4
2001,-4.266666666666667,-435.2,-332.8
2002,0.0,-437.3333333333333,-330.6666666666667
2003,-2.1333333333333333,-435.2,-324.26666666666665
2004,0.0,-441.59999999999997,-328.5333333333333
2005,0.0,-443.73333333333335,-332.8
2006,0.0,-443.73333333333335,-328.5333333333333
2007,0.0,-445.8666666666667,-326.4
2008,-2.1333333333333333,-435.2,-322.1333333333333
2009,-4.266666666666667,-443.73333333333335,-334.93333333333334
2010,-4.266666666666667,-435.2,-326.4
2011,0.0,-443.73333333333335,-324.26666666666665
2012,0.0,-441.59999999999997,-326.4
2013,-4.266666666666667,-430.93333333333334,-337.06666666666666
2014,-4.266666666666667,-439.46666666666664,-326.4
2015,-8.533333333333333,-439.46666666666664,-326.4
2016,-4.266666666666667,-433.06666666666666,-330.6666666666667
2017,-2.1333333333333333,-435.2,-328.5333333333333
2018,0.0,-430.93333333333334,-328.5333333333333
2019,-2.1333333333333333,-435.2,-337.06666666666666
2020,0.0,-435.2,-330.6666666666667
2021,-2.1333333333333333,-435.2,-324.26666666666665
2022,-4.266666666666667,-439.46666666666664,-326.4
2023,-4.266666666666667,-437.3333333333333,-326.4
2024,-4.266666666666667,-435.2,-328.5333333333333
2025,-6.4,-430.93333333333334,-339.2
2026,-4.266666666666667,-439.46666666666664,-326.4
2027,-8.533333333333333,-437.3333333333333,-330.6666666666667
2028,-4.266666666666667,-439.46666666666664,-337.06666666666666
2029,-8.533333333333333,-439.46666666666664,-334.93333333333334
2030,-10.666666666666666,-424.5333333333333,-328.5333333333333
2031,-4.266666666666667,-441.59999999999997,-322.1333333333333
2032,-4.266666666666667,-433.06666666666666,-328.5333333333333
2033,-8.533333333333333,-428.8,-326.4
2034,-8.533333333333333,-441.59999999999997,-328.5333333333333
2035,-4.266666666666667,-439.46666666666664,-332.8
2036,-10.666666666666666,-435.2,-328.5333333333333
2037,-2.1333333333333333,-439.46666666666664,-317.8666666666667
2038,-2.1333333333333333,-443.73333333333335,-328.5333333333333
2039,0.0,-441.59999999999997,-328.5333333333333
2040,-4.266666666666667,-437.3333333333333,-328.5333333333333
2041,0.0,-437.3333333333333,-324.26666666666665
2042,-10.666666666666666,-430.93333333333334,-328.5333333333333
2043,-8.533333333333333,-439.46666666666664,-322.1333333333333
2044,-10.666666666666666,-443.73333333333335,-330.6666666666667
2045,0.0,-441.59999999999997,-326.4
2046,0.0,-433.06666666666666,-332.8
2047,-4.266666666666667,-443.73333333333335,-328.5333333333333
2048,0.0,-439.46666666666664,-317.8666666666667
2049,-6.4,-437.3333333333333,-328.5333333333333
2050,-6.4,-437.3333333333333,-326.4
2051,4.266666666666667,-443.73333333333335,-332.8
2052,2.1333333333333333,-437.3333333333333,-320.0
2053,0.0,-435.2,-324.26666666666665
2054,-2.1333333333333333,-448.0,-322.1333333333333
2055,-2.1333333333333333,-441.59999999999997,-328.5333333333333
2056,-4.266666666666667,-437.3333333333333,-330.6666666666667
2057,-6.4,-437.3333333333333,-328.5333333333333
2058,-4.266666666666667,-439.46666666666664,-334.93333333333334
2059,-6.4,-437.3333333333333,-328.5333333333333
2060,-2.1333333333333333,-430.93333333333334,-324.26666666666665
2061,0.0,-435.2,-326.4
2062,-2.1333333333333333,-439.46666666666664,-320.0
2063,-4.266666666666667,-433.06666666666666,-324.26666666666665
2064,0.0,-441.59999999999997,-330.6666666666667
2065,-2.1333333333333333,-445.8666666666667,-326.4
2066,0.0,-437.3333333333333,-324.26666666666665
2067,-4.266666666666667,-437.3333333333333,-324.26666666666665
2068,-2.1333333333333333,-439.46666666666664,-328.5333333333333
2069,-4.266666666666667,-439.46666666666664,-320.0
2070,-6.4,-435.2,-332.8
2071,-12.8,-441.59999999999997,-332.8
2072,-2.1333333333333333,-439.46666666666664,-324.26666666666665
2073,-2.1333333333333333,-430.93333333333334,-330.6666666666667
2074,-6.4,-435.2,-330.6666666666667
2075,-8.533333333333333,-439.46666666666664,-326.4
2076,-10.666666666666666,-435.2,-326.4
2077,-6.4,-441.59999999999997,-330.6666666666667
2078,0.0,-430.93333333333334,-328.5333333333333
2079,-8.533333333333333,-433.06666666666666,-328.5333333333333
2080,-2.1333333333333333,-435.2,-334.93333333333334
2081,-6.4,-437.3333333333333,-324.26666666666665
2082,0.0,-435.2,-328.5333333333333
2083,-4.266666666666667,-441.59999999999997,-324.26666666666665
2084,-2.1333333333333333,-430.93333333333334,-328.5333333333333
2085,-4.266666666666667,-430.93333333333334,-332.8
2086,-4.266666666666667,-430.93333333333334,-324.26666666666665
2087,-4.266666666666667,-435.2,-334.93333333333334
2088,0.0,-437.3333333333333,-330.6666666666667
2089,-4.266666666666667,-433.06666666666666,-332.8
2090,0.0,-435.2,-334.93333333333334
2091,0.0,-430.93333333333334,-332.8
2092,2.1333333333333333,-433.06666666666666,-324.26666666666665
2093,-4.266666666666667,-437.3333333333333,-326.4
2094,-8.533333333333333,-433.06666666666666,-328.5333333333333
2095,0.0,-433.06666666666666,-328.5333333333333
2096,-2.1333333333333333,-435.2,-332.8
2097,-8.533333333333333,-435.2,-330.6666666666667
2098,0.0,-426.6666666666667,-330.6666666666667
2099,0.0,-439.46666666666664,-330.6666666666667
2100,-2.1333333333333333,-433.06666666666666,-324.26666666666665
2101,-4.266666666666667,-430.93333333333334,-332.8
2102,-2.1333333333333333,-433.06666666666666,-317.8666666666667
2103,-4.266666666666667,-435.2,-326.4
2104,-2.1333333333333333,-428.8,-324.26666666666665
2105,0.0,-430.93333333333334,-324.26666666666665
2106,0.0,-435.2,-328.5333333333333
2107,0.0,-435.2,-326.4
2108,-2.1333333333333333,-441.59999999999997,-326.4
2109,0.0,-439.46666666666664,-328.5333333333333
2110,-2.1333333333333333,-439.46666666666664,-324.26666666666665
2111,-2.1333333333333333,-443.73333333333335,-322.1333333333333
2112,-2.1333333333333333,-439.46666666666664,-326.4
2113,2.1333333333333333,-443.73333333333335,-324.26666666666665
2114,0.0,-443.73333333333335,-328.5333333333333
2115,0.0,-439.46666666666664,-334.93333333333334
2116,-4.266666666666667,-437.3333333333333,-328.5333333333333
2117,-2.1333333333333333,-435.2,-320.0
2118,-4.266666666666667,-441.59999999999997,-332.8
2119,0.0,-441.59999999999997,-324.26666666666665
2120,-4.266666666666667,-439.46666666666664,-330.6666666666667
2121,-2.1333333333333333,-439.46666666666664,-332.8
2122,-2.1333333333333333,-433.06666666666666,-326.4
2123,0.0,-439.46666666666664,-334.93333333333334
2124,-10.666666666666666,-441.59999999999997,-339.2
2125,0.0,-433.06666666666666,-326.4
2126,-6.4,-445.8666666666667,-334.93333333333334
2127,-10.666666666666666,-437.3333333333333,-332.8
2128,-8.533333333333333,-443.73333333333335,-343.46666666666664
2129,-6.4,-433.06666666666666,-332.8
2130,-2.1333333333333333,-435.2,-330.6666666666667
2131,-2.1333333333333333,-430.93333333333334,-328.5333333333333
2132,-4.266666666666667,-435.2,-337.06666666666666
2133,-10.666666666666666,-441.59999999999997,-332.8
2134,0.0,-437.3333333333333,-324.26666666666665
2135,-4.266666666666667,-433.06666666666666,-324.26666666666665
2136,-4.266666666666667,-430.93333333333334,-326.4
2137,0.0,-435.2,-326.4
2138,-2.1333333333333333,-428.8,-328.5333333333333
2139,-2.1333333333333333,-437.3333333333333,-322.1333333333333
2140,-6.4,-441.59999999999997,-326.4
2141,-4.266666666666667,-439.46666666666664,-332.8
2142,-2.1333333333333333,-437.3333333333333,-324.26666666666665
2143,-10.666666666666666,-435.2,-330.6666666666667
2144,-8.533333333333333,-439.46666666666664,-324.26666666666665
2145,-4.266666666666667,-435.2,-332.8
2146,-2.1333333333333333,-445.8666666666667,-322.1333333333333
2147,-4.266666666666667,-441.59999999999997,-330.6666666666667
2148,-4.266666666666667,-443.73333333333335,-324.26666666666665
2149,-8.533333333333333,-441.59999999999997,-324.26666666666665
2150,-6.4,-441.59999999999997,-330.6666666666667
2151,-6.4,-441.59999999999997,-334.93333333333334
2152,-2.1333333333333333,-441.59999999999997,-334.93333333333334
2153,-8.533333333333333,-437.3333333333333,-330.6666666666667
2154,-10.666666666666666,-437.3333333333333,-332.8
2155,-6.4,-437.3333333333333,-328.5333333333333
2156,-6.4,-437.3333333333333,-328.5333333333333
2157,-12.8,-441.59999999999997,-328.5333333333333
2158,-2.1333333333333333,-441.59999999999997,-322.1333333333333
2159,-10.666666666666666,-439.46666666666664,-334.93333333333334
2160,-2.1333333333333333,-441.59999999999997,-334.93333333333334
2161,-2.1333333333333333,-435.2,-334.93333333333334
2162,-2.1333333333333333,-441.59999999999997,-326.4
2163,-4.266666666666667,-433.06666666666666,-328.5333333333333
2164,0.0,-445.8666666666667,-328.5333333333333
2165,-8.533333333333333,-439.46666666666664,-324.26666666666665
2166,-6.4,-437.3333333333333,-326.4
2167,-10.666666666666666,-439.46666666666664,-324.26666666666665
2168,-4.266666666666667,-441.59999999999997,-330.6666666666667
2169,-4.266666666666667,-443.73333333333335,-324.26666666666665
2170,-2.1333333333333333,-439.46666666666664,-322.1333333333333
2171,-4.266666666666667,-433.06666666666666,-332.8
2172,-6.4,-435.2,-324.26666666666665
2173,-4.266666666666667,-439.46666666666664,-317.8666666666667
2174,-2.1333333333333333,-445.8666666666667,-326.4
2175,-2.1333333333333333,-437.3333333333333,-326.4
2176,-4.266666666666667,-441.59999999999997,-322.1333333333333
2177,-6.4,-428.8,-328.5333333333333
2178,-6.4,-435.2,-324.26666666666665
2179,-4.266666666666667,-433.06666666666666,-326.4
2180,-2.1333333333333333,-443.73333333333335,-324.26666666666665
2181,-8.533333333333333,-437.3333333333333,-326.4
2182,-19.2,-430.93333333333334,-324.26666666666665
2183,-6.4,-430.93333333333334,-328.5333333333333
2184,0.0,-437.3333333333333,-307.2
2185,-6.4,-443.73333333333335,-324.26666666666665
2186,-4.266666666666667,-439.46666666666664,-324.26666666666665
2187,-2.1333333333333333,-437.3333333333333,-324.26666666666665
2188,-4.266666666666667,-433.06666666666666,-326.4
2189,-2.1333333333333333,-443.73333333333335,-322.1333333333333
2190,-10.666666666666666,-443.73333333333335,-322.1333333333333
2191,-10.666666666666666,-441.59999999999997,-317.8666666666667
2192,-6.4,-443.73333333333335,-328.5333333333333
2193,-2.1333333333333333,-441.59999999999997,-328.5333333333333
2194,-6.4,-441.59999999999997,-320.0
2195,-4.266666666666667,-433.06666666666666,-328.5333333333333
2196,-6.4,-437.3333333333333,-328.5333333333333
2197,-8.533333333333333,-439.46666666666664,-330.6666666666667
2198,0.0,-437.3333333333333,-326.4
2199,-8.533333333333333,-443.73333333333335,-326.4
2200,-10.666666666666666,-437.3333333333333,-326.4
2201,-6.4,-435.2,-326.4
2202,-4.266666666666667,-441.59999999999997,-330.6666666666667
2203,-4.266666666666667,-441.59999999999997,-330.6666666666667
2204,-12.8,-424.5333333333333,-328.5333333333333
2205,-6.4,-435.2,-330.6666666666667
2206,-2.1333333333333333,-433.06666666666666,-332.8
2207,-10.666666666666666,-424.5333333333333,-332.8
2208,-12.8,-430.93333333333334,-328.5333333333333
2209,-2.1333333333333333,-426.6666666666667,-328.5333333333333
2210,-6.4,-426.6666666666667,-322.1333333333333
2211,-2.1333333333333333,-437.3333333333333,-326.4
2212,-6.4,-430.93333333333334,-326.4
2213,-4.266666666666667,-439.46666666666664,-328.5333333333333
2214,-2.1333333333333333,-437.3333333333333,-320.0
2215,-4.266666666666667,-435.2,-326.4
2216,0.0,-443.73333333333335,-326.4
2217,0.0,-443.73333333333335,-322.1333333333333
2218,-2.1333333333333333,-437.3333333333333,-330.6666666666667
2219,-2.1333333333333333,-439.46666666666664,-332.8
2220,-4.266666666666667,-437.3333333333333,-324.26666666666665
2221,-8.533333333333333,-439.46666666666664,-326.4
2222,-4.266666666666667,-435.2,-330.6666666666667
2223,0.0,-445.8666666666667,-330.6666666666667
2224,-4.266666666666667,-437.3333333333333,-328.5333333333333
2225,-8.533333333333333,-437.3333333333333,-328.5333333333333
2226,-6.4,-443.73333333333335,-326.4
2227,-10.666666666666666,-443.73333333333335,-332.8
2228,-2.1333333333333333,-445.8666666666667,-328.5333333333333
2229,-8.533333333333333,-441.59999999999997,-330.6666666666667
2230,-10.666666666666666,-439.46666666666664,-322.1333333333333
2231,-6.4,-445.8666666666667,-330.6666666666667
2232,-8.533333333333333,-441.59999999999997,-324.26666666666665
2233,-10.666666666666666,-437.3333333333333,-320.0
2234,-8.533333333333333,-441.59999999999997,-324.26666666666665
2235,-6.4,-435.2,-328.5333333333333
2236,-6.4,-435.2,-328.5333333333333
2237,-6.4,-433.06666666666666,-326.4
2238,-2.1333333333333333,-437.3333333333333,-322.1333333333333
2239,-4.266666666666667,-428.8,-322.1333333333333
2240,-4.266666666666667,-439.46666666666664,-324.26666666666665
2241,-4.266666666666667,-441.59999999999997,-328.5333333333333
2242,-8.533333333333333,-437.3333333333333,-322.1333333333333
2243,-8.533333333333333,-441.59999999999997,-322.1333333333333
2244,-4.266666666666667,-439.46666666666664,-320.0
2245,-2.1333333333333333,-435.2,-326.4
2246,-4.266666666666667,-441.59999999999997,-328.5333333333333
2247,0.0,-439.46666666666664,-324.26666666666665
2248,-10.666666666666666,-437.3333333333333,-324.26666666666665
2249,-6.4,-445.8666666666667,-322.1333333333333
2250,-4.266666666666667,-445.8666666666667,-326.4
2251,-10.666666666666666,-443.73333333333335,-320.0
2252,-6.4,-441.59999999999997,-328.5333333333333
2253,-2.1333333333333333,-443.73333333333335,-324.26666666666665
2254,-10.666666666666666,-441.59999999999997,-326.4
2255,-6.4,-441.59999999999997,-324.26666666666665
2256,-10.666666666666666,-441.59999999999997,-315.73333333333335
2257,-8.533333333333333,-448.0,-320.0
2258,-6.4,-443.73333333333335,-320.0
2259,-6.4,-441.59999999999997,-322.1333333333333
2260,-8.533333333333333,-443.73333333333335,-320.0
2261,-4.266666666666667,-433.06666666666666,-322.1333333333333
2262,-6.4,-441.59999999999997,-317.8666666666667
2263,-4.266666666666667,-441.59999999999997,-322.1333333333333
2264,-4.266666666666667,-441.59999999999997,-317.8666666666667
2265,-4.266666666666667,-437.3333333333333,-324.26666666666665
2266,0.0,-443.73333333333335,-315.73333333333335
2267,-2.1333333333333333,-437.3333333333333,-317.8666666666667
2268,0.0,-443.73333333333335,-320.0
2269,-2.1333333333333333,-450.1333333333333,-322.1333333333333
2270,0.0,-448.0,-317.8666666666667
2271,0.0,-445.8666666666667,-317.8666666666667
2272,-10.666666666666666,-445.8666666666667,-320.0
2273,-4.266666666666667,-437.3333333333333,-317.8666666666667
2274,-8.533333333333333,-437.3333333333333,-326.4
2275,0.0,-443.73333333333335,-317.8666666666667
2276,-4.266666666666667,-441.59999999999997,-317.8666666666667
2277,-4.266666666666667,-439.46666666666664,-324.26666666666665
2278,-4.266666666666667,-439.46666666666664,-320.0
2279,-4.266666666666667,-437.3333333333333,-320.0
2280,0.0,-443.73333333333335,-322.1333333333333
2281,-2.1333333333333333,-443.73333333333335,-317.8666666666667
2282,0.0,-445.8666666666667,-324.26666666666665
2283,-6.4,-448.0,-322.1333333333333
2284,-6.4,-441.59999999999997,-317.8666666666667
2285,-4.266666666666667,-445.8666666666667,-320.0
2286,-4.266666666666667,-445.8666666666667,-315.73333333333335
2287,-8.533333333333333,-448.0,-317.8666666666667
2288,-14.933333333333334,-454.4,-313.6
2289,-4.266666666666667,-450.1333333333333,-320.0
2290,-2.1333333333333333,-454.4,-311.46666666666664
2291,-17.066666666666666,-445.8666666666667,-322.1333333333333
2292,-6.4,-452.26666666666665,-313.6
2293,-10.666666666666666,-448.0,-313.6
2294,-4.266666666666667,-452.26666666666665,-315.73333333333335
2295,-4.266666666666667,-454.4,-317.8666666666667
2296,-12.8,-448.0,-313.6
2297,-2.1333333333333333,-452.26666666666665,-311.46666666666664
2298,-6.4,-445.8666666666667,-313.6
2299,-10.666666666666666,-450.1333333333333,-313.6
2300,-10.666666666666666,-443.73333333333335,-309.3333333333333
2301,-12.8,-441.59999999999997,-313.6
2302,-8.533333333333333,-448.0,-313.6
2303,-12.8,-443.73333333333335,-313.6
2304,-4.266666666666667,-441.59999999999997,-315.73333333333335
2305,-2.1333333333333333,-445.8666666666667,-322.1333333333333
2306,-2.1333333333333333,-445.8666666666667,-315.73333333333335
2307,-2.1333333333333333,-452.26666666666665,-315.73333333333335
2308,-2.1333333333333333,-445.8666666666667,-317.8666666666667
2309,-4.266666666666667,-450.1333333333333,-309.3333333333333
2310,-4.266666666666667,-450.1333333333333,-315.73333333333335
2311,-4.266666666666667,-452.26666666666665,-315.73333333333335
2312,0.0,-448.0,-317.8666666666667
2313,-8.533333333333333,-435.2,-313.6
2314,-6.4,-450.1333333333333,-317.8666666666667
2315,-8.533333333333333,-445.8666666666667,-315.73333333333335
2316,-12.8,-441.59999999999997,-313.6
2317,-6.4,-448.0,-311.46666666666664
2318,-10.666666666666666,-443.73333333333335,-322.1333333333333
2319,-6.4,-456.5333333333333,-317.8666666666667
2320,-4.266666666666667,-450.1333333333333,-315.73333333333335
2321,-8.533333333333333,-450.1333333333333,-313.6
2322,-4.266666666666667,-454.4,-309.3333333333333
2323,-12.8,-452.26666666666665,-309.3333333333333
2324,-8.533333333333333,-454.4,-307.2
2325,-10.666666666666666,-448.0,-317.8666666666667
2326,-8.533333333333333,-448.0,-311.46666666666664
2327,-2.1333333333333333,-452.26666666666665,-313.6
2328,-14.933333333333334,-450.1333333333333,-311.46666666666664
2329,-14.933333333333334,-452.26666666666665,-311.46666666666664
2330,-6.4,-450.1333333333333,-311.46666666666664
2331,-2.1333333333333333,-454.4,-309.3333333333333
2332,-10.666666666666666,-445.8666666666667,-309.3333333333333
2333,-8.533333333333333,-441.59999999999997,-307.2
2334,-2.1333333333333333,-452.26666666666665,-311.46666666666664
2335,-6.4,-428.8,-317.8666666666667
2336,-12.8,-448.0,-307.2
2337,-4.266666666666667,-443.73333333333335,-313.6
2338,-12.8,-443.73333333333335,-302.93333333333334
2339,-10.666666666666666,-448.0,-311.46666666666664
2340,-17.066666666666666,-443.73333333333335,-309.3333333333333
2341,-8.533333333333333,-448.0,-309.3333333333333
2342,-10.666666666666666,-448.0,-311.46666666666664
2343,-6.4,-452.26666666666665,-311.46666666666664
2344,-12.8,-448.0,-317.8666666666667
2345,-8.533333333333333,-450.1333333333333,-305.06666666666666
2346,-17.066666666666666,-448.0,-307.2
2347,-8.533333333333333,-441.59999999999997,-313.6
2348,-2.1333333333333333,-454.4,-315.73333333333335
2349,0.0,-448.0,-313.6
2350,-4.266666666666667,-456.5333333333333,-311.46666666666664
2351,-8.533333333333333,-441.59999999999997,-317.8666666666667
2352,-2.1333333333333333,-448.0,-315.73333333333335
2353,-8.533333333333333,-445.8666666666667,-315.73333333333335
2354,-6.4,-445.8666666666667,-317.8666666666667
2355,-4.266666666666667,-448.0,-313.6
2356,-12.8,-443.73333333333335,-307.2
2357,-4.266666666666667,-439.46666666666664,-317.8666666666667
2358,-2.1333333333333333,-448.0,-315.73333333333335
2359,-6.4,-445.8666666666667,-313.6
2360,-8.533333333333333,-448.0,-315.73333333333335
2361,-6.4,-448.0,-317.8666666666667
2362,-12.8,-448.0,-309.3333333333333
2363,-8.533333333333333,-448.0,-320.0
2364,-12.8,-448.0,-317.8666666666667
2365,-12.8,-448.0,-311.46666666666664
2366,-10.666666666666666,-445.8666666666667,-315.73333333333335
2367,-4.266666666666667,-454.4,-315.73333333333335
2368,0.0,-445.8666666666667,-311.46666666666664
2369,-2.1333333333333333,-452.26666666666665,-307.2
2370,-2.1333333333333333,-452.26666666666665,-309.3333333333333
2371,-6.4,-448.0,-309.3333333333333
2372,-2.1333333333333333,-452.26666666666665,-311.46666666666664
2373,-8.533333333333333,-450.1333333333333,-315.73333333333335
2374,-2.1333333333333333,-456.5333333333333,-317.8666666666667
2375,-4.266666666666667,-454.4,-315.73333333333335
2376,-4.266666666666667,-456.5333333333333,-311.46666666666664
2377,-12.8,-456.5333333333333,-313.6
2378,-6.4,-458.6666666666667,-313.6
2379,-6.4,-450.1333333333333,-307.2
2380,-8.533333333333333,-454.4,-311.46666666666664
2381,-10.666666666666666,-452.26666666666665,-315.73333333333335
2382,-6.4,-452.26666666666665,-307.2
2383,-8.533333333333333,-450.1333333333333,-317.8666666666667
2384,-6.4,-454.4,-315.73333333333335
2385,-4.266666666666667,-448.0,-309.3333333333333
2386,-14.933333333333334,-452.26666666666665,-309.3333333333333
2387,-4.266666666666667,-452.26666666666665,-309.3333333333333
2388,-6.4,-445.8666666666667,-313.6
2389,0.0,-452.26666666666665,-309.3333333333333
2390,-10.666666666666666,-448.0,-315.73333333333335
2391,-2.1333333333333333,-450.1333333333333,-317.8666666666667
2392,-12.8,-454.4,-305.06666666666666
2393,-8.533333333333333,-452.26666666666665,-315.73333333333335
2394,-6.4,-448.0,-311.46666666666664
2395,-4.266666666666667,-452.26666666666665,-313.6
2396,-10.666666666666666,-448.0,-311.46666666666664
2397,-12.8,-454.4,-309.3333333333333
2398,-10.666666666666666,-450.1333333333333,-311.46666666666664
2399,-6.4,-456.5333333333333,-311.46666666666664
