,accelerometerAccelerationX(G),accelerometerAccelerationY(G),accelerometerAccelerationZ(G)
0,55.46666666666667,-535.4666666666667,-136.53333333333333
1,49.06666666666666,-539.7333333333333,-149.33333333333334
2,51.2,-537.6,-132.26666666666665
3,46.93333333333333,-529.0666666666666,-138.66666666666666
4,49.06666666666666,-531.2,-134.4
5,36.266666666666666,-533.3333333333334,-113.06666666666666
6,49.06666666666666,-533.3333333333334,-136.53333333333333
7,44.8,-531.2,-136.53333333333333
8,46.93333333333333,-529.0666666666666,-128.0
9,44.8,-526.9333333333333,-132.26666666666665
10,44.8,-529.0666666666666,-128.0
11,44.8,-529.0666666666666,-128.0
12,36.266666666666666,-522.6666666666666,-128.0
13,44.8,-526.9333333333333,-140.8
14,40.53333333333333,-531.2,-134.4
15,44.8,-531.2,-136.53333333333333
16,49.06666666666666,-539.7333333333333,-130.13333333333333
17,44.8,-533.3333333333334,-128.0
18,51.2,-537.6,-136.53333333333333
19,53.333333333333336,-537.6,-136.53333333333333
20,46.93333333333333,-533.3333333333334,-136.53333333333333
21,55.46666666666667,-537.6,-134.4
22,55.46666666666667,-537.6,-138.66666666666666
23,46.93333333333333,-535.4666666666667,-138.66666666666666
24,49.06666666666666,-531.2,-134.4
25,49.06666666666666,-531.2,-132.26666666666665
26,49.06666666666666,-539.7333333333333,-149.33333333333334
27,51.2,-531.2,-142.93333333333334
28,49.06666666666666,-531.2,-138.66666666666666
29,51.2,-529.0666666666666,-140.8
30,51.2,-533.3333333333334,-138.66666666666666
31,44.8,-531.2,-147.2
32,44.8,-531.2,-128.0
33,46.93333333333333,-535.4666666666667,-136.53333333333333
34,42.666666666666664,-535.4666666666667,-130.13333333333333
35,42.666666666666664,-533.3333333333334,-134.4
36,42.666666666666664,-535.4666666666667,-134.4
37,42.666666666666664,-535.4666666666667,-138.66666666666666
38,40.53333333333333,-533.3333333333334,-140.8
39,46.93333333333333,-529.0666666666666,-132.26666666666665
40,44.8,-526.9333333333333,-134.4
41,44.8,-524.8,-134.4
42,49.06666666666666,-524.8,-125.86666666666666
43,51.2,-531.2,-134.4
44,44.8,-529.0666666666666,-140.8
45,42.666666666666664,-526.9333333333333,-140.8
46,49.06666666666666,-529.0666666666666,-134.4
47,49.06666666666666,-529.0666666666666,-130.13333333333333
48,44.8,-522.6666666666666,-121.6
49,49.06666666666666,-531.2,-136.53333333333333
50,44.8,-529.0666666666666,-138.66666666666666
51,42.666666666666664,-529.0666666666666,-136.53333333333333
52,40.53333333333333,-531.2,-136.53333333333333
53,49.06666666666666,-529.0666666666666,-142.93333333333334
54,46.93333333333333,-526.9333333333333,-138.66666666666666
55,44.8,-529.0666666666666,-136.53333333333333
56,49.06666666666666,-533.3333333333334,-140.8
57,53.333333333333336,-533.3333333333334,-132.26666666666665
58,49.06666666666666,-529.0666666666666,-140.8
59,49.06666666666666,-529.0666666666666,-128.0
60,55.46666666666667,-531.2,-145.06666666666666
61,53.333333333333336,-529.0666666666666,-132.26666666666665
62,51.2,-526.9333333333333,-134.4
63,44.8,-529.0666666666666,-136.53333333333333
64,49.06666666666666,-526.9333333333333,-145.06666666666666
65,51.2,-524.8,-138.66666666666666
66,49.06666666666666,-526.9333333333333,-142.93333333333334
67,55.46666666666667,-526.9333333333333,-142.93333333333334
68,57.6,-529.0666666666666,-142.93333333333334
69,55.46666666666667,-529.0666666666666,-145.06666666666666
70,61.86666666666667,-526.9333333333333,-132.26666666666665
71,55.46666666666667,-529.0666666666666,-140.8
72,55.46666666666667,-533.3333333333334,-136.53333333333333
73,55.46666666666667,-537.6,-151.46666666666667
74,53.333333333333336,-531.2,-142.93333333333334
75,55.46666666666667,-531.2,-142.93333333333334
76,55.46666666666667,-533.3333333333334,-138.66666666666666
77,55.46666666666667,-529.0666666666666,-145.06666666666666
78,51.2,-529.0666666666666,-142.93333333333334
79,55.46666666666667,-529.0666666666666,-140.8
80,51.2,-529.0666666666666,-142.93333333333334
81,55.46666666666667,-533.3333333333334,-142.93333333333334
82,53.333333333333336,-533.3333333333334,-140.8
83,53.333333333333336,-531.2,-136.53333333333333
84,57.6,-529.0666666666666,-142.93333333333334
85,55.46666666666667,-533.3333333333334,-151.46666666666667
86,53.333333333333336,-533.3333333333334,-147.2
87,51.2,-524.8,-149.33333333333334
88,53.333333333333336,-531.2,-142.93333333333334
89,53.333333333333336,-537.6,-136.53333333333333
90,53.333333333333336,-529.0666666666666,-153.6
91,51.2,-526.9333333333333,-142.93333333333334
92,36.266666666666666,-514.1333333333333,-138.66666666666666
93,49.06666666666666,-531.2,-140.8
94,49.06666666666666,-526.9333333333333,-140.8
95,55.46666666666667,-531.2,-147.2
96,46.93333333333333,-529.0666666666666,-149.33333333333334
97,42.666666666666664,-526.9333333333333,-153.6
98,51.2,-524.8,-151.46666666666667
99,49.06666666666666,-526.9333333333333,-153.6
100,51.2,-529.0666666666666,-157.86666666666667
101,51.2,-529.0666666666666,-153.6
102,53.333333333333336,-526.9333333333333,-153.6
103,46.93333333333333,-524.8,-153.6
104,57.6,-529.0666666666666,-151.46666666666667
105,46.93333333333333,-526.9333333333333,-153.6
106,55.46666666666667,-529.0666666666666,-151.46666666666667
107,53.333333333333336,-529.0666666666666,-155.73333333333332
108,49.06666666666666,-524.8,-147.2
109,51.2,-524.8,-147.2
110,57.6,-522.6666666666666,-151.46666666666667
111,55.46666666666667,-524.8,-153.6
112,51.2,-522.6666666666666,-149.33333333333334
113,59.733333333333334,-509.8666666666667,-140.8
114,57.6,-529.0666666666666,-157.86666666666667
115,55.46666666666667,-524.8,-160.0
116,51.2,-522.6666666666666,-155.73333333333332
117,61.86666666666667,-526.9333333333333,-147.2
118,53.333333333333336,-522.6666666666666,-155.73333333333332
119,53.333333333333336,-522.6666666666666,-145.06666666666666
120,55.46666666666667,-522.6666666666666,-149.33333333333334
121,55.46666666666667,-524.8,-157.86666666666667
122,55.46666666666667,-526.9333333333333,-147.2
123,57.6,-522.6666666666666,-151.46666666666667
124,57.6,-524.8,-153.6
125,57.6,-522.6666666666666,-151.46666666666667
126,51.2,-526.9333333333333,-147.2
127,55.46666666666667,-524.8,-153.6
128,61.86666666666667,-529.0666666666666,-153.6
129,57.6,-526.9333333333333,-151.46666666666667
130,59.733333333333334,-524.8,-149.33333333333334
131,46.93333333333333,-524.8,-145.06666666666666
132,55.46666666666667,-520.5333333333333,-157.86666666666667
133,59.733333333333334,-522.6666666666666,-151.46666666666667
134,53.333333333333336,-524.8,-149.33333333333334
135,51.2,-518.4,-138.66666666666666
136,55.46666666666667,-524.8,-151.46666666666667
137,53.333333333333336,-526.9333333333333,-153.6
138,57.6,-533.3333333333334,-155.73333333333332
139,49.06666666666666,-529.0666666666666,-149.33333333333334
140,51.2,-524.8,-155.73333333333332
141,51.2,-529.0666666666666,-160.0
142,53.333333333333336,-529.0666666666666,-155.73333333333332
143,55.46666666666667,-531.2,-162.13333333333333
144,51.2,-526.9333333333333,-157.86666666666667
145,51.2,-529.0666666666666,-160.0
146,57.6,-529.0666666666666,-157.86666666666667
147,44.8,-529.0666666666666,-160.0
148,59.733333333333334,-529.0666666666666,-168.53333333333333
149,55.46666666666667,-526.9333333333333,-157.86666666666667
150,53.333333333333336,-526.9333333333333,-160.0
151,53.333333333333336,-526.9333333333333,-153.6
152,51.2,-520.5333333333333,-164.26666666666665
153,51.2,-522.6666666666666,-160.0
154,53.333333333333336,-526.9333333333333,-164.26666666666665
155,57.6,-529.0666666666666,-166.4
156,46.93333333333333,-522.6666666666666,-162.13333333333333
157,53.333333333333336,-518.4,-151.46666666666667
158,51.2,-526.9333333333333,-174.93333333333334
159,53.333333333333336,-531.2,-160.0
160,51.2,-529.0666666666666,-166.4
161,53.333333333333336,-526.9333333333333,-166.4
162,49.06666666666666,-529.0666666666666,-164.26666666666665
163,59.733333333333334,-531.2,-164.26666666666665
164,46.93333333333333,-522.6666666666666,-164.26666666666665
165,51.2,-522.6666666666666,-170.66666666666666
166,49.06666666666666,-524.8,-160.0
167,51.2,-524.8,-162.13333333333333
168,53.333333333333336,-524.8,-168.53333333333333
169,44.8,-522.6666666666666,-170.66666666666666
170,49.06666666666666,-524.8,-166.4
171,49.06666666666666,-529.0666666666666,-160.0
172,42.666666666666664,-522.6666666666666,-172.8
173,46.93333333333333,-518.4,-166.4
174,53.333333333333336,-526.9333333333333,-168.53333333333333
175,53.333333333333336,-524.8,-172.8
176,51.2,-529.0666666666666,-166.4
177,51.2,-529.0666666666666,-170.66666666666666
178,53.333333333333336,-529.0666666666666,-166.4
179,46.93333333333333,-518.4,-164.26666666666665
180,53.333333333333336,-524.8,-168.53333333333333
181,55.46666666666667,-526.9333333333333,-174.93333333333334
182,57.6,-529.0666666666666,-172.8
183,53.333333333333336,-526.9333333333333,-174.93333333333334
184,61.86666666666667,-526.9333333333333,-170.66666666666666
185,59.733333333333334,-526.9333333333333,-172.8
186,57.6,-524.8,-181.33333333333334
187,55.46666666666667,-518.4,-177.06666666666666
188,55.46666666666667,-522.6666666666666,-174.93333333333334
189,59.733333333333334,-520.5333333333333,-174.93333333333334
190,59.733333333333334,-524.8,-170.66666666666666
191,53.333333333333336,-520.5333333333333,-174.93333333333334
192,53.333333333333336,-529.0666666666666,-179.2
193,44.8,-524.8,-170.66666666666666
194,53.333333333333336,-522.6666666666666,-185.6
195,46.93333333333333,-520.5333333333333,-177.06666666666666
196,46.93333333333333,-520.5333333333333,-183.46666666666667
197,44.8,-520.5333333333333,-179.2
198,46.93333333333333,-522.6666666666666,-181.33333333333334
199,46.93333333333333,-518.4,-179.2
200,38.4,-512.0,-177.06666666666666
201,51.2,-518.4,-157.86666666666667
202,46.93333333333333,-518.4,-181.33333333333334
203,44.8,-520.5333333333333,-181.33333333333334
204,49.06666666666666,-518.4,-179.2
205,42.666666666666664,-514.1333333333333,-177.06666666666666
206,40.53333333333333,-518.4,-177.06666666666666
207,46.93333333333333,-516.2666666666667,-179.2
208,49.06666666666666,-526.9333333333333,-179.2
209,59.733333333333334,-524.8,-181.33333333333334
210,49.06666666666666,-522.6666666666666,-181.33333333333334
211,42.666666666666664,-522.6666666666666,-174.93333333333334
212,51.2,-524.8,-179.2
213,51.2,-520.5333333333333,-177.06666666666666
214,49.06666666666666,-526.9333333333333,-181.33333333333334
215,51.2,-520.5333333333333,-172.8
216,57.6,-524.8,-177.06666666666666
217,49.06666666666666,-518.4,-179.2
218,51.2,-522.6666666666666,-183.46666666666667
219,49.06666666666666,-516.2666666666667,-179.2
220,49.06666666666666,-520.5333333333333,-172.8
221,49.06666666666666,-522.6666666666666,-177.06666666666666
222,36.266666666666666,-529.0666666666666,-136.53333333333333
223,46.93333333333333,-522.6666666666666,-179.2
224,49.06666666666666,-518.4,-177.06666666666666
225,49.06666666666666,-512.0,-189.86666666666667
226,44.8,-522.6666666666666,-177.06666666666666
227,46.93333333333333,-522.6666666666666,-181.33333333333334
228,44.8,-514.1333333333333,-168.53333333333333
229,44.8,-514.1333333333333,-179.2
230,53.333333333333336,-522.6666666666666,-181.33333333333334
231,44.8,-520.5333333333333,-174.93333333333334
232,44.8,-520.5333333333333,-179.2
233,40.53333333333333,-514.1333333333333,-183.46666666666667
234,46.93333333333333,-524.8,-177.06666666666666
235,46.93333333333333,-520.5333333333333,-179.2
236,46.93333333333333,-524.8,-181.33333333333334
237,55.46666666666667,-524.8,-179.2
238,53.333333333333336,-524.8,-179.2
239,44.8,-524.8,-185.6
240,55.46666666666667,-524.8,-179.2
241,51.2,-520.5333333333333,-181.33333333333334
242,51.2,-524.8,-177.06666666666666
243,51.2,-520.5333333333333,-181.33333333333334
244,59.733333333333334,-539.7333333333333,-204.8
245,49.06666666666666,-520.5333333333333,-181.33333333333334
246,53.333333333333336,-518.4,-179.2
247,51.2,-524.8,-174.93333333333334
248,53.333333333333336,-518.4,-181.33333333333334
249,49.06666666666666,-520.5333333333333,-168.53333333333333
250,49.06666666666666,-516.2666666666667,-179.2
251,46.93333333333333,-518.4,-177.06666666666666
252,51.2,-518.4,-172.8
253,51.2,-522.6666666666666,-179.2
254,49.06666666666666,-518.4,-183.46666666666667
255,49.06666666666666,-520.5333333333333,-179.2
256,40.53333333333333,-520.5333333333333,-174.93333333333334
257,46.93333333333333,-522.6666666666666,-179.2
258,42.666666666666664,-518.4,-179.2
259,49.06666666666666,-520.5333333333333,-179.2
260,46.93333333333333,-518.4,-174.93333333333334
261,46.93333333333333,-526.9333333333333,-177.06666666666666
262,38.4,-526.9333333333333,-179.2
263,49.06666666666666,-522.6666666666666,-177.06666666666666
264,44.8,-524.8,-174.93333333333334
265,40.53333333333333,-520.5333333333333,-177.06666666666666
266,51.2,-526.9333333333333,-168.53333333333333
267,44.8,-520.5333333333333,-174.93333333333334
268,49.06666666666666,-522.6666666666666,-179.2
269,44.8,-524.8,-172.8
270,44.8,-522.6666666666666,-177.06666666666666
271,46.93333333333333,-524.8,-170.66666666666666
272,40.53333333333333,-520.5333333333333,-177.06666666666666
273,46.93333333333333,-520.5333333333333,-179.2
274,51.2,-524.8,-179.2
275,42.666666666666664,-522.6666666666666,-179.2
276,49.06666666666666,-526.9333333333333,-183.46666666666667
277,55.46666666666667,-529.0666666666666,-181.33333333333334
278,46.93333333333333,-522.6666666666666,-183.46666666666667
279,40.53333333333333,-516.2666666666667,-181.33333333333334
280,49.06666666666666,-518.4,-177.06666666666666
281,49.06666666666666,-522.6666666666666,-183.46666666666667
282,46.93333333333333,-520.5333333333333,-179.2
283,46.93333333333333,-522.6666666666666,-183.46666666666667
284,49.06666666666666,-522.6666666666666,-183.46666666666667
285,44.8,-529.0666666666666,-177.06666666666666
286,44.8,-518.4,-181.33333333333334
287,46.93333333333333,-526.9333333333333,-179.2
288,53.333333333333336,-514.1333333333333,-181.33333333333334
289,51.2,-522.6666666666666,-177.06666666666666
290,49.06666666666666,-524.8,-179.2
291,46.93333333333333,-516.2666666666667,-179.2
292,46.93333333333333,-520.5333333333333,-177.06666666666666
293,53.333333333333336,-516.2666666666667,-177.06666666666666
294,44.8,-518.4,-179.2
295,53.333333333333336,-526.9333333333333,-179.2
296,55.46666666666667,-526.9333333333333,-177.06666666666666
297,51.2,-526.9333333333333,-179.2
298,55.46666666666667,-520.5333333333333,-177.06666666666666
299,36.266666666666666,-514.1333333333333,-179.2
300,53.333333333333336,-520.5333333333333,-168.53333333333333
301,44.8,-514.1333333333333,-177.06666666666666
302,46.93333333333333,-514.1333333333333,-174.93333333333334
303,51.2,-520.5333333333333,-172.8
304,51.2,-520.5333333333333,-168.53333333333333
305,51.2,-524.8,-168.53333333333333
306,51.2,-520.5333333333333,-170.66666666666666
307,44.8,-522.6666666666666,-172.8
308,49.06666666666666,-520.5333333333333,-177.06666666666666
309,46.93333333333333,-518.4,-172.8
310,49.06666666666666,-522.6666666666666,-153.6
311,44.8,-522.6666666666666,-174.93333333333334
312,46.93333333333333,-526.9333333333333,-179.2
313,46.93333333333333,-522.6666666666666,-170.66666666666666
314,42.666666666666664,-522.6666666666666,-170.66666666666666
315,46.93333333333333,-522.6666666666666,-177.06666666666666
316,46.93333333333333,-524.8,-166.4
317,44.8,-518.4,-185.6
318,42.666666666666664,-520.5333333333333,-179.2
319,49.06666666666666,-516.2666666666667,-177.06666666666666
320,51.2,-520.5333333333333,-170.66666666666666
321,44.8,-524.8,-170.66666666666666
322,49.06666666666666,-524.8,-168.53333333333333
323,46.93333333333333,-524.8,-174.93333333333334
324,42.666666666666664,-522.6666666666666,-172.8
325,46.93333333333333,-524.8,-170.66666666666666
326,42.666666666666664,-524.8,-166.4
327,42.666666666666664,-520.5333333333333,-166.4
328,40.53333333333333,-522.6666666666666,-168.53333333333333
329,40.53333333333333,-524.8,-166.4
330,46.93333333333333,-524.8,-174.93333333333334
331,36.266666666666666,-541.8666666666667,-164.26666666666665
332,40.53333333333333,-529.0666666666666,-174.93333333333334
333,46.93333333333333,-524.8,-177.06666666666666
334,49.06666666666666,-520.5333333333333,-174.93333333333334
335,44.8,-524.8,-177.06666666666666
336,55.46666666666667,-524.8,-177.06666666666666
337,49.06666666666666,-524.8,-162.13333333333333
338,51.2,-526.9333333333333,-172.8
339,49.06666666666666,-518.4,-174.93333333333334
340,44.8,-518.4,-179.2
341,49.06666666666666,-516.2666666666667,-179.2
342,46.93333333333333,-522.6666666666666,-177.06666666666666
343,53.333333333333336,-520.5333333333333,-177.06666666666666
344,51.2,-524.8,-174.93333333333334
345,53.333333333333336,-522.6666666666666,-177.06666666666666
346,51.2,-529.0666666666666,-179.2
347,44.8,-526.9333333333333,-172.8
348,46.93333333333333,-526.9333333333333,-174.93333333333334
349,51.2,-524.8,-174.93333333333334
350,53.333333333333336,-524.8,-177.06666666666666
351,57.6,-518.4,-177.06666666666666
352,64.0,-524.8,-177.06666666666666
353,53.333333333333336,-509.8666666666667,-172.8
354,61.86666666666667,-516.2666666666667,-174.93333333333334
355,53.333333333333336,-514.1333333333333,-174.93333333333334
356,57.6,-514.1333333333333,-172.8
357,66.13333333333333,-518.4,-172.8
358,64.0,-516.2666666666667,-166.4
359,66.13333333333333,-520.5333333333333,-166.4
360,64.0,-524.8,-166.4
361,59.733333333333334,-512.0,-168.53333333333333
362,59.733333333333334,-520.5333333333333,-155.73333333333332
363,55.46666666666667,-522.6666666666666,-166.4
364,59.733333333333334,-524.8,-153.6
365,53.333333333333336,-520.5333333333333,-166.4
366,57.6,-526.9333333333333,-166.4
367,42.666666666666664,-520.5333333333333,-160.0
368,46.93333333333333,-526.9333333333333,-160.0
369,38.4,-529.0666666666666,-160.0
370,40.53333333333333,-531.2,-170.66666666666666
371,42.666666666666664,-531.2,-174.93333333333334
372,32.0,-531.2,-177.06666666666666
373,34.13333333333333,-529.0666666666666,-172.8
374,34.13333333333333,-529.0666666666666,-177.06666666666666
375,32.0,-516.2666666666667,-183.46666666666667
376,38.4,-524.8,-172.8
377,34.13333333333333,-526.9333333333333,-179.2
378,32.0,-524.8,-181.33333333333334
379,38.4,-524.8,-181.33333333333334
380,38.4,-518.4,-177.06666666666666
381,38.4,-518.4,-179.2
382,42.666666666666664,-514.1333333333333,-174.93333333333334
383,46.93333333333333,-522.6666666666666,-174.93333333333334
384,46.93333333333333,-518.4,-170.66666666666666
385,53.333333333333336,-524.8,-153.6
386,57.6,-520.5333333333333,-170.66666666666666
387,57.6,-529.0666666666666,-164.26666666666665
388,55.46666666666667,-526.9333333333333,-166.4
389,53.333333333333336,-526.9333333333333,-157.86666666666667
390,55.46666666666667,-522.6666666666666,-160.0
391,55.46666666666667,-526.9333333333333,-166.4
392,59.733333333333334,-526.9333333333333,-168.53333333333333
393,53.333333333333336,-526.9333333333333,-170.66666666666666
394,61.86666666666667,-526.9333333333333,-162.13333333333333
395,53.333333333333336,-526.9333333333333,-157.86666666666667
396,59.733333333333334,-524.8,-164.26666666666665
397,55.46666666666667,-537.6,-185.6
398,61.86666666666667,-520.5333333333333,-168.53333333333333
399,57.6,-524.8,-164.26666666666665
400,57.6,-518.4,-164.26666666666665
401,61.86666666666667,-522.6666666666666,-168.53333333333333
402,59.733333333333334,-520.5333333333333,-168.53333333333333
403,64.0,-514.1333333333333,-170.66666666666666
404,68.26666666666667,-520.5333333333333,-168.53333333333333
405,59.733333333333334,-503.46666666666664,-170.66666666666666
406,66.13333333333333,-505.59999999999997,-174.93333333333334
407,81.06666666666666,-514.1333333333333,-185.6
408,83.2,-520.5333333333333,-196.26666666666665
409,81.06666666666666,-526.9333333333333,-185.6
410,83.2,-537.6,-187.73333333333332
411,70.4,-537.6,-181.33333333333334
412,57.6,-531.2,-185.6
413,57.6,-520.5333333333333,-181.33333333333334
414,59.733333333333334,-516.2666666666667,-187.73333333333332
415,57.6,-512.0,-187.73333333333332
416,57.6,-516.2666666666667,-181.33333333333334
417,44.8,-529.0666666666666,-168.53333333333333
418,40.53333333333333,-531.2,-153.6
419,36.266666666666666,-529.0666666666666,-160.0
420,40.53333333333333,-531.2,-145.06666666666666
421,34.13333333333333,-529.0666666666666,-155.73333333333332
422,27.733333333333334,-522.6666666666666,-155.73333333333332
423,23.466666666666665,-518.4,-162.13333333333333
424,29.866666666666667,-509.8666666666667,-164.26666666666665
425,14.933333333333334,-514.1333333333333,-166.4
426,12.8,-516.2666666666667,-170.66666666666666
427,19.2,-524.8,-170.66666666666666
428,23.466666666666665,-529.0666666666666,-166.4
429,34.13333333333333,-541.8666666666667,-170.66666666666666
430,34.13333333333333,-533.3333333333334,-164.26666666666665
431,53.333333333333336,-533.3333333333334,-170.66666666666666
432,55.46666666666667,-529.0666666666666,-168.53333333333333
433,64.0,-529.0666666666666,-170.66666666666666
434,64.0,-518.4,-166.4
435,64.0,-522.6666666666666,-160.0
436,66.13333333333333,-526.9333333333333,-155.73333333333332
437,59.733333333333334,-520.5333333333333,-149.33333333333334
438,59.733333333333334,-522.6666666666666,-162.13333333333333
439,55.46666666666667,-520.5333333333333,-166.4
440,42.666666666666664,-524.8,-174.93333333333334
441,66.13333333333333,-526.9333333333333,-172.8
442,61.86666666666667,-529.0666666666666,-164.26666666666665
443,61.86666666666667,-529.0666666666666,-170.66666666666666
444,66.13333333333333,-526.9333333333333,-168.53333333333333
445,64.0,-529.0666666666666,-168.53333333333333
446,70.4,-526.9333333333333,-160.0
447,68.26666666666667,-531.2,-164.26666666666665
448,68.26666666666667,-529.0666666666666,-160.0
449,68.26666666666667,-526.9333333333333,-160.0
450,66.13333333333333,-520.5333333333333,-162.13333333333333
451,64.0,-518.4,-162.13333333333333
452,68.26666666666667,-518.4,-153.6
453,66.13333333333333,-518.4,-155.73333333333332
454,61.86666666666667,-524.8,-151.46666666666667
455,59.733333333333334,-524.8,-153.6
456,46.93333333333333,-529.0666666666666,-157.86666666666667
457,51.2,-526.9333333333333,-164.26666666666665
458,44.8,-533.3333333333334,-164.26666666666665
459,49.06666666666666,-529.0666666666666,-170.66666666666666
460,46.93333333333333,-533.3333333333334,-168.53333333333333
461,38.4,-531.2,-160.0
462,70.4,-524.8,-166.4
463,46.93333333333333,-529.0666666666666,-164.26666666666665
464,42.666666666666664,-520.5333333333333,-162.13333333333333
465,44.8,-520.5333333333333,-157.86666666666667
466,42.666666666666664,-529.0666666666666,-160.0
467,40.53333333333333,-516.2666666666667,-155.73333333333332
468,49.06666666666666,-518.4,-155.73333333333332
469,44.8,-522.6666666666666,-153.6
470,42.666666666666664,-522.6666666666666,-153.6
471,44.8,-526.9333333333333,-155.73333333333332
472,40.53333333333333,-526.9333333333333,-162.13333333333333
473,42.666666666666664,-526.9333333333333,-155.73333333333332
474,40.53333333333333,-529.0666666666666,-155.73333333333332
475,42.666666666666664,-529.0666666666666,-157.86666666666667
476,36.266666666666666,-529.0666666666666,-166.4
477,34.13333333333333,-529.0666666666666,-151.46666666666667
478,40.53333333333333,-531.2,-162.13333333333333
479,29.866666666666667,-529.0666666666666,-155.73333333333332
480,36.266666666666666,-526.9333333333333,-155.73333333333332
481,32.0,-522.6666666666666,-151.46666666666667
482,32.0,-522.6666666666666,-151.46666666666667
483,29.866666666666667,-522.6666666666666,-149.33333333333334
484,38.4,-524.8,-157.86666666666667
485,27.733333333333334,-529.0666666666666,-162.13333333333333
486,23.466666666666665,-524.8,-155.73333333333332
487,32.0,-524.8,-147.2
488,29.866666666666667,-529.0666666666666,-162.13333333333333
489,38.4,-526.9333333333333,-160.0
490,36.266666666666666,-531.2,-155.73333333333332
491,34.13333333333333,-524.8,-160.0
492,40.53333333333333,-529.0666666666666,-153.6
493,44.8,-529.0666666666666,-153.6
494,42.666666666666664,-524.8,-151.46666666666667
495,38.4,-531.2,-147.2
496,42.666666666666664,-526.9333333333333,-153.6
497,44.8,-524.8,-155.73333333333332
498,49.06666666666666,-526.9333333333333,-151.46666666666667
499,49.06666666666666,-531.2,-149.33333333333334
500,51.2,-531.2,-149.33333333333334
501,46.93333333333333,-529.0666666666666,-142.93333333333334
502,44.8,-526.9333333333333,-145.06666666666666
503,44.8,-535.4666666666667,-157.86666666666667
504,42.666666666666664,-524.8,-151.46666666666667
505,40.53333333333333,-531.2,-155.73333333333332
506,49.06666666666666,-535.4666666666667,-130.13333333333333
507,44.8,-529.0666666666666,-157.86666666666667
508,44.8,-529.0666666666666,-151.46666666666667
509,42.666666666666664,-531.2,-153.6
510,46.93333333333333,-529.0666666666666,-149.33333333333334
511,53.333333333333336,-535.4666666666667,-155.73333333333332
512,51.2,-531.2,-151.46666666666667
513,49.06666666666666,-524.8,-147.2
514,51.2,-524.8,-155.73333333333332
515,49.06666666666666,-526.9333333333333,-149.33333333333334
516,49.06666666666666,-529.0666666666666,-149.33333333333334
517,49.06666666666666,-529.0666666666666,-153.6
518,49.06666666666666,-531.2,-149.33333333333334
519,46.93333333333333,-526.9333333333333,-153.6
520,51.2,-529.0666666666666,-149.33333333333334
521,51.2,-531.2,-149.33333333333334
522,44.8,-529.0666666666666,-151.46666666666667
523,51.2,-531.2,-136.53333333333333
524,49.06666666666666,-529.0666666666666,-149.33333333333334
525,46.93333333333333,-529.0666666666666,-142.93333333333334
526,57.6,-526.9333333333333,-149.33333333333334
527,53.333333333333336,-522.6666666666666,-155.73333333333332
528,46.93333333333333,-529.0666666666666,-147.2
529,51.2,-531.2,-145.06666666666666
530,51.2,-524.8,-142.93333333333334
531,38.4,-522.6666666666666,-138.66666666666666
532,49.06666666666666,-529.0666666666666,-145.06666666666666
533,51.2,-533.3333333333334,-142.93333333333334
534,44.8,-526.9333333333333,-142.93333333333334
535,46.93333333333333,-529.0666666666666,-136.53333333333333
536,40.53333333333333,-526.9333333333333,-140.8
537,44.8,-531.2,-147.2
538,49.06666666666666,-535.4666666666667,-138.66666666666666
539,53.333333333333336,-535.4666666666667,-145.06666666666666
540,44.8,-531.2,-145.06666666666666
541,42.666666666666664,-526.9333333333333,-151.46666666666667
542,46.93333333333333,-529.0666666666666,-140.8
543,42.666666666666664,-522.6666666666666,-147.2
544,49.06666666666666,-533.3333333333334,-142.93333333333334
545,44.8,-526.9333333333333,-145.06666666666666
546,49.06666666666666,-529.0666666666666,-138.66666666666666
547,46.93333333333333,-524.8,-140.8
548,49.06666666666666,-531.2,-145.06666666666666
549,46.93333333333333,-524.8,-142.93333333333334
550,49.06666666666666,-535.4666666666667,-142.93333333333334
551,51.2,-533.3333333333334,-149.33333333333334
552,51.2,-531.2,-149.33333333333334
553,49.06666666666666,-529.0666666666666,-140.8
554,53.333333333333336,-529.0666666666666,-147.2
555,46.93333333333333,-526.9333333333333,-151.46666666666667
556,49.06666666666666,-526.9333333333333,-145.06666666666666
557,51.2,-531.2,-140.8
558,51.2,-526.9333333333333,-136.53333333333333
559,53.333333333333336,-531.2,-142.93333333333334
560,55.46666666666667,-529.0666666666666,-140.8
561,57.6,-529.0666666666666,-149.33333333333334
562,46.93333333333333,-529.0666666666666,-149.33333333333334
563,46.93333333333333,-531.2,-142.93333333333334
564,46.93333333333333,-526.9333333333333,-142.93333333333334
565,40.53333333333333,-526.9333333333333,-145.06666666666666
566,38.4,-533.3333333333334,-142.93333333333334
567,40.53333333333333,-529.0666666666666,-149.33333333333334
568,34.13333333333333,-533.3333333333334,-147.2
569,36.266666666666666,-533.3333333333334,-155.73333333333332
570,38.4,-533.3333333333334,-157.86666666666667
571,23.466666666666665,-544.0,-187.73333333333332
572,29.866666666666667,-531.2,-166.4
573,27.733333333333334,-524.8,-172.8
574,25.6,-529.0666666666666,-164.26666666666665
575,27.733333333333334,-529.0666666666666,-166.4
576,29.866666666666667,-524.8,-166.4
577,32.0,-524.8,-166.4
578,32.0,-524.8,-168.53333333333333
579,32.0,-524.8,-157.86666666666667
580,34.13333333333333,-522.6666666666666,-166.4
581,38.4,-524.8,-164.26666666666665
582,42.666666666666664,-531.2,-166.4
583,36.266666666666666,-529.0666666666666,-162.13333333333333
584,40.53333333333333,-529.0666666666666,-172.8
585,49.06666666666666,-533.3333333333334,-177.06666666666666
586,49.06666666666666,-529.0666666666666,-170.66666666666666
587,40.53333333333333,-529.0666666666666,-174.93333333333334
588,46.93333333333333,-529.0666666666666,-179.2
589,40.53333333333333,-524.8,-181.33333333333334
590,38.4,-526.9333333333333,-179.2
591,44.8,-522.6666666666666,-181.33333333333334
592,44.8,-520.5333333333333,-179.2
593,25.6,-503.46666666666664,-198.4
594,53.333333333333336,-522.6666666666666,-170.66666666666666
595,51.2,-514.1333333333333,-172.8
596,57.6,-514.1333333333333,-177.06666666666666
597,55.46666666666667,-512.0,-189.86666666666667
598,61.86666666666667,-505.59999999999997,-181.33333333333334
599,64.0,-503.46666666666664,-181.33333333333334
600,66.13333333333333,-509.8666666666667,-177.06666666666666
601,64.0,-505.59999999999997,-183.46666666666667
602,76.8,-490.6666666666667,-187.73333333333332
603,66.13333333333333,-486.4,-189.86666666666667
604,72.53333333333333,-482.1333333333333,-185.6
605,70.4,-482.1333333333333,-183.46666666666667
606,61.86666666666667,-471.46666666666664,-185.6
607,66.13333333333333,-465.06666666666666,-181.33333333333334
608,68.26666666666667,-458.6666666666667,-181.33333333333334
609,61.86666666666667,-452.26666666666665,-179.2
610,57.6,-437.3333333333333,-187.73333333333332
611,51.2,-443.73333333333335,-187.73333333333332
612,44.8,-426.6666666666667,-179.2
613,36.266666666666666,-428.8,-172.8
614,27.733333333333334,-420.26666666666665,-170.66666666666666
615,17.066666666666666,-435.2,-153.6
616,12.8,-409.6,-166.4
617,19.2,-403.2,-155.73333333333332
618,19.2,-401.06666666666666,-151.46666666666667
619,12.8,-398.93333333333334,-149.33333333333334
620,19.2,-392.5333333333333,-147.2
621,27.733333333333334,-392.5333333333333,-155.73333333333332
622,32.0,-390.4,-147.2
623,40.53333333333333,-386.1333333333333,-155.73333333333332
624,46.93333333333333,-371.2,-160.0
625,32.0,-360.5333333333333,-170.66666666666666
626,40.53333333333333,-369.06666666666666,-164.26666666666665
627,44.8,-364.8,-162.13333333333333
628,46.93333333333333,-371.2,-160.0
629,51.2,-371.2,-157.86666666666667
630,46.93333333333333,-375.46666666666664,-140.8
631,49.06666666666666,-388.26666666666665,-149.33333333333334
632,51.2,-392.5333333333333,-140.8
633,49.06666666666666,-398.93333333333334,-147.2
634,51.2,-405.3333333333333,-149.33333333333334
635,55.46666666666667,-413.8666666666667,-145.06666666666666
636,49.06666666666666,-420.26666666666665,-123.73333333333333
637,36.266666666666666,-433.06666666666666,-153.6
638,21.333333333333332,-433.06666666666666,-145.06666666666666
639,25.6,-443.73333333333335,-155.73333333333332
640,27.733333333333334,-456.5333333333333,-151.46666666666667
641,29.866666666666667,-460.8,-162.13333333333333
642,32.0,-467.2,-166.4
643,46.93333333333333,-465.06666666666666,-177.06666666666666
644,49.06666666666666,-462.93333333333334,-196.26666666666665
645,44.8,-443.73333333333335,-204.8
646,51.2,-445.8666666666667,-215.46666666666667
647,55.46666666666667,-433.06666666666666,-224.0
648,53.333333333333336,-433.06666666666666,-232.53333333333333
649,53.333333333333336,-416.0,-238.93333333333334
650,51.2,-416.0,-232.53333333333333
651,55.46666666666667,-405.3333333333333,-224.0
652,53.333333333333336,-401.06666666666666,-219.73333333333332
653,66.13333333333333,-407.46666666666664,-206.93333333333334
654,64.0,-403.2,-192.0
655,68.26666666666667,-409.6,-185.6
656,68.26666666666667,-411.73333333333335,-187.73333333333332
657,68.26666666666667,-424.5333333333333,-194.13333333333333
658,72.53333333333333,-428.8,-194.13333333333333
659,72.53333333333333,-433.06666666666666,-181.33333333333334
660,78.93333333333334,-441.59999999999997,-198.4
661,78.93333333333334,-441.59999999999997,-194.13333333333333
662,85.33333333333333,-443.73333333333335,-204.8
663,87.46666666666667,-448.0,-217.6
664,83.2,-445.8666666666667,-224.0
665,83.2,-448.0,-224.0
666,83.2,-448.0,-226.13333333333333
667,85.33333333333333,-454.4,-234.66666666666666
668,93.86666666666666,-460.8,-224.0
669,100.26666666666667,-460.8,-217.6
670,102.4,-465.06666666666666,-221.86666666666667
671,102.4,-465.06666666666666,-219.73333333333332
672,93.86666666666666,-458.6666666666667,-221.86666666666667
673,93.86666666666666,-462.93333333333334,-219.73333333333332
674,85.33333333333333,-460.8,-224.0
675,81.06666666666666,-443.73333333333335,-226.13333333333333
676,70.4,-430.93333333333334,-238.93333333333334
677,59.733333333333334,-424.5333333333333,-245.33333333333334
678,68.26666666666667,-424.5333333333333,-249.6
679,57.6,-420.26666666666665,-256.0
680,66.13333333333333,-396.8,-251.73333333333332
681,49.06666666666666,-418.1333333333333,-241.06666666666666
682,42.666666666666664,-420.26666666666665,-249.6
683,42.666666666666664,-426.6666666666667,-258.1333333333333
684,34.13333333333333,-433.06666666666666,-256.0
685,29.866666666666667,-435.2,-249.6
686,21.333333333333332,-441.59999999999997,-256.0
687,19.2,-435.2,-251.73333333333332
688,23.466666666666665,-439.46666666666664,-256.0
689,27.733333333333334,-445.8666666666667,-251.73333333333332
690,23.466666666666665,-452.26666666666665,-251.73333333333332
691,25.6,-452.26666666666665,-249.6
692,29.866666666666667,-456.5333333333333,-247.46666666666667
693,32.0,-452.26666666666665,-249.6
694,40.53333333333333,-462.93333333333334,-253.86666666666667
695,27.733333333333334,-465.06666666666666,-256.0
696,40.53333333333333,-469.3333333333333,-262.4
697,38.4,-458.6666666666667,-253.86666666666667
698,46.93333333333333,-465.06666666666666,-262.4
699,57.6,-462.93333333333334,-268.8
700,64.0,-445.8666666666667,-268.8
701,87.46666666666667,-448.0,-260.26666666666665
702,74.66666666666667,-445.8666666666667,-298.6666666666667
703,68.26666666666667,-428.8,-273.06666666666666
704,55.46666666666667,-430.93333333333334,-264.5333333333333
705,55.46666666666667,-422.4,-266.6666666666667
706,57.6,-424.5333333333333,-268.8
707,46.93333333333333,-413.8666666666667,-268.8
708,59.733333333333334,-405.3333333333333,-270.93333333333334
709,55.46666666666667,-407.46666666666664,-273.06666666666666
710,55.46666666666667,-392.5333333333333,-273.06666666666666
711,51.2,-407.46666666666664,-279.46666666666664
712,57.6,-401.06666666666666,-273.06666666666666
713,51.2,-407.46666666666664,-279.46666666666664
714,36.266666666666666,-416.0,-270.93333333333334
715,38.4,-424.5333333333333,-283.73333333333335
716,40.53333333333333,-433.06666666666666,-290.1333333333333
717,36.266666666666666,-437.3333333333333,-296.5333333333333
718,34.13333333333333,-448.0,-298.6666666666667
719,23.466666666666665,-452.26666666666665,-302.93333333333334
720,17.066666666666666,-460.8,-309.3333333333333
721,8.533333333333333,-462.93333333333334,-307.2
722,17.066666666666666,-475.73333333333335,-305.06666666666666
723,10.666666666666666,-480.0,-277.3333333333333
724,8.533333333333333,-471.46666666666664,-300.8
725,17.066666666666666,-473.59999999999997,-302.93333333333334
726,12.8,-471.46666666666664,-298.6666666666667
727,17.066666666666666,-471.46666666666664,-302.93333333333334
728,17.066666666666666,-465.06666666666666,-311.46666666666664
729,36.266666666666666,-467.2,-309.3333333333333
730,44.8,-460.8,-313.6
731,53.333333333333336,-456.5333333333333,-311.46666666666664
732,61.86666666666667,-450.1333333333333,-307.2
733,70.4,-450.1333333333333,-315.73333333333335
734,83.2,-450.1333333333333,-309.3333333333333
735,100.26666666666667,-456.5333333333333,-315.73333333333335
736,91.73333333333333,-450.1333333333333,-322.1333333333333
737,93.86666666666666,-448.0,-315.73333333333335
738,89.6,-460.8,-315.73333333333335
739,81.06666666666666,-469.3333333333333,-322.1333333333333
740,70.4,-488.5333333333333,-309.3333333333333
741,64.0,-492.8,-311.46666666666664
742,57.6,-494.93333333333334,-324.26666666666665
743,64.0,-484.26666666666665,-345.6
744,64.0,-480.0,-373.3333333333333
745,72.53333333333333,-448.0,-422.4
746,70.4,-458.6666666666667,-424.5333333333333
747,64.0,-465.06666666666666,-416.0
748,53.333333333333336,-469.3333333333333,-388.26666666666665
749,42.666666666666664,-484.26666666666665,-354.1333333333333
750,49.06666666666666,-492.8,-324.26666666666665
751,44.8,-488.5333333333333,-313.6
752,44.8,-486.4,-294.4
753,38.4,-473.59999999999997,-288.0
754,53.333333333333336,-465.06666666666666,-275.2
755,59.733333333333334,-458.6666666666667,-279.46666666666664
756,59.733333333333334,-448.0,-279.46666666666664
757,57.6,-445.8666666666667,-283.73333333333335
758,57.6,-439.46666666666664,-294.4
759,49.06666666666666,-428.8,-305.06666666666666
760,51.2,-428.8,-311.46666666666664
761,44.8,-435.2,-313.6
762,38.4,-424.5333333333333,-317.8666666666667
763,46.93333333333333,-428.8,-317.8666666666667
764,32.0,-426.6666666666667,-322.1333333333333
765,29.866666666666667,-424.5333333333333,-337.06666666666666
766,27.733333333333334,-428.8,-345.6
767,17.066666666666666,-430.93333333333334,-362.6666666666667
768,4.266666666666667,-420.26666666666665,-356.26666666666665
769,4.266666666666667,-433.06666666666666,-360.5333333333333
770,2.1333333333333333,-426.6666666666667,-377.6
771,4.266666666666667,-422.4,-366.93333333333334
772,0.0,-409.6,-373.3333333333333
773,2.1333333333333333,-398.93333333333334,-390.4
774,4.266666666666667,-401.06666666666666,-384.0
775,32.0,-409.6,-377.6
776,53.333333333333336,-420.26666666666665,-362.6666666666667
777,64.0,-426.6666666666667,-369.06666666666666
778,78.93333333333334,-435.2,-362.6666666666667
779,98.13333333333333,-443.73333333333335,-369.06666666666666
780,102.4,-456.5333333333333,-364.8
781,123.73333333333333,-469.3333333333333,-379.73333333333335
782,125.86666666666666,-480.0,-386.1333333333333
783,134.4,-482.1333333333333,-379.73333333333335
784,125.86666666666666,-494.93333333333334,-386.1333333333333
785,113.06666666666666,-507.73333333333335,-373.3333333333333
786,110.93333333333334,-516.2666666666667,-379.73333333333335
787,100.26666666666667,-518.4,-379.73333333333335
788,76.8,-514.1333333333333,-377.6
789,70.4,-505.59999999999997,-381.8666666666667
790,38.4,-503.46666666666664,-384.0
791,23.466666666666665,-503.46666666666664,-386.1333333333333
792,8.533333333333333,-482.1333333333333,-384.0
793,8.533333333333333,-480.0,-386.1333333333333
794,2.1333333333333333,-467.2,-381.8666666666667
795,2.1333333333333333,-454.4,-375.46666666666664
796,4.266666666666667,-450.1333333333333,-377.6
797,4.266666666666667,-445.8666666666667,-371.2
798,-6.4,-433.06666666666666,-377.6
799,6.4,-435.2,-381.8666666666667
800,6.4,-422.4,-386.1333333333333
801,17.066666666666666,-430.93333333333334,-379.73333333333335
802,21.333333333333332,-430.93333333333334,-371.2
803,34.13333333333333,-430.93333333333334,-375.46666666666664
804,46.93333333333333,-437.3333333333333,-381.8666666666667
805,66.13333333333333,-445.8666666666667,-375.46666666666664
806,59.733333333333334,-452.26666666666665,-379.73333333333335
807,74.66666666666667,-454.4,-381.8666666666667
808,78.93333333333334,-454.4,-381.8666666666667
809,72.53333333333333,-452.26666666666665,-384.0
810,76.8,-456.5333333333333,-386.1333333333333
811,64.0,-467.2,-392.5333333333333
812,49.06666666666666,-458.6666666666667,-384.0
813,34.13333333333333,-458.6666666666667,-388.26666666666665
814,27.733333333333334,-465.06666666666666,-392.5333333333333
815,21.333333333333332,-477.8666666666667,-386.1333333333333
816,6.4,-480.0,-396.8
817,2.1333333333333333,-482.1333333333333,-388.26666666666665
818,-14.933333333333334,-484.26666666666665,-388.26666666666665
819,-21.333333333333332,-486.4,-386.1333333333333
820,-21.333333333333332,-473.59999999999997,-379.73333333333335
821,-29.866666666666667,-471.46666666666664,-379.73333333333335
822,-38.4,-456.5333333333333,-384.0
823,-34.13333333333333,-452.26666666666665,-381.8666666666667
824,-38.4,-454.4,-392.5333333333333
825,-36.266666666666666,-445.8666666666667,-398.93333333333334
826,-29.866666666666667,-450.1333333333333,-392.5333333333333
827,-12.8,-448.0,-392.5333333333333
828,2.1333333333333333,-448.0,-403.2
829,6.4,-454.4,-398.93333333333334
830,25.6,-452.26666666666665,-411.73333333333335
831,21.333333333333332,-454.4,-420.26666666666665
832,36.266666666666666,-460.8,-416.0
833,14.933333333333334,-471.46666666666664,-426.6666666666667
834,12.8,-475.73333333333335,-426.6666666666667
835,6.4,-488.5333333333333,-424.5333333333333
836,-6.4,-488.5333333333333,-420.26666666666665
837,-4.266666666666667,-490.6666666666667,-420.26666666666665
838,2.1333333333333333,-497.06666666666666,-407.46666666666664
839,6.4,-503.46666666666664,-403.2
840,6.4,-494.93333333333334,-405.3333333333333
841,14.933333333333334,-484.26666666666665,-403.2
842,14.933333333333334,-477.8666666666667,-413.8666666666667
843,21.333333333333332,-458.6666666666667,-403.2
844,21.333333333333332,-448.0,-403.2
845,19.2,-435.2,-396.8
846,19.2,-430.93333333333334,-381.8666666666667
847,10.666666666666666,-428.8,-384.0
848,2.1333333333333333,-433.06666666666666,-384.0
849,12.8,-435.2,-381.8666666666667
850,8.533333333333333,-456.5333333333333,-381.8666666666667
851,4.266666666666667,-458.6666666666667,-381.8666666666667
852,2.1333333333333333,-467.2,-386.1333333333333
853,10.666666666666666,-477.8666666666667,-366.93333333333334
854,0.0,-482.1333333333333,-373.3333333333333
855,4.266666666666667,-486.4,-373.3333333333333
856,0.0,-486.4,-360.5333333333333
857,-4.266666666666667,-486.4,-364.8
858,-4.266666666666667,-492.8,-364.8
859,-6.4,-497.06666666666666,-369.06666666666666
860,-14.933333333333334,-477.8666666666667,-373.3333333333333
861,-25.6,-469.3333333333333,-379.73333333333335
862,-25.6,-462.93333333333334,-386.1333333333333
863,-23.466666666666665,-471.46666666666664,-377.6
864,-36.266666666666666,-467.2,-366.93333333333334
865,-38.4,-475.73333333333335,-369.06666666666666
866,-42.666666666666664,-477.8666666666667,-364.8
867,-29.866666666666667,-480.0,-354.1333333333333
868,-36.266666666666666,-471.46666666666664,-364.8
869,-25.6,-475.73333333333335,-352.0
870,-36.266666666666666,-473.59999999999997,-352.0
871,-36.266666666666666,-471.46666666666664,-341.3333333333333
872,-27.733333333333334,-473.59999999999997,-332.8
873,-19.2,-477.8666666666667,-328.5333333333333
874,-27.733333333333334,-462.93333333333334,-332.8
875,-23.466666666666665,-462.93333333333334,-343.46666666666664
876,-10.666666666666666,-443.73333333333335,-349.8666666666667
877,-21.333333333333332,-462.93333333333334,-345.6
878,-17.066666666666666,-465.06666666666666,-339.2
879,-14.933333333333334,-467.2,-330.6666666666667
880,-21.333333333333332,-467.2,-332.8
881,-29.866666666666667,-458.6666666666667,-328.5333333333333
882,-34.13333333333333,-452.26666666666665,-332.8
883,-42.666666666666664,-445.8666666666667,-332.8
884,-42.666666666666664,-443.73333333333335,-332.8
885,-44.8,-448.0,-343.46666666666664
886,-44.8,-456.5333333333333,-334.93333333333334
887,-42.666666666666664,-452.26666666666665,-341.3333333333333
888,-38.4,-460.8,-347.73333333333335
889,-32.0,-460.8,-347.73333333333335
890,-36.266666666666666,-467.2,-354.1333333333333
891,-34.13333333333333,-467.2,-356.26666666666665
892,-34.13333333333333,-477.8666666666667,-341.3333333333333
893,-34.13333333333333,-475.73333333333335,-349.8666666666667
894,-25.6,-471.46666666666664,-341.3333333333333
895,-25.6,-473.59999999999997,-341.3333333333333
896,-21.333333333333332,-467.2,-349.8666666666667
897,-32.0,-458.6666666666667,-349.8666666666667
898,-46.93333333333333,-458.6666666666667,-343.46666666666664
899,-23.466666666666665,-471.46666666666664,-341.3333333333333
900,-27.733333333333334,-465.06666666666666,-339.2
901,-32.0,-473.59999999999997,-341.3333333333333
902,-25.6,-477.8666666666667,-343.46666666666664
903,-32.0,-480.0,-334.93333333333334
904,-32.0,-462.93333333333334,-345.6
905,-23.466666666666665,-467.2,-339.2
906,-32.0,-471.46666666666664,-339.2
907,-34.13333333333333,-469.3333333333333,-339.2
908,-32.0,-462.93333333333334,-337.06666666666666
909,-40.53333333333333,-471.46666666666664,-343.46666666666664
910,-38.4,-465.06666666666666,-339.2
911,-40.53333333333333,-462.93333333333334,-345.6
912,-44.8,-465.06666666666666,-330.6666666666667
913,-40.53333333333333,-469.3333333333333,-326.4
914,-44.8,-471.46666666666664,-322.1333333333333
915,-36.266666666666666,-467.2,-332.8
916,-34.13333333333333,-469.3333333333333,-328.5333333333333
917,-32.0,-460.8,-334.93333333333334
918,-27.733333333333334,-456.5333333333333,-328.5333333333333
919,-32.0,-445.8666666666667,-337.06666666666666
920,-44.8,-430.93333333333334,-347.73333333333335
921,-32.0,-437.3333333333333,-341.3333333333333
922,-34.13333333333333,-439.46666666666664,-337.06666666666666
923,-40.53333333333333,-445.8666666666667,-337.06666666666666
924,-38.4,-450.1333333333333,-328.5333333333333
925,-46.93333333333333,-452.26666666666665,-328.5333333333333
926,-51.2,-460.8,-324.26666666666665
927,-51.2,-448.0,-332.8
928,-46.93333333333333,-450.1333333333333,-328.5333333333333
929,-40.53333333333333,-443.73333333333335,-330.6666666666667
930,-36.266666666666666,-435.2,-334.93333333333334
931,-34.13333333333333,-443.73333333333335,-334.93333333333334
932,-32.0,-443.73333333333335,-322.1333333333333
933,-34.13333333333333,-448.0,-334.93333333333334
934,-38.4,-445.8666666666667,-330.6666666666667
935,-32.0,-443.73333333333335,-330.6666666666667
936,-40.53333333333333,-439.46666666666664,-337.06666666666666
937,-46.93333333333333,-437.3333333333333,-330.6666666666667
938,-40.53333333333333,-448.0,-326.4
939,-44.8,-450.1333333333333,-326.4
940,-46.93333333333333,-452.26666666666665,-328.5333333333333
941,-61.86666666666667,-456.5333333333333,-343.46666666666664
942,-38.4,-454.4,-334.93333333333334
943,-38.4,-456.5333333333333,-328.5333333333333
944,-32.0,-454.4,-326.4
945,-29.866666666666667,-454.4,-334.93333333333334
946,-38.4,-456.5333333333333,-337.06666666666666
947,-32.0,-448.0,-324.26666666666665
948,-40.53333333333333,-443.73333333333335,-334.93333333333334
949,-36.266666666666666,-452.26666666666665,-328.5333333333333
950,-36.266666666666666,-454.4,-328.5333333333333
951,-36.266666666666666,-452.26666666666665,-322.1333333333333
952,-46.93333333333333,-454.4,-317.8666666666667
953,-38.4,-448.0,-317.8666666666667
954,-38.4,-450.1333333333333,-322.1333333333333
955,-42.666666666666664,-445.8666666666667,-317.8666666666667
956,-38.4,-445.8666666666667,-322.1333333333333
957,-44.8,-439.46666666666664,-332.8
958,-38.4,-435.2,-322.1333333333333
959,-27.733333333333334,-448.0,-326.4
960,-27.733333333333334,-441.59999999999997,-320.0
961,-36.266666666666666,-441.59999999999997,-324.26666666666665
962,-32.0,-443.73333333333335,-322.1333333333333
963,-25.6,-445.8666666666667,-341.3333333333333
964,-34.13333333333333,-448.0,-320.0
965,-34.13333333333333,-450.1333333333333,-320.0
966,-29.866666666666667,-443.73333333333335,-328.5333333333333
967,-36.266666666666666,-441.59999999999997,-324.26666666666665
968,-32.0,-443.73333333333335,-332.8
969,-40.53333333333333,-443.73333333333335,-332.8
970,-32.0,-445.8666666666667,-332.8
971,-36.266666666666666,-448.0,-317.8666666666667
972,-29.866666666666667,-448.0,-315.73333333333335
973,-29.866666666666667,-452.26666666666665,-317.8666666666667
974,-29.866666666666667,-445.8666666666667,-315.73333333333335
975,-32.0,-441.59999999999997,-315.73333333333335
976,-32.0,-443.73333333333335,-324.26666666666665
977,-36.266666666666666,-437.3333333333333,-324.26666666666665
978,-32.0,-439.46666666666664,-324.26666666666665
979,-38.4,-448.0,-322.1333333333333
980,-40.53333333333333,-445.8666666666667,-320.0
981,-38.4,-445.8666666666667,-317.8666666666667
982,-32.0,-443.73333333333335,-313.6
983,-38.4,-443.73333333333335,-311.46666666666664
984,-34.13333333333333,-452.26666666666665,-324.26666666666665
985,-42.666666666666664,-443.73333333333335,-324.26666666666665
986,-27.733333333333334,-445.8666666666667,-313.6
987,-34.13333333333333,-445.8666666666667,-322.1333333333333
988,-29.866666666666667,-443.73333333333335,-322.1333333333333
989,-29.866666666666667,-441.59999999999997,-320.0
990,-27.733333333333334,-445.8666666666667,-315.73333333333335
991,-29.866666666666667,-441.59999999999997,-322.1333333333333
992,-34.13333333333333,-441.59999999999997,-322.1333333333333
993,-27.733333333333334,-448.0,-317.8666666666667
994,-27.733333333333334,-441.59999999999997,-320.0
995,-36.266666666666666,-450.1333333333333,-317.8666666666667
996,-29.866666666666667,-454.4,-317.8666666666667
997,-34.13333333333333,-456.5333333333333,-317.8666666666667
998,-34.13333333333333,-450.1333333333333,-315.73333333333335
999,-34.13333333333333,-450.1333333333333,-315.73333333333335
1000,-36.266666666666666,-448.0,-315.73333333333335
1001,-40.53333333333333,-450.1333333333333,-320.0
1002,-36.266666666666666,-452.26666666666665,-322.1333333333333
1003,-29.866666666666667,-450.1333333333333,-320.0
1004,-21.333333333333332,-456.5333333333333,-320.0
1005,-29.866666666666667,-452.26666666666665,-324.26666666666665
1006,-27.733333333333334,-450.1333333333333,-326.4
1007,-36.266666666666666,-454.4,-307.2
1008,-32.0,-456.5333333333333,-320.0
1009,-25.6,-454.4,-317.8666666666667
1010,-32.0,-462.93333333333334,-320.0
1011,-36.266666666666666,-456.5333333333333,-317.8666666666667
1012,-34.13333333333333,-460.8,-320.0
1013,-27.733333333333334,-452.26666666666665,-320.0
1014,-27.733333333333334,-456.5333333333333,-315.73333333333335
1015,-34.13333333333333,-454.4,-317.8666666666667
1016,-38.4,-448.0,-317.8666666666667
1017,-23.466666666666665,-448.0,-324.26666666666665
1018,-29.866666666666667,-445.8666666666667,-317.8666666666667
1019,-32.0,-445.8666666666667,-317.8666666666667
1020,-23.466666666666665,-445.8666666666667,-320.0
1021,-27.733333333333334,-448.0,-320.0
1022,-27.733333333333334,-450.1333333333333,-315.73333333333335
1023,-27.733333333333334,-443.73333333333335,-315.73333333333335
1024,-29.866666666666667,-448.0,-313.6
1025,-34.13333333333333,-450.1333333333333,-317.8666666666667
1026,-32.0,-441.59999999999997,-317.8666666666667
1027,-34.13333333333333,-443.73333333333335,-313.6
1028,-27.733333333333334,-439.46666666666664,-315.73333333333335
1029,-36.266666666666666,-428.8,-307.2
1030,-40.53333333333333,-426.6666666666667,-317.8666666666667
1031,-38.4,-433.06666666666666,-317.8666666666667
1032,-38.4,-433.06666666666666,-315.73333333333335
1033,-44.8,-439.46666666666664,-313.6
1034,-42.666666666666664,-443.73333333333335,-311.46666666666664
1035,-42.666666666666664,-441.59999999999997,-315.73333333333335
1036,-42.666666666666664,-441.59999999999997,-315.73333333333335
1037,-46.93333333333333,-437.3333333333333,-324.26666666666665
1038,-57.6,-433.06666666666666,-320.0
1039,-53.333333333333336,-441.59999999999997,-311.46666666666664
1040,-49.06666666666666,-450.1333333333333,-315.73333333333335
1041,-49.06666666666666,-456.5333333333333,-317.8666666666667
1042,-40.53333333333333,-465.06666666666666,-313.6
1043,-40.53333333333333,-462.93333333333334,-320.0
1044,-38.4,-458.6666666666667,-313.6
1045,-29.866666666666667,-462.93333333333334,-315.73333333333335
1046,-34.13333333333333,-465.06666666666666,-315.73333333333335
1047,-27.733333333333334,-467.2,-315.73333333333335
1048,-38.4,-465.06666666666666,-317.8666666666667
1049,-34.13333333333333,-471.46666666666664,-313.6
1050,-29.866666666666667,-467.2,-317.8666666666667
1051,-32.0,-458.6666666666667,-313.6
1052,-27.733333333333334,-462.93333333333334,-305.06666666666666
1053,-23.466666666666665,-467.2,-311.46666666666664
1054,-27.733333333333334,-465.06666666666666,-309.3333333333333
1055,-29.866666666666667,-467.2,-309.3333333333333
1056,-36.266666666666666,-469.3333333333333,-311.46666666666664
1057,-27.733333333333334,-467.2,-311.46666666666664
1058,-27.733333333333334,-462.93333333333334,-307.2
1059,-25.6,-465.06666666666666,-307.2
1060,-25.6,-458.6666666666667,-317.8666666666667
1061,-25.6,-454.4,-315.73333333333335
1062,-21.333333333333332,-462.93333333333334,-313.6
1063,-14.933333333333334,-460.8,-309.3333333333333
1064,-23.466666666666665,-462.93333333333334,-311.46666666666664
1065,-21.333333333333332,-460.8,-315.73333333333335
1066,-25.6,-456.5333333333333,-322.1333333333333
1067,-25.6,-454.4,-317.8666666666667
1068,-25.6,-452.26666666666665,-317.8666666666667
1069,-25.6,-454.4,-313.6
1070,-19.2,-445.8666666666667,-311.46666666666664
1071,-23.466666666666665,-443.73333333333335,-320.0
1072,-38.4,-462.93333333333334,-309.3333333333333
1073,-32.0,-441.59999999999997,-317.8666666666667
1074,-27.733333333333334,-439.46666666666664,-315.73333333333335
1075,-34.13333333333333,-435.2,-311.46666666666664
1076,-34.13333333333333,-437.3333333333333,-315.73333333333335
1077,-29.866666666666667,-437.3333333333333,-322.1333333333333
1078,-42.666666666666664,-441.59999999999997,-320.0
1079,-42.666666666666664,-433.06666666666666,-324.26666666666665
1080,-44.8,-439.46666666666664,-317.8666666666667
1081,-42.666666666666664,-437.3333333333333,-313.6
1082,-40.53333333333333,-439.46666666666664,-317.8666666666667
1083,-42.666666666666664,-439.46666666666664,-313.6
1084,-38.4,-448.0,-317.8666666666667
1085,-40.53333333333333,-450.1333333333333,-305.06666666666666
1086,-46.93333333333333,-443.73333333333335,-300.8
1087,-34.13333333333333,-448.0,-309.3333333333333
1088,-29.866666666666667,-445.8666666666667,-311.46666666666664
1089,-29.866666666666667,-445.8666666666667,-307.2
1090,-29.866666666666667,-450.1333333333333,-309.3333333333333
1091,-27.733333333333334,-441.59999999999997,-305.06666666666666
1092,-23.466666666666665,-445.8666666666667,-309.3333333333333
1093,-23.466666666666665,-452.26666666666665,-307.2
1094,-25.6,-452.26666666666665,-294.4
1095,-21.333333333333332,-456.5333333333333,-309.3333333333333
1096,-27.733333333333334,-450.1333333333333,-311.46666666666664
1097,-23.466666666666665,-454.4,-305.06666666666666
1098,-32.0,-452.26666666666665,-315.73333333333335
1099,-29.866666666666667,-458.6666666666667,-313.6
1100,-25.6,-462.93333333333334,-315.73333333333335
1101,-34.13333333333333,-448.0,-311.46666666666664
1102,-34.13333333333333,-456.5333333333333,-313.6
1103,-34.13333333333333,-460.8,-305.06666666666666
1104,-32.0,-456.5333333333333,-309.3333333333333
1105,-34.13333333333333,-460.8,-311.46666666666664
1106,-27.733333333333334,-456.5333333333333,-307.2
1107,-25.6,-458.6666666666667,-307.2
1108,-27.733333333333334,-450.1333333333333,-311.46666666666664
1109,-23.466666666666665,-454.4,-320.0
1110,-27.733333333333334,-448.0,-313.6
1111,-27.733333333333334,-450.1333333333333,-315.73333333333335
1112,-29.866666666666667,-450.1333333333333,-317.8666666666667
1113,-32.0,-454.4,-309.3333333333333
1114,-38.4,-458.6666666666667,-305.06666666666666
1115,-40.53333333333333,-458.6666666666667,-305.06666666666666
1116,-46.93333333333333,-471.46666666666664,-300.8
1117,-36.266666666666666,-467.2,-311.46666666666664
1118,-36.266666666666666,-458.6666666666667,-313.6
1119,-38.4,-454.4,-305.06666666666666
1120,-40.53333333333333,-452.26666666666665,-307.2
1121,-38.4,-454.4,-313.6
1122,-38.4,-456.5333333333333,-309.3333333333333
1123,-42.666666666666664,-450.1333333333333,-311.46666666666664
1124,-40.53333333333333,-452.26666666666665,-311.46666666666664
1125,-29.866666666666667,-452.26666666666665,-305.06666666666666
1126,-38.4,-454.4,-313.6
1127,-32.0,-456.5333333333333,-313.6
1128,-34.13333333333333,-454.4,-315.73333333333335
1129,-34.13333333333333,-454.4,-307.2
1130,-34.13333333333333,-450.1333333333333,-302.93333333333334
1131,-27.733333333333334,-454.4,-309.3333333333333
1132,-32.0,-448.0,-313.6
1133,-36.266666666666666,-450.1333333333333,-311.46666666666664
1134,-36.266666666666666,-450.1333333333333,-313.6
1135,-40.53333333333333,-452.26666666666665,-313.6
1136,-42.666666666666664,-458.6666666666667,-302.93333333333334
1137,-29.866666666666667,-448.0,-315.73333333333335
1138,-36.266666666666666,-462.93333333333334,-315.73333333333335
1139,-40.53333333333333,-458.6666666666667,-305.06666666666666
1140,-42.666666666666664,-460.8,-311.46666666666664
1141,-36.266666666666666,-458.6666666666667,-309.3333333333333
1142,-36.266666666666666,-454.4,-315.73333333333335
1143,-38.4,-454.4,-309.3333333333333
1144,-32.0,-456.5333333333333,-309.3333333333333
1145,-38.4,-452.26666666666665,-311.46666666666664
1146,-42.666666666666664,-454.4,-309.3333333333333
1147,-42.666666666666664,-458.6666666666667,-309.3333333333333
1148,-40.53333333333333,-462.93333333333334,-311.46666666666664
1149,-40.53333333333333,-465.06666666666666,-309.3333333333333
1150,-46.93333333333333,-460.8,-311.46666666666664
1151,-44.8,-462.93333333333334,-313.6
1152,-40.53333333333333,-467.2,-315.73333333333335
1153,-34.13333333333333,-469.3333333333333,-309.3333333333333
1154,-38.4,-462.93333333333334,-309.3333333333333
1155,-38.4,-471.46666666666664,-313.6
1156,-46.93333333333333,-469.3333333333333,-315.73333333333335
1157,-42.666666666666664,-462.93333333333334,-309.3333333333333
1158,-42.666666666666664,-462.93333333333334,-322.1333333333333
1159,-25.6,-473.59999999999997,-309.3333333333333
1160,-34.13333333333333,-471.46666666666664,-313.6
1161,-40.53333333333333,-458.6666666666667,-315.73333333333335
1162,-36.266666666666666,-456.5333333333333,-315.73333333333335
1163,-40.53333333333333,-454.4,-313.6
1164,-40.53333333333333,-452.26666666666665,-305.06666666666666
1165,-34.13333333333333,-456.5333333333333,-311.46666666666664
1166,-40.53333333333333,-458.6666666666667,-311.46666666666664
1167,-38.4,-460.8,-305.06666666666666
1168,-36.266666666666666,-456.5333333333333,-315.73333333333335
1169,-38.4,-460.8,-313.6
1170,-38.4,-460.8,-311.46666666666664
1171,-40.53333333333333,-467.2,-311.46666666666664
1172,-36.266666666666666,-467.2,-315.73333333333335
1173,-34.13333333333333,-469.3333333333333,-315.73333333333335
1174,-36.266666666666666,-462.93333333333334,-311.46666666666664
1175,-32.0,-469.3333333333333,-307.2
1176,-29.866666666666667,-462.93333333333334,-313.6
1177,-36.266666666666666,-460.8,-311.46666666666664
1178,-44.8,-458.6666666666667,-311.46666666666664
1179,-34.13333333333333,-460.8,-298.6666666666667
1180,-36.266666666666666,-458.6666666666667,-302.93333333333334
1181,-40.53333333333333,-445.8666666666667,-315.73333333333335
1182,-34.13333333333333,-460.8,-294.4
1183,-40.53333333333333,-454.4,-315.73333333333335
1184,-36.266666666666666,-454.4,-302.93333333333334
1185,-38.4,-450.1333333333333,-311.46666666666664
1186,-34.13333333333333,-454.4,-309.3333333333333
1187,-38.4,-448.0,-300.8
1188,-38.4,-458.6666666666667,-307.2
1189,-25.6,-456.5333333333333,-307.2
1190,-29.866666666666667,-450.1333333333333,-307.2
1191,-38.4,-452.26666666666665,-311.46666666666664
1192,-34.13333333333333,-450.1333333333333,-311.46666666666664
1193,-32.0,-450.1333333333333,-307.2
1194,-36.266666666666666,-456.5333333333333,-309.3333333333333
1195,-36.266666666666666,-450.1333333333333,-302.93333333333334
1196,-38.4,-452.26666666666665,-302.93333333333334
1197,-29.866666666666667,-450.1333333333333,-305.06666666666666
1198,-42.666666666666664,-450.1333333333333,-298.6666666666667
1199,-29.866666666666667,-458.6666666666667,-307.2
1200,-36.266666666666666,-448.0,-300.8
1201,-32.0,-452.26666666666665,-302.93333333333334
1202,-38.4,-450.1333333333333,-300.8
1203,-12.8,-439.46666666666664,-324.26666666666665
1204,-34.13333333333333,-456.5333333333333,-309.3333333333333
1205,-34.13333333333333,-452.26666666666665,-305.06666666666666
1206,-36.266666666666666,-450.1333333333333,-311.46666666666664
1207,-34.13333333333333,-450.1333333333333,-322.1333333333333
1208,-23.466666666666665,-450.1333333333333,-320.0
1209,-29.866666666666667,-443.73333333333335,-315.73333333333335
1210,-29.866666666666667,-445.8666666666667,-320.0
1211,-32.0,-439.46666666666664,-313.6
1212,-29.866666666666667,-450.1333333333333,-298.6666666666667
1213,-32.0,-441.59999999999997,-305.06666666666666
1214,-32.0,-433.06666666666666,-296.5333333333333
1215,-32.0,-439.46666666666664,-288.0
1216,-27.733333333333334,-448.0,-292.26666666666665
1217,-36.266666666666666,-448.0,-288.0
1218,-32.0,-452.26666666666665,-298.6666666666667
1219,-34.13333333333333,-448.0,-294.4
1220,-34.13333333333333,-443.73333333333335,-292.26666666666665
1221,-36.266666666666666,-435.2,-302.93333333333334
1222,-29.866666666666667,-435.2,-298.6666666666667
1223,-29.866666666666667,-443.73333333333335,-298.6666666666667
1224,-36.266666666666666,-439.46666666666664,-309.3333333333333
1225,-49.06666666666666,-467.2,-281.6
1226,-32.0,-448.0,-302.93333333333334
1227,-27.733333333333334,-450.1333333333333,-311.46666666666664
1228,-27.733333333333334,-456.5333333333333,-307.2
1229,-25.6,-454.4,-305.06666666666666
1230,-27.733333333333334,-450.1333333333333,-298.6666666666667
1231,-32.0,-460.8,-305.06666666666666
1232,-27.733333333333334,-456.5333333333333,-307.2
1233,-29.866666666666667,-458.6666666666667,-296.5333333333333
1234,-32.0,-465.06666666666666,-302.93333333333334
1235,-25.6,-469.3333333333333,-307.2
1236,-25.6,-465.06666666666666,-302.93333333333334
1237,-27.733333333333334,-473.59999999999997,-302.93333333333334
1238,-29.866666666666667,-475.73333333333335,-309.3333333333333
1239,-32.0,-482.1333333333333,-307.2
1240,-38.4,-469.3333333333333,-317.8666666666667
1241,-36.266666666666666,-473.59999999999997,-311.46666666666664
1242,-34.13333333333333,-477.8666666666667,-313.6
1243,-32.0,-473.59999999999997,-315.73333333333335
1244,-25.6,-467.2,-313.6
1245,-29.866666666666667,-465.06666666666666,-311.46666666666664
1246,-23.466666666666665,-477.8666666666667,-300.8
1247,-27.733333333333334,-467.2,-317.8666666666667
1248,-21.333333333333332,-469.3333333333333,-313.6
1249,-21.333333333333332,-469.3333333333333,-317.8666666666667
1250,-27.733333333333334,-458.6666666666667,-311.46666666666664
1251,-29.866666666666667,-465.06666666666666,-320.0
1252,-23.466666666666665,-465.06666666666666,-315.73333333333335
1253,-29.866666666666667,-460.8,-317.8666666666667
1254,-29.866666666666667,-456.5333333333333,-311.46666666666664
1255,-25.6,-467.2,-311.46666666666664
1256,-27.733333333333334,-454.4,-313.6
1257,-34.13333333333333,-452.26666666666665,-311.46666666666664
1258,-34.13333333333333,-452.26666666666665,-313.6
1259,-27.733333333333334,-458.6666666666667,-309.3333333333333
1260,-29.866666666666667,-450.1333333333333,-302.93333333333334
1261,-27.733333333333334,-452.26666666666665,-300.8
1262,-29.866666666666667,-454.4,-311.46666666666664
1263,-36.266666666666666,-441.59999999999997,-302.93333333333334
1264,-34.13333333333333,-443.73333333333335,-311.46666666666664
1265,-32.0,-450.1333333333333,-307.2
1266,-36.266666666666666,-445.8666666666667,-309.3333333333333
1267,-34.13333333333333,-448.0,-305.06666666666666
1268,-32.0,-450.1333333333333,-277.3333333333333
1269,-34.13333333333333,-450.1333333333333,-313.6
1270,-29.866666666666667,-454.4,-302.93333333333334
1271,-40.53333333333333,-441.59999999999997,-298.6666666666667
1272,-36.266666666666666,-445.8666666666667,-305.06666666666666
1273,-34.13333333333333,-441.59999999999997,-302.93333333333334
1274,-34.13333333333333,-448.0,-309.3333333333333
1275,-36.266666666666666,-450.1333333333333,-309.3333333333333
1276,-29.866666666666667,-445.8666666666667,-311.46666666666664
1277,-34.13333333333333,-445.8666666666667,-315.73333333333335
1278,-29.866666666666667,-445.8666666666667,-311.46666666666664
1279,-27.733333333333334,-443.73333333333335,-313.6
1280,-36.266666666666666,-443.73333333333335,-320.0
1281,-34.13333333333333,-443.73333333333335,-311.46666666666664
1282,-34.13333333333333,-443.73333333333335,-315.73333333333335
1283,-36.266666666666666,-448.0,-315.73333333333335
1284,-38.4,-445.8666666666667,-320.0
1285,-44.8,-448.0,-317.8666666666667
1286,-40.53333333333333,-445.8666666666667,-315.73333333333335
1287,-32.0,-452.26666666666665,-313.6
1288,-29.866666666666667,-454.4,-311.46666666666664
1289,-29.866666666666667,-452.26666666666665,-317.8666666666667
1290,-23.466666666666665,-441.59999999999997,-307.2
1291,-29.866666666666667,-452.26666666666665,-320.0
1292,-21.333333333333332,-452.26666666666665,-320.0
1293,-27.733333333333334,-452.26666666666665,-317.8666666666667
1294,-32.0,-454.4,-320.0
1295,-32.0,-452.26666666666665,-315.73333333333335
1296,-29.866666666666667,-443.73333333333335,-324.26666666666665
1297,-27.733333333333334,-445.8666666666667,-317.8666666666667
1298,-36.266666666666666,-443.73333333333335,-320.0
1299,-23.466666666666665,-450.1333333333333,-324.26666666666665
1300,-29.866666666666667,-445.8666666666667,-322.1333333333333
1301,-38.4,-452.26666666666665,-320.0
1302,-32.0,-445.8666666666667,-322.1333333333333
1303,-32.0,-452.26666666666665,-313.6
1304,-34.13333333333333,-448.0,-322.1333333333333
1305,-32.0,-448.0,-322.1333333333333
1306,-27.733333333333334,-454.4,-320.0
1307,-27.733333333333334,-450.1333333333333,-320.0
1308,-23.466666666666665,-443.73333333333335,-324.26666666666665
1309,-29.866666666666667,-441.59999999999997,-326.4
1310,-23.466666666666665,-439.46666666666664,-326.4
1311,-27.733333333333334,-441.59999999999997,-320.0
1312,-27.733333333333334,-445.8666666666667,-341.3333333333333
1313,-32.0,-445.8666666666667,-317.8666666666667
1314,-34.13333333333333,-439.46666666666664,-322.1333333333333
1315,-36.266666666666666,-433.06666666666666,-334.93333333333334
1316,-38.4,-441.59999999999997,-317.8666666666667
1317,-44.8,-433.06666666666666,-320.0
1318,-38.4,-443.73333333333335,-324.26666666666665
1319,-34.13333333333333,-445.8666666666667,-317.8666666666667
1320,-34.13333333333333,-445.8666666666667,-324.26666666666665
1321,-38.4,-443.73333333333335,-317.8666666666667
1322,-36.266666666666666,-452.26666666666665,-328.5333333333333
1323,-42.666666666666664,-454.4,-328.5333333333333
1324,-42.666666666666664,-452.26666666666665,-322.1333333333333
1325,-34.13333333333333,-448.0,-326.4
1326,-40.53333333333333,-445.8666666666667,-324.26666666666665
1327,-36.266666666666666,-454.4,-324.26666666666665
1328,-27.733333333333334,-452.26666666666665,-322.1333333333333
1329,-29.866666666666667,-448.0,-330.6666666666667
1330,-29.866666666666667,-450.1333333333333,-332.8
1331,-27.733333333333334,-441.59999999999997,-328.5333333333333
1332,-29.866666666666667,-441.59999999999997,-328.5333333333333
1333,-25.6,-441.59999999999997,-324.26666666666665
1334,-29.866666666666667,-439.46666666666664,-334.93333333333334
1335,-29.866666666666667,-450.1333333333333,-328.5333333333333
1336,-29.866666666666667,-441.59999999999997,-332.8
1337,-27.733333333333334,-452.26666666666665,-324.26666666666665
1338,-32.0,-445.8666666666667,-334.93333333333334
1339,-34.13333333333333,-445.8666666666667,-330.6666666666667
1340,-34.13333333333333,-439.46666666666664,-332.8
1341,-27.733333333333334,-441.59999999999997,-334.93333333333334
1342,-25.6,-450.1333333333333,-322.1333333333333
1343,-29.866666666666667,-435.2,-320.0
1344,-38.4,-437.3333333333333,-332.8
1345,-32.0,-437.3333333333333,-328.5333333333333
1346,-38.4,-433.06666666666666,-326.4
1347,-34.13333333333333,-445.8666666666667,-330.6666666666667
1348,-38.4,-441.59999999999997,-328.5333333333333
1349,-34.13333333333333,-439.46666666666664,-332.8
1350,-27.733333333333334,-441.59999999999997,-330.6666666666667
1351,-34.13333333333333,-441.59999999999997,-330.6666666666667
1352,-38.4,-439.46666666666664,-341.3333333333333
1353,-23.466666666666665,-439.46666666666664,-330.6666666666667
1354,-32.0,-433.06666666666666,-334.93333333333334
1355,-49.06666666666666,-435.2,-334.93333333333334
1356,-34.13333333333333,-435.2,-330.6666666666667
1357,-27.733333333333334,-441.59999999999997,-334.93333333333334
1358,-34.13333333333333,-437.3333333333333,-330.6666666666667
1359,-34.13333333333333,-437.3333333333333,-324.26666666666665
1360,-32.0,-439.46666666666664,-322.1333333333333
1361,-36.266666666666666,-435.2,-332.8
1362,-36.266666666666666,-433.06666666666666,-324.26666666666665
1363,-34.13333333333333,-433.06666666666666,-337.06666666666666
1364,-34.13333333333333,-439.46666666666664,-330.6666666666667
1365,-32.0,-439.46666666666664,-330.6666666666667
1366,-34.13333333333333,-435.2,-328.5333333333333
1367,-34.13333333333333,-441.59999999999997,-330.6666666666667
1368,-32.0,-443.73333333333335,-330.6666666666667
1369,-34.13333333333333,-439.46666666666664,-320.0
1370,-34.13333333333333,-448.0,-334.93333333333334
1371,-25.6,-450.1333333333333,-328.5333333333333
1372,-27.733333333333334,-441.59999999999997,-324.26666666666665
1373,-32.0,-439.46666666666664,-315.73333333333335
1374,-23.466666666666665,-443.73333333333335,-324.26666666666665
1375,-23.466666666666665,-439.46666666666664,-326.4
1376,-23.466666666666665,-435.2,-320.0
1377,-32.0,-422.4,-337.06666666666666
1378,-27.733333333333334,-437.3333333333333,-328.5333333333333
1379,-29.866666666666667,-437.3333333333333,-326.4
1380,-29.866666666666667,-435.2,-328.5333333333333
1381,-25.6,-435.2,-322.1333333333333
1382,-21.333333333333332,-441.59999999999997,-324.26666666666665
1383,-25.6,-437.3333333333333,-324.26666666666665
1384,-25.6,-435.2,-326.4
1385,-25.6,-430.93333333333334,-332.8
1386,-19.2,-439.46666666666664,-320.0
1387,-27.733333333333334,-435.2,-324.26666666666665
1388,-25.6,-439.46666666666664,-324.26666666666665
1389,-29.866666666666667,-437.3333333333333,-330.6666666666667
1390,-23.466666666666665,-435.2,-330.6666666666667
1391,-23.466666666666665,-443.73333333333335,-320.0
1392,-29.866666666666667,-437.3333333333333,-326.4
1393,-32.0,-445.8666666666667,-322.1333333333333
1394,-23.466666666666665,-437.3333333333333,-326.4
1395,-21.333333333333332,-443.73333333333335,-330.6666666666667
1396,-23.466666666666665,-435.2,-320.0
1397,-21.333333333333332,-439.46666666666664,-328.5333333333333
1398,-21.333333333333332,-441.59999999999997,-322.1333333333333
1399,-29.866666666666667,-428.8,-307.2
1400,-23.466666666666665,-439.46666666666664,-326.4
1401,-21.333333333333332,-441.59999999999997,-320.0
1402,-21.333333333333332,-437.3333333333333,-330.6666666666667
1403,-29.866666666666667,-433.06666666666666,-324.26666666666665
1404,-23.466666666666665,-441.59999999999997,-324.26666666666665
1405,-23.466666666666665,-433.06666666666666,-324.26666666666665
1406,-17.066666666666666,-430.93333333333334,-322.1333333333333
1407,-23.466666666666665,-437.3333333333333,-324.26666666666665
1408,-23.466666666666665,-441.59999999999997,-328.5333333333333
1409,-25.6,-443.73333333333335,-326.4
1410,-19.2,-439.46666666666664,-332.8
1411,-21.333333333333332,-437.3333333333333,-322.1333333333333
1412,-25.6,-443.73333333333335,-326.4
1413,-19.2,-445.8666666666667,-326.4
1414,-12.8,-448.0,-326.4
1415,-14.933333333333334,-439.46666666666664,-324.26666666666665
1416,-25.6,-441.59999999999997,-332.8
1417,-12.8,-443.73333333333335,-324.26666666666665
1418,-12.8,-448.0,-328.5333333333333
1419,-10.666666666666666,-450.1333333333333,-330.6666666666667
1420,-19.2,-443.73333333333335,-324.26666666666665
1421,-17.066666666666666,-456.5333333333333,-317.8666666666667
1422,-8.533333333333333,-448.0,-324.26666666666665
1423,-17.066666666666666,-450.1333333333333,-320.0
1424,-19.2,-450.1333333333333,-322.1333333333333
1425,-14.933333333333334,-441.59999999999997,-320.0
1426,-10.666666666666666,-445.8666666666667,-326.4
1427,-19.2,-443.73333333333335,-328.5333333333333
1428,-10.666666666666666,-450.1333333333333,-326.4
1429,-17.066666666666666,-443.73333333333335,-324.26666666666665
1430,-17.066666666666666,-450.1333333333333,-324.26666666666665
1431,-12.8,-445.8666666666667,-328.5333333333333
1432,-10.666666666666666,-450.1333333333333,-324.26666666666665
1433,-8.533333333333333,-452.26666666666665,-324.26666666666665
1434,-8.533333333333333,-452.26666666666665,-330.6666666666667
1435,-8.533333333333333,-452.26666666666665,-322.1333333333333
1436,-14.933333333333334,-445.8666666666667,-330.6666666666667
1437,-21.333333333333332,-441.59999999999997,-332.8
1438,-19.2,-448.0,-326.4
1439,-21.333333333333332,-452.26666666666665,-332.8
1440,-21.333333333333332,-454.4,-337.06666666666666
1441,-21.333333333333332,-458.6666666666667,-334.93333333333334
1442,-36.266666666666666,-477.8666666666667,-324.26666666666665
1443,-17.066666666666666,-467.2,-332.8
1444,-19.2,-462.93333333333334,-343.46666666666664
1445,-19.2,-467.2,-343.46666666666664
1446,-19.2,-465.06666666666666,-343.46666666666664
1447,-12.8,-460.8,-349.8666666666667
1448,-8.533333333333333,-460.8,-341.3333333333333
1449,-4.266666666666667,-469.3333333333333,-362.6666666666667
1450,-21.333333333333332,-465.06666666666666,-358.4
1451,-14.933333333333334,-469.3333333333333,-358.4
1452,-17.066666666666666,-471.46666666666664,-360.5333333333333
1453,-21.333333333333332,-475.73333333333335,-362.6666666666667
1454,-27.733333333333334,-480.0,-364.8
1455,-38.4,-482.1333333333333,-375.46666666666664
1456,-32.0,-488.5333333333333,-381.8666666666667
1457,-29.866666666666667,-490.6666666666667,-384.0
1458,-25.6,-499.2,-384.0
1459,-29.866666666666667,-501.3333333333333,-388.26666666666665
1460,-29.866666666666667,-509.8666666666667,-388.26666666666665
1461,-38.4,-499.2,-398.93333333333334
1462,-27.733333333333334,-512.0,-396.8
1463,-29.866666666666667,-512.0,-405.3333333333333
1464,-42.666666666666664,-509.8666666666667,-411.73333333333335
1465,-25.6,-505.59999999999997,-416.0
1466,-29.866666666666667,-509.8666666666667,-418.1333333333333
1467,-34.13333333333333,-509.8666666666667,-422.4
1468,-34.13333333333333,-505.59999999999997,-418.1333333333333
1469,-34.13333333333333,-514.1333333333333,-418.1333333333333
1470,-23.466666666666665,-507.73333333333335,-416.0
1471,-23.466666666666665,-516.2666666666667,-413.8666666666667
1472,-19.2,-516.2666666666667,-405.3333333333333
1473,-14.933333333333334,-518.4,-416.0
1474,-10.666666666666666,-516.2666666666667,-403.2
1475,-10.666666666666666,-507.73333333333335,-398.93333333333334
1476,-2.1333333333333333,-512.0,-398.93333333333334
1477,-12.8,-512.0,-401.06666666666666
1478,-14.933333333333334,-505.59999999999997,-396.8
1479,-12.8,-501.3333333333333,-388.26666666666665
1480,-10.666666666666666,-503.46666666666664,-386.1333333333333
1481,-10.666666666666666,-505.59999999999997,-384.0
1482,-8.533333333333333,-501.3333333333333,-379.73333333333335
1483,-2.1333333333333333,-505.59999999999997,-373.3333333333333
1484,-8.533333333333333,-501.3333333333333,-366.93333333333334
1485,-6.4,-512.0,-360.5333333333333
1486,-12.8,-494.93333333333334,-375.46666666666664
1487,-6.4,-505.59999999999997,-360.5333333333333
1488,-8.533333333333333,-507.73333333333335,-356.26666666666665
1489,-2.1333333333333333,-501.3333333333333,-362.6666666666667
1490,-6.4,-505.59999999999997,-354.1333333333333
1491,0.0,-494.93333333333334,-349.8666666666667
1492,2.1333333333333333,-490.6666666666667,-358.4
1493,0.0,-488.5333333333333,-347.73333333333335
1494,-4.266666666666667,-482.1333333333333,-349.8666666666667
1495,2.1333333333333333,-486.4,-343.46666666666664
1496,6.4,-486.4,-341.3333333333333
1497,12.8,-490.6666666666667,-337.06666666666666
1498,10.666666666666666,-488.5333333333333,-328.5333333333333
1499,23.466666666666665,-494.93333333333334,-330.6666666666667
1500,19.2,-486.4,-328.5333333333333
1501,14.933333333333334,-484.26666666666665,-328.5333333333333
1502,12.8,-482.1333333333333,-330.6666666666667
1503,21.333333333333332,-477.8666666666667,-337.06666666666666
1504,14.933333333333334,-473.59999999999997,-328.5333333333333
1505,12.8,-471.46666666666664,-332.8
1506,10.666666666666666,-462.93333333333334,-337.06666666666666
1507,12.8,-462.93333333333334,-332.8
1508,23.466666666666665,-473.59999999999997,-326.4
1509,14.933333333333334,-467.2,-324.26666666666665
1510,17.066666666666666,-469.3333333333333,-322.1333333333333
1511,21.333333333333332,-469.3333333333333,-322.1333333333333
1512,17.066666666666666,-460.8,-337.06666666666666
1513,19.2,-469.3333333333333,-326.4
1514,17.066666666666666,-458.6666666666667,-332.8
1515,19.2,-458.6666666666667,-337.06666666666666
1516,19.2,-452.26666666666665,-343.46666666666664
1517,17.066666666666666,-452.26666666666665,-341.3333333333333
1518,29.866666666666667,-454.4,-347.73333333333335
1519,19.2,-456.5333333333333,-332.8
1520,19.2,-448.0,-330.6666666666667
1521,21.333333333333332,-460.8,-337.06666666666666
1522,17.066666666666666,-448.0,-339.2
1523,21.333333333333332,-445.8666666666667,-341.3333333333333
1524,17.066666666666666,-439.46666666666664,-332.8
1525,12.8,-439.46666666666664,-330.6666666666667
1526,8.533333333333333,-435.2,-341.3333333333333
1527,21.333333333333332,-437.3333333333333,-339.2
1528,14.933333333333334,-437.3333333333333,-339.2
1529,12.8,-433.06666666666666,-339.2
1530,17.066666666666666,-448.0,-356.26666666666665
1531,4.266666666666667,-443.73333333333335,-356.26666666666665
1532,6.4,-448.0,-356.26666666666665
1533,10.666666666666666,-454.4,-354.1333333333333
1534,6.4,-454.4,-356.26666666666665
1535,8.533333333333333,-458.6666666666667,-347.73333333333335
1536,12.8,-471.46666666666664,-352.0
1537,14.933333333333334,-467.2,-347.73333333333335
1538,17.066666666666666,-471.46666666666664,-352.0
1539,19.2,-469.3333333333333,-347.73333333333335
1540,23.466666666666665,-471.46666666666664,-343.46666666666664
1541,19.2,-467.2,-339.2
1542,12.8,-467.2,-341.3333333333333
1543,17.066666666666666,-465.06666666666666,-330.6666666666667
1544,10.666666666666666,-462.93333333333334,-339.2
1545,14.933333333333334,-467.2,-339.2
1546,8.533333333333333,-462.93333333333334,-326.4
1547,6.4,-467.2,-328.5333333333333
1548,17.066666666666666,-462.93333333333334,-330.6666666666667
1549,21.333333333333332,-460.8,-337.06666666666666
1550,25.6,-460.8,-330.6666666666667
1551,36.266666666666666,-454.4,-337.06666666666666
1552,27.733333333333334,-460.8,-337.06666666666666
1553,23.466666666666665,-462.93333333333334,-343.46666666666664
1554,21.333333333333332,-452.26666666666665,-352.0
1555,23.466666666666665,-460.8,-341.3333333333333
1556,10.666666666666666,-456.5333333333333,-343.46666666666664
1557,19.2,-456.5333333333333,-347.73333333333335
1558,12.8,-460.8,-341.3333333333333
1559,6.4,-465.06666666666666,-334.93333333333334
1560,17.066666666666666,-471.46666666666664,-332.8
1561,17.066666666666666,-471.46666666666664,-334.93333333333334
1562,21.333333333333332,-471.46666666666664,-332.8
1563,10.666666666666666,-469.3333333333333,-339.2
1564,17.066666666666666,-465.06666666666666,-341.3333333333333
1565,23.466666666666665,-473.59999999999997,-334.93333333333334
1566,12.8,-471.46666666666664,-337.06666666666666
1567,17.066666666666666,-473.59999999999997,-332.8
1568,12.8,-475.73333333333335,-322.1333333333333
1569,14.933333333333334,-473.59999999999997,-334.93333333333334
1570,21.333333333333332,-475.73333333333335,-337.06666666666666
1571,17.066666666666666,-473.59999999999997,-337.06666666666666
1572,17.066666666666666,-473.59999999999997,-328.5333333333333
1573,21.333333333333332,-499.2,-317.8666666666667
1574,17.066666666666666,-477.8666666666667,-339.2
1575,17.066666666666666,-480.0,-332.8
1576,14.933333333333334,-480.0,-334.93333333333334
1577,10.666666666666666,-477.8666666666667,-345.6
1578,8.533333333333333,-473.59999999999997,-337.06666666666666
1579,2.1333333333333333,-469.3333333333333,-345.6
1580,6.4,-475.73333333333335,-334.93333333333334
1581,4.266666666666667,-475.73333333333335,-334.93333333333334
1582,8.533333333333333,-475.73333333333335,-330.6666666666667
1583,0.0,-469.3333333333333,-332.8
1584,6.4,-471.46666666666664,-324.26666666666665
1585,8.533333333333333,-469.3333333333333,-322.1333333333333
1586,4.266666666666667,-471.46666666666664,-324.26666666666665
1587,6.4,-465.06666666666666,-328.5333333333333
1588,21.333333333333332,-467.2,-317.8666666666667
1589,10.666666666666666,-462.93333333333334,-313.6
1590,12.8,-467.2,-315.73333333333335
1591,8.533333333333333,-469.3333333333333,-313.6
1592,14.933333333333334,-473.59999999999997,-315.73333333333335
1593,10.666666666666666,-467.2,-313.6
1594,14.933333333333334,-462.93333333333334,-315.73333333333335
1595,17.066666666666666,-488.5333333333333,-307.2
1596,14.933333333333334,-467.2,-317.8666666666667
1597,17.066666666666666,-467.2,-317.8666666666667
1598,10.666666666666666,-462.93333333333334,-317.8666666666667
1599,12.8,-460.8,-309.3333333333333
1600,10.666666666666666,-462.93333333333334,-322.1333333333333
1601,14.933333333333334,-465.06666666666666,-317.8666666666667
1602,8.533333333333333,-462.93333333333334,-315.73333333333335
1603,8.533333333333333,-462.93333333333334,-317.8666666666667
1604,6.4,-465.06666666666666,-309.3333333333333
1605,4.266666666666667,-458.6666666666667,-315.73333333333335
1606,8.533333333333333,-465.06666666666666,-311.46666666666664
1607,8.533333333333333,-462.93333333333334,-313.6
1608,6.4,-462.93333333333334,-311.46666666666664
1609,19.2,-467.2,-309.3333333333333
1610,8.533333333333333,-462.93333333333334,-313.6
1611,14.933333333333334,-454.4,-309.3333333333333
1612,12.8,-458.6666666666667,-305.06666666666666
1613,17.066666666666666,-452.26666666666665,-317.8666666666667
1614,23.466666666666665,-450.1333333333333,-302.93333333333334
1615,27.733333333333334,-448.0,-305.06666666666666
1616,17.066666666666666,-443.73333333333335,-309.3333333333333
1617,21.333333333333332,-426.6666666666667,-315.73333333333335
1618,19.2,-441.59999999999997,-307.2
1619,23.466666666666665,-445.8666666666667,-313.6
1620,25.6,-445.8666666666667,-313.6
1621,23.466666666666665,-445.8666666666667,-326.4
1622,23.466666666666665,-445.8666666666667,-324.26666666666665
1623,27.733333333333334,-435.2,-320.0
1624,21.333333333333332,-445.8666666666667,-322.1333333333333
1625,12.8,-441.59999999999997,-326.4
1626,12.8,-443.73333333333335,-330.6666666666667
1627,8.533333333333333,-443.73333333333335,-320.0
1628,19.2,-445.8666666666667,-322.1333333333333
1629,12.8,-439.46666666666664,-320.0
1630,12.8,-437.3333333333333,-324.26666666666665
1631,6.4,-439.46666666666664,-330.6666666666667
1632,6.4,-443.73333333333335,-334.93333333333334
1633,6.4,-445.8666666666667,-328.5333333333333
1634,2.1333333333333333,-445.8666666666667,-326.4
1635,8.533333333333333,-456.5333333333333,-326.4
1636,2.1333333333333333,-458.6666666666667,-315.73333333333335
1637,2.1333333333333333,-471.46666666666664,-315.73333333333335
1638,0.0,-471.46666666666664,-313.6
1639,6.4,-486.4,-302.93333333333334
1640,19.2,-488.5333333333333,-298.6666666666667
1641,12.8,-484.26666666666665,-294.4
1642,10.666666666666666,-482.1333333333333,-298.6666666666667
1643,17.066666666666666,-477.8666666666667,-300.8
1644,8.533333333333333,-482.1333333333333,-305.06666666666666
1645,27.733333333333334,-480.0,-298.6666666666667
1646,29.866666666666667,-480.0,-292.26666666666665
1647,25.6,-471.46666666666664,-279.46666666666664
1648,36.266666666666666,-469.3333333333333,-296.5333333333333
1649,25.6,-467.2,-273.06666666666666
1650,29.866666666666667,-458.6666666666667,-298.6666666666667
1651,29.866666666666667,-445.8666666666667,-307.2
1652,34.13333333333333,-454.4,-302.93333333333334
1653,34.13333333333333,-448.0,-298.6666666666667
1654,36.266666666666666,-443.73333333333335,-300.8
1655,38.4,-445.8666666666667,-292.26666666666665
1656,29.866666666666667,-441.59999999999997,-290.1333333333333
1657,23.466666666666665,-439.46666666666664,-290.1333333333333
1658,34.13333333333333,-437.3333333333333,-285.8666666666667
1659,29.866666666666667,-441.59999999999997,-290.1333333333333
1660,23.466666666666665,-435.2,-296.5333333333333
1661,17.066666666666666,-437.3333333333333,-275.2
1662,29.866666666666667,-452.26666666666665,-268.8
1663,27.733333333333334,-452.26666666666665,-290.1333333333333
1664,27.733333333333334,-456.5333333333333,-275.2
1665,32.0,-467.2,-270.93333333333334
1666,29.866666666666667,-460.8,-268.8
1667,32.0,-469.3333333333333,-273.06666666666666
1668,34.13333333333333,-469.3333333333333,-268.8
1669,42.666666666666664,-467.2,-270.93333333333334
1670,38.4,-477.8666666666667,-270.93333333333334
1671,42.666666666666664,-469.3333333333333,-273.06666666666666
1672,36.266666666666666,-467.2,-273.06666666666666
1673,36.266666666666666,-462.93333333333334,-273.06666666666666
1674,34.13333333333333,-456.5333333333333,-273.06666666666666
1675,38.4,-448.0,-270.93333333333334
1676,42.666666666666664,-452.26666666666665,-266.6666666666667
1677,49.06666666666666,-445.8666666666667,-270.93333333333334
1678,44.8,-445.8666666666667,-270.93333333333334
1679,51.2,-443.73333333333335,-270.93333333333334
1680,46.93333333333333,-448.0,-273.06666666666666
1681,42.666666666666664,-437.3333333333333,-275.2
1682,14.933333333333334,-426.6666666666667,-292.26666666666665
1683,27.733333333333334,-441.59999999999997,-270.93333333333334
1684,42.666666666666664,-441.59999999999997,-264.5333333333333
1685,34.13333333333333,-437.3333333333333,-266.6666666666667
1686,34.13333333333333,-437.3333333333333,-260.26666666666665
1687,27.733333333333334,-435.2,-251.73333333333332
1688,29.866666666666667,-445.8666666666667,-260.26666666666665
1689,27.733333333333334,-441.59999999999997,-256.0
1690,42.666666666666664,-452.26666666666665,-245.33333333333334
1691,40.53333333333333,-454.4,-247.46666666666667
1692,46.93333333333333,-458.6666666666667,-245.33333333333334
1693,42.666666666666664,-452.26666666666665,-247.46666666666667
1694,36.266666666666666,-462.93333333333334,-247.46666666666667
1695,38.4,-460.8,-247.46666666666667
1696,40.53333333333333,-465.06666666666666,-256.0
1697,36.266666666666666,-458.6666666666667,-249.6
1698,40.53333333333333,-454.4,-245.33333333333334
1699,32.0,-456.5333333333333,-241.06666666666666
1700,32.0,-454.4,-236.79999999999998
1701,25.6,-454.4,-234.66666666666666
1702,23.466666666666665,-443.73333333333335,-238.93333333333334
1703,23.466666666666665,-439.46666666666664,-232.53333333333333
1704,38.4,-424.5333333333333,-198.4
1705,34.13333333333333,-439.46666666666664,-234.66666666666666
1706,25.6,-443.73333333333335,-224.0
1707,25.6,-435.2,-232.53333333333333
1708,19.2,-437.3333333333333,-224.0
1709,25.6,-437.3333333333333,-230.4
1710,19.2,-439.46666666666664,-221.86666666666667
1711,27.733333333333334,-448.0,-221.86666666666667
1712,23.466666666666665,-435.2,-221.86666666666667
1713,32.0,-437.3333333333333,-230.4
1714,32.0,-445.8666666666667,-221.86666666666667
1715,32.0,-443.73333333333335,-211.2
1716,40.53333333333333,-450.1333333333333,-215.46666666666667
1717,32.0,-437.3333333333333,-217.6
1718,34.13333333333333,-454.4,-230.4
1719,38.4,-467.2,-219.73333333333332
1720,42.666666666666664,-454.4,-221.86666666666667
1721,38.4,-454.4,-217.6
1722,38.4,-448.0,-228.26666666666665
1723,36.266666666666666,-454.4,-230.4
1724,42.666666666666664,-452.26666666666665,-230.4
1725,36.266666666666666,-454.4,-226.13333333333333
1726,21.333333333333332,-437.3333333333333,-243.2
1727,34.13333333333333,-448.0,-228.26666666666665
1728,32.0,-443.73333333333335,-219.73333333333332
1729,25.6,-439.46666666666664,-230.4
1730,27.733333333333334,-445.8666666666667,-230.4
1731,32.0,-437.3333333333333,-232.53333333333333
1732,36.266666666666666,-445.8666666666667,-217.6
1733,42.666666666666664,-443.73333333333335,-221.86666666666667
1734,44.8,-437.3333333333333,-219.73333333333332
1735,40.53333333333333,-441.59999999999997,-221.86666666666667
1736,40.53333333333333,-439.46666666666664,-213.33333333333334
1737,36.266666666666666,-430.93333333333334,-206.93333333333334
1738,34.13333333333333,-430.93333333333334,-211.2
1739,34.13333333333333,-430.93333333333334,-200.53333333333333
1740,32.0,-439.46666666666664,-217.6
1741,34.13333333333333,-437.3333333333333,-211.2
1742,23.466666666666665,-439.46666666666664,-211.2
1743,34.13333333333333,-452.26666666666665,-211.2
1744,32.0,-458.6666666666667,-221.86666666666667
1745,32.0,-460.8,-211.2
1746,23.466666666666665,-469.3333333333333,-211.2
1747,32.0,-458.6666666666667,-206.93333333333334
1748,23.466666666666665,-465.06666666666666,-217.6
1749,23.466666666666665,-462.93333333333334,-211.2
1750,27.733333333333334,-465.06666666666666,-219.73333333333332
1751,23.466666666666665,-465.06666666666666,-215.46666666666667
1752,32.0,-469.3333333333333,-209.06666666666666
1753,32.0,-454.4,-213.33333333333334
1754,25.6,-454.4,-209.06666666666666
1755,36.266666666666666,-465.06666666666666,-211.2
1756,32.0,-456.5333333333333,-206.93333333333334
1757,36.266666666666666,-454.4,-211.2
1758,36.266666666666666,-448.0,-204.8
1759,42.666666666666664,-441.59999999999997,-211.2
1760,32.0,-433.06666666666666,-202.66666666666666
1761,32.0,-443.73333333333335,-213.33333333333334
1762,36.266666666666666,-443.73333333333335,-196.26666666666665
1763,36.266666666666666,-450.1333333333333,-209.06666666666666
1764,42.666666666666664,-452.26666666666665,-200.53333333333333
1765,42.666666666666664,-458.6666666666667,-196.26666666666665
1766,49.06666666666666,-462.93333333333334,-198.4
1767,44.8,-465.06666666666666,-200.53333333333333
1768,46.93333333333333,-460.8,-200.53333333333333
1769,59.733333333333334,-456.5333333333333,-209.06666666666666
1770,51.2,-465.06666666666666,-219.73333333333332
1771,46.93333333333333,-465.06666666666666,-219.73333333333332
1772,44.8,-473.59999999999997,-215.46666666666667
1773,46.93333333333333,-482.1333333333333,-215.46666666666667
1774,44.8,-480.0,-213.33333333333334
1775,46.93333333333333,-480.0,-221.86666666666667
1776,46.93333333333333,-482.1333333333333,-224.0
1777,42.666666666666664,-480.0,-224.0
1778,36.266666666666666,-469.3333333333333,-221.86666666666667
1779,49.06666666666666,-469.3333333333333,-215.46666666666667
1780,57.6,-477.8666666666667,-219.73333333333332
1781,57.6,-467.2,-209.06666666666666
1782,49.06666666666666,-458.6666666666667,-206.93333333333334
1783,49.06666666666666,-462.93333333333334,-211.2
1784,46.93333333333333,-460.8,-209.06666666666666
1785,46.93333333333333,-469.3333333333333,-211.2
1786,38.4,-477.8666666666667,-206.93333333333334
1787,38.4,-484.26666666666665,-215.46666666666667
1788,38.4,-484.26666666666665,-209.06666666666666
1789,36.266666666666666,-486.4,-221.86666666666667
1790,36.266666666666666,-492.8,-211.2
1791,32.0,-494.93333333333334,-215.46666666666667
1792,46.93333333333333,-501.3333333333333,-204.8
1793,42.666666666666664,-505.59999999999997,-206.93333333333334
1794,42.666666666666664,-505.59999999999997,-202.66666666666666
1795,46.93333333333333,-503.46666666666664,-198.4
1796,51.2,-512.0,-192.0
1797,53.333333333333336,-509.8666666666667,-198.4
1798,40.53333333333333,-505.59999999999997,-202.66666666666666
1799,44.8,-503.46666666666664,-200.53333333333333
1800,42.666666666666664,-503.46666666666664,-204.8
1801,44.8,-501.3333333333333,-202.66666666666666
1802,46.93333333333333,-494.93333333333334,-204.8
1803,51.2,-494.93333333333334,-200.53333333333333
1804,42.666666666666664,-492.8,-198.4
1805,46.93333333333333,-492.8,-189.86666666666667
1806,53.333333333333336,-497.06666666666666,-196.26666666666665
1807,53.333333333333336,-488.5333333333333,-200.53333333333333
1808,59.733333333333334,-492.8,-202.66666666666666
1809,49.06666666666666,-488.5333333333333,-194.13333333333333
1810,44.8,-486.4,-198.4
1811,40.53333333333333,-484.26666666666665,-189.86666666666667
1812,36.266666666666666,-494.93333333333334,-194.13333333333333
1813,25.6,-486.4,-192.0
1814,38.4,-486.4,-185.6
1815,38.4,-492.8,-189.86666666666667
1816,34.13333333333333,-486.4,-192.0
1817,27.733333333333334,-490.6666666666667,-194.13333333333333
1818,29.866666666666667,-488.5333333333333,-194.13333333333333
1819,27.733333333333334,-490.6666666666667,-196.26666666666665
1820,29.866666666666667,-490.6666666666667,-194.13333333333333
1821,32.0,-492.8,-194.13333333333333
1822,36.266666666666666,-486.4,-196.26666666666665
1823,27.733333333333334,-490.6666666666667,-194.13333333333333
1824,29.866666666666667,-490.6666666666667,-196.26666666666665
1825,29.866666666666667,-482.1333333333333,-196.26666666666665
1826,25.6,-484.26666666666665,-200.53333333333333
1827,27.733333333333334,-492.8,-198.4
1828,29.866666666666667,-484.26666666666665,-198.4
1829,32.0,-488.5333333333333,-189.86666666666667
1830,29.866666666666667,-492.8,-194.13333333333333
1831,36.266666666666666,-490.6666666666667,-185.6
1832,29.866666666666667,-486.4,-183.46666666666667
1833,27.733333333333334,-488.5333333333333,-204.8
1834,19.2,-490.6666666666667,-189.86666666666667
1835,17.066666666666666,-482.1333333333333,-177.06666666666666
1836,17.066666666666666,-499.2,-192.0
1837,14.933333333333334,-505.59999999999997,-187.73333333333332
1838,8.533333333333333,-503.46666666666664,-183.46666666666667
1839,8.533333333333333,-505.59999999999997,-185.6
1840,6.4,-507.73333333333335,-189.86666666666667
1841,8.533333333333333,-516.2666666666667,-198.4
1842,10.666666666666666,-518.4,-204.8
1843,17.066666666666666,-518.4,-209.06666666666666
1844,14.933333333333334,-520.5333333333333,-211.2
1845,21.333333333333332,-514.1333333333333,-200.53333333333333
1846,23.466666666666665,-512.0,-200.53333333333333
1847,27.733333333333334,-516.2666666666667,-198.4
1848,32.0,-512.0,-202.66666666666666
1849,36.266666666666666,-507.73333333333335,-194.13333333333333
1850,36.266666666666666,-505.59999999999997,-194.13333333333333
1851,32.0,-503.46666666666664,-183.46666666666667
1852,34.13333333333333,-494.93333333333334,-189.86666666666667
1853,25.6,-490.6666666666667,-187.73333333333332
1854,25.6,-497.06666666666666,-196.26666666666665
1855,23.466666666666665,-497.06666666666666,-198.4
1856,14.933333333333334,-526.9333333333333,-187.73333333333332
1857,14.933333333333334,-507.73333333333335,-202.66666666666666
1858,19.2,-509.8666666666667,-217.6
1859,21.333333333333332,-514.1333333333333,-215.46666666666667
1860,21.333333333333332,-516.2666666666667,-226.13333333333333
1861,21.333333333333332,-520.5333333333333,-228.26666666666665
1862,29.866666666666667,-522.6666666666666,-228.26666666666665
1863,36.266666666666666,-520.5333333333333,-228.26666666666665
1864,38.4,-529.0666666666666,-219.73333333333332
1865,38.4,-520.5333333333333,-224.0
1866,42.666666666666664,-526.9333333333333,-217.6
1867,49.06666666666666,-524.8,-217.6
1868,49.06666666666666,-526.9333333333333,-213.33333333333334
1869,55.46666666666667,-522.6666666666666,-221.86666666666667
1870,49.06666666666666,-524.8,-215.46666666666667
1871,40.53333333333333,-524.8,-219.73333333333332
1872,42.666666666666664,-526.9333333333333,-219.73333333333332
1873,36.266666666666666,-526.9333333333333,-213.33333333333334
1874,36.266666666666666,-531.2,-217.6
1875,27.733333333333334,-529.0666666666666,-209.06666666666666
1876,19.2,-526.9333333333333,-204.8
1877,19.2,-533.3333333333334,-209.06666666666666
1878,27.733333333333334,-529.0666666666666,-196.26666666666665
1879,8.533333333333333,-531.2,-200.53333333333333
1880,6.4,-531.2,-200.53333333333333
1881,6.4,-533.3333333333334,-196.26666666666665
1882,4.266666666666667,-531.2,-192.0
1883,0.0,-526.9333333333333,-194.13333333333333
1884,6.4,-529.0666666666666,-192.0
1885,2.1333333333333333,-524.8,-192.0
1886,0.0,-522.6666666666666,-189.86666666666667
1887,-2.1333333333333333,-516.2666666666667,-189.86666666666667
1888,2.1333333333333333,-507.73333333333335,-183.46666666666667
1889,8.533333333333333,-512.0,-189.86666666666667
1890,4.266666666666667,-507.73333333333335,-187.73333333333332
1891,6.4,-503.46666666666664,-183.46666666666667
1892,10.666666666666666,-505.59999999999997,-185.6
1893,14.933333333333334,-501.3333333333333,-181.33333333333334
1894,19.2,-505.59999999999997,-196.26666666666665
1895,10.666666666666666,-507.73333333333335,-187.73333333333332
1896,19.2,-505.59999999999997,-202.66666666666666
1897,21.333333333333332,-507.73333333333335,-196.26666666666665
1898,23.466666666666665,-509.8666666666667,-200.53333333333333
1899,27.733333333333334,-514.1333333333333,-200.53333333333333
1900,14.933333333333334,-524.8,-209.06666666666666
1901,32.0,-524.8,-194.13333333333333
1902,25.6,-520.5333333333333,-194.13333333333333
1903,34.13333333333333,-522.6666666666666,-189.86666666666667
1904,32.0,-518.4,-196.26666666666665
1905,32.0,-524.8,-192.0
1906,32.0,-524.8,-192.0
1907,29.866666666666667,-518.4,-194.13333333333333
1908,27.733333333333334,-509.8666666666667,-189.86666666666667
1909,25.6,-505.59999999999997,-192.0
1910,29.866666666666667,-512.0,-196.26666666666665
1911,23.466666666666665,-507.73333333333335,-206.93333333333334
1912,32.0,-514.1333333333333,-196.26666666666665
1913,34.13333333333333,-514.1333333333333,-194.13333333333333
1914,34.13333333333333,-509.8666666666667,-192.0
1915,32.0,-512.0,-189.86666666666667
1916,29.866666666666667,-507.73333333333335,-194.13333333333333
1917,32.0,-512.0,-194.13333333333333
1918,29.866666666666667,-509.8666666666667,-194.13333333333333
1919,29.866666666666667,-518.4,-194.13333333333333
1920,29.866666666666667,-514.1333333333333,-185.6
1921,38.4,-520.5333333333333,-196.26666666666665
1922,46.93333333333333,-518.4,-181.33333333333334
1923,36.266666666666666,-520.5333333333333,-194.13333333333333
1924,29.866666666666667,-516.2666666666667,-187.73333333333332
1925,25.6,-507.73333333333335,-194.13333333333333
1926,27.733333333333334,-518.4,-194.13333333333333
1927,27.733333333333334,-509.8666666666667,-189.86666666666667
1928,25.6,-509.8666666666667,-189.86666666666667
1929,27.733333333333334,-505.59999999999997,-183.46666666666667
1930,21.333333333333332,-501.3333333333333,-192.0
1931,27.733333333333334,-507.73333333333335,-183.46666666666667
1932,27.733333333333334,-507.73333333333335,-181.33333333333334
1933,23.466666666666665,-509.8666666666667,-181.33333333333334
1934,25.6,-503.46666666666664,-183.46666666666667
1935,23.466666666666665,-505.59999999999997,-183.46666666666667
1936,23.466666666666665,-505.59999999999997,-183.46666666666667
1937,25.6,-509.8666666666667,-183.46666666666667
1938,29.866666666666667,-512.0,-179.2
1939,25.6,-512.0,-181.33333333333334
1940,27.733333333333334,-518.4,-185.6
1941,27.733333333333334,-514.1333333333333,-183.46666666666667
1942,32.0,-520.5333333333333,-185.6
1943,34.13333333333333,-514.1333333333333,-181.33333333333334
1944,36.266666666666666,-520.5333333333333,-183.46666666666667
1945,36.266666666666666,-526.9333333333333,-185.6
1946,38.4,-522.6666666666666,-185.6
1947,36.266666666666666,-526.9333333333333,-189.86666666666667
1948,40.53333333333333,-524.8,-181.33333333333334
1949,36.266666666666666,-526.9333333333333,-187.73333333333332
1950,34.13333333333333,-524.8,-194.13333333333333
1951,40.53333333333333,-526.9333333333333,-189.86666666666667
1952,38.4,-522.6666666666666,-189.86666666666667
1953,34.13333333333333,-524.8,-194.13333333333333
1954,36.266666666666666,-524.8,-189.86666666666667
1955,38.4,-524.8,-181.33333333333334
1956,44.8,-524.8,-189.86666666666667
1957,36.266666666666666,-522.6666666666666,-179.2
1958,38.4,-520.5333333333333,-185.6
1959,38.4,-518.4,-183.46666666666667
1960,36.266666666666666,-522.6666666666666,-181.33333333333334
1961,34.13333333333333,-518.4,-177.06666666666666
1962,38.4,-520.5333333333333,-177.06666666666666
1963,29.866666666666667,-520.5333333333333,-179.2
1964,29.866666666666667,-516.2666666666667,-183.46666666666667
1965,44.8,-516.2666666666667,-179.2
1966,34.13333333333333,-520.5333333333333,-179.2
1967,27.733333333333334,-524.8,-181.33333333333334
1968,32.0,-526.9333333333333,-177.06666666666666
1969,21.333333333333332,-520.5333333333333,-181.33333333333334
1970,27.733333333333334,-524.8,-174.93333333333334
1971,27.733333333333334,-526.9333333333333,-179.2
1972,38.4,-522.6666666666666,-172.8
1973,27.733333333333334,-524.8,-179.2
1974,25.6,-518.4,-174.93333333333334
1975,27.733333333333334,-520.5333333333333,-181.33333333333334
1976,32.0,-524.8,-181.33333333333334
1977,29.866666666666667,-524.8,-174.93333333333334
1978,36.266666666666666,-522.6666666666666,-179.2
1979,29.866666666666667,-524.8,-174.93333333333334
1980,32.0,-518.4,-183.46666666666667
1981,29.866666666666667,-526.9333333333333,-177.06666666666666
1982,32.0,-522.6666666666666,-181.33333333333334
1983,34.13333333333333,-522.6666666666666,-183.46666666666667
1984,38.4,-524.8,-181.33333333333334
1985,36.266666666666666,-520.5333333333333,-185.6
1986,38.4,-522.6666666666666,-181.33333333333334
1987,44.8,-531.2,-174.93333333333334
1988,34.13333333333333,-524.8,-181.33333333333334
1989,36.266666666666666,-529.0666666666666,-177.06666666666666
1990,40.53333333333333,-529.0666666666666,-189.86666666666667
1991,42.666666666666664,-526.9333333333333,-181.33333333333334
1992,40.53333333333333,-522.6666666666666,-183.46666666666667
1993,38.4,-526.9333333333333,-181.33333333333334
1994,44.8,-522.6666666666666,-179.2
1995,40.53333333333333,-520.5333333333333,-177.06666666666666
1996,36.266666666666666,-522.6666666666666,-181.33333333333334
1997,46.93333333333333,-526.9333333333333,-174.93333333333334
1998,40.53333333333333,-522.6666666666666,-179.2
1999,40.53333333333333,-522.6666666666666,-172.8
2000,42.666666666666664,-524.8,-177.06666666666666
2001,44.8,-522.6666666666666,-179.2
2002,46.93333333333333,-522.6666666666666,-177.06666666666666
2003,46.93333333333333,-518.4,-183.46666666666667
2004,46.93333333333333,-524.8,-177.06666666666666
2005,49.06666666666666,-522.6666666666666,-170.66666666666666
2006,46.93333333333333,-520.5333333333333,-174.93333333333334
2007,51.2,-522.6666666666666,-174.93333333333334
2008,44.8,-522.6666666666666,-177.06666666666666
2009,36.266666666666666,-514.1333333333333,-177.06666666666666
2010,40.53333333333333,-522.6666666666666,-181.33333333333334
2011,36.266666666666666,-512.0,-177.06666666666666
2012,38.4,-516.2666666666667,-179.2
2013,40.53333333333333,-522.6666666666666,-177.06666666666666
2014,40.53333333333333,-518.4,-183.46666666666667
2015,40.53333333333333,-514.1333333333333,-179.2
2016,46.93333333333333,-518.4,-181.33333333333334
2017,49.06666666666666,-518.4,-179.2
2018,38.4,-518.4,-179.2
2019,51.2,-522.6666666666666,-168.53333333333333
2020,49.06666666666666,-526.9333333333333,-177.06666666666666
2021,42.666666666666664,-526.9333333333333,-181.33333333333334
2022,42.666666666666664,-520.5333333333333,-177.06666666666666
2023,49.06666666666666,-520.5333333333333,-179.2
2024,49.06666666666666,-522.6666666666666,-183.46666666666667
2025,42.666666666666664,-522.6666666666666,-179.2
2026,44.8,-526.9333333333333,-179.2
2027,40.53333333333333,-522.6666666666666,-179.2
2028,46.93333333333333,-522.6666666666666,-185.6
2029,46.93333333333333,-524.8,-187.73333333333332
2030,51.2,-522.6666666666666,-181.33333333333334
2031,34.13333333333333,-514.1333333333333,-183.46666666666667
2032,49.06666666666666,-522.6666666666666,-181.33333333333334
2033,53.333333333333336,-522.6666666666666,-181.33333333333334
2034,49.06666666666666,-522.6666666666666,-187.73333333333332
2035,44.8,-522.6666666666666,-181.33333333333334
2036,40.53333333333333,-524.8,-183.46666666666667
2037,49.06666666666666,-531.2,-183.46666666666667
2038,44.8,-524.8,-177.06666666666666
2039,51.2,-529.0666666666666,-181.33333333333334
2040,42.666666666666664,-524.8,-183.46666666666667
2041,42.666666666666664,-520.5333333333333,-181.33333333333334
2042,44.8,-526.9333333333333,-179.2
2043,36.266666666666666,-522.6666666666666,-177.06666666666666
2044,36.266666666666666,-522.6666666666666,-177.06666666666666
2045,38.4,-526.9333333333333,-177.06666666666666
2046,42.666666666666664,-522.6666666666666,-177.06666666666666
2047,40.53333333333333,-520.5333333333333,-174.93333333333334
2048,42.666666666666664,-520.5333333333333,-181.33333333333334
2049,36.266666666666666,-516.2666666666667,-185.6
2050,38.4,-522.6666666666666,-179.2
2051,40.53333333333333,-518.4,-181.33333333333334
2052,42.666666666666664,-516.2666666666667,-181.33333333333334
2053,36.266666666666666,-503.46666666666664,-181.33333333333334
2054,32.0,-520.5333333333333,-177.06666666666666
2055,38.4,-518.4,-177.06666666666666
2056,36.266666666666666,-520.5333333333333,-181.33333333333334
2057,40.53333333333333,-522.6666666666666,-185.6
2058,34.13333333333333,-520.5333333333333,-172.8
2059,38.4,-529.0666666666666,-183.46666666666667
2060,34.13333333333333,-516.2666666666667,-181.33333333333334
2061,38.4,-526.9333333333333,-177.06666666666666
2062,38.4,-522.6666666666666,-177.06666666666666
2063,40.53333333333333,-518.4,-179.2
2064,36.266666666666666,-522.6666666666666,-177.06666666666666
2065,34.13333333333333,-518.4,-179.2
2066,42.666666666666664,-522.6666666666666,-179.2
2067,38.4,-516.2666666666667,-177.06666666666666
2068,40.53333333333333,-522.6666666666666,-179.2
2069,36.266666666666666,-522.6666666666666,-177.06666666666666
2070,36.266666666666666,-518.4,-179.2
2071,44.8,-518.4,-185.6
2072,42.666666666666664,-524.8,-179.2
2073,38.4,-520.5333333333333,-189.86666666666667
2074,59.733333333333334,-503.46666666666664,-181.33333333333334
2075,51.2,-514.1333333333333,-187.73333333333332
2076,44.8,-518.4,-181.33333333333334
2077,46.93333333333333,-520.5333333333333,-185.6
2078,46.93333333333333,-522.6666666666666,-185.6
2079,40.53333333333333,-524.8,-183.46666666666667
2080,46.93333333333333,-524.8,-179.2
2081,42.666666666666664,-524.8,-183.46666666666667
2082,42.666666666666664,-529.0666666666666,-181.33333333333334
2083,36.266666666666666,-522.6666666666666,-177.06666666666666
2084,42.666666666666664,-522.6666666666666,-177.06666666666666
2085,42.666666666666664,-526.9333333333333,-179.2
2086,38.4,-518.4,-177.06666666666666
2087,49.06666666666666,-522.6666666666666,-177.06666666666666
2088,42.666666666666664,-520.5333333333333,-179.2
2089,38.4,-512.0,-177.06666666666666
2090,44.8,-522.6666666666666,-179.2
2091,49.06666666666666,-524.8,-179.2
2092,40.53333333333333,-516.2666666666667,-179.2
2093,49.06666666666666,-520.5333333333333,-179.2
2094,49.06666666666666,-516.2666666666667,-179.2
2095,46.93333333333333,-524.8,-170.66666666666666
2096,40.53333333333333,-520.5333333333333,-160.0
2097,53.333333333333336,-518.4,-179.2
2098,46.93333333333333,-516.2666666666667,-170.66666666666666
2099,55.46666666666667,-520.5333333333333,-174.93333333333334
2100,53.333333333333336,-516.2666666666667,-177.06666666666666
2101,53.333333333333336,-520.5333333333333,-177.06666666666666
2102,51.2,-518.4,-181.33333333333334
2103,51.2,-516.2666666666667,-174.93333333333334
2104,51.2,-520.5333333333333,-177.06666666666666
2105,53.333333333333336,-522.6666666666666,-181.33333333333334
2106,51.2,-518.4,-177.06666666666666
2107,55.46666666666667,-526.9333333333333,-179.2
2108,53.333333333333336,-522.6666666666666,-174.93333333333334
2109,53.333333333333336,-526.9333333333333,-172.8
2110,51.2,-529.0666666666666,-177.06666666666666
2111,59.733333333333334,-529.0666666666666,-174.93333333333334
2112,59.733333333333334,-526.9333333333333,-172.8
2113,59.733333333333334,-520.5333333333333,-177.06666666666666
2114,59.733333333333334,-524.8,-177.06666666666666
2115,59.733333333333334,-524.8,-174.93333333333334
2116,59.733333333333334,-522.6666666666666,-183.46666666666667
2117,55.46666666666667,-524.8,-181.33333333333334
2118,49.06666666666666,-522.6666666666666,-179.2
2119,55.46666666666667,-522.6666666666666,-181.33333333333334
2120,55.46666666666667,-526.9333333333333,-181.33333333333334
2121,46.93333333333333,-524.8,-179.2
2122,46.93333333333333,-520.5333333333333,-181.33333333333334
2123,49.06666666666666,-518.4,-174.93333333333334
2124,44.8,-516.2666666666667,-189.86666666666667
2125,42.666666666666664,-516.2666666666667,-179.2
2126,36.266666666666666,-509.8666666666667,-179.2
2127,44.8,-514.1333333333333,-179.2
2128,40.53333333333333,-518.4,-174.93333333333334
2129,34.13333333333333,-518.4,-177.06666666666666
2130,34.13333333333333,-516.2666666666667,-168.53333333333333
2131,32.0,-518.4,-168.53333333333333
2132,38.4,-520.5333333333333,-166.4
2133,38.4,-520.5333333333333,-166.4
2134,34.13333333333333,-518.4,-168.53333333333333
2135,34.13333333333333,-520.5333333333333,-166.4
2136,36.266666666666666,-520.5333333333333,-174.93333333333334
2137,29.866666666666667,-516.2666666666667,-172.8
2138,34.13333333333333,-522.6666666666666,-168.53333333333333
2139,34.13333333333333,-524.8,-166.4
2140,40.53333333333333,-518.4,-166.4
2141,34.13333333333333,-522.6666666666666,-170.66666666666666
2142,38.4,-524.8,-170.66666666666666
2143,29.866666666666667,-522.6666666666666,-172.8
2144,32.0,-522.6666666666666,-164.26666666666665
2145,36.266666666666666,-522.6666666666666,-174.93333333333334
2146,40.53333333333333,-526.9333333333333,-172.8
2147,34.13333333333333,-524.8,-168.53333333333333
2148,36.266666666666666,-526.9333333333333,-172.8
2149,34.13333333333333,-524.8,-177.06666666666666
2150,44.8,-526.9333333333333,-177.06666666666666
2151,42.666666666666664,-522.6666666666666,-168.53333333333333
2152,38.4,-529.0666666666666,-168.53333333333333
2153,34.13333333333333,-524.8,-168.53333333333333
2154,40.53333333333333,-529.0666666666666,-168.53333333333333
2155,40.53333333333333,-522.6666666666666,-170.66666666666666
2156,34.13333333333333,-526.9333333333333,-168.53333333333333
2157,36.266666666666666,-533.3333333333334,-168.53333333333333
2158,36.266666666666666,-526.9333333333333,-177.06666666666666
2159,36.266666666666666,-526.9333333333333,-174.93333333333334
2160,38.4,-529.0666666666666,-170.66666666666666
2161,38.4,-522.6666666666666,-174.93333333333334
2162,49.06666666666666,-529.0666666666666,-172.8
2163,44.8,-526.9333333333333,-174.93333333333334
2164,53.333333333333336,-529.0666666666666,-170.66666666666666
2165,44.8,-524.8,-177.06666666666666
2166,49.06666666666666,-524.8,-177.06666666666666
2167,51.2,-526.9333333333333,-172.8
2168,40.53333333333333,-526.9333333333333,-170.66666666666666
2169,38.4,-524.8,-170.66666666666666
2170,44.8,-526.9333333333333,-170.66666666666666
2171,40.53333333333333,-520.5333333333333,-170.66666666666666
2172,46.93333333333333,-524.8,-170.66666666666666
2173,44.8,-524.8,-157.86666666666667
2174,40.53333333333333,-524.8,-164.26666666666665
2175,36.266666666666666,-522.6666666666666,-166.4
2176,36.266666666666666,-522.6666666666666,-170.66666666666666
2177,32.0,-522.6666666666666,-164.26666666666665
2178,21.333333333333332,-526.9333333333333,-166.4
2179,19.2,-520.5333333333333,-162.13333333333333
2180,27.733333333333334,-524.8,-162.13333333333333
2181,40.53333333333333,-520.5333333333333,-162.13333333333333
2182,36.266666666666666,-522.6666666666666,-160.0
2183,27.733333333333334,-529.0666666666666,-157.86666666666667
2184,42.666666666666664,-526.9333333333333,-162.13333333333333
2185,38.4,-524.8,-164.26666666666665
2186,38.4,-526.9333333333333,-166.4
2187,49.06666666666666,-529.0666666666666,-162.13333333333333
2188,49.06666666666666,-526.9333333333333,-151.46666666666667
2189,46.93333333333333,-529.0666666666666,-170.66666666666666
2190,44.8,-529.0666666666666,-162.13333333333333
2191,53.333333333333336,-526.9333333333333,-160.0
2192,51.2,-526.9333333333333,-166.4
2193,44.8,-524.8,-160.0
2194,44.8,-524.8,-160.0
2195,40.53333333333333,-524.8,-168.53333333333333
2196,40.53333333333333,-529.0666666666666,-168.53333333333333
2197,44.8,-526.9333333333333,-160.0
2198,44.8,-524.8,-164.26666666666665
2199,40.53333333333333,-529.0666666666666,-157.86666666666667
2200,42.666666666666664,-529.0666666666666,-166.4
2201,42.666666666666664,-526.9333333333333,-168.53333333333333
2202,38.4,-524.8,-157.86666666666667
2203,49.06666666666666,-529.0666666666666,-162.13333333333333
2204,38.4,-522.6666666666666,-164.26666666666665
2205,53.333333333333336,-516.2666666666667,-160.0
2206,49.06666666666666,-524.8,-153.6
2207,44.8,-526.9333333333333,-157.86666666666667
2208,46.93333333333333,-529.0666666666666,-168.53333333333333
2209,51.2,-526.9333333333333,-160.0
2210,44.8,-524.8,-160.0
2211,49.06666666666666,-524.8,-160.0
2212,53.333333333333336,-526.9333333333333,-166.4
2213,49.06666666666666,-526.9333333333333,-162.13333333333333
2214,46.93333333333333,-520.5333333333333,-155.73333333333332
2215,44.8,-529.0666666666666,-164.26666666666665
2216,46.93333333333333,-524.8,-157.86666666666667
2217,46.93333333333333,-524.8,-157.86666666666667
2218,42.666666666666664,-526.9333333333333,-157.86666666666667
2219,49.06666666666666,-529.0666666666666,-160.0
2220,42.666666666666664,-526.9333333333333,-157.86666666666667
2221,42.666666666666664,-524.8,-160.0
2222,40.53333333333333,-522.6666666666666,-162.13333333333333
2223,40.53333333333333,-526.9333333333333,-153.6
2224,42.666666666666664,-526.9333333333333,-155.73333333333332
2225,46.93333333333333,-529.0666666666666,-164.26666666666665
2226,36.266666666666666,-526.9333333333333,-160.0
2227,36.266666666666666,-526.9333333333333,-160.0
2228,40.53333333333333,-522.6666666666666,-160.0
2229,42.666666666666664,-526.9333333333333,-153.6
2230,40.53333333333333,-524.8,-153.6
2231,40.53333333333333,-526.9333333333333,-157.86666666666667
2232,46.93333333333333,-524.8,-164.26666666666665
2233,36.266666666666666,-526.9333333333333,-160.0
2234,38.4,-526.9333333333333,-162.13333333333333
2235,38.4,-526.9333333333333,-155.73333333333332
2236,42.666666666666664,-522.6666666666666,-149.33333333333334
2237,46.93333333333333,-524.8,-151.46666666666667
2238,34.13333333333333,-526.9333333333333,-157.86666666666667
2239,38.4,-526.9333333333333,-149.33333333333334
2240,40.53333333333333,-529.0666666666666,-149.33333333333334
2241,38.4,-529.0666666666666,-151.46666666666667
2242,42.666666666666664,-531.2,-151.46666666666667
2243,29.866666666666667,-524.8,-149.33333333333334
2244,38.4,-526.9333333333333,-155.73333333333332
2245,40.53333333333333,-529.0666666666666,-153.6
2246,38.4,-526.9333333333333,-162.13333333333333
2247,36.266666666666666,-524.8,-160.0
2248,38.4,-531.2,-157.86666666666667
2249,38.4,-520.5333333333333,-140.8
2250,36.266666666666666,-529.0666666666666,-157.86666666666667
2251,42.666666666666664,-533.3333333333334,-151.46666666666667
2252,32.0,-529.0666666666666,-149.33333333333334
2253,36.266666666666666,-526.9333333333333,-153.6
2254,40.53333333333333,-531.2,-149.33333333333334
2255,42.666666666666664,-526.9333333333333,-149.33333333333334
2256,46.93333333333333,-531.2,-149.33333333333334
2257,44.8,-531.2,-160.0
2258,38.4,-524.8,-153.6
2259,42.666666666666664,-526.9333333333333,-149.33333333333334
2260,42.666666666666664,-526.9333333333333,-149.33333333333334
2261,38.4,-529.0666666666666,-153.6
2262,40.53333333333333,-524.8,-149.33333333333334
2263,44.8,-529.0666666666666,-153.6
2264,42.666666666666664,-526.9333333333333,-147.2
2265,36.266666666666666,-524.8,-155.73333333333332
2266,40.53333333333333,-526.9333333333333,-149.33333333333334
2267,42.666666666666664,-524.8,-153.6
2268,46.93333333333333,-529.0666666666666,-147.2
2269,42.666666666666664,-526.9333333333333,-157.86666666666667
2270,51.2,-522.6666666666666,-147.2
2271,44.8,-526.9333333333333,-147.2
2272,46.93333333333333,-526.9333333333333,-153.6
2273,44.8,-531.2,-153.6
2274,49.06666666666666,-533.3333333333334,-153.6
2275,42.666666666666664,-531.2,-151.46666666666667
2276,46.93333333333333,-531.2,-145.06666666666666
2277,44.8,-531.2,-153.6
2278,38.4,-529.0666666666666,-155.73333333333332
2279,44.8,-531.2,-151.46666666666667
2280,42.666666666666664,-529.0666666666666,-147.2
2281,40.53333333333333,-526.9333333333333,-151.46666666666667
2282,40.53333333333333,-531.2,-155.73333333333332
2283,34.13333333333333,-520.5333333333333,-153.6
2284,40.53333333333333,-524.8,-151.46666666666667
2285,49.06666666666666,-526.9333333333333,-145.06666666666666
2286,40.53333333333333,-526.9333333333333,-151.46666666666667
2287,42.666666666666664,-526.9333333333333,-147.2
2288,42.666666666666664,-529.0666666666666,-151.46666666666667
2289,44.8,-531.2,-147.2
2290,44.8,-526.9333333333333,-153.6
2291,38.4,-526.9333333333333,-149.33333333333334
2292,61.86666666666667,-524.8,-153.6
2293,46.93333333333333,-524.8,-145.06666666666666
2294,49.06666666666666,-533.3333333333334,-147.2
2295,40.53333333333333,-533.3333333333334,-155.73333333333332
2296,44.8,-529.0666666666666,-153.6
2297,38.4,-529.0666666666666,-149.33333333333334
2298,40.53333333333333,-529.0666666666666,-149.33333333333334
2299,40.53333333333333,-526.9333333333333,-157.86666666666667
2300,36.266666666666666,-524.8,-157.86666666666667
2301,44.8,-529.0666666666666,-153.6
2302,44.8,-526.9333333333333,-145.06666666666666
2303,44.8,-531.2,-145.06666666666666
2304,38.4,-524.8,-151.46666666666667
2305,44.8,-531.2,-142.93333333333334
2306,38.4,-533.3333333333334,-149.33333333333334
2307,36.266666666666666,-529.0666666666666,-151.46666666666667
2308,46.93333333333333,-529.0666666666666,-153.6
2309,46.93333333333333,-535.4666666666667,-149.33333333333334
2310,40.53333333333333,-531.2,-145.06666666666666
2311,42.666666666666664,-526.9333333333333,-145.06666666666666
2312,42.666666666666664,-531.2,-147.2
2313,46.93333333333333,-531.2,-160.0
2314,40.53333333333333,-531.2,-174.93333333333334
2315,42.666666666666664,-531.2,-147.2
2316,40.53333333333333,-524.8,-149.33333333333334
2317,40.53333333333333,-531.2,-151.46666666666667
2318,44.8,-522.6666666666666,-151.46666666666667
2319,42.666666666666664,-524.8,-153.6
2320,46.93333333333333,-526.9333333333333,-149.33333333333334
2321,44.8,-529.0666666666666,-151.46666666666667
2322,38.4,-529.0666666666666,-147.2
2323,44.8,-529.0666666666666,-151.46666666666667
2324,42.666666666666664,-529.0666666666666,-147.2
2325,38.4,-526.9333333333333,-140.8
2326,49.06666666666666,-529.0666666666666,-142.93333333333334
2327,38.4,-524.8,-149.33333333333334
2328,38.4,-529.0666666666666,-151.46666666666667
2329,40.53333333333333,-529.0666666666666,-151.46666666666667
2330,36.266666666666666,-526.9333333333333,-153.6
2331,42.666666666666664,-522.6666666666666,-153.6
2332,38.4,-524.8,-155.73333333333332
2333,40.53333333333333,-531.2,-153.6
2334,42.666666666666664,-533.3333333333334,-151.46666666666667
2335,38.4,-524.8,-160.0
2336,40.53333333333333,-522.6666666666666,-157.86666666666667
2337,36.266666666666666,-526.9333333333333,-151.46666666666667
2338,42.666666666666664,-529.0666666666666,-151.46666666666667
2339,46.93333333333333,-529.0666666666666,-149.33333333333334
2340,34.13333333333333,-529.0666666666666,-153.6
2341,44.8,-529.0666666666666,-153.6
2342,44.8,-531.2,-151.46666666666667
2343,42.666666666666664,-522.6666666666666,-153.6
2344,36.266666666666666,-522.6666666666666,-162.13333333333333
2345,38.4,-526.9333333333333,-149.33333333333334
2346,46.93333333333333,-529.0666666666666,-155.73333333333332
2347,42.666666666666664,-520.5333333333333,-160.0
2348,40.53333333333333,-529.0666666666666,-145.06666666666666
2349,36.266666666666666,-529.0666666666666,-145.06666666666666
2350,38.4,-526.9333333333333,-155.73333333333332
2351,40.53333333333333,-524.8,-155.73333333333332
2352,40.53333333333333,-524.8,-157.86666666666667
2353,40.53333333333333,-529.0666666666666,-153.6
2354,44.8,-526.9333333333333,-160.0
2355,40.53333333333333,-524.8,-155.73333333333332
2356,40.53333333333333,-526.9333333333333,-153.6
2357,42.666666666666664,-524.8,-155.73333333333332
2358,34.13333333333333,-522.6666666666666,-155.73333333333332
2359,44.8,-526.9333333333333,-155.73333333333332
2360,38.4,-526.9333333333333,-164.26666666666665
2361,40.53333333333333,-526.9333333333333,-157.86666666666667
2362,44.8,-529.0666666666666,-157.86666666666667
2363,38.4,-529.0666666666666,-157.86666666666667
2364,38.4,-529.0666666666666,-153.6
2365,42.666666666666664,-533.3333333333334,-149.33333333333334
2366,32.0,-531.2,-151.46666666666667
2367,36.266666666666666,-526.9333333333333,-153.6
2368,32.0,-529.0666666666666,-155.73333333333332
2369,40.53333333333333,-529.0666666666666,-151.46666666666667
2370,38.4,-526.9333333333333,-160.0
2371,40.53333333333333,-531.2,-153.6
2372,38.4,-526.9333333333333,-160.0
2373,38.4,-526.9333333333333,-160.0
2374,42.666666666666664,-529.0666666666666,-160.0
2375,38.4,-526.9333333333333,-164.26666666666665
2376,38.4,-529.0666666666666,-164.26666666666665
2377,40.53333333333333,-524.8,-164.26666666666665
2378,40.53333333333333,-531.2,-164.26666666666665
2379,34.13333333333333,-535.4666666666667,-177.06666666666666
2380,44.8,-529.0666666666666,-168.53333333333333
2381,44.8,-529.0666666666666,-168.53333333333333
2382,40.53333333333333,-526.9333333333333,-172.8
