,accelerometerAccelerationX(G),accelerometerAccelerationY(G),accelerometerAccelerationZ(G)
0,0.0,-492.8,134.4
1,-2.1333333333333333,-499.2,138.66666666666666
2,2.1333333333333333,-494.93333333333334,128.0
3,2.1333333333333333,-497.06666666666666,138.66666666666666
4,0.0,-501.3333333333333,142.93333333333334
5,-4.266666666666667,-497.06666666666666,132.26666666666665
6,0.0,-503.46666666666664,136.53333333333333
7,2.1333333333333333,-494.93333333333334,142.93333333333334
8,-2.1333333333333333,-492.8,138.66666666666666
9,-4.266666666666667,-494.93333333333334,136.53333333333333
10,0.0,-499.2,145.06666666666666
11,0.0,-507.73333333333335,138.66666666666666
12,2.1333333333333333,-505.59999999999997,138.66666666666666
13,2.1333333333333333,-512.0,132.26666666666665
14,4.266666666666667,-512.0,145.06666666666666
15,17.066666666666666,-501.3333333333333,136.53333333333333
16,6.4,-514.1333333333333,181.33333333333334
17,2.1333333333333333,-514.1333333333333,134.4
18,4.266666666666667,-509.8666666666667,136.53333333333333
19,0.0,-507.73333333333335,138.66666666666666
20,2.1333333333333333,-514.1333333333333,145.06666666666666
21,0.0,-507.73333333333335,140.8
22,2.1333333333333333,-509.8666666666667,134.4
23,0.0,-509.8666666666667,142.93333333333334
24,-4.266666666666667,-497.06666666666666,145.06666666666666
25,4.266666666666667,-503.46666666666664,132.26666666666665
26,4.266666666666667,-503.46666666666664,140.8
27,2.1333333333333333,-499.2,140.8
28,0.0,-499.2,140.8
29,-4.266666666666667,-501.3333333333333,138.66666666666666
30,0.0,-505.59999999999997,134.4
31,0.0,-503.46666666666664,140.8
32,-4.266666666666667,-501.3333333333333,132.26666666666665
33,2.1333333333333333,-514.1333333333333,132.26666666666665
34,-2.1333333333333333,-499.2,138.66666666666666
35,2.1333333333333333,-503.46666666666664,132.26666666666665
36,0.0,-505.59999999999997,130.13333333333333
37,0.0,-509.8666666666667,140.8
38,0.0,-501.3333333333333,142.93333333333334
39,4.266666666666667,-512.0,136.53333333333333
40,0.0,-512.0,134.4
41,0.0,-503.46666666666664,136.53333333333333
42,0.0,-503.46666666666664,136.53333333333333
43,0.0,-509.8666666666667,130.13333333333333
44,-4.266666666666667,-514.1333333333333,132.26666666666665
45,2.1333333333333333,-505.59999999999997,128.0
46,2.1333333333333333,-507.73333333333335,134.4
47,0.0,-509.8666666666667,140.8
48,0.0,-501.3333333333333,132.26666666666665
49,0.0,-507.73333333333335,136.53333333333333
50,0.0,-509.8666666666667,138.66666666666666
51,4.266666666666667,-509.8666666666667,138.66666666666666
52,2.1333333333333333,-512.0,136.53333333333333
53,0.0,-507.73333333333335,138.66666666666666
54,0.0,-509.8666666666667,132.26666666666665
55,-2.1333333333333333,-501.3333333333333,134.4
56,0.0,-509.8666666666667,132.26666666666665
57,2.1333333333333333,-501.3333333333333,134.4
58,2.1333333333333333,-514.1333333333333,130.13333333333333
59,0.0,-516.2666666666667,140.8
60,-2.1333333333333333,-509.8666666666667,136.53333333333333
61,0.0,-509.8666666666667,136.53333333333333
62,0.0,-509.8666666666667,134.4
63,2.1333333333333333,-509.8666666666667,134.4
64,0.0,-503.46666666666664,134.4
65,-2.1333333333333333,-503.46666666666664,136.53333333333333
66,-2.1333333333333333,-509.8666666666667,136.53333333333333
67,4.266666666666667,-509.8666666666667,138.66666666666666
68,4.266666666666667,-505.59999999999997,134.4
69,2.1333333333333333,-503.46666666666664,142.93333333333334
70,2.1333333333333333,-497.06666666666666,132.26666666666665
71,0.0,-501.3333333333333,142.93333333333334
72,4.266666666666667,-509.8666666666667,132.26666666666665
73,2.1333333333333333,-503.46666666666664,136.53333333333333
74,0.0,-509.8666666666667,138.66666666666666
75,0.0,-501.3333333333333,134.4
76,0.0,-505.59999999999997,138.66666666666666
77,0.0,-507.73333333333335,134.4
78,0.0,-505.59999999999997,145.06666666666666
79,0.0,-507.73333333333335,134.4
80,0.0,-507.73333333333335,138.66666666666666
81,0.0,-507.73333333333335,142.93333333333334
82,0.0,-516.2666666666667,136.53333333333333
83,0.0,-514.1333333333333,136.53333333333333
84,0.0,-514.1333333333333,136.53333333333333
85,0.0,-509.8666666666667,138.66666666666666
86,0.0,-514.1333333333333,136.53333333333333
87,2.1333333333333333,-505.59999999999997,138.66666666666666
88,0.0,-514.1333333333333,132.26666666666665
89,2.1333333333333333,-509.8666666666667,145.06666666666666
90,2.1333333333333333,-514.1333333333333,142.93333333333334
91,4.266666666666667,-505.59999999999997,140.8
92,4.266666666666667,-505.59999999999997,160.0
93,2.1333333333333333,-509.8666666666667,134.4
94,0.0,-509.8666666666667,134.4
95,-4.266666666666667,-505.59999999999997,136.53333333333333
96,2.1333333333333333,-503.46666666666664,132.26666666666665
97,0.0,-503.46666666666664,128.0
98,0.0,-505.59999999999997,136.53333333333333
99,0.0,-507.73333333333335,142.93333333333334
100,-2.1333333333333333,-507.73333333333335,140.8
101,0.0,-509.8666666666667,132.26666666666665
102,0.0,-509.8666666666667,153.6
103,6.4,-512.0,130.13333333333333
104,0.0,-503.46666666666664,138.66666666666666
105,4.266666666666667,-514.1333333333333,136.53333333333333
106,0.0,-509.8666666666667,140.8
107,4.266666666666667,-512.0,138.66666666666666
108,2.1333333333333333,-505.59999999999997,142.93333333333334
109,-2.1333333333333333,-507.73333333333335,140.8
110,0.0,-507.73333333333335,136.53333333333333
111,0.0,-516.2666666666667,138.66666666666666
112,2.1333333333333333,-507.73333333333335,123.73333333333333
113,4.266666666666667,-516.2666666666667,162.13333333333333
114,0.0,-503.46666666666664,136.53333333333333
115,2.1333333333333333,-503.46666666666664,136.53333333333333
116,2.1333333333333333,-507.73333333333335,140.8
117,0.0,-507.73333333333335,134.4
118,2.1333333333333333,-507.73333333333335,132.26666666666665
119,2.1333333333333333,-505.59999999999997,132.26666666666665
120,-2.1333333333333333,-516.2666666666667,134.4
121,2.1333333333333333,-509.8666666666667,134.4
122,0.0,-499.2,145.06666666666666
123,0.0,-503.46666666666664,132.26666666666665
124,6.4,-497.06666666666666,138.66666666666666
125,-2.1333333333333333,-501.3333333333333,128.0
126,4.266666666666667,-503.46666666666664,134.4
127,0.0,-503.46666666666664,130.13333333333333
128,4.266666666666667,-505.59999999999997,136.53333333333333
129,2.1333333333333333,-503.46666666666664,142.93333333333334
130,-2.1333333333333333,-497.06666666666666,130.13333333333333
131,0.0,-507.73333333333335,125.86666666666666
132,-2.1333333333333333,-507.73333333333335,136.53333333333333
133,0.0,-507.73333333333335,134.4
134,0.0,-518.4,134.4
135,0.0,-505.59999999999997,147.2
136,2.1333333333333333,-516.2666666666667,132.26666666666665
137,0.0,-516.2666666666667,138.66666666666666
138,2.1333333333333333,-514.1333333333333,136.53333333333333
139,8.533333333333333,-514.1333333333333,140.8
140,2.1333333333333333,-514.1333333333333,140.8
141,8.533333333333333,-509.8666666666667,140.8
142,4.266666666666667,-507.73333333333335,134.4
143,4.266666666666667,-509.8666666666667,142.93333333333334
144,0.0,-503.46666666666664,136.53333333333333
145,10.666666666666666,-505.59999999999997,134.4
146,2.1333333333333333,-503.46666666666664,132.26666666666665
147,8.533333333333333,-505.59999999999997,138.66666666666666
148,6.4,-505.59999999999997,140.8
149,4.266666666666667,-512.0,134.4
150,0.0,-503.46666666666664,136.53333333333333
151,2.1333333333333333,-499.2,134.4
152,0.0,-505.59999999999997,132.26666666666665
153,2.1333333333333333,-505.59999999999997,140.8
154,0.0,-497.06666666666666,142.93333333333334
155,2.1333333333333333,-503.46666666666664,132.26666666666665
156,0.0,-494.93333333333334,140.8
157,-4.266666666666667,-499.2,134.4
158,0.0,-494.93333333333334,138.66666666666666
159,2.1333333333333333,-497.06666666666666,130.13333333333333
160,0.0,-499.2,134.4
161,0.0,-501.3333333333333,132.26666666666665
162,0.0,-503.46666666666664,142.93333333333334
163,0.0,-499.2,138.66666666666666
164,0.0,-505.59999999999997,134.4
165,4.266666666666667,-505.59999999999997,149.33333333333334
166,0.0,-509.8666666666667,140.8
167,-4.266666666666667,-499.2,136.53333333333333
168,-2.1333333333333333,-503.46666666666664,125.86666666666666
169,0.0,-507.73333333333335,140.8
170,0.0,-516.2666666666667,140.8
171,0.0,-512.0,138.66666666666666
172,0.0,-509.8666666666667,132.26666666666665
173,2.1333333333333333,-509.8666666666667,138.66666666666666
174,0.0,-514.1333333333333,134.4
175,2.1333333333333333,-518.4,132.26666666666665
176,2.1333333333333333,-512.0,140.8
177,4.266666666666667,-509.8666666666667,140.8
178,6.4,-514.1333333333333,138.66666666666666
179,8.533333333333333,-516.2666666666667,145.06666666666666
180,4.266666666666667,-507.73333333333335,140.8
181,4.266666666666667,-503.46666666666664,136.53333333333333
182,2.1333333333333333,-503.46666666666664,140.8
183,8.533333333333333,-497.06666666666666,140.8
184,4.266666666666667,-499.2,140.8
185,6.4,-501.3333333333333,134.4
186,12.8,-499.2,142.93333333333334
187,8.533333333333333,-499.2,140.8
188,8.533333333333333,-503.46666666666664,147.2
189,4.266666666666667,-499.2,140.8
190,2.1333333333333333,-490.6666666666667,140.8
191,2.1333333333333333,-503.46666666666664,147.2
192,0.0,-497.06666666666666,138.66666666666666
193,0.0,-492.8,140.8
194,0.0,-503.46666666666664,138.66666666666666
195,-4.266666666666667,-501.3333333333333,134.4
196,2.1333333333333333,-505.59999999999997,134.4
197,0.0,-503.46666666666664,138.66666666666666
198,-2.1333333333333333,-507.73333333333335,132.26666666666665
199,-4.266666666666667,-501.3333333333333,140.8
200,-4.266666666666667,-512.0,142.93333333333334
201,2.1333333333333333,-520.5333333333333,155.73333333333332
202,0.0,-514.1333333333333,145.06666666666666
203,0.0,-512.0,149.33333333333334
204,0.0,-505.59999999999997,138.66666666666666
205,2.1333333333333333,-507.73333333333335,136.53333333333333
206,0.0,-503.46666666666664,136.53333333333333
207,0.0,-505.59999999999997,134.4
208,-2.1333333333333333,-501.3333333333333,136.53333333333333
209,2.1333333333333333,-505.59999999999997,140.8
210,2.1333333333333333,-501.3333333333333,136.53333333333333
211,4.266666666666667,-494.93333333333334,132.26666666666665
212,6.4,-501.3333333333333,138.66666666666666
213,6.4,-505.59999999999997,142.93333333333334
214,6.4,-512.0,140.8
215,2.1333333333333333,-503.46666666666664,138.66666666666666
216,8.533333333333333,-507.73333333333335,136.53333333333333
217,6.4,-505.59999999999997,140.8
218,2.1333333333333333,-507.73333333333335,136.53333333333333
219,10.666666666666666,-509.8666666666667,140.8
220,6.4,-512.0,140.8
221,8.533333333333333,-512.0,138.66666666666666
222,8.533333333333333,-505.59999999999997,145.06666666666666
223,4.266666666666667,-512.0,136.53333333333333
224,4.266666666666667,-514.1333333333333,132.26666666666665
225,0.0,-505.59999999999997,136.53333333333333
226,4.266666666666667,-514.1333333333333,138.66666666666666
227,2.1333333333333333,-512.0,136.53333333333333
228,2.1333333333333333,-509.8666666666667,134.4
229,0.0,-507.73333333333335,136.53333333333333
230,4.266666666666667,-512.0,138.66666666666666
231,0.0,-507.73333333333335,136.53333333333333
232,4.266666666666667,-507.73333333333335,142.93333333333334
233,0.0,-497.06666666666666,151.46666666666667
234,0.0,-503.46666666666664,134.4
235,0.0,-505.59999999999997,140.8
236,2.1333333333333333,-507.73333333333335,136.53333333333333
237,2.1333333333333333,-501.3333333333333,134.4
238,2.1333333333333333,-503.46666666666664,128.0
239,-4.266666666666667,-497.06666666666666,138.66666666666666
240,0.0,-499.2,136.53333333333333
241,2.1333333333333333,-503.46666666666664,128.0
242,2.1333333333333333,-499.2,140.8
243,4.266666666666667,-503.46666666666664,132.26666666666665
244,6.4,-503.46666666666664,136.53333333333333
245,0.0,-503.46666666666664,136.53333333333333
246,0.0,-507.73333333333335,134.4
247,4.266666666666667,-503.46666666666664,136.53333333333333
248,0.0,-512.0,132.26666666666665
249,4.266666666666667,-516.2666666666667,132.26666666666665
250,0.0,-514.1333333333333,132.26666666666665
251,-2.1333333333333333,-509.8666666666667,140.8
252,2.1333333333333333,-507.73333333333335,138.66666666666666
253,0.0,-501.3333333333333,134.4
254,8.533333333333333,-514.1333333333333,134.4
255,4.266666666666667,-512.0,136.53333333333333
256,2.1333333333333333,-514.1333333333333,138.66666666666666
257,4.266666666666667,-503.46666666666664,132.26666666666665
258,0.0,-512.0,136.53333333333333
259,0.0,-507.73333333333335,130.13333333333333
260,2.1333333333333333,-505.59999999999997,130.13333333333333
261,4.266666666666667,-503.46666666666664,130.13333333333333
262,10.666666666666666,-503.46666666666664,140.8
263,2.1333333333333333,-501.3333333333333,132.26666666666665
264,0.0,-509.8666666666667,128.0
265,0.0,-514.1333333333333,138.66666666666666
266,0.0,-512.0,138.66666666666666
267,0.0,-505.59999999999997,136.53333333333333
268,-2.1333333333333333,-514.1333333333333,134.4
269,0.0,-507.73333333333335,136.53333333333333
270,0.0,-514.1333333333333,130.13333333333333
271,0.0,-514.1333333333333,138.66666666666666
272,0.0,-509.8666666666667,130.13333333333333
273,0.0,-512.0,136.53333333333333
274,2.1333333333333333,-505.59999999999997,136.53333333333333
275,-4.266666666666667,-503.46666666666664,134.4
276,0.0,-509.8666666666667,134.4
277,-8.533333333333333,-507.73333333333335,136.53333333333333
278,-2.1333333333333333,-505.59999999999997,134.4
279,2.1333333333333333,-507.73333333333335,134.4
280,2.1333333333333333,-501.3333333333333,132.26666666666665
281,4.266666666666667,-509.8666666666667,130.13333333333333
282,6.4,-505.59999999999997,132.26666666666665
283,2.1333333333333333,-509.8666666666667,136.53333333333333
284,-4.266666666666667,-497.06666666666666,134.4
285,0.0,-507.73333333333335,130.13333333333333
286,0.0,-512.0,132.26666666666665
287,12.8,-499.2,121.6
288,2.1333333333333333,-505.59999999999997,132.26666666666665
289,2.1333333333333333,-512.0,132.26666666666665
290,2.1333333333333333,-505.59999999999997,130.13333333333333
291,0.0,-507.73333333333335,134.4
292,2.1333333333333333,-505.59999999999997,136.53333333333333
293,0.0,-505.59999999999997,130.13333333333333
294,-2.1333333333333333,-512.0,134.4
295,0.0,-507.73333333333335,140.8
296,0.0,-514.1333333333333,134.4
297,0.0,-509.8666666666667,138.66666666666666
298,0.0,-514.1333333333333,130.13333333333333
299,2.1333333333333333,-499.2,130.13333333333333
300,0.0,-509.8666666666667,132.26666666666665
301,0.0,-512.0,125.86666666666666
302,2.1333333333333333,-514.1333333333333,134.4
303,4.266666666666667,-507.73333333333335,132.26666666666665
304,2.1333333333333333,-507.73333333333335,134.4
305,0.0,-514.1333333333333,134.4
306,2.1333333333333333,-509.8666666666667,142.93333333333334
307,4.266666666666667,-512.0,121.6
308,2.1333333333333333,-516.2666666666667,119.46666666666667
309,8.533333333333333,-514.1333333333333,132.26666666666665
310,6.4,-497.06666666666666,119.46666666666667
311,0.0,-505.59999999999997,125.86666666666666
312,0.0,-503.46666666666664,134.4
313,0.0,-505.59999999999997,130.13333333333333
314,0.0,-507.73333333333335,125.86666666666666
315,0.0,-512.0,123.73333333333333
316,4.266666666666667,-505.59999999999997,134.4
317,0.0,-507.73333333333335,119.46666666666667
318,0.0,-509.8666666666667,132.26666666666665
319,-2.1333333333333333,-499.2,138.66666666666666
320,-4.266666666666667,-505.59999999999997,121.6
321,0.0,-501.3333333333333,134.4
322,-6.4,-512.0,134.4
323,0.0,-514.1333333333333,132.26666666666665
324,0.0,-512.0,136.53333333333333
325,0.0,-507.73333333333335,132.26666666666665
326,-4.266666666666667,-509.8666666666667,130.13333333333333
327,0.0,-509.8666666666667,130.13333333333333
328,0.0,-512.0,130.13333333333333
329,0.0,-509.8666666666667,121.6
330,-2.1333333333333333,-516.2666666666667,125.86666666666666
331,0.0,-512.0,125.86666666666666
332,0.0,-509.8666666666667,125.86666666666666
333,2.1333333333333333,-509.8666666666667,136.53333333333333
334,0.0,-514.1333333333333,128.0
335,2.1333333333333333,-507.73333333333335,130.13333333333333
336,-4.266666666666667,-501.3333333333333,130.13333333333333
337,0.0,-507.73333333333335,132.26666666666665
338,4.266666666666667,-505.59999999999997,121.6
339,2.1333333333333333,-505.59999999999997,132.26666666666665
340,-2.1333333333333333,-509.8666666666667,134.4
341,2.1333333333333333,-514.1333333333333,121.6
342,6.4,-509.8666666666667,125.86666666666666
343,0.0,-507.73333333333335,130.13333333333333
344,2.1333333333333333,-514.1333333333333,130.13333333333333
345,0.0,-512.0,134.4
346,0.0,-512.0,128.0
347,2.1333333333333333,-516.2666666666667,130.13333333333333
348,-6.4,-509.8666666666667,134.4
349,2.1333333333333333,-516.2666666666667,130.13333333333333
350,0.0,-512.0,136.53333333333333
351,-4.266666666666667,-516.2666666666667,130.13333333333333
352,0.0,-516.2666666666667,130.13333333333333
353,2.1333333333333333,-522.6666666666666,130.13333333333333
354,2.1333333333333333,-518.4,128.0
355,4.266666666666667,-516.2666666666667,125.86666666666666
356,4.266666666666667,-516.2666666666667,136.53333333333333
357,0.0,-509.8666666666667,125.86666666666666
358,6.4,-512.0,132.26666666666665
359,6.4,-509.8666666666667,132.26666666666665
360,8.533333333333333,-518.4,121.6
361,6.4,-505.59999999999997,134.4
362,8.533333333333333,-509.8666666666667,136.53333333333333
363,8.533333333333333,-507.73333333333335,136.53333333333333
364,2.1333333333333333,-492.8,128.0
365,6.4,-505.59999999999997,123.73333333333333
366,6.4,-507.73333333333335,130.13333333333333
367,4.266666666666667,-503.46666666666664,136.53333333333333
368,4.266666666666667,-505.59999999999997,132.26666666666665
369,4.266666666666667,-505.59999999999997,132.26666666666665
370,4.266666666666667,-501.3333333333333,134.4
371,10.666666666666666,-505.59999999999997,138.66666666666666
372,4.266666666666667,-499.2,132.26666666666665
373,4.266666666666667,-505.59999999999997,134.4
374,0.0,-505.59999999999997,132.26666666666665
375,0.0,-514.1333333333333,134.4
376,0.0,-509.8666666666667,132.26666666666665
377,-4.266666666666667,-516.2666666666667,134.4
378,-4.266666666666667,-514.1333333333333,134.4
379,0.0,-505.59999999999997,123.73333333333333
380,-4.266666666666667,-518.4,123.73333333333333
381,-10.666666666666666,-512.0,125.86666666666666
382,-8.533333333333333,-507.73333333333335,132.26666666666665
383,-14.933333333333334,-499.2,128.0
384,-14.933333333333334,-494.93333333333334,125.86666666666666
385,-10.666666666666666,-497.06666666666666,113.06666666666666
386,-32.0,-497.06666666666666,110.93333333333334
387,-25.6,-494.93333333333334,110.93333333333334
388,-34.13333333333333,-497.06666666666666,110.93333333333334
389,-32.0,-492.8,113.06666666666666
390,-34.13333333333333,-497.06666666666666,106.66666666666667
391,-34.13333333333333,-499.2,106.66666666666667
392,-40.53333333333333,-488.5333333333333,100.26666666666667
393,-40.53333333333333,-488.5333333333333,106.66666666666667
394,-46.93333333333333,-499.2,102.4
395,-36.266666666666666,-505.59999999999997,119.46666666666667
396,-36.266666666666666,-503.46666666666664,115.2
397,-34.13333333333333,-509.8666666666667,117.33333333333333
398,-32.0,-516.2666666666667,128.0
399,-34.13333333333333,-520.5333333333333,125.86666666666666
400,-29.866666666666667,-529.0666666666666,128.0
401,-29.866666666666667,-524.8,130.13333333333333
402,-17.066666666666666,-544.0,125.86666666666666
403,-25.6,-541.8666666666667,121.6
404,-17.066666666666666,-544.0,128.0
405,-19.2,-541.8666666666667,119.46666666666667
406,-8.533333333333333,-546.1333333333333,121.6
407,-19.2,-541.8666666666667,121.6
408,-10.666666666666666,-537.6,117.33333333333333
409,-12.8,-535.4666666666667,113.06666666666666
410,-2.1333333333333333,-531.2,117.33333333333333
411,-2.1333333333333333,-535.4666666666667,115.2
412,-4.266666666666667,-522.6666666666666,117.33333333333333
413,-2.1333333333333333,-518.4,113.06666666666666
414,0.0,-509.8666666666667,110.93333333333334
415,4.266666666666667,-516.2666666666667,98.13333333333333
416,0.0,-516.2666666666667,108.8
417,4.266666666666667,-505.59999999999997,100.26666666666667
418,14.933333333333334,-505.59999999999997,110.93333333333334
419,0.0,-501.3333333333333,96.0
420,2.1333333333333333,-505.59999999999997,93.86666666666666
421,6.4,-501.3333333333333,98.13333333333333
422,6.4,-505.59999999999997,106.66666666666667
423,4.266666666666667,-505.59999999999997,96.0
424,4.266666666666667,-503.46666666666664,98.13333333333333
425,4.266666666666667,-505.59999999999997,104.53333333333333
426,10.666666666666666,-507.73333333333335,104.53333333333333
427,10.666666666666666,-512.0,117.33333333333333
428,17.066666666666666,-516.2666666666667,119.46666666666667
429,17.066666666666666,-522.6666666666666,98.13333333333333
430,21.333333333333332,-509.8666666666667,117.33333333333333
431,25.6,-524.8,113.06666666666666
432,21.333333333333332,-533.3333333333334,113.06666666666666
433,12.8,-529.0666666666666,117.33333333333333
434,19.2,-533.3333333333334,104.53333333333333
435,23.466666666666665,-537.6,115.2
436,27.733333333333334,-537.6,108.8
437,23.466666666666665,-533.3333333333334,117.33333333333333
438,19.2,-529.0666666666666,113.06666666666666
439,17.066666666666666,-529.0666666666666,117.33333333333333
440,8.533333333333333,-531.2,87.46666666666667
441,14.933333333333334,-531.2,115.2
442,12.8,-531.2,113.06666666666666
443,8.533333333333333,-531.2,117.33333333333333
444,2.1333333333333333,-516.2666666666667,106.66666666666667
445,2.1333333333333333,-522.6666666666666,106.66666666666667
446,4.266666666666667,-524.8,102.4
447,2.1333333333333333,-514.1333333333333,108.8
448,8.533333333333333,-516.2666666666667,102.4
449,4.266666666666667,-516.2666666666667,102.4
450,4.266666666666667,-507.73333333333335,106.66666666666667
451,6.4,-512.0,108.8
452,2.1333333333333333,-507.73333333333335,108.8
453,8.533333333333333,-507.73333333333335,104.53333333333333
454,2.1333333333333333,-509.8666666666667,96.0
455,0.0,-501.3333333333333,102.4
456,4.266666666666667,-501.3333333333333,102.4
457,4.266666666666667,-499.2,89.6
458,4.266666666666667,-499.2,102.4
459,2.1333333333333333,-494.93333333333334,108.8
460,2.1333333333333333,-492.8,117.33333333333333
461,6.4,-499.2,119.46666666666667
462,4.266666666666667,-477.8666666666667,123.73333333333333
463,0.0,-488.5333333333333,113.06666666666666
464,0.0,-486.4,123.73333333333333
465,2.1333333333333333,-494.93333333333334,123.73333333333333
466,4.266666666666667,-490.6666666666667,123.73333333333333
467,4.266666666666667,-494.93333333333334,117.33333333333333
468,0.0,-490.6666666666667,121.6
469,0.0,-490.6666666666667,119.46666666666667
470,0.0,-494.93333333333334,121.6
471,0.0,-503.46666666666664,115.2
472,-2.1333333333333333,-501.3333333333333,115.2
473,-19.2,-509.8666666666667,110.93333333333334
474,-27.733333333333334,-505.59999999999997,117.33333333333333
475,-19.2,-518.4,130.13333333333333
476,-36.266666666666666,-514.1333333333333,115.2
477,-38.4,-518.4,121.6
478,-53.333333333333336,-518.4,115.2
479,-55.46666666666667,-518.4,115.2
480,-59.733333333333334,-516.2666666666667,110.93333333333334
481,-66.13333333333333,-524.8,123.73333333333333
482,-70.4,-529.0666666666666,106.66666666666667
483,-74.66666666666667,-529.0666666666666,121.6
484,-83.2,-535.4666666666667,110.93333333333334
485,-85.33333333333333,-533.3333333333334,119.46666666666667
486,-72.53333333333333,-533.3333333333334,108.8
487,-74.66666666666667,-535.4666666666667,115.2
488,-78.93333333333334,-535.4666666666667,113.06666666666666
489,-72.53333333333333,-541.8666666666667,100.26666666666667
490,-66.13333333333333,-539.7333333333333,113.06666666666666
491,-59.733333333333334,-539.7333333333333,110.93333333333334
492,-57.6,-535.4666666666667,96.0
493,-49.06666666666666,-544.0,102.4
494,-44.8,-539.7333333333333,98.13333333333333
495,-25.6,-537.6,136.53333333333333
496,-21.333333333333332,-539.7333333333333,102.4
497,-8.533333333333333,-541.8666666666667,98.13333333333333
498,-6.4,-535.4666666666667,102.4
499,-2.1333333333333333,-535.4666666666667,102.4
500,4.266666666666667,-546.1333333333333,100.26666666666667
501,8.533333333333333,-539.7333333333333,108.8
502,14.933333333333334,-531.2,102.4
503,23.466666666666665,-535.4666666666667,96.0
504,27.733333333333334,-537.6,110.93333333333334
505,38.4,-539.7333333333333,93.86666666666666
506,38.4,-535.4666666666667,78.93333333333334
507,32.0,-539.7333333333333,98.13333333333333
508,40.53333333333333,-541.8666666666667,91.73333333333333
509,38.4,-546.1333333333333,93.86666666666666
510,29.866666666666667,-541.8666666666667,85.33333333333333
511,29.866666666666667,-548.2666666666667,89.6
512,34.13333333333333,-546.1333333333333,91.73333333333333
513,32.0,-548.2666666666667,81.06666666666666
514,29.866666666666667,-541.8666666666667,96.0
515,21.333333333333332,-541.8666666666667,83.2
516,25.6,-544.0,87.46666666666667
517,25.6,-529.0666666666666,81.06666666666666
518,10.666666666666666,-533.3333333333334,64.0
519,12.8,-526.9333333333333,66.13333333333333
520,6.4,-522.6666666666666,59.733333333333334
521,10.666666666666666,-520.5333333333333,64.0
522,10.666666666666666,-514.1333333333333,64.0
523,12.8,-514.1333333333333,55.46666666666667
524,4.266666666666667,-512.0,64.0
525,8.533333333333333,-518.4,61.86666666666667
526,-4.266666666666667,-516.2666666666667,68.26666666666667
527,-2.1333333333333333,-516.2666666666667,51.2
528,-8.533333333333333,-516.2666666666667,70.4
529,-8.533333333333333,-520.5333333333333,59.733333333333334
530,-8.533333333333333,-524.8,68.26666666666667
531,-19.2,-526.9333333333333,74.66666666666667
532,-8.533333333333333,-518.4,76.8
533,-14.933333333333334,-520.5333333333333,72.53333333333333
534,-10.666666666666666,-522.6666666666666,76.8
535,-8.533333333333333,-520.5333333333333,76.8
536,-4.266666666666667,-522.6666666666666,81.06666666666666
537,-2.1333333333333333,-512.0,76.8
538,-2.1333333333333333,-522.6666666666666,81.06666666666666
539,-2.1333333333333333,-509.8666666666667,78.93333333333334
540,-2.1333333333333333,-509.8666666666667,81.06666666666666
541,0.0,-518.4,81.06666666666666
542,4.266666666666667,-520.5333333333333,83.2
543,0.0,-518.4,83.2
544,0.0,-529.0666666666666,81.06666666666666
545,2.1333333333333333,-535.4666666666667,85.33333333333333
546,0.0,-533.3333333333334,91.73333333333333
547,0.0,-546.1333333333333,89.6
548,0.0,-541.8666666666667,93.86666666666666
549,2.1333333333333333,-554.6666666666666,106.66666666666667
550,0.0,-563.2,104.53333333333333
551,2.1333333333333333,-558.9333333333333,106.66666666666667
552,0.0,-561.0666666666666,104.53333333333333
553,2.1333333333333333,-567.4666666666667,104.53333333333333
554,4.266666666666667,-563.2,100.26666666666667
555,0.0,-556.8,98.13333333333333
556,-2.1333333333333333,-552.5333333333333,85.33333333333333
557,2.1333333333333333,-554.6666666666666,98.13333333333333
558,-2.1333333333333333,-552.5333333333333,83.2
559,0.0,-550.4,85.33333333333333
560,-2.1333333333333333,-537.6,89.6
561,0.0,-537.6,89.6
562,0.0,-541.8666666666667,87.46666666666667
563,0.0,-535.4666666666667,85.33333333333333
564,0.0,-539.7333333333333,78.93333333333334
565,-2.1333333333333333,-537.6,78.93333333333334
566,0.0,-533.3333333333334,78.93333333333334
567,-6.4,-535.4666666666667,76.8
568,-6.4,-531.2,72.53333333333333
569,-6.4,-535.4666666666667,70.4
570,-2.1333333333333333,-529.0666666666666,74.66666666666667
571,0.0,-531.2,64.0
572,0.0,-526.9333333333333,64.0
573,2.1333333333333333,-526.9333333333333,59.733333333333334
574,4.266666666666667,-524.8,57.6
575,10.666666666666666,-522.6666666666666,70.4
576,12.8,-522.6666666666666,68.26666666666667
577,2.1333333333333333,-514.1333333333333,74.66666666666667
578,6.4,-520.5333333333333,85.33333333333333
579,8.533333333333333,-520.5333333333333,81.06666666666666
580,6.4,-522.6666666666666,74.66666666666667
581,8.533333333333333,-526.9333333333333,89.6
582,10.666666666666666,-537.6,83.2
583,6.4,-541.8666666666667,76.8
584,0.0,-541.8666666666667,85.33333333333333
585,4.266666666666667,-552.5333333333333,81.06666666666666
586,0.0,-550.4,76.8
587,2.1333333333333333,-558.9333333333333,74.66666666666667
588,2.1333333333333333,-569.6,66.13333333333333
589,-2.1333333333333333,-571.7333333333333,53.333333333333336
590,2.1333333333333333,-580.2666666666667,66.13333333333333
591,0.0,-580.2666666666667,55.46666666666667
592,-4.266666666666667,-582.4,46.93333333333333
593,-4.266666666666667,-584.5333333333333,32.0
594,-19.2,-588.8,38.4
595,-27.733333333333334,-584.5333333333333,34.13333333333333
596,-36.266666666666666,-584.5333333333333,32.0
597,-38.4,-576.0,25.6
598,-34.13333333333333,-573.8666666666667,21.333333333333332
599,-40.53333333333333,-565.3333333333334,25.6
600,-42.666666666666664,-558.9333333333333,32.0
601,-34.13333333333333,-552.5333333333333,17.066666666666666
602,-19.2,-546.1333333333333,6.4
603,-10.666666666666666,-548.2666666666667,-8.533333333333333
604,-2.1333333333333333,-541.8666666666667,6.4
605,12.8,-537.6,6.4
606,23.466666666666665,-531.2,12.8
607,44.8,-518.4,2.1333333333333333
608,70.4,-516.2666666666667,-4.266666666666667
609,78.93333333333334,-494.93333333333334,8.533333333333333
610,98.13333333333333,-477.8666666666667,4.266666666666667
611,110.93333333333334,-462.93333333333334,-4.266666666666667
612,136.53333333333333,-448.0,6.4
613,155.73333333333332,-439.46666666666664,2.1333333333333333
614,174.93333333333334,-448.0,4.266666666666667
615,185.6,-428.8,6.4
616,198.4,-428.8,14.933333333333334
617,198.4,-433.06666666666666,25.6
618,198.4,-448.0,38.4
619,194.13333333333333,-465.06666666666666,46.93333333333333
620,200.53333333333333,-484.26666666666665,61.86666666666667
621,202.66666666666666,-507.73333333333335,59.733333333333334
622,200.53333333333333,-526.9333333333333,76.8
623,192.0,-546.1333333333333,76.8
624,179.2,-563.2,89.6
625,185.6,-561.0666666666666,81.06666666666666
626,181.33333333333334,-576.0,78.93333333333334
627,179.2,-593.0666666666666,55.46666666666667
628,177.06666666666666,-601.6,36.266666666666666
629,162.13333333333333,-622.9333333333333,23.466666666666665
630,155.73333333333332,-625.0666666666666,32.0
631,142.93333333333334,-640.0,34.13333333333333
632,138.66666666666666,-650.6666666666666,51.2
633,117.33333333333333,-652.8,53.333333333333336
634,102.4,-646.4,49.06666666666666
635,81.06666666666666,-650.6666666666666,36.266666666666666
636,66.13333333333333,-652.8,34.13333333333333
637,57.6,-648.5333333333333,42.666666666666664
638,53.333333333333336,-633.6,40.53333333333333
639,49.06666666666666,-642.1333333333333,61.86666666666667
640,38.4,-629.3333333333334,70.4
641,27.733333333333334,-620.8,83.2
642,23.466666666666665,-618.6666666666666,87.46666666666667
643,21.333333333333332,-593.0666666666666,87.46666666666667
644,14.933333333333334,-578.1333333333333,83.2
645,6.4,-548.2666666666667,85.33333333333333
646,12.8,-533.3333333333334,70.4
647,-2.1333333333333333,-507.73333333333335,59.733333333333334
648,-8.533333333333333,-486.4,53.333333333333336
649,-12.8,-469.3333333333333,51.2
650,-19.2,-460.8,44.8
651,-29.866666666666667,-448.0,44.8
652,-38.4,-439.46666666666664,40.53333333333333
653,-51.2,-437.3333333333333,51.2
654,-46.93333333333333,-445.8666666666667,44.8
655,-55.46666666666667,-439.46666666666664,49.06666666666666
656,-53.333333333333336,-448.0,38.4
657,-55.46666666666667,-441.59999999999997,42.666666666666664
658,-46.93333333333333,-456.5333333333333,34.13333333333333
659,-44.8,-467.2,29.866666666666667
660,-38.4,-471.46666666666664,27.733333333333334
661,-21.333333333333332,-484.26666666666665,23.466666666666665
662,-12.8,-492.8,38.4
663,2.1333333333333333,-503.46666666666664,40.53333333333333
664,21.333333333333332,-516.2666666666667,42.666666666666664
665,46.93333333333333,-531.2,53.333333333333336
666,59.733333333333334,-539.7333333333333,59.733333333333334
667,72.53333333333333,-554.6666666666666,78.93333333333334
668,93.86666666666666,-554.6666666666666,83.2
669,123.73333333333333,-569.6,74.66666666666667
670,138.66666666666666,-582.4,83.2
671,160.0,-588.8,85.33333333333333
672,168.53333333333333,-593.0666666666666,102.4
673,177.06666666666666,-595.2,121.6
674,181.33333333333334,-601.6,121.6
675,187.73333333333332,-610.1333333333333,136.53333333333333
676,183.46666666666667,-605.8666666666667,147.2
677,181.33333333333334,-599.4666666666667,145.06666666666666
678,170.66666666666666,-605.8666666666667,145.06666666666666
679,157.86666666666667,-595.2,142.93333333333334
680,138.66666666666666,-593.0666666666666,140.8
681,130.13333333333333,-590.9333333333333,138.66666666666666
682,108.8,-582.4,136.53333333333333
683,100.26666666666667,-569.6,136.53333333333333
684,87.46666666666667,-556.8,128.0
685,83.2,-554.6666666666666,115.2
686,78.93333333333334,-544.0,110.93333333333334
687,68.26666666666667,-533.3333333333334,91.73333333333333
688,68.26666666666667,-518.4,85.33333333333333
689,61.86666666666667,-509.8666666666667,64.0
690,66.13333333333333,-494.93333333333334,55.46666666666667
691,64.0,-488.5333333333333,29.866666666666667
692,66.13333333333333,-494.93333333333334,2.1333333333333333
693,81.06666666666666,-490.6666666666667,-27.733333333333334
694,83.2,-484.26666666666665,-61.86666666666667
695,96.0,-486.4,-96.0
696,89.6,-477.8666666666667,-125.86666666666666
697,91.73333333333333,-490.6666666666667,-157.86666666666667
698,85.33333333333333,-512.0,-179.2
699,83.2,-529.0666666666666,-209.06666666666666
700,74.66666666666667,-544.0,-219.73333333333332
701,61.86666666666667,-584.5333333333333,-219.73333333333332
702,46.93333333333333,-620.8,-221.86666666666667
703,49.06666666666666,-663.4666666666667,-211.2
704,40.53333333333333,-686.9333333333333,-181.33333333333334
705,40.53333333333333,-712.5333333333333,-166.4
706,38.4,-733.8666666666667,-138.66666666666666
707,14.933333333333334,-736.0,-136.53333333333333
708,4.266666666666667,-736.0,-115.2
709,2.1333333333333333,-727.4666666666667,-102.4
710,-6.4,-736.0,-98.13333333333333
711,-12.8,-736.0,-100.26666666666667
712,-46.93333333333333,-714.6666666666666,-85.33333333333333
713,-57.6,-716.8,-87.46666666666667
714,-64.0,-718.9333333333333,-98.13333333333333
715,-64.0,-714.6666666666666,-98.13333333333333
716,-55.46666666666667,-716.8,-91.73333333333333
717,-42.666666666666664,-725.3333333333334,-74.66666666666667
718,-25.6,-716.8,-55.46666666666667
719,-10.666666666666666,-723.2,-34.13333333333333
720,-10.666666666666666,-701.8666666666667,-32.0
721,0.0,-704.0,-4.266666666666667
722,19.2,-695.4666666666667,-8.533333333333333
723,8.533333333333333,-684.8,-8.533333333333333
724,8.533333333333333,-669.8666666666667,0.0
725,8.533333333333333,-659.2,0.0
726,2.1333333333333333,-635.7333333333333,4.266666666666667
727,2.1333333333333333,-625.0666666666666,23.466666666666665
728,0.0,-608.0,25.6
729,-10.666666666666666,-590.9333333333333,27.733333333333334
730,-2.1333333333333333,-576.0,38.4
731,-8.533333333333333,-565.3333333333334,40.53333333333333
732,-6.4,-558.9333333333333,57.6
733,-19.2,-539.7333333333333,72.53333333333333
734,-19.2,-537.6,57.6
735,-19.2,-533.3333333333334,68.26666666666667
736,-17.066666666666666,-529.0666666666666,70.4
737,-29.866666666666667,-522.6666666666666,61.86666666666667
738,-25.6,-529.0666666666666,64.0
739,-32.0,-533.3333333333334,53.333333333333336
740,-36.266666666666666,-535.4666666666667,49.06666666666666
741,-36.266666666666666,-526.9333333333333,55.46666666666667
742,-46.93333333333333,-529.0666666666666,49.06666666666666
743,-46.93333333333333,-522.6666666666666,59.733333333333334
744,-40.53333333333333,-524.8,59.733333333333334
745,-46.93333333333333,-524.8,57.6
746,-55.46666666666667,-518.4,57.6
747,-55.46666666666667,-512.0,49.06666666666666
748,-49.06666666666666,-514.1333333333333,55.46666666666667
749,-55.46666666666667,-507.73333333333335,57.6
750,-49.06666666666666,-509.8666666666667,59.733333333333334
751,-53.333333333333336,-505.59999999999997,55.46666666666667
752,-49.06666666666666,-524.8,49.06666666666666
753,-44.8,-520.5333333333333,68.26666666666667
754,-44.8,-501.3333333333333,57.6
755,-49.06666666666666,-512.0,70.4
756,-59.733333333333334,-503.46666666666664,66.13333333333333
757,-57.6,-494.93333333333334,74.66666666666667
758,-57.6,-492.8,64.0
759,-53.333333333333336,-475.73333333333335,81.06666666666666
760,-53.333333333333336,-462.93333333333334,76.8
761,-61.86666666666667,-462.93333333333334,85.33333333333333
762,-59.733333333333334,-448.0,98.13333333333333
763,-68.26666666666667,-441.59999999999997,91.73333333333333
764,-57.6,-452.26666666666665,102.4
765,-68.26666666666667,-441.59999999999997,106.66666666666667
766,-78.93333333333334,-435.2,104.53333333333333
767,-78.93333333333334,-435.2,89.6
768,-87.46666666666667,-433.06666666666666,72.53333333333333
769,-106.66666666666667,-418.1333333333333,64.0
770,-106.66666666666667,-418.1333333333333,46.93333333333333
771,-115.2,-409.6,34.13333333333333
772,-125.86666666666666,-409.6,38.4
773,-134.4,-409.6,12.8
774,-134.4,-403.2,23.466666666666665
775,-140.8,-401.06666666666666,29.866666666666667
776,-140.8,-403.2,36.266666666666666
777,-140.8,-409.6,34.13333333333333
778,-149.33333333333334,-401.06666666666666,40.53333333333333
779,-149.33333333333334,-396.8,42.666666666666664
780,-136.53333333333333,-405.3333333333333,55.46666666666667
781,-128.0,-405.3333333333333,57.6
782,-128.0,-396.8,55.46666666666667
783,-132.26666666666665,-403.2,59.733333333333334
784,-119.46666666666667,-403.2,59.733333333333334
785,-110.93333333333334,-403.2,57.6
786,-104.53333333333333,-407.46666666666664,57.6
787,-85.33333333333333,-405.3333333333333,53.333333333333336
788,-87.46666666666667,-409.6,57.6
789,-91.73333333333333,-416.0,57.6
790,-87.46666666666667,-413.8666666666667,66.13333333333333
791,-78.93333333333334,-424.5333333333333,61.86666666666667
792,-83.2,-422.4,70.4
793,-85.33333333333333,-426.6666666666667,78.93333333333334
794,-81.06666666666666,-420.26666666666665,100.26666666666667
795,-89.6,-422.4,98.13333333333333
796,-87.46666666666667,-426.6666666666667,117.33333333333333
797,-76.8,-428.8,119.46666666666667
798,-87.46666666666667,-422.4,132.26666666666665
799,-89.6,-428.8,130.13333333333333
800,-96.0,-430.93333333333334,142.93333333333334
801,-96.0,-433.06666666666666,140.8
802,-89.6,-443.73333333333335,153.6
803,-83.2,-445.8666666666667,164.26666666666665
804,-91.73333333333333,-448.0,174.93333333333334
805,-93.86666666666666,-450.1333333333333,170.66666666666666
806,-104.53333333333333,-452.26666666666665,168.53333333333333
807,-106.66666666666667,-445.8666666666667,157.86666666666667
808,-115.2,-456.5333333333333,155.73333333333332
809,-115.2,-458.6666666666667,157.86666666666667
810,-113.06666666666666,-454.4,142.93333333333334
811,-106.66666666666667,-450.1333333333333,138.66666666666666
812,-104.53333333333333,-452.26666666666665,138.66666666666666
813,-106.66666666666667,-445.8666666666667,142.93333333333334
814,-102.4,-443.73333333333335,155.73333333333332
815,-100.26666666666667,-435.2,153.6
816,-106.66666666666667,-437.3333333333333,153.6
817,-100.26666666666667,-430.93333333333334,174.93333333333334
818,-104.53333333333333,-426.6666666666667,189.86666666666667
819,-108.8,-428.8,181.33333333333334
820,-102.4,-422.4,170.66666666666666
821,-110.93333333333334,-426.6666666666667,194.13333333333333
822,-113.06666666666666,-428.8,202.66666666666666
823,-119.46666666666667,-430.93333333333334,198.4
824,-128.0,-422.4,187.73333333333332
825,-134.4,-424.5333333333333,189.86666666666667
826,-136.53333333333333,-424.5333333333333,187.73333333333332
827,-140.8,-420.26666666666665,192.0
828,-138.66666666666666,-420.26666666666665,187.73333333333332
829,-140.8,-420.26666666666665,192.0
830,-147.2,-413.8666666666667,183.46666666666667
831,-151.46666666666667,-413.8666666666667,177.06666666666666
832,-155.73333333333332,-422.4,183.46666666666667
833,-157.86666666666667,-426.6666666666667,183.46666666666667
834,-164.26666666666665,-430.93333333333334,183.46666666666667
835,-164.26666666666665,-433.06666666666666,177.06666666666666
836,-168.53333333333333,-450.1333333333333,183.46666666666667
837,-174.93333333333334,-452.26666666666665,194.13333333333333
838,-168.53333333333333,-462.93333333333334,179.2
839,-179.2,-462.93333333333334,174.93333333333334
840,-170.66666666666666,-480.0,166.4
841,-166.4,-475.73333333333335,166.4
842,-174.93333333333334,-477.8666666666667,149.33333333333334
843,-162.13333333333333,-488.5333333333333,132.26666666666665
844,-160.0,-488.5333333333333,128.0
845,-153.6,-488.5333333333333,121.6
846,-136.53333333333333,-490.6666666666667,123.73333333333333
847,-130.13333333333333,-477.8666666666667,106.66666666666667
848,-121.6,-477.8666666666667,110.93333333333334
849,-119.46666666666667,-475.73333333333335,119.46666666666667
850,-121.6,-462.93333333333334,106.66666666666667
851,-115.2,-454.4,113.06666666666666
852,-115.2,-454.4,134.4
853,-113.06666666666666,-437.3333333333333,121.6
854,-115.2,-430.93333333333334,113.06666666666666
855,-121.6,-418.1333333333333,119.46666666666667
856,-130.13333333333333,-411.73333333333335,113.06666666666666
857,-130.13333333333333,-409.6,113.06666666666666
858,-142.93333333333334,-398.93333333333334,104.53333333333333
859,-153.6,-405.3333333333333,100.26666666666667
860,-160.0,-403.2,87.46666666666667
861,-172.8,-409.6,83.2
862,-179.2,-416.0,72.53333333333333
863,-177.06666666666666,-418.1333333333333,76.8
864,-187.73333333333332,-435.2,70.4
865,-189.86666666666667,-448.0,70.4
866,-187.73333333333332,-456.5333333333333,61.86666666666667
867,-194.13333333333333,-462.93333333333334,46.93333333333333
868,-187.73333333333332,-477.8666666666667,36.266666666666666
869,-192.0,-480.0,19.2
870,-196.26666666666665,-480.0,10.666666666666666
871,-196.26666666666665,-484.26666666666665,0.0
872,-198.4,-484.26666666666665,-10.666666666666666
873,-209.06666666666666,-484.26666666666665,-14.933333333333334
874,-206.93333333333334,-484.26666666666665,-34.13333333333333
875,-228.26666666666665,-497.06666666666666,-34.13333333333333
876,-243.2,-503.46666666666664,-27.733333333333334
877,-247.46666666666667,-505.59999999999997,-25.6
878,-251.73333333333332,-516.2666666666667,-6.4
879,-264.5333333333333,-514.1333333333333,0.0
880,-275.2,-512.0,-2.1333333333333333
881,-275.2,-522.6666666666666,0.0
882,-277.3333333333333,-512.0,-4.266666666666667
883,-281.6,-501.3333333333333,-4.266666666666667
884,-283.73333333333335,-484.26666666666665,-4.266666666666667
885,-279.46666666666664,-477.8666666666667,-6.4
886,-281.6,-475.73333333333335,-27.733333333333334
887,-270.93333333333334,-473.59999999999997,-27.733333333333334
888,-266.6666666666667,-465.06666666666666,-40.53333333333333
889,-249.6,-460.8,-34.13333333333333
890,-236.79999999999998,-452.26666666666665,-42.666666666666664
891,-228.26666666666665,-439.46666666666664,-46.93333333333333
892,-206.93333333333334,-424.5333333333333,-57.6
893,-189.86666666666667,-422.4,-55.46666666666667
894,-172.8,-409.6,-38.4
895,-164.26666666666665,-409.6,-44.8
896,-151.46666666666667,-407.46666666666664,-53.333333333333336
897,-132.26666666666665,-403.2,-55.46666666666667
898,-119.46666666666667,-407.46666666666664,-66.13333333333333
899,-102.4,-405.3333333333333,-70.4
900,-100.26666666666667,-401.06666666666666,-66.13333333333333
901,-91.73333333333333,-398.93333333333334,-70.4
902,-87.46666666666667,-396.8,-49.06666666666666
903,-87.46666666666667,-392.5333333333333,-55.46666666666667
904,-81.06666666666666,-398.93333333333334,-38.4
905,-89.6,-413.8666666666667,-34.13333333333333
906,-100.26666666666667,-437.3333333333333,-38.4
907,-104.53333333333333,-448.0,-23.466666666666665
908,-125.86666666666666,-467.2,-23.466666666666665
909,-138.66666666666666,-490.6666666666667,-14.933333333333334
910,-155.73333333333332,-514.1333333333333,-23.466666666666665
911,-160.0,-535.4666666666667,-40.53333333333333
912,-189.86666666666667,-550.4,-59.733333333333334
913,-213.33333333333334,-565.3333333333334,-96.0
914,-232.53333333333333,-573.8666666666667,-106.66666666666667
915,-226.13333333333333,-571.7333333333333,-87.46666666666667
916,-206.93333333333334,-580.2666666666667,-68.26666666666667
917,-213.33333333333334,-590.9333333333333,-40.53333333333333
918,-251.73333333333332,-616.5333333333333,2.1333333333333333
919,-300.8,-635.7333333333333,34.13333333333333
920,-381.8666666666667,-646.4,64.0
921,-475.73333333333335,-631.4666666666667,61.86666666666667
922,-552.5333333333333,-612.2666666666667,29.866666666666667
923,-582.4,-593.0666666666666,-12.8
924,-595.2,-556.8,-72.53333333333333
925,-550.4,-541.8666666666667,-125.86666666666666
926,-454.4,-516.2666666666667,-168.53333333333333
927,-362.6666666666667,-522.6666666666666,-194.13333333333333
928,-285.8666666666667,-524.8,-202.66666666666666
929,-260.26666666666665,-507.73333333333335,-160.0
930,-232.53333333333333,-494.93333333333334,-147.2
931,-211.2,-469.3333333333333,-121.6
932,-196.26666666666665,-454.4,-91.73333333333333
933,-179.2,-435.2,-68.26666666666667
934,-172.8,-435.2,-44.8
935,-166.4,-435.2,-57.6
936,-162.13333333333333,-426.6666666666667,-72.53333333333333
937,-153.6,-428.8,-72.53333333333333
938,-145.06666666666666,-435.2,-89.6
939,-117.33333333333333,-437.3333333333333,-102.4
940,-123.73333333333333,-439.46666666666664,-96.0
941,-113.06666666666666,-450.1333333333333,-78.93333333333334
942,-108.8,-467.2,-74.66666666666667
943,-102.4,-480.0,-66.13333333333333
944,-100.26666666666667,-499.2,-72.53333333333333
945,-96.0,-522.6666666666666,-83.2
946,-96.0,-548.2666666666667,-98.13333333333333
947,-108.8,-567.4666666666667,-119.46666666666667
948,-119.46666666666667,-603.7333333333333,-134.4
949,-117.33333333333333,-631.4666666666667,-140.8
950,-136.53333333333333,-667.7333333333333,-142.93333333333334
951,-147.2,-674.1333333333333,-145.06666666666666
952,-177.06666666666666,-676.2666666666667,-142.93333333333334
953,-194.13333333333333,-689.0666666666666,-140.8
954,-206.93333333333334,-674.1333333333333,-130.13333333333333
955,-249.6,-665.6,-128.0
956,-260.26666666666665,-654.9333333333333,-128.0
957,-275.2,-644.2666666666667,-123.73333333333333
958,-290.1333333333333,-618.6666666666666,-117.33333333333333
959,-311.46666666666664,-601.6,-125.86666666666666
960,-313.6,-569.6,-121.6
961,-334.93333333333334,-548.2666666666667,-134.4
962,-339.2,-535.4666666666667,-128.0
963,-326.4,-533.3333333333334,-132.26666666666665
964,-334.93333333333334,-529.0666666666666,-134.4
965,-334.93333333333334,-518.4,-136.53333333333333
966,-332.8,-512.0,-138.66666666666666
967,-320.0,-494.93333333333334,-138.66666666666666
968,-309.3333333333333,-497.06666666666666,-145.06666666666666
969,-285.8666666666667,-484.26666666666665,-147.2
970,-270.93333333333334,-484.26666666666665,-155.73333333333332
971,-264.5333333333333,-475.73333333333335,-166.4
972,-243.2,-480.0,-151.46666666666667
973,-238.93333333333334,-473.59999999999997,-172.8
974,-224.0,-482.1333333333333,-166.4
975,-209.06666666666666,-482.1333333333333,-162.13333333333333
976,-196.26666666666665,-490.6666666666667,-157.86666666666667
977,-192.0,-488.5333333333333,-142.93333333333334
978,-192.0,-501.3333333333333,-134.4
979,-185.6,-509.8666666666667,-115.2
980,-145.06666666666666,-531.2,-119.46666666666667
981,-142.93333333333334,-535.4666666666667,-110.93333333333334
982,-149.33333333333334,-541.8666666666667,-110.93333333333334
983,-134.4,-541.8666666666667,-100.26666666666667
984,-134.4,-541.8666666666667,-93.86666666666666
985,-123.73333333333333,-541.8666666666667,-110.93333333333334
986,-123.73333333333333,-531.2,-113.06666666666666
987,-108.8,-524.8,-117.33333333333333
988,-100.26666666666667,-516.2666666666667,-117.33333333333333
989,-89.6,-507.73333333333335,-113.06666666666666
990,-83.2,-497.06666666666666,-117.33333333333333
991,-91.73333333333333,-486.4,-128.0
992,-74.66666666666667,-482.1333333333333,-119.46666666666667
993,-68.26666666666667,-484.26666666666665,-102.4
994,-64.0,-475.73333333333335,-108.8
995,-74.66666666666667,-475.73333333333335,-121.6
996,-72.53333333333333,-497.06666666666666,-104.53333333333333
997,-85.33333333333333,-512.0,-100.26666666666667
998,-93.86666666666666,-524.8,-106.66666666666667
999,-93.86666666666666,-537.6,-91.73333333333333
1000,-104.53333333333333,-546.1333333333333,-106.66666666666667
1001,-115.2,-552.5333333333333,-98.13333333333333
1002,-106.66666666666667,-576.0,-85.33333333333333
1003,-106.66666666666667,-571.7333333333333,-78.93333333333334
1004,-104.53333333333333,-584.5333333333333,-83.2
1005,-110.93333333333334,-584.5333333333333,-87.46666666666667
1006,-96.0,-597.3333333333334,-85.33333333333333
1007,-104.53333333333333,-603.7333333333333,-85.33333333333333
1008,-98.13333333333333,-610.1333333333333,-89.6
1009,-85.33333333333333,-605.8666666666667,-91.73333333333333
1010,-76.8,-601.6,-89.6
1011,-59.733333333333334,-597.3333333333334,-85.33333333333333
1012,-57.6,-573.8666666666667,-72.53333333333333
1013,-57.6,-561.0666666666666,-78.93333333333334
1014,-55.46666666666667,-541.8666666666667,-74.66666666666667
1015,-61.86666666666667,-526.9333333333333,-83.2
1016,-51.2,-509.8666666666667,-72.53333333333333
1017,-51.2,-499.2,-68.26666666666667
1018,-57.6,-490.6666666666667,-64.0
1019,-53.333333333333336,-477.8666666666667,-57.6
1020,-42.666666666666664,-486.4,-53.333333333333336
1021,-49.06666666666666,-484.26666666666665,-44.8
1022,-44.8,-492.8,-36.266666666666666
1023,-49.06666666666666,-512.0,-34.13333333333333
1024,-49.06666666666666,-516.2666666666667,-29.866666666666667
1025,-44.8,-535.4666666666667,-36.266666666666666
1026,-38.4,-546.1333333333333,-23.466666666666665
1027,-21.333333333333332,-544.0,-27.733333333333334
1028,-14.933333333333334,-550.4,-8.533333333333333
1029,-6.4,-550.4,0.0
1030,-17.066666666666666,-546.1333333333333,4.266666666666667
1031,-17.066666666666666,-550.4,12.8
1032,0.0,-548.2666666666667,17.066666666666666
1033,0.0,-541.8666666666667,25.6
1034,2.1333333333333333,-544.0,17.066666666666666
1035,6.4,-546.1333333333333,10.666666666666666
1036,12.8,-533.3333333333334,27.733333333333334
1037,-12.8,-529.0666666666666,55.46666666666667
1038,-4.266666666666667,-548.2666666666667,64.0
1039,-4.266666666666667,-548.2666666666667,68.26666666666667
1040,-10.666666666666666,-550.4,76.8
1041,-2.1333333333333333,-573.8666666666667,100.26666666666667
1042,-12.8,-578.1333333333333,108.8
1043,-2.1333333333333333,-588.8,115.2
1044,-17.066666666666666,-595.2,128.0
1045,12.8,-599.4666666666667,130.13333333333333
1046,-34.13333333333333,-608.0,123.73333333333333
1047,-23.466666666666665,-614.4,140.8
1048,-19.2,-627.2,164.26666666666665
1049,-12.8,-631.4666666666667,177.06666666666666
1050,-12.8,-637.8666666666667,187.73333333333332
1051,0.0,-640.0,192.0
1052,2.1333333333333333,-635.7333333333333,200.53333333333333
1053,0.0,-622.9333333333333,204.8
1054,8.533333333333333,-616.5333333333333,204.8
1055,10.666666666666666,-616.5333333333333,213.33333333333334
1056,23.466666666666665,-597.3333333333334,221.86666666666667
1057,21.333333333333332,-582.4,228.26666666666665
1058,14.933333333333334,-567.4666666666667,213.33333333333334
1059,34.13333333333333,-556.8,236.79999999999998
1060,23.466666666666665,-539.7333333333333,241.06666666666666
1061,42.666666666666664,-533.3333333333334,241.06666666666666
1062,46.93333333333333,-531.2,251.73333333333332
1063,64.0,-526.9333333333333,241.06666666666666
1064,74.66666666666667,-524.8,228.26666666666665
1065,70.4,-516.2666666666667,232.53333333333333
1066,74.66666666666667,-522.6666666666666,224.0
1067,76.8,-516.2666666666667,234.66666666666666
1068,74.66666666666667,-522.6666666666666,234.66666666666666
1069,70.4,-524.8,226.13333333333333
1070,70.4,-539.7333333333333,224.0
1071,74.66666666666667,-533.3333333333334,217.6
1072,96.0,-531.2,224.0
1073,81.06666666666666,-524.8,221.86666666666667
1074,102.4,-518.4,219.73333333333332
1075,93.86666666666666,-509.8666666666667,215.46666666666667
1076,102.4,-522.6666666666666,211.2
1077,96.0,-518.4,198.4
1078,108.8,-522.6666666666666,187.73333333333332
1079,100.26666666666667,-503.46666666666664,183.46666666666667
1080,115.2,-512.0,177.06666666666666
1081,110.93333333333334,-509.8666666666667,168.53333333333333
1082,123.73333333333333,-499.2,151.46666666666667
1083,145.06666666666666,-501.3333333333333,138.66666666666666
1084,149.33333333333334,-497.06666666666666,134.4
1085,147.2,-488.5333333333333,130.13333333333333
1086,151.46666666666667,-465.06666666666666,130.13333333333333
1087,164.26666666666665,-450.1333333333333,130.13333333333333
1088,181.33333333333334,-450.1333333333333,140.8
1089,183.46666666666667,-437.3333333333333,142.93333333333334
1090,179.2,-433.06666666666666,140.8
1091,160.0,-422.4,149.33333333333334
1092,168.53333333333333,-407.46666666666664,142.93333333333334
1093,153.6,-407.46666666666664,138.66666666666666
1094,149.33333333333334,-398.93333333333334,155.73333333333332
1095,140.8,-392.5333333333333,157.86666666666667
1096,132.26666666666665,-388.26666666666665,164.26666666666665
1097,128.0,-384.0,174.93333333333334
1098,130.13333333333333,-388.26666666666665,185.6
1099,123.73333333333333,-386.1333333333333,185.6
1100,125.86666666666666,-384.0,202.66666666666666
1101,125.86666666666666,-390.4,234.66666666666666
1102,125.86666666666666,-381.8666666666667,241.06666666666666
1103,130.13333333333333,-398.93333333333334,253.86666666666667
1104,130.13333333333333,-398.93333333333334,264.5333333333333
1105,134.4,-396.8,270.93333333333334
1106,138.66666666666666,-411.73333333333335,273.06666666666666
1107,138.66666666666666,-418.1333333333333,277.3333333333333
1108,142.93333333333334,-418.1333333333333,292.26666666666665
1109,151.46666666666667,-424.5333333333333,288.0
1110,151.46666666666667,-422.4,292.26666666666665
1111,162.13333333333333,-441.59999999999997,298.6666666666667
1112,168.53333333333333,-441.59999999999997,296.5333333333333
1113,168.53333333333333,-426.6666666666667,305.06666666666666
1114,172.8,-422.4,309.3333333333333
1115,181.33333333333334,-418.1333333333333,296.5333333333333
1116,194.13333333333333,-411.73333333333335,294.4
1117,198.4,-409.6,294.4
1118,209.06666666666666,-405.3333333333333,298.6666666666667
1119,224.0,-392.5333333333333,294.4
1120,224.0,-379.73333333333335,307.2
1121,236.79999999999998,-364.8,305.06666666666666
1122,247.46666666666667,-354.1333333333333,307.2
1123,256.0,-330.6666666666667,307.2
1124,256.0,-334.93333333333334,294.4
1125,262.4,-328.5333333333333,294.4
1126,270.93333333333334,-328.5333333333333,285.8666666666667
1127,268.8,-311.46666666666664,288.0
1128,268.8,-305.06666666666666,296.5333333333333
1129,264.5333333333333,-300.8,298.6666666666667
1130,266.6666666666667,-285.8666666666667,298.6666666666667
1131,262.4,-279.46666666666664,307.2
1132,262.4,-277.3333333333333,315.73333333333335
1133,260.26666666666665,-281.6,315.73333333333335
1134,260.26666666666665,-270.93333333333334,324.26666666666665
1135,256.0,-277.3333333333333,326.4
1136,243.2,-275.2,328.5333333333333
1137,238.93333333333334,-288.0,343.46666666666664
1138,221.86666666666667,-292.26666666666665,347.73333333333335
1139,219.73333333333332,-302.93333333333334,352.0
1140,198.4,-315.73333333333335,356.26666666666665
1141,200.53333333333333,-330.6666666666667,362.6666666666667
1142,177.06666666666666,-352.0,371.2
1143,172.8,-369.06666666666666,394.6666666666667
1144,170.66666666666666,-369.06666666666666,396.8
1145,181.33333333333334,-392.5333333333333,407.46666666666664
1146,174.93333333333334,-398.93333333333334,401.06666666666666
1147,177.06666666666666,-403.2,407.46666666666664
1148,170.66666666666666,-401.06666666666666,405.3333333333333
1149,189.86666666666667,-407.46666666666664,403.2
1150,187.73333333333332,-407.46666666666664,401.06666666666666
1151,189.86666666666667,-407.46666666666664,394.6666666666667
1152,185.6,-398.93333333333334,375.46666666666664
1153,183.46666666666667,-396.8,356.26666666666665
1154,177.06666666666666,-390.4,352.0
1155,185.6,-377.6,341.3333333333333
1156,181.33333333333334,-362.6666666666667,322.1333333333333
1157,181.33333333333334,-345.6,330.6666666666667
1158,179.2,-343.46666666666664,313.6
1159,177.06666666666666,-320.0,311.46666666666664
1160,170.66666666666666,-307.2,296.5333333333333
1161,172.8,-296.5333333333333,292.26666666666665
1162,157.86666666666667,-281.6,283.73333333333335
1163,185.6,-283.73333333333335,273.06666666666666
1164,174.93333333333334,-279.46666666666664,268.8
1165,172.8,-281.6,277.3333333333333
1166,179.2,-277.3333333333333,273.06666666666666
1167,172.8,-283.73333333333335,283.73333333333335
1168,164.26666666666665,-311.46666666666664,302.93333333333334
1169,183.46666666666667,-330.6666666666667,307.2
1170,164.26666666666665,-334.93333333333334,324.26666666666665
1171,117.33333333333333,-313.6,334.93333333333334
1172,172.8,-334.93333333333334,309.3333333333333
1173,142.93333333333334,-317.8666666666667,302.93333333333334
1174,147.2,-317.8666666666667,296.5333333333333
1175,160.0,-315.73333333333335,292.26666666666665
1176,113.06666666666666,-288.0,305.06666666666666
1177,177.06666666666666,-315.73333333333335,288.0
1178,183.46666666666667,-307.2,285.8666666666667
1179,151.46666666666667,-292.26666666666665,285.8666666666667
1180,200.53333333333333,-296.5333333333333,290.1333333333333
1181,166.4,-275.2,296.5333333333333
1182,221.86666666666667,-290.1333333333333,288.0
1183,228.26666666666665,-290.1333333333333,296.5333333333333
1184,211.2,-275.2,309.3333333333333
1185,189.86666666666667,-266.6666666666667,309.3333333333333
1186,243.2,-270.93333333333334,298.6666666666667
1187,251.73333333333332,-270.93333333333334,315.73333333333335
1188,234.66666666666666,-262.4,326.4
1189,215.46666666666667,-256.0,322.1333333333333
1190,215.46666666666667,-249.6,322.1333333333333
1191,209.06666666666666,-247.46666666666667,330.6666666666667
1192,209.06666666666666,-247.46666666666667,326.4
1193,206.93333333333334,-243.2,326.4
1194,198.4,-243.2,337.06666666666666
1195,196.26666666666665,-236.79999999999998,337.06666666666666
1196,211.2,-243.2,337.06666666666666
1197,198.4,-232.53333333333333,341.3333333333333
1198,204.8,-247.46666666666667,343.46666666666664
1199,198.4,-249.6,347.73333333333335
1200,204.8,-234.66666666666666,345.6
1201,215.46666666666667,-243.2,334.93333333333334
1202,204.8,-249.6,334.93333333333334
1203,228.26666666666665,-241.06666666666666,330.6666666666667
1204,217.6,-249.6,328.5333333333333
1205,211.2,-256.0,326.4
1206,215.46666666666667,-258.1333333333333,320.0
1207,219.73333333333332,-264.5333333333333,309.3333333333333
1208,215.46666666666667,-260.26666666666665,302.93333333333334
1209,204.8,-253.86666666666667,298.6666666666667
1210,224.0,-266.6666666666667,292.26666666666665
1211,224.0,-264.5333333333333,296.5333333333333
1212,215.46666666666667,-266.6666666666667,294.4
1213,202.66666666666666,-262.4,302.93333333333334
1214,224.0,-273.06666666666666,309.3333333333333
1215,213.33333333333334,-277.3333333333333,313.6
1216,202.66666666666666,-279.46666666666664,332.8
1217,194.13333333333333,-281.6,345.6
1218,200.53333333333333,-285.8666666666667,349.8666666666667
1219,200.53333333333333,-285.8666666666667,366.93333333333334
1220,194.13333333333333,-285.8666666666667,364.8
1221,192.0,-279.46666666666664,364.8
1222,194.13333333333333,-283.73333333333335,369.06666666666666
1223,204.8,-290.1333333333333,364.8
1224,196.26666666666665,-292.26666666666665,369.06666666666666
1225,196.26666666666665,-285.8666666666667,364.8
1226,194.13333333333333,-298.6666666666667,379.73333333333335
1227,192.0,-294.4,373.3333333333333
1228,168.53333333333333,-283.73333333333335,375.46666666666664
1229,185.6,-292.26666666666665,388.26666666666665
1230,183.46666666666667,-292.26666666666665,384.0
1231,179.2,-300.8,386.1333333333333
1232,147.2,-290.1333333333333,401.06666666666666
1233,160.0,-302.93333333333334,392.5333333333333
1234,166.4,-305.06666666666666,381.8666666666667
1235,166.4,-315.73333333333335,381.8666666666667
1236,164.26666666666665,-328.5333333333333,381.8666666666667
1237,153.6,-326.4,377.6
1238,164.26666666666665,-334.93333333333334,375.46666666666664
1239,181.33333333333334,-347.73333333333335,371.2
1240,172.8,-341.3333333333333,358.4
1241,174.93333333333334,-343.46666666666664,379.73333333333335
1242,166.4,-334.93333333333334,375.46666666666664
1243,162.13333333333333,-330.6666666666667,371.2
1244,162.13333333333333,-328.5333333333333,364.8
1245,168.53333333333333,-330.6666666666667,366.93333333333334
1246,151.46666666666667,-320.0,366.93333333333334
1247,151.46666666666667,-317.8666666666667,364.8
1248,136.53333333333333,-307.2,366.93333333333334
1249,134.4,-305.06666666666666,366.93333333333334
1250,138.66666666666666,-294.4,375.46666666666664
1251,115.2,-281.6,371.2
1252,134.4,-292.26666666666665,354.1333333333333
1253,119.46666666666667,-277.3333333333333,347.73333333333335
1254,119.46666666666667,-268.8,343.46666666666664
1255,119.46666666666667,-279.46666666666664,337.06666666666666
1256,102.4,-283.73333333333335,330.6666666666667
1257,106.66666666666667,-281.6,326.4
1258,100.26666666666667,-283.73333333333335,324.26666666666665
1259,110.93333333333334,-290.1333333333333,322.1333333333333
1260,110.93333333333334,-288.0,311.46666666666664
1261,108.8,-300.8,313.6
1262,108.8,-305.06666666666666,307.2
1263,96.0,-305.06666666666666,322.1333333333333
1264,93.86666666666666,-315.73333333333335,326.4
1265,85.33333333333333,-313.6,324.26666666666665
1266,74.66666666666667,-328.5333333333333,332.8
1267,64.0,-337.06666666666666,339.2
1268,68.26666666666667,-334.93333333333334,354.1333333333333
1269,57.6,-337.06666666666666,360.5333333333333
1270,55.46666666666667,-334.93333333333334,366.93333333333334
1271,59.733333333333334,-341.3333333333333,379.73333333333335
1272,61.86666666666667,-345.6,384.0
1273,53.333333333333336,-339.2,377.6
1274,46.93333333333333,-328.5333333333333,388.26666666666665
1275,53.333333333333336,-328.5333333333333,398.93333333333334
1276,55.46666666666667,-334.93333333333334,386.1333333333333
1277,49.06666666666666,-320.0,401.06666666666666
1278,57.6,-311.46666666666664,401.06666666666666
1279,53.333333333333336,-313.6,398.93333333333334
1280,57.6,-307.2,403.2
1281,57.6,-296.5333333333333,403.2
1282,57.6,-285.8666666666667,407.46666666666664
1283,59.733333333333334,-290.1333333333333,401.06666666666666
1284,57.6,-279.46666666666664,396.8
1285,51.2,-290.1333333333333,386.1333333333333
1286,55.46666666666667,-275.2,375.46666666666664
1287,64.0,-273.06666666666666,362.6666666666667
1288,72.53333333333333,-260.26666666666665,356.26666666666665
1289,85.33333333333333,-249.6,349.8666666666667
1290,96.0,-238.93333333333334,356.26666666666665
1291,108.8,-236.79999999999998,364.8
1292,110.93333333333334,-232.53333333333333,377.6
1293,110.93333333333334,-226.13333333333333,379.73333333333335
1294,106.66666666666667,-238.93333333333334,388.26666666666665
1295,113.06666666666666,-230.4,401.06666666666666
1296,121.6,-234.66666666666666,416.0
1297,125.86666666666666,-236.79999999999998,416.0
1298,128.0,-247.46666666666667,435.2
1299,119.46666666666667,-249.6,428.8
1300,117.33333333333333,-256.0,430.93333333333334
1301,102.4,-262.4,424.5333333333333
1302,93.86666666666666,-268.8,416.0
1303,89.6,-266.6666666666667,407.46666666666664
1304,91.73333333333333,-262.4,388.26666666666665
1305,91.73333333333333,-258.1333333333333,377.6
1306,98.13333333333333,-247.46666666666667,360.5333333333333
1307,108.8,-236.79999999999998,339.2
1308,106.66666666666667,-234.66666666666666,339.2
1309,115.2,-221.86666666666667,352.0
1310,113.06666666666666,-209.06666666666666,343.46666666666664
1311,117.33333333333333,-206.93333333333334,347.73333333333335
1312,117.33333333333333,-189.86666666666667,347.73333333333335
1313,115.2,-192.0,369.06666666666666
1314,108.8,-187.73333333333332,377.6
1315,108.8,-183.46666666666667,392.5333333333333
1316,100.26666666666667,-198.4,392.5333333333333
1317,98.13333333333333,-196.26666666666665,409.6
1318,100.26666666666667,-204.8,428.8
1319,83.2,-206.93333333333334,437.3333333333333
1320,83.2,-209.06666666666666,443.73333333333335
1321,81.06666666666666,-215.46666666666667,454.4
1322,78.93333333333334,-221.86666666666667,469.3333333333333
1323,83.2,-221.86666666666667,467.2
1324,76.8,-219.73333333333332,456.5333333333333
1325,89.6,-226.13333333333333,454.4
1326,93.86666666666666,-230.4,452.26666666666665
1327,89.6,-232.53333333333333,437.3333333333333
1328,91.73333333333333,-230.4,437.3333333333333
1329,93.86666666666666,-238.93333333333334,426.6666666666667
1330,93.86666666666666,-224.0,433.06666666666666
1331,91.73333333333333,-228.26666666666665,413.8666666666667
1332,102.4,-232.53333333333333,413.8666666666667
1333,104.53333333333333,-232.53333333333333,405.3333333333333
1334,115.2,-224.0,403.2
1335,123.73333333333333,-219.73333333333332,396.8
1336,125.86666666666666,-217.6,394.6666666666667
1337,130.13333333333333,-206.93333333333334,396.8
1338,136.53333333333333,-215.46666666666667,394.6666666666667
1339,140.8,-215.46666666666667,384.0
1340,136.53333333333333,-206.93333333333334,394.6666666666667
1341,145.06666666666666,-198.4,392.5333333333333
1342,145.06666666666666,-204.8,381.8666666666667
1343,140.8,-202.66666666666666,379.73333333333335
1344,142.93333333333334,-198.4,384.0
1345,134.4,-196.26666666666665,366.93333333333334
1346,132.26666666666665,-194.13333333333333,373.3333333333333
1347,132.26666666666665,-196.26666666666665,366.93333333333334
1348,130.13333333333333,-200.53333333333333,358.4
1349,123.73333333333333,-187.73333333333332,366.93333333333334
1350,123.73333333333333,-202.66666666666666,358.4
1351,123.73333333333333,-200.53333333333333,375.46666666666664
1352,119.46666666666667,-211.2,373.3333333333333
1353,123.73333333333333,-215.46666666666667,375.46666666666664
1354,128.0,-230.4,379.73333333333335
1355,125.86666666666666,-226.13333333333333,390.4
1356,125.86666666666666,-230.4,398.93333333333334
1357,128.0,-238.93333333333334,396.8
1358,128.0,-236.79999999999998,405.3333333333333
1359,140.8,-241.06666666666666,405.3333333333333
1360,142.93333333333334,-247.46666666666667,407.46666666666664
1361,138.66666666666666,-245.33333333333334,407.46666666666664
1362,145.06666666666666,-243.2,413.8666666666667
1363,142.93333333333334,-249.6,401.06666666666666
1364,142.93333333333334,-238.93333333333334,409.6
1365,138.66666666666666,-241.06666666666666,403.2
1366,136.53333333333333,-238.93333333333334,403.2
1367,138.66666666666666,-238.93333333333334,407.46666666666664
1368,130.13333333333333,-232.53333333333333,401.06666666666666
1369,132.26666666666665,-238.93333333333334,403.2
1370,121.6,-226.13333333333333,398.93333333333334
1371,123.73333333333333,-230.4,398.93333333333334
1372,115.2,-232.53333333333333,396.8
1373,108.8,-224.0,401.06666666666666
1374,96.0,-241.06666666666666,401.06666666666666
1375,104.53333333333333,-224.0,398.93333333333334
1376,106.66666666666667,-226.13333333333333,407.46666666666664
1377,104.53333333333333,-230.4,407.46666666666664
1378,104.53333333333333,-228.26666666666665,403.2
1379,104.53333333333333,-226.13333333333333,405.3333333333333
1380,104.53333333333333,-234.66666666666666,401.06666666666666
1381,100.26666666666667,-221.86666666666667,405.3333333333333
1382,104.53333333333333,-219.73333333333332,407.46666666666664
1383,108.8,-228.26666666666665,405.3333333333333
1384,115.2,-232.53333333333333,416.0
1385,106.66666666666667,-217.6,398.93333333333334
1386,108.8,-215.46666666666667,396.8
1387,119.46666666666667,-215.46666666666667,403.2
1388,121.6,-215.46666666666667,396.8
1389,125.86666666666666,-211.2,401.06666666666666
1390,132.26666666666665,-204.8,403.2
1391,130.13333333333333,-206.93333333333334,405.3333333333333
1392,136.53333333333333,-209.06666666666666,401.06666666666666
1393,134.4,-213.33333333333334,403.2
1394,136.53333333333333,-215.46666666666667,407.46666666666664
1395,134.4,-219.73333333333332,424.5333333333333
1396,138.66666666666666,-228.26666666666665,409.6
1397,132.26666666666665,-224.0,416.0
1398,136.53333333333333,-234.66666666666666,413.8666666666667
1399,138.66666666666666,-230.4,413.8666666666667
1400,138.66666666666666,-228.26666666666665,409.6
1401,140.8,-230.4,409.6
1402,138.66666666666666,-228.26666666666665,411.73333333333335
1403,132.26666666666665,-224.0,405.3333333333333
1404,128.0,-221.86666666666667,401.06666666666666
1405,130.13333333333333,-228.26666666666665,405.3333333333333
1406,125.86666666666666,-213.33333333333334,405.3333333333333
1407,134.4,-194.13333333333333,405.3333333333333
1408,125.86666666666666,-206.93333333333334,388.26666666666665
1409,128.0,-204.8,405.3333333333333
1410,121.6,-198.4,401.06666666666666
1411,113.06666666666666,-189.86666666666667,403.2
1412,115.2,-179.2,407.46666666666664
1413,113.06666666666666,-174.93333333333334,405.3333333333333
1414,117.33333333333333,-170.66666666666666,403.2
1415,117.33333333333333,-170.66666666666666,411.73333333333335
1416,115.2,-172.8,405.3333333333333
1417,108.8,-164.26666666666665,420.26666666666665
1418,106.66666666666667,-168.53333333333333,409.6
1419,117.33333333333333,-172.8,407.46666666666664
1420,121.6,-181.33333333333334,405.3333333333333
1421,110.93333333333334,-177.06666666666666,403.2
1422,123.73333333333333,-189.86666666666667,407.46666666666664
1423,123.73333333333333,-187.73333333333332,407.46666666666664
1424,121.6,-194.13333333333333,407.46666666666664
1425,132.26666666666665,-202.66666666666666,413.8666666666667
1426,117.33333333333333,-204.8,413.8666666666667
1427,121.6,-215.46666666666667,405.3333333333333
1428,128.0,-211.2,420.26666666666665
1429,123.73333333333333,-217.6,409.6
1430,123.73333333333333,-224.0,416.0
1431,123.73333333333333,-219.73333333333332,407.46666666666664
1432,121.6,-219.73333333333332,409.6
1433,121.6,-219.73333333333332,416.0
1434,123.73333333333333,-213.33333333333334,409.6
1435,128.0,-213.33333333333334,409.6
1436,125.86666666666666,-215.46666666666667,405.3333333333333
1437,123.73333333333333,-215.46666666666667,420.26666666666665
1438,115.2,-209.06666666666666,411.73333333333335
1439,121.6,-217.6,433.06666666666666
1440,125.86666666666666,-206.93333333333334,418.1333333333333
1441,115.2,-198.4,422.4
1442,119.46666666666667,-206.93333333333334,422.4
1443,115.2,-200.53333333333333,413.8666666666667
1444,108.8,-200.53333333333333,411.73333333333335
1445,110.93333333333334,-198.4,407.46666666666664
1446,106.66666666666667,-196.26666666666665,413.8666666666667
1447,100.26666666666667,-194.13333333333333,411.73333333333335
1448,106.66666666666667,-189.86666666666667,413.8666666666667
1449,106.66666666666667,-198.4,416.0
1450,106.66666666666667,-194.13333333333333,407.46666666666664
1451,100.26666666666667,-202.66666666666666,403.2
1452,108.8,-202.66666666666666,411.73333333333335
1453,115.2,-204.8,409.6
1454,121.6,-209.06666666666666,409.6
1455,113.06666666666666,-211.2,401.06666666666666
1456,108.8,-211.2,411.73333333333335
1457,119.46666666666667,-213.33333333333334,396.8
1458,119.46666666666667,-206.93333333333334,401.06666666666666
1459,119.46666666666667,-206.93333333333334,405.3333333333333
1460,119.46666666666667,-213.33333333333334,403.2
1461,123.73333333333333,-215.46666666666667,396.8
1462,119.46666666666667,-209.06666666666666,407.46666666666664
1463,125.86666666666666,-215.46666666666667,407.46666666666664
1464,121.6,-211.2,405.3333333333333
1465,125.86666666666666,-209.06666666666666,405.3333333333333
1466,123.73333333333333,-206.93333333333334,407.46666666666664
1467,123.73333333333333,-206.93333333333334,405.3333333333333
1468,125.86666666666666,-206.93333333333334,409.6
1469,123.73333333333333,-213.33333333333334,409.6
1470,136.53333333333333,-211.2,411.73333333333335
1471,125.86666666666666,-209.06666666666666,403.2
1472,128.0,-209.06666666666666,413.8666666666667
1473,128.0,-211.2,407.46666666666664
1474,125.86666666666666,-211.2,409.6
1475,125.86666666666666,-204.8,409.6
1476,132.26666666666665,-204.8,403.2
1477,134.4,-206.93333333333334,407.46666666666664
1478,125.86666666666666,-204.8,409.6
1479,128.0,-206.93333333333334,403.2
1480,134.4,-206.93333333333334,409.6
1481,119.46666666666667,-206.93333333333334,411.73333333333335
1482,134.4,-204.8,435.2
1483,128.0,-209.06666666666666,403.2
1484,132.26666666666665,-202.66666666666666,409.6
1485,132.26666666666665,-206.93333333333334,407.46666666666664
1486,136.53333333333333,-198.4,413.8666666666667
1487,140.8,-202.66666666666666,411.73333333333335
1488,138.66666666666666,-202.66666666666666,409.6
1489,140.8,-198.4,403.2
1490,138.66666666666666,-198.4,409.6
1491,140.8,-198.4,405.3333333333333
1492,138.66666666666666,-192.0,403.2
1493,140.8,-189.86666666666667,407.46666666666664
1494,140.8,-204.8,411.73333333333335
1495,140.8,-194.13333333333333,407.46666666666664
1496,140.8,-189.86666666666667,411.73333333333335
1497,136.53333333333333,-187.73333333333332,407.46666666666664
1498,138.66666666666666,-192.0,409.6
1499,134.4,-185.6,411.73333333333335
1500,136.53333333333333,-192.0,413.8666666666667
1501,134.4,-181.33333333333334,407.46666666666664
1502,130.13333333333333,-177.06666666666666,418.1333333333333
1503,128.0,-174.93333333333334,411.73333333333335
1504,128.0,-174.93333333333334,409.6
1505,130.13333333333333,-174.93333333333334,398.93333333333334
1506,123.73333333333333,-174.93333333333334,409.6
1507,132.26666666666665,-168.53333333333333,420.26666666666665
1508,130.13333333333333,-174.93333333333334,409.6
1509,130.13333333333333,-168.53333333333333,409.6
1510,130.13333333333333,-174.93333333333334,409.6
1511,130.13333333333333,-183.46666666666667,413.8666666666667
1512,121.6,-177.06666666666666,416.0
1513,132.26666666666665,-185.6,418.1333333333333
1514,117.33333333333333,-185.6,407.46666666666664
1515,130.13333333333333,-189.86666666666667,409.6
1516,115.2,-187.73333333333332,407.46666666666664
1517,121.6,-189.86666666666667,407.46666666666664
1518,125.86666666666666,-187.73333333333332,411.73333333333335
1519,130.13333333333333,-194.13333333333333,407.46666666666664
1520,128.0,-187.73333333333332,411.73333333333335
1521,132.26666666666665,-185.6,416.0
1522,130.13333333333333,-187.73333333333332,416.0
1523,128.0,-196.26666666666665,413.8666666666667
1524,130.13333333333333,-194.13333333333333,407.46666666666664
1525,130.13333333333333,-198.4,413.8666666666667
1526,125.86666666666666,-189.86666666666667,411.73333333333335
1527,130.13333333333333,-200.53333333333333,407.46666666666664
1528,128.0,-198.4,409.6
1529,125.86666666666666,-196.26666666666665,411.73333333333335
1530,128.0,-194.13333333333333,409.6
1531,134.4,-200.53333333333333,411.73333333333335
1532,123.73333333333333,-187.73333333333332,411.73333333333335
1533,130.13333333333333,-192.0,413.8666666666667
1534,130.13333333333333,-187.73333333333332,409.6
1535,132.26666666666665,-189.86666666666667,416.0
1536,128.0,-187.73333333333332,409.6
1537,125.86666666666666,-183.46666666666667,409.6
1538,123.73333333333333,-181.33333333333334,420.26666666666665
1539,125.86666666666666,-183.46666666666667,411.73333333333335
1540,128.0,-185.6,413.8666666666667
1541,130.13333333333333,-189.86666666666667,411.73333333333335
1542,125.86666666666666,-189.86666666666667,411.73333333333335
1543,128.0,-189.86666666666667,409.6
1544,128.0,-187.73333333333332,409.6
1545,119.46666666666667,-183.46666666666667,409.6
1546,125.86666666666666,-192.0,409.6
1547,132.26666666666665,-189.86666666666667,411.73333333333335
1548,119.46666666666667,-192.0,394.6666666666667
1549,132.26666666666665,-196.26666666666665,407.46666666666664
1550,128.0,-198.4,411.73333333333335
1551,121.6,-192.0,409.6
1552,123.73333333333333,-192.0,411.73333333333335
1553,125.86666666666666,-192.0,407.46666666666664
1554,123.73333333333333,-194.13333333333333,407.46666666666664
1555,123.73333333333333,-204.8,403.2
1556,119.46666666666667,-189.86666666666667,407.46666666666664
1557,125.86666666666666,-194.13333333333333,409.6
1558,128.0,-198.4,409.6
1559,113.06666666666666,-192.0,409.6
1560,130.13333333333333,-194.13333333333333,405.3333333333333
1561,128.0,-196.26666666666665,418.1333333333333
1562,130.13333333333333,-192.0,409.6
1563,125.86666666666666,-192.0,416.0
1564,132.26666666666665,-192.0,411.73333333333335
1565,130.13333333333333,-196.26666666666665,416.0
1566,132.26666666666665,-200.53333333333333,416.0
1567,130.13333333333333,-189.86666666666667,413.8666666666667
1568,130.13333333333333,-194.13333333333333,409.6
1569,128.0,-185.6,409.6
1570,130.13333333333333,-206.93333333333334,411.73333333333335
1571,132.26666666666665,-194.13333333333333,409.6
1572,132.26666666666665,-189.86666666666667,407.46666666666664
1573,130.13333333333333,-196.26666666666665,407.46666666666664
1574,130.13333333333333,-189.86666666666667,405.3333333333333
1575,130.13333333333333,-185.6,413.8666666666667
1576,134.4,-189.86666666666667,409.6
1577,128.0,-185.6,407.46666666666664
1578,132.26666666666665,-183.46666666666667,409.6
1579,136.53333333333333,-185.6,413.8666666666667
1580,128.0,-172.8,416.0
1581,134.4,-187.73333333333332,409.6
1582,130.13333333333333,-187.73333333333332,413.8666666666667
1583,125.86666666666666,-189.86666666666667,411.73333333333335
1584,132.26666666666665,-187.73333333333332,409.6
1585,134.4,-189.86666666666667,416.0
1586,132.26666666666665,-187.73333333333332,407.46666666666664
1587,132.26666666666665,-187.73333333333332,416.0
1588,128.0,-185.6,420.26666666666665
1589,128.0,-187.73333333333332,418.1333333333333
1590,134.4,-189.86666666666667,407.46666666666664
1591,128.0,-192.0,409.6
1592,140.8,-192.0,394.6666666666667
1593,132.26666666666665,-194.13333333333333,411.73333333333335
1594,136.53333333333333,-192.0,407.46666666666664
1595,136.53333333333333,-194.13333333333333,405.3333333333333
1596,132.26666666666665,-192.0,407.46666666666664
1597,134.4,-194.13333333333333,407.46666666666664
1598,136.53333333333333,-189.86666666666667,411.73333333333335
1599,136.53333333333333,-189.86666666666667,405.3333333333333
1600,134.4,-185.6,407.46666666666664
1601,140.8,-194.13333333333333,405.3333333333333
1602,134.4,-185.6,392.5333333333333
1603,134.4,-202.66666666666666,407.46666666666664
1604,132.26666666666665,-187.73333333333332,403.2
1605,136.53333333333333,-187.73333333333332,407.46666666666664
1606,138.66666666666666,-189.86666666666667,407.46666666666664
1607,138.66666666666666,-183.46666666666667,405.3333333333333
1608,134.4,-183.46666666666667,409.6
1609,138.66666666666666,-185.6,409.6
1610,136.53333333333333,-183.46666666666667,409.6
1611,136.53333333333333,-183.46666666666667,403.2
1612,136.53333333333333,-183.46666666666667,411.73333333333335
1613,136.53333333333333,-194.13333333333333,409.6
1614,130.13333333333333,-177.06666666666666,422.4
1615,136.53333333333333,-187.73333333333332,418.1333333333333
1616,136.53333333333333,-187.73333333333332,416.0
1617,138.66666666666666,-187.73333333333332,418.1333333333333
1618,136.53333333333333,-187.73333333333332,409.6
1619,136.53333333333333,-187.73333333333332,413.8666666666667
1620,142.93333333333334,-189.86666666666667,418.1333333333333
1621,136.53333333333333,-192.0,426.6666666666667
1622,136.53333333333333,-187.73333333333332,409.6
1623,145.06666666666666,-183.46666666666667,411.73333333333335
1624,136.53333333333333,-189.86666666666667,411.73333333333335
1625,136.53333333333333,-189.86666666666667,422.4
1626,132.26666666666665,-187.73333333333332,413.8666666666667
1627,134.4,-189.86666666666667,413.8666666666667
1628,134.4,-192.0,411.73333333333335
1629,134.4,-194.13333333333333,409.6
1630,132.26666666666665,-192.0,409.6
1631,125.86666666666666,-192.0,407.46666666666664
1632,130.13333333333333,-194.13333333333333,407.46666666666664
1633,125.86666666666666,-185.6,411.73333333333335
1634,132.26666666666665,-192.0,409.6
1635,125.86666666666666,-179.2,407.46666666666664
1636,132.26666666666665,-187.73333333333332,405.3333333333333
1637,130.13333333333333,-189.86666666666667,407.46666666666664
1638,136.53333333333333,-189.86666666666667,407.46666666666664
1639,128.0,-183.46666666666667,413.8666666666667
1640,130.13333333333333,-185.6,409.6
1641,134.4,-187.73333333333332,418.1333333333333
1642,130.13333333333333,-181.33333333333334,411.73333333333335
1643,123.73333333333333,-187.73333333333332,413.8666666666667
1644,128.0,-183.46666666666667,411.73333333333335
1645,130.13333333333333,-185.6,405.3333333333333
1646,136.53333333333333,-194.13333333333333,403.2
1647,128.0,-189.86666666666667,411.73333333333335
1648,132.26666666666665,-187.73333333333332,411.73333333333335
1649,134.4,-196.26666666666665,411.73333333333335
1650,132.26666666666665,-189.86666666666667,413.8666666666667
1651,132.26666666666665,-194.13333333333333,420.26666666666665
1652,125.86666666666666,-189.86666666666667,416.0
1653,132.26666666666665,-189.86666666666667,422.4
1654,132.26666666666665,-192.0,418.1333333333333
1655,128.0,-192.0,409.6
1656,128.0,-189.86666666666667,411.73333333333335
1657,130.13333333333333,-192.0,416.0
1658,128.0,-185.6,413.8666666666667
1659,132.26666666666665,-189.86666666666667,409.6
1660,132.26666666666665,-187.73333333333332,411.73333333333335
1661,128.0,-185.6,411.73333333333335
1662,132.26666666666665,-194.13333333333333,405.3333333333333
1663,125.86666666666666,-189.86666666666667,416.0
1664,123.73333333333333,-185.6,409.6
1665,128.0,-185.6,416.0
1666,125.86666666666666,-181.33333333333334,413.8666666666667
1667,125.86666666666666,-187.73333333333332,413.8666666666667
1668,132.26666666666665,-183.46666666666667,420.26666666666665
1669,132.26666666666665,-187.73333333333332,411.73333333333335
1670,132.26666666666665,-183.46666666666667,409.6
1671,132.26666666666665,-187.73333333333332,413.8666666666667
1672,125.86666666666666,-183.46666666666667,409.6
1673,130.13333333333333,-179.2,407.46666666666664
1674,130.13333333333333,-185.6,411.73333333333335
1675,128.0,-187.73333333333332,407.46666666666664
1676,128.0,-185.6,411.73333333333335
1677,134.4,-187.73333333333332,411.73333333333335
1678,136.53333333333333,-179.2,401.06666666666666
1679,134.4,-187.73333333333332,416.0
1680,136.53333333333333,-187.73333333333332,409.6
1681,136.53333333333333,-187.73333333333332,407.46666666666664
1682,134.4,-187.73333333333332,409.6
1683,136.53333333333333,-187.73333333333332,411.73333333333335
1684,134.4,-192.0,411.73333333333335
1685,138.66666666666666,-194.13333333333333,407.46666666666664
1686,136.53333333333333,-189.86666666666667,398.93333333333334
1687,136.53333333333333,-185.6,416.0
1688,136.53333333333333,-194.13333333333333,411.73333333333335
1689,136.53333333333333,-189.86666666666667,409.6
1690,138.66666666666666,-187.73333333333332,424.5333333333333
1691,134.4,-194.13333333333333,418.1333333333333
1692,138.66666666666666,-189.86666666666667,411.73333333333335
1693,132.26666666666665,-196.26666666666665,420.26666666666665
1694,134.4,-196.26666666666665,413.8666666666667
1695,130.13333333333333,-194.13333333333333,411.73333333333335
1696,132.26666666666665,-196.26666666666665,411.73333333333335
1697,130.13333333333333,-194.13333333333333,405.3333333333333
1698,132.26666666666665,-185.6,405.3333333333333
1699,130.13333333333333,-192.0,418.1333333333333
1700,128.0,-187.73333333333332,411.73333333333335
1701,140.8,-196.26666666666665,420.26666666666665
1702,130.13333333333333,-198.4,407.46666666666664
1703,132.26666666666665,-200.53333333333333,409.6
1704,132.26666666666665,-196.26666666666665,409.6
1705,132.26666666666665,-200.53333333333333,411.73333333333335
1706,132.26666666666665,-202.66666666666666,409.6
1707,134.4,-196.26666666666665,411.73333333333335
1708,132.26666666666665,-194.13333333333333,409.6
1709,125.86666666666666,-187.73333333333332,407.46666666666664
1710,134.4,-189.86666666666667,407.46666666666664
1711,125.86666666666666,-189.86666666666667,409.6
1712,134.4,-196.26666666666665,418.1333333333333
1713,130.13333333333333,-194.13333333333333,405.3333333333333
1714,134.4,-185.6,409.6
1715,132.26666666666665,-187.73333333333332,407.46666666666664
1716,130.13333333333333,-192.0,409.6
1717,134.4,-196.26666666666665,411.73333333333335
1718,134.4,-189.86666666666667,416.0
1719,134.4,-189.86666666666667,411.73333333333335
1720,132.26666666666665,-196.26666666666665,418.1333333333333
1721,130.13333333333333,-194.13333333333333,418.1333333333333
1722,128.0,-196.26666666666665,411.73333333333335
1723,130.13333333333333,-187.73333333333332,411.73333333333335
1724,132.26666666666665,-200.53333333333333,416.0
1725,130.13333333333333,-200.53333333333333,403.2
1726,132.26666666666665,-200.53333333333333,405.3333333333333
1727,134.4,-198.4,409.6
1728,130.13333333333333,-194.13333333333333,409.6
1729,132.26666666666665,-194.13333333333333,407.46666666666664
1730,136.53333333333333,-200.53333333333333,409.6
1731,134.4,-206.93333333333334,407.46666666666664
1732,134.4,-196.26666666666665,411.73333333333335
1733,128.0,-200.53333333333333,418.1333333333333
1734,134.4,-194.13333333333333,405.3333333333333
1735,128.0,-187.73333333333332,409.6
1736,132.26666666666665,-185.6,409.6
1737,134.4,-187.73333333333332,409.6
1738,132.26666666666665,-187.73333333333332,407.46666666666664
1739,134.4,-181.33333333333334,413.8666666666667
1740,136.53333333333333,-187.73333333333332,413.8666666666667
1741,132.26666666666665,-187.73333333333332,398.93333333333334
1742,132.26666666666665,-187.73333333333332,418.1333333333333
1743,130.13333333333333,-189.86666666666667,416.0
1744,132.26666666666665,-194.13333333333333,424.5333333333333
1745,132.26666666666665,-194.13333333333333,409.6
1746,136.53333333333333,-196.26666666666665,416.0
1747,130.13333333333333,-204.8,413.8666666666667
1748,128.0,-196.26666666666665,413.8666666666667
1749,134.4,-196.26666666666665,411.73333333333335
1750,132.26666666666665,-194.13333333333333,407.46666666666664
1751,134.4,-196.26666666666665,405.3333333333333
1752,134.4,-187.73333333333332,409.6
1753,138.66666666666666,-198.4,409.6
1754,138.66666666666666,-194.13333333333333,409.6
1755,138.66666666666666,-192.0,411.73333333333335
1756,134.4,-194.13333333333333,411.73333333333335
1757,138.66666666666666,-196.26666666666665,409.6
1758,132.26666666666665,-196.26666666666665,409.6
1759,134.4,-194.13333333333333,411.73333333333335
1760,136.53333333333333,-192.0,411.73333333333335
1761,132.26666666666665,-183.46666666666667,409.6
1762,134.4,-192.0,407.46666666666664
1763,130.13333333333333,-189.86666666666667,398.93333333333334
1764,130.13333333333333,-177.06666666666666,411.73333333333335
1765,128.0,-185.6,409.6
1766,132.26666666666665,-189.86666666666667,403.2
1767,132.26666666666665,-183.46666666666667,409.6
1768,125.86666666666666,-187.73333333333332,413.8666666666667
1769,132.26666666666665,-187.73333333333332,409.6
1770,128.0,-179.2,409.6
1771,128.0,-189.86666666666667,416.0
1772,130.13333333333333,-187.73333333333332,418.1333333333333
1773,128.0,-183.46666666666667,409.6
1774,138.66666666666666,-196.26666666666665,409.6
1775,125.86666666666666,-196.26666666666665,418.1333333333333
1776,134.4,-200.53333333333333,413.8666666666667
1777,130.13333333333333,-179.2,411.73333333333335
1778,132.26666666666665,-196.26666666666665,411.73333333333335
1779,134.4,-187.73333333333332,413.8666666666667
1780,132.26666666666665,-194.13333333333333,409.6
1781,130.13333333333333,-189.86666666666667,411.73333333333335
1782,132.26666666666665,-183.46666666666667,407.46666666666664
1783,128.0,-189.86666666666667,413.8666666666667
1784,134.4,-187.73333333333332,407.46666666666664
1785,132.26666666666665,-187.73333333333332,418.1333333333333
1786,128.0,-189.86666666666667,411.73333333333335
1787,125.86666666666666,-183.46666666666667,409.6
1788,142.93333333333334,-177.06666666666666,420.26666666666665
1789,130.13333333333333,-183.46666666666667,411.73333333333335
1790,130.13333333333333,-177.06666666666666,409.6
1791,134.4,-177.06666666666666,407.46666666666664
1792,134.4,-183.46666666666667,409.6
1793,134.4,-181.33333333333334,416.0
1794,134.4,-185.6,405.3333333333333
1795,128.0,-177.06666666666666,416.0
1796,128.0,-194.13333333333333,403.2
1797,132.26666666666665,-189.86666666666667,420.26666666666665
1798,134.4,-189.86666666666667,411.73333333333335
1799,132.26666666666665,-200.53333333333333,407.46666666666664
1800,134.4,-187.73333333333332,407.46666666666664
1801,138.66666666666666,-189.86666666666667,416.0
1802,136.53333333333333,-189.86666666666667,411.73333333333335
1803,134.4,-185.6,413.8666666666667
1804,136.53333333333333,-185.6,409.6
1805,136.53333333333333,-189.86666666666667,416.0
1806,132.26666666666665,-185.6,413.8666666666667
1807,128.0,-183.46666666666667,409.6
1808,132.26666666666665,-189.86666666666667,420.26666666666665
1809,136.53333333333333,-192.0,411.73333333333335
1810,138.66666666666666,-187.73333333333332,409.6
1811,132.26666666666665,-185.6,413.8666666666667
1812,136.53333333333333,-189.86666666666667,416.0
1813,134.4,-181.33333333333334,411.73333333333335
1814,134.4,-189.86666666666667,416.0
1815,123.73333333333333,-185.6,416.0
1816,128.0,-185.6,416.0
1817,130.13333333333333,-187.73333333333332,420.26666666666665
1818,128.0,-187.73333333333332,401.06666666666666
1819,128.0,-185.6,411.73333333333335
1820,125.86666666666666,-192.0,401.06666666666666
1821,132.26666666666665,-196.26666666666665,441.59999999999997
1822,130.13333333333333,-192.0,411.73333333333335
1823,130.13333333333333,-192.0,413.8666666666667
1824,121.6,-194.13333333333333,411.73333333333335
1825,128.0,-187.73333333333332,407.46666666666664
1826,125.86666666666666,-187.73333333333332,407.46666666666664
1827,130.13333333333333,-181.33333333333334,407.46666666666664
1828,132.26666666666665,-189.86666666666667,407.46666666666664
1829,132.26666666666665,-187.73333333333332,407.46666666666664
1830,130.13333333333333,-185.6,403.2
1831,130.13333333333333,-192.0,405.3333333333333
1832,132.26666666666665,-189.86666666666667,409.6
1833,132.26666666666665,-192.0,409.6
1834,132.26666666666665,-189.86666666666667,416.0
1835,132.26666666666665,-194.13333333333333,413.8666666666667
1836,128.0,-189.86666666666667,411.73333333333335
1837,134.4,-192.0,411.73333333333335
1838,132.26666666666665,-187.73333333333332,418.1333333333333
1839,130.13333333333333,-179.2,407.46666666666664
1840,136.53333333333333,-187.73333333333332,416.0
1841,134.4,-181.33333333333334,407.46666666666664
1842,130.13333333333333,-168.53333333333333,405.3333333333333
1843,128.0,-177.06666666666666,407.46666666666664
1844,136.53333333333333,-189.86666666666667,409.6
1845,134.4,-181.33333333333334,411.73333333333335
1846,134.4,-187.73333333333332,411.73333333333335
1847,134.4,-183.46666666666667,409.6
1848,138.66666666666666,-185.6,409.6
1849,136.53333333333333,-189.86666666666667,411.73333333333335
1850,138.66666666666666,-183.46666666666667,409.6
1851,134.4,-181.33333333333334,405.3333333333333
1852,132.26666666666665,-183.46666666666667,407.46666666666664
1853,140.8,-192.0,420.26666666666665
1854,136.53333333333333,-183.46666666666667,409.6
1855,130.13333333333333,-181.33333333333334,405.3333333333333
1856,138.66666666666666,-192.0,413.8666666666667
1857,136.53333333333333,-185.6,411.73333333333335
1858,136.53333333333333,-187.73333333333332,411.73333333333335
1859,136.53333333333333,-189.86666666666667,411.73333333333335
1860,140.8,-194.13333333333333,411.73333333333335
1861,132.26666666666665,-196.26666666666665,409.6
1862,138.66666666666666,-200.53333333333333,409.6
1863,132.26666666666665,-200.53333333333333,424.5333333333333
1864,136.53333333333333,-187.73333333333332,403.2
1865,134.4,-198.4,411.73333333333335
1866,132.26666666666665,-192.0,409.6
1867,132.26666666666665,-200.53333333333333,413.8666666666667
1868,132.26666666666665,-198.4,409.6
1869,132.26666666666665,-198.4,407.46666666666664
1870,134.4,-196.26666666666665,407.46666666666664
1871,134.4,-194.13333333333333,411.73333333333335
1872,134.4,-194.13333333333333,407.46666666666664
1873,138.66666666666666,-198.4,411.73333333333335
1874,140.8,-196.26666666666665,413.8666666666667
1875,134.4,-192.0,407.46666666666664
1876,134.4,-194.13333333333333,405.3333333333333
1877,136.53333333333333,-192.0,409.6
1878,136.53333333333333,-194.13333333333333,407.46666666666664
1879,134.4,-192.0,407.46666666666664
1880,132.26666666666665,-189.86666666666667,411.73333333333335
1881,136.53333333333333,-192.0,413.8666666666667
1882,134.4,-189.86666666666667,418.1333333333333
1883,132.26666666666665,-183.46666666666667,420.26666666666665
1884,130.13333333333333,-183.46666666666667,411.73333333333335
1885,134.4,-185.6,413.8666666666667
1886,128.0,-187.73333333333332,409.6
1887,123.73333333333333,-181.33333333333334,409.6
1888,130.13333333333333,-185.6,411.73333333333335
1889,125.86666666666666,-185.6,409.6
1890,128.0,-189.86666666666667,411.73333333333335
1891,123.73333333333333,-187.73333333333332,416.0
1892,125.86666666666666,-187.73333333333332,416.0
1893,128.0,-185.6,413.8666666666667
1894,128.0,-189.86666666666667,403.2
1895,128.0,-185.6,411.73333333333335
1896,128.0,-187.73333333333332,413.8666666666667
1897,130.13333333333333,-189.86666666666667,418.1333333333333
1898,130.13333333333333,-187.73333333333332,411.73333333333335
1899,128.0,-192.0,403.2
1900,130.13333333333333,-194.13333333333333,413.8666666666667
1901,132.26666666666665,-202.66666666666666,411.73333333333335
1902,130.13333333333333,-198.4,407.46666666666664
1903,134.4,-200.53333333333333,407.46666666666664
1904,130.13333333333333,-200.53333333333333,405.3333333333333
1905,125.86666666666666,-196.26666666666665,409.6
1906,130.13333333333333,-196.26666666666665,409.6
1907,119.46666666666667,-192.0,403.2
1908,132.26666666666665,-200.53333333333333,405.3333333333333
1909,132.26666666666665,-198.4,413.8666666666667
1910,130.13333333333333,-196.26666666666665,407.46666666666664
1911,125.86666666666666,-194.13333333333333,411.73333333333335
1912,132.26666666666665,-202.66666666666666,413.8666666666667
1913,130.13333333333333,-196.26666666666665,405.3333333333333
1914,125.86666666666666,-196.26666666666665,418.1333333333333
1915,123.73333333333333,-194.13333333333333,409.6
1916,130.13333333333333,-200.53333333333333,409.6
1917,132.26666666666665,-196.26666666666665,416.0
1918,136.53333333333333,-202.66666666666666,411.73333333333335
1919,136.53333333333333,-202.66666666666666,411.73333333333335
1920,134.4,-196.26666666666665,403.2
1921,132.26666666666665,-194.13333333333333,409.6
1922,125.86666666666666,-192.0,407.46666666666664
1923,134.4,-198.4,411.73333333333335
1924,136.53333333333333,-200.53333333333333,403.2
1925,130.13333333333333,-189.86666666666667,411.73333333333335
1926,136.53333333333333,-196.26666666666665,407.46666666666664
1927,130.13333333333333,-198.4,418.1333333333333
1928,134.4,-202.66666666666666,411.73333333333335
1929,132.26666666666665,-194.13333333333333,398.93333333333334
1930,132.26666666666665,-200.53333333333333,405.3333333333333
1931,130.13333333333333,-196.26666666666665,409.6
1932,125.86666666666666,-198.4,405.3333333333333
1933,134.4,-200.53333333333333,407.46666666666664
1934,128.0,-204.8,409.6
1935,130.13333333333333,-198.4,403.2
1936,130.13333333333333,-200.53333333333333,403.2
1937,134.4,-204.8,409.6
1938,128.0,-204.8,407.46666666666664
1939,128.0,-204.8,403.2
1940,142.93333333333334,-202.66666666666666,416.0
1941,130.13333333333333,-198.4,411.73333333333335
1942,128.0,-200.53333333333333,405.3333333333333
1943,132.26666666666665,-198.4,418.1333333333333
1944,125.86666666666666,-198.4,416.0
1945,132.26666666666665,-200.53333333333333,411.73333333333335
1946,134.4,-198.4,413.8666666666667
1947,134.4,-192.0,409.6
1948,134.4,-192.0,407.46666666666664
1949,132.26666666666665,-192.0,407.46666666666664
1950,130.13333333333333,-194.13333333333333,413.8666666666667
1951,138.66666666666666,-200.53333333333333,398.93333333333334
1952,134.4,-189.86666666666667,416.0
1953,132.26666666666665,-196.26666666666665,407.46666666666664
1954,134.4,-198.4,407.46666666666664
1955,134.4,-196.26666666666665,409.6
1956,130.13333333333333,-196.26666666666665,401.06666666666666
1957,130.13333333333333,-194.13333333333333,396.8
1958,130.13333333333333,-194.13333333333333,409.6
1959,134.4,-198.4,398.93333333333334
1960,134.4,-206.93333333333334,392.5333333333333
1961,130.13333333333333,-202.66666666666666,418.1333333333333
1962,132.26666666666665,-194.13333333333333,394.6666666666667
1963,132.26666666666665,-202.66666666666666,401.06666666666666
1964,132.26666666666665,-200.53333333333333,401.06666666666666
1965,130.13333333333333,-200.53333333333333,401.06666666666666
1966,134.4,-198.4,403.2
1967,132.26666666666665,-200.53333333333333,405.3333333333333
1968,132.26666666666665,-200.53333333333333,411.73333333333335
1969,136.53333333333333,-202.66666666666666,407.46666666666664
1970,134.4,-206.93333333333334,407.46666666666664
1971,134.4,-202.66666666666666,407.46666666666664
1972,130.13333333333333,-206.93333333333334,411.73333333333335
1973,145.06666666666666,-198.4,420.26666666666665
1974,130.13333333333333,-206.93333333333334,411.73333333333335
1975,134.4,-198.4,411.73333333333335
1976,132.26666666666665,-206.93333333333334,409.6
1977,134.4,-204.8,409.6
1978,130.13333333333333,-204.8,409.6
1979,128.0,-202.66666666666666,405.3333333333333
1980,132.26666666666665,-202.66666666666666,411.73333333333335
1981,125.86666666666666,-206.93333333333334,407.46666666666664
1982,132.26666666666665,-215.46666666666667,407.46666666666664
1983,132.26666666666665,-206.93333333333334,407.46666666666664
1984,128.0,-213.33333333333334,411.73333333333335
1985,136.53333333333333,-209.06666666666666,409.6
1986,128.0,-206.93333333333334,403.2
1987,125.86666666666666,-206.93333333333334,403.2
1988,132.26666666666665,-209.06666666666666,409.6
1989,132.26666666666665,-204.8,407.46666666666664
1990,125.86666666666666,-213.33333333333334,411.73333333333335
1991,121.6,-211.2,403.2
1992,125.86666666666666,-209.06666666666666,401.06666666666666
1993,132.26666666666665,-204.8,407.46666666666664
1994,136.53333333333333,-204.8,405.3333333333333
1995,134.4,-211.2,403.2
1996,132.26666666666665,-209.06666666666666,401.06666666666666
1997,132.26666666666665,-211.2,401.06666666666666
1998,132.26666666666665,-196.26666666666665,405.3333333333333
1999,132.26666666666665,-204.8,405.3333333333333
2000,128.0,-211.2,407.46666666666664
2001,130.13333333333333,-202.66666666666666,407.46666666666664
2002,121.6,-211.2,401.06666666666666
2003,128.0,-206.93333333333334,398.93333333333334
2004,123.73333333333333,-215.46666666666667,401.06666666666666
2005,125.86666666666666,-202.66666666666666,416.0
2006,125.86666666666666,-200.53333333333333,403.2
2007,119.46666666666667,-204.8,405.3333333333333
2008,125.86666666666666,-204.8,409.6
2009,128.0,-213.33333333333334,407.46666666666664
2010,128.0,-209.06666666666666,401.06666666666666
2011,132.26666666666665,-215.46666666666667,409.6
2012,130.13333333333333,-215.46666666666667,403.2
2013,132.26666666666665,-215.46666666666667,405.3333333333333
2014,132.26666666666665,-206.93333333333334,403.2
2015,128.0,-211.2,407.46666666666664
2016,134.4,-219.73333333333332,407.46666666666664
2017,121.6,-209.06666666666666,396.8
2018,132.26666666666665,-217.6,409.6
2019,125.86666666666666,-213.33333333333334,407.46666666666664
2020,130.13333333333333,-213.33333333333334,394.6666666666667
2021,128.0,-213.33333333333334,409.6
2022,132.26666666666665,-211.2,401.06666666666666
2023,128.0,-209.06666666666666,407.46666666666664
2024,128.0,-209.06666666666666,407.46666666666664
2025,132.26666666666665,-213.33333333333334,405.3333333333333
2026,130.13333333333333,-206.93333333333334,401.06666666666666
2027,128.0,-204.8,409.6
2028,136.53333333333333,-204.8,411.73333333333335
2029,128.0,-211.2,403.2
2030,130.13333333333333,-202.66666666666666,407.46666666666664
2031,134.4,-211.2,398.93333333333334
2032,136.53333333333333,-213.33333333333334,409.6
2033,134.4,-213.33333333333334,405.3333333333333
2034,136.53333333333333,-217.6,401.06666666666666
2035,136.53333333333333,-213.33333333333334,418.1333333333333
2036,136.53333333333333,-209.06666666666666,416.0
2037,132.26666666666665,-213.33333333333334,409.6
2038,136.53333333333333,-204.8,422.4
2039,136.53333333333333,-209.06666666666666,411.73333333333335
2040,140.8,-200.53333333333333,407.46666666666664
2041,136.53333333333333,-194.13333333333333,411.73333333333335
2042,136.53333333333333,-189.86666666666667,401.06666666666666
2043,136.53333333333333,-192.0,411.73333333333335
2044,140.8,-192.0,405.3333333333333
2045,142.93333333333334,-192.0,413.8666666666667
2046,142.93333333333334,-192.0,405.3333333333333
2047,138.66666666666666,-196.26666666666665,403.2
2048,145.06666666666666,-206.93333333333334,386.1333333333333
2049,140.8,-219.73333333333332,405.3333333333333
2050,136.53333333333333,-226.13333333333333,407.46666666666664
2051,132.26666666666665,-232.53333333333333,409.6
2052,130.13333333333333,-234.66666666666666,405.3333333333333
2053,134.4,-241.06666666666666,403.2
2054,134.4,-232.53333333333333,394.6666666666667
2055,138.66666666666666,-228.26666666666665,381.8666666666667
2056,142.93333333333334,-224.0,381.8666666666667
2057,147.2,-228.26666666666665,384.0
2058,136.53333333333333,-213.33333333333334,381.8666666666667
2059,149.33333333333334,-215.46666666666667,388.26666666666665
2060,142.93333333333334,-209.06666666666666,392.5333333333333
2061,145.06666666666666,-209.06666666666666,394.6666666666667
2062,145.06666666666666,-206.93333333333334,398.93333333333334
2063,138.66666666666666,-204.8,405.3333333333333
2064,140.8,-213.33333333333334,409.6
2065,145.06666666666666,-215.46666666666667,407.46666666666664
2066,138.66666666666666,-213.33333333333334,411.73333333333335
2067,130.13333333333333,-206.93333333333334,416.0
2068,121.6,-213.33333333333334,418.1333333333333
2069,113.06666666666666,-219.73333333333332,418.1333333333333
2070,113.06666666666666,-226.13333333333333,411.73333333333335
2071,121.6,-226.13333333333333,422.4
2072,115.2,-228.26666666666665,411.73333333333335
2073,110.93333333333334,-226.13333333333333,416.0
2074,113.06666666666666,-234.66666666666666,413.8666666666667
2075,115.2,-232.53333333333333,413.8666666666667
2076,117.33333333333333,-236.79999999999998,411.73333333333335
2077,119.46666666666667,-238.93333333333334,409.6
2078,123.73333333333333,-243.2,398.93333333333334
2079,125.86666666666666,-243.2,405.3333333333333
2080,128.0,-243.2,396.8
2081,125.86666666666666,-251.73333333333332,401.06666666666666
2082,130.13333333333333,-243.2,388.26666666666665
2083,138.66666666666666,-243.2,390.4
2084,134.4,-234.66666666666666,375.46666666666664
2085,142.93333333333334,-234.66666666666666,379.73333333333335
2086,142.93333333333334,-236.79999999999998,375.46666666666664
2087,145.06666666666666,-228.26666666666665,364.8
2088,145.06666666666666,-219.73333333333332,362.6666666666667
2089,151.46666666666667,-226.13333333333333,375.46666666666664
2090,153.6,-224.0,360.5333333333333
2091,151.46666666666667,-228.26666666666665,360.5333333333333
2092,155.73333333333332,-221.86666666666667,377.6
2093,153.6,-226.13333333333333,377.6
2094,155.73333333333332,-226.13333333333333,384.0
2095,145.06666666666666,-217.6,390.4
2096,155.73333333333332,-228.26666666666665,392.5333333333333
2097,151.46666666666667,-228.26666666666665,390.4
2098,153.6,-238.93333333333334,405.3333333333333
2099,149.33333333333334,-238.93333333333334,409.6
2100,145.06666666666666,-241.06666666666666,411.73333333333335
2101,147.2,-249.6,409.6
2102,151.46666666666667,-249.6,424.5333333333333
2103,149.33333333333334,-251.73333333333332,418.1333333333333
2104,153.6,-251.73333333333332,420.26666666666665
2105,145.06666666666666,-253.86666666666667,416.0
2106,140.8,-249.6,413.8666666666667
2107,147.2,-256.0,403.2
2108,140.8,-251.73333333333332,411.73333333333335
2109,142.93333333333334,-245.33333333333334,407.46666666666664
2110,140.8,-247.46666666666667,409.6
2111,145.06666666666666,-232.53333333333333,401.06666666666666
2112,142.93333333333334,-236.79999999999998,409.6
2113,138.66666666666666,-219.73333333333332,407.46666666666664
2114,142.93333333333334,-217.6,398.93333333333334
2115,149.33333333333334,-209.06666666666666,390.4
2116,155.73333333333332,-206.93333333333334,394.6666666666667
2117,155.73333333333332,-202.66666666666666,390.4
2118,155.73333333333332,-189.86666666666667,390.4
2119,164.26666666666665,-192.0,392.5333333333333
2120,160.0,-181.33333333333334,392.5333333333333
2121,157.86666666666667,-181.33333333333334,390.4
2122,164.26666666666665,-177.06666666666666,392.5333333333333
2123,168.53333333333333,-183.46666666666667,384.0
2124,164.26666666666665,-181.33333333333334,392.5333333333333
2125,185.6,-185.6,392.5333333333333
2126,177.06666666666666,-183.46666666666667,386.1333333333333
2127,177.06666666666666,-187.73333333333332,396.8
2128,185.6,-192.0,386.1333333333333
2129,192.0,-192.0,398.93333333333334
2130,198.4,-198.4,386.1333333333333
2131,196.26666666666665,-192.0,384.0
2132,202.66666666666666,-200.53333333333333,384.0
2133,200.53333333333333,-198.4,386.1333333333333
2134,198.4,-204.8,384.0
2135,200.53333333333333,-213.33333333333334,373.3333333333333
2136,215.46666666666667,-211.2,377.6
2137,194.13333333333333,-213.33333333333334,384.0
2138,198.4,-204.8,379.73333333333335
2139,200.53333333333333,-213.33333333333334,379.73333333333335
2140,192.0,-209.06666666666666,384.0
2141,187.73333333333332,-206.93333333333334,377.6
2142,192.0,-209.06666666666666,386.1333333333333
2143,189.86666666666667,-211.2,392.5333333333333
2144,189.86666666666667,-209.06666666666666,403.2
2145,187.73333333333332,-206.93333333333334,390.4
2146,189.86666666666667,-209.06666666666666,416.0
2147,183.46666666666667,-215.46666666666667,407.46666666666664
2148,174.93333333333334,-196.26666666666665,409.6
2149,177.06666666666666,-198.4,405.3333333333333
2150,170.66666666666666,-194.13333333333333,405.3333333333333
2151,164.26666666666665,-189.86666666666667,409.6
2152,162.13333333333333,-185.6,403.2
2153,168.53333333333333,-181.33333333333334,401.06666666666666
2154,160.0,-177.06666666666666,407.46666666666664
2155,151.46666666666667,-183.46666666666667,396.8
2156,170.66666666666666,-172.8,401.06666666666666
2157,164.26666666666665,-164.26666666666665,392.5333333333333
2158,172.8,-181.33333333333334,394.6666666666667
2159,160.0,-170.66666666666666,388.26666666666665
2160,153.6,-168.53333333333333,386.1333333333333
2161,153.6,-164.26666666666665,375.46666666666664
2162,155.73333333333332,-166.4,362.6666666666667
2163,147.2,-172.8,358.4
2164,149.33333333333334,-172.8,360.5333333333333
2165,142.93333333333334,-183.46666666666667,356.26666666666665
2166,130.13333333333333,-196.26666666666665,358.4
2167,130.13333333333333,-206.93333333333334,356.26666666666665
2168,128.0,-215.46666666666667,356.26666666666665
2169,125.86666666666666,-226.13333333333333,360.5333333333333
2170,130.13333333333333,-226.13333333333333,360.5333333333333
2171,132.26666666666665,-230.4,371.2
2172,125.86666666666666,-224.0,377.6
2173,125.86666666666666,-219.73333333333332,375.46666666666664
2174,134.4,-219.73333333333332,375.46666666666664
2175,132.26666666666665,-215.46666666666667,379.73333333333335
2176,134.4,-204.8,377.6
2177,138.66666666666666,-202.66666666666666,373.3333333333333
2178,134.4,-192.0,373.3333333333333
2179,138.66666666666666,-196.26666666666665,369.06666666666666
2180,136.53333333333333,-177.06666666666666,373.3333333333333
2181,147.2,-187.73333333333332,371.2
2182,157.86666666666667,-179.2,358.4
2183,157.86666666666667,-187.73333333333332,354.1333333333333
2184,177.06666666666666,-194.13333333333333,354.1333333333333
2185,170.66666666666666,-202.66666666666666,347.73333333333335
2186,174.93333333333334,-209.06666666666666,341.3333333333333
2187,172.8,-224.0,345.6
2188,170.66666666666666,-234.66666666666666,349.8666666666667
2189,166.4,-247.46666666666667,334.93333333333334
2190,166.4,-262.4,328.5333333333333
2191,160.0,-266.6666666666667,317.8666666666667
2192,151.46666666666667,-281.6,302.93333333333334
2193,147.2,-294.4,281.6
2194,136.53333333333333,-294.4,283.73333333333335
2195,134.4,-309.3333333333333,277.3333333333333
2196,134.4,-324.26666666666665,290.1333333333333
2197,134.4,-341.3333333333333,283.73333333333335
2198,132.26666666666665,-341.3333333333333,292.26666666666665
2199,142.93333333333334,-349.8666666666667,313.6
2200,151.46666666666667,-349.8666666666667,309.3333333333333
2201,153.6,-345.6,326.4
2202,168.53333333333333,-347.73333333333335,322.1333333333333
2203,194.13333333333333,-332.8,328.5333333333333
2204,211.2,-328.5333333333333,328.5333333333333
2205,228.26666666666665,-324.26666666666665,322.1333333333333
2206,238.93333333333334,-322.1333333333333,328.5333333333333
2207,245.33333333333334,-320.0,328.5333333333333
2208,264.5333333333333,-313.6,326.4
2209,275.2,-313.6,320.0
2210,277.3333333333333,-320.0,320.0
2211,283.73333333333335,-320.0,317.8666666666667
2212,281.6,-326.4,315.73333333333335
2213,300.8,-341.3333333333333,305.06666666666666
2214,283.73333333333335,-358.4,307.2
2215,268.8,-366.93333333333334,307.2
2216,266.6666666666667,-388.26666666666665,330.6666666666667
2217,247.46666666666667,-405.3333333333333,328.5333333333333
2218,232.53333333333333,-409.6,349.8666666666667
2219,226.13333333333333,-424.5333333333333,352.0
2220,204.8,-433.06666666666666,362.6666666666667
2221,185.6,-424.5333333333333,369.06666666666666
2222,170.66666666666666,-426.6666666666667,366.93333333333334
2223,149.33333333333334,-426.6666666666667,377.6
2224,138.66666666666666,-428.8,381.8666666666667
2225,123.73333333333333,-411.73333333333335,386.1333333333333
2226,113.06666666666666,-403.2,386.1333333333333
2227,102.4,-403.2,377.6
2228,87.46666666666667,-392.5333333333333,369.06666666666666
2229,68.26666666666667,-377.6,360.5333333333333
2230,64.0,-377.6,354.1333333333333
2231,51.2,-364.8,345.6
2232,44.8,-358.4,330.6666666666667
2233,38.4,-358.4,315.73333333333335
2234,40.53333333333333,-349.8666666666667,302.93333333333334
2235,51.2,-358.4,294.4
2236,44.8,-347.73333333333335,290.1333333333333
2237,46.93333333333333,-349.8666666666667,281.6
2238,49.06666666666666,-352.0,270.93333333333334
2239,46.93333333333333,-360.5333333333333,268.8
2240,49.06666666666666,-366.93333333333334,270.93333333333334
2241,49.06666666666666,-379.73333333333335,262.4
2242,46.93333333333333,-390.4,262.4
2243,44.8,-398.93333333333334,253.86666666666667
2244,40.53333333333333,-407.46666666666664,258.1333333333333
2245,36.266666666666666,-413.8666666666667,245.33333333333334
2246,34.13333333333333,-422.4,249.6
2247,34.13333333333333,-437.3333333333333,249.6
2248,29.866666666666667,-433.06666666666666,253.86666666666667
2249,29.866666666666667,-452.26666666666665,243.2
2250,34.13333333333333,-460.8,249.6
2251,29.866666666666667,-462.93333333333334,236.79999999999998
2252,36.266666666666666,-465.06666666666666,232.53333333333333
2253,42.666666666666664,-473.59999999999997,217.6
2254,42.666666666666664,-473.59999999999997,209.06666666666666
2255,49.06666666666666,-475.73333333333335,187.73333333333332
2256,55.46666666666667,-477.8666666666667,183.46666666666667
2257,66.13333333333333,-482.1333333333333,204.8
2258,74.66666666666667,-488.5333333333333,204.8
2259,83.2,-486.4,200.53333333333333
2260,96.0,-490.6666666666667,204.8
2261,96.0,-497.06666666666666,213.33333333333334
2262,110.93333333333334,-499.2,198.4
2263,113.06666666666666,-499.2,204.8
2264,108.8,-494.93333333333334,209.06666666666666
2265,113.06666666666666,-501.3333333333333,204.8
2266,119.46666666666667,-499.2,206.93333333333334
2267,119.46666666666667,-503.46666666666664,217.6
2268,110.93333333333334,-492.8,204.8
2269,104.53333333333333,-494.93333333333334,215.46666666666667
2270,113.06666666666666,-492.8,206.93333333333334
2271,110.93333333333334,-486.4,200.53333333333333
2272,102.4,-490.6666666666667,209.06666666666666
2273,93.86666666666666,-482.1333333333333,192.0
2274,113.06666666666666,-480.0,196.26666666666665
2275,104.53333333333333,-477.8666666666667,183.46666666666667
2276,106.66666666666667,-486.4,185.6
2277,93.86666666666666,-488.5333333333333,164.26666666666665
2278,81.06666666666666,-482.1333333333333,155.73333333333332
2279,76.8,-482.1333333333333,145.06666666666666
2280,53.333333333333336,-482.1333333333333,151.46666666666667
2281,76.8,-488.5333333333333,138.66666666666666
2282,87.46666666666667,-499.2,138.66666666666666
2283,70.4,-490.6666666666667,130.13333333333333
2284,61.86666666666667,-499.2,125.86666666666666
2285,68.26666666666667,-505.59999999999997,119.46666666666667
2286,53.333333333333336,-507.73333333333335,115.2
2287,42.666666666666664,-509.8666666666667,115.2
2288,66.13333333333333,-520.5333333333333,100.26666666666667
2289,68.26666666666667,-535.4666666666667,100.26666666666667
2290,57.6,-531.2,100.26666666666667
2291,44.8,-531.2,102.4
2292,46.93333333333333,-541.8666666666667,98.13333333333333
2293,68.26666666666667,-544.0,100.26666666666667
2294,49.06666666666666,-539.7333333333333,91.73333333333333
2295,42.666666666666664,-533.3333333333334,100.26666666666667
2296,23.466666666666665,-529.0666666666666,96.0
2297,61.86666666666667,-537.6,106.66666666666667
2298,49.06666666666666,-539.7333333333333,108.8
2299,53.333333333333336,-541.8666666666667,98.13333333333333
2300,49.06666666666666,-541.8666666666667,96.0
2301,38.4,-537.6,91.73333333333333
2302,66.13333333333333,-541.8666666666667,102.4
2303,32.0,-546.1333333333333,96.0
2304,19.2,-544.0,81.06666666666666
2305,-29.866666666666667,-539.7333333333333,93.86666666666666
2306,14.933333333333334,-548.2666666666667,83.2
2307,25.6,-556.8,78.93333333333334
2308,-2.1333333333333333,-548.2666666666667,70.4
2309,-4.266666666666667,-548.2666666666667,70.4
2310,-49.06666666666666,-546.1333333333333,53.333333333333336
2311,25.6,-565.3333333333334,70.4
2312,-4.266666666666667,-554.6666666666666,72.53333333333333
2313,-21.333333333333332,-552.5333333333333,76.8
2314,-34.13333333333333,-544.0,68.26666666666667
2315,-66.13333333333333,-535.4666666666667,64.0
2316,21.333333333333332,-550.4,49.06666666666666
2317,-27.733333333333334,-548.2666666666667,61.86666666666667
2318,-66.13333333333333,-531.2,36.266666666666666
2319,-123.73333333333333,-524.8,59.733333333333334
2320,4.266666666666667,-544.0,40.53333333333333
2321,-64.0,-535.4666666666667,53.333333333333336
2322,-89.6,-529.0666666666666,51.2
2323,-91.73333333333333,-524.8,51.2
2324,-72.53333333333333,-541.8666666666667,55.46666666666667
2325,-83.2,-537.6,61.86666666666667
2326,-96.0,-541.8666666666667,64.0
2327,-113.06666666666666,-544.0,74.66666666666667
2328,-132.26666666666665,-535.4666666666667,74.66666666666667
2329,-23.466666666666665,-550.4,57.6
2330,-87.46666666666667,-548.2666666666667,59.733333333333334
2331,-93.86666666666666,-552.5333333333333,70.4
2332,-83.2,-537.6,64.0
2333,-87.46666666666667,-535.4666666666667,64.0
2334,-85.33333333333333,-535.4666666666667,74.66666666666667
2335,-93.86666666666666,-522.6666666666666,66.13333333333333
2336,-96.0,-522.6666666666666,59.733333333333334
2337,-87.46666666666667,-529.0666666666666,53.333333333333336
2338,-115.2,-518.4,46.93333333333333
2339,-57.6,-526.9333333333333,38.4
2340,-194.13333333333333,-507.73333333333335,34.13333333333333
2341,-44.8,-514.1333333333333,29.866666666666667
2342,-85.33333333333333,-524.8,8.533333333333333
2343,-98.13333333333333,-524.8,4.266666666666667
2344,-89.6,-518.4,-2.1333333333333333
2345,-91.73333333333333,-518.4,0.0
2346,-78.93333333333334,-518.4,8.533333333333333
2347,-76.8,-520.5333333333333,8.533333333333333
2348,-98.13333333333333,-514.1333333333333,0.0
2349,-108.8,-512.0,4.266666666666667
2350,-108.8,-518.4,-10.666666666666666
2351,-76.8,-533.3333333333334,-4.266666666666667
2352,-128.0,-516.2666666666667,-10.666666666666666
2353,-113.06666666666666,-524.8,-2.1333333333333333
2354,-117.33333333333333,-531.2,-8.533333333333333
2355,-113.06666666666666,-533.3333333333334,-19.2
2356,-164.26666666666665,-520.5333333333333,-19.2
2357,-98.13333333333333,-535.4666666666667,-12.8
2358,-125.86666666666666,-531.2,-21.333333333333332
2359,-123.73333333333333,-541.8666666666667,-29.866666666666667
2360,-168.53333333333333,-524.8,-27.733333333333334
2361,-140.8,-539.7333333333333,-49.06666666666666
2362,-177.06666666666666,-537.6,-66.13333333333333
2363,-183.46666666666667,-546.1333333333333,-70.4
2364,-238.93333333333334,-526.9333333333333,-72.53333333333333
2365,-209.06666666666666,-556.8,-70.4
2366,-262.4,-558.9333333333333,-49.06666666666666
2367,-270.93333333333334,-558.9333333333333,-19.2
2368,-260.26666666666665,-571.7333333333333,-17.066666666666666
2369,-288.0,-556.8,-8.533333333333333
2370,-251.73333333333332,-561.0666666666666,0.0
2371,-236.79999999999998,-563.2,2.1333333333333333
2372,-245.33333333333334,-563.2,12.8
2373,-202.66666666666666,-563.2,10.666666666666666
2374,-172.8,-554.6666666666666,8.533333333333333
2375,-166.4,-556.8,25.6
2376,-166.4,-548.2666666666667,8.533333333333333
2377,-164.26666666666665,-554.6666666666666,-10.666666666666666
2378,-183.46666666666667,-552.5333333333333,-23.466666666666665
2379,-187.73333333333332,-550.4,-21.333333333333332
2380,-179.2,-563.2,-21.333333333333332
2381,-204.8,-561.0666666666666,-12.8
2382,-206.93333333333334,-571.7333333333333,-6.4
2383,-200.53333333333333,-582.4,-19.2
2384,-202.66666666666666,-582.4,-27.733333333333334
2385,-209.06666666666666,-595.2,-36.266666666666666
2386,-228.26666666666665,-590.9333333333333,-44.8
2387,-217.6,-584.5333333333333,-51.2
2388,-215.46666666666667,-590.9333333333333,-55.46666666666667
2389,-206.93333333333334,-599.4666666666667,-61.86666666666667
2390,-221.86666666666667,-597.3333333333334,-76.8
2391,-226.13333333333333,-593.0666666666666,-72.53333333333333
2392,-224.0,-595.2,-72.53333333333333
2393,-228.26666666666665,-590.9333333333333,-78.93333333333334
2394,-241.06666666666666,-595.2,-78.93333333333334
2395,-241.06666666666666,-590.9333333333333,-64.0
2396,-247.46666666666667,-608.0,-68.26666666666667
2397,-243.2,-610.1333333333333,-64.0
2398,-238.93333333333334,-620.8,-55.46666666666667
2399,-228.26666666666665,-625.0666666666666,-59.733333333333334
2400,-221.86666666666667,-622.9333333333333,-70.4
2401,-211.2,-625.0666666666666,-70.4
2402,-211.2,-616.5333333333333,-78.93333333333334
2403,-202.66666666666666,-612.2666666666667,-74.66666666666667
2404,-204.8,-614.4,-78.93333333333334
2405,-183.46666666666667,-608.0,-87.46666666666667
2406,-170.66666666666666,-599.4666666666667,-81.06666666666666
2407,-166.4,-590.9333333333333,-91.73333333333333
2408,-145.06666666666666,-588.8,-91.73333333333333
2409,-142.93333333333334,-586.6666666666666,-102.4
2410,-125.86666666666666,-580.2666666666667,-100.26666666666667
2411,-117.33333333333333,-567.4666666666667,-102.4
2412,-108.8,-567.4666666666667,-96.0
2413,-93.86666666666666,-569.6,-102.4
2414,-89.6,-558.9333333333333,-100.26666666666667
2415,-85.33333333333333,-561.0666666666666,-110.93333333333334
2416,-87.46666666666667,-552.5333333333333,-115.2
2417,-78.93333333333334,-556.8,-96.0
2418,-87.46666666666667,-554.6666666666666,-117.33333333333333
2419,-81.06666666666666,-561.0666666666666,-117.33333333333333
2420,-85.33333333333333,-552.5333333333333,-106.66666666666667
2421,-85.33333333333333,-558.9333333333333,-108.8
2422,-87.46666666666667,-558.9333333333333,-110.93333333333334
2423,-89.6,-558.9333333333333,-104.53333333333333
2424,-85.33333333333333,-556.8,-110.93333333333334
2425,-98.13333333333333,-554.6666666666666,-115.2
2426,-96.0,-556.8,-108.8
2427,-98.13333333333333,-550.4,-115.2
2428,-106.66666666666667,-541.8666666666667,-125.86666666666666
2429,-93.86666666666666,-548.2666666666667,-106.66666666666667
2430,-98.13333333333333,-552.5333333333333,-108.8
2431,-102.4,-546.1333333333333,-110.93333333333334
2432,-106.66666666666667,-535.4666666666667,-110.93333333333334
2433,-102.4,-533.3333333333334,-104.53333333333333
2434,-113.06666666666666,-524.8,-104.53333333333333
2435,-104.53333333333333,-520.5333333333333,-100.26666666666667
2436,-104.53333333333333,-526.9333333333333,-89.6
2437,-106.66666666666667,-522.6666666666666,-93.86666666666666
2438,-113.06666666666666,-522.6666666666666,-81.06666666666666
2439,-115.2,-520.5333333333333,-72.53333333333333
2440,-123.73333333333333,-518.4,-81.06666666666666
2441,-125.86666666666666,-516.2666666666667,-68.26666666666667
2442,-121.6,-514.1333333333333,-64.0
