,accelerometerAccelerationX(G),accelerometerAccelerationY(G),accelerometerAccelerationZ(G)
0,-14.933333333333334,-539.7333333333333,21.333333333333332
1,-23.466666666666665,-537.6,17.066666666666666
2,-21.333333333333332,-535.4666666666667,17.066666666666666
3,-19.2,-548.2666666666667,14.933333333333334
4,-23.466666666666665,-539.7333333333333,19.2
5,-23.466666666666665,-544.0,17.066666666666666
6,-23.466666666666665,-539.7333333333333,17.066666666666666
7,-21.333333333333332,-546.1333333333333,14.933333333333334
8,-21.333333333333332,-539.7333333333333,21.333333333333332
9,-23.466666666666665,-537.6,19.2
10,-23.466666666666665,-537.6,17.066666666666666
11,-23.466666666666665,-539.7333333333333,21.333333333333332
12,-21.333333333333332,-537.6,19.2
13,-23.466666666666665,-535.4666666666667,17.066666666666666
14,-23.466666666666665,-537.6,23.466666666666665
15,-21.333333333333332,-544.0,19.2
16,-23.466666666666665,-544.0,21.333333333333332
17,-23.466666666666665,-535.4666666666667,21.333333333333332
18,-25.6,-539.7333333333333,19.2
19,-23.466666666666665,-537.6,17.066666666666666
20,-25.6,-533.3333333333334,14.933333333333334
21,-25.6,-533.3333333333334,14.933333333333334
22,-23.466666666666665,-531.2,17.066666666666666
23,-25.6,-531.2,21.333333333333332
24,-19.2,-526.9333333333333,14.933333333333334
25,-25.6,-533.3333333333334,17.066666666666666
26,-21.333333333333332,-526.9333333333333,21.333333333333332
27,-19.2,-531.2,23.466666666666665
28,-23.466666666666665,-529.0666666666666,27.733333333333334
29,-23.466666666666665,-533.3333333333334,23.466666666666665
30,-25.6,-533.3333333333334,36.266666666666666
31,-23.466666666666665,-531.2,29.866666666666667
32,-21.333333333333332,-535.4666666666667,32.0
33,-21.333333333333332,-535.4666666666667,29.866666666666667
34,-19.2,-533.3333333333334,27.733333333333334
35,-23.466666666666665,-541.8666666666667,27.733333333333334
36,-21.333333333333332,-546.1333333333333,32.0
37,-21.333333333333332,-546.1333333333333,32.0
38,-17.066666666666666,-552.5333333333333,34.13333333333333
39,-23.466666666666665,-554.6666666666666,29.866666666666667
40,-21.333333333333332,-554.6666666666666,42.666666666666664
41,-25.6,-554.6666666666666,38.4
42,-23.466666666666665,-554.6666666666666,38.4
43,-32.0,-548.2666666666667,32.0
44,-25.6,-552.5333333333333,36.266666666666666
45,-25.6,-548.2666666666667,27.733333333333334
46,-23.466666666666665,-544.0,29.866666666666667
47,-25.6,-548.2666666666667,36.266666666666666
48,-25.6,-550.4,32.0
49,-25.6,-550.4,40.53333333333333
50,-25.6,-550.4,32.0
51,-25.6,-548.2666666666667,34.13333333333333
52,-25.6,-548.2666666666667,34.13333333333333
53,-29.866666666666667,-539.7333333333333,29.866666666666667
54,-25.6,-541.8666666666667,25.6
55,-23.466666666666665,-539.7333333333333,27.733333333333334
56,-25.6,-539.7333333333333,21.333333333333332
57,-23.466666666666665,-537.6,21.333333333333332
58,-19.2,-539.7333333333333,29.866666666666667
59,-19.2,-537.6,23.466666666666665
60,-25.6,-533.3333333333334,19.2
61,-23.466666666666665,-533.3333333333334,21.333333333333332
62,-32.0,-526.9333333333333,17.066666666666666
63,-21.333333333333332,-531.2,17.066666666666666
64,-25.6,-531.2,17.066666666666666
65,-27.733333333333334,-533.3333333333334,21.333333333333332
66,-32.0,-535.4666666666667,14.933333333333334
67,-27.733333333333334,-533.3333333333334,19.2
68,-32.0,-535.4666666666667,17.066666666666666
69,-25.6,-533.3333333333334,10.666666666666666
70,-32.0,-531.2,19.2
71,-34.13333333333333,-520.5333333333333,17.066666666666666
72,-40.53333333333333,-520.5333333333333,17.066666666666666
73,-29.866666666666667,-524.8,17.066666666666666
74,-36.266666666666666,-524.8,17.066666666666666
75,-40.53333333333333,-518.4,6.4
76,-36.266666666666666,-516.2666666666667,8.533333333333333
77,-44.8,-520.5333333333333,17.066666666666666
78,-44.8,-518.4,21.333333333333332
79,-46.93333333333333,-516.2666666666667,12.8
80,-46.93333333333333,-526.9333333333333,19.2
81,-44.8,-531.2,19.2
82,-40.53333333333333,-531.2,17.066666666666666
83,-38.4,-533.3333333333334,19.2
84,-46.93333333333333,-531.2,17.066666666666666
85,-36.266666666666666,-535.4666666666667,21.333333333333332
86,-38.4,-537.6,17.066666666666666
87,-44.8,-550.4,23.466666666666665
88,-40.53333333333333,-548.2666666666667,21.333333333333332
89,-44.8,-544.0,23.466666666666665
90,-38.4,-550.4,23.466666666666665
91,-40.53333333333333,-544.0,32.0
92,-36.266666666666666,-544.0,27.733333333333334
93,-32.0,-539.7333333333333,36.266666666666666
94,-32.0,-544.0,32.0
95,-44.8,-544.0,25.6
96,-38.4,-544.0,21.333333333333332
97,-34.13333333333333,-548.2666666666667,17.066666666666666
98,-29.866666666666667,-548.2666666666667,23.466666666666665
99,-27.733333333333334,-548.2666666666667,25.6
100,-32.0,-544.0,25.6
101,-25.6,-537.6,21.333333333333332
102,-21.333333333333332,-539.7333333333333,25.6
103,-19.2,-544.0,21.333333333333332
104,-23.466666666666665,-541.8666666666667,27.733333333333334
105,-21.333333333333332,-544.0,21.333333333333332
106,-29.866666666666667,-537.6,19.2
107,-25.6,-539.7333333333333,19.2
108,-23.466666666666665,-539.7333333333333,17.066666666666666
109,-25.6,-544.0,17.066666666666666
110,-17.066666666666666,-546.1333333333333,21.333333333333332
111,-19.2,-548.2666666666667,25.6
112,-14.933333333333334,-554.6666666666666,21.333333333333332
113,-19.2,-550.4,21.333333333333332
114,-21.333333333333332,-552.5333333333333,25.6
115,-12.8,-552.5333333333333,19.2
116,-6.4,-552.5333333333333,17.066666666666666
117,-4.266666666666667,-544.0,19.2
118,-2.1333333333333333,-539.7333333333333,6.4
119,-10.666666666666666,-537.6,4.266666666666667
120,-23.466666666666665,-544.0,6.4
121,-10.666666666666666,-548.2666666666667,8.533333333333333
122,-12.8,-533.3333333333334,-4.266666666666667
123,-17.066666666666666,-524.8,-2.1333333333333333
124,-14.933333333333334,-518.4,-6.4
125,-17.066666666666666,-503.46666666666664,-21.333333333333332
126,-23.466666666666665,-516.2666666666667,-4.266666666666667
127,-25.6,-522.6666666666666,-8.533333333333333
128,-25.6,-518.4,2.1333333333333333
129,-32.0,-516.2666666666667,4.266666666666667
130,-42.666666666666664,-507.73333333333335,4.266666666666667
131,-46.93333333333333,-499.2,19.2
132,-55.46666666666667,-512.0,14.933333333333334
133,-59.733333333333334,-518.4,0.0
134,-53.333333333333336,-509.8666666666667,6.4
135,-55.46666666666667,-518.4,8.533333333333333
136,-57.6,-529.0666666666666,12.8
137,-55.46666666666667,-533.3333333333334,17.066666666666666
138,-55.46666666666667,-533.3333333333334,8.533333333333333
139,-61.86666666666667,-522.6666666666666,8.533333333333333
140,-55.46666666666667,-526.9333333333333,-2.1333333333333333
141,-59.733333333333334,-524.8,-4.266666666666667
142,-57.6,-524.8,2.1333333333333333
143,-51.2,-524.8,0.0
144,-46.93333333333333,-529.0666666666666,-8.533333333333333
145,-51.2,-520.5333333333333,-10.666666666666666
146,-51.2,-531.2,-4.266666666666667
147,-49.06666666666666,-526.9333333333333,-2.1333333333333333
148,-57.6,-526.9333333333333,-4.266666666666667
149,-44.8,-529.0666666666666,-10.666666666666666
150,-46.93333333333333,-526.9333333333333,2.1333333333333333
151,-49.06666666666666,-524.8,12.8
152,-46.93333333333333,-522.6666666666666,17.066666666666666
153,-49.06666666666666,-526.9333333333333,12.8
154,-49.06666666666666,-514.1333333333333,14.933333333333334
155,-46.93333333333333,-524.8,4.266666666666667
156,-44.8,-524.8,8.533333333333333
157,-36.266666666666666,-524.8,14.933333333333334
158,-40.53333333333333,-533.3333333333334,10.666666666666666
159,-46.93333333333333,-533.3333333333334,10.666666666666666
160,-46.93333333333333,-535.4666666666667,10.666666666666666
161,-49.06666666666666,-524.8,17.066666666666666
162,-57.6,-524.8,19.2
163,-55.46666666666667,-531.2,21.333333333333332
164,-53.333333333333336,-526.9333333333333,19.2
165,-57.6,-537.6,23.466666666666665
166,-53.333333333333336,-537.6,17.066666666666666
167,-57.6,-531.2,25.6
168,-51.2,-533.3333333333334,17.066666666666666
169,-59.733333333333334,-529.0666666666666,19.2
170,-57.6,-531.2,12.8
171,-59.733333333333334,-539.7333333333333,17.066666666666666
172,-61.86666666666667,-535.4666666666667,10.666666666666666
173,-46.93333333333333,-548.2666666666667,8.533333333333333
174,-46.93333333333333,-550.4,17.066666666666666
175,-53.333333333333336,-552.5333333333333,21.333333333333332
176,-51.2,-552.5333333333333,19.2
177,-42.666666666666664,-548.2666666666667,12.8
178,-40.53333333333333,-556.8,17.066666666666666
179,-42.666666666666664,-546.1333333333333,21.333333333333332
180,-40.53333333333333,-552.5333333333333,14.933333333333334
181,-46.93333333333333,-554.6666666666666,21.333333333333332
182,-46.93333333333333,-548.2666666666667,10.666666666666666
183,-49.06666666666666,-550.4,17.066666666666666
184,-53.333333333333336,-552.5333333333333,17.066666666666666
185,-49.06666666666666,-561.0666666666666,6.4
186,-51.2,-573.8666666666667,14.933333333333334
187,-57.6,-571.7333333333333,29.866666666666667
188,-68.26666666666667,-590.9333333333333,23.466666666666665
189,-66.13333333333333,-601.6,27.733333333333334
190,-78.93333333333334,-601.6,32.0
191,-78.93333333333334,-616.5333333333333,36.266666666666666
192,-81.06666666666666,-620.8,38.4
193,-89.6,-618.6666666666666,53.333333333333336
194,-96.0,-620.8,57.6
195,-100.26666666666667,-633.6,34.13333333333333
196,-96.0,-635.7333333333333,46.93333333333333
197,-93.86666666666666,-633.6,42.666666666666664
198,-93.86666666666666,-646.4,42.666666666666664
199,-108.8,-642.1333333333333,38.4
200,-104.53333333333333,-650.6666666666666,44.8
201,-110.93333333333334,-648.5333333333333,49.06666666666666
202,-100.26666666666667,-644.2666666666667,53.333333333333336
203,-100.26666666666667,-650.6666666666666,57.6
204,-91.73333333333333,-640.0,59.733333333333334
205,-89.6,-640.0,55.46666666666667
206,-89.6,-633.6,42.666666666666664
207,-91.73333333333333,-627.2,27.733333333333334
208,-91.73333333333333,-625.0666666666666,12.8
209,-87.46666666666667,-631.4666666666667,-6.4
210,-78.93333333333334,-629.3333333333334,-25.6
211,-76.8,-635.7333333333333,-66.13333333333333
212,-83.2,-646.4,-89.6
213,-76.8,-648.5333333333333,-117.33333333333333
214,-83.2,-667.7333333333333,-134.4
215,-117.33333333333333,-674.1333333333333,-162.13333333333333
216,-138.66666666666666,-682.6666666666666,-181.33333333333334
217,-160.0,-699.7333333333333,-183.46666666666667
218,-164.26666666666665,-701.8666666666667,-185.6
219,-147.2,-695.4666666666667,-170.66666666666666
220,-106.66666666666667,-680.5333333333333,-179.2
221,-85.33333333333333,-680.5333333333333,-140.8
222,-21.333333333333332,-669.8666666666667,-170.66666666666666
223,-38.4,-603.7333333333333,-153.6
224,-72.53333333333333,-605.8666666666667,-157.86666666666667
225,-8.533333333333333,-582.4,-153.6
226,27.733333333333334,-563.2,-155.73333333333332
227,59.733333333333334,-546.1333333333333,-185.6
228,76.8,-516.2666666666667,-192.0
229,91.73333333333333,-520.5333333333333,-172.8
230,110.93333333333334,-509.8666666666667,-170.66666666666666
231,128.0,-507.73333333333335,-166.4
232,134.4,-505.59999999999997,-166.4
233,134.4,-460.8,-177.06666666666666
234,130.13333333333333,-505.59999999999997,-142.93333333333334
235,121.6,-503.46666666666664,-128.0
236,119.46666666666667,-507.73333333333335,-110.93333333333334
237,104.53333333333333,-503.46666666666664,-102.4
238,91.73333333333333,-507.73333333333335,-102.4
239,74.66666666666667,-501.3333333333333,-93.86666666666666
240,38.4,-486.4,-91.73333333333333
241,21.333333333333332,-488.5333333333333,-91.73333333333333
242,4.266666666666667,-484.26666666666665,-93.86666666666666
243,-10.666666666666666,-484.26666666666665,-96.0
244,-17.066666666666666,-490.6666666666667,-98.13333333333333
245,-8.533333333333333,-497.06666666666666,-98.13333333333333
246,-14.933333333333334,-488.5333333333333,-104.53333333333333
247,-12.8,-497.06666666666666,-115.2
248,-6.4,-503.46666666666664,-123.73333333333333
249,0.0,-494.93333333333334,-130.13333333333333
250,2.1333333333333333,-488.5333333333333,-125.86666666666666
251,10.666666666666666,-490.6666666666667,-125.86666666666666
252,4.266666666666667,-480.0,-130.13333333333333
253,6.4,-477.8666666666667,-132.26666666666665
254,10.666666666666666,-469.3333333333333,-123.73333333333333
255,17.066666666666666,-471.46666666666664,-123.73333333333333
256,17.066666666666666,-480.0,-119.46666666666667
257,25.6,-469.3333333333333,-108.8
258,32.0,-467.2,-100.26666666666667
259,36.266666666666666,-456.5333333333333,-91.73333333333333
260,44.8,-454.4,-74.66666666666667
261,46.93333333333333,-441.59999999999997,-66.13333333333333
262,40.53333333333333,-418.1333333333333,-81.06666666666666
263,44.8,-426.6666666666667,-87.46666666666667
264,42.666666666666664,-418.1333333333333,-98.13333333333333
265,53.333333333333336,-426.6666666666667,-93.86666666666666
266,59.733333333333334,-422.4,-93.86666666666666
267,59.733333333333334,-428.8,-100.26666666666667
268,70.4,-433.06666666666666,-110.93333333333334
269,98.13333333333333,-456.5333333333333,-93.86666666666666
270,106.66666666666667,-462.93333333333334,-78.93333333333334
271,115.2,-482.1333333333333,-66.13333333333333
272,136.53333333333333,-501.3333333333333,-70.4
273,142.93333333333334,-507.73333333333335,-55.46666666666667
274,147.2,-512.0,-55.46666666666667
275,149.33333333333334,-518.4,-46.93333333333333
276,157.86666666666667,-529.0666666666666,-42.666666666666664
277,147.2,-522.6666666666666,-49.06666666666666
278,140.8,-512.0,-51.2
279,125.86666666666666,-514.1333333333333,-49.06666666666666
280,125.86666666666666,-503.46666666666664,-49.06666666666666
281,121.6,-505.59999999999997,-40.53333333333333
282,110.93333333333334,-499.2,-19.2
283,108.8,-494.93333333333334,-29.866666666666667
284,100.26666666666667,-494.93333333333334,-21.333333333333332
285,93.86666666666666,-488.5333333333333,-21.333333333333332
286,98.13333333333333,-486.4,-14.933333333333334
287,81.06666666666666,-477.8666666666667,-8.533333333333333
288,74.66666666666667,-486.4,-19.2
289,70.4,-477.8666666666667,-10.666666666666666
290,61.86666666666667,-488.5333333333333,-21.333333333333332
291,57.6,-473.59999999999997,-12.8
292,44.8,-477.8666666666667,-17.066666666666666
293,23.466666666666665,-477.8666666666667,-6.4
294,21.333333333333332,-494.93333333333334,-8.533333333333333
295,14.933333333333334,-467.2,14.933333333333334
296,17.066666666666666,-471.46666666666664,17.066666666666666
297,10.666666666666666,-469.3333333333333,25.6
298,10.666666666666666,-467.2,29.866666666666667
299,6.4,-471.46666666666664,32.0
300,10.666666666666666,-484.26666666666665,46.93333333333333
301,-6.4,-480.0,46.93333333333333
302,2.1333333333333333,-482.1333333333333,64.0
303,0.0,-499.2,68.26666666666667
304,-17.066666666666666,-505.59999999999997,59.733333333333334
305,-8.533333333333333,-514.1333333333333,55.46666666666667
306,-4.266666666666667,-531.2,64.0
307,2.1333333333333333,-541.8666666666667,70.4
308,2.1333333333333333,-541.8666666666667,81.06666666666666
309,25.6,-556.8,85.33333333333333
310,40.53333333333333,-567.4666666666667,83.2
311,51.2,-558.9333333333333,70.4
312,66.13333333333333,-567.4666666666667,72.53333333333333
313,70.4,-569.6,72.53333333333333
314,81.06666666666666,-563.2,61.86666666666667
315,74.66666666666667,-554.6666666666666,29.866666666666667
316,78.93333333333334,-548.2666666666667,25.6
317,85.33333333333333,-550.4,6.4
318,96.0,-541.8666666666667,4.266666666666667
319,102.4,-550.4,12.8
320,108.8,-554.6666666666666,19.2
321,117.33333333333333,-565.3333333333334,36.266666666666666
322,128.0,-571.7333333333333,68.26666666666667
323,142.93333333333334,-576.0,85.33333333333333
324,170.66666666666666,-608.0,123.73333333333333
325,172.8,-620.8,132.26666666666665
326,187.73333333333332,-642.1333333333333,142.93333333333334
327,162.13333333333333,-646.4,149.33333333333334
328,145.06666666666666,-648.5333333333333,157.86666666666667
329,140.8,-663.4666666666667,151.46666666666667
330,140.8,-669.8666666666667,121.6
331,147.2,-695.4666666666667,81.06666666666666
332,151.46666666666667,-704.0,42.666666666666664
333,145.06666666666666,-714.6666666666666,12.8
334,125.86666666666666,-708.2666666666667,-36.266666666666666
335,130.13333333333333,-693.3333333333334,-87.46666666666667
336,147.2,-686.9333333333333,-157.86666666666667
337,183.46666666666667,-678.4,-198.4
338,192.0,-682.6666666666666,-247.46666666666667
339,200.53333333333333,-697.6,-249.6
340,200.53333333333333,-721.0666666666666,-253.86666666666667
341,196.26666666666665,-736.0,-236.79999999999998
342,162.13333333333333,-759.4666666666667,-206.93333333333334
343,113.06666666666666,-782.9333333333333,-177.06666666666666
344,53.333333333333336,-782.9333333333333,-147.2
345,12.8,-776.5333333333333,-149.33333333333334
346,-34.13333333333333,-748.8,-128.0
347,-59.733333333333334,-714.6666666666666,-138.66666666666666
348,-72.53333333333333,-676.2666666666667,-164.26666666666665
349,-83.2,-627.2,-187.73333333333332
350,-98.13333333333333,-571.7333333333333,-196.26666666666665
351,-119.46666666666667,-535.4666666666667,-196.26666666666665
352,-136.53333333333333,-507.73333333333335,-174.93333333333334
353,-151.46666666666667,-482.1333333333333,-164.26666666666665
354,-160.0,-467.2,-155.73333333333332
355,-147.2,-452.26666666666665,-128.0
356,-128.0,-443.73333333333335,-121.6
357,-125.86666666666666,-439.46666666666664,-113.06666666666666
358,-96.0,-458.6666666666667,-119.46666666666667
359,-66.13333333333333,-471.46666666666664,-100.26666666666667
360,-44.8,-480.0,-89.6
361,-10.666666666666666,-490.6666666666667,-74.66666666666667
362,21.333333333333332,-514.1333333333333,-53.333333333333336
363,42.666666666666664,-533.3333333333334,-36.266666666666666
364,66.13333333333333,-544.0,-27.733333333333334
365,74.66666666666667,-546.1333333333333,-12.8
366,93.86666666666666,-550.4,2.1333333333333333
367,110.93333333333334,-552.5333333333333,4.266666666666667
368,108.8,-554.6666666666666,8.533333333333333
369,117.33333333333333,-556.8,-29.866666666666667
370,123.73333333333333,-571.7333333333333,-53.333333333333336
371,117.33333333333333,-571.7333333333333,-44.8
372,113.06666666666666,-552.5333333333333,-64.0
373,113.06666666666666,-541.8666666666667,-70.4
374,104.53333333333333,-522.6666666666666,-91.73333333333333
375,91.73333333333333,-503.46666666666664,-115.2
376,83.2,-484.26666666666665,-115.2
377,51.2,-450.1333333333333,-115.2
378,25.6,-426.6666666666667,-108.8
379,19.2,-411.73333333333335,-128.0
380,21.333333333333332,-413.8666666666667,-125.86666666666666
381,29.866666666666667,-418.1333333333333,-119.46666666666667
382,32.0,-428.8,-115.2
383,17.066666666666666,-424.5333333333333,-115.2
384,4.266666666666667,-428.8,-104.53333333333333
385,-12.8,-430.93333333333334,-81.06666666666666
386,-23.466666666666665,-437.3333333333333,-59.733333333333334
387,-32.0,-430.93333333333334,-40.53333333333333
388,-32.0,-424.5333333333333,-21.333333333333332
389,-34.13333333333333,-420.26666666666665,-34.13333333333333
390,-44.8,-411.73333333333335,-10.666666666666666
391,-76.8,-390.4,-8.533333333333333
392,-64.0,-388.26666666666665,-17.066666666666666
393,-68.26666666666667,-377.6,-32.0
394,-59.733333333333334,-384.0,-49.06666666666666
395,-55.46666666666667,-388.26666666666665,-57.6
396,-53.333333333333336,-405.3333333333333,-72.53333333333333
397,-51.2,-413.8666666666667,-74.66666666666667
398,-59.733333333333334,-435.2,-66.13333333333333
399,-49.06666666666666,-439.46666666666664,-57.6
400,-49.06666666666666,-460.8,-49.06666666666666
401,-57.6,-465.06666666666666,-34.13333333333333
402,-53.333333333333336,-456.5333333333333,-32.0
403,-51.2,-454.4,-21.333333333333332
404,-51.2,-456.5333333333333,-27.733333333333334
405,-53.333333333333336,-450.1333333333333,-29.866666666666667
406,-46.93333333333333,-456.5333333333333,-29.866666666666667
407,-61.86666666666667,-454.4,-38.4
408,-61.86666666666667,-465.06666666666666,-36.266666666666666
409,-72.53333333333333,-456.5333333333333,-38.4
410,-70.4,-473.59999999999997,-53.333333333333336
411,-74.66666666666667,-475.73333333333335,-29.866666666666667
412,-78.93333333333334,-469.3333333333333,-27.733333333333334
413,-87.46666666666667,-480.0,-19.2
414,-78.93333333333334,-477.8666666666667,-17.066666666666666
415,-74.66666666666667,-488.5333333333333,-12.8
416,-68.26666666666667,-482.1333333333333,2.1333333333333333
417,-61.86666666666667,-494.93333333333334,4.266666666666667
418,-61.86666666666667,-494.93333333333334,12.8
419,-44.8,-501.3333333333333,19.2
420,-25.6,-514.1333333333333,21.333333333333332
421,-23.466666666666665,-524.8,38.4
422,0.0,-539.7333333333333,36.266666666666666
423,17.066666666666666,-550.4,34.13333333333333
424,29.866666666666667,-565.3333333333334,36.266666666666666
425,27.733333333333334,-571.7333333333333,49.06666666666666
426,38.4,-593.0666666666666,44.8
427,46.93333333333333,-605.8666666666667,44.8
428,46.93333333333333,-620.8,42.666666666666664
429,46.93333333333333,-627.2,36.266666666666666
430,46.93333333333333,-644.2666666666667,27.733333333333334
431,46.93333333333333,-640.0,17.066666666666666
432,32.0,-640.0,-14.933333333333334
433,19.2,-652.8,-25.6
434,-10.666666666666666,-650.6666666666666,-32.0
435,-38.4,-657.0666666666666,-25.6
436,-72.53333333333333,-663.4666666666667,-27.733333333333334
437,-96.0,-661.3333333333334,-14.933333333333334
438,-117.33333333333333,-663.4666666666667,-2.1333333333333333
439,-142.93333333333334,-665.6,6.4
440,-145.06666666666666,-674.1333333333333,10.666666666666666
441,-177.06666666666666,-667.7333333333333,38.4
442,-185.6,-676.2666666666667,61.86666666666667
443,-196.26666666666665,-676.2666666666667,81.06666666666666
444,-189.86666666666667,-691.2,102.4
445,-187.73333333333332,-699.7333333333333,81.06666666666666
446,-174.93333333333334,-701.8666666666667,72.53333333333333
447,-160.0,-691.2,89.6
448,-125.86666666666666,-691.2,72.53333333333333
449,-98.13333333333333,-689.0666666666666,64.0
450,-81.06666666666666,-676.2666666666667,36.266666666666666
451,-40.53333333333333,-680.5333333333333,19.2
452,-21.333333333333332,-676.2666666666667,6.4
453,-12.8,-663.4666666666667,-12.8
454,2.1333333333333333,-663.4666666666667,-44.8
455,-10.666666666666666,-663.4666666666667,-59.733333333333334
456,-23.466666666666665,-650.6666666666666,-106.66666666666667
457,-19.2,-631.4666666666667,-155.73333333333332
458,-36.266666666666666,-620.8,-217.6
459,-51.2,-625.0666666666666,-277.3333333333333
460,-78.93333333333334,-625.0666666666666,-330.6666666666667
461,-98.13333333333333,-635.7333333333333,-362.6666666666667
462,-102.4,-646.4,-371.2
463,-93.86666666666666,-648.5333333333333,-349.8666666666667
464,-59.733333333333334,-646.4,-298.6666666666667
465,-23.466666666666665,-646.4,-260.26666666666665
466,8.533333333333333,-622.9333333333333,-238.93333333333334
467,51.2,-614.4,-226.13333333333333
468,96.0,-601.6,-177.06666666666666
469,138.66666666666666,-599.4666666666667,-162.13333333333333
470,177.06666666666666,-610.1333333333333,-115.2
471,217.6,-610.1333333333333,-110.93333333333334
472,241.06666666666666,-573.8666666666667,-121.6
473,256.0,-586.6666666666666,-160.0
474,273.06666666666666,-582.4,-185.6
475,253.86666666666667,-569.6,-168.53333333333333
476,243.2,-565.3333333333334,-160.0
477,221.86666666666667,-558.9333333333333,-134.4
478,185.6,-558.9333333333333,-121.6
479,149.33333333333334,-558.9333333333333,-98.13333333333333
480,115.2,-569.6,-96.0
481,91.73333333333333,-588.8,-100.26666666666667
482,57.6,-588.8,-64.0
483,27.733333333333334,-576.0,-38.4
484,12.8,-571.7333333333333,-36.266666666666666
485,-6.4,-576.0,-32.0
486,-29.866666666666667,-576.0,-32.0
487,-49.06666666666666,-584.5333333333333,-38.4
488,-74.66666666666667,-554.6666666666666,-49.06666666666666
489,-85.33333333333333,-544.0,-66.13333333333333
490,-76.8,-512.0,-81.06666666666666
491,-76.8,-518.4,-91.73333333333333
492,-78.93333333333334,-490.6666666666667,-100.26666666666667
493,-57.6,-486.4,-110.93333333333334
494,-49.06666666666666,-462.93333333333334,-110.93333333333334
495,-49.06666666666666,-433.06666666666666,-98.13333333333333
496,-61.86666666666667,-413.8666666666667,-72.53333333333333
497,-61.86666666666667,-386.1333333333333,-57.6
498,-61.86666666666667,-354.1333333333333,-57.6
499,-51.2,-324.26666666666665,-53.333333333333336
500,-25.6,-302.93333333333334,-61.86666666666667
501,-21.333333333333332,-283.73333333333335,-68.26666666666667
502,-12.8,-268.8,-87.46666666666667
503,-14.933333333333334,-279.46666666666664,-106.66666666666667
504,8.533333333333333,-300.8,-100.26666666666667
505,29.866666666666667,-315.73333333333335,-93.86666666666666
506,44.8,-326.4,-83.2
507,74.66666666666667,-354.1333333333333,-81.06666666666666
508,87.46666666666667,-371.2,-61.86666666666667
509,98.13333333333333,-392.5333333333333,-46.93333333333333
510,102.4,-405.3333333333333,-25.6
511,108.8,-411.73333333333335,-23.466666666666665
512,117.33333333333333,-418.1333333333333,-21.333333333333332
513,130.13333333333333,-433.06666666666666,-21.333333333333332
514,136.53333333333333,-443.73333333333335,-23.466666666666665
515,138.66666666666666,-465.06666666666666,-14.933333333333334
516,145.06666666666666,-473.59999999999997,0.0
517,149.33333333333334,-486.4,4.266666666666667
518,160.0,-499.2,12.8
519,164.26666666666665,-501.3333333333333,17.066666666666666
520,151.46666666666667,-509.8666666666667,25.6
521,149.33333333333334,-514.1333333333333,23.466666666666665
522,142.93333333333334,-507.73333333333335,29.866666666666667
523,149.33333333333334,-518.4,40.53333333333333
524,136.53333333333333,-516.2666666666667,46.93333333333333
525,130.13333333333333,-507.73333333333335,57.6
526,125.86666666666666,-505.59999999999997,59.733333333333334
527,117.33333333333333,-490.6666666666667,61.86666666666667
528,117.33333333333333,-486.4,51.2
529,108.8,-480.0,57.6
530,91.73333333333333,-469.3333333333333,51.2
531,87.46666666666667,-473.59999999999997,53.333333333333336
532,68.26666666666667,-465.06666666666666,46.93333333333333
533,74.66666666666667,-475.73333333333335,36.266666666666666
534,64.0,-482.1333333333333,32.0
535,68.26666666666667,-490.6666666666667,21.333333333333332
536,57.6,-494.93333333333334,17.066666666666666
537,55.46666666666667,-499.2,6.4
538,40.53333333333333,-512.0,12.8
539,34.13333333333333,-520.5333333333333,19.2
540,38.4,-537.6,8.533333333333333
541,34.13333333333333,-550.4,8.533333333333333
542,34.13333333333333,-552.5333333333333,21.333333333333332
543,32.0,-563.2,21.333333333333332
544,27.733333333333334,-563.2,29.866666666666667
545,17.066666666666666,-573.8666666666667,36.266666666666666
546,21.333333333333332,-580.2666666666667,46.93333333333333
547,36.266666666666666,-595.2,40.53333333333333
548,42.666666666666664,-601.6,40.53333333333333
549,59.733333333333334,-618.6666666666666,44.8
550,81.06666666666666,-633.6,40.53333333333333
551,96.0,-642.1333333333333,40.53333333333333
552,104.53333333333333,-644.2666666666667,53.333333333333336
553,113.06666666666666,-642.1333333333333,66.13333333333333
554,125.86666666666666,-629.3333333333334,87.46666666666667
555,149.33333333333334,-631.4666666666667,108.8
556,162.13333333333333,-640.0,142.93333333333334
557,168.53333333333333,-644.2666666666667,138.66666666666666
558,168.53333333333333,-678.4,145.06666666666666
559,168.53333333333333,-689.0666666666666,147.2
560,166.4,-716.8,142.93333333333334
561,149.33333333333334,-731.7333333333333,149.33333333333334
562,138.66666666666666,-757.3333333333334,134.4
563,110.93333333333334,-755.2,119.46666666666667
564,100.26666666666667,-763.7333333333333,96.0
565,83.2,-748.8,53.333333333333336
566,70.4,-721.0666666666666,49.06666666666666
567,81.06666666666666,-712.5333333333333,-17.066666666666666
568,85.33333333333333,-706.1333333333333,-59.733333333333334
569,91.73333333333333,-689.0666666666666,-85.33333333333333
570,89.6,-659.2,-113.06666666666666
571,96.0,-657.0666666666666,-151.46666666666667
572,96.0,-640.0,-194.13333333333333
573,81.06666666666666,-631.4666666666667,-236.79999999999998
574,72.53333333333333,-640.0,-262.4
575,55.46666666666667,-661.3333333333334,-277.3333333333333
576,38.4,-689.0666666666666,-236.79999999999998
577,25.6,-718.9333333333333,-206.93333333333334
578,29.866666666666667,-727.4666666666667,-179.2
579,29.866666666666667,-712.5333333333333,-155.73333333333332
580,23.466666666666665,-665.6,-130.13333333333333
581,32.0,-603.7333333333333,-128.0
582,32.0,-535.4666666666667,-155.73333333333332
583,19.2,-452.26666666666665,-187.73333333333332
584,-8.533333333333333,-398.93333333333334,-204.8
585,-34.13333333333333,-356.26666666666665,-209.06666666666666
586,-59.733333333333334,-349.8666666666667,-213.33333333333334
587,-83.2,-347.73333333333335,-217.6
588,-121.6,-347.73333333333335,-196.26666666666665
589,-128.0,-362.6666666666667,-187.73333333333332
590,-140.8,-392.5333333333333,-174.93333333333334
591,-123.73333333333333,-426.6666666666667,-155.73333333333332
592,-83.2,-452.26666666666665,-128.0
593,-51.2,-484.26666666666665,-113.06666666666666
594,-32.0,-526.9333333333333,-83.2
595,-23.466666666666665,-552.5333333333333,-42.666666666666664
596,-12.8,-569.6,-4.266666666666667
597,-6.4,-569.6,38.4
598,17.066666666666666,-563.2,42.666666666666664
599,53.333333333333336,-565.3333333333334,12.8
600,85.33333333333333,-573.8666666666667,-21.333333333333332
601,108.8,-573.8666666666667,-57.6
602,113.06666666666666,-571.7333333333333,-74.66666666666667
603,102.4,-565.3333333333334,-87.46666666666667
604,104.53333333333333,-558.9333333333333,-110.93333333333334
605,110.93333333333334,-539.7333333333333,-125.86666666666666
606,104.53333333333333,-509.8666666666667,-140.8
607,106.66666666666667,-505.59999999999997,-136.53333333333333
608,102.4,-492.8,-130.13333333333333
609,93.86666666666666,-480.0,-108.8
610,66.13333333333333,-458.6666666666667,-53.333333333333336
611,64.0,-458.6666666666667,-46.93333333333333
612,49.06666666666666,-450.1333333333333,-44.8
613,34.13333333333333,-445.8666666666667,-42.666666666666664
614,32.0,-441.59999999999997,-53.333333333333336
615,32.0,-437.3333333333333,-46.93333333333333
616,29.866666666666667,-422.4,-44.8
617,40.53333333333333,-411.73333333333335,-40.53333333333333
618,40.53333333333333,-394.6666666666667,-49.06666666666666
619,23.466666666666665,-384.0,-55.46666666666667
620,19.2,-375.46666666666664,-55.46666666666667
621,2.1333333333333333,-352.0,-61.86666666666667
622,-4.266666666666667,-347.73333333333335,-61.86666666666667
623,6.4,-347.73333333333335,-70.4
624,-2.1333333333333333,-337.06666666666666,-76.8
625,8.533333333333333,-362.6666666666667,-74.66666666666667
626,2.1333333333333333,-386.1333333333333,-68.26666666666667
627,-17.066666666666666,-396.8,-66.13333333333333
628,-23.466666666666665,-411.73333333333335,-51.2
629,-23.466666666666665,-422.4,-25.6
630,-25.6,-437.3333333333333,8.533333333333333
631,-27.733333333333334,-454.4,6.4
632,-27.733333333333334,-454.4,17.066666666666666
633,-25.6,-471.46666666666664,10.666666666666666
634,-36.266666666666666,-469.3333333333333,19.2
635,-38.4,-473.59999999999997,19.2
636,-57.6,-477.8666666666667,17.066666666666666
637,-59.733333333333334,-480.0,6.4
638,-64.0,-484.26666666666665,-8.533333333333333
639,-66.13333333333333,-480.0,-8.533333333333333
640,-46.93333333333333,-477.8666666666667,2.1333333333333333
641,-46.93333333333333,-477.8666666666667,-17.066666666666666
642,-42.666666666666664,-490.6666666666667,-29.866666666666667
643,-51.2,-488.5333333333333,-17.066666666666666
644,-55.46666666666667,-486.4,0.0
645,-57.6,-488.5333333333333,-8.533333333333333
646,-76.8,-486.4,-4.266666666666667
647,-85.33333333333333,-484.26666666666665,6.4
648,-93.86666666666666,-484.26666666666665,-2.1333333333333333
649,-110.93333333333334,-484.26666666666665,-19.2
650,-117.33333333333333,-486.4,-23.466666666666665
651,-130.13333333333333,-486.4,-25.6
652,-125.86666666666666,-514.1333333333333,-34.13333333333333
653,-121.6,-520.5333333333333,-25.6
654,-108.8,-518.4,-12.8
655,-85.33333333333333,-537.6,-25.6
656,-78.93333333333334,-529.0666666666666,-10.666666666666666
657,-81.06666666666666,-548.2666666666667,-17.066666666666666
658,-64.0,-563.2,-2.1333333333333333
659,-46.93333333333333,-573.8666666666667,14.933333333333334
660,-44.8,-593.0666666666666,0.0
661,-36.266666666666666,-608.0,23.466666666666665
662,-27.733333333333334,-629.3333333333334,19.2
663,-21.333333333333332,-640.0,8.533333333333333
664,-6.4,-635.7333333333333,-2.1333333333333333
665,21.333333333333332,-625.0666666666666,-2.1333333333333333
666,27.733333333333334,-599.4666666666667,-12.8
667,29.866666666666667,-573.8666666666667,-29.866666666666667
668,36.266666666666666,-556.8,-34.13333333333333
669,40.53333333333333,-550.4,-53.333333333333336
670,44.8,-529.0666666666666,-51.2
671,53.333333333333336,-518.4,-66.13333333333333
672,44.8,-507.73333333333335,-61.86666666666667
673,25.6,-509.8666666666667,-64.0
674,12.8,-507.73333333333335,-57.6
675,23.466666666666665,-509.8666666666667,-66.13333333333333
676,34.13333333333333,-522.6666666666666,-83.2
677,25.6,-522.6666666666666,-85.33333333333333
678,34.13333333333333,-546.1333333333333,-81.06666666666666
679,34.13333333333333,-578.1333333333333,-104.53333333333333
680,34.13333333333333,-601.6,-104.53333333333333
681,27.733333333333334,-618.6666666666666,-117.33333333333333
682,27.733333333333334,-640.0,-119.46666666666667
683,29.866666666666667,-654.9333333333333,-132.26666666666665
684,32.0,-663.4666666666667,-153.6
685,32.0,-663.4666666666667,-168.53333333333333
686,17.066666666666666,-669.8666666666667,-181.33333333333334
687,10.666666666666666,-669.8666666666667,-189.86666666666667
688,-4.266666666666667,-676.2666666666667,-204.8
689,0.0,-665.6,-224.0
690,-4.266666666666667,-669.8666666666667,-245.33333333333334
691,-14.933333333333334,-669.8666666666667,-247.46666666666667
692,-23.466666666666665,-680.5333333333333,-253.86666666666667
693,-25.6,-680.5333333333333,-236.79999999999998
694,-29.866666666666667,-682.6666666666666,-236.79999999999998
695,-40.53333333333333,-674.1333333333333,-234.66666666666666
696,-34.13333333333333,-665.6,-243.2
697,-21.333333333333332,-648.5333333333333,-256.0
698,-10.666666666666666,-635.7333333333333,-260.26666666666665
699,2.1333333333333333,-618.6666666666666,-283.73333333333335
700,21.333333333333332,-593.0666666666666,-307.2
701,38.4,-569.6,-307.2
702,64.0,-552.5333333333333,-300.8
703,96.0,-520.5333333333333,-275.2
704,113.06666666666666,-484.26666666666665,-258.1333333333333
705,134.4,-454.4,-249.6
706,153.6,-441.59999999999997,-228.26666666666665
707,179.2,-422.4,-209.06666666666666
708,228.26666666666665,-426.6666666666667,-198.4
709,247.46666666666667,-426.6666666666667,-192.0
710,266.6666666666667,-443.73333333333335,-196.26666666666665
711,245.33333333333334,-471.46666666666664,-206.93333333333334
712,204.8,-494.93333333333334,-213.33333333333334
713,142.93333333333334,-524.8,-224.0
714,147.2,-599.4666666666667,-288.0
715,134.4,-644.2666666666667,-298.6666666666667
716,74.66666666666667,-686.9333333333333,-275.2
717,23.466666666666665,-710.4,-243.2
718,-10.666666666666666,-765.8666666666667,-243.2
719,-53.333333333333336,-808.5333333333333,-236.79999999999998
720,-87.46666666666667,-893.8666666666667,-226.13333333333333
721,-149.33333333333334,-968.5333333333333,-211.2
722,-200.53333333333333,-1060.2666666666667,-202.66666666666666
723,-270.93333333333334,-1132.8,-198.4
724,-311.46666666666664,-1158.4,-162.13333333333333
725,-341.3333333333333,-1220.2666666666667,-183.46666666666667
726,-341.3333333333333,-1218.1333333333332,-34.13333333333333
727,-302.93333333333334,-1252.2666666666667,34.13333333333333
728,-241.06666666666666,-1262.9333333333334,8.533333333333333
729,-160.0,-1299.2,115.2
730,-100.26666666666667,-1267.2,91.73333333333333
731,-64.0,-1145.6,-4.266666666666667
732,-76.8,-1083.7333333333333,-19.2
733,-93.86666666666666,-957.8666666666667,-44.8
734,-104.53333333333333,-840.5333333333333,-125.86666666666666
735,-68.26666666666667,-778.6666666666666,-138.66666666666666
736,8.533333333333333,-689.0666666666666,-162.13333333333333
737,27.733333333333334,-590.9333333333333,-104.53333333333333
738,61.86666666666667,-509.8666666666667,-59.733333333333334
739,85.33333333333333,-428.8,-34.13333333333333
740,134.4,-337.06666666666666,27.733333333333334
741,179.2,-238.93333333333334,66.13333333333333
742,189.86666666666667,-128.0,115.2
743,162.13333333333333,-25.6,108.8
744,157.86666666666667,70.4,115.2
745,132.26666666666665,140.8,115.2
746,121.6,183.46666666666667,125.86666666666666
747,113.06666666666666,215.46666666666667,123.73333333333333
748,98.13333333333333,228.26666666666665,160.0
749,89.6,215.46666666666667,228.26666666666665
750,61.86666666666667,209.06666666666666,285.8666666666667
751,49.06666666666666,219.73333333333332,339.2
752,21.333333333333332,194.13333333333333,388.26666666666665
753,38.4,185.6,439.46666666666664
754,51.2,168.53333333333333,458.6666666666667
755,70.4,130.13333333333333,477.8666666666667
756,100.26666666666667,85.33333333333333,445.8666666666667
757,130.13333333333333,14.933333333333334,424.5333333333333
758,170.66666666666666,-44.8,371.2
759,181.33333333333334,-96.0,307.2
760,196.26666666666665,-106.66666666666667,251.73333333333332
761,217.6,-110.93333333333334,209.06666666666666
762,243.2,-104.53333333333333,202.66666666666666
763,251.73333333333332,-96.0,206.93333333333334
764,245.33333333333334,-104.53333333333333,164.26666666666665
765,194.13333333333333,-96.0,38.4
766,104.53333333333333,-72.53333333333333,-166.4
767,2.1333333333333333,-64.0,-537.6
768,-23.466666666666665,-87.46666666666667,-932.2666666666667
769,44.8,-174.93333333333334,-1399.4666666666667
770,187.73333333333332,-347.73333333333335,-1698.1333333333332
771,324.26666666666665,-704.0,-1736.5333333333333
772,396.8,-1077.3333333333333,-1457.0666666666666
773,437.3333333333333,-1361.0666666666666,-878.9333333333333
774,302.93333333333334,-1646.9333333333334,66.13333333333333
775,226.13333333333333,-1943.4666666666667,582.4
776,330.6666666666667,-1902.9333333333334,332.8
777,514.1333333333333,-1572.2666666666667,-149.33333333333334
778,168.53333333333333,-1186.1333333333332,-341.3333333333333
779,-179.2,-938.6666666666666,-546.1333333333333
780,-322.1333333333333,-917.3333333333334,-706.1333333333333
781,-298.6666666666667,-1130.6666666666667,-793.6
782,-364.8,-1100.8,-855.4666666666667
783,-477.8666666666667,-968.5333333333333,-889.6
784,-390.4,-896.0,-823.4666666666667
785,-256.0,-870.4,-765.8666666666667
786,-89.6,-827.7333333333333,-644.2666666666667
787,106.66666666666667,-797.8666666666667,-516.2666666666667
788,213.33333333333334,-774.4,-424.5333333333333
789,266.6666666666667,-765.8666666666667,-341.3333333333333
790,275.2,-793.6,-247.46666666666667
791,226.13333333333333,-814.9333333333333,-160.0
792,149.33333333333334,-857.6,-130.13333333333333
793,49.06666666666666,-891.7333333333333,-42.666666666666664
794,-42.666666666666664,-906.6666666666666,25.6
795,-66.13333333333333,-889.6,38.4
796,-25.6,-859.7333333333333,70.4
797,-12.8,-817.0666666666666,96.0
798,14.933333333333334,-750.9333333333333,70.4
799,29.866666666666667,-706.1333333333333,-27.733333333333334
800,12.8,-663.4666666666667,-100.26666666666667
801,29.866666666666667,-608.0,-121.6
802,17.066666666666666,-563.2,-74.66666666666667
803,14.933333333333334,-556.8,-32.0
804,40.53333333333333,-567.4666666666667,85.33333333333333
805,91.73333333333333,-610.1333333333333,209.06666666666666
806,162.13333333333333,-654.9333333333333,277.3333333333333
807,142.93333333333334,-661.3333333333334,324.26666666666665
808,91.73333333333333,-665.6,347.73333333333335
809,64.0,-640.0,375.46666666666664
810,85.33333333333333,-610.1333333333333,354.1333333333333
811,108.8,-569.6,266.6666666666667
812,113.06666666666666,-522.6666666666666,251.73333333333332
813,142.93333333333334,-494.93333333333334,251.73333333333332
814,125.86666666666666,-477.8666666666667,245.33333333333334
815,117.33333333333333,-471.46666666666664,279.46666666666664
816,91.73333333333333,-462.93333333333334,313.6
817,70.4,-450.1333333333333,364.8
818,42.666666666666664,-448.0,384.0
819,61.86666666666667,-441.59999999999997,407.46666666666664
820,64.0,-409.6,418.1333333333333
821,110.93333333333334,-375.46666666666664,428.8
822,100.26666666666667,-322.1333333333333,394.6666666666667
823,81.06666666666666,-245.33333333333334,349.8666666666667
824,21.333333333333332,-168.53333333333333,328.5333333333333
825,-14.933333333333334,-121.6,275.2
826,-29.866666666666667,-106.66666666666667,228.26666666666665
827,-23.466666666666665,-106.66666666666667,211.2
828,-12.8,-81.06666666666666,183.46666666666667
829,2.1333333333333333,-14.933333333333334,192.0
830,10.666666666666666,55.46666666666667,185.6
831,40.53333333333333,113.06666666666666,157.86666666666667
832,64.0,117.33333333333333,110.93333333333334
833,74.66666666666667,64.0,34.13333333333333
834,32.0,25.6,10.666666666666666
835,0.0,-4.266666666666667,-40.53333333333333
836,-23.466666666666665,-51.2,-123.73333333333333
837,-25.6,-93.86666666666666,-247.46666666666667
838,8.533333333333333,-102.4,-345.6
839,32.0,-59.733333333333334,-471.46666666666664
840,76.8,-46.93333333333333,-708.2666666666667
841,117.33333333333333,-76.8,-979.1999999999999
842,192.0,-224.0,-1373.8666666666666
843,209.06666666666666,-571.7333333333333,-1755.7333333333333
844,78.93333333333334,-827.7333333333333,-1905.0666666666666
845,-104.53333333333333,-1098.6666666666667,-2052.2666666666664
846,-494.93333333333334,-1337.6,-2233.6
847,-1064.5333333333333,-1376.0,-1838.9333333333334
848,-1476.2666666666667,-1619.2,-433.06666666666666
849,-1230.9333333333334,-2054.4,601.6
850,-684.8,-2242.133333333333,620.8
851,0.0,-1922.1333333333332,249.6
852,625.0666666666666,-1651.2,-32.0
853,1120.0,-1318.4,-68.26666666666667
854,1181.8666666666666,-1384.5333333333333,-322.1333333333333
855,970.6666666666666,-1422.9333333333334,-569.6
856,910.9333333333333,-1431.4666666666667,-748.8
857,870.4,-1399.4666666666667,-808.5333333333333
858,721.0666666666666,-1297.0666666666666,-740.2666666666667
859,467.2,-1175.4666666666667,-571.7333333333333
860,213.33333333333334,-1051.7333333333333,-482.1333333333333
861,23.466666666666665,-885.3333333333334,-384.0
862,-46.93333333333333,-716.8,-281.6
863,-76.8,-614.4,-243.2
864,-78.93333333333334,-460.8,-211.2
865,-98.13333333333333,-349.8666666666667,-168.53333333333333
866,-140.8,-264.5333333333333,-87.46666666666667
867,-185.6,-219.73333333333332,-32.0
868,-172.8,-181.33333333333334,-46.93333333333333
869,-130.13333333333333,-166.4,-76.8
870,-76.8,-153.6,-17.066666666666666
871,-81.06666666666666,-151.46666666666667,19.2
872,-102.4,-147.2,2.1333333333333333
873,-155.73333333333332,-200.53333333333333,-125.86666666666666
874,-183.46666666666667,-266.6666666666667,-168.53333333333333
875,-196.26666666666665,-315.73333333333335,-142.93333333333334
876,-213.33333333333334,-356.26666666666665,-49.06666666666666
877,-224.0,-384.0,42.666666666666664
878,-215.46666666666667,-418.1333333333333,117.33333333333333
879,-164.26666666666665,-458.6666666666667,164.26666666666665
880,-110.93333333333334,-488.5333333333333,206.93333333333334
881,-49.06666666666666,-492.8,185.6
882,-23.466666666666665,-492.8,196.26666666666665
883,8.533333333333333,-450.1333333333333,166.4
884,55.46666666666667,-403.2,170.66666666666666
885,76.8,-362.6666666666667,183.46666666666667
886,106.66666666666667,-328.5333333333333,202.66666666666666
887,110.93333333333334,-279.46666666666664,236.79999999999998
888,100.26666666666667,-236.79999999999998,260.26666666666665
889,104.53333333333333,-198.4,270.93333333333334
890,81.06666666666666,-168.53333333333333,296.5333333333333
891,44.8,-153.6,309.3333333333333
892,10.666666666666666,-134.4,349.8666666666667
893,-10.666666666666666,-136.53333333333333,345.6
894,-25.6,-108.8,347.73333333333335
895,-25.6,-102.4,285.8666666666667
896,-25.6,-108.8,192.0
897,-23.466666666666665,-134.4,68.26666666666667
898,-46.93333333333333,-162.13333333333333,-55.46666666666667
899,-74.66666666666667,-177.06666666666666,-142.93333333333334
900,-115.2,-168.53333333333333,-172.8
901,-132.26666666666665,-145.06666666666666,-206.93333333333334
902,-164.26666666666665,-110.93333333333334,-238.93333333333334
903,-160.0,-125.86666666666666,-300.8
904,-121.6,-168.53333333333333,-347.73333333333335
905,-81.06666666666666,-234.66666666666666,-283.73333333333335
906,-19.2,-305.06666666666666,-194.13333333333333
907,40.53333333333333,-362.6666666666667,-145.06666666666666
908,115.2,-416.0,-76.8
909,179.2,-441.59999999999997,2.1333333333333333
910,204.8,-469.3333333333333,117.33333333333333
911,243.2,-509.8666666666667,174.93333333333334
912,234.66666666666666,-512.0,183.46666666666667
913,219.73333333333332,-535.4666666666667,155.73333333333332
914,215.46666666666667,-571.7333333333333,42.666666666666664
915,200.53333333333333,-590.9333333333333,-110.93333333333334
916,213.33333333333334,-618.6666666666666,-347.73333333333335
917,206.93333333333334,-676.2666666666667,-590.9333333333333
918,196.26666666666665,-772.2666666666667,-819.2
919,177.06666666666666,-913.0666666666666,-979.1999999999999
920,189.86666666666667,-1038.9333333333334,-1066.6666666666667
921,277.3333333333333,-1224.5333333333333,-1102.9333333333334
922,341.3333333333333,-1337.6,-1026.1333333333332
923,313.6,-1401.6,-716.8
924,236.79999999999998,-1422.9333333333334,-249.6
925,177.06666666666666,-1369.6,113.06666666666666
926,196.26666666666665,-1282.1333333333332,249.6
927,247.46666666666667,-1256.5333333333333,285.8666666666667
928,147.2,-1222.4,251.73333333333332
929,-14.933333333333334,-1154.1333333333332,202.66666666666666
930,-172.8,-1053.8666666666666,36.266666666666666
931,-243.2,-898.1333333333333,-110.93333333333334
932,-232.53333333333333,-765.8666666666667,-243.2
933,-217.6,-684.8,-356.26666666666665
934,-198.4,-661.3333333333334,-428.8
935,-164.26666666666665,-678.4,-456.5333333333333
936,-121.6,-699.7333333333333,-433.06666666666666
937,-61.86666666666667,-738.1333333333333,-398.93333333333334
938,-8.533333333333333,-753.0666666666666,-330.6666666666667
939,40.53333333333333,-770.1333333333333,-273.06666666666666
940,72.53333333333333,-721.0666666666666,-253.86666666666667
941,87.46666666666667,-650.6666666666666,-232.53333333333333
942,21.333333333333332,-541.8666666666667,-183.46666666666667
943,-66.13333333333333,-413.8666666666667,-128.0
944,-108.8,-352.0,-138.66666666666666
945,-102.4,-328.5333333333333,-170.66666666666666
946,-81.06666666666666,-328.5333333333333,-115.2
947,-61.86666666666667,-364.8,-51.2
948,-21.333333333333332,-392.5333333333333,-36.266666666666666
949,36.266666666666666,-411.73333333333335,-29.866666666666667
950,61.86666666666667,-445.8666666666667,-68.26666666666667
951,98.13333333333333,-437.3333333333333,-119.46666666666667
952,110.93333333333334,-428.8,-123.73333333333333
953,108.8,-392.5333333333333,-177.06666666666666
954,96.0,-366.93333333333334,-187.73333333333332
955,74.66666666666667,-354.1333333333333,-177.06666666666666
956,57.6,-349.8666666666667,-106.66666666666667
957,36.266666666666666,-360.5333333333333,-76.8
958,21.333333333333332,-375.46666666666664,-44.8
959,-4.266666666666667,-386.1333333333333,0.0
960,-8.533333333333333,-392.5333333333333,6.4
961,-12.8,-390.4,21.333333333333332
962,-6.4,-386.1333333333333,23.466666666666665
963,8.533333333333333,-369.06666666666666,10.666666666666666
964,29.866666666666667,-352.0,8.533333333333333
965,49.06666666666666,-328.5333333333333,2.1333333333333333
966,68.26666666666667,-337.06666666666666,-14.933333333333334
967,61.86666666666667,-332.8,-8.533333333333333
968,59.733333333333334,-328.5333333333333,-2.1333333333333333
969,64.0,-345.6,-10.666666666666666
970,49.06666666666666,-356.26666666666665,-17.066666666666666
971,51.2,-379.73333333333335,-8.533333333333333
972,44.8,-398.93333333333334,-4.266666666666667
973,46.93333333333333,-416.0,10.666666666666666
974,42.666666666666664,-416.0,40.53333333333333
975,25.6,-418.1333333333333,66.13333333333333
976,8.533333333333333,-422.4,72.53333333333333
977,-2.1333333333333333,-430.93333333333334,70.4
978,-14.933333333333334,-435.2,55.46666666666667
979,-23.466666666666665,-420.26666666666665,55.46666666666667
980,-23.466666666666665,-418.1333333333333,46.93333333333333
981,-23.466666666666665,-413.8666666666667,29.866666666666667
982,-25.6,-401.06666666666666,27.733333333333334
983,-29.866666666666667,-403.2,32.0
984,-32.0,-396.8,32.0
985,-29.866666666666667,-394.6666666666667,40.53333333333333
986,-25.6,-398.93333333333334,42.666666666666664
987,-17.066666666666666,-407.46666666666664,34.13333333333333
988,-6.4,-413.8666666666667,42.666666666666664
989,12.8,-424.5333333333333,40.53333333333333
990,25.6,-420.26666666666665,53.333333333333336
991,36.266666666666666,-422.4,32.0
992,49.06666666666666,-437.3333333333333,19.2
993,40.53333333333333,-450.1333333333333,-19.2
994,19.2,-465.06666666666666,-19.2
995,-14.933333333333334,-490.6666666666667,-44.8
996,-49.06666666666666,-526.9333333333333,-40.53333333333333
997,-93.86666666666666,-544.0,-36.266666666666666
998,-121.6,-561.0666666666666,-8.533333333333333
999,-142.93333333333334,-573.8666666666667,8.533333333333333
1000,-162.13333333333333,-576.0,34.13333333333333
1001,-170.66666666666666,-586.6666666666666,59.733333333333334
1002,-174.93333333333334,-597.3333333333334,66.13333333333333
1003,-185.6,-595.2,110.93333333333334
1004,-187.73333333333332,-595.2,121.6
1005,-174.93333333333334,-593.0666666666666,119.46666666666667
1006,-168.53333333333333,-610.1333333333333,89.6
1007,-142.93333333333334,-612.2666666666667,81.06666666666666
1008,-134.4,-620.8,51.2
1009,-108.8,-646.4,2.1333333333333333
1010,-83.2,-657.0666666666666,-25.6
1011,-74.66666666666667,-680.5333333333333,-72.53333333333333
1012,-49.06666666666666,-712.5333333333333,-113.06666666666666
1013,-32.0,-748.8,-157.86666666666667
1014,-12.8,-772.2666666666667,-187.73333333333332
1015,-4.266666666666667,-802.1333333333333,-230.4
1016,12.8,-821.3333333333334,-273.06666666666666
1017,12.8,-836.2666666666667,-290.1333333333333
1018,-6.4,-838.4,-311.46666666666664
1019,-25.6,-832.0,-349.8666666666667
1020,-53.333333333333336,-812.8,-373.3333333333333
1021,-51.2,-778.6666666666666,-384.0
1022,-2.1333333333333333,-740.2666666666667,-362.6666666666667
1023,66.13333333333333,-710.4,-341.3333333333333
1024,110.93333333333334,-706.1333333333333,-339.2
1025,162.13333333333333,-718.9333333333333,-283.73333333333335
1026,200.53333333333333,-763.7333333333333,-253.86666666666667
1027,236.79999999999998,-819.2,-185.6
1028,268.8,-851.1999999999999,-123.73333333333333
1029,326.4,-878.9333333333333,-108.8
1030,373.3333333333333,-896.0,-91.73333333333333
1031,384.0,-883.1999999999999,-76.8
1032,375.46666666666664,-870.4,-91.73333333333333
1033,341.3333333333333,-844.8,-104.53333333333333
1034,283.73333333333335,-823.4666666666667,-113.06666666666666
1035,234.66666666666666,-785.0666666666666,-130.13333333333333
1036,192.0,-744.5333333333333,-110.93333333333334
1037,160.0,-721.0666666666666,-121.6
1038,119.46666666666667,-699.7333333333333,-113.06666666666666
1039,106.66666666666667,-674.1333333333333,-106.66666666666667
1040,76.8,-622.9333333333333,-100.26666666666667
1041,64.0,-576.0,-102.4
1042,59.733333333333334,-524.8,-117.33333333333333
1043,49.06666666666666,-469.3333333333333,-108.8
1044,-2.1333333333333333,-398.93333333333334,-100.26666666666667
1045,-17.066666666666666,-364.8,-130.13333333333333
1046,-10.666666666666666,-337.06666666666666,-145.06666666666666
1047,-12.8,-298.6666666666667,-149.33333333333334
1048,-32.0,-290.1333333333333,-174.93333333333334
1049,-49.06666666666666,-285.8666666666667,-183.46666666666667
1050,-53.333333333333336,-288.0,-174.93333333333334
1051,-46.93333333333333,-294.4,-157.86666666666667
1052,-64.0,-290.1333333333333,-142.93333333333334
1053,-70.4,-309.3333333333333,-149.33333333333334
1054,-64.0,-334.93333333333334,-130.13333333333333
1055,-76.8,-360.5333333333333,-93.86666666666666
1056,-91.73333333333333,-364.8,-61.86666666666667
1057,-91.73333333333333,-366.93333333333334,-32.0
1058,-74.66666666666667,-373.3333333333333,8.533333333333333
1059,-59.733333333333334,-369.06666666666666,23.466666666666665
1060,-27.733333333333334,-366.93333333333334,38.4
1061,-14.933333333333334,-354.1333333333333,44.8
1062,14.933333333333334,-347.73333333333335,25.6
1063,36.266666666666666,-343.46666666666664,17.066666666666666
1064,53.333333333333336,-341.3333333333333,-6.4
1065,68.26666666666667,-343.46666666666664,-27.733333333333334
1066,72.53333333333333,-339.2,-32.0
1067,78.93333333333334,-343.46666666666664,-34.13333333333333
1068,96.0,-349.8666666666667,-32.0
1069,104.53333333333333,-360.5333333333333,-38.4
1070,113.06666666666666,-381.8666666666667,-34.13333333333333
1071,128.0,-394.6666666666667,-21.333333333333332
1072,149.33333333333334,-422.4,-34.13333333333333
1073,153.6,-435.2,-8.533333333333333
1074,177.06666666666666,-448.0,6.4
1075,168.53333333333333,-486.4,4.266666666666667
1076,187.73333333333332,-480.0,17.066666666666666
1077,168.53333333333333,-492.8,34.13333333333333
1078,168.53333333333333,-503.46666666666664,42.666666666666664
1079,166.4,-507.73333333333335,53.333333333333336
1080,157.86666666666667,-503.46666666666664,68.26666666666667
1081,160.0,-505.59999999999997,68.26666666666667
1082,142.93333333333334,-507.73333333333335,76.8
1083,136.53333333333333,-509.8666666666667,70.4
1084,132.26666666666665,-505.59999999999997,68.26666666666667
1085,121.6,-492.8,55.46666666666667
1086,121.6,-486.4,42.666666666666664
1087,119.46666666666667,-475.73333333333335,51.2
1088,113.06666666666666,-473.59999999999997,46.93333333333333
1089,110.93333333333334,-462.93333333333334,40.53333333333333
1090,106.66666666666667,-454.4,23.466666666666665
1091,100.26666666666667,-460.8,23.466666666666665
1092,87.46666666666667,-462.93333333333334,34.13333333333333
1093,83.2,-473.59999999999997,21.333333333333332
1094,72.53333333333333,-477.8666666666667,36.266666666666666
1095,51.2,-488.5333333333333,38.4
1096,40.53333333333333,-503.46666666666664,44.8
1097,27.733333333333334,-518.4,55.46666666666667
1098,17.066666666666666,-531.2,53.333333333333336
1099,14.933333333333334,-546.1333333333333,74.66666666666667
1100,14.933333333333334,-561.0666666666666,76.8
1101,27.733333333333334,-573.8666666666667,87.46666666666667
1102,57.6,-595.2,89.6
1103,78.93333333333334,-612.2666666666667,85.33333333333333
1104,96.0,-618.6666666666666,78.93333333333334
1105,91.73333333333333,-620.8,61.86666666666667
1106,108.8,-633.6,34.13333333333333
1107,106.66666666666667,-622.9333333333333,34.13333333333333
1108,113.06666666666666,-599.4666666666667,29.866666666666667
1109,113.06666666666666,-586.6666666666666,17.066666666666666
1110,115.2,-580.2666666666667,19.2
1111,121.6,-567.4666666666667,36.266666666666666
1112,125.86666666666666,-567.4666666666667,55.46666666666667
1113,153.6,-576.0,78.93333333333334
1114,160.0,-584.5333333333333,104.53333333333333
1115,174.93333333333334,-593.0666666666666,121.6
1116,187.73333333333332,-605.8666666666667,115.2
1117,189.86666666666667,-614.4,115.2
1118,187.73333333333332,-637.8666666666667,102.4
1119,168.53333333333333,-659.2,136.53333333333333
1120,168.53333333333333,-678.4,130.13333333333333
1121,155.73333333333332,-686.9333333333333,119.46666666666667
1122,145.06666666666666,-693.3333333333334,89.6
1123,138.66666666666666,-721.0666666666666,81.06666666666666
1124,128.0,-738.1333333333333,59.733333333333334
1125,130.13333333333333,-748.8,38.4
1126,130.13333333333333,-738.1333333333333,25.6
1127,123.73333333333333,-736.0,14.933333333333334
1128,128.0,-733.8666666666667,-34.13333333333333
1129,128.0,-712.5333333333333,-85.33333333333333
1130,138.66666666666666,-695.4666666666667,-145.06666666666666
1131,153.6,-693.3333333333334,-206.93333333333334
1132,162.13333333333333,-693.3333333333334,-234.66666666666666
1133,151.46666666666667,-699.7333333333333,-249.6
1134,128.0,-699.7333333333333,-232.53333333333333
1135,96.0,-693.3333333333334,-204.8
1136,66.13333333333333,-686.9333333333333,-160.0
1137,49.06666666666666,-661.3333333333334,-130.13333333333333
1138,34.13333333333333,-635.7333333333333,-96.0
1139,32.0,-601.6,-89.6
1140,17.066666666666666,-558.9333333333333,-76.8
1141,-14.933333333333334,-529.0666666666666,-89.6
1142,-42.666666666666664,-505.59999999999997,-100.26666666666667
1143,-81.06666666666666,-475.73333333333335,-115.2
1144,-130.13333333333333,-445.8666666666667,-140.8
1145,-170.66666666666666,-437.3333333333333,-166.4
1146,-194.13333333333333,-445.8666666666667,-179.2
1147,-196.26666666666665,-458.6666666666667,-183.46666666666667
1148,-172.8,-477.8666666666667,-181.33333333333334
1149,-151.46666666666667,-486.4,-185.6
1150,-117.33333333333333,-499.2,-166.4
1151,-98.13333333333333,-520.5333333333333,-149.33333333333334
1152,-70.4,-550.4,-128.0
1153,-42.666666666666664,-558.9333333333333,-87.46666666666667
1154,-29.866666666666667,-567.4666666666667,-57.6
1155,2.1333333333333333,-578.1333333333333,-44.8
1156,21.333333333333332,-588.8,-4.266666666666667
1157,59.733333333333334,-595.2,6.4
1158,96.0,-608.0,10.666666666666666
1159,110.93333333333334,-608.0,19.2
1160,123.73333333333333,-601.6,12.8
1161,132.26666666666665,-599.4666666666667,-17.066666666666666
1162,147.2,-593.0666666666666,-53.333333333333336
1163,151.46666666666667,-593.0666666666666,-89.6
1164,138.66666666666666,-569.6,-106.66666666666667
1165,125.86666666666666,-554.6666666666666,-110.93333333333334
1166,117.33333333333333,-544.0,-106.66666666666667
1167,110.93333333333334,-520.5333333333333,-96.0
1168,100.26666666666667,-497.06666666666666,-104.53333333333333
1169,81.06666666666666,-494.93333333333334,-108.8
1170,57.6,-484.26666666666665,-96.0
1171,44.8,-482.1333333333333,-78.93333333333334
1172,21.333333333333332,-462.93333333333334,-55.46666666666667
1173,10.666666666666666,-456.5333333333333,-64.0
1174,2.1333333333333333,-456.5333333333333,-64.0
1175,-14.933333333333334,-433.06666666666666,-53.333333333333336
1176,-25.6,-411.73333333333335,-53.333333333333336
1177,-29.866666666666667,-390.4,-59.733333333333334
1178,-38.4,-388.26666666666665,-68.26666666666667
1179,-53.333333333333336,-369.06666666666666,-76.8
1180,-57.6,-356.26666666666665,-70.4
1181,-66.13333333333333,-358.4,-87.46666666666667
1182,-74.66666666666667,-362.6666666666667,-72.53333333333333
1183,-85.33333333333333,-379.73333333333335,-66.13333333333333
1184,-89.6,-396.8,-61.86666666666667
1185,-91.73333333333333,-405.3333333333333,-59.733333333333334
1186,-89.6,-416.0,-38.4
1187,-81.06666666666666,-424.5333333333333,-32.0
1188,-72.53333333333333,-422.4,-23.466666666666665
1189,-66.13333333333333,-420.26666666666665,-10.666666666666666
1190,-57.6,-424.5333333333333,0.0
1191,-57.6,-430.93333333333334,-12.8
1192,-40.53333333333333,-454.4,-8.533333333333333
1193,-46.93333333333333,-454.4,0.0
1194,-34.13333333333333,-477.8666666666667,-2.1333333333333333
1195,-46.93333333333333,-482.1333333333333,10.666666666666666
1196,-46.93333333333333,-484.26666666666665,6.4
1197,-44.8,-494.93333333333334,8.533333333333333
1198,-55.46666666666667,-497.06666666666666,12.8
1199,-53.333333333333336,-488.5333333333333,-14.933333333333334
1200,-61.86666666666667,-499.2,-6.4
1201,-59.733333333333334,-492.8,-10.666666666666666
1202,-68.26666666666667,-484.26666666666665,-2.1333333333333333
1203,-68.26666666666667,-480.0,6.4
1204,-74.66666666666667,-473.59999999999997,21.333333333333332
1205,-72.53333333333333,-477.8666666666667,44.8
1206,-85.33333333333333,-475.73333333333335,51.2
1207,-74.66666666666667,-469.3333333333333,49.06666666666666
1208,-72.53333333333333,-469.3333333333333,59.733333333333334
1209,-68.26666666666667,-460.8,59.733333333333334
1210,-57.6,-471.46666666666664,59.733333333333334
1211,-27.733333333333334,-477.8666666666667,42.666666666666664
1212,10.666666666666666,-456.5333333333333,21.333333333333332
1213,8.533333333333333,-467.2,14.933333333333334
1214,12.8,-503.46666666666664,21.333333333333332
1215,4.266666666666667,-486.4,-12.8
1216,42.666666666666664,-526.9333333333333,36.266666666666666
1217,53.333333333333336,-550.4,32.0
1218,59.733333333333334,-552.5333333333333,10.666666666666666
1219,53.333333333333336,-578.1333333333333,32.0
1220,42.666666666666664,-593.0666666666666,21.333333333333332
1221,29.866666666666667,-603.7333333333333,17.066666666666666
1222,19.2,-616.5333333333333,-10.666666666666666
1223,-6.4,-620.8,-34.13333333333333
1224,-19.2,-631.4666666666667,-27.733333333333334
1225,-40.53333333333333,-640.0,-27.733333333333334
1226,-57.6,-646.4,-25.6
1227,-68.26666666666667,-650.6666666666666,-12.8
1228,-78.93333333333334,-642.1333333333333,6.4
1229,-89.6,-635.7333333333333,17.066666666666666
1230,-91.73333333333333,-631.4666666666667,27.733333333333334
1231,-100.26666666666667,-616.5333333333333,40.53333333333333
1232,-115.2,-620.8,51.2
1233,-123.73333333333333,-620.8,66.13333333333333
1234,-125.86666666666666,-622.9333333333333,55.46666666666667
1235,-115.2,-633.6,64.0
1236,-110.93333333333334,-640.0,49.06666666666666
1237,-102.4,-659.2,32.0
1238,-91.73333333333333,-661.3333333333334,34.13333333333333
1239,-68.26666666666667,-667.7333333333333,17.066666666666666
1240,-40.53333333333333,-691.2,0.0
1241,-23.466666666666665,-701.8666666666667,-17.066666666666666
1242,-19.2,-721.0666666666666,-12.8
1243,-25.6,-736.0,-34.13333333333333
1244,-29.866666666666667,-742.4,-42.666666666666664
1245,-36.266666666666666,-763.7333333333333,-72.53333333333333
1246,-40.53333333333333,-776.5333333333333,-119.46666666666667
1247,-44.8,-789.3333333333334,-136.53333333333333
1248,-66.13333333333333,-795.7333333333333,-155.73333333333332
1249,-87.46666666666667,-797.8666666666667,-198.4
1250,-106.66666666666667,-793.6,-215.46666666666667
1251,-113.06666666666666,-789.3333333333334,-236.79999999999998
1252,-91.73333333333333,-768.0,-236.79999999999998
1253,-53.333333333333336,-731.7333333333333,-224.0
1254,-25.6,-695.4666666666667,-209.06666666666666
1255,-4.266666666666667,-663.4666666666667,-198.4
1256,25.6,-616.5333333333333,-209.06666666666666
1257,64.0,-578.1333333333333,-209.06666666666666
1258,106.66666666666667,-556.8,-198.4
1259,142.93333333333334,-539.7333333333333,-196.26666666666665
1260,200.53333333333333,-520.5333333333333,-181.33333333333334
1261,236.79999999999998,-499.2,-174.93333333333334
1262,268.8,-499.2,-177.06666666666666
1263,294.4,-509.8666666666667,-181.33333333333334
1264,305.06666666666666,-503.46666666666664,-155.73333333333332
1265,281.6,-503.46666666666664,-149.33333333333334
1266,270.93333333333334,-497.06666666666666,-142.93333333333334
1267,238.93333333333334,-497.06666666666666,-130.13333333333333
1268,209.06666666666666,-512.0,-117.33333333333333
1269,181.33333333333334,-539.7333333333333,-113.06666666666666
1270,157.86666666666667,-550.4,-104.53333333333333
1271,121.6,-541.8666666666667,-102.4
1272,108.8,-539.7333333333333,-89.6
1273,91.73333333333333,-526.9333333333333,-76.8
1274,70.4,-516.2666666666667,-64.0
1275,42.666666666666664,-514.1333333333333,-49.06666666666666
1276,12.8,-514.1333333333333,-55.46666666666667
1277,-17.066666666666666,-526.9333333333333,-59.733333333333334
1278,-40.53333333333333,-537.6,-49.06666666666666
1279,-68.26666666666667,-552.5333333333333,-61.86666666666667
1280,-85.33333333333333,-552.5333333333333,-51.2
1281,-91.73333333333333,-546.1333333333333,-55.46666666666667
1282,-93.86666666666666,-537.6,-49.06666666666666
1283,-96.0,-529.0666666666666,-66.13333333333333
1284,-93.86666666666666,-539.7333333333333,-85.33333333333333
1285,-100.26666666666667,-529.0666666666666,-83.2
1286,-113.06666666666666,-529.0666666666666,-81.06666666666666
1287,-98.13333333333333,-512.0,-64.0
1288,-72.53333333333333,-499.2,-57.6
1289,-61.86666666666667,-473.59999999999997,-51.2
1290,-49.06666666666666,-448.0,-53.333333333333336
1291,-29.866666666666667,-430.93333333333334,-36.266666666666666
1292,-14.933333333333334,-413.8666666666667,-42.666666666666664
1293,2.1333333333333333,-401.06666666666666,-36.266666666666666
1294,23.466666666666665,-392.5333333333333,-42.666666666666664
1295,36.266666666666666,-388.26666666666665,-46.93333333333333
1296,42.666666666666664,-375.46666666666664,-51.2
1297,61.86666666666667,-373.3333333333333,-53.333333333333336
1298,89.6,-377.6,-46.93333333333333
1299,110.93333333333334,-384.0,-44.8
1300,128.0,-392.5333333333333,-25.6
1301,145.06666666666666,-401.06666666666666,-36.266666666666666
1302,157.86666666666667,-409.6,-23.466666666666665
1303,172.8,-418.1333333333333,-8.533333333333333
1304,181.33333333333334,-437.3333333333333,-12.8
1305,185.6,-437.3333333333333,-4.266666666666667
1306,179.2,-443.73333333333335,-10.666666666666666
1307,172.8,-445.8666666666667,-4.266666666666667
1308,177.06666666666666,-450.1333333333333,-8.533333333333333
1309,164.26666666666665,-445.8666666666667,-17.066666666666666
1310,160.0,-450.1333333333333,-17.066666666666666
1311,164.26666666666665,-443.73333333333335,-6.4
1312,155.73333333333332,-450.1333333333333,-8.533333333333333
1313,147.2,-443.73333333333335,10.666666666666666
1314,140.8,-439.46666666666664,12.8
1315,134.4,-448.0,27.733333333333334
1316,121.6,-456.5333333333333,29.866666666666667
1317,115.2,-452.26666666666665,27.733333333333334
1318,113.06666666666666,-465.06666666666666,29.866666666666667
1319,106.66666666666667,-484.26666666666665,19.2
1320,100.26666666666667,-469.3333333333333,40.53333333333333
1321,100.26666666666667,-477.8666666666667,32.0
1322,93.86666666666666,-486.4,42.666666666666664
1323,89.6,-477.8666666666667,44.8
1324,85.33333333333333,-475.73333333333335,49.06666666666666
1325,78.93333333333334,-462.93333333333334,44.8
1326,66.13333333333333,-462.93333333333334,51.2
1327,70.4,-460.8,57.6
1328,57.6,-465.06666666666666,55.46666666666667
1329,59.733333333333334,-480.0,53.333333333333336
1330,61.86666666666667,-486.4,53.333333333333336
1331,61.86666666666667,-499.2,51.2
1332,59.733333333333334,-505.59999999999997,46.93333333333333
1333,42.666666666666664,-516.2666666666667,44.8
1334,29.866666666666667,-537.6,51.2
1335,14.933333333333334,-548.2666666666667,49.06666666666666
1336,14.933333333333334,-569.6,40.53333333333333
1337,32.0,-595.2,36.266666666666666
1338,27.733333333333334,-603.7333333333333,34.13333333333333
1339,25.6,-629.3333333333334,27.733333333333334
1340,29.866666666666667,-620.8,23.466666666666665
1341,44.8,-620.8,19.2
1342,59.733333333333334,-622.9333333333333,23.466666666666665
1343,55.46666666666667,-614.4,19.2
1344,61.86666666666667,-605.8666666666667,25.6
1345,66.13333333333333,-590.9333333333333,32.0
1346,72.53333333333333,-595.2,57.6
1347,83.2,-597.3333333333334,76.8
1348,91.73333333333333,-603.7333333333333,110.93333333333334
1349,93.86666666666666,-614.4,134.4
1350,106.66666666666667,-627.2,168.53333333333333
1351,110.93333333333334,-644.2666666666667,172.8
1352,98.13333333333333,-629.3333333333334,166.4
1353,104.53333333333333,-648.5333333333333,168.53333333333333
1354,98.13333333333333,-654.9333333333333,181.33333333333334
1355,85.33333333333333,-657.0666666666666,166.4
1356,74.66666666666667,-667.7333333333333,153.6
1357,74.66666666666667,-672.0,110.93333333333334
1358,68.26666666666667,-684.8,76.8
1359,70.4,-691.2,46.93333333333333
1360,64.0,-691.2,34.13333333333333
1361,51.2,-689.0666666666666,29.866666666666667
1362,51.2,-672.0,12.8
1363,57.6,-642.1333333333333,12.8
1364,78.93333333333334,-614.4,-21.333333333333332
1365,110.93333333333334,-616.5333333333333,-89.6
1366,123.73333333333333,-629.3333333333334,-151.46666666666667
1367,130.13333333333333,-648.5333333333333,-194.13333333333333
1368,136.53333333333333,-689.0666666666666,-198.4
1369,130.13333333333333,-740.2666666666667,-172.8
1370,123.73333333333333,-787.2,-147.2
1371,85.33333333333333,-810.6666666666666,-108.8
1372,66.13333333333333,-814.9333333333333,-83.2
1373,25.6,-782.9333333333333,-81.06666666666666
1374,21.333333333333332,-729.6,-78.93333333333334
1375,4.266666666666667,-661.3333333333334,-121.6
1376,0.0,-610.1333333333333,-162.13333333333333
1377,-12.8,-539.7333333333333,-194.13333333333333
1378,-40.53333333333333,-469.3333333333333,-219.73333333333332
1379,-46.93333333333333,-437.3333333333333,-236.79999999999998
1380,-68.26666666666667,-407.46666666666664,-228.26666666666665
1381,-83.2,-388.26666666666665,-213.33333333333334
1382,-85.33333333333333,-375.46666666666664,-200.53333333333333
1383,-81.06666666666666,-373.3333333333333,-183.46666666666667
1384,-83.2,-375.46666666666664,-172.8
1385,-72.53333333333333,-392.5333333333333,-149.33333333333334
1386,-51.2,-409.6,-117.33333333333333
1387,-42.666666666666664,-420.26666666666665,-87.46666666666667
1388,-23.466666666666665,-437.3333333333333,-53.333333333333336
1389,-21.333333333333332,-456.5333333333333,-34.13333333333333
1390,-10.666666666666666,-475.73333333333335,-19.2
1391,14.933333333333334,-505.59999999999997,-6.4
1392,38.4,-529.0666666666666,-14.933333333333334
1393,70.4,-546.1333333333333,-17.066666666666666
1394,87.46666666666667,-576.0,-23.466666666666665
1395,98.13333333333333,-595.2,-32.0
1396,100.26666666666667,-618.6666666666666,-49.06666666666666
1397,110.93333333333334,-637.8666666666667,-55.46666666666667
1398,132.26666666666665,-640.0,-68.26666666666667
1399,132.26666666666665,-635.7333333333333,-85.33333333333333
1400,134.4,-612.2666666666667,-106.66666666666667
1401,128.0,-593.0666666666666,-125.86666666666666
1402,123.73333333333333,-563.2,-128.0
1403,110.93333333333334,-548.2666666666667,-134.4
1404,91.73333333333333,-535.4666666666667,-117.33333333333333
1405,81.06666666666666,-533.3333333333334,-113.06666666666666
1406,68.26666666666667,-524.8,-98.13333333333333
1407,57.6,-518.4,-85.33333333333333
1408,40.53333333333333,-512.0,-74.66666666666667
1409,40.53333333333333,-499.2,-61.86666666666667
1410,32.0,-486.4,-57.6
1411,27.733333333333334,-467.2,-59.733333333333334
1412,14.933333333333334,-450.1333333333333,-55.46666666666667
1413,-4.266666666666667,-437.3333333333333,-57.6
1414,-12.8,-420.26666666666665,-51.2
1415,-23.466666666666665,-409.6,-55.46666666666667
1416,-36.266666666666666,-392.5333333333333,-32.0
1417,-49.06666666666666,-384.0,-25.6
1418,-51.2,-381.8666666666667,-40.53333333333333
1419,-68.26666666666667,-388.26666666666665,-38.4
1420,-70.4,-388.26666666666665,-46.93333333333333
1421,-87.46666666666667,-390.4,-40.53333333333333
1422,-89.6,-392.5333333333333,-42.666666666666664
1423,-96.0,-398.93333333333334,-46.93333333333333
1424,-93.86666666666666,-413.8666666666667,-53.333333333333336
1425,-87.46666666666667,-430.93333333333334,-66.13333333333333
1426,-74.66666666666667,-454.4,-72.53333333333333
1427,-76.8,-467.2,-68.26666666666667
1428,-68.26666666666667,-497.06666666666666,-55.46666666666667
1429,-70.4,-501.3333333333333,-34.13333333333333
1430,-72.53333333333333,-507.73333333333335,-25.6
1431,-68.26666666666667,-512.0,-17.066666666666666
1432,-51.2,-512.0,-23.466666666666665
1433,-49.06666666666666,-507.73333333333335,-25.6
1434,-42.666666666666664,-509.8666666666667,-17.066666666666666
1435,-42.666666666666664,-499.2,-17.066666666666666
1436,-32.0,-501.3333333333333,-32.0
1437,-40.53333333333333,-497.06666666666666,-19.2
1438,-40.53333333333333,-492.8,-14.933333333333334
1439,-40.53333333333333,-480.0,-10.666666666666666
1440,-36.266666666666666,-477.8666666666667,-2.1333333333333333
1441,-34.13333333333333,-469.3333333333333,8.533333333333333
1442,-36.266666666666666,-454.4,4.266666666666667
1443,-36.266666666666666,-441.59999999999997,17.066666666666666
1444,-25.6,-437.3333333333333,12.8
1445,-23.466666666666665,-439.46666666666664,14.933333333333334
1446,-10.666666666666666,-443.73333333333335,17.066666666666666
1447,-14.933333333333334,-448.0,14.933333333333334
1448,-19.2,-471.46666666666664,19.2
1449,-4.266666666666667,-486.4,14.933333333333334
1450,2.1333333333333333,-509.8666666666667,21.333333333333332
1451,6.4,-529.0666666666666,23.466666666666665
1452,8.533333333333333,-554.6666666666666,19.2
1453,21.333333333333332,-580.2666666666667,32.0
1454,23.466666666666665,-590.9333333333333,25.6
1455,25.6,-599.4666666666667,29.866666666666667
1456,32.0,-610.1333333333333,29.866666666666667
1457,23.466666666666665,-614.4,23.466666666666665
1458,12.8,-622.9333333333333,17.066666666666666
1459,-10.666666666666666,-612.2666666666667,-12.8
1460,-23.466666666666665,-614.4,-21.333333333333332
1461,-38.4,-620.8,-25.6
1462,-51.2,-625.0666666666666,-21.333333333333332
1463,-55.46666666666667,-620.8,-29.866666666666667
1464,-57.6,-631.4666666666667,-23.466666666666665
1465,-59.733333333333334,-622.9333333333333,-10.666666666666666
1466,-64.0,-622.9333333333333,-14.933333333333334
1467,-59.733333333333334,-627.2,2.1333333333333333
1468,-61.86666666666667,-622.9333333333333,21.333333333333332
1469,-72.53333333333333,-618.6666666666666,44.8
1470,-76.8,-622.9333333333333,59.733333333333334
1471,-81.06666666666666,-610.1333333333333,68.26666666666667
1472,-83.2,-614.4,70.4
1473,-72.53333333333333,-608.0,72.53333333333333
1474,-68.26666666666667,-605.8666666666667,72.53333333333333
1475,-66.13333333333333,-599.4666666666667,61.86666666666667
1476,-44.8,-612.2666666666667,49.06666666666666
1477,-29.866666666666667,-618.6666666666666,49.06666666666666
1478,-8.533333333333333,-627.2,42.666666666666664
1479,10.666666666666666,-659.2,17.066666666666666
1480,12.8,-663.4666666666667,2.1333333333333333
1481,8.533333333333333,-665.6,6.4
1482,14.933333333333334,-669.8666666666667,-2.1333333333333333
1483,17.066666666666666,-676.2666666666667,-23.466666666666665
1484,12.8,-686.9333333333333,-34.13333333333333
1485,-14.933333333333334,-695.4666666666667,-66.13333333333333
1486,-6.4,-697.6,-100.26666666666667
1487,-25.6,-721.0666666666666,-134.4
1488,-68.26666666666667,-723.2,-162.13333333333333
1489,-117.33333333333333,-746.6666666666666,-202.66666666666666
1490,-157.86666666666667,-765.8666666666667,-204.8
1491,-183.46666666666667,-772.2666666666667,-213.33333333333334
1492,-162.13333333333333,-759.4666666666667,-198.4
1493,-125.86666666666666,-746.6666666666666,-194.13333333333333
1494,-76.8,-704.0,-174.93333333333334
1495,-44.8,-672.0,-166.4
1496,-25.6,-627.2,-160.0
1497,12.8,-601.6,-170.66666666666666
1498,55.46666666666667,-569.6,-189.86666666666667
1499,106.66666666666667,-539.7333333333333,-185.6
1500,136.53333333333333,-516.2666666666667,-187.73333333333332
1501,181.33333333333334,-503.46666666666664,-181.33333333333334
1502,221.86666666666667,-477.8666666666667,-174.93333333333334
1503,243.2,-465.06666666666666,-164.26666666666665
1504,251.73333333333332,-471.46666666666664,-162.13333333333333
1505,243.2,-492.8,-157.86666666666667
1506,213.33333333333334,-497.06666666666666,-145.06666666666666
1507,192.0,-503.46666666666664,-125.86666666666666
1508,177.06666666666666,-522.6666666666666,-115.2
1509,162.13333333333333,-541.8666666666667,-93.86666666666666
1510,157.86666666666667,-550.4,-91.73333333333333
1511,147.2,-552.5333333333333,-83.2
1512,123.73333333333333,-548.2666666666667,-87.46666666666667
1513,104.53333333333333,-548.2666666666667,-83.2
1514,66.13333333333333,-546.1333333333333,-87.46666666666667
1515,40.53333333333333,-546.1333333333333,-72.53333333333333
1516,10.666666666666666,-550.4,-68.26666666666667
1517,-8.533333333333333,-550.4,-74.66666666666667
1518,-25.6,-552.5333333333333,-72.53333333333333
1519,-40.53333333333333,-548.2666666666667,-78.93333333333334
1520,-44.8,-535.4666666666667,-72.53333333333333
1521,-57.6,-512.0,-72.53333333333333
1522,-53.333333333333336,-516.2666666666667,-87.46666666666667
1523,-68.26666666666667,-514.1333333333333,-100.26666666666667
1524,-66.13333333333333,-507.73333333333335,-98.13333333333333
1525,-66.13333333333333,-507.73333333333335,-100.26666666666667
1526,-57.6,-503.46666666666664,-98.13333333333333
1527,-57.6,-494.93333333333334,-91.73333333333333
1528,-51.2,-486.4,-87.46666666666667
1529,-44.8,-473.59999999999997,-66.13333333333333
1530,-23.466666666666665,-471.46666666666664,-72.53333333333333
1531,-25.6,-450.1333333333333,-59.733333333333334
1532,-19.2,-437.3333333333333,-44.8
1533,-4.266666666666667,-422.4,-49.06666666666666
1534,6.4,-407.46666666666664,-46.93333333333333
1535,21.333333333333332,-407.46666666666664,-44.8
1536,34.13333333333333,-392.5333333333333,-51.2
1537,55.46666666666667,-392.5333333333333,-49.06666666666666
1538,81.06666666666666,-398.93333333333334,-53.333333333333336
1539,104.53333333333333,-405.3333333333333,-53.333333333333336
1540,119.46666666666667,-405.3333333333333,-42.666666666666664
1541,128.0,-411.73333333333335,-38.4
1542,138.66666666666666,-418.1333333333333,-38.4
1543,149.33333333333334,-426.6666666666667,-29.866666666666667
1544,147.2,-422.4,-25.6
1545,155.73333333333332,-435.2,-46.93333333333333
1546,164.26666666666665,-443.73333333333335,-21.333333333333332
1547,157.86666666666667,-452.26666666666665,-36.266666666666666
1548,172.8,-462.93333333333334,-32.0
1549,147.2,-462.93333333333334,-27.733333333333334
1550,147.2,-482.1333333333333,-19.2
1551,145.06666666666666,-467.2,-12.8
1552,132.26666666666665,-477.8666666666667,-12.8
1553,132.26666666666665,-480.0,0.0
1554,123.73333333333333,-477.8666666666667,6.4
1555,113.06666666666666,-477.8666666666667,8.533333333333333
1556,115.2,-492.8,10.666666666666666
1557,106.66666666666667,-492.8,25.6
1558,104.53333333333333,-494.93333333333334,27.733333333333334
1559,96.0,-499.2,21.333333333333332
1560,100.26666666666667,-501.3333333333333,21.333333333333332
1561,102.4,-501.3333333333333,25.6
1562,100.26666666666667,-503.46666666666664,23.466666666666665
1563,93.86666666666666,-503.46666666666664,32.0
1564,85.33333333333333,-522.6666666666666,34.13333333333333
1565,81.06666666666666,-507.73333333333335,49.06666666666666
1566,85.33333333333333,-509.8666666666667,64.0
1567,85.33333333333333,-499.2,72.53333333333333
1568,72.53333333333333,-494.93333333333334,70.4
1569,76.8,-499.2,70.4
1570,66.13333333333333,-494.93333333333334,70.4
1571,51.2,-490.6666666666667,64.0
1572,44.8,-492.8,49.06666666666666
1573,34.13333333333333,-484.26666666666665,38.4
1574,27.733333333333334,-494.93333333333334,32.0
1575,12.8,-501.3333333333333,29.866666666666667
1576,6.4,-507.73333333333335,32.0
1577,-6.4,-518.4,27.733333333333334
1578,-8.533333333333333,-531.2,36.266666666666666
1579,-23.466666666666665,-546.1333333333333,46.93333333333333
1580,-17.066666666666666,-558.9333333333333,40.53333333333333
1581,-12.8,-563.2,44.8
1582,-4.266666666666667,-567.4666666666667,53.333333333333336
1583,10.666666666666666,-580.2666666666667,49.06666666666666
1584,19.2,-578.1333333333333,44.8
1585,25.6,-580.2666666666667,44.8
1586,44.8,-569.6,36.266666666666666
1587,68.26666666666667,-580.2666666666667,29.866666666666667
1588,81.06666666666666,-576.0,29.866666666666667
1589,98.13333333333333,-584.5333333333333,19.2
1590,106.66666666666667,-586.6666666666666,32.0
1591,110.93333333333334,-586.6666666666666,53.333333333333336
1592,115.2,-599.4666666666667,66.13333333333333
1593,117.33333333333333,-614.4,85.33333333333333
1594,130.13333333333333,-640.0,110.93333333333334
1595,132.26666666666665,-640.0,117.33333333333333
1596,142.93333333333334,-669.8666666666667,130.13333333333333
1597,147.2,-684.8,136.53333333333333
1598,138.66666666666666,-689.0666666666666,132.26666666666665
1599,134.4,-693.3333333333334,117.33333333333333
1600,113.06666666666666,-678.4,128.0
1601,108.8,-684.8,93.86666666666666
1602,115.2,-691.2,53.333333333333336
1603,106.66666666666667,-676.2666666666667,57.6
1604,110.93333333333334,-669.8666666666667,29.866666666666667
1605,110.93333333333334,-672.0,-4.266666666666667
1606,115.2,-661.3333333333334,2.1333333333333333
1607,130.13333333333333,-659.2,-38.4
1608,140.8,-659.2,-66.13333333333333
1609,155.73333333333332,-659.2,-102.4
1610,147.2,-665.6,-132.26666666666665
1611,128.0,-680.5333333333333,-138.66666666666666
1612,117.33333333333333,-706.1333333333333,-132.26666666666665
1613,89.6,-729.6,-115.2
1614,66.13333333333333,-748.8,-76.8
1615,55.46666666666667,-761.6,-42.666666666666664
1616,59.733333333333334,-755.2,-34.13333333333333
1617,55.46666666666667,-742.4,-34.13333333333333
1618,34.13333333333333,-701.8666666666667,-44.8
1619,10.666666666666666,-637.8666666666667,-78.93333333333334
1620,-2.1333333333333333,-569.6,-119.46666666666667
1621,-12.8,-503.46666666666664,-162.13333333333333
1622,-21.333333333333332,-456.5333333333333,-206.93333333333334
1623,-29.866666666666667,-413.8666666666667,-226.13333333333333
1624,-46.93333333333333,-392.5333333333333,-241.06666666666666
1625,-59.733333333333334,-375.46666666666664,-249.6
1626,-68.26666666666667,-364.8,-249.6
1627,-72.53333333333333,-362.6666666666667,-236.79999999999998
1628,-70.4,-369.06666666666666,-221.86666666666667
1629,-59.733333333333334,-377.6,-194.13333333333333
1630,-55.46666666666667,-398.93333333333334,-160.0
1631,-51.2,-416.0,-140.8
1632,-42.666666666666664,-433.06666666666666,-110.93333333333334
1633,-21.333333333333332,-460.8,-89.6
1634,-2.1333333333333333,-494.93333333333334,-61.86666666666667
1635,25.6,-535.4666666666667,-46.93333333333333
1636,38.4,-556.8,-27.733333333333334
1637,44.8,-578.1333333333333,-17.066666666666666
1638,51.2,-597.3333333333334,-19.2
1639,59.733333333333334,-608.0,-10.666666666666666
1640,78.93333333333334,-614.4,-10.666666666666666
1641,89.6,-614.4,-32.0
1642,106.66666666666667,-610.1333333333333,-66.13333333333333
1643,110.93333333333334,-599.4666666666667,-100.26666666666667
1644,115.2,-582.4,-128.0
1645,119.46666666666667,-576.0,-164.26666666666665
1646,117.33333333333333,-569.6,-174.93333333333334
1647,108.8,-561.0666666666666,-155.73333333333332
1648,91.73333333333333,-550.4,-130.13333333333333
1649,85.33333333333333,-546.1333333333333,-115.2
1650,68.26666666666667,-533.3333333333334,-93.86666666666666
1651,72.53333333333333,-533.3333333333334,-91.73333333333333
1652,64.0,-526.9333333333333,-83.2
1653,64.0,-526.9333333333333,-76.8
1654,49.06666666666666,-518.4,-55.46666666666667
1655,40.53333333333333,-505.59999999999997,-44.8
1656,32.0,-484.26666666666665,-44.8
1657,23.466666666666665,-471.46666666666664,-42.666666666666664
1658,12.8,-465.06666666666666,-55.46666666666667
1659,2.1333333333333333,-450.1333333333333,-44.8
1660,-6.4,-441.59999999999997,-49.06666666666666
1661,-6.4,-441.59999999999997,-51.2
1662,-14.933333333333334,-439.46666666666664,-53.333333333333336
1663,-29.866666666666667,-439.46666666666664,-61.86666666666667
1664,-36.266666666666666,-443.73333333333335,-76.8
1665,-49.06666666666666,-448.0,-74.66666666666667
1666,-64.0,-430.93333333333334,-76.8
1667,-66.13333333333333,-433.06666666666666,-83.2
1668,-76.8,-435.2,-81.06666666666666
1669,-87.46666666666667,-424.5333333333333,-81.06666666666666
1670,-96.0,-424.5333333333333,-57.6
1671,-85.33333333333333,-424.5333333333333,-59.733333333333334
1672,-91.73333333333333,-420.26666666666665,-53.333333333333336
1673,-87.46666666666667,-430.93333333333334,-46.93333333333333
1674,-78.93333333333334,-439.46666666666664,-46.93333333333333
1675,-83.2,-435.2,-32.0
1676,-83.2,-441.59999999999997,-23.466666666666665
1677,-83.2,-454.4,-8.533333333333333
1678,-76.8,-452.26666666666665,-4.266666666666667
1679,-72.53333333333333,-462.93333333333334,-12.8
1680,-72.53333333333333,-465.06666666666666,-8.533333333333333
1681,-72.53333333333333,-469.3333333333333,6.4
1682,-64.0,-471.46666666666664,0.0
1683,-64.0,-473.59999999999997,-8.533333333333333
1684,-57.6,-480.0,0.0
1685,-68.26666666666667,-484.26666666666665,25.6
1686,-53.333333333333336,-507.73333333333335,27.733333333333334
1687,-61.86666666666667,-494.93333333333334,32.0
1688,-44.8,-486.4,23.466666666666665
1689,-51.2,-490.6666666666667,10.666666666666666
1690,-68.26666666666667,-507.73333333333335,2.1333333333333333
1691,-87.46666666666667,-509.8666666666667,12.8
1692,-74.66666666666667,-514.1333333333333,25.6
1693,-61.86666666666667,-529.0666666666666,2.1333333333333333
1694,-44.8,-529.0666666666666,21.333333333333332
1695,-36.266666666666666,-546.1333333333333,29.866666666666667
1696,-29.866666666666667,-544.0,27.733333333333334
1697,-25.6,-552.5333333333333,29.866666666666667
1698,-2.1333333333333333,-554.6666666666666,42.666666666666664
1699,-12.8,-554.6666666666666,40.53333333333333
1700,-4.266666666666667,-548.2666666666667,23.466666666666665
1701,12.8,-552.5333333333333,34.13333333333333
1702,23.466666666666665,-552.5333333333333,27.733333333333334
1703,25.6,-548.2666666666667,23.466666666666665
1704,34.13333333333333,-548.2666666666667,23.466666666666665
1705,29.866666666666667,-552.5333333333333,17.066666666666666
1706,19.2,-541.8666666666667,10.666666666666666
1707,14.933333333333334,-539.7333333333333,-6.4
1708,6.4,-535.4666666666667,-14.933333333333334
1709,4.266666666666667,-546.1333333333333,-29.866666666666667
1710,-12.8,-552.5333333333333,-38.4
1711,-19.2,-561.0666666666666,-40.53333333333333
1712,-19.2,-580.2666666666667,-32.0
1713,-25.6,-590.9333333333333,-32.0
1714,-38.4,-605.8666666666667,-23.466666666666665
1715,-46.93333333333333,-627.2,6.4
1716,-53.333333333333336,-648.5333333333333,25.6
1717,-66.13333333333333,-661.3333333333334,44.8
1718,-70.4,-672.0,74.66666666666667
1719,-72.53333333333333,-676.2666666666667,89.6
1720,-61.86666666666667,-672.0,104.53333333333333
1721,-51.2,-661.3333333333334,117.33333333333333
1722,-32.0,-667.7333333333333,108.8
1723,-23.466666666666665,-661.3333333333334,93.86666666666666
1724,4.266666666666667,-657.0666666666666,83.2
1725,12.8,-652.8,57.6
1726,34.13333333333333,-652.8,49.06666666666666
1727,44.8,-665.6,34.13333333333333
1728,51.2,-672.0,14.933333333333334
1729,49.06666666666666,-678.4,-4.266666666666667
1730,40.53333333333333,-686.9333333333333,0.0
1731,25.6,-676.2666666666667,10.666666666666666
1732,17.066666666666666,-669.8666666666667,-2.1333333333333333
1733,-4.266666666666667,-665.6,-42.666666666666664
1734,-14.933333333333334,-665.6,-81.06666666666666
1735,-36.266666666666666,-667.7333333333333,-130.13333333333333
1736,-59.733333333333334,-682.6666666666666,-177.06666666666666
1737,-91.73333333333333,-695.4666666666667,-238.93333333333334
1738,-136.53333333333333,-706.1333333333333,-281.6
1739,-160.0,-731.7333333333333,-302.93333333333334
1740,-160.0,-742.4,-322.1333333333333
1741,-136.53333333333333,-729.6,-315.73333333333335
1742,-74.66666666666667,-699.7333333333333,-302.93333333333334
1743,-27.733333333333334,-652.8,-290.1333333333333
1744,17.066666666666666,-597.3333333333334,-273.06666666666666
1745,59.733333333333334,-563.2,-258.1333333333333
1746,102.4,-546.1333333333333,-238.93333333333334
1747,134.4,-520.5333333333333,-177.06666666666666
1748,164.26666666666665,-505.59999999999997,-134.4
1749,196.26666666666665,-471.46666666666664,-106.66666666666667
1750,228.26666666666665,-458.6666666666667,-89.6
1751,253.86666666666667,-475.73333333333335,-113.06666666666666
1752,266.6666666666667,-475.73333333333335,-123.73333333333333
1753,268.8,-497.06666666666666,-115.2
1754,245.33333333333334,-503.46666666666664,-102.4
1755,198.4,-524.8,-85.33333333333333
1756,166.4,-544.0,-66.13333333333333
1757,117.33333333333333,-554.6666666666666,-42.666666666666664
1758,87.46666666666667,-571.7333333333333,-38.4
1759,74.66666666666667,-584.5333333333333,-40.53333333333333
1760,36.266666666666666,-599.4666666666667,-36.266666666666666
1761,8.533333333333333,-620.8,-36.266666666666666
1762,-17.066666666666666,-629.3333333333334,-57.6
1763,-36.266666666666666,-640.0,-57.6
1764,-64.0,-640.0,-55.46666666666667
1765,-83.2,-644.2666666666667,-72.53333333333333
1766,-96.0,-631.4666666666667,-70.4
1767,-89.6,-614.4,-59.733333333333334
1768,-85.33333333333333,-593.0666666666666,-61.86666666666667
1769,-70.4,-578.1333333333333,-64.0
1770,-64.0,-565.3333333333334,-74.66666666666667
1771,-76.8,-554.6666666666666,-76.8
1772,-70.4,-522.6666666666666,-53.333333333333336
1773,-68.26666666666667,-503.46666666666664,-66.13333333333333
1774,-70.4,-465.06666666666666,-59.733333333333334
1775,-49.06666666666666,-430.93333333333334,-61.86666666666667
1776,-38.4,-405.3333333333333,-64.0
1777,-27.733333333333334,-390.4,-72.53333333333333
1778,-19.2,-388.26666666666665,-85.33333333333333
1779,2.1333333333333333,-384.0,-96.0
1780,34.13333333333333,-381.8666666666667,-87.46666666666667
1781,55.46666666666667,-392.5333333333333,-89.6
1782,57.6,-390.4,-83.2
1783,36.266666666666666,-413.8666666666667,-40.53333333333333
1784,53.333333333333336,-369.06666666666666,-59.733333333333334
1785,59.733333333333334,-364.8,-51.2
1786,74.66666666666667,-358.4,-29.866666666666667
1787,83.2,-358.4,-23.466666666666665
1788,91.73333333333333,-369.06666666666666,-10.666666666666666
1789,96.0,-384.0,-23.466666666666665
1790,106.66666666666667,-407.46666666666664,-12.8
1791,130.13333333333333,-422.4,-17.066666666666666
1792,128.0,-430.93333333333334,-23.466666666666665
1793,138.66666666666666,-448.0,-23.466666666666665
1794,149.33333333333334,-452.26666666666665,-21.333333333333332
1795,155.73333333333332,-452.26666666666665,-36.266666666666666
1796,151.46666666666667,-450.1333333333333,-38.4
1797,145.06666666666666,-437.3333333333333,-38.4
1798,149.33333333333334,-439.46666666666664,-29.866666666666667
1799,145.06666666666666,-441.59999999999997,-25.6
1800,151.46666666666667,-454.4,-14.933333333333334
1801,149.33333333333334,-456.5333333333333,12.8
1802,140.8,-465.06666666666666,19.2
1803,142.93333333333334,-475.73333333333335,42.666666666666664
1804,151.46666666666667,-503.46666666666664,44.8
1805,134.4,-469.3333333333333,57.6
1806,132.26666666666665,-477.8666666666667,55.46666666666667
1807,134.4,-475.73333333333335,46.93333333333333
1808,134.4,-471.46666666666664,40.53333333333333
1809,125.86666666666666,-460.8,29.866666666666667
1810,123.73333333333333,-450.1333333333333,25.6
1811,121.6,-448.0,14.933333333333334
1812,123.73333333333333,-443.73333333333335,17.066666666666666
1813,117.33333333333333,-452.26666666666665,8.533333333333333
1814,108.8,-450.1333333333333,4.266666666666667
1815,100.26666666666667,-452.26666666666665,17.066666666666666
1816,104.53333333333333,-475.73333333333335,17.066666666666666
1817,81.06666666666666,-480.0,34.13333333333333
1818,61.86666666666667,-494.93333333333334,42.666666666666664
1819,53.333333333333336,-512.0,51.2
1820,53.333333333333336,-524.8,42.666666666666664
1821,57.6,-550.4,51.2
1822,51.2,-558.9333333333333,46.93333333333333
1823,44.8,-573.8666666666667,34.13333333333333
1824,44.8,-588.8,27.733333333333334
1825,51.2,-603.7333333333333,25.6
1826,42.666666666666664,-610.1333333333333,14.933333333333334
1827,36.266666666666666,-603.7333333333333,19.2
1828,25.6,-608.0,19.2
1829,23.466666666666665,-593.0666666666666,8.533333333333333
1830,21.333333333333332,-584.5333333333333,2.1333333333333333
1831,21.333333333333332,-578.1333333333333,10.666666666666666
1832,25.6,-569.6,17.066666666666666
1833,36.266666666666666,-565.3333333333334,27.733333333333334
1834,51.2,-571.7333333333333,51.2
1835,68.26666666666667,-578.1333333333333,78.93333333333334
1836,76.8,-588.8,98.13333333333333
1837,85.33333333333333,-603.7333333333333,128.0
1838,78.93333333333334,-622.9333333333333,149.33333333333334
1839,76.8,-635.7333333333333,153.6
1840,91.73333333333333,-654.9333333333333,151.46666666666667
1841,85.33333333333333,-678.4,142.93333333333334
1842,78.93333333333334,-689.0666666666666,134.4
1843,83.2,-697.6,121.6
1844,87.46666666666667,-701.8666666666667,87.46666666666667
1845,83.2,-714.6666666666666,64.0
1846,89.6,-723.2,40.53333333333333
1847,78.93333333333334,-718.9333333333333,42.666666666666664
1848,89.6,-721.0666666666666,25.6
1849,104.53333333333333,-712.5333333333333,12.8
1850,119.46666666666667,-695.4666666666667,-8.533333333333333
1851,110.93333333333334,-686.9333333333333,-23.466666666666665
1852,115.2,-682.6666666666666,-59.733333333333334
1853,130.13333333333333,-674.1333333333333,-83.2
1854,132.26666666666665,-680.5333333333333,-100.26666666666667
1855,110.93333333333334,-693.3333333333334,-100.26666666666667
1856,115.2,-729.6,-89.6
1857,98.13333333333333,-742.4,-66.13333333333333
1858,68.26666666666667,-759.4666666666667,-74.66666666666667
1859,53.333333333333336,-748.8,-66.13333333333333
1860,29.866666666666667,-740.2666666666667,-66.13333333333333
1861,17.066666666666666,-701.8666666666667,-87.46666666666667
1862,8.533333333333333,-652.8,-113.06666666666666
1863,-8.533333333333333,-584.5333333333333,-153.6
1864,-10.666666666666666,-535.4666666666667,-206.93333333333334
1865,-12.8,-488.5333333333333,-234.66666666666666
1866,-23.466666666666665,-443.73333333333335,-258.1333333333333
1867,-27.733333333333334,-405.3333333333333,-281.6
1868,-51.2,-377.6,-275.2
1869,-61.86666666666667,-358.4,-260.26666666666665
1870,-57.6,-347.73333333333335,-253.86666666666667
1871,-64.0,-347.73333333333335,-217.6
1872,-57.6,-364.8,-181.33333333333334
1873,-42.666666666666664,-375.46666666666664,-166.4
1874,-27.733333333333334,-407.46666666666664,-128.0
1875,-4.266666666666667,-435.2,-104.53333333333333
1876,12.8,-471.46666666666664,-59.733333333333334
1877,21.333333333333332,-509.8666666666667,-14.933333333333334
1878,27.733333333333334,-541.8666666666667,-2.1333333333333333
1879,44.8,-571.7333333333333,29.866666666666667
1880,61.86666666666667,-582.4,38.4
1881,83.2,-597.3333333333334,38.4
1882,91.73333333333333,-605.8666666666667,27.733333333333334
1883,91.73333333333333,-614.4,14.933333333333334
1884,110.93333333333334,-608.0,-23.466666666666665
1885,121.6,-608.0,-57.6
1886,132.26666666666665,-593.0666666666666,-87.46666666666667
1887,132.26666666666665,-584.5333333333333,-115.2
1888,117.33333333333333,-573.8666666666667,-147.2
1889,113.06666666666666,-576.0,-172.8
1890,110.93333333333334,-580.2666666666667,-162.13333333333333
1891,85.33333333333333,-563.2,-140.8
1892,64.0,-552.5333333333333,-102.4
1893,49.06666666666666,-546.1333333333333,-85.33333333333333
1894,49.06666666666666,-533.3333333333334,-61.86666666666667
1895,42.666666666666664,-522.6666666666666,-49.06666666666666
1896,38.4,-503.46666666666664,-29.866666666666667
1897,23.466666666666665,-488.5333333333333,-25.6
1898,21.333333333333332,-475.73333333333335,-19.2
1899,12.8,-456.5333333333333,-27.733333333333334
1900,10.666666666666666,-450.1333333333333,-38.4
1901,0.0,-430.93333333333334,-53.333333333333336
1902,-10.666666666666666,-418.1333333333333,-57.6
1903,-21.333333333333332,-409.6,-64.0
1904,-25.6,-403.2,-55.46666666666667
1905,-25.6,-394.6666666666667,-66.13333333333333
1906,-25.6,-392.5333333333333,-64.0
1907,-44.8,-398.93333333333334,-59.733333333333334
1908,-51.2,-403.2,-49.06666666666666
1909,-55.46666666666667,-413.8666666666667,-42.666666666666664
1910,-64.0,-424.5333333333333,-42.666666666666664
1911,-76.8,-424.5333333333333,-32.0
1912,-70.4,-443.73333333333335,-19.2
1913,-72.53333333333333,-445.8666666666667,-21.333333333333332
1914,-68.26666666666667,-448.0,-12.8
1915,-66.13333333333333,-450.1333333333333,-12.8
1916,-59.733333333333334,-462.93333333333334,-8.533333333333333
1917,-57.6,-460.8,-2.1333333333333333
1918,-51.2,-467.2,-14.933333333333334
1919,-53.333333333333336,-477.8666666666667,-4.266666666666667
1920,-57.6,-477.8666666666667,0.0
1921,-59.733333333333334,-480.0,17.066666666666666
1922,-57.6,-490.6666666666667,12.8
1923,-46.93333333333333,-482.1333333333333,6.4
1924,-55.46666666666667,-475.73333333333335,8.533333333333333
1925,-44.8,-482.1333333333333,10.666666666666666
1926,-42.666666666666664,-488.5333333333333,12.8
1927,-42.666666666666664,-482.1333333333333,17.066666666666666
1928,-44.8,-488.5333333333333,14.933333333333334
1929,-49.06666666666666,-486.4,14.933333333333334
1930,-49.06666666666666,-482.1333333333333,29.866666666666667
1931,-46.93333333333333,-480.0,38.4
1932,-40.53333333333333,-473.59999999999997,38.4
1933,-34.13333333333333,-475.73333333333335,42.666666666666664
1934,-32.0,-482.1333333333333,44.8
1935,-25.6,-480.0,49.06666666666666
1936,-21.333333333333332,-490.6666666666667,51.2
1937,-10.666666666666666,-488.5333333333333,51.2
1938,0.0,-497.06666666666666,40.53333333333333
1939,6.4,-494.93333333333334,34.13333333333333
1940,12.8,-505.59999999999997,25.6
1941,34.13333333333333,-520.5333333333333,25.6
1942,55.46666666666667,-531.2,17.066666666666666
1943,61.86666666666667,-533.3333333333334,12.8
1944,61.86666666666667,-552.5333333333333,14.933333333333334
1945,68.26666666666667,-554.6666666666666,4.266666666666667
1946,72.53333333333333,-556.8,8.533333333333333
1947,74.66666666666667,-565.3333333333334,-14.933333333333334
1948,64.0,-558.9333333333333,-19.2
1949,57.6,-563.2,-27.733333333333334
1950,42.666666666666664,-561.0666666666666,-49.06666666666666
1951,25.6,-571.7333333333333,-55.46666666666667
1952,21.333333333333332,-580.2666666666667,-66.13333333333333
1953,12.8,-590.9333333333333,-66.13333333333333
1954,-4.266666666666667,-599.4666666666667,-66.13333333333333
1955,-21.333333333333332,-622.9333333333333,-55.46666666666667
1956,-49.06666666666666,-635.7333333333333,-25.6
1957,-76.8,-650.6666666666666,0.0
1958,-98.13333333333333,-667.7333333333333,14.933333333333334
1959,-110.93333333333334,-674.1333333333333,29.866666666666667
1960,-113.06666666666666,-682.6666666666666,44.8
1961,-110.93333333333334,-686.9333333333333,53.333333333333336
1962,-108.8,-695.4666666666667,49.06666666666666
1963,-89.6,-701.8666666666667,59.733333333333334
1964,-96.0,-712.5333333333333,51.2
1965,-59.733333333333334,-716.8,46.93333333333333
1966,-49.06666666666666,-723.2,40.53333333333333
1967,-29.866666666666667,-725.3333333333334,17.066666666666666
1968,-25.6,-723.2,6.4
1969,-2.1333333333333333,-768.0,-25.6
1970,-12.8,-733.8666666666667,-2.1333333333333333
1971,-6.4,-742.4,-14.933333333333334
1972,-14.933333333333334,-738.1333333333333,-25.6
1973,-23.466666666666665,-729.6,-57.6
1974,-40.53333333333333,-716.8,-89.6
1975,-53.333333333333336,-723.2,-117.33333333333333
1976,-89.6,-725.3333333333334,-155.73333333333332
1977,-121.6,-731.7333333333333,-177.06666666666666
1978,-134.4,-753.0666666666666,-185.6
1979,-134.4,-746.6666666666666,-181.33333333333334
1980,-113.06666666666666,-721.0666666666666,-168.53333333333333
1981,-91.73333333333333,-697.6,-162.13333333333333
1982,-78.93333333333334,-661.3333333333334,-142.93333333333334
1983,-51.2,-620.8,-145.06666666666666
1984,-25.6,-578.1333333333333,-138.66666666666666
1985,2.1333333333333333,-546.1333333333333,-140.8
1986,44.8,-503.46666666666664,-164.26666666666665
1987,96.0,-475.73333333333335,-181.33333333333334
1988,132.26666666666665,-426.6666666666667,-170.66666666666666
1989,170.66666666666666,-401.06666666666666,-177.06666666666666
1990,192.0,-388.26666666666665,-179.2
1991,238.93333333333334,-388.26666666666665,-181.33333333333334
1992,256.0,-398.93333333333334,-160.0
1993,266.6666666666667,-416.0,-145.06666666666666
1994,266.6666666666667,-435.2,-128.0
1995,249.6,-452.26666666666665,-119.46666666666667
1996,217.6,-480.0,-81.06666666666666
1997,183.46666666666667,-505.59999999999997,-64.0
1998,149.33333333333334,-544.0,-55.46666666666667
1999,119.46666666666667,-573.8666666666667,-53.333333333333336
2000,110.93333333333334,-595.2,-44.8
2001,91.73333333333333,-605.8666666666667,-27.733333333333334
2002,66.13333333333333,-605.8666666666667,-34.13333333333333
2003,38.4,-612.2666666666667,-17.066666666666666
2004,14.933333333333334,-620.8,-25.6
2005,-21.333333333333332,-635.7333333333333,-17.066666666666666
2006,-53.333333333333336,-646.4,-29.866666666666667
2007,-70.4,-642.1333333333333,-25.6
2008,-78.93333333333334,-637.8666666666667,-23.466666666666665
2009,-64.0,-629.3333333333334,-53.333333333333336
2010,-64.0,-614.4,-72.53333333333333
2011,-74.66666666666667,-584.5333333333333,-89.6
2012,-61.86666666666667,-580.2666666666667,-113.06666666666666
2013,-66.13333333333333,-565.3333333333334,-134.4
2014,-61.86666666666667,-544.0,-113.06666666666666
2015,-61.86666666666667,-522.6666666666666,-113.06666666666666
2016,-38.4,-499.2,-102.4
2017,-12.8,-473.59999999999997,-110.93333333333334
2018,0.0,-452.26666666666665,-98.13333333333333
2019,8.533333333333333,-437.3333333333333,-85.33333333333333
2020,19.2,-428.8,-78.93333333333334
2021,17.066666666666666,-420.26666666666665,-68.26666666666667
2022,36.266666666666666,-413.8666666666667,-61.86666666666667
2023,49.06666666666666,-390.4,-46.93333333333333
2024,66.13333333333333,-386.1333333333333,-53.333333333333336
2025,74.66666666666667,-371.2,-40.53333333333333
2026,87.46666666666667,-369.06666666666666,-34.13333333333333
2027,102.4,-364.8,-23.466666666666665
2028,110.93333333333334,-369.06666666666666,-23.466666666666665
2029,130.13333333333333,-369.06666666666666,-34.13333333333333
2030,130.13333333333333,-381.8666666666667,-27.733333333333334
2031,142.93333333333334,-396.8,-34.13333333333333
2032,149.33333333333334,-403.2,-34.13333333333333
2033,145.06666666666666,-409.6,-25.6
2034,140.8,-398.93333333333334,-29.866666666666667
2035,130.13333333333333,-407.46666666666664,-40.53333333333333
2036,123.73333333333333,-401.06666666666666,-46.93333333333333
2037,125.86666666666666,-405.3333333333333,-51.2
2038,125.86666666666666,-407.46666666666664,-64.0
2039,121.6,-413.8666666666667,-51.2
2040,115.2,-416.0,-51.2
2041,108.8,-418.1333333333333,-53.333333333333336
2042,104.53333333333333,-424.5333333333333,-38.4
2043,108.8,-433.06666666666666,-10.666666666666666
2044,89.6,-441.59999999999997,0.0
2045,98.13333333333333,-454.4,2.1333333333333333
2046,106.66666666666667,-475.73333333333335,23.466666666666665
2047,87.46666666666667,-486.4,19.2
2048,85.33333333333333,-488.5333333333333,27.733333333333334
2049,81.06666666666666,-494.93333333333334,34.13333333333333
2050,85.33333333333333,-499.2,29.866666666666667
2051,85.33333333333333,-507.73333333333335,21.333333333333332
2052,93.86666666666666,-507.73333333333335,21.333333333333332
2053,93.86666666666666,-516.2666666666667,23.466666666666665
2054,93.86666666666666,-514.1333333333333,40.53333333333333
2055,96.0,-518.4,25.6
2056,91.73333333333333,-520.5333333333333,27.733333333333334
2057,91.73333333333333,-516.2666666666667,40.53333333333333
2058,81.06666666666666,-518.4,34.13333333333333
2059,72.53333333333333,-524.8,36.266666666666666
2060,68.26666666666667,-539.7333333333333,29.866666666666667
2061,46.93333333333333,-533.3333333333334,34.13333333333333
2062,42.666666666666664,-548.2666666666667,40.53333333333333
2063,27.733333333333334,-554.6666666666666,34.13333333333333
2064,34.13333333333333,-571.7333333333333,34.13333333333333
2065,36.266666666666666,-580.2666666666667,34.13333333333333
2066,40.53333333333333,-605.8666666666667,40.53333333333333
2067,42.666666666666664,-608.0,36.266666666666666
2068,53.333333333333336,-622.9333333333333,21.333333333333332
2069,51.2,-616.5333333333333,14.933333333333334
2070,53.333333333333336,-618.6666666666666,14.933333333333334
2071,59.733333333333334,-616.5333333333333,4.266666666666667
2072,57.6,-603.7333333333333,10.666666666666666
2073,72.53333333333333,-588.8,10.666666666666666
2074,78.93333333333334,-567.4666666666667,10.666666666666666
2075,93.86666666666666,-552.5333333333333,12.8
2076,108.8,-552.5333333333333,32.0
2077,110.93333333333334,-548.2666666666667,38.4
2078,110.93333333333334,-531.2,53.333333333333336
2079,121.6,-533.3333333333334,83.2
2080,132.26666666666665,-537.6,96.0
2081,145.06666666666666,-544.0,106.66666666666667
2082,149.33333333333334,-563.2,93.86666666666666
2083,153.6,-584.5333333333333,98.13333333333333
2084,138.66666666666666,-601.6,89.6
2085,138.66666666666666,-620.8,100.26666666666667
2086,142.93333333333334,-657.0666666666666,85.33333333333333
2087,123.73333333333333,-682.6666666666666,72.53333333333333
2088,115.2,-699.7333333333333,66.13333333333333
2089,108.8,-716.8,64.0
2090,113.06666666666666,-742.4,29.866666666666667
2091,106.66666666666667,-746.6666666666666,42.666666666666664
2092,108.8,-744.5333333333333,38.4
2093,110.93333333333334,-736.0,8.533333333333333
2094,117.33333333333333,-727.4666666666667,-19.2
2095,121.6,-706.1333333333333,-51.2
2096,142.93333333333334,-693.3333333333334,-106.66666666666667
2097,142.93333333333334,-686.9333333333333,-130.13333333333333
2098,142.93333333333334,-689.0666666666666,-149.33333333333334
2099,136.53333333333333,-691.2,-145.06666666666666
2100,132.26666666666665,-716.8,-128.0
2101,110.93333333333334,-738.1333333333333,-110.93333333333334
2102,72.53333333333333,-740.2666666666667,-87.46666666666667
2103,44.8,-731.7333333333333,-46.93333333333333
2104,23.466666666666665,-710.4,-51.2
2105,2.1333333333333333,-676.2666666666667,-46.93333333333333
2106,-14.933333333333334,-631.4666666666667,-98.13333333333333
2107,-25.6,-590.9333333333333,-123.73333333333333
2108,-46.93333333333333,-531.2,-162.13333333333333
2109,-49.06666666666666,-484.26666666666665,-206.93333333333334
2110,-61.86666666666667,-435.2,-253.86666666666667
2111,-70.4,-418.1333333333333,-266.6666666666667
2112,-98.13333333333333,-392.5333333333333,-275.2
2113,-108.8,-384.0,-251.73333333333332
2114,-117.33333333333333,-375.46666666666664,-241.06666666666666
2115,-110.93333333333334,-381.8666666666667,-219.73333333333332
2116,-108.8,-392.5333333333333,-181.33333333333334
2117,-87.46666666666667,-411.73333333333335,-147.2
2118,-66.13333333333333,-426.6666666666667,-117.33333333333333
2119,-46.93333333333333,-452.26666666666665,-78.93333333333334
2120,-8.533333333333333,-471.46666666666664,-40.53333333333333
2121,10.666666666666666,-503.46666666666664,-40.53333333333333
2122,36.266666666666666,-539.7333333333333,-17.066666666666666
2123,42.666666666666664,-554.6666666666666,-4.266666666666667
2124,57.6,-573.8666666666667,-8.533333333333333
2125,68.26666666666667,-580.2666666666667,-6.4
2126,83.2,-586.6666666666666,-10.666666666666666
2127,91.73333333333333,-580.2666666666667,-12.8
2128,102.4,-578.1333333333333,-27.733333333333334
2129,108.8,-567.4666666666667,-40.53333333333333
2130,117.33333333333333,-563.2,-72.53333333333333
2131,136.53333333333333,-554.6666666666666,-115.2
2132,151.46666666666667,-554.6666666666666,-153.6
2133,134.4,-556.8,-164.26666666666665
2134,106.66666666666667,-554.6666666666666,-162.13333333333333
2135,89.6,-556.8,-149.33333333333334
2136,74.66666666666667,-552.5333333333333,-117.33333333333333
2137,64.0,-541.8666666666667,-93.86666666666666
2138,42.666666666666664,-546.1333333333333,-83.2
2139,29.866666666666667,-541.8666666666667,-49.06666666666666
2140,23.466666666666665,-520.5333333333333,-34.13333333333333
2141,25.6,-512.0,-44.8
2142,23.466666666666665,-497.06666666666666,-38.4
2143,17.066666666666666,-482.1333333333333,-29.866666666666667
2144,12.8,-465.06666666666666,-46.93333333333333
2145,12.8,-456.5333333333333,-49.06666666666666
2146,4.266666666666667,-433.06666666666666,-66.13333333333333
2147,2.1333333333333333,-426.6666666666667,-70.4
2148,-8.533333333333333,-416.0,-66.13333333333333
2149,-2.1333333333333333,-379.73333333333335,-53.333333333333336
2150,-8.533333333333333,-411.73333333333335,-76.8
2151,-29.866666666666667,-416.0,-76.8
2152,-36.266666666666666,-435.2,-59.733333333333334
2153,-38.4,-435.2,-49.06666666666666
2154,-44.8,-448.0,-78.93333333333334
2155,-42.666666666666664,-454.4,-55.46666666666667
2156,-42.666666666666664,-439.46666666666664,-59.733333333333334
2157,-57.6,-448.0,-85.33333333333333
2158,-36.266666666666666,-465.06666666666666,-46.93333333333333
2159,-40.53333333333333,-462.93333333333334,-40.53333333333333
2160,-42.666666666666664,-469.3333333333333,-51.2
2161,-36.266666666666666,-475.73333333333335,-46.93333333333333
2162,-29.866666666666667,-471.46666666666664,-29.866666666666667
2163,-49.06666666666666,-477.8666666666667,-34.13333333333333
2164,-49.06666666666666,-490.6666666666667,-32.0
2165,-44.8,-492.8,-32.0
2166,-38.4,-505.59999999999997,-36.266666666666666
2167,-27.733333333333334,-520.5333333333333,-32.0
2168,-34.13333333333333,-524.8,-25.6
2169,-27.733333333333334,-535.4666666666667,-19.2
2170,-25.6,-535.4666666666667,0.0
2171,-32.0,-526.9333333333333,4.266666666666667
2172,-25.6,-518.4,4.266666666666667
2173,-23.466666666666665,-518.4,4.266666666666667
2174,-19.2,-509.8666666666667,2.1333333333333333
2175,-25.6,-501.3333333333333,4.266666666666667
2176,-23.466666666666665,-499.2,-6.4
2177,-23.466666666666665,-501.3333333333333,-2.1333333333333333
2178,-21.333333333333332,-486.4,4.266666666666667
2179,-23.466666666666665,-482.1333333333333,4.266666666666667
2180,-12.8,-484.26666666666665,-12.8
2181,-10.666666666666666,-473.59999999999997,0.0
2182,0.0,-480.0,-2.1333333333333333
2183,4.266666666666667,-477.8666666666667,0.0
2184,2.1333333333333333,-473.59999999999997,6.4
2185,6.4,-480.0,-2.1333333333333333
2186,10.666666666666666,-484.26666666666665,6.4
2187,17.066666666666666,-492.8,12.8
2188,17.066666666666666,-503.46666666666664,6.4
2189,17.066666666666666,-507.73333333333335,17.066666666666666
2190,21.333333333333332,-518.4,17.066666666666666
2191,17.066666666666666,-529.0666666666666,14.933333333333334
2192,14.933333333333334,-544.0,17.066666666666666
2193,14.933333333333334,-548.2666666666667,25.6
2194,6.4,-550.4,25.6
2195,10.666666666666666,-558.9333333333333,27.733333333333334
2196,-12.8,-561.0666666666666,17.066666666666666
2197,-21.333333333333332,-569.6,4.266666666666667
2198,-27.733333333333334,-561.0666666666666,6.4
2199,-34.13333333333333,-569.6,-8.533333333333333
2200,-46.93333333333333,-576.0,-21.333333333333332
2201,-44.8,-582.4,-23.466666666666665
2202,-44.8,-595.2,-29.866666666666667
2203,-44.8,-595.2,-27.733333333333334
2204,-29.866666666666667,-610.1333333333333,-23.466666666666665
2205,-27.733333333333334,-612.2666666666667,-4.266666666666667
2206,-19.2,-618.6666666666666,2.1333333333333333
2207,-17.066666666666666,-629.3333333333334,17.066666666666666
2208,-21.333333333333332,-627.2,23.466666666666665
2209,-23.466666666666665,-642.1333333333333,32.0
2210,-17.066666666666666,-644.2666666666667,46.93333333333333
2211,-21.333333333333332,-644.2666666666667,61.86666666666667
2212,-19.2,-642.1333333333333,70.4
2213,-10.666666666666666,-637.8666666666667,74.66666666666667
2214,-19.2,-633.6,74.66666666666667
2215,-23.466666666666665,-625.0666666666666,64.0
2216,-12.8,-616.5333333333333,57.6
2217,-12.8,-605.8666666666667,51.2
2218,-8.533333333333333,-601.6,38.4
2219,-8.533333333333333,-603.7333333333333,21.333333333333332
2220,-17.066666666666666,-601.6,14.933333333333334
2221,-19.2,-605.8666666666667,-2.1333333333333333
2222,-17.066666666666666,-610.1333333333333,-6.4
2223,-23.466666666666665,-612.2666666666667,0.0
2224,-23.466666666666665,-627.2,-2.1333333333333333
2225,-25.6,-635.7333333333333,2.1333333333333333
2226,-32.0,-646.4,2.1333333333333333
2227,-36.266666666666666,-650.6666666666666,-4.266666666666667
2228,-49.06666666666666,-661.3333333333334,-42.666666666666664
2229,-61.86666666666667,-676.2666666666667,-83.2
2230,-74.66666666666667,-691.2,-130.13333333333333
2231,-98.13333333333333,-691.2,-160.0
2232,-121.6,-721.0666666666666,-198.4
2233,-149.33333333333334,-744.5333333333333,-215.46666666666667
2234,-160.0,-778.6666666666666,-232.53333333333333
2235,-138.66666666666666,-770.1333333333333,-230.4
2236,-93.86666666666666,-759.4666666666667,-215.46666666666667
2237,-53.333333333333336,-723.2,-202.66666666666666
2238,-25.6,-693.3333333333334,-192.0
2239,-10.666666666666666,-635.7333333333333,-185.6
2240,21.333333333333332,-588.8,-183.46666666666667
2241,49.06666666666666,-537.6,-187.73333333333332
2242,81.06666666666666,-497.06666666666666,-183.46666666666667
2243,113.06666666666666,-458.6666666666667,-179.2
2244,134.4,-435.2,-160.0
2245,153.6,-413.8666666666667,-151.46666666666667
2246,177.06666666666666,-401.06666666666666,-157.86666666666667
2247,200.53333333333333,-401.06666666666666,-134.4
2248,219.73333333333332,-409.6,-121.6
2249,224.0,-420.26666666666665,-106.66666666666667
2250,219.73333333333332,-452.26666666666665,-91.73333333333333
2251,196.26666666666665,-475.73333333333335,-85.33333333333333
2252,164.26666666666665,-531.2,-93.86666666666666
2253,140.8,-554.6666666666666,-78.93333333333334
2254,113.06666666666666,-571.7333333333333,-46.93333333333333
2255,78.93333333333334,-578.1333333333333,-29.866666666666667
2256,57.6,-582.4,-21.333333333333332
2257,42.666666666666664,-590.9333333333333,-29.866666666666667
2258,12.8,-588.8,-44.8
2259,-6.4,-586.6666666666666,-64.0
2260,-17.066666666666666,-590.9333333333333,-61.86666666666667
2261,-25.6,-595.2,-53.333333333333336
2262,-38.4,-595.2,-70.4
2263,-55.46666666666667,-588.8,-78.93333333333334
2264,-34.13333333333333,-584.5333333333333,-72.53333333333333
2265,-34.13333333333333,-580.2666666666667,-83.2
2266,-38.4,-563.2,-78.93333333333334
2267,-25.6,-556.8,-83.2
2268,-25.6,-552.5333333333333,-91.73333333333333
2269,-32.0,-539.7333333333333,-89.6
2270,-36.266666666666666,-522.6666666666666,-89.6
2271,-21.333333333333332,-516.2666666666667,-81.06666666666666
2272,-12.8,-501.3333333333333,-87.46666666666667
2273,-2.1333333333333333,-480.0,-78.93333333333334
2274,17.066666666666666,-460.8,-61.86666666666667
2275,17.066666666666666,-441.59999999999997,-61.86666666666667
2276,25.6,-430.93333333333334,-55.46666666666667
2277,36.266666666666666,-416.0,-40.53333333333333
2278,34.13333333333333,-411.73333333333335,-40.53333333333333
2279,49.06666666666666,-418.1333333333333,-51.2
2280,57.6,-416.0,-44.8
2281,64.0,-413.8666666666667,-51.2
2282,72.53333333333333,-411.73333333333335,-42.666666666666664
2283,78.93333333333334,-416.0,-44.8
2284,89.6,-422.4,-36.266666666666666
2285,104.53333333333333,-426.6666666666667,-27.733333333333334
2286,110.93333333333334,-426.6666666666667,-27.733333333333334
2287,121.6,-435.2,-27.733333333333334
2288,125.86666666666666,-450.1333333333333,-8.533333333333333
2289,119.46666666666667,-450.1333333333333,-10.666666666666666
2290,119.46666666666667,-448.0,-19.2
2291,119.46666666666667,-460.8,-25.6
2292,115.2,-462.93333333333334,-25.6
2293,110.93333333333334,-456.5333333333333,-27.733333333333334
2294,108.8,-450.1333333333333,-25.6
2295,106.66666666666667,-439.46666666666664,-23.466666666666665
2296,98.13333333333333,-435.2,-19.2
2297,108.8,-445.8666666666667,-32.0
2298,102.4,-443.73333333333335,-23.466666666666665
2299,104.53333333333333,-450.1333333333333,-14.933333333333334
2300,100.26666666666667,-450.1333333333333,0.0
2301,96.0,-448.0,17.066666666666666
2302,91.73333333333333,-456.5333333333333,23.466666666666665
2303,87.46666666666667,-456.5333333333333,19.2
2304,83.2,-458.6666666666667,27.733333333333334
2305,78.93333333333334,-469.3333333333333,32.0
2306,78.93333333333334,-467.2,29.866666666666667
2307,78.93333333333334,-475.73333333333335,34.13333333333333
2308,81.06666666666666,-477.8666666666667,38.4
2309,81.06666666666666,-497.06666666666666,38.4
2310,91.73333333333333,-488.5333333333333,38.4
2311,76.8,-509.8666666666667,51.2
2312,83.2,-520.5333333333333,57.6
2313,70.4,-533.3333333333334,49.06666666666666
2314,74.66666666666667,-529.0666666666666,49.06666666666666
2315,72.53333333333333,-535.4666666666667,44.8
2316,59.733333333333334,-537.6,49.06666666666666
2317,51.2,-537.6,27.733333333333334
2318,51.2,-541.8666666666667,19.2
2319,51.2,-548.2666666666667,19.2
2320,36.266666666666666,-554.6666666666666,17.066666666666666
2321,29.866666666666667,-558.9333333333333,14.933333333333334
2322,29.866666666666667,-569.6,8.533333333333333
2323,34.13333333333333,-578.1333333333333,10.666666666666666
2324,34.13333333333333,-576.0,8.533333333333333
2325,40.53333333333333,-580.2666666666667,2.1333333333333333
2326,46.93333333333333,-582.4,4.266666666666667
2327,40.53333333333333,-578.1333333333333,4.266666666666667
2328,51.2,-573.8666666666667,0.0
2329,61.86666666666667,-565.3333333333334,4.266666666666667
2330,64.0,-556.8,-2.1333333333333333
2331,74.66666666666667,-552.5333333333333,8.533333333333333
2332,78.93333333333334,-548.2666666666667,-2.1333333333333333
2333,81.06666666666666,-546.1333333333333,19.2
2334,96.0,-552.5333333333333,19.2
2335,108.8,-558.9333333333333,38.4
2336,110.93333333333334,-565.3333333333334,55.46666666666667
2337,121.6,-578.1333333333333,68.26666666666667
2338,128.0,-597.3333333333334,83.2
2339,128.0,-627.2,83.2
2340,128.0,-627.2,96.0
2341,123.73333333333333,-642.1333333333333,106.66666666666667
2342,115.2,-657.0666666666666,113.06666666666666
2343,108.8,-680.5333333333333,100.26666666666667
2344,102.4,-691.2,87.46666666666667
2345,91.73333333333333,-695.4666666666667,61.86666666666667
2346,85.33333333333333,-718.9333333333333,55.46666666666667
2347,93.86666666666666,-712.5333333333333,59.733333333333334
2348,81.06666666666666,-704.0,46.93333333333333
2349,89.6,-701.8666666666667,44.8
2350,81.06666666666666,-686.9333333333333,29.866666666666667
2351,81.06666666666666,-669.8666666666667,6.4
2352,87.46666666666667,-648.5333333333333,-19.2
2353,85.33333333333333,-629.3333333333334,-64.0
2354,102.4,-618.6666666666666,-85.33333333333333
2355,110.93333333333334,-622.9333333333333,-102.4
2356,113.06666666666666,-622.9333333333333,-117.33333333333333
2357,121.6,-644.2666666666667,-123.73333333333333
2358,128.0,-672.0,-110.93333333333334
2359,136.53333333333333,-691.2,-87.46666666666667
2360,125.86666666666666,-708.2666666666667,-78.93333333333334
2361,110.93333333333334,-712.5333333333333,-53.333333333333336
2362,89.6,-706.1333333333333,-49.06666666666666
2363,78.93333333333334,-697.6,-49.06666666666666
2364,66.13333333333333,-684.8,-49.06666666666666
2365,51.2,-642.1333333333333,-68.26666666666667
2366,29.866666666666667,-608.0,-93.86666666666666
2367,12.8,-567.4666666666667,-119.46666666666667
2368,-8.533333333333333,-533.3333333333334,-155.73333333333332
2369,-21.333333333333332,-488.5333333333333,-166.4
2370,-29.866666666666667,-486.4,-153.6
2371,-42.666666666666664,-509.8666666666667,-181.33333333333334
2372,-55.46666666666667,-456.5333333333333,-200.53333333333333
2373,-87.46666666666667,-405.3333333333333,-198.4
2374,-76.8,-356.26666666666665,-192.0
2375,-68.26666666666667,-339.2,-185.6
2376,-61.86666666666667,-334.93333333333334,-187.73333333333332
2377,-59.733333333333334,-324.26666666666665,-179.2
2378,-72.53333333333333,-343.46666666666664,-145.06666666666666
2379,-59.733333333333334,-426.6666666666667,-113.06666666666666
2380,-38.4,-486.4,-98.13333333333333
2381,-32.0,-531.2,-78.93333333333334
2382,-29.866666666666667,-544.0,-68.26666666666667
2383,-32.0,-529.0666666666666,-38.4
2384,-23.466666666666665,-518.4,-51.2
2385,-17.066666666666666,-505.59999999999997,-68.26666666666667
2386,0.0,-512.0,-68.26666666666667
2387,19.2,-514.1333333333333,-85.33333333333333
2388,25.6,-522.6666666666666,-89.6
2389,29.866666666666667,-524.8,-98.13333333333333
2390,34.13333333333333,-544.0,-102.4
2391,25.6,-546.1333333333333,-96.0
2392,14.933333333333334,-533.3333333333334,-78.93333333333334
2393,21.333333333333332,-544.0,-68.26666666666667
2394,36.266666666666666,-548.2666666666667,-61.86666666666667
2395,57.6,-558.9333333333333,-46.93333333333333
2396,70.4,-567.4666666666667,-64.0
2397,49.06666666666666,-567.4666666666667,-40.53333333333333
2398,38.4,-567.4666666666667,-53.333333333333336
2399,34.13333333333333,-567.4666666666667,-44.8
