,accelerometerAccelerationX(G),accelerometerAccelerationY(G),accelerometerAccelerationZ(G)
0,0.0,-539.7333333333333,27.733333333333334
1,2.1333333333333333,-533.3333333333334,32.0
2,-2.1333333333333333,-537.6,29.866666666666667
3,6.4,-535.4666666666667,23.466666666666665
4,8.533333333333333,-531.2,27.733333333333334
5,8.533333333333333,-533.3333333333334,29.866666666666667
6,4.266666666666667,-535.4666666666667,32.0
7,0.0,-533.3333333333334,40.53333333333333
8,8.533333333333333,-548.2666666666667,29.866666666666667
9,-2.1333333333333333,-537.6,25.6
10,0.0,-539.7333333333333,27.733333333333334
11,4.266666666666667,-541.8666666666667,29.866666666666667
12,2.1333333333333333,-537.6,34.13333333333333
13,0.0,-535.4666666666667,32.0
14,-6.4,-535.4666666666667,44.8
15,10.666666666666666,-541.8666666666667,36.266666666666666
16,2.1333333333333333,-533.3333333333334,34.13333333333333
17,0.0,-546.1333333333333,36.266666666666666
18,2.1333333333333333,-544.0,34.13333333333333
19,0.0,-537.6,32.0
20,6.4,-533.3333333333334,36.266666666666666
21,2.1333333333333333,-537.6,29.866666666666667
22,-4.266666666666667,-535.4666666666667,32.0
23,-4.266666666666667,-533.3333333333334,27.733333333333334
24,-2.1333333333333333,-531.2,32.0
25,-2.1333333333333333,-537.6,25.6
26,2.1333333333333333,-539.7333333333333,34.13333333333333
27,4.266666666666667,-539.7333333333333,27.733333333333334
28,0.0,-539.7333333333333,34.13333333333333
29,-2.1333333333333333,-537.6,36.266666666666666
30,-2.1333333333333333,-533.3333333333334,36.266666666666666
31,4.266666666666667,-537.6,29.866666666666667
32,-2.1333333333333333,-537.6,25.6
33,0.0,-535.4666666666667,29.866666666666667
34,2.1333333333333333,-539.7333333333333,25.6
35,0.0,-535.4666666666667,36.266666666666666
36,4.266666666666667,-535.4666666666667,29.866666666666667
37,6.4,-535.4666666666667,32.0
38,4.266666666666667,-537.6,29.866666666666667
39,-4.266666666666667,-535.4666666666667,25.6
40,0.0,-533.3333333333334,27.733333333333334
41,-4.266666666666667,-533.3333333333334,32.0
42,0.0,-539.7333333333333,23.466666666666665
43,2.1333333333333333,-541.8666666666667,38.4
44,-2.1333333333333333,-537.6,32.0
45,-8.533333333333333,-533.3333333333334,27.733333333333334
46,-2.1333333333333333,-539.7333333333333,29.866666666666667
47,8.533333333333333,-535.4666666666667,38.4
48,0.0,-533.3333333333334,27.733333333333334
49,-4.266666666666667,-537.6,27.733333333333334
50,4.266666666666667,-535.4666666666667,29.866666666666667
51,-4.266666666666667,-537.6,29.866666666666667
52,0.0,-533.3333333333334,32.0
53,0.0,-539.7333333333333,29.866666666666667
54,-6.4,-535.4666666666667,38.4
55,-4.266666666666667,-539.7333333333333,27.733333333333334
56,-2.1333333333333333,-533.3333333333334,29.866666666666667
57,12.8,-541.8666666666667,44.8
58,-6.4,-535.4666666666667,27.733333333333334
59,2.1333333333333333,-537.6,25.6
60,0.0,-529.0666666666666,27.733333333333334
61,-6.4,-531.2,25.6
62,-4.266666666666667,-529.0666666666666,23.466666666666665
63,-4.266666666666667,-531.2,23.466666666666665
64,0.0,-537.6,32.0
65,-2.1333333333333333,-529.0666666666666,21.333333333333332
66,0.0,-535.4666666666667,36.266666666666666
67,0.0,-535.4666666666667,25.6
68,0.0,-537.6,25.6
69,0.0,-544.0,29.866666666666667
70,-6.4,-526.9333333333333,25.6
71,-4.266666666666667,-533.3333333333334,27.733333333333334
72,-6.4,-529.0666666666666,38.4
73,-6.4,-526.9333333333333,29.866666666666667
74,-8.533333333333333,-531.2,36.266666666666666
75,-10.666666666666666,-531.2,23.466666666666665
76,-12.8,-539.7333333333333,34.13333333333333
77,-6.4,-544.0,40.53333333333333
78,-14.933333333333334,-541.8666666666667,29.866666666666667
79,-12.8,-546.1333333333333,27.733333333333334
80,-8.533333333333333,-552.5333333333333,27.733333333333334
81,-8.533333333333333,-548.2666666666667,23.466666666666665
82,-8.533333333333333,-552.5333333333333,27.733333333333334
83,-4.266666666666667,-554.6666666666666,21.333333333333332
84,-2.1333333333333333,-544.0,17.066666666666666
85,-8.533333333333333,-541.8666666666667,17.066666666666666
86,-6.4,-544.0,21.333333333333332
87,-8.533333333333333,-546.1333333333333,19.2
88,-10.666666666666666,-539.7333333333333,19.2
89,-8.533333333333333,-537.6,27.733333333333334
90,-8.533333333333333,-539.7333333333333,21.333333333333332
91,-8.533333333333333,-537.6,19.2
92,-8.533333333333333,-533.3333333333334,21.333333333333332
93,-10.666666666666666,-537.6,25.6
94,-19.2,-526.9333333333333,17.066666666666666
95,-17.066666666666666,-539.7333333333333,23.466666666666665
96,-6.4,-535.4666666666667,21.333333333333332
97,-14.933333333333334,-535.4666666666667,17.066666666666666
98,-6.4,-535.4666666666667,14.933333333333334
99,-8.533333333333333,-535.4666666666667,12.8
100,0.0,-539.7333333333333,25.6
101,-6.4,-541.8666666666667,14.933333333333334
102,-6.4,-531.2,17.066666666666666
103,-4.266666666666667,-535.4666666666667,17.066666666666666
104,-8.533333333333333,-531.2,21.333333333333332
105,-8.533333333333333,-533.3333333333334,12.8
106,-8.533333333333333,-539.7333333333333,19.2
107,-8.533333333333333,-533.3333333333334,17.066666666666666
108,-4.266666666666667,-537.6,19.2
109,-6.4,-537.6,10.666666666666666
110,-6.4,-533.3333333333334,21.333333333333332
111,-4.266666666666667,-537.6,19.2
112,-4.266666666666667,-535.4666666666667,17.066666666666666
113,-4.266666666666667,-537.6,10.666666666666666
114,-6.4,-537.6,19.2
115,-2.1333333333333333,-546.1333333333333,21.333333333333332
116,-2.1333333333333333,-539.7333333333333,17.066666666666666
117,0.0,-546.1333333333333,8.533333333333333
118,-4.266666666666667,-544.0,10.666666666666666
119,2.1333333333333333,-546.1333333333333,8.533333333333333
120,-4.266666666666667,-546.1333333333333,14.933333333333334
121,-6.4,-544.0,17.066666666666666
122,-2.1333333333333333,-537.6,10.666666666666666
123,-4.266666666666667,-539.7333333333333,14.933333333333334
124,-2.1333333333333333,-533.3333333333334,21.333333333333332
125,-4.266666666666667,-533.3333333333334,14.933333333333334
126,-2.1333333333333333,-541.8666666666667,17.066666666666666
127,0.0,-537.6,19.2
128,6.4,-535.4666666666667,12.8
129,4.266666666666667,-539.7333333333333,8.533333333333333
130,10.666666666666666,-544.0,12.8
131,4.266666666666667,-544.0,4.266666666666667
132,2.1333333333333333,-535.4666666666667,-4.266666666666667
133,4.266666666666667,-546.1333333333333,6.4
134,-2.1333333333333333,-544.0,2.1333333333333333
135,0.0,-544.0,8.533333333333333
136,4.266666666666667,-546.1333333333333,8.533333333333333
137,0.0,-539.7333333333333,6.4
138,2.1333333333333333,-546.1333333333333,6.4
139,4.266666666666667,-541.8666666666667,4.266666666666667
140,2.1333333333333333,-541.8666666666667,10.666666666666666
141,6.4,-541.8666666666667,8.533333333333333
142,2.1333333333333333,-541.8666666666667,6.4
143,4.266666666666667,-539.7333333333333,6.4
144,10.666666666666666,-535.4666666666667,10.666666666666666
145,12.8,-546.1333333333333,8.533333333333333
146,8.533333333333333,-531.2,0.0
147,6.4,-533.3333333333334,6.4
148,8.533333333333333,-537.6,6.4
149,14.933333333333334,-539.7333333333333,8.533333333333333
150,14.933333333333334,-535.4666666666667,6.4
151,12.8,-535.4666666666667,10.666666666666666
152,10.666666666666666,-535.4666666666667,6.4
153,4.266666666666667,-529.0666666666666,4.266666666666667
154,17.066666666666666,-526.9333333333333,6.4
155,12.8,-533.3333333333334,14.933333333333334
156,10.666666666666666,-531.2,6.4
157,14.933333333333334,-531.2,0.0
158,23.466666666666665,-539.7333333333333,4.266666666666667
159,10.666666666666666,-533.3333333333334,6.4
160,10.666666666666666,-529.0666666666666,12.8
161,10.666666666666666,-535.4666666666667,2.1333333333333333
162,-4.266666666666667,-533.3333333333334,4.266666666666667
163,2.1333333333333333,-535.4666666666667,6.4
164,-2.1333333333333333,-531.2,8.533333333333333
165,4.266666666666667,-537.6,12.8
166,-2.1333333333333333,-541.8666666666667,10.666666666666666
167,0.0,-546.1333333333333,6.4
168,-4.266666666666667,-541.8666666666667,10.666666666666666
169,-4.266666666666667,-539.7333333333333,-2.1333333333333333
170,0.0,-537.6,2.1333333333333333
171,0.0,-539.7333333333333,4.266666666666667
172,2.1333333333333333,-541.8666666666667,-2.1333333333333333
173,2.1333333333333333,-529.0666666666666,2.1333333333333333
174,2.1333333333333333,-541.8666666666667,-10.666666666666666
175,6.4,-526.9333333333333,2.1333333333333333
176,14.933333333333334,-526.9333333333333,4.266666666666667
177,6.4,-531.2,4.266666666666667
178,12.8,-541.8666666666667,6.4
179,8.533333333333333,-537.6,2.1333333333333333
180,8.533333333333333,-529.0666666666666,14.933333333333334
181,12.8,-541.8666666666667,10.666666666666666
182,6.4,-539.7333333333333,14.933333333333334
183,8.533333333333333,-535.4666666666667,14.933333333333334
184,14.933333333333334,-539.7333333333333,10.666666666666666
185,8.533333333333333,-535.4666666666667,10.666666666666666
186,6.4,-541.8666666666667,10.666666666666666
187,4.266666666666667,-535.4666666666667,6.4
188,10.666666666666666,-539.7333333333333,10.666666666666666
189,10.666666666666666,-537.6,-6.4
190,4.266666666666667,-537.6,4.266666666666667
191,6.4,-531.2,4.266666666666667
192,4.266666666666667,-529.0666666666666,0.0
193,4.266666666666667,-531.2,-4.266666666666667
194,4.266666666666667,-533.3333333333334,4.266666666666667
195,6.4,-539.7333333333333,2.1333333333333333
196,12.8,-535.4666666666667,4.266666666666667
197,0.0,-541.8666666666667,-2.1333333333333333
198,4.266666666666667,-531.2,2.1333333333333333
199,6.4,-537.6,4.266666666666667
200,0.0,-539.7333333333333,6.4
201,0.0,-541.8666666666667,4.266666666666667
202,8.533333333333333,-544.0,8.533333333333333
203,10.666666666666666,-546.1333333333333,4.266666666666667
204,10.666666666666666,-537.6,-4.266666666666667
205,8.533333333333333,-539.7333333333333,4.266666666666667
206,8.533333333333333,-539.7333333333333,4.266666666666667
207,14.933333333333334,-539.7333333333333,0.0
208,17.066666666666666,-537.6,2.1333333333333333
209,17.066666666666666,-539.7333333333333,2.1333333333333333
210,14.933333333333334,-539.7333333333333,14.933333333333334
211,17.066666666666666,-541.8666666666667,2.1333333333333333
212,17.066666666666666,-539.7333333333333,4.266666666666667
213,29.866666666666667,-535.4666666666667,-2.1333333333333333
214,32.0,-533.3333333333334,2.1333333333333333
215,36.266666666666666,-537.6,2.1333333333333333
216,36.266666666666666,-529.0666666666666,4.266666666666667
217,34.13333333333333,-526.9333333333333,2.1333333333333333
218,44.8,-526.9333333333333,-4.266666666666667
219,40.53333333333333,-526.9333333333333,8.533333333333333
220,49.06666666666666,-524.8,-4.266666666666667
221,55.46666666666667,-529.0666666666666,-10.666666666666666
222,57.6,-526.9333333333333,-17.066666666666666
223,55.46666666666667,-522.6666666666666,-6.4
224,64.0,-533.3333333333334,-10.666666666666666
225,59.733333333333334,-526.9333333333333,-8.533333333333333
226,64.0,-524.8,-10.666666666666666
227,61.86666666666667,-531.2,-10.666666666666666
228,68.26666666666667,-533.3333333333334,-4.266666666666667
229,59.733333333333334,-533.3333333333334,6.4
230,51.2,-537.6,6.4
231,44.8,-541.8666666666667,12.8
232,40.53333333333333,-541.8666666666667,10.666666666666666
233,29.866666666666667,-537.6,17.066666666666666
234,29.866666666666667,-537.6,27.733333333333334
235,29.866666666666667,-535.4666666666667,19.2
236,23.466666666666665,-541.8666666666667,19.2
237,25.6,-533.3333333333334,19.2
238,25.6,-537.6,10.666666666666666
239,25.6,-539.7333333333333,21.333333333333332
240,14.933333333333334,-537.6,23.466666666666665
241,21.333333333333332,-544.0,19.2
242,19.2,-548.2666666666667,19.2
243,21.333333333333332,-544.0,23.466666666666665
244,21.333333333333332,-541.8666666666667,32.0
245,25.6,-539.7333333333333,32.0
246,27.733333333333334,-539.7333333333333,29.866666666666667
247,32.0,-537.6,32.0
248,36.266666666666666,-524.8,25.6
249,36.266666666666666,-524.8,12.8
250,36.266666666666666,-531.2,12.8
251,40.53333333333333,-535.4666666666667,17.066666666666666
252,46.93333333333333,-524.8,17.066666666666666
253,66.13333333333333,-526.9333333333333,17.066666666666666
254,70.4,-529.0666666666666,10.666666666666666
255,72.53333333333333,-535.4666666666667,8.533333333333333
256,66.13333333333333,-529.0666666666666,10.666666666666666
257,76.8,-535.4666666666667,14.933333333333334
258,72.53333333333333,-535.4666666666667,17.066666666666666
259,74.66666666666667,-535.4666666666667,17.066666666666666
260,76.8,-541.8666666666667,17.066666666666666
261,72.53333333333333,-548.2666666666667,17.066666666666666
262,72.53333333333333,-539.7333333333333,10.666666666666666
263,76.8,-546.1333333333333,17.066666666666666
264,70.4,-546.1333333333333,10.666666666666666
265,57.6,-537.6,23.466666666666665
266,61.86666666666667,-541.8666666666667,17.066666666666666
267,53.333333333333336,-537.6,17.066666666666666
268,55.46666666666667,-539.7333333333333,10.666666666666666
269,51.2,-526.9333333333333,17.066666666666666
270,49.06666666666666,-520.5333333333333,19.2
271,44.8,-526.9333333333333,19.2
272,44.8,-516.2666666666667,19.2
273,49.06666666666666,-516.2666666666667,25.6
274,49.06666666666666,-514.1333333333333,25.6
275,44.8,-514.1333333333333,21.333333333333332
276,42.666666666666664,-512.0,17.066666666666666
277,34.13333333333333,-516.2666666666667,25.6
278,27.733333333333334,-507.73333333333335,23.466666666666665
279,25.6,-522.6666666666666,19.2
280,25.6,-526.9333333333333,29.866666666666667
281,19.2,-522.6666666666666,34.13333333333333
282,19.2,-516.2666666666667,23.466666666666665
283,17.066666666666666,-524.8,36.266666666666666
284,17.066666666666666,-522.6666666666666,34.13333333333333
285,10.666666666666666,-520.5333333333333,36.266666666666666
286,19.2,-531.2,32.0
287,27.733333333333334,-529.0666666666666,29.866666666666667
288,14.933333333333334,-535.4666666666667,29.866666666666667
289,23.466666666666665,-535.4666666666667,25.6
290,23.466666666666665,-526.9333333333333,23.466666666666665
291,23.466666666666665,-529.0666666666666,25.6
292,25.6,-531.2,25.6
293,25.6,-537.6,23.466666666666665
294,34.13333333333333,-529.0666666666666,25.6
295,40.53333333333333,-531.2,21.333333333333332
296,36.266666666666666,-533.3333333333334,21.333333333333332
297,42.666666666666664,-526.9333333333333,25.6
298,46.93333333333333,-529.0666666666666,25.6
299,51.2,-529.0666666666666,32.0
300,61.86666666666667,-531.2,23.466666666666665
301,59.733333333333334,-526.9333333333333,23.466666666666665
302,61.86666666666667,-531.2,34.13333333333333
303,55.46666666666667,-516.2666666666667,29.866666666666667
304,51.2,-522.6666666666666,32.0
305,55.46666666666667,-529.0666666666666,21.333333333333332
306,55.46666666666667,-531.2,32.0
307,49.06666666666666,-531.2,29.866666666666667
308,57.6,-541.8666666666667,25.6
309,53.333333333333336,-546.1333333333333,32.0
310,49.06666666666666,-544.0,27.733333333333334
311,53.333333333333336,-541.8666666666667,34.13333333333333
312,44.8,-550.4,34.13333333333333
313,36.266666666666666,-556.8,40.53333333333333
314,34.13333333333333,-558.9333333333333,38.4
315,32.0,-558.9333333333333,44.8
316,25.6,-567.4666666666667,53.333333333333336
317,29.866666666666667,-563.2,44.8
318,25.6,-563.2,49.06666666666666
319,34.13333333333333,-567.4666666666667,53.333333333333336
320,34.13333333333333,-573.8666666666667,57.6
321,44.8,-573.8666666666667,55.46666666666667
322,36.266666666666666,-578.1333333333333,57.6
323,44.8,-584.5333333333333,66.13333333333333
324,55.46666666666667,-586.6666666666666,66.13333333333333
325,57.6,-593.0666666666666,66.13333333333333
326,61.86666666666667,-584.5333333333333,66.13333333333333
327,64.0,-586.6666666666666,59.733333333333334
328,64.0,-580.2666666666667,57.6
329,68.26666666666667,-586.6666666666666,68.26666666666667
330,78.93333333333334,-576.0,66.13333333333333
331,78.93333333333334,-563.2,70.4
332,83.2,-561.0666666666666,74.66666666666667
333,87.46666666666667,-558.9333333333333,57.6
334,96.0,-556.8,59.733333333333334
335,87.46666666666667,-558.9333333333333,55.46666666666667
336,102.4,-556.8,53.333333333333336
337,93.86666666666666,-565.3333333333334,59.733333333333334
338,98.13333333333333,-567.4666666666667,55.46666666666667
339,96.0,-578.1333333333333,61.86666666666667
340,93.86666666666666,-571.7333333333333,53.333333333333336
341,93.86666666666666,-584.5333333333333,57.6
342,93.86666666666666,-584.5333333333333,49.06666666666666
343,100.26666666666667,-599.4666666666667,46.93333333333333
344,108.8,-603.7333333333333,29.866666666666667
345,117.33333333333333,-620.8,25.6
346,102.4,-627.2,25.6
347,106.66666666666667,-637.8666666666667,29.866666666666667
348,104.53333333333333,-644.2666666666667,27.733333333333334
349,113.06666666666666,-648.5333333333333,29.866666666666667
350,106.66666666666667,-650.6666666666666,29.866666666666667
351,102.4,-654.9333333333333,29.866666666666667
352,93.86666666666666,-644.2666666666667,25.6
353,100.26666666666667,-640.0,17.066666666666666
354,102.4,-627.2,-6.4
355,98.13333333333333,-614.4,-14.933333333333334
356,89.6,-622.9333333333333,-42.666666666666664
357,76.8,-599.4666666666667,-44.8
358,70.4,-605.8666666666667,-38.4
359,59.733333333333334,-595.2,-59.733333333333334
360,55.46666666666667,-571.7333333333333,-59.733333333333334
361,44.8,-554.6666666666666,-76.8
362,32.0,-526.9333333333333,-74.66666666666667
363,25.6,-486.4,-87.46666666666667
364,21.333333333333332,-456.5333333333333,-89.6
365,6.4,-422.4,-96.0
366,-17.066666666666666,-403.2,-93.86666666666666
367,-23.466666666666665,-396.8,-98.13333333333333
368,-55.46666666666667,-377.6,-106.66666666666667
369,-68.26666666666667,-377.6,-108.8
370,-72.53333333333333,-381.8666666666667,-119.46666666666667
371,-87.46666666666667,-388.26666666666665,-125.86666666666666
372,-98.13333333333333,-398.93333333333334,-130.13333333333333
373,-119.46666666666667,-411.73333333333335,-134.4
374,-119.46666666666667,-424.5333333333333,-119.46666666666667
375,-123.73333333333333,-458.6666666666667,-110.93333333333334
376,-113.06666666666666,-484.26666666666665,-96.0
377,-96.0,-522.6666666666666,-81.06666666666666
378,-57.6,-558.9333333333333,-64.0
379,-44.8,-588.8,-49.06666666666666
380,-25.6,-622.9333333333333,-23.466666666666665
381,-17.066666666666666,-648.5333333333333,-14.933333333333334
382,-8.533333333333333,-652.8,-14.933333333333334
383,-6.4,-644.2666666666667,-14.933333333333334
384,-2.1333333333333333,-614.4,-25.6
385,-4.266666666666667,-567.4666666666667,-76.8
386,-10.666666666666666,-552.5333333333333,-89.6
387,-8.533333333333333,-531.2,-113.06666666666666
388,-8.533333333333333,-512.0,-106.66666666666667
389,-10.666666666666666,-488.5333333333333,-76.8
390,-14.933333333333334,-477.8666666666667,-66.13333333333333
391,-12.8,-473.59999999999997,-55.46666666666667
392,-23.466666666666665,-486.4,-40.53333333333333
393,-10.666666666666666,-512.0,-29.866666666666667
394,-4.266666666666667,-539.7333333333333,-23.466666666666665
395,2.1333333333333333,-548.2666666666667,-23.466666666666665
396,6.4,-563.2,-25.6
397,10.666666666666666,-576.0,-29.866666666666667
398,17.066666666666666,-580.2666666666667,-29.866666666666667
399,14.933333333333334,-584.5333333333333,-32.0
400,21.333333333333332,-573.8666666666667,-29.866666666666667
401,6.4,-552.5333333333333,-32.0
402,4.266666666666667,-531.2,-36.266666666666666
403,8.533333333333333,-512.0,-38.4
404,-6.4,-482.1333333333333,-34.13333333333333
405,-8.533333333333333,-460.8,-36.266666666666666
406,-17.066666666666666,-441.59999999999997,-49.06666666666666
407,-29.866666666666667,-433.06666666666666,-46.93333333333333
408,-44.8,-416.0,-38.4
409,-53.333333333333336,-411.73333333333335,-42.666666666666664
410,-55.46666666666667,-413.8666666666667,-38.4
411,-66.13333333333333,-407.46666666666664,-27.733333333333334
412,-57.6,-416.0,-29.866666666666667
413,-61.86666666666667,-418.1333333333333,-27.733333333333334
414,-57.6,-426.6666666666667,-25.6
415,-51.2,-428.8,-29.866666666666667
416,-46.93333333333333,-443.73333333333335,-19.2
417,-38.4,-452.26666666666665,-8.533333333333333
418,-40.53333333333333,-467.2,-6.4
419,-38.4,-477.8666666666667,-10.666666666666666
420,-34.13333333333333,-486.4,-2.1333333333333333
421,-40.53333333333333,-492.8,-2.1333333333333333
422,-38.4,-497.06666666666666,-6.4
423,-36.266666666666666,-509.8666666666667,-6.4
424,-38.4,-505.59999999999997,6.4
425,-42.666666666666664,-509.8666666666667,-4.266666666666667
426,-40.53333333333333,-518.4,8.533333333333333
427,-42.666666666666664,-512.0,4.266666666666667
428,-34.13333333333333,-514.1333333333333,4.266666666666667
429,-32.0,-509.8666666666667,-2.1333333333333333
430,-36.266666666666666,-507.73333333333335,-8.533333333333333
431,-32.0,-501.3333333333333,4.266666666666667
432,-29.866666666666667,-492.8,0.0
433,-42.666666666666664,-499.2,-4.266666666666667
434,-40.53333333333333,-499.2,-6.4
435,-53.333333333333336,-501.3333333333333,-8.533333333333333
436,-51.2,-494.93333333333334,4.266666666666667
437,-55.46666666666667,-494.93333333333334,6.4
438,-59.733333333333334,-494.93333333333334,6.4
439,-57.6,-497.06666666666666,4.266666666666667
440,-51.2,-503.46666666666664,17.066666666666666
441,-55.46666666666667,-505.59999999999997,19.2
442,-55.46666666666667,-516.2666666666667,38.4
443,-53.333333333333336,-524.8,38.4
444,-55.46666666666667,-533.3333333333334,51.2
445,-53.333333333333336,-539.7333333333333,59.733333333333334
446,-51.2,-550.4,68.26666666666667
447,-55.46666666666667,-554.6666666666666,87.46666666666667
448,-55.46666666666667,-554.6666666666666,78.93333333333334
449,-64.0,-556.8,61.86666666666667
450,-76.8,-567.4666666666667,32.0
451,-96.0,-578.1333333333333,21.333333333333332
452,-104.53333333333333,-584.5333333333333,21.333333333333332
453,-106.66666666666667,-601.6,19.2
454,-104.53333333333333,-614.4,29.866666666666667
455,-106.66666666666667,-612.2666666666667,38.4
456,-119.46666666666667,-605.8666666666667,46.93333333333333
457,-119.46666666666667,-595.2,42.666666666666664
458,-123.73333333333333,-593.0666666666666,19.2
459,-117.33333333333333,-582.4,4.266666666666667
460,-108.8,-580.2666666666667,0.0
461,-98.13333333333333,-595.2,17.066666666666666
462,-91.73333333333333,-597.3333333333334,40.53333333333333
463,-83.2,-610.1333333333333,76.8
464,-87.46666666666667,-625.0666666666666,98.13333333333333
465,-83.2,-637.8666666666667,102.4
466,-83.2,-650.6666666666666,104.53333333333333
467,-83.2,-657.0666666666666,110.93333333333334
468,-89.6,-661.3333333333334,87.46666666666667
469,-91.73333333333333,-669.8666666666667,74.66666666666667
470,-102.4,-657.0666666666666,76.8
471,-100.26666666666667,-654.9333333333333,70.4
472,-108.8,-654.9333333333333,57.6
473,-106.66666666666667,-642.1333333333333,61.86666666666667
474,-93.86666666666666,-635.7333333333333,19.2
475,-61.86666666666667,-648.5333333333333,8.533333333333333
476,-57.6,-620.8,-21.333333333333332
477,-61.86666666666667,-618.6666666666666,-34.13333333333333
478,-68.26666666666667,-605.8666666666667,-51.2
479,-93.86666666666666,-612.2666666666667,-108.8
480,-128.0,-584.5333333333333,-142.93333333333334
481,-145.06666666666666,-582.4,-211.2
482,-145.06666666666666,-597.3333333333334,-266.6666666666667
483,-132.26666666666665,-614.4,-309.3333333333333
484,-121.6,-640.0,-307.2
485,-104.53333333333333,-642.1333333333333,-279.46666666666664
486,-78.93333333333334,-644.2666666666667,-247.46666666666667
487,-49.06666666666666,-622.9333333333333,-217.6
488,-29.866666666666667,-580.2666666666667,-189.86666666666667
489,-8.533333333333333,-537.6,-185.6
490,2.1333333333333333,-507.73333333333335,-168.53333333333333
491,25.6,-469.3333333333333,-172.8
492,36.266666666666666,-460.8,-157.86666666666667
493,46.93333333333333,-471.46666666666664,-138.66666666666666
494,55.46666666666667,-484.26666666666665,-113.06666666666666
495,51.2,-490.6666666666667,-89.6
496,68.26666666666667,-501.3333333333333,-59.733333333333334
497,59.733333333333334,-512.0,-40.53333333333333
498,49.06666666666666,-507.73333333333335,-19.2
499,40.53333333333333,-501.3333333333333,-25.6
500,19.2,-492.8,-34.13333333333333
501,-4.266666666666667,-475.73333333333335,-46.93333333333333
502,-8.533333333333333,-475.73333333333335,-72.53333333333333
503,-17.066666666666666,-473.59999999999997,-85.33333333333333
504,-36.266666666666666,-477.8666666666667,-93.86666666666666
505,-51.2,-484.26666666666665,-89.6
506,-64.0,-492.8,-81.06666666666666
507,-64.0,-501.3333333333333,-81.06666666666666
508,-66.13333333333333,-509.8666666666667,-83.2
509,-61.86666666666667,-507.73333333333335,-76.8
510,-61.86666666666667,-518.4,-59.733333333333334
511,-53.333333333333336,-522.6666666666666,-64.0
512,-46.93333333333333,-531.2,-51.2
513,-36.266666666666666,-535.4666666666667,-49.06666666666666
514,-25.6,-535.4666666666667,-38.4
515,-19.2,-526.9333333333333,-34.13333333333333
516,-8.533333333333333,-520.5333333333333,-49.06666666666666
517,2.1333333333333333,-501.3333333333333,-36.266666666666666
518,0.0,-486.4,-40.53333333333333
519,2.1333333333333333,-469.3333333333333,-44.8
520,12.8,-454.4,-68.26666666666667
521,21.333333333333332,-441.59999999999997,-64.0
522,29.866666666666667,-439.46666666666664,-66.13333333333333
523,23.466666666666665,-430.93333333333334,-53.333333333333336
524,23.466666666666665,-439.46666666666664,-49.06666666666666
525,23.466666666666665,-448.0,-46.93333333333333
526,29.866666666666667,-471.46666666666664,-44.8
527,29.866666666666667,-484.26666666666665,-34.13333333333333
528,29.866666666666667,-497.06666666666666,-38.4
529,21.333333333333332,-507.73333333333335,-34.13333333333333
530,23.466666666666665,-518.4,-34.13333333333333
531,23.466666666666665,-518.4,-36.266666666666666
532,21.333333333333332,-518.4,-44.8
533,8.533333333333333,-507.73333333333335,-25.6
534,12.8,-507.73333333333335,-38.4
535,10.666666666666666,-509.8666666666667,-40.53333333333333
536,12.8,-501.3333333333333,-49.06666666666666
537,23.466666666666665,-503.46666666666664,-34.13333333333333
538,23.466666666666665,-488.5333333333333,-36.266666666666666
539,34.13333333333333,-484.26666666666665,-34.13333333333333
540,32.0,-477.8666666666667,-25.6
541,27.733333333333334,-469.3333333333333,-25.6
542,34.13333333333333,-471.46666666666664,-23.466666666666665
543,32.0,-469.3333333333333,-29.866666666666667
544,27.733333333333334,-473.59999999999997,-32.0
545,25.6,-473.59999999999997,-38.4
546,21.333333333333332,-484.26666666666665,-34.13333333333333
547,14.933333333333334,-488.5333333333333,-36.266666666666666
548,10.666666666666666,-499.2,-38.4
549,14.933333333333334,-503.46666666666664,-34.13333333333333
550,6.4,-505.59999999999997,-14.933333333333334
551,10.666666666666666,-501.3333333333333,-2.1333333333333333
552,4.266666666666667,-501.3333333333333,-2.1333333333333333
553,0.0,-494.93333333333334,-2.1333333333333333
554,0.0,-492.8,-12.8
555,6.4,-494.93333333333334,-12.8
556,6.4,-490.6666666666667,-14.933333333333334
557,0.0,-484.26666666666665,-8.533333333333333
558,-2.1333333333333333,-501.3333333333333,-4.266666666666667
559,-2.1333333333333333,-492.8,12.8
560,0.0,-503.46666666666664,14.933333333333334
561,6.4,-516.2666666666667,14.933333333333334
562,4.266666666666667,-526.9333333333333,23.466666666666665
563,4.266666666666667,-537.6,21.333333333333332
564,10.666666666666666,-550.4,40.53333333333333
565,8.533333333333333,-554.6666666666666,64.0
566,8.533333333333333,-556.8,74.66666666666667
567,10.666666666666666,-569.6,85.33333333333333
568,4.266666666666667,-573.8666666666667,87.46666666666667
569,19.2,-584.5333333333333,93.86666666666666
570,29.866666666666667,-580.2666666666667,96.0
571,40.53333333333333,-588.8,93.86666666666666
572,21.333333333333332,-576.0,85.33333333333333
573,32.0,-573.8666666666667,83.2
574,40.53333333333333,-573.8666666666667,78.93333333333334
575,53.333333333333336,-571.7333333333333,78.93333333333334
576,66.13333333333333,-580.2666666666667,61.86666666666667
577,64.0,-573.8666666666667,51.2
578,64.0,-556.8,40.53333333333333
579,66.13333333333333,-552.5333333333333,12.8
580,72.53333333333333,-554.6666666666666,-4.266666666666667
581,53.333333333333336,-541.8666666666667,-8.533333333333333
582,32.0,-548.2666666666667,-17.066666666666666
583,23.466666666666665,-548.2666666666667,2.1333333333333333
584,27.733333333333334,-548.2666666666667,6.4
585,21.333333333333332,-552.5333333333333,19.2
586,32.0,-567.4666666666667,29.866666666666667
587,42.666666666666664,-571.7333333333333,64.0
588,70.4,-584.5333333333333,96.0
589,108.8,-610.1333333333333,128.0
590,125.86666666666666,-620.8,147.2
591,153.6,-637.8666666666667,149.33333333333334
592,162.13333333333333,-661.3333333333334,157.86666666666667
593,172.8,-665.6,138.66666666666666
594,157.86666666666667,-680.5333333333333,119.46666666666667
595,136.53333333333333,-686.9333333333333,108.8
596,110.93333333333334,-689.0666666666666,91.73333333333333
597,72.53333333333333,-680.5333333333333,96.0
598,57.6,-667.7333333333333,83.2
599,29.866666666666667,-652.8,64.0
600,4.266666666666667,-618.6666666666666,42.666666666666664
601,-12.8,-588.8,38.4
602,-36.266666666666666,-565.3333333333334,32.0
603,-42.666666666666664,-533.3333333333334,23.466666666666665
604,-40.53333333333333,-509.8666666666667,12.8
605,-34.13333333333333,-490.6666666666667,-14.933333333333334
606,-10.666666666666666,-484.26666666666665,-53.333333333333336
607,14.933333333333334,-482.1333333333333,-98.13333333333333
608,44.8,-503.46666666666664,-125.86666666666666
609,64.0,-518.4,-155.73333333333332
610,96.0,-544.0,-177.06666666666666
611,123.73333333333333,-561.0666666666666,-185.6
612,164.26666666666665,-576.0,-224.0
613,196.26666666666665,-595.2,-251.73333333333332
614,217.6,-599.4666666666667,-292.26666666666665
615,187.73333333333332,-614.4,-315.73333333333335
616,130.13333333333333,-618.6666666666666,-300.8
617,68.26666666666667,-618.6666666666666,-260.26666666666665
618,29.866666666666667,-629.3333333333334,-217.6
619,-29.866666666666667,-612.2666666666667,-130.13333333333333
620,-61.86666666666667,-595.2,-66.13333333333333
621,-76.8,-584.5333333333333,-29.866666666666667
622,-132.26666666666665,-573.8666666666667,-34.13333333333333
623,-168.53333333333333,-578.1333333333333,-34.13333333333333
624,-217.6,-584.5333333333333,-51.2
625,-247.46666666666667,-588.8,-66.13333333333333
626,-245.33333333333334,-588.8,-78.93333333333334
627,-224.0,-576.0,-102.4
628,-192.0,-567.4666666666667,-113.06666666666666
629,-151.46666666666667,-552.5333333333333,-108.8
630,-125.86666666666666,-541.8666666666667,-98.13333333333333
631,-106.66666666666667,-526.9333333333333,-74.66666666666667
632,-74.66666666666667,-524.8,-64.0
633,-55.46666666666667,-539.7333333333333,-57.6
634,-19.2,-544.0,-25.6
635,6.4,-558.9333333333333,-27.733333333333334
636,29.866666666666667,-535.4666666666667,-14.933333333333334
637,44.8,-546.1333333333333,-34.13333333333333
638,66.13333333333333,-524.8,-36.266666666666666
639,81.06666666666666,-497.06666666666666,-38.4
640,74.66666666666667,-454.4,-53.333333333333336
641,68.26666666666667,-428.8,-78.93333333333334
642,57.6,-416.0,-87.46666666666667
643,38.4,-394.6666666666667,-76.8
644,19.2,-369.06666666666666,-61.86666666666667
645,4.266666666666667,-364.8,-53.333333333333336
646,-10.666666666666666,-369.06666666666666,-44.8
647,-25.6,-373.3333333333333,-53.333333333333336
648,-23.466666666666665,-388.26666666666665,-61.86666666666667
649,-21.333333333333332,-407.46666666666664,-70.4
650,-8.533333333333333,-424.5333333333333,-72.53333333333333
651,-8.533333333333333,-448.0,-72.53333333333333
652,-4.266666666666667,-475.73333333333335,-55.46666666666667
653,-8.533333333333333,-486.4,-46.93333333333333
654,-19.2,-503.46666666666664,-49.06666666666666
655,-17.066666666666666,-516.2666666666667,-32.0
656,-32.0,-524.8,-12.8
657,-49.06666666666666,-518.4,4.266666666666667
658,-64.0,-529.0666666666666,4.266666666666667
659,-70.4,-531.2,8.533333333333333
660,-87.46666666666667,-533.3333333333334,8.533333333333333
661,-89.6,-518.4,-4.266666666666667
662,-100.26666666666667,-516.2666666666667,-8.533333333333333
663,-102.4,-497.06666666666666,-14.933333333333334
664,-108.8,-492.8,-23.466666666666665
665,-106.66666666666667,-480.0,-14.933333333333334
666,-115.2,-482.1333333333333,-23.466666666666665
667,-108.8,-473.59999999999997,-23.466666666666665
668,-98.13333333333333,-480.0,-23.466666666666665
669,-93.86666666666666,-473.59999999999997,-21.333333333333332
670,-93.86666666666666,-482.1333333333333,-10.666666666666666
671,-89.6,-482.1333333333333,-19.2
672,-76.8,-490.6666666666667,-10.666666666666666
673,-61.86666666666667,-494.93333333333334,-19.2
674,-61.86666666666667,-477.8666666666667,-12.8
675,-57.6,-488.5333333333333,-2.1333333333333333
676,-51.2,-475.73333333333335,-14.933333333333334
677,-55.46666666666667,-475.73333333333335,-14.933333333333334
678,-53.333333333333336,-482.1333333333333,-8.533333333333333
679,-61.86666666666667,-473.59999999999997,-6.4
680,-53.333333333333336,-471.46666666666664,-14.933333333333334
681,-59.733333333333334,-462.93333333333334,-6.4
682,-49.06666666666666,-471.46666666666664,-6.4
683,-40.53333333333333,-473.59999999999997,10.666666666666666
684,-42.666666666666664,-477.8666666666667,17.066666666666666
685,-34.13333333333333,-490.6666666666667,17.066666666666666
686,-27.733333333333334,-497.06666666666666,17.066666666666666
687,-21.333333333333332,-501.3333333333333,29.866666666666667
688,-17.066666666666666,-514.1333333333333,42.666666666666664
689,-14.933333333333334,-514.1333333333333,44.8
690,-8.533333333333333,-531.2,57.6
691,-6.4,-541.8666666666667,74.66666666666667
692,-4.266666666666667,-552.5333333333333,87.46666666666667
693,-8.533333333333333,-554.6666666666666,89.6
694,-8.533333333333333,-561.0666666666666,83.2
695,-8.533333333333333,-561.0666666666666,96.0
696,-8.533333333333333,-561.0666666666666,83.2
697,-34.13333333333333,-556.8,68.26666666666667
698,-66.13333333333333,-563.2,49.06666666666666
699,-89.6,-556.8,38.4
700,-91.73333333333333,-558.9333333333333,17.066666666666666
701,-93.86666666666666,-561.0666666666666,-4.266666666666667
702,-93.86666666666666,-554.6666666666666,-4.266666666666667
703,-91.73333333333333,-552.5333333333333,-17.066666666666666
704,-108.8,-548.2666666666667,-19.2
705,-96.0,-541.8666666666667,-25.6
706,-81.06666666666666,-556.8,-12.8
707,-85.33333333333333,-563.2,17.066666666666666
708,-93.86666666666666,-580.2666666666667,34.13333333333333
709,-115.2,-599.4666666666667,57.6
710,-166.4,-599.4666666666667,64.0
711,-183.46666666666667,-612.2666666666667,83.2
712,-192.0,-601.6,104.53333333333333
713,-200.53333333333333,-646.4,123.73333333333333
714,-194.13333333333333,-665.6,147.2
715,-179.2,-686.9333333333333,155.73333333333332
716,-145.06666666666666,-701.8666666666667,172.8
717,-123.73333333333333,-714.6666666666666,177.06666666666666
718,-104.53333333333333,-723.2,172.8
719,-87.46666666666667,-718.9333333333333,149.33333333333334
720,-78.93333333333334,-708.2666666666667,106.66666666666667
721,-57.6,-706.1333333333333,59.733333333333334
722,-29.866666666666667,-684.8,29.866666666666667
723,-23.466666666666665,-661.3333333333334,25.6
724,-36.266666666666666,-616.5333333333333,17.066666666666666
725,-40.53333333333333,-590.9333333333333,2.1333333333333333
726,-38.4,-563.2,-27.733333333333334
727,-40.53333333333333,-556.8,-64.0
728,-49.06666666666666,-554.6666666666666,-93.86666666666666
729,-74.66666666666667,-558.9333333333333,-138.66666666666666
730,-121.6,-580.2666666666667,-168.53333333333333
731,-147.2,-610.1333333333333,-200.53333333333333
732,-149.33333333333334,-635.7333333333333,-211.2
733,-145.06666666666666,-663.4666666666667,-221.86666666666667
734,-125.86666666666666,-661.3333333333334,-228.26666666666665
735,-106.66666666666667,-642.1333333333333,-230.4
736,-83.2,-612.2666666666667,-224.0
737,-53.333333333333336,-580.2666666666667,-221.86666666666667
738,-27.733333333333334,-546.1333333333333,-211.2
739,-8.533333333333333,-509.8666666666667,-202.66666666666666
740,12.8,-497.06666666666666,-170.66666666666666
741,29.866666666666667,-490.6666666666667,-149.33333333333334
742,61.86666666666667,-499.2,-119.46666666666667
743,98.13333333333333,-509.8666666666667,-85.33333333333333
744,125.86666666666666,-524.8,-44.8
745,138.66666666666666,-533.3333333333334,-17.066666666666666
746,138.66666666666666,-544.0,-8.533333333333333
747,138.66666666666666,-537.6,0.0
748,132.26666666666665,-522.6666666666666,-23.466666666666665
749,110.93333333333334,-503.46666666666664,-74.66666666666667
750,83.2,-462.93333333333334,-117.33333333333333
751,49.06666666666666,-428.8,-138.66666666666666
752,6.4,-405.3333333333333,-183.46666666666667
753,-34.13333333333333,-375.46666666666664,-194.13333333333333
754,-40.53333333333333,-366.93333333333334,-185.6
755,-64.0,-379.73333333333335,-155.73333333333332
756,-87.46666666666667,-398.93333333333334,-128.0
757,-123.73333333333333,-430.93333333333334,-91.73333333333333
758,-151.46666666666667,-469.3333333333333,-59.733333333333334
759,-166.4,-492.8,-32.0
760,-170.66666666666666,-524.8,-8.533333333333333
761,-166.4,-535.4666666666667,0.0
762,-160.0,-531.2,-27.733333333333334
763,-132.26666666666665,-520.5333333333333,-49.06666666666666
764,-108.8,-494.93333333333334,-66.13333333333333
765,-96.0,-462.93333333333334,-87.46666666666667
766,-61.86666666666667,-445.8666666666667,-98.13333333333333
767,-34.13333333333333,-430.93333333333334,-93.86666666666666
768,-6.4,-433.06666666666666,-96.0
769,21.333333333333332,-462.93333333333334,-68.26666666666667
770,25.6,-469.3333333333333,-44.8
771,42.666666666666664,-501.3333333333333,-25.6
772,53.333333333333336,-531.2,2.1333333333333333
773,70.4,-561.0666666666666,0.0
774,76.8,-578.1333333333333,19.2
775,72.53333333333333,-593.0666666666666,23.466666666666665
776,78.93333333333334,-595.2,23.466666666666665
777,81.06666666666666,-588.8,12.8
778,76.8,-576.0,6.4
779,64.0,-567.4666666666667,-4.266666666666667
780,59.733333333333334,-546.1333333333333,-8.533333333333333
781,64.0,-526.9333333333333,-23.466666666666665
782,57.6,-505.59999999999997,-23.466666666666665
783,38.4,-488.5333333333333,-23.466666666666665
784,36.266666666666666,-473.59999999999997,-34.13333333333333
785,25.6,-456.5333333333333,-29.866666666666667
786,21.333333333333332,-460.8,-29.866666666666667
787,25.6,-458.6666666666667,-27.733333333333334
788,17.066666666666666,-454.4,-27.733333333333334
789,10.666666666666666,-467.2,-17.066666666666666
790,-2.1333333333333333,-473.59999999999997,6.4
791,2.1333333333333333,-473.59999999999997,25.6
792,4.266666666666667,-480.0,23.466666666666665
793,4.266666666666667,-473.59999999999997,12.8
794,0.0,-482.1333333333333,14.933333333333334
795,-4.266666666666667,-471.46666666666664,17.066666666666666
796,2.1333333333333333,-469.3333333333333,29.866666666666667
797,-6.4,-465.06666666666666,27.733333333333334
798,-8.533333333333333,-441.59999999999997,25.6
799,-4.266666666666667,-452.26666666666665,27.733333333333334
800,-6.4,-452.26666666666665,19.2
801,-4.266666666666667,-458.6666666666667,19.2
802,-2.1333333333333333,-460.8,17.066666666666666
803,-2.1333333333333333,-460.8,23.466666666666665
804,10.666666666666666,-473.59999999999997,32.0
805,-2.1333333333333333,-480.0,32.0
806,-4.266666666666667,-490.6666666666667,34.13333333333333
807,-6.4,-499.2,42.666666666666664
808,-8.533333333333333,-512.0,57.6
809,-14.933333333333334,-518.4,66.13333333333333
810,-25.6,-531.2,74.66666666666667
811,-29.866666666666667,-535.4666666666667,85.33333333333333
812,-44.8,-546.1333333333333,85.33333333333333
813,-38.4,-552.5333333333333,93.86666666666666
814,-36.266666666666666,-558.9333333333333,81.06666666666666
815,-21.333333333333332,-563.2,81.06666666666666
816,-23.466666666666665,-563.2,57.6
817,-8.533333333333333,-569.6,55.46666666666667
818,-4.266666666666667,-571.7333333333333,38.4
819,6.4,-573.8666666666667,23.466666666666665
820,27.733333333333334,-578.1333333333333,6.4
821,53.333333333333336,-571.7333333333333,-40.53333333333333
822,53.333333333333336,-569.6,-46.93333333333333
823,27.733333333333334,-578.1333333333333,-36.266666666666666
824,25.6,-584.5333333333333,-19.2
825,51.2,-593.0666666666666,-6.4
826,85.33333333333333,-601.6,19.2
827,113.06666666666666,-610.1333333333333,21.333333333333332
828,128.0,-627.2,53.333333333333336
829,157.86666666666667,-659.2,87.46666666666667
830,177.06666666666666,-676.2666666666667,100.26666666666667
831,204.8,-710.4,119.46666666666667
832,211.2,-740.2666666666667,128.0
833,209.06666666666666,-765.8666666666667,132.26666666666665
834,185.6,-782.9333333333333,113.06666666666666
835,166.4,-795.7333333333333,89.6
836,130.13333333333333,-810.6666666666666,64.0
837,100.26666666666667,-804.2666666666667,38.4
838,68.26666666666667,-787.2,23.466666666666665
839,51.2,-744.5333333333333,12.8
840,23.466666666666665,-678.4,-14.933333333333334
841,2.1333333333333333,-629.3333333333334,-29.866666666666667
842,2.1333333333333333,-573.8666666666667,-29.866666666666667
843,10.666666666666666,-522.6666666666666,-34.13333333333333
844,6.4,-486.4,-51.2
845,29.866666666666667,-475.73333333333335,-78.93333333333334
846,61.86666666666667,-482.1333333333333,-102.4
847,91.73333333333333,-512.0,-136.53333333333333
848,117.33333333333333,-546.1333333333333,-168.53333333333333
849,117.33333333333333,-590.9333333333333,-196.26666666666665
850,98.13333333333333,-627.2,-196.26666666666665
851,93.86666666666666,-657.0666666666666,-196.26666666666665
852,87.46666666666667,-680.5333333333333,-187.73333333333332
853,74.66666666666667,-669.8666666666667,-202.66666666666666
854,64.0,-642.1333333333333,-204.8
855,46.93333333333333,-597.3333333333334,-232.53333333333333
856,19.2,-554.6666666666666,-241.06666666666666
857,-12.8,-499.2,-251.73333333333332
858,-85.33333333333333,-437.3333333333333,-232.53333333333333
859,-134.4,-401.06666666666666,-206.93333333333334
860,-140.8,-386.1333333333333,-172.8
861,-145.06666666666666,-377.6,-140.8
862,-145.06666666666666,-381.8666666666667,-108.8
863,-160.0,-403.2,-74.66666666666667
864,-181.33333333333334,-416.0,-46.93333333333333
865,-181.33333333333334,-437.3333333333333,-40.53333333333333
866,-172.8,-448.0,-49.06666666666666
867,-151.46666666666667,-462.93333333333334,-64.0
868,-119.46666666666667,-475.73333333333335,-87.46666666666667
869,-89.6,-484.26666666666665,-110.93333333333334
870,-64.0,-480.0,-119.46666666666667
871,-25.6,-490.6666666666667,-132.26666666666665
872,8.533333333333333,-484.26666666666665,-136.53333333333333
873,32.0,-512.0,-134.4
874,42.666666666666664,-535.4666666666667,-125.86666666666666
875,34.13333333333333,-550.4,-110.93333333333334
876,40.53333333333333,-582.4,-61.86666666666667
877,46.93333333333333,-590.9333333333333,-19.2
878,61.86666666666667,-603.7333333333333,-8.533333333333333
879,59.733333333333334,-586.6666666666666,-12.8
880,53.333333333333336,-578.1333333333333,-36.266666666666666
881,49.06666666666666,-544.0,-68.26666666666667
882,27.733333333333334,-507.73333333333335,-102.4
883,21.333333333333332,-473.59999999999997,-128.0
884,14.933333333333334,-452.26666666666665,-121.6
885,0.0,-428.8,-136.53333333333333
886,-8.533333333333333,-424.5333333333333,-128.0
887,-10.666666666666666,-424.5333333333333,-115.2
888,-8.533333333333333,-437.3333333333333,-85.33333333333333
889,-8.533333333333333,-450.1333333333333,-70.4
890,-6.4,-475.73333333333335,-49.06666666666666
891,-8.533333333333333,-494.93333333333334,-32.0
892,0.0,-516.2666666666667,-17.066666666666666
893,-4.266666666666667,-526.9333333333333,-8.533333333333333
894,-4.266666666666667,-533.3333333333334,-21.333333333333332
895,-4.266666666666667,-533.3333333333334,-21.333333333333332
896,-6.4,-533.3333333333334,-32.0
897,-10.666666666666666,-524.8,-36.266666666666666
898,-23.466666666666665,-518.4,-44.8
899,-34.13333333333333,-520.5333333333333,-44.8
900,-53.333333333333336,-503.46666666666664,-34.13333333333333
901,-64.0,-497.06666666666666,-14.933333333333334
902,-76.8,-494.93333333333334,-10.666666666666666
903,-91.73333333333333,-484.26666666666665,-6.4
904,-100.26666666666667,-480.0,-2.1333333333333333
905,-113.06666666666666,-471.46666666666664,6.4
906,-113.06666666666666,-462.93333333333334,2.1333333333333333
907,-110.93333333333334,-460.8,-8.533333333333333
908,-104.53333333333333,-462.93333333333334,-4.266666666666667
909,-91.73333333333333,-469.3333333333333,-14.933333333333334
910,-91.73333333333333,-465.06666666666666,-12.8
911,-81.06666666666666,-462.93333333333334,-10.666666666666666
912,-61.86666666666667,-477.8666666666667,-12.8
913,-49.06666666666666,-475.73333333333335,-4.266666666666667
914,-40.53333333333333,-471.46666666666664,8.533333333333333
915,-36.266666666666666,-480.0,2.1333333333333333
916,-34.13333333333333,-477.8666666666667,-6.4
917,-38.4,-482.1333333333333,-21.333333333333332
918,-29.866666666666667,-467.2,-12.8
919,-29.866666666666667,-456.5333333333333,-14.933333333333334
920,-32.0,-456.5333333333333,-6.4
921,-36.266666666666666,-454.4,-8.533333333333333
922,-36.266666666666666,-465.06666666666666,-12.8
923,-38.4,-465.06666666666666,0.0
924,-40.53333333333333,-469.3333333333333,6.4
925,-49.06666666666666,-482.1333333333333,-6.4
926,-53.333333333333336,-492.8,2.1333333333333333
927,-53.333333333333336,-505.59999999999997,10.666666666666666
928,-68.26666666666667,-516.2666666666667,17.066666666666666
929,-76.8,-522.6666666666666,14.933333333333334
930,-85.33333333333333,-529.0666666666666,17.066666666666666
931,-98.13333333333333,-537.6,14.933333333333334
932,-117.33333333333333,-544.0,10.666666666666666
933,-130.13333333333333,-537.6,10.666666666666666
934,-136.53333333333333,-537.6,0.0
935,-136.53333333333333,-520.5333333333333,-6.4
936,-132.26666666666665,-512.0,-17.066666666666666
937,-130.13333333333333,-514.1333333333333,-25.6
938,-110.93333333333334,-507.73333333333335,-36.266666666666666
939,-89.6,-507.73333333333335,-38.4
940,-55.46666666666667,-509.8666666666667,-32.0
941,-51.2,-516.2666666666667,-32.0
942,-21.333333333333332,-524.8,-19.2
943,-10.666666666666666,-552.5333333333333,-23.466666666666665
944,-8.533333333333333,-558.9333333333333,-25.6
945,0.0,-580.2666666666667,-21.333333333333332
946,8.533333333333333,-593.0666666666666,-19.2
947,2.1333333333333333,-605.8666666666667,-6.4
948,-8.533333333333333,-622.9333333333333,-6.4
949,-14.933333333333334,-642.1333333333333,2.1333333333333333
950,-36.266666666666666,-640.0,17.066666666666666
951,-27.733333333333334,-659.2,27.733333333333334
952,-34.13333333333333,-654.9333333333333,27.733333333333334
953,-25.6,-637.8666666666667,27.733333333333334
954,-23.466666666666665,-620.8,36.266666666666666
955,-27.733333333333334,-608.0,27.733333333333334
956,-23.466666666666665,-588.8,17.066666666666666
957,-21.333333333333332,-578.1333333333333,2.1333333333333333
958,-36.266666666666666,-578.1333333333333,-17.066666666666666
959,-42.666666666666664,-586.6666666666666,-40.53333333333333
960,-42.666666666666664,-612.2666666666667,-44.8
961,-55.46666666666667,-635.7333333333333,-61.86666666666667
962,-49.06666666666666,-674.1333333333333,-70.4
963,-59.733333333333334,-693.3333333333334,-70.4
964,-70.4,-718.9333333333333,-66.13333333333333
965,-87.46666666666667,-721.0666666666666,-55.46666666666667
966,-106.66666666666667,-723.2,-57.6
967,-140.8,-710.4,-66.13333333333333
968,-170.66666666666666,-684.8,-96.0
969,-202.66666666666666,-680.5333333333333,-113.06666666666666
970,-219.73333333333332,-661.3333333333334,-123.73333333333333
971,-245.33333333333334,-657.0666666666666,-132.26666666666665
972,-247.46666666666667,-661.3333333333334,-145.06666666666666
973,-236.79999999999998,-661.3333333333334,-145.06666666666666
974,-221.86666666666667,-663.4666666666667,-134.4
975,-198.4,-654.9333333333333,-130.13333333333333
976,-162.13333333333333,-642.1333333333333,-132.26666666666665
977,-138.66666666666666,-608.0,-149.33333333333334
978,-100.26666666666667,-578.1333333333333,-149.33333333333334
979,-89.6,-558.9333333333333,-140.8
980,-55.46666666666667,-535.4666666666667,-128.0
981,-27.733333333333334,-492.8,-110.93333333333334
982,-4.266666666666667,-465.06666666666666,-119.46666666666667
983,23.466666666666665,-422.4,-128.0
984,42.666666666666664,-390.4,-130.13333333333333
985,76.8,-354.1333333333333,-140.8
986,100.26666666666667,-322.1333333333333,-142.93333333333334
987,106.66666666666667,-285.8666666666667,-147.2
988,100.26666666666667,-270.93333333333334,-140.8
989,104.53333333333333,-258.1333333333333,-138.66666666666666
990,91.73333333333333,-268.8,-138.66666666666666
991,89.6,-288.0,-121.6
992,70.4,-317.8666666666667,-115.2
993,49.06666666666666,-360.5333333333333,-87.46666666666667
994,29.866666666666667,-390.4,-66.13333333333333
995,6.4,-428.8,-42.666666666666664
996,-10.666666666666666,-469.3333333333333,-42.666666666666664
997,-38.4,-501.3333333333333,-36.266666666666666
998,-53.333333333333336,-546.1333333333333,-44.8
999,-66.13333333333333,-582.4,-49.06666666666666
1000,-78.93333333333334,-614.4,-55.46666666666667
1001,-74.66666666666667,-637.8666666666667,-51.2
1002,-76.8,-667.7333333333333,-38.4
1003,-68.26666666666667,-680.5333333333333,-17.066666666666666
1004,-51.2,-693.3333333333334,4.266666666666667
1005,-32.0,-693.3333333333334,12.8
1006,-4.266666666666667,-667.7333333333333,25.6
1007,17.066666666666666,-644.2666666666667,17.066666666666666
1008,29.866666666666667,-622.9333333333333,10.666666666666666
1009,27.733333333333334,-590.9333333333333,14.933333333333334
1010,4.266666666666667,-554.6666666666666,12.8
1011,-19.2,-531.2,14.933333333333334
1012,-38.4,-516.2666666666667,21.333333333333332
1013,-51.2,-507.73333333333335,23.466666666666665
1014,-44.8,-497.06666666666666,42.666666666666664
1015,-27.733333333333334,-484.26666666666665,61.86666666666667
1016,0.0,-484.26666666666665,49.06666666666666
1017,29.866666666666667,-473.59999999999997,25.6
1018,51.2,-471.46666666666664,12.8
1019,85.33333333333333,-473.59999999999997,2.1333333333333333
1020,72.53333333333333,-482.1333333333333,10.666666666666666
1021,42.666666666666664,-503.46666666666664,57.6
1022,34.13333333333333,-544.0,64.0
1023,38.4,-558.9333333333333,70.4
1024,29.866666666666667,-548.2666666666667,72.53333333333333
1025,12.8,-514.1333333333333,121.6
1026,-42.666666666666664,-469.3333333333333,155.73333333333332
1027,-102.4,-430.93333333333334,170.66666666666666
1028,-151.46666666666667,-398.93333333333334,153.6
1029,-145.06666666666666,-390.4,117.33333333333333
1030,-106.66666666666667,-386.1333333333333,78.93333333333334
1031,-72.53333333333333,-384.0,55.46666666666667
1032,-53.333333333333336,-392.5333333333333,40.53333333333333
1033,-55.46666666666667,-405.3333333333333,19.2
1034,-53.333333333333336,-407.46666666666664,-14.933333333333334
1035,-36.266666666666666,-405.3333333333333,-38.4
1036,-4.266666666666667,-401.06666666666666,-23.466666666666665
1037,38.4,-407.46666666666664,-53.333333333333336
1038,51.2,-386.1333333333333,-100.26666666666667
1039,44.8,-354.1333333333333,-162.13333333333333
1040,36.266666666666666,-317.8666666666667,-192.0
1041,53.333333333333336,-300.8,-211.2
1042,70.4,-290.1333333333333,-224.0
1043,83.2,-313.6,-221.86666666666667
1044,74.66666666666667,-311.46666666666664,-224.0
1045,46.93333333333333,-283.73333333333335,-258.1333333333333
1046,10.666666666666666,-224.0,-307.2
1047,-34.13333333333333,-147.2,-354.1333333333333
1048,-49.06666666666666,-61.86666666666667,-379.73333333333335
1049,-36.266666666666666,-12.8,-396.8
1050,-34.13333333333333,-2.1333333333333333,-373.3333333333333
1051,-34.13333333333333,-4.266666666666667,-328.5333333333333
1052,-6.4,-59.733333333333334,-258.1333333333333
1053,32.0,-151.46666666666667,-170.66666666666666
1054,57.6,-273.06666666666666,-121.6
1055,78.93333333333334,-416.0,-102.4
1056,85.33333333333333,-526.9333333333333,-96.0
1057,68.26666666666667,-686.9333333333333,-85.33333333333333
1058,10.666666666666666,-836.2666666666667,-51.2
1059,-14.933333333333334,-979.1999999999999,8.533333333333333
1060,-25.6,-1064.5333333333333,40.53333333333333
1061,-34.13333333333333,-1194.6666666666667,57.6
1062,-12.8,-1309.8666666666666,68.26666666666667
1063,29.866666666666667,-1380.2666666666667,132.26666666666665
1064,64.0,-1429.3333333333333,174.93333333333334
1065,74.66666666666667,-1442.1333333333332,187.73333333333332
1066,87.46666666666667,-1467.7333333333333,206.93333333333334
1067,121.6,-1486.9333333333334,204.8
1068,136.53333333333333,-1461.3333333333333,260.26666666666665
1069,121.6,-1384.5333333333333,290.1333333333333
1070,96.0,-1320.5333333333333,292.26666666666665
1071,91.73333333333333,-1243.7333333333333,234.66666666666666
1072,104.53333333333333,-1184.0,189.86666666666667
1073,64.0,-1111.4666666666667,219.73333333333332
1074,49.06666666666666,-1066.6666666666667,200.53333333333333
1075,53.333333333333336,-1009.0666666666666,206.93333333333334
1076,53.333333333333336,-904.5333333333333,213.33333333333334
1077,72.53333333333333,-823.4666666666667,177.06666666666666
1078,55.46666666666667,-706.1333333333333,185.6
1079,38.4,-674.1333333333333,155.73333333333332
1080,25.6,-622.9333333333333,149.33333333333334
1081,19.2,-558.9333333333333,162.13333333333333
1082,29.866666666666667,-522.6666666666666,106.66666666666667
1083,19.2,-501.3333333333333,53.333333333333336
1084,36.266666666666666,-539.7333333333333,-53.333333333333336
1085,83.2,-501.3333333333333,-34.13333333333333
1086,128.0,-569.6,-85.33333333333333
1087,221.86666666666667,-401.06666666666666,70.4
1088,332.8,-53.333333333333336,194.13333333333333
1089,264.5333333333333,51.2,-29.866666666666667
1090,132.26666666666665,121.6,-181.33333333333334
1091,36.266666666666666,174.93333333333334,-149.33333333333334
1092,-42.666666666666664,157.86666666666667,-59.733333333333334
1093,-89.6,91.73333333333333,23.466666666666665
1094,-121.6,-23.466666666666665,27.733333333333334
1095,-168.53333333333333,-172.8,66.13333333333333
1096,-142.93333333333334,-264.5333333333333,113.06666666666666
1097,-87.46666666666667,-305.06666666666666,138.66666666666666
1098,-44.8,-307.2,138.66666666666666
1099,-4.266666666666667,-273.06666666666666,93.86666666666666
1100,32.0,-249.6,55.46666666666667
1101,53.333333333333336,-213.33333333333334,42.666666666666664
1102,72.53333333333333,-183.46666666666667,27.733333333333334
1103,68.26666666666667,-174.93333333333334,12.8
1104,64.0,-174.93333333333334,2.1333333333333333
1105,57.6,-177.06666666666666,10.666666666666666
1106,38.4,-172.8,27.733333333333334
1107,29.866666666666667,-164.26666666666665,36.266666666666666
1108,17.066666666666666,-164.26666666666665,51.2
1109,4.266666666666667,-155.73333333333332,78.93333333333334
1110,-6.4,-151.46666666666667,98.13333333333333
1111,-8.533333333333333,-132.26666666666665,132.26666666666665
1112,-2.1333333333333333,-123.73333333333333,153.6
1113,12.8,-121.6,149.33333333333334
1114,59.733333333333334,-125.86666666666666,-4.266666666666667
1115,119.46666666666667,-98.13333333333333,-317.8666666666667
1116,151.46666666666667,-12.8,-689.0666666666666
1117,6.4,38.4,-1056.0
1118,-147.2,70.4,-1422.9333333333334
1119,-42.666666666666664,-66.13333333333333,-1478.4
1120,360.5333333333333,-435.2,-953.6
1121,680.5333333333333,-817.0666666666666,36.266666666666666
1122,844.8,-1034.6666666666667,725.3333333333334
1123,872.5333333333333,-1211.7333333333333,1062.4
1124,657.0666666666666,-1280.0,590.9333333333333
1125,174.93333333333334,-1333.3333333333333,-285.8666666666667
1126,-279.46666666666664,-1344.0,-650.6666666666666
1127,-443.73333333333335,-1224.5333333333333,-620.8
1128,-526.9333333333333,-940.8,-541.8666666666667
1129,-608.0,-558.9333333333333,-601.6
1130,-593.0666666666666,-300.8,-665.6
1131,-514.1333333333333,-162.13333333333333,-563.2
1132,-561.0666666666666,-115.2,-433.06666666666666
1133,-605.8666666666667,-96.0,-356.26666666666665
1134,-448.0,-145.06666666666666,-354.1333333333333
1135,-164.26666666666665,-296.5333333333333,-330.6666666666667
1136,53.333333333333336,-418.1333333333333,-332.8
1137,238.93333333333334,-646.4,-354.1333333333333
1138,215.46666666666667,-917.3333333333334,-317.8666666666667
1139,102.4,-1169.0666666666666,-202.66666666666666
1140,117.33333333333333,-1380.2666666666667,-89.6
1141,134.4,-1478.4,25.6
1142,130.13333333333333,-1482.6666666666667,96.0
1143,93.86666666666666,-1329.0666666666666,100.26666666666667
1144,23.466666666666665,-1085.8666666666666,44.8
1145,-4.266666666666667,-817.0666666666666,-57.6
1146,19.2,-635.7333333333333,-196.26666666666665
1147,12.8,-428.8,-279.46666666666664
1148,0.0,-332.8,-294.4
1149,21.333333333333332,-309.3333333333333,-260.26666666666665
1150,59.733333333333334,-360.5333333333333,-198.4
1151,115.2,-418.1333333333333,-134.4
1152,134.4,-507.73333333333335,-68.26666666666667
1153,136.53333333333333,-620.8,6.4
1154,121.6,-725.3333333333334,42.666666666666664
1155,117.33333333333333,-808.5333333333333,34.13333333333333
1156,78.93333333333334,-866.1333333333333,2.1333333333333333
1157,38.4,-891.7333333333333,-21.333333333333332
1158,-19.2,-902.4,-64.0
1159,-74.66666666666667,-874.6666666666666,-72.53333333333333
1160,-102.4,-870.4,-42.666666666666664
1161,-147.2,-842.6666666666666,-32.0
1162,-185.6,-819.2,0.0
1163,-211.2,-785.0666666666666,19.2
1164,-243.2,-755.2,59.733333333333334
1165,-266.6666666666667,-729.6,93.86666666666666
1166,-262.4,-708.2666666666667,125.86666666666666
1167,-241.06666666666666,-682.6666666666666,151.46666666666667
1168,-192.0,-648.5333333333333,164.26666666666665
1169,-136.53333333333333,-612.2666666666667,168.53333333333333
1170,-98.13333333333333,-578.1333333333333,155.73333333333332
1171,-91.73333333333333,-550.4,145.06666666666666
1172,-96.0,-522.6666666666666,151.46666666666667
1173,-91.73333333333333,-490.6666666666667,153.6
1174,-66.13333333333333,-467.2,155.73333333333332
1175,-8.533333333333333,-420.26666666666665,162.13333333333333
1176,25.6,-401.06666666666666,162.13333333333333
1177,59.733333333333334,-375.46666666666664,189.86666666666667
1178,42.666666666666664,-354.1333333333333,253.86666666666667
1179,12.8,-341.3333333333333,292.26666666666665
1180,-27.733333333333334,-315.73333333333335,362.6666666666667
1181,-51.2,-288.0,403.2
1182,-64.0,-262.4,424.5333333333333
1183,-74.66666666666667,-219.73333333333332,420.26666666666665
1184,-85.33333333333333,-183.46666666666667,371.2
1185,-89.6,-134.4,307.2
1186,-104.53333333333333,-78.93333333333334,215.46666666666667
1187,-91.73333333333333,-27.733333333333334,117.33333333333333
1188,-36.266666666666666,17.066666666666666,-23.466666666666665
1189,8.533333333333333,51.2,-189.86666666666667
1190,96.0,72.53333333333333,-503.46666666666664
1191,221.86666666666667,76.8,-904.5333333333333
1192,307.2,85.33333333333333,-1354.6666666666667
1193,264.5333333333333,70.4,-1747.2
1194,40.53333333333333,-44.8,-2173.866666666667
1195,-347.73333333333335,-258.1333333333333,-1988.2666666666667
1196,-785.0666666666666,-612.2666666666667,-977.0666666666666
1197,-1258.6666666666667,-1100.8,241.06666666666666
1198,-1448.5333333333333,-1504.0,904.5333333333333
1199,-1160.5333333333333,-1856.0,902.4
1200,-689.0666666666666,-1770.6666666666667,160.0
1201,-379.73333333333335,-1384.5333333333333,-627.2
1202,-326.4,-972.8,-874.6666666666666
1203,-183.46666666666667,-829.8666666666667,-657.0666666666666
1204,-2.1333333333333333,-800.0,-362.6666666666667
1205,89.6,-789.3333333333334,-221.86666666666667
1206,194.13333333333333,-753.0666666666666,-224.0
1207,290.1333333333333,-753.0666666666666,-264.5333333333333
1208,326.4,-714.6666666666666,-309.3333333333333
1209,309.3333333333333,-669.8666666666667,-296.5333333333333
1210,302.93333333333334,-618.6666666666666,-279.46666666666664
1211,251.73333333333332,-605.8666666666667,-300.8
1212,153.6,-588.8,-347.73333333333335
1213,85.33333333333333,-588.8,-422.4
1214,55.46666666666667,-616.5333333333333,-445.8666666666667
1215,19.2,-642.1333333333333,-413.8666666666667
1216,17.066666666666666,-661.3333333333334,-324.26666666666665
1217,0.0,-650.6666666666666,-253.86666666666667
1218,-29.866666666666667,-620.8,-168.53333333333333
1219,-70.4,-569.6,-174.93333333333334
1220,-93.86666666666666,-526.9333333333333,-181.33333333333334
1221,-113.06666666666666,-482.1333333333333,-181.33333333333334
1222,-115.2,-452.26666666666665,-183.46666666666667
1223,-91.73333333333333,-430.93333333333334,-192.0
1224,-46.93333333333333,-437.3333333333333,-183.46666666666667
1225,-12.8,-452.26666666666665,-170.66666666666666
1226,-12.8,-492.8,-117.33333333333333
1227,-21.333333333333332,-526.9333333333333,-72.53333333333333
1228,-40.53333333333333,-573.8666666666667,-2.1333333333333333
1229,-44.8,-584.5333333333333,38.4
1230,-55.46666666666667,-608.0,57.6
1231,-59.733333333333334,-593.0666666666666,17.066666666666666
1232,-46.93333333333333,-582.4,2.1333333333333333
1233,-38.4,-546.1333333333333,-21.333333333333332
1234,-2.1333333333333333,-507.73333333333335,-40.53333333333333
1235,34.13333333333333,-488.5333333333333,-68.26666666666667
1236,46.93333333333333,-460.8,-68.26666666666667
1237,66.13333333333333,-439.46666666666664,-70.4
1238,91.73333333333333,-430.93333333333334,-61.86666666666667
1239,51.2,-420.26666666666665,-68.26666666666667
1240,55.46666666666667,-413.8666666666667,-61.86666666666667
1241,57.6,-405.3333333333333,-55.46666666666667
1242,66.13333333333333,-392.5333333333333,-57.6
1243,76.8,-386.1333333333333,-55.46666666666667
1244,87.46666666666667,-384.0,-44.8
1245,91.73333333333333,-371.2,-51.2
1246,78.93333333333334,-379.73333333333335,-51.2
1247,46.93333333333333,-390.4,-49.06666666666666
1248,17.066666666666666,-409.6,-51.2
1249,-8.533333333333333,-430.93333333333334,-34.13333333333333
1250,-27.733333333333334,-482.1333333333333,-19.2
1251,-42.666666666666664,-494.93333333333334,-6.4
1252,-64.0,-514.1333333333333,2.1333333333333333
1253,-72.53333333333333,-533.3333333333334,17.066666666666666
1254,-85.33333333333333,-535.4666666666667,17.066666666666666
1255,-72.53333333333333,-524.8,14.933333333333334
1256,-83.2,-503.46666666666664,12.8
1257,-76.8,-467.2,10.666666666666666
1258,-68.26666666666667,-439.46666666666664,-4.266666666666667
1259,-53.333333333333336,-409.6,-19.2
1260,-44.8,-392.5333333333333,-25.6
1261,-27.733333333333334,-364.8,-32.0
1262,-4.266666666666667,-358.4,-38.4
1263,6.4,-341.3333333333333,-49.06666666666666
1264,21.333333333333332,-349.8666666666667,-46.93333333333333
1265,27.733333333333334,-349.8666666666667,-44.8
1266,44.8,-366.93333333333334,-32.0
1267,51.2,-388.26666666666665,-21.333333333333332
1268,49.06666666666666,-401.06666666666666,-6.4
1269,57.6,-422.4,17.066666666666666
1270,46.93333333333333,-441.59999999999997,23.466666666666665
1271,55.46666666666667,-458.6666666666667,23.466666666666665
1272,49.06666666666666,-471.46666666666664,27.733333333333334
1273,42.666666666666664,-473.59999999999997,42.666666666666664
1274,46.93333333333333,-480.0,40.53333333333333
1275,61.86666666666667,-486.4,42.666666666666664
1276,42.666666666666664,-482.1333333333333,44.8
1277,40.53333333333333,-477.8666666666667,42.666666666666664
1278,38.4,-462.93333333333334,42.666666666666664
1279,29.866666666666667,-471.46666666666664,36.266666666666666
1280,12.8,-460.8,36.266666666666666
1281,19.2,-448.0,40.53333333333333
1282,17.066666666666666,-441.59999999999997,38.4
1283,34.13333333333333,-435.2,32.0
1284,49.06666666666666,-441.59999999999997,38.4
1285,51.2,-435.2,29.866666666666667
1286,38.4,-433.06666666666666,51.2
1287,17.066666666666666,-433.06666666666666,72.53333333333333
1288,4.266666666666667,-437.3333333333333,91.73333333333333
1289,-4.266666666666667,-443.73333333333335,102.4
1290,-8.533333333333333,-448.0,132.26666666666665
1291,-17.066666666666666,-445.8666666666667,142.93333333333334
1292,-25.6,-448.0,140.8
1293,-17.066666666666666,-445.8666666666667,121.6
1294,-2.1333333333333333,-433.06666666666666,93.86666666666666
1295,23.466666666666665,-435.2,64.0
1296,36.266666666666666,-437.3333333333333,8.533333333333333
1297,29.866666666666667,-428.8,-68.26666666666667
1298,29.866666666666667,-420.26666666666665,-117.33333333333333
1299,19.2,-441.59999999999997,-196.26666666666665
1300,8.533333333333333,-460.8,-305.06666666666666
1301,12.8,-505.59999999999997,-392.5333333333333
1302,19.2,-580.2666666666667,-462.93333333333334
1303,23.466666666666665,-659.2,-497.06666666666666
1304,38.4,-770.1333333333333,-531.2
1305,34.13333333333333,-881.0666666666666,-507.73333333333335
1306,12.8,-962.1333333333333,-445.8666666666667
1307,-23.466666666666665,-1009.0666666666666,-345.6
1308,-34.13333333333333,-1015.4666666666667,-270.93333333333334
1309,-40.53333333333333,-992.0,-179.2
1310,-40.53333333333333,-932.2666666666667,-119.46666666666667
1311,-46.93333333333333,-840.5333333333333,-89.6
1312,-53.333333333333336,-785.0666666666666,-74.66666666666667
1313,-57.6,-712.5333333333333,-83.2
1314,-72.53333333333333,-657.0666666666666,-93.86666666666666
1315,-81.06666666666666,-622.9333333333333,-85.33333333333333
1316,-100.26666666666667,-584.5333333333333,-64.0
1317,-104.53333333333333,-578.1333333333333,-46.93333333333333
1318,-100.26666666666667,-571.7333333333333,-25.6
1319,-104.53333333333333,-552.5333333333333,0.0
1320,-96.0,-533.3333333333334,10.666666666666666
1321,-89.6,-516.2666666666667,-10.666666666666666
1322,-70.4,-497.06666666666666,-19.2
1323,-46.93333333333333,-469.3333333333333,-36.266666666666666
1324,-23.466666666666665,-450.1333333333333,-64.0
1325,2.1333333333333333,-430.93333333333334,-98.13333333333333
1326,17.066666666666666,-416.0,-115.2
1327,14.933333333333334,-420.26666666666665,-110.93333333333334
1328,19.2,-430.93333333333334,-113.06666666666666
1329,10.666666666666666,-435.2,-110.93333333333334
1330,-10.666666666666666,-462.93333333333334,-106.66666666666667
1331,-34.13333333333333,-492.8,-93.86666666666666
1332,-72.53333333333333,-529.0666666666666,-81.06666666666666
1333,-100.26666666666667,-567.4666666666667,-64.0
1334,-117.33333333333333,-590.9333333333333,-55.46666666666667
1335,-142.93333333333334,-590.9333333333333,-59.733333333333334
1336,-153.6,-586.6666666666666,-72.53333333333333
1337,-170.66666666666666,-567.4666666666667,-91.73333333333333
1338,-174.93333333333334,-535.4666666666667,-110.93333333333334
1339,-162.13333333333333,-499.2,-138.66666666666666
1340,-151.46666666666667,-458.6666666666667,-142.93333333333334
1341,-145.06666666666666,-448.0,-157.86666666666667
1342,-130.13333333333333,-433.06666666666666,-160.0
1343,-110.93333333333334,-424.5333333333333,-155.73333333333332
1344,-91.73333333333333,-430.93333333333334,-153.6
1345,-70.4,-454.4,-138.66666666666666
1346,-59.733333333333334,-467.2,-134.4
1347,-38.4,-492.8,-119.46666666666667
1348,-25.6,-514.1333333333333,-113.06666666666666
1349,-14.933333333333334,-524.8,-102.4
1350,-21.333333333333332,-550.4,-89.6
1351,-25.6,-556.8,-91.73333333333333
1352,-51.2,-561.0666666666666,-81.06666666666666
1353,-68.26666666666667,-565.3333333333334,-68.26666666666667
1354,-83.2,-563.2,-57.6
1355,-100.26666666666667,-554.6666666666666,-66.13333333333333
1356,-110.93333333333334,-544.0,-51.2
1357,-119.46666666666667,-516.2666666666667,-53.333333333333336
1358,-132.26666666666665,-497.06666666666666,-57.6
1359,-125.86666666666666,-473.59999999999997,-59.733333333333334
1360,-125.86666666666666,-452.26666666666665,-66.13333333333333
1361,-132.26666666666665,-433.06666666666666,-61.86666666666667
1362,-128.0,-416.0,-57.6
1363,-119.46666666666667,-413.8666666666667,-53.333333333333336
1364,-123.73333333333333,-403.2,-46.93333333333333
1365,-123.73333333333333,-396.8,-53.333333333333336
1366,-117.33333333333333,-390.4,-51.2
1367,-119.46666666666667,-381.8666666666667,-42.666666666666664
1368,-100.26666666666667,-392.5333333333333,-34.13333333333333
1369,-78.93333333333334,-388.26666666666665,-36.266666666666666
1370,-81.06666666666666,-388.26666666666665,-42.666666666666664
1371,-76.8,-398.93333333333334,-42.666666666666664
1372,-68.26666666666667,-411.73333333333335,-46.93333333333333
1373,-68.26666666666667,-420.26666666666665,-36.266666666666666
1374,-66.13333333333333,-426.6666666666667,-32.0
1375,-53.333333333333336,-430.93333333333334,-25.6
1376,-34.13333333333333,-433.06666666666666,-29.866666666666667
1377,-25.6,-433.06666666666666,-23.466666666666665
1378,-12.8,-428.8,-23.466666666666665
1379,-8.533333333333333,-433.06666666666666,-17.066666666666666
1380,-6.4,-433.06666666666666,-2.1333333333333333
1381,-6.4,-435.2,10.666666666666666
1382,-8.533333333333333,-443.73333333333335,17.066666666666666
1383,-10.666666666666666,-450.1333333333333,23.466666666666665
1384,-19.2,-456.5333333333333,29.866666666666667
1385,-17.066666666666666,-467.2,32.0
1386,-25.6,-473.59999999999997,32.0
1387,-36.266666666666666,-482.1333333333333,32.0
1388,-49.06666666666666,-499.2,51.2
1389,-66.13333333333333,-503.46666666666664,53.333333333333336
1390,-98.13333333333333,-512.0,59.733333333333334
1391,-104.53333333333333,-537.6,46.93333333333333
1392,-142.93333333333334,-535.4666666666667,49.06666666666666
1393,-162.13333333333333,-552.5333333333333,38.4
1394,-194.13333333333333,-556.8,29.866666666666667
1395,-217.6,-569.6,17.066666666666666
1396,-224.0,-580.2666666666667,23.466666666666665
1397,-215.46666666666667,-578.1333333333333,40.53333333333333
1398,-202.66666666666666,-588.8,59.733333333333334
1399,-194.13333333333333,-582.4,72.53333333333333
1400,-187.73333333333332,-573.8666666666667,61.86666666666667
1401,-181.33333333333334,-582.4,49.06666666666666
1402,-166.4,-578.1333333333333,44.8
1403,-160.0,-590.9333333333333,40.53333333333333
1404,-160.0,-605.8666666666667,64.0
1405,-179.2,-605.8666666666667,98.13333333333333
1406,-204.8,-620.8,128.0
1407,-217.6,-608.0,140.8
1408,-219.73333333333332,-614.4,147.2
1409,-224.0,-608.0,149.33333333333334
1410,-198.4,-612.2666666666667,147.2
1411,-168.53333333333333,-614.4,134.4
1412,-142.93333333333334,-612.2666666666667,134.4
1413,-110.93333333333334,-614.4,136.53333333333333
1414,-85.33333333333333,-622.9333333333333,138.66666666666666
1415,-55.46666666666667,-622.9333333333333,130.13333333333333
1416,-34.13333333333333,-599.4666666666667,89.6
1417,-4.266666666666667,-597.3333333333334,57.6
1418,27.733333333333334,-582.4,23.466666666666665
1419,59.733333333333334,-580.2666666666667,-14.933333333333334
1420,53.333333333333336,-576.0,-51.2
1421,27.733333333333334,-569.6,-87.46666666666667
1422,23.466666666666665,-586.6666666666666,-108.8
1423,0.0,-590.9333333333333,-140.8
1424,-38.4,-612.2666666666667,-160.0
1425,-98.13333333333333,-631.4666666666667,-187.73333333333332
1426,-142.93333333333334,-642.1333333333333,-217.6
1427,-142.93333333333334,-674.1333333333333,-245.33333333333334
1428,-136.53333333333333,-686.9333333333333,-275.2
1429,-119.46666666666667,-706.1333333333333,-277.3333333333333
1430,-96.0,-701.8666666666667,-258.1333333333333
1431,-87.46666666666667,-678.4,-224.0
1432,-81.06666666666666,-640.0,-194.13333333333333
1433,-59.733333333333334,-584.5333333333333,-179.2
1434,-46.93333333333333,-558.9333333333333,-168.53333333333333
1435,-55.46666666666667,-550.4,-149.33333333333334
1436,-40.53333333333333,-552.5333333333333,-125.86666666666666
1437,6.4,-556.8,-100.26666666666667
1438,38.4,-569.6,-70.4
1439,53.333333333333336,-586.6666666666666,-55.46666666666667
1440,68.26666666666667,-597.3333333333334,-29.866666666666667
1441,76.8,-599.4666666666667,-25.6
1442,87.46666666666667,-599.4666666666667,-36.266666666666666
1443,66.13333333333333,-578.1333333333333,-68.26666666666667
1444,46.93333333333333,-552.5333333333333,-96.0
1445,29.866666666666667,-516.2666666666667,-115.2
1446,10.666666666666666,-492.8,-130.13333333333333
1447,-14.933333333333334,-439.46666666666664,-117.33333333333333
1448,-46.93333333333333,-416.0,-123.73333333333333
1449,-64.0,-413.8666666666667,-119.46666666666667
1450,-87.46666666666667,-407.46666666666664,-115.2
1451,-130.13333333333333,-407.46666666666664,-98.13333333333333
1452,-162.13333333333333,-418.1333333333333,-87.46666666666667
1453,-179.2,-422.4,-53.333333333333336
1454,-189.86666666666667,-416.0,-25.6
1455,-185.6,-433.06666666666666,-38.4
1456,-194.13333333333333,-445.8666666666667,-55.46666666666667
1457,-172.8,-469.3333333333333,-68.26666666666667
1458,-142.93333333333334,-484.26666666666665,-57.6
1459,-110.93333333333334,-492.8,-34.13333333333333
1460,-87.46666666666667,-492.8,-19.2
1461,-55.46666666666667,-497.06666666666666,-4.266666666666667
1462,-14.933333333333334,-501.3333333333333,-4.266666666666667
1463,-6.4,-505.59999999999997,-6.4
1464,12.8,-505.59999999999997,0.0
1465,29.866666666666667,-509.8666666666667,0.0
1466,46.93333333333333,-520.5333333333333,6.4
1467,57.6,-529.0666666666666,10.666666666666666
1468,81.06666666666666,-541.8666666666667,21.333333333333332
1469,89.6,-546.1333333333333,19.2
1470,93.86666666666666,-554.6666666666666,23.466666666666665
1471,117.33333333333333,-558.9333333333333,29.866666666666667
1472,115.2,-554.6666666666666,34.13333333333333
1473,115.2,-552.5333333333333,23.466666666666665
1474,121.6,-548.2666666666667,17.066666666666666
1475,117.33333333333333,-531.2,14.933333333333334
1476,110.93333333333334,-514.1333333333333,-4.266666666666667
1477,98.13333333333333,-503.46666666666664,2.1333333333333333
1478,85.33333333333333,-494.93333333333334,0.0
1479,72.53333333333333,-490.6666666666667,-4.266666666666667
1480,57.6,-484.26666666666665,4.266666666666667
1481,38.4,-486.4,12.8
1482,14.933333333333334,-482.1333333333333,-2.1333333333333333
1483,-8.533333333333333,-482.1333333333333,12.8
1484,-12.8,-467.2,10.666666666666666
1485,-23.466666666666665,-462.93333333333334,14.933333333333334
1486,-38.4,-450.1333333333333,19.2
1487,-44.8,-445.8666666666667,21.333333333333332
1488,-46.93333333333333,-443.73333333333335,17.066666666666666
1489,-53.333333333333336,-437.3333333333333,19.2
1490,-49.06666666666666,-439.46666666666664,19.2
1491,-53.333333333333336,-450.1333333333333,21.333333333333332
1492,-57.6,-454.4,29.866666666666667
1493,-55.46666666666667,-462.93333333333334,36.266666666666666
1494,-55.46666666666667,-467.2,34.13333333333333
1495,-61.86666666666667,-482.1333333333333,42.666666666666664
1496,-57.6,-490.6666666666667,44.8
1497,-46.93333333333333,-490.6666666666667,36.266666666666666
1498,-57.6,-499.2,38.4
1499,-59.733333333333334,-503.46666666666664,38.4
1500,-61.86666666666667,-507.73333333333335,46.93333333333333
1501,-68.26666666666667,-503.46666666666664,53.333333333333336
1502,-72.53333333333333,-497.06666666666666,59.733333333333334
1503,-72.53333333333333,-499.2,68.26666666666667
1504,-74.66666666666667,-507.73333333333335,74.66666666666667
1505,-70.4,-516.2666666666667,70.4
1506,-66.13333333333333,-505.59999999999997,72.53333333333333
1507,-66.13333333333333,-520.5333333333333,64.0
1508,-49.06666666666666,-520.5333333333333,68.26666666666667
1509,-38.4,-533.3333333333334,49.06666666666666
1510,-36.266666666666666,-541.8666666666667,32.0
1511,-21.333333333333332,-548.2666666666667,23.466666666666665
1512,-25.6,-544.0,12.8
1513,-25.6,-541.8666666666667,-14.933333333333334
1514,-25.6,-539.7333333333333,-32.0
1515,-40.53333333333333,-537.6,-49.06666666666666
1516,-51.2,-533.3333333333334,-66.13333333333333
1517,-44.8,-539.7333333333333,-53.333333333333336
1518,-29.866666666666667,-546.1333333333333,-40.53333333333333
1519,14.933333333333334,-563.2,-17.066666666666666
1520,53.333333333333336,-599.4666666666667,17.066666666666666
1521,70.4,-631.4666666666667,59.733333333333334
1522,85.33333333333333,-657.0666666666666,91.73333333333333
1523,117.33333333333333,-689.0666666666666,149.33333333333334
1524,125.86666666666666,-706.1333333333333,179.2
1525,123.73333333333333,-736.0,189.86666666666667
1526,106.66666666666667,-750.9333333333333,194.13333333333333
1527,72.53333333333333,-746.6666666666666,196.26666666666665
1528,42.666666666666664,-750.9333333333333,174.93333333333334
1529,12.8,-746.6666666666666,140.8
1530,-2.1333333333333333,-748.8,108.8
1531,-19.2,-746.6666666666666,91.73333333333333
1532,-27.733333333333334,-740.2666666666667,78.93333333333334
1533,-21.333333333333332,-714.6666666666666,81.06666666666666
1534,-23.466666666666665,-684.8,81.06666666666666
1535,-46.93333333333333,-599.4666666666667,85.33333333333333
1536,-44.8,-552.5333333333333,81.06666666666666
1537,-34.13333333333333,-492.8,61.86666666666667
1538,-25.6,-456.5333333333333,40.53333333333333
1539,-10.666666666666666,-418.1333333333333,6.4
1540,12.8,-420.26666666666665,-27.733333333333334
1541,23.466666666666665,-428.8,-59.733333333333334
1542,38.4,-462.93333333333334,-81.06666666666666
1543,55.46666666666667,-509.8666666666667,-100.26666666666667
1544,64.0,-556.8,-121.6
1545,64.0,-595.2,-132.26666666666665
1546,76.8,-637.8666666666667,-145.06666666666666
1547,89.6,-669.8666666666667,-172.8
1548,108.8,-693.3333333333334,-196.26666666666665
1549,125.86666666666666,-708.2666666666667,-217.6
1550,147.2,-701.8666666666667,-234.66666666666666
1551,170.66666666666666,-684.8,-256.0
1552,166.4,-665.6,-260.26666666666665
1553,128.0,-637.8666666666667,-245.33333333333334
1554,66.13333333333333,-610.1333333333333,-194.13333333333333
1555,14.933333333333334,-586.6666666666666,-151.46666666666667
1556,-38.4,-550.4,-100.26666666666667
1557,-74.66666666666667,-514.1333333333333,-76.8
1558,-87.46666666666667,-484.26666666666665,-57.6
1559,-108.8,-452.26666666666665,-61.86666666666667
1560,-136.53333333333333,-439.46666666666664,-68.26666666666667
1561,-177.06666666666666,-422.4,-91.73333333333333
1562,-224.0,-413.8666666666667,-98.13333333333333
1563,-245.33333333333334,-416.0,-108.8
1564,-245.33333333333334,-422.4,-108.8
1565,-228.26666666666665,-441.59999999999997,-119.46666666666667
1566,-192.0,-454.4,-119.46666666666667
1567,-164.26666666666665,-465.06666666666666,-123.73333333333333
1568,-134.4,-501.3333333333333,-119.46666666666667
1569,-117.33333333333333,-520.5333333333333,-106.66666666666667
1570,-96.0,-561.0666666666666,-78.93333333333334
1571,-72.53333333333333,-595.2,-51.2
1572,-40.53333333333333,-627.2,-36.266666666666666
1573,-6.4,-633.6,-25.6
1574,19.2,-618.6666666666666,-38.4
1575,55.46666666666667,-597.3333333333334,-49.06666666666666
1576,74.66666666666667,-558.9333333333333,-64.0
1577,74.66666666666667,-518.4,-74.66666666666667
1578,72.53333333333333,-465.06666666666666,-104.53333333333333
1579,68.26666666666667,-424.5333333333333,-108.8
1580,66.13333333333333,-409.6,-123.73333333333333
1581,44.8,-398.93333333333334,-125.86666666666666
1582,23.466666666666665,-409.6,-119.46666666666667
1583,0.0,-418.1333333333333,-115.2
1584,-8.533333333333333,-443.73333333333335,-104.53333333333333
1585,-32.0,-471.46666666666664,-74.66666666666667
1586,-51.2,-490.6666666666667,-46.93333333333333
1587,-64.0,-516.2666666666667,-25.6
1588,-76.8,-522.6666666666666,-19.2
1589,-78.93333333333334,-535.4666666666667,-2.1333333333333333
1590,-87.46666666666667,-544.0,0.0
1591,-91.73333333333333,-544.0,-8.533333333333333
1592,-89.6,-544.0,-12.8
1593,-89.6,-539.7333333333333,-25.6
1594,-96.0,-533.3333333333334,-25.6
1595,-104.53333333333333,-526.9333333333333,-21.333333333333332
1596,-113.06666666666666,-524.8,-25.6
1597,-128.0,-520.5333333333333,-10.666666666666666
1598,-123.73333333333333,-516.2666666666667,-14.933333333333334
1599,-132.26666666666665,-507.73333333333335,-8.533333333333333
1600,-136.53333333333333,-503.46666666666664,-12.8
1601,-132.26666666666665,-501.3333333333333,2.1333333333333333
1602,-142.93333333333334,-486.4,0.0
1603,-142.93333333333334,-469.3333333333333,-12.8
1604,-134.4,-460.8,-19.2
1605,-140.8,-465.06666666666666,-19.2
1606,-134.4,-452.26666666666665,-25.6
1607,-138.66666666666666,-445.8666666666667,-23.466666666666665
1608,-128.0,-443.73333333333335,-27.733333333333334
1609,-123.73333333333333,-437.3333333333333,-19.2
1610,-125.86666666666666,-439.46666666666664,-12.8
1611,-115.2,-443.73333333333335,0.0
1612,-106.66666666666667,-445.8666666666667,-14.933333333333334
1613,-100.26666666666667,-443.73333333333335,-8.533333333333333
1614,-98.13333333333333,-450.1333333333333,-4.266666666666667
1615,-100.26666666666667,-456.5333333333333,2.1333333333333333
1616,-93.86666666666666,-454.4,-12.8
1617,-83.2,-467.2,6.4
1618,-81.06666666666666,-484.26666666666665,4.266666666666667
1619,-81.06666666666666,-480.0,19.2
1620,-78.93333333333334,-482.1333333333333,17.066666666666666
1621,-76.8,-486.4,19.2
1622,-72.53333333333333,-484.26666666666665,19.2
1623,-68.26666666666667,-490.6666666666667,23.466666666666665
1624,-64.0,-484.26666666666665,19.2
1625,-57.6,-492.8,17.066666666666666
1626,-53.333333333333336,-490.6666666666667,21.333333333333332
1627,-61.86666666666667,-494.93333333333334,23.466666666666665
1628,-57.6,-497.06666666666666,40.53333333333333
1629,-64.0,-503.46666666666664,40.53333333333333
1630,-57.6,-522.6666666666666,61.86666666666667
1631,-61.86666666666667,-522.6666666666666,61.86666666666667
1632,-68.26666666666667,-539.7333333333333,64.0
1633,-74.66666666666667,-548.2666666666667,81.06666666666666
1634,-72.53333333333333,-552.5333333333333,81.06666666666666
1635,-74.66666666666667,-561.0666666666666,91.73333333333333
1636,-89.6,-567.4666666666667,78.93333333333334
1637,-100.26666666666667,-561.0666666666666,76.8
1638,-113.06666666666666,-561.0666666666666,83.2
1639,-123.73333333333333,-552.5333333333333,76.8
1640,-121.6,-550.4,61.86666666666667
1641,-145.06666666666666,-548.2666666666667,53.333333333333336
1642,-181.33333333333334,-535.4666666666667,42.666666666666664
1643,-189.86666666666667,-529.0666666666666,14.933333333333334
1644,-181.33333333333334,-526.9333333333333,12.8
1645,-155.73333333333332,-522.6666666666666,4.266666666666667
1646,-145.06666666666666,-516.2666666666667,14.933333333333334
1647,-117.33333333333333,-520.5333333333333,38.4
1648,-98.13333333333333,-522.6666666666666,57.6
1649,-74.66666666666667,-533.3333333333334,72.53333333333333
1650,-55.46666666666667,-537.6,72.53333333333333
1651,-34.13333333333333,-548.2666666666667,93.86666666666666
1652,-36.266666666666666,-563.2,91.73333333333333
1653,-53.333333333333336,-563.2,96.0
1654,-61.86666666666667,-586.6666666666666,91.73333333333333
1655,-76.8,-595.2,102.4
1656,-108.8,-610.1333333333333,117.33333333333333
1657,-132.26666666666665,-603.7333333333333,121.6
1658,-136.53333333333333,-614.4,145.06666666666666
1659,-145.06666666666666,-614.4,160.0
1660,-153.6,-599.4666666666667,170.66666666666666
1661,-140.8,-580.2666666666667,166.4
1662,-121.6,-565.3333333333334,155.73333333333332
1663,-102.4,-554.6666666666666,147.2
1664,-98.13333333333333,-552.5333333333333,110.93333333333334
1665,-89.6,-548.2666666666667,100.26666666666667
1666,-74.66666666666667,-544.0,70.4
1667,-49.06666666666666,-556.8,36.266666666666666
1668,-12.8,-573.8666666666667,12.8
1669,-2.1333333333333333,-584.5333333333333,-10.666666666666666
1670,17.066666666666666,-620.8,-4.266666666666667
1671,0.0,-642.1333333333333,-8.533333333333333
1672,-29.866666666666667,-661.3333333333334,-27.733333333333334
1673,-64.0,-669.8666666666667,-57.6
1674,-89.6,-672.0,-78.93333333333334
1675,-140.8,-663.4666666666667,-113.06666666666666
1676,-168.53333333333333,-661.3333333333334,-136.53333333333333
1677,-194.13333333333333,-654.9333333333333,-162.13333333333333
1678,-230.4,-637.8666666666667,-183.46666666666667
1679,-241.06666666666666,-622.9333333333333,-198.4
1680,-275.2,-590.9333333333333,-232.53333333333333
1681,-275.2,-565.3333333333334,-253.86666666666667
1682,-245.33333333333334,-537.6,-290.1333333333333
1683,-200.53333333333333,-526.9333333333333,-307.2
1684,-138.66666666666666,-514.1333333333333,-288.0
1685,-85.33333333333333,-514.1333333333333,-232.53333333333333
1686,-44.8,-520.5333333333333,-160.0
1687,-10.666666666666666,-529.0666666666666,-102.4
1688,-4.266666666666667,-541.8666666666667,-85.33333333333333
1689,17.066666666666666,-558.9333333333333,-57.6
1690,29.866666666666667,-573.8666666666667,-64.0
1691,59.733333333333334,-610.1333333333333,-68.26666666666667
1692,76.8,-625.0666666666666,-64.0
1693,85.33333333333333,-640.0,-57.6
1694,61.86666666666667,-650.6666666666666,-57.6
1695,27.733333333333334,-640.0,-70.4
1696,0.0,-627.2,-87.46666666666667
1697,-8.533333333333333,-610.1333333333333,-85.33333333333333
1698,-21.333333333333332,-593.0666666666666,-93.86666666666666
1699,-36.266666666666666,-569.6,-89.6
1700,-53.333333333333336,-558.9333333333333,-76.8
1701,-74.66666666666667,-550.4,-66.13333333333333
1702,-85.33333333333333,-539.7333333333333,-59.733333333333334
1703,-100.26666666666667,-518.4,-46.93333333333333
1704,-106.66666666666667,-507.73333333333335,-44.8
1705,-113.06666666666666,-488.5333333333333,-49.06666666666666
1706,-119.46666666666667,-471.46666666666664,-51.2
1707,-130.13333333333333,-452.26666666666665,-40.53333333333333
1708,-115.2,-437.3333333333333,-36.266666666666666
1709,-123.73333333333333,-416.0,-44.8
1710,-128.0,-401.06666666666666,-53.333333333333336
1711,-117.33333333333333,-401.06666666666666,-57.6
1712,-110.93333333333334,-409.6,-61.86666666666667
1713,-93.86666666666666,-405.3333333333333,-66.13333333333333
1714,-70.4,-401.06666666666666,-66.13333333333333
1715,-51.2,-409.6,-59.733333333333334
1716,-32.0,-411.73333333333335,-53.333333333333336
1717,-14.933333333333334,-413.8666666666667,-42.666666666666664
1718,-14.933333333333334,-416.0,-27.733333333333334
1719,0.0,-428.8,-6.4
1720,4.266666666666667,-448.0,4.266666666666667
1721,14.933333333333334,-456.5333333333333,10.666666666666666
1722,23.466666666666665,-486.4,2.1333333333333333
1723,23.466666666666665,-497.06666666666666,4.266666666666667
1724,19.2,-522.6666666666666,-4.266666666666667
1725,32.0,-533.3333333333334,-4.266666666666667
1726,44.8,-537.6,-4.266666666666667
1727,51.2,-524.8,-2.1333333333333333
1728,38.4,-516.2666666666667,-8.533333333333333
1729,42.666666666666664,-507.73333333333335,-12.8
1730,46.93333333333333,-494.93333333333334,-4.266666666666667
1731,51.2,-490.6666666666667,0.0
1732,40.53333333333333,-492.8,4.266666666666667
1733,36.266666666666666,-497.06666666666666,6.4
1734,36.266666666666666,-501.3333333333333,6.4
1735,29.866666666666667,-512.0,-6.4
1736,19.2,-507.73333333333335,14.933333333333334
1737,17.066666666666666,-501.3333333333333,8.533333333333333
1738,19.2,-509.8666666666667,-6.4
1739,8.533333333333333,-492.8,10.666666666666666
1740,8.533333333333333,-494.93333333333334,2.1333333333333333
1741,6.4,-494.93333333333334,-8.533333333333333
1742,2.1333333333333333,-488.5333333333333,-8.533333333333333
1743,-4.266666666666667,-484.26666666666665,0.0
1744,0.0,-480.0,-4.266666666666667
1745,2.1333333333333333,-482.1333333333333,10.666666666666666
1746,4.266666666666667,-475.73333333333335,14.933333333333334
1747,0.0,-471.46666666666664,14.933333333333334
1748,-2.1333333333333333,-467.2,14.933333333333334
1749,-6.4,-460.8,21.333333333333332
1750,-4.266666666666667,-462.93333333333334,14.933333333333334
1751,-6.4,-462.93333333333334,4.266666666666667
1752,-4.266666666666667,-467.2,6.4
1753,-10.666666666666666,-471.46666666666664,17.066666666666666
1754,-14.933333333333334,-475.73333333333335,17.066666666666666
1755,-14.933333333333334,-482.1333333333333,21.333333333333332
1756,-27.733333333333334,-492.8,36.266666666666666
1757,-25.6,-514.1333333333333,46.93333333333333
1758,-42.666666666666664,-516.2666666666667,46.93333333333333
1759,-36.266666666666666,-533.3333333333334,59.733333333333334
1760,-29.866666666666667,-552.5333333333333,74.66666666666667
1761,-34.13333333333333,-550.4,83.2
1762,-32.0,-561.0666666666666,87.46666666666667
1763,-32.0,-567.4666666666667,106.66666666666667
1764,-42.666666666666664,-576.0,108.8
1765,-40.53333333333333,-576.0,110.93333333333334
1766,-40.53333333333333,-580.2666666666667,121.6
1767,-29.866666666666667,-576.0,104.53333333333333
1768,-8.533333333333333,-576.0,104.53333333333333
1769,-4.266666666666667,-580.2666666666667,102.4
1770,-4.266666666666667,-565.3333333333334,87.46666666666667
1771,0.0,-561.0666666666666,83.2
1772,2.1333333333333333,-552.5333333333333,81.06666666666666
1773,-6.4,-546.1333333333333,66.13333333333333
1774,-8.533333333333333,-539.7333333333333,72.53333333333333
1775,-8.533333333333333,-541.8666666666667,36.266666666666666
1776,-6.4,-535.4666666666667,25.6
1777,-10.666666666666666,-537.6,17.066666666666666
1778,2.1333333333333333,-552.5333333333333,27.733333333333334
1779,6.4,-567.4666666666667,46.93333333333333
1780,23.466666666666665,-578.1333333333333,64.0
1781,46.93333333333333,-597.3333333333334,83.2
1782,72.53333333333333,-612.2666666666667,110.93333333333334
1783,96.0,-616.5333333333333,121.6
1784,132.26666666666665,-631.4666666666667,117.33333333333333
1785,145.06666666666666,-672.0,108.8
1786,147.2,-657.0666666666666,87.46666666666667
1787,123.73333333333333,-682.6666666666666,85.33333333333333
1788,102.4,-704.0,74.66666666666667
1789,76.8,-723.2,57.6
1790,44.8,-736.0,51.2
1791,0.0,-742.4,34.13333333333333
1792,-23.466666666666665,-738.1333333333333,29.866666666666667
1793,-38.4,-723.2,34.13333333333333
1794,-42.666666666666664,-686.9333333333333,19.2
1795,-32.0,-640.0,12.8
1796,-17.066666666666666,-586.6666666666666,6.4
1797,8.533333333333333,-556.8,-23.466666666666665
1798,12.8,-520.5333333333333,-53.333333333333336
1799,19.2,-509.8666666666667,-81.06666666666666
1800,17.066666666666666,-516.2666666666667,-98.13333333333333
1801,25.6,-550.4,-113.06666666666666
1802,51.2,-580.2666666666667,-130.13333333333333
1803,72.53333333333333,-625.0666666666666,-179.2
1804,78.93333333333334,-657.0666666666666,-221.86666666666667
1805,40.53333333333333,-672.0,-264.5333333333333
1806,-27.733333333333334,-682.6666666666666,-268.8
1807,-74.66666666666667,-676.2666666666667,-238.93333333333334
1808,-121.6,-667.7333333333333,-192.0
1809,-147.2,-648.5333333333333,-128.0
1810,-157.86666666666667,-625.0666666666666,-72.53333333333333
1811,-147.2,-595.2,-29.866666666666667
1812,-132.26666666666665,-576.0,-17.066666666666666
1813,-128.0,-541.8666666666667,-19.2
1814,-128.0,-505.59999999999997,-40.53333333333333
1815,-136.53333333333333,-490.6666666666667,-57.6
1816,-140.8,-477.8666666666667,-70.4
1817,-147.2,-475.73333333333335,-76.8
1818,-132.26666666666665,-480.0,-59.733333333333334
1819,-104.53333333333333,-494.93333333333334,-49.06666666666666
1820,-78.93333333333334,-512.0,-38.4
1821,-66.13333333333333,-516.2666666666667,-42.666666666666664
1822,-40.53333333333333,-524.8,-49.06666666666666
1823,-38.4,-531.2,-68.26666666666667
1824,-27.733333333333334,-541.8666666666667,-57.6
1825,-36.266666666666666,-535.4666666666667,-34.13333333333333
1826,-36.266666666666666,-537.6,-34.13333333333333
1827,-34.13333333333333,-533.3333333333334,-14.933333333333334
1828,-27.733333333333334,-524.8,-8.533333333333333
1829,-12.8,-518.4,-19.2
1830,-12.8,-505.59999999999997,-40.53333333333333
1831,-12.8,-492.8,-36.266666666666666
1832,-8.533333333333333,-469.3333333333333,-38.4
1833,-21.333333333333332,-443.73333333333335,-53.333333333333336
1834,-10.666666666666666,-430.93333333333334,-70.4
1835,-8.533333333333333,-422.4,-76.8
1836,-17.066666666666666,-416.0,-96.0
1837,-29.866666666666667,-401.06666666666666,-93.86666666666666
1838,-42.666666666666664,-401.06666666666666,-85.33333333333333
1839,-64.0,-388.26666666666665,-70.4
1840,-76.8,-394.6666666666667,-64.0
1841,-83.2,-411.73333333333335,-59.733333333333334
1842,-87.46666666666667,-424.5333333333333,-46.93333333333333
1843,-85.33333333333333,-445.8666666666667,-32.0
1844,-87.46666666666667,-467.2,-17.066666666666666
1845,-81.06666666666666,-482.1333333333333,-17.066666666666666
1846,-96.0,-490.6666666666667,-12.8
1847,-104.53333333333333,-492.8,-10.666666666666666
1848,-91.73333333333333,-503.46666666666664,-17.066666666666666
1849,-93.86666666666666,-505.59999999999997,-21.333333333333332
1850,-102.4,-509.8666666666667,-14.933333333333334
1851,-108.8,-509.8666666666667,-10.666666666666666
1852,-115.2,-516.2666666666667,-8.533333333333333
1853,-121.6,-526.9333333333333,-8.533333333333333
1854,-121.6,-535.4666666666667,-4.266666666666667
1855,-130.13333333333333,-537.6,-4.266666666666667
1856,-134.4,-546.1333333333333,4.266666666666667
1857,-132.26666666666665,-548.2666666666667,8.533333333333333
1858,-134.4,-531.2,4.266666666666667
1859,-138.66666666666666,-533.3333333333334,4.266666666666667
1860,-136.53333333333333,-514.1333333333333,0.0
1861,-134.4,-505.59999999999997,-17.066666666666666
1862,-132.26666666666665,-488.5333333333333,-14.933333333333334
1863,-128.0,-482.1333333333333,-8.533333333333333
1864,-123.73333333333333,-467.2,-4.266666666666667
1865,-121.6,-462.93333333333334,-6.4
1866,-113.06666666666666,-460.8,-4.266666666666667
1867,-108.8,-458.6666666666667,-2.1333333333333333
1868,-100.26666666666667,-454.4,-6.4
1869,-89.6,-456.5333333333333,0.0
1870,-83.2,-467.2,-4.266666666666667
1871,-81.06666666666666,-473.59999999999997,4.266666666666667
1872,-78.93333333333334,-477.8666666666667,10.666666666666666
1873,-64.0,-486.4,14.933333333333334
1874,-55.46666666666667,-492.8,17.066666666666666
1875,-59.733333333333334,-503.46666666666664,19.2
1876,-61.86666666666667,-512.0,21.333333333333332
1877,-57.6,-507.73333333333335,23.466666666666665
1878,-57.6,-507.73333333333335,23.466666666666665
1879,-46.93333333333333,-514.1333333333333,40.53333333333333
1880,-51.2,-514.1333333333333,53.333333333333336
1881,-46.93333333333333,-520.5333333333333,51.2
1882,-38.4,-516.2666666666667,57.6
1883,-53.333333333333336,-516.2666666666667,66.13333333333333
1884,-53.333333333333336,-514.1333333333333,61.86666666666667
1885,-59.733333333333334,-520.5333333333333,76.8
1886,-55.46666666666667,-524.8,70.4
1887,-59.733333333333334,-531.2,83.2
1888,-68.26666666666667,-522.6666666666666,81.06666666666666
1889,-81.06666666666666,-518.4,74.66666666666667
1890,-87.46666666666667,-529.0666666666666,81.06666666666666
1891,-91.73333333333333,-524.8,83.2
1892,-89.6,-529.0666666666666,74.66666666666667
1893,-98.13333333333333,-518.4,76.8
1894,-100.26666666666667,-522.6666666666666,68.26666666666667
1895,-104.53333333333333,-509.8666666666667,66.13333333333333
1896,-98.13333333333333,-522.6666666666666,72.53333333333333
1897,-121.6,-501.3333333333333,57.6
1898,-134.4,-505.59999999999997,53.333333333333336
1899,-134.4,-505.59999999999997,40.53333333333333
1900,-121.6,-509.8666666666667,27.733333333333334
1901,-102.4,-516.2666666666667,17.066666666666666
1902,-98.13333333333333,-520.5333333333333,19.2
1903,-81.06666666666666,-529.0666666666666,17.066666666666666
1904,-61.86666666666667,-539.7333333333333,21.333333333333332
1905,-46.93333333333333,-548.2666666666667,25.6
1906,-42.666666666666664,-556.8,42.666666666666664
1907,-49.06666666666666,-563.2,64.0
1908,-59.733333333333334,-567.4666666666667,53.333333333333336
1909,-81.06666666666666,-569.6,59.733333333333334
1910,-113.06666666666666,-578.1333333333333,68.26666666666667
1911,-140.8,-582.4,68.26666666666667
1912,-164.26666666666665,-582.4,83.2
1913,-174.93333333333334,-582.4,78.93333333333334
1914,-172.8,-586.6666666666666,93.86666666666666
1915,-183.46666666666667,-595.2,115.2
1916,-170.66666666666666,-603.7333333333333,125.86666666666666
1917,-157.86666666666667,-603.7333333333333,136.53333333333333
1918,-147.2,-614.4,119.46666666666667
1919,-123.73333333333333,-616.5333333333333,83.2
1920,-115.2,-620.8,49.06666666666666
1921,-89.6,-625.0666666666666,17.066666666666666
1922,-68.26666666666667,-635.7333333333333,-8.533333333333333
1923,-74.66666666666667,-640.0,-17.066666666666666
1924,-81.06666666666666,-648.5333333333333,-17.066666666666666
1925,-100.26666666666667,-633.6,-14.933333333333334
1926,-125.86666666666666,-625.0666666666666,-32.0
1927,-149.33333333333334,-608.0,-51.2
1928,-162.13333333333333,-603.7333333333333,-83.2
1929,-183.46666666666667,-601.6,-59.733333333333334
1930,-202.66666666666666,-603.7333333333333,-93.86666666666666
1931,-215.46666666666667,-595.2,-100.26666666666667
1932,-226.13333333333333,-599.4666666666667,-115.2
1933,-243.2,-586.6666666666666,-117.33333333333333
1934,-260.26666666666665,-569.6,-121.6
1935,-249.6,-558.9333333333333,-134.4
1936,-243.2,-546.1333333333333,-151.46666666666667
1937,-221.86666666666667,-541.8666666666667,-162.13333333333333
1938,-194.13333333333333,-526.9333333333333,-174.93333333333334
1939,-164.26666666666665,-497.06666666666666,-198.4
1940,-117.33333333333333,-512.0,-155.73333333333332
1941,-72.53333333333333,-518.4,-134.4
1942,-19.2,-520.5333333333333,-106.66666666666667
1943,23.466666666666665,-535.4666666666667,-76.8
1944,59.733333333333334,-541.8666666666667,-46.93333333333333
1945,78.93333333333334,-550.4,-55.46666666666667
1946,96.0,-554.6666666666666,-42.666666666666664
1947,115.2,-554.6666666666666,-42.666666666666664
1948,119.46666666666667,-552.5333333333333,-44.8
1949,117.33333333333333,-561.0666666666666,-53.333333333333336
1950,108.8,-552.5333333333333,-66.13333333333333
1951,96.0,-556.8,-66.13333333333333
1952,78.93333333333334,-556.8,-66.13333333333333
1953,66.13333333333333,-554.6666666666666,-72.53333333333333
1954,51.2,-556.8,-74.66666666666667
1955,40.53333333333333,-550.4,-64.0
1956,14.933333333333334,-537.6,-76.8
1957,0.0,-544.0,-85.33333333333333
1958,-8.533333333333333,-544.0,-83.2
1959,-27.733333333333334,-533.3333333333334,-64.0
1960,-46.93333333333333,-529.0666666666666,-38.4
1961,-42.666666666666664,-529.0666666666666,-38.4
1962,-57.6,-522.6666666666666,-36.266666666666666
1963,-61.86666666666667,-518.4,-23.466666666666665
1964,-78.93333333333334,-514.1333333333333,-17.066666666666666
1965,-89.6,-490.6666666666667,-25.6
1966,-89.6,-492.8,-38.4
1967,-81.06666666666666,-488.5333333333333,-46.93333333333333
1968,-78.93333333333334,-480.0,-42.666666666666664
1969,-81.06666666666666,-488.5333333333333,-36.266666666666666
1970,-72.53333333333333,-490.6666666666667,-44.8
1971,-61.86666666666667,-505.59999999999997,-34.13333333333333
1972,-59.733333333333334,-505.59999999999997,-32.0
1973,-57.6,-505.59999999999997,-19.2
1974,-49.06666666666666,-514.1333333333333,-17.066666666666666
1975,-36.266666666666666,-518.4,-14.933333333333334
1976,-25.6,-522.6666666666666,-8.533333333333333
1977,-19.2,-535.4666666666667,-12.8
1978,-17.066666666666666,-539.7333333333333,-12.8
1979,-12.8,-531.2,-21.333333333333332
1980,-10.666666666666666,-539.7333333333333,-12.8
1981,-6.4,-531.2,-12.8
1982,-10.666666666666666,-529.0666666666666,4.266666666666667
1983,-14.933333333333334,-501.3333333333333,-8.533333333333333
1984,-17.066666666666666,-499.2,-12.8
1985,-19.2,-480.0,-19.2
1986,-8.533333333333333,-477.8666666666667,-19.2
1987,-10.666666666666666,-477.8666666666667,-17.066666666666666
1988,-6.4,-471.46666666666664,-27.733333333333334
1989,-17.066666666666666,-475.73333333333335,-25.6
1990,-12.8,-480.0,-6.4
1991,-6.4,-477.8666666666667,-6.4
1992,-8.533333333333333,-488.5333333333333,2.1333333333333333
1993,-10.666666666666666,-490.6666666666667,-8.533333333333333
1994,-14.933333333333334,-492.8,-2.1333333333333333
1995,-12.8,-501.3333333333333,0.0
1996,-21.333333333333332,-501.3333333333333,4.266666666666667
1997,-17.066666666666666,-494.93333333333334,-2.1333333333333333
1998,-8.533333333333333,-497.06666666666666,0.0
1999,-21.333333333333332,-490.6666666666667,-2.1333333333333333
2000,-12.8,-488.5333333333333,-10.666666666666666
2001,-10.666666666666666,-486.4,-6.4
2002,-10.666666666666666,-482.1333333333333,-8.533333333333333
2003,-21.333333333333332,-492.8,-4.266666666666667
2004,-8.533333333333333,-492.8,-2.1333333333333333
2005,-8.533333333333333,-497.06666666666666,0.0
2006,-8.533333333333333,-497.06666666666666,10.666666666666666
2007,-4.266666666666667,-497.06666666666666,12.8
2008,-6.4,-501.3333333333333,12.8
2009,-4.266666666666667,-499.2,17.066666666666666
2010,-8.533333333333333,-494.93333333333334,21.333333333333332
2011,-6.4,-492.8,19.2
2012,-6.4,-492.8,19.2
2013,-8.533333333333333,-488.5333333333333,25.6
2014,-8.533333333333333,-492.8,19.2
2015,-2.1333333333333333,-497.06666666666666,25.6
2016,-2.1333333333333333,-494.93333333333334,42.666666666666664
2017,-2.1333333333333333,-490.6666666666667,40.53333333333333
2018,0.0,-505.59999999999997,42.666666666666664
2019,0.0,-503.46666666666664,46.93333333333333
2020,0.0,-509.8666666666667,59.733333333333334
2021,2.1333333333333333,-512.0,53.333333333333336
2022,6.4,-518.4,57.6
2023,-4.266666666666667,-531.2,57.6
2024,-4.266666666666667,-520.5333333333333,59.733333333333334
2025,-10.666666666666666,-514.1333333333333,61.86666666666667
2026,-19.2,-526.9333333333333,68.26666666666667
2027,-25.6,-518.4,66.13333333333333
2028,-34.13333333333333,-518.4,49.06666666666666
2029,-40.53333333333333,-514.1333333333333,53.333333333333336
2030,-40.53333333333333,-509.8666666666667,53.333333333333336
2031,-42.666666666666664,-507.73333333333335,36.266666666666666
2032,-8.533333333333333,-505.59999999999997,17.066666666666666
2033,42.666666666666664,-503.46666666666664,-19.2
2034,76.8,-507.73333333333335,-57.6
2035,64.0,-499.2,-78.93333333333334
2036,46.93333333333333,-505.59999999999997,-81.06666666666666
2037,23.466666666666665,-503.46666666666664,-66.13333333333333
2038,4.266666666666667,-514.1333333333333,-44.8
2039,-8.533333333333333,-522.6666666666666,-25.6
2040,-14.933333333333334,-518.4,-10.666666666666666
2041,-14.933333333333334,-537.6,17.066666666666666
2042,-4.266666666666667,-561.0666666666666,32.0
2043,6.4,-601.6,64.0
2044,19.2,-620.8,76.8
2045,21.333333333333332,-654.9333333333333,91.73333333333333
2046,17.066666666666666,-674.1333333333333,119.46666666666667
2047,4.266666666666667,-691.2,128.0
2048,0.0,-708.2666666666667,132.26666666666665
2049,-8.533333333333333,-701.8666666666667,123.73333333333333
2050,0.0,-697.6,106.66666666666667
2051,-4.266666666666667,-680.5333333333333,57.6
2052,-6.4,-674.1333333333333,29.866666666666667
2053,-10.666666666666666,-669.8666666666667,12.8
2054,-8.533333333333333,-652.8,-4.266666666666667
2055,-17.066666666666666,-627.2,6.4
2056,-21.333333333333332,-586.6666666666666,6.4
2057,-8.533333333333333,-556.8,-2.1333333333333333
2058,-6.4,-541.8666666666667,-12.8
2059,-6.4,-531.2,-17.066666666666666
2060,4.266666666666667,-533.3333333333334,-10.666666666666666
2061,10.666666666666666,-537.6,-23.466666666666665
2062,27.733333333333334,-554.6666666666666,-29.866666666666667
2063,34.13333333333333,-554.6666666666666,-55.46666666666667
2064,34.13333333333333,-586.6666666666666,-64.0
2065,23.466666666666665,-610.1333333333333,-72.53333333333333
2066,8.533333333333333,-646.4,-66.13333333333333
2067,10.666666666666666,-674.1333333333333,-55.46666666666667
2068,19.2,-689.0666666666666,-51.2
2069,40.53333333333333,-704.0,-42.666666666666664
2070,55.46666666666667,-718.9333333333333,-66.13333333333333
2071,61.86666666666667,-723.2,-106.66666666666667
2072,64.0,-718.9333333333333,-125.86666666666666
2073,57.6,-716.8,-145.06666666666666
2074,25.6,-686.9333333333333,-145.06666666666666
2075,6.4,-665.6,-145.06666666666666
2076,-8.533333333333333,-631.4666666666667,-121.6
2077,-14.933333333333334,-603.7333333333333,-115.2
2078,-19.2,-571.7333333333333,-113.06666666666666
2079,-42.666666666666664,-516.2666666666667,-85.33333333333333
2080,-85.33333333333333,-462.93333333333334,-85.33333333333333
2081,-121.6,-413.8666666666667,-81.06666666666666
2082,-140.8,-396.8,-76.8
2083,-157.86666666666667,-371.2,-66.13333333333333
2084,-160.0,-362.6666666666667,-53.333333333333336
2085,-157.86666666666667,-379.73333333333335,-44.8
2086,-136.53333333333333,-392.5333333333333,-44.8
2087,-119.46666666666667,-405.3333333333333,-44.8
2088,-85.33333333333333,-439.46666666666664,-53.333333333333336
2089,-68.26666666666667,-471.46666666666664,-64.0
2090,-53.333333333333336,-501.3333333333333,-81.06666666666666
2091,-40.53333333333333,-537.6,-68.26666666666667
2092,-29.866666666666667,-556.8,-42.666666666666664
2093,-34.13333333333333,-582.4,-29.866666666666667
2094,-29.866666666666667,-608.0,0.0
2095,-38.4,-629.3333333333334,23.466666666666665
2096,-29.866666666666667,-625.0666666666666,32.0
2097,-32.0,-622.9333333333333,32.0
2098,-27.733333333333334,-597.3333333333334,17.066666666666666
2099,-25.6,-567.4666666666667,6.4
2100,-42.666666666666664,-522.6666666666666,-14.933333333333334
2101,-57.6,-512.0,-46.93333333333333
2102,-64.0,-477.8666666666667,-61.86666666666667
2103,-74.66666666666667,-448.0,-76.8
2104,-74.66666666666667,-439.46666666666664,-91.73333333333333
2105,-66.13333333333333,-433.06666666666666,-85.33333333333333
2106,-66.13333333333333,-441.59999999999997,-89.6
2107,-57.6,-462.93333333333334,-81.06666666666666
2108,-49.06666666666666,-484.26666666666665,-70.4
2109,-61.86666666666667,-514.1333333333333,-51.2
2110,-59.733333333333334,-533.3333333333334,-32.0
2111,-66.13333333333333,-546.1333333333333,-21.333333333333332
2112,-61.86666666666667,-556.8,-19.2
2113,-59.733333333333334,-561.0666666666666,-25.6
2114,-59.733333333333334,-556.8,-23.466666666666665
2115,-61.86666666666667,-550.4,-38.4
2116,-61.86666666666667,-531.2,-49.06666666666666
2117,-68.26666666666667,-509.8666666666667,-55.46666666666667
2118,-76.8,-505.59999999999997,-46.93333333333333
2119,-81.06666666666666,-499.2,-44.8
2120,-85.33333333333333,-490.6666666666667,-40.53333333333333
2121,-98.13333333333333,-488.5333333333333,-32.0
2122,-106.66666666666667,-490.6666666666667,-19.2
2123,-119.46666666666667,-490.6666666666667,-8.533333333333333
2124,-121.6,-486.4,0.0
2125,-138.66666666666666,-488.5333333333333,-6.4
2126,-145.06666666666666,-490.6666666666667,6.4
2127,-142.93333333333334,-486.4,4.266666666666667
2128,-140.8,-492.8,10.666666666666666
2129,-145.06666666666666,-484.26666666666665,4.266666666666667
2130,-136.53333333333333,-492.8,6.4
2131,-130.13333333333333,-492.8,2.1333333333333333
2132,-128.0,-480.0,8.533333333333333
2133,-115.2,-473.59999999999997,2.1333333333333333
2134,-113.06666666666666,-477.8666666666667,0.0
2135,-106.66666666666667,-482.1333333333333,0.0
2136,-96.0,-471.46666666666664,2.1333333333333333
2137,-96.0,-471.46666666666664,6.4
2138,-93.86666666666666,-467.2,2.1333333333333333
2139,-85.33333333333333,-480.0,12.8
2140,-85.33333333333333,-471.46666666666664,8.533333333333333
2141,-81.06666666666666,-486.4,6.4
2142,-70.4,-482.1333333333333,10.666666666666666
2143,-72.53333333333333,-484.26666666666665,12.8
2144,-64.0,-488.5333333333333,19.2
2145,-55.46666666666667,-492.8,21.333333333333332
2146,-53.333333333333336,-492.8,8.533333333333333
2147,-46.93333333333333,-492.8,4.266666666666667
2148,-44.8,-480.0,-2.1333333333333333
2149,-38.4,-494.93333333333334,-2.1333333333333333
2150,-34.13333333333333,-482.1333333333333,0.0
2151,-36.266666666666666,-494.93333333333334,2.1333333333333333
2152,-44.8,-488.5333333333333,4.266666666666667
2153,-38.4,-490.6666666666667,10.666666666666666
2154,-32.0,-505.59999999999997,17.066666666666666
2155,-36.266666666666666,-507.73333333333335,14.933333333333334
2156,-38.4,-505.59999999999997,21.333333333333332
2157,-46.93333333333333,-512.0,19.2
2158,-49.06666666666666,-512.0,27.733333333333334
2159,-53.333333333333336,-514.1333333333333,29.866666666666667
2160,-53.333333333333336,-520.5333333333333,40.53333333333333
2161,-61.86666666666667,-516.2666666666667,44.8
2162,-55.46666666666667,-518.4,46.93333333333333
2163,-64.0,-524.8,36.266666666666666
2164,-66.13333333333333,-524.8,36.266666666666666
2165,-72.53333333333333,-524.8,36.266666666666666
2166,-66.13333333333333,-535.4666666666667,36.266666666666666
2167,-76.8,-531.2,34.13333333333333
2168,-85.33333333333333,-529.0666666666666,40.53333333333333
2169,-81.06666666666666,-533.3333333333334,42.666666666666664
2170,-83.2,-529.0666666666666,42.666666666666664
2171,-85.33333333333333,-522.6666666666666,49.06666666666666
2172,-81.06666666666666,-526.9333333333333,64.0
2173,-81.06666666666666,-524.8,61.86666666666667
2174,-74.66666666666667,-524.8,51.2
2175,-76.8,-531.2,55.46666666666667
2176,-78.93333333333334,-520.5333333333333,64.0
2177,-74.66666666666667,-520.5333333333333,57.6
2178,-78.93333333333334,-516.2666666666667,55.46666666666667
2179,-83.2,-514.1333333333333,51.2
2180,-87.46666666666667,-512.0,42.666666666666664
2181,-104.53333333333333,-509.8666666666667,40.53333333333333
2182,-123.73333333333333,-499.2,27.733333333333334
2183,-130.13333333333333,-503.46666666666664,19.2
2184,-128.0,-503.46666666666664,17.066666666666666
2185,-117.33333333333333,-503.46666666666664,23.466666666666665
2186,-123.73333333333333,-505.59999999999997,23.466666666666665
2187,-119.46666666666667,-516.2666666666667,55.46666666666667
2188,-123.73333333333333,-524.8,53.333333333333336
2189,-117.33333333333333,-520.5333333333333,64.0
2190,-121.6,-531.2,57.6
2191,-123.73333333333333,-526.9333333333333,61.86666666666667
2192,-125.86666666666666,-533.3333333333334,68.26666666666667
2193,-132.26666666666665,-539.7333333333333,70.4
2194,-134.4,-548.2666666666667,85.33333333333333
2195,-147.2,-548.2666666666667,85.33333333333333
2196,-147.2,-554.6666666666666,93.86666666666666
2197,-145.06666666666666,-561.0666666666666,93.86666666666666
2198,-142.93333333333334,-567.4666666666667,81.06666666666666
2199,-145.06666666666666,-580.2666666666667,78.93333333333334
2200,-136.53333333333333,-593.0666666666666,64.0
2201,-138.66666666666666,-605.8666666666667,55.46666666666667
2202,-132.26666666666665,-627.2,51.2
2203,-140.8,-642.1333333333333,42.666666666666664
2204,-138.66666666666666,-646.4,36.266666666666666
2205,-125.86666666666666,-654.9333333333333,23.466666666666665
2206,-134.4,-648.5333333333333,19.2
2207,-145.06666666666666,-654.9333333333333,19.2
2208,-147.2,-650.6666666666666,21.333333333333332
2209,-153.6,-618.6666666666666,19.2
2210,-162.13333333333333,-633.6,6.4
2211,-164.26666666666665,-627.2,-10.666666666666666
2212,-166.4,-627.2,-25.6
2213,-160.0,-644.2666666666667,-44.8
2214,-162.13333333333333,-650.6666666666666,-61.86666666666667
2215,-160.0,-659.2,-57.6
2216,-153.6,-661.3333333333334,-59.733333333333334
2217,-153.6,-657.0666666666666,-66.13333333333333
2218,-149.33333333333334,-650.6666666666666,-68.26666666666667
2219,-142.93333333333334,-625.0666666666666,-76.8
2220,-136.53333333333333,-612.2666666666667,-91.73333333333333
2221,-128.0,-588.8,-106.66666666666667
2222,-117.33333333333333,-569.6,-117.33333333333333
2223,-93.86666666666666,-554.6666666666666,-121.6
2224,-74.66666666666667,-531.2,-117.33333333333333
2225,-49.06666666666666,-516.2666666666667,-117.33333333333333
2226,-23.466666666666665,-497.06666666666666,-106.66666666666667
2227,6.4,-477.8666666666667,-100.26666666666667
2228,27.733333333333334,-467.2,-85.33333333333333
2229,40.53333333333333,-456.5333333333333,-81.06666666666666
2230,53.333333333333336,-450.1333333333333,-61.86666666666667
2231,55.46666666666667,-450.1333333333333,-44.8
2232,49.06666666666666,-448.0,-46.93333333333333
2233,36.266666666666666,-460.8,-38.4
2234,23.466666666666665,-469.3333333333333,-34.13333333333333
2235,14.933333333333334,-486.4,-49.06666666666666
2236,-6.4,-503.46666666666664,-49.06666666666666
2237,-10.666666666666666,-529.0666666666666,-42.666666666666664
2238,-27.733333333333334,-537.6,-32.0
2239,-23.466666666666665,-552.5333333333333,-40.53333333333333
2240,-42.666666666666664,-554.6666666666666,-32.0
2241,-46.93333333333333,-556.8,-27.733333333333334
2242,-42.666666666666664,-563.2,-34.13333333333333
2243,-61.86666666666667,-558.9333333333333,-21.333333333333332
2244,-68.26666666666667,-548.2666666666667,-25.6
2245,-83.2,-541.8666666666667,-21.333333333333332
2246,-72.53333333333333,-531.2,-6.4
2247,-70.4,-518.4,-14.933333333333334
2248,-64.0,-516.2666666666667,-4.266666666666667
2249,-59.733333333333334,-512.0,-17.066666666666666
2250,-55.46666666666667,-509.8666666666667,-25.6
2251,-64.0,-503.46666666666664,-27.733333333333334
2252,-64.0,-501.3333333333333,-32.0
2253,-61.86666666666667,-516.2666666666667,-32.0
2254,-59.733333333333334,-516.2666666666667,-40.53333333333333
2255,-68.26666666666667,-524.8,-34.13333333333333
2256,-68.26666666666667,-531.2,-27.733333333333334
2257,-64.0,-526.9333333333333,-27.733333333333334
2258,-57.6,-526.9333333333333,-29.866666666666667
2259,-40.53333333333333,-529.0666666666666,-29.866666666666667
2260,-53.333333333333336,-520.5333333333333,-21.333333333333332
2261,-53.333333333333336,-512.0,-29.866666666666667
2262,-36.266666666666666,-507.73333333333335,-27.733333333333334
2263,-29.866666666666667,-507.73333333333335,-19.2
2264,-25.6,-512.0,-19.2
2265,-21.333333333333332,-494.93333333333334,-27.733333333333334
2266,-10.666666666666666,-503.46666666666664,-25.6
2267,-10.666666666666666,-497.06666666666666,-34.13333333333333
2268,-8.533333333333333,-494.93333333333334,-12.8
2269,-4.266666666666667,-490.6666666666667,-23.466666666666665
2270,-2.1333333333333333,-492.8,-17.066666666666666
2271,4.266666666666667,-497.06666666666666,-12.8
2272,6.4,-499.2,-10.666666666666666
2273,19.2,-497.06666666666666,-4.266666666666667
2274,17.066666666666666,-505.59999999999997,-17.066666666666666
2275,10.666666666666666,-505.59999999999997,-8.533333333333333
2276,8.533333333333333,-505.59999999999997,-6.4
2277,4.266666666666667,-514.1333333333333,0.0
2278,4.266666666666667,-509.8666666666667,6.4
2279,2.1333333333333333,-512.0,-2.1333333333333333
2280,4.266666666666667,-514.1333333333333,10.666666666666666
2281,-2.1333333333333333,-512.0,6.4
2282,-6.4,-512.0,8.533333333333333
2283,-6.4,-509.8666666666667,0.0
2284,-14.933333333333334,-514.1333333333333,0.0
2285,-12.8,-522.6666666666666,29.866666666666667
2286,-14.933333333333334,-529.0666666666666,-10.666666666666666
2287,-21.333333333333332,-529.0666666666666,4.266666666666667
2288,-19.2,-537.6,10.666666666666666
2289,-21.333333333333332,-544.0,14.933333333333334
2290,-27.733333333333334,-533.3333333333334,19.2
2291,-23.466666666666665,-539.7333333333333,34.13333333333333
2292,-27.733333333333334,-529.0666666666666,19.2
2293,-12.8,-526.9333333333333,19.2
2294,-12.8,-520.5333333333333,10.666666666666666
2295,-17.066666666666666,-512.0,10.666666666666666
2296,-10.666666666666666,-505.59999999999997,14.933333333333334
2297,-12.8,-509.8666666666667,14.933333333333334
2298,-23.466666666666665,-501.3333333333333,21.333333333333332
2299,-27.733333333333334,-497.06666666666666,19.2
2300,-27.733333333333334,-490.6666666666667,23.466666666666665
2301,-21.333333333333332,-492.8,21.333333333333332
2302,-25.6,-488.5333333333333,19.2
2303,-14.933333333333334,-488.5333333333333,19.2
2304,-10.666666666666666,-494.93333333333334,10.666666666666666
2305,-10.666666666666666,-490.6666666666667,19.2
2306,-8.533333333333333,-497.06666666666666,19.2
2307,-10.666666666666666,-497.06666666666666,23.466666666666665
2308,-6.4,-505.59999999999997,23.466666666666665
2309,-8.533333333333333,-507.73333333333335,36.266666666666666
2310,-2.1333333333333333,-505.59999999999997,34.13333333333333
2311,0.0,-503.46666666666664,32.0
2312,6.4,-505.59999999999997,25.6
2313,8.533333333333333,-505.59999999999997,23.466666666666665
2314,2.1333333333333333,-505.59999999999997,34.13333333333333
2315,6.4,-512.0,25.6
2316,14.933333333333334,-518.4,34.13333333333333
2317,4.266666666666667,-516.2666666666667,46.93333333333333
2318,2.1333333333333333,-522.6666666666666,42.666666666666664
2319,-2.1333333333333333,-524.8,53.333333333333336
2320,-2.1333333333333333,-546.1333333333333,46.93333333333333
2321,-6.4,-548.2666666666667,49.06666666666666
2322,-8.533333333333333,-558.9333333333333,49.06666666666666
2323,-4.266666666666667,-571.7333333333333,55.46666666666667
2324,-17.066666666666666,-576.0,70.4
2325,-8.533333333333333,-588.8,76.8
2326,-2.1333333333333333,-586.6666666666666,74.66666666666667
2327,2.1333333333333333,-582.4,59.733333333333334
2328,29.866666666666667,-576.0,36.266666666666666
2329,17.066666666666666,-584.5333333333333,38.4
2330,10.666666666666666,-573.8666666666667,34.13333333333333
2331,8.533333333333333,-573.8666666666667,38.4
2332,0.0,-569.6,36.266666666666666
2333,-6.4,-567.4666666666667,46.93333333333333
2334,-6.4,-561.0666666666666,51.2
2335,-8.533333333333333,-563.2,51.2
2336,-6.4,-569.6,64.0
2337,0.0,-576.0,68.26666666666667
2338,8.533333333333333,-580.2666666666667,68.26666666666667
2339,27.733333333333334,-586.6666666666666,85.33333333333333
2340,40.53333333333333,-603.7333333333333,91.73333333333333
2341,40.53333333333333,-603.7333333333333,89.6
2342,51.2,-618.6666666666666,93.86666666666666
2343,49.06666666666666,-616.5333333333333,85.33333333333333
2344,46.93333333333333,-622.9333333333333,66.13333333333333
2345,46.93333333333333,-625.0666666666666,49.06666666666666
2346,34.13333333333333,-618.6666666666666,19.2
2347,19.2,-622.9333333333333,4.266666666666667
2348,4.266666666666667,-618.6666666666666,-23.466666666666665
2349,-8.533333333333333,-635.7333333333333,-25.6
2350,-8.533333333333333,-633.6,-21.333333333333332
2351,-10.666666666666666,-640.0,-23.466666666666665
2352,-12.8,-633.6,-25.6
2353,-2.1333333333333333,-629.3333333333334,-27.733333333333334
2354,8.533333333333333,-614.4,-53.333333333333336
2355,23.466666666666665,-599.4666666666667,-81.06666666666666
2356,29.866666666666667,-597.3333333333334,-100.26666666666667
2357,40.53333333333333,-584.5333333333333,-125.86666666666666
2358,36.266666666666666,-565.3333333333334,-147.2
2359,49.06666666666666,-550.4,-172.8
2360,64.0,-541.8666666666667,-187.73333333333332
2361,55.46666666666667,-520.5333333333333,-221.86666666666667
2362,34.13333333333333,-512.0,-228.26666666666665
2363,-19.2,-499.2,-215.46666666666667
2364,-61.86666666666667,-503.46666666666664,-183.46666666666667
2365,-100.26666666666667,-488.5333333333333,-142.93333333333334
2366,-115.2,-501.3333333333333,-98.13333333333333
2367,-128.0,-497.06666666666666,-57.6
2368,-138.66666666666666,-503.46666666666664,-23.466666666666665
2369,-145.06666666666666,-516.2666666666667,-4.266666666666667
2370,-147.2,-537.6,0.0
2371,-151.46666666666667,-554.6666666666666,12.8
2372,-155.73333333333332,-578.1333333333333,-8.533333333333333
2373,-162.13333333333333,-593.0666666666666,-12.8
2374,-157.86666666666667,-605.8666666666667,-8.533333333333333
2375,-145.06666666666666,-618.6666666666666,-2.1333333333333333
2376,-121.6,-620.8,-4.266666666666667
2377,-102.4,-618.6666666666666,-27.733333333333334
2378,-72.53333333333333,-612.2666666666667,-34.13333333333333
2379,-57.6,-603.7333333333333,-40.53333333333333
2380,-32.0,-599.4666666666667,-34.13333333333333
2381,-38.4,-584.5333333333333,-32.0
2382,-38.4,-569.6,-25.6
2383,-32.0,-552.5333333333333,-6.4
2384,-21.333333333333332,-537.6,-10.666666666666666
2385,-8.533333333333333,-522.6666666666666,-14.933333333333334
2386,-8.533333333333333,-509.8666666666667,-10.666666666666666
2387,-8.533333333333333,-490.6666666666667,-12.8
2388,-12.8,-482.1333333333333,-36.266666666666666
2389,-10.666666666666666,-465.06666666666666,-32.0
2390,-4.266666666666667,-454.4,-29.866666666666667
2391,-6.4,-448.0,-32.0
2392,-8.533333333333333,-443.73333333333335,-34.13333333333333
2393,-14.933333333333334,-435.2,-44.8
2394,-27.733333333333334,-439.46666666666664,-51.2
2395,-38.4,-430.93333333333334,-55.46666666666667
2396,-40.53333333333333,-448.0,-44.8
2397,-38.4,-452.26666666666665,-38.4
2398,-49.06666666666666,-469.3333333333333,-29.866666666666667
2399,-61.86666666666667,-471.46666666666664,-32.0
