,accelerometerAccelerationX(G),accelerometerAccelerationY(G),accelerometerAccelerationZ(G)
0,-14.933333333333334,-401.06666666666666,-362.6666666666667
1,-21.333333333333332,-398.93333333333334,-369.06666666666666
2,-23.466666666666665,-390.4,-369.06666666666666
3,-25.6,-396.8,-360.5333333333333
4,-29.866666666666667,-388.26666666666665,-366.93333333333334
5,-23.466666666666665,-401.06666666666666,-366.93333333333334
6,-17.066666666666666,-396.8,-360.5333333333333
7,-17.066666666666666,-394.6666666666667,-373.3333333333333
8,-17.066666666666666,-394.6666666666667,-358.4
9,-25.6,-398.93333333333334,-364.8
10,-19.2,-390.4,-371.2
11,-23.466666666666665,-392.5333333333333,-369.06666666666666
12,-21.333333333333332,-394.6666666666667,-364.8
13,-10.666666666666666,-396.8,-360.5333333333333
14,-12.8,-394.6666666666667,-362.6666666666667
15,-17.066666666666666,-405.3333333333333,-373.3333333333333
16,-19.2,-401.06666666666666,-369.06666666666666
17,-14.933333333333334,-396.8,-371.2
18,-19.2,-398.93333333333334,-364.8
19,-10.666666666666666,-403.2,-360.5333333333333
20,-14.933333333333334,-401.06666666666666,-366.93333333333334
21,-19.2,-396.8,-371.2
22,-14.933333333333334,-403.2,-375.46666666666664
23,-12.8,-403.2,-362.6666666666667
24,-17.066666666666666,-401.06666666666666,-364.8
25,-14.933333333333334,-396.8,-369.06666666666666
26,-17.066666666666666,-388.26666666666665,-373.3333333333333
27,-19.2,-398.93333333333334,-371.2
28,-27.733333333333334,-394.6666666666667,-362.6666666666667
29,-19.2,-403.2,-362.6666666666667
30,-21.333333333333332,-394.6666666666667,-369.06666666666666
31,-12.8,-398.93333333333334,-364.8
32,-21.333333333333332,-403.2,-358.4
33,-21.333333333333332,-403.2,-369.06666666666666
34,-25.6,-392.5333333333333,-362.6666666666667
35,-23.466666666666665,-401.06666666666666,-369.06666666666666
36,-23.466666666666665,-405.3333333333333,-364.8
37,-23.466666666666665,-413.8666666666667,-345.6
38,-19.2,-405.3333333333333,-360.5333333333333
39,-14.933333333333334,-403.2,-349.8666666666667
40,-12.8,-409.6,-360.5333333333333
41,-14.933333333333334,-407.46666666666664,-362.6666666666667
42,-17.066666666666666,-403.2,-356.26666666666665
43,-14.933333333333334,-409.6,-366.93333333333334
44,-14.933333333333334,-407.46666666666664,-356.26666666666665
45,-12.8,-401.06666666666666,-360.5333333333333
46,-17.066666666666666,-405.3333333333333,-364.8
47,-12.8,-403.2,-364.8
48,-8.533333333333333,-411.73333333333335,-373.3333333333333
49,-10.666666666666666,-409.6,-369.06666666666666
50,-10.666666666666666,-407.46666666666664,-356.26666666666665
51,-14.933333333333334,-409.6,-358.4
52,-23.466666666666665,-411.73333333333335,-356.26666666666665
53,-19.2,-407.46666666666664,-354.1333333333333
54,-19.2,-409.6,-358.4
55,-19.2,-409.6,-356.26666666666665
56,-14.933333333333334,-413.8666666666667,-347.73333333333335
57,-17.066666666666666,-405.3333333333333,-364.8
58,-27.733333333333334,-409.6,-349.8666666666667
59,-27.733333333333334,-418.1333333333333,-358.4
60,-17.066666666666666,-413.8666666666667,-356.26666666666665
61,-23.466666666666665,-409.6,-347.73333333333335
62,-19.2,-411.73333333333335,-349.8666666666667
63,-19.2,-409.6,-358.4
64,-23.466666666666665,-411.73333333333335,-354.1333333333333
65,-19.2,-411.73333333333335,-349.8666666666667
66,-25.6,-407.46666666666664,-362.6666666666667
67,-14.933333333333334,-411.73333333333335,-352.0
68,-19.2,-416.0,-345.6
69,-25.6,-416.0,-352.0
70,-23.466666666666665,-418.1333333333333,-343.46666666666664
71,-14.933333333333334,-411.73333333333335,-352.0
72,-23.466666666666665,-409.6,-352.0
73,-19.2,-409.6,-345.6
74,-14.933333333333334,-413.8666666666667,-354.1333333333333
75,-10.666666666666666,-409.6,-354.1333333333333
76,-12.8,-411.73333333333335,-356.26666666666665
77,-14.933333333333334,-407.46666666666664,-354.1333333333333
78,-14.933333333333334,-407.46666666666664,-358.4
79,-23.466666666666665,-405.3333333333333,-358.4
80,-21.333333333333332,-407.46666666666664,-345.6
81,-14.933333333333334,-398.93333333333334,-356.26666666666665
82,-17.066666666666666,-405.3333333333333,-366.93333333333334
83,-10.666666666666666,-407.46666666666664,-360.5333333333333
84,-12.8,-403.2,-352.0
85,-21.333333333333332,-403.2,-358.4
86,-17.066666666666666,-407.46666666666664,-356.26666666666665
87,-23.466666666666665,-403.2,-352.0
88,-17.066666666666666,-411.73333333333335,-354.1333333333333
89,-8.533333333333333,-413.8666666666667,-362.6666666666667
90,-17.066666666666666,-405.3333333333333,-352.0
91,-17.066666666666666,-413.8666666666667,-356.26666666666665
92,-19.2,-409.6,-349.8666666666667
93,-14.933333333333334,-413.8666666666667,-347.73333333333335
94,-14.933333333333334,-416.0,-347.73333333333335
95,-19.2,-409.6,-352.0
96,-21.333333333333332,-413.8666666666667,-352.0
97,-14.933333333333334,-405.3333333333333,-354.1333333333333
98,-8.533333333333333,-411.73333333333335,-358.4
99,-19.2,-409.6,-356.26666666666665
100,-19.2,-411.73333333333335,-360.5333333333333
101,-14.933333333333334,-416.0,-352.0
102,-19.2,-411.73333333333335,-349.8666666666667
103,-25.6,-392.5333333333333,-349.8666666666667
104,-21.333333333333332,-407.46666666666664,-341.3333333333333
105,-17.066666666666666,-409.6,-354.1333333333333
106,-14.933333333333334,-409.6,-341.3333333333333
107,-25.6,-407.46666666666664,-347.73333333333335
108,-23.466666666666665,-407.46666666666664,-349.8666666666667
109,-27.733333333333334,-413.8666666666667,-341.3333333333333
110,-34.13333333333333,-411.73333333333335,-332.8
111,-29.866666666666667,-413.8666666666667,-341.3333333333333
112,-32.0,-409.6,-334.93333333333334
113,-36.266666666666666,-405.3333333333333,-349.8666666666667
114,-44.8,-403.2,-341.3333333333333
115,-42.666666666666664,-403.2,-347.73333333333335
116,-36.266666666666666,-403.2,-352.0
117,-38.4,-405.3333333333333,-347.73333333333335
118,-40.53333333333333,-401.06666666666666,-345.6
119,-36.266666666666666,-403.2,-347.73333333333335
120,-46.93333333333333,-390.4,-352.0
121,-44.8,-398.93333333333334,-358.4
122,-36.266666666666666,-401.06666666666666,-345.6
123,-40.53333333333333,-398.93333333333334,-343.46666666666664
124,-49.06666666666666,-394.6666666666667,-349.8666666666667
125,-44.8,-388.26666666666665,-343.46666666666664
126,-42.666666666666664,-394.6666666666667,-352.0
127,-42.666666666666664,-384.0,-345.6
128,-38.4,-384.0,-352.0
129,-42.666666666666664,-388.26666666666665,-349.8666666666667
130,-40.53333333333333,-375.46666666666664,-347.73333333333335
131,-36.266666666666666,-386.1333333333333,-347.73333333333335
132,-44.8,-392.5333333333333,-349.8666666666667
133,-42.666666666666664,-377.6,-345.6
134,-40.53333333333333,-392.5333333333333,-349.8666666666667
135,-36.266666666666666,-398.93333333333334,-334.93333333333334
136,-38.4,-390.4,-345.6
137,-34.13333333333333,-390.4,-347.73333333333335
138,-32.0,-390.4,-349.8666666666667
139,-34.13333333333333,-384.0,-356.26666666666665
140,-36.266666666666666,-381.8666666666667,-347.73333333333335
141,-34.13333333333333,-392.5333333333333,-352.0
142,-40.53333333333333,-392.5333333333333,-347.73333333333335
143,-40.53333333333333,-381.8666666666667,-349.8666666666667
144,-49.06666666666666,-384.0,-349.8666666666667
145,-40.53333333333333,-381.8666666666667,-356.26666666666665
146,-53.333333333333336,-386.1333333333333,-362.6666666666667
147,-46.93333333333333,-388.26666666666665,-349.8666666666667
148,-55.46666666666667,-394.6666666666667,-356.26666666666665
149,-55.46666666666667,-396.8,-360.5333333333333
150,-49.06666666666666,-407.46666666666664,-360.5333333333333
151,-53.333333333333336,-403.2,-356.26666666666665
152,-49.06666666666666,-405.3333333333333,-356.26666666666665
153,-61.86666666666667,-413.8666666666667,-343.46666666666664
154,-68.26666666666667,-413.8666666666667,-347.73333333333335
155,-53.333333333333336,-409.6,-345.6
156,-57.6,-407.46666666666664,-330.6666666666667
157,-61.86666666666667,-409.6,-317.8666666666667
158,-38.4,-411.73333333333335,-315.73333333333335
159,-53.333333333333336,-411.73333333333335,-309.3333333333333
160,-53.333333333333336,-416.0,-322.1333333333333
161,-46.93333333333333,-416.0,-313.6
162,-55.46666666666667,-418.1333333333333,-315.73333333333335
163,-40.53333333333333,-430.93333333333334,-317.8666666666667
164,-40.53333333333333,-428.8,-326.4
165,-29.866666666666667,-441.59999999999997,-322.1333333333333
166,-29.866666666666667,-445.8666666666667,-326.4
167,-17.066666666666666,-452.26666666666665,-326.4
168,-23.466666666666665,-450.1333333333333,-339.2
169,-40.53333333333333,-413.8666666666667,-388.26666666666665
170,-2.1333333333333333,-450.1333333333333,-326.4
171,-12.8,-439.46666666666664,-332.8
172,-6.4,-441.59999999999997,-332.8
173,-4.266666666666667,-437.3333333333333,-328.5333333333333
174,-2.1333333333333333,-441.59999999999997,-337.06666666666666
175,-4.266666666666667,-422.4,-347.73333333333335
176,-2.1333333333333333,-439.46666666666664,-332.8
177,-4.266666666666667,-443.73333333333335,-337.06666666666666
178,-8.533333333333333,-469.3333333333333,-326.4
179,-10.666666666666666,-488.5333333333333,-343.46666666666664
180,-21.333333333333332,-475.73333333333335,-343.46666666666664
181,-19.2,-469.3333333333333,-345.6
182,-27.733333333333334,-456.5333333333333,-362.6666666666667
183,-32.0,-441.59999999999997,-358.4
184,-44.8,-428.8,-364.8
185,-42.666666666666664,-422.4,-358.4
186,-57.6,-407.46666666666664,-354.1333333333333
187,-53.333333333333336,-409.6,-337.06666666666666
188,-59.733333333333334,-407.46666666666664,-345.6
189,-66.13333333333333,-401.06666666666666,-343.46666666666664
190,-55.46666666666667,-398.93333333333334,-320.0
191,-72.53333333333333,-390.4,-334.93333333333334
192,-76.8,-390.4,-322.1333333333333
193,-72.53333333333333,-392.5333333333333,-324.26666666666665
194,-78.93333333333334,-394.6666666666667,-320.0
195,-76.8,-386.1333333333333,-326.4
196,-76.8,-388.26666666666665,-320.0
197,-78.93333333333334,-396.8,-326.4
198,-83.2,-388.26666666666665,-328.5333333333333
199,-85.33333333333333,-377.6,-324.26666666666665
200,-81.06666666666666,-384.0,-328.5333333333333
201,-76.8,-390.4,-324.26666666666665
202,-83.2,-386.1333333333333,-328.5333333333333
203,-81.06666666666666,-390.4,-324.26666666666665
204,-68.26666666666667,-388.26666666666665,-328.5333333333333
205,-76.8,-390.4,-330.6666666666667
206,-59.733333333333334,-394.6666666666667,-334.93333333333334
207,-51.2,-401.06666666666666,-317.8666666666667
208,-46.93333333333333,-396.8,-320.0
209,-46.93333333333333,-401.06666666666666,-326.4
210,-51.2,-392.5333333333333,-328.5333333333333
211,-64.0,-396.8,-330.6666666666667
212,-51.2,-390.4,-330.6666666666667
213,-44.8,-401.06666666666666,-332.8
214,-42.666666666666664,-396.8,-326.4
215,-44.8,-394.6666666666667,-328.5333333333333
216,-40.53333333333333,-401.06666666666666,-334.93333333333334
217,-38.4,-401.06666666666666,-330.6666666666667
218,-42.666666666666664,-403.2,-339.2
219,-40.53333333333333,-413.8666666666667,-352.0
220,-29.866666666666667,-409.6,-347.73333333333335
221,-34.13333333333333,-413.8666666666667,-345.6
222,-32.0,-428.8,-362.6666666666667
223,-32.0,-411.73333333333335,-347.73333333333335
224,-29.866666666666667,-418.1333333333333,-352.0
225,-23.466666666666665,-409.6,-352.0
226,-25.6,-409.6,-347.73333333333335
227,-25.6,-409.6,-345.6
228,-21.333333333333332,-416.0,-343.46666666666664
229,-29.866666666666667,-411.73333333333335,-343.46666666666664
230,-23.466666666666665,-411.73333333333335,-339.2
231,-14.933333333333334,-411.73333333333335,-343.46666666666664
232,-27.733333333333334,-409.6,-347.73333333333335
233,-10.666666666666666,-403.2,-343.46666666666664
234,-21.333333333333332,-405.3333333333333,-341.3333333333333
235,-21.333333333333332,-401.06666666666666,-347.73333333333335
236,-23.466666666666665,-398.93333333333334,-356.26666666666665
237,-14.933333333333334,-409.6,-354.1333333333333
238,-29.866666666666667,-398.93333333333334,-356.26666666666665
239,-27.733333333333334,-405.3333333333333,-352.0
240,-34.13333333333333,-398.93333333333334,-352.0
241,-29.866666666666667,-411.73333333333335,-349.8666666666667
242,-34.13333333333333,-407.46666666666664,-354.1333333333333
243,-38.4,-409.6,-352.0
244,-44.8,-422.4,-347.73333333333335
245,-38.4,-418.1333333333333,-354.1333333333333
246,-34.13333333333333,-420.26666666666665,-349.8666666666667
247,-40.53333333333333,-416.0,-347.73333333333335
248,-40.53333333333333,-416.0,-345.6
249,-34.13333333333333,-420.26666666666665,-356.26666666666665
250,-32.0,-413.8666666666667,-354.1333333333333
251,-42.666666666666664,-411.73333333333335,-352.0
252,-38.4,-407.46666666666664,-362.6666666666667
253,-42.666666666666664,-413.8666666666667,-349.8666666666667
254,-34.13333333333333,-413.8666666666667,-343.46666666666664
255,-32.0,-420.26666666666665,-328.5333333333333
256,-46.93333333333333,-411.73333333333335,-337.06666666666666
257,-46.93333333333333,-413.8666666666667,-337.06666666666666
258,-51.2,-411.73333333333335,-334.93333333333334
259,-55.46666666666667,-411.73333333333335,-328.5333333333333
260,-59.733333333333334,-407.46666666666664,-337.06666666666666
261,-55.46666666666667,-401.06666666666666,-326.4
262,-57.6,-403.2,-334.93333333333334
263,-66.13333333333333,-411.73333333333335,-347.73333333333335
264,-68.26666666666667,-409.6,-334.93333333333334
265,-61.86666666666667,-411.73333333333335,-343.46666666666664
266,-72.53333333333333,-413.8666666666667,-358.4
267,-72.53333333333333,-409.6,-356.26666666666665
268,-70.4,-403.2,-375.46666666666664
269,-68.26666666666667,-409.6,-381.8666666666667
270,-59.733333333333334,-405.3333333333333,-390.4
271,-51.2,-407.46666666666664,-409.6
272,-53.333333333333336,-407.46666666666664,-407.46666666666664
273,-46.93333333333333,-411.73333333333335,-392.5333333333333
274,-68.26666666666667,-407.46666666666664,-392.5333333333333
275,-76.8,-409.6,-384.0
276,-66.13333333333333,-422.4,-375.46666666666664
277,-85.33333333333333,-409.6,-375.46666666666664
278,-96.0,-407.46666666666664,-373.3333333333333
279,-100.26666666666667,-398.93333333333334,-379.73333333333335
280,-100.26666666666667,-396.8,-375.46666666666664
281,-102.4,-394.6666666666667,-375.46666666666664
282,-100.26666666666667,-396.8,-371.2
283,-106.66666666666667,-398.93333333333334,-373.3333333333333
284,-113.06666666666666,-398.93333333333334,-362.6666666666667
285,-113.06666666666666,-394.6666666666667,-369.06666666666666
286,-117.33333333333333,-405.3333333333333,-349.8666666666667
287,-104.53333333333333,-405.3333333333333,-360.5333333333333
288,-113.06666666666666,-413.8666666666667,-352.0
289,-117.33333333333333,-390.4,-364.8
290,-108.8,-403.2,-375.46666666666664
291,-106.66666666666667,-396.8,-379.73333333333335
292,-104.53333333333333,-396.8,-386.1333333333333
293,-100.26666666666667,-396.8,-381.8666666666667
294,-96.0,-396.8,-388.26666666666665
295,-93.86666666666666,-405.3333333333333,-381.8666666666667
296,-100.26666666666667,-398.93333333333334,-388.26666666666665
297,-102.4,-403.2,-390.4
298,-93.86666666666666,-407.46666666666664,-396.8
299,-100.26666666666667,-409.6,-420.26666666666665
300,-87.46666666666667,-409.6,-407.46666666666664
301,-89.6,-411.73333333333335,-411.73333333333335
302,-91.73333333333333,-409.6,-409.6
303,-78.93333333333334,-424.5333333333333,-411.73333333333335
304,-83.2,-407.46666666666664,-413.8666666666667
305,-76.8,-409.6,-418.1333333333333
306,-51.2,-416.0,-424.5333333333333
307,-40.53333333333333,-413.8666666666667,-426.6666666666667
308,-42.666666666666664,-413.8666666666667,-413.8666666666667
309,-25.6,-420.26666666666665,-420.26666666666665
310,-19.2,-439.46666666666664,-416.0
311,-12.8,-424.5333333333333,-405.3333333333333
312,-17.066666666666666,-413.8666666666667,-409.6
313,-25.6,-405.3333333333333,-420.26666666666665
314,-34.13333333333333,-379.73333333333335,-428.8
315,-14.933333333333334,-360.5333333333333,-445.8666666666667
316,-23.466666666666665,-347.73333333333335,-456.5333333333333
317,-19.2,-343.46666666666664,-454.4
318,-25.6,-339.2,-473.59999999999997
319,-32.0,-328.5333333333333,-482.1333333333333
320,-38.4,-328.5333333333333,-482.1333333333333
321,-40.53333333333333,-332.8,-475.73333333333335
322,-53.333333333333336,-334.93333333333334,-475.73333333333335
323,-70.4,-332.8,-477.8666666666667
324,-74.66666666666667,-334.93333333333334,-467.2
325,-83.2,-315.73333333333335,-467.2
326,-78.93333333333334,-320.0,-465.06666666666666
327,-96.0,-300.8,-460.8
328,-83.2,-292.26666666666665,-462.93333333333334
329,-83.2,-275.2,-450.1333333333333
330,-83.2,-273.06666666666666,-443.73333333333335
331,-78.93333333333334,-275.2,-452.26666666666665
332,-83.2,-268.8,-450.1333333333333
333,-83.2,-245.33333333333334,-437.3333333333333
334,-70.4,-251.73333333333332,-428.8
335,-72.53333333333333,-253.86666666666667,-430.93333333333334
336,-64.0,-243.2,-426.6666666666667
337,-49.06666666666666,-245.33333333333334,-426.6666666666667
338,-38.4,-247.46666666666667,-424.5333333333333
339,-29.866666666666667,-247.46666666666667,-418.1333333333333
340,-23.466666666666665,-249.6,-420.26666666666665
341,-14.933333333333334,-247.46666666666667,-420.26666666666665
342,-10.666666666666666,-260.26666666666665,-426.6666666666667
343,-8.533333333333333,-264.5333333333333,-422.4
344,-6.4,-268.8,-426.6666666666667
345,2.1333333333333333,-277.3333333333333,-430.93333333333334
346,-4.266666666666667,-283.73333333333335,-426.6666666666667
347,2.1333333333333333,-285.8666666666667,-428.8
348,4.266666666666667,-305.06666666666666,-428.8
349,-4.266666666666667,-313.6,-437.3333333333333
350,0.0,-332.8,-445.8666666666667
351,-6.4,-339.2,-445.8666666666667
352,-8.533333333333333,-339.2,-448.0
353,-8.533333333333333,-354.1333333333333,-441.59999999999997
354,-8.533333333333333,-362.6666666666667,-454.4
355,-10.666666666666666,-373.3333333333333,-454.4
356,-21.333333333333332,-379.73333333333335,-445.8666666666667
357,-25.6,-386.1333333333333,-441.59999999999997
358,-40.53333333333333,-386.1333333333333,-439.46666666666664
359,-46.93333333333333,-390.4,-437.3333333333333
360,-44.8,-396.8,-437.3333333333333
361,-55.46666666666667,-386.1333333333333,-437.3333333333333
362,-44.8,-390.4,-437.3333333333333
363,-46.93333333333333,-390.4,-441.59999999999997
364,-44.8,-377.6,-433.06666666666666
365,-42.666666666666664,-384.0,-428.8
366,-49.06666666666666,-371.2,-426.6666666666667
367,-40.53333333333333,-362.6666666666667,-433.06666666666666
368,-38.4,-358.4,-426.6666666666667
369,-29.866666666666667,-354.1333333333333,-426.6666666666667
370,-25.6,-349.8666666666667,-420.26666666666665
371,-29.866666666666667,-343.46666666666664,-422.4
372,-14.933333333333334,-330.6666666666667,-426.6666666666667
373,-6.4,-337.06666666666666,-418.1333333333333
374,0.0,-322.1333333333333,-394.6666666666667
375,-4.266666666666667,-311.46666666666664,-420.26666666666665
376,19.2,-317.8666666666667,-398.93333333333334
377,25.6,-315.73333333333335,-403.2
378,23.466666666666665,-302.93333333333334,-396.8
379,25.6,-302.93333333333334,-396.8
380,34.13333333333333,-309.3333333333333,-390.4
381,34.13333333333333,-302.93333333333334,-390.4
382,27.733333333333334,-296.5333333333333,-388.26666666666665
383,34.13333333333333,-302.93333333333334,-394.6666666666667
384,27.733333333333334,-300.8,-394.6666666666667
385,23.466666666666665,-305.06666666666666,-390.4
386,21.333333333333332,-322.1333333333333,-386.1333333333333
387,14.933333333333334,-309.3333333333333,-401.06666666666666
388,8.533333333333333,-311.46666666666664,-386.1333333333333
389,2.1333333333333333,-320.0,-386.1333333333333
390,-2.1333333333333333,-328.5333333333333,-390.4
391,-6.4,-326.4,-386.1333333333333
392,-4.266666666666667,-326.4,-388.26666666666665
393,-10.666666666666666,-330.6666666666667,-392.5333333333333
394,-17.066666666666666,-324.26666666666665,-405.3333333333333
395,-12.8,-326.4,-403.2
396,-17.066666666666666,-322.1333333333333,-396.8
397,-10.666666666666666,-330.6666666666667,-396.8
398,-23.466666666666665,-328.5333333333333,-390.4
399,-23.466666666666665,-332.8,-384.0
400,-23.466666666666665,-337.06666666666666,-388.26666666666665
401,-25.6,-334.93333333333334,-379.73333333333335
402,-27.733333333333334,-332.8,-386.1333333333333
403,-25.6,-334.93333333333334,-379.73333333333335
404,-23.466666666666665,-337.06666666666666,-377.6
405,-29.866666666666667,-328.5333333333333,-377.6
406,-21.333333333333332,-324.26666666666665,-360.5333333333333
407,-23.466666666666665,-337.06666666666666,-352.0
408,-38.4,-341.3333333333333,-349.8666666666667
409,-27.733333333333334,-343.46666666666664,-360.5333333333333
410,-32.0,-339.2,-358.4
411,-27.733333333333334,-341.3333333333333,-352.0
412,-17.066666666666666,-347.73333333333335,-341.3333333333333
413,-21.333333333333332,-347.73333333333335,-349.8666666666667
414,-19.2,-354.1333333333333,-339.2
415,-21.333333333333332,-349.8666666666667,-345.6
416,-19.2,-362.6666666666667,-341.3333333333333
417,-19.2,-377.6,-347.73333333333335
418,-29.866666666666667,-369.06666666666666,-349.8666666666667
419,-17.066666666666666,-377.6,-337.06666666666666
420,-17.066666666666666,-386.1333333333333,-334.93333333333334
421,-21.333333333333332,-394.6666666666667,-328.5333333333333
422,-14.933333333333334,-398.93333333333334,-330.6666666666667
423,-10.666666666666666,-405.3333333333333,-326.4
424,-10.666666666666666,-405.3333333333333,-330.6666666666667
425,-10.666666666666666,-390.4,-343.46666666666664
426,2.1333333333333333,-405.3333333333333,-334.93333333333334
427,4.266666666666667,-394.6666666666667,-343.46666666666664
428,14.933333333333334,-390.4,-339.2
429,32.0,-401.06666666666666,-320.0
430,17.066666666666666,-384.0,-334.93333333333334
431,17.066666666666666,-379.73333333333335,-337.06666666666666
432,34.13333333333333,-381.8666666666667,-343.46666666666664
433,36.266666666666666,-384.0,-339.2
434,34.13333333333333,-381.8666666666667,-330.6666666666667
435,40.53333333333333,-373.3333333333333,-334.93333333333334
436,40.53333333333333,-371.2,-347.73333333333335
437,34.13333333333333,-373.3333333333333,-347.73333333333335
438,32.0,-371.2,-356.26666666666665
439,4.266666666666667,-364.8,-364.8
440,-8.533333333333333,-366.93333333333334,-379.73333333333335
441,-27.733333333333334,-373.3333333333333,-386.1333333333333
442,-51.2,-381.8666666666667,-388.26666666666665
443,-55.46666666666667,-392.5333333333333,-379.73333333333335
444,-64.0,-401.06666666666666,-392.5333333333333
445,-64.0,-407.46666666666664,-401.06666666666666
446,-72.53333333333333,-407.46666666666664,-411.73333333333335
447,-66.13333333333333,-411.73333333333335,-407.46666666666664
448,-55.46666666666667,-409.6,-411.73333333333335
449,-51.2,-413.8666666666667,-418.1333333333333
450,-34.13333333333333,-420.26666666666665,-411.73333333333335
451,-14.933333333333334,-430.93333333333334,-407.46666666666664
452,-4.266666666666667,-433.06666666666666,-413.8666666666667
453,4.266666666666667,-445.8666666666667,-405.3333333333333
454,14.933333333333334,-458.6666666666667,-407.46666666666664
455,27.733333333333334,-467.2,-401.06666666666666
456,38.4,-473.59999999999997,-401.06666666666666
457,40.53333333333333,-480.0,-405.3333333333333
458,34.13333333333333,-473.59999999999997,-403.2
459,42.666666666666664,-486.4,-416.0
460,57.6,-482.1333333333333,-413.8666666666667
461,55.46666666666667,-482.1333333333333,-430.93333333333334
462,38.4,-465.06666666666666,-445.8666666666667
463,42.666666666666664,-467.2,-437.3333333333333
464,25.6,-469.3333333333333,-430.93333333333334
465,8.533333333333333,-484.26666666666665,-428.8
466,8.533333333333333,-494.93333333333334,-420.26666666666665
467,2.1333333333333333,-505.59999999999997,-405.3333333333333
468,4.266666666666667,-512.0,-409.6
469,0.0,-509.8666666666667,-401.06666666666666
470,8.533333333333333,-494.93333333333334,-398.93333333333334
471,17.066666666666666,-480.0,-409.6
472,21.333333333333332,-469.3333333333333,-401.06666666666666
473,34.13333333333333,-456.5333333333333,-392.5333333333333
474,36.266666666666666,-450.1333333333333,-381.8666666666667
475,42.666666666666664,-445.8666666666667,-384.0
476,51.2,-437.3333333333333,-371.2
477,61.86666666666667,-437.3333333333333,-369.06666666666666
478,78.93333333333334,-437.3333333333333,-375.46666666666664
479,93.86666666666666,-424.5333333333333,-377.6
480,100.26666666666667,-418.1333333333333,-394.6666666666667
481,113.06666666666666,-407.46666666666664,-411.73333333333335
482,110.93333333333334,-405.3333333333333,-413.8666666666667
483,123.73333333333333,-405.3333333333333,-439.46666666666664
484,113.06666666666666,-398.93333333333334,-458.6666666666667
485,115.2,-381.8666666666667,-471.46666666666664
486,115.2,-369.06666666666666,-482.1333333333333
487,115.2,-356.26666666666665,-505.59999999999997
488,102.4,-339.2,-507.73333333333335
489,87.46666666666667,-332.8,-509.8666666666667
490,74.66666666666667,-330.6666666666667,-509.8666666666667
491,57.6,-341.3333333333333,-494.93333333333334
492,38.4,-332.8,-488.5333333333333
493,14.933333333333334,-313.6,-471.46666666666664
494,2.1333333333333333,-309.3333333333333,-475.73333333333335
495,-23.466666666666665,-294.4,-475.73333333333335
496,-21.333333333333332,-283.73333333333335,-456.5333333333333
497,-46.93333333333333,-275.2,-456.5333333333333
498,-72.53333333333333,-275.2,-448.0
499,-102.4,-268.8,-437.3333333333333
500,-128.0,-270.93333333333334,-435.2
501,-136.53333333333333,-270.93333333333334,-424.5333333333333
502,-151.46666666666667,-270.93333333333334,-418.1333333333333
503,-160.0,-277.3333333333333,-405.3333333333333
504,-149.33333333333334,-281.6,-405.3333333333333
505,-153.6,-283.73333333333335,-401.06666666666666
506,-142.93333333333334,-288.0,-394.6666666666667
507,-132.26666666666665,-298.6666666666667,-384.0
508,-125.86666666666666,-294.4,-384.0
509,-106.66666666666667,-302.93333333333334,-388.26666666666665
510,-89.6,-302.93333333333334,-392.5333333333333
511,-72.53333333333333,-307.2,-401.06666666666666
512,-57.6,-309.3333333333333,-398.93333333333334
513,-40.53333333333333,-311.46666666666664,-394.6666666666667
514,-14.933333333333334,-311.46666666666664,-403.2
515,-8.533333333333333,-317.8666666666667,-403.2
516,-2.1333333333333333,-334.93333333333334,-396.8
517,4.266666666666667,-349.8666666666667,-394.6666666666667
518,4.266666666666667,-345.6,-401.06666666666666
519,0.0,-345.6,-398.93333333333334
520,0.0,-356.26666666666665,-405.3333333333333
521,-6.4,-366.93333333333334,-411.73333333333335
522,-8.533333333333333,-369.06666666666666,-418.1333333333333
523,-10.666666666666666,-381.8666666666667,-416.0
524,-21.333333333333332,-384.0,-416.0
525,-23.466666666666665,-384.0,-413.8666666666667
526,-19.2,-384.0,-420.26666666666665
527,-36.266666666666666,-386.1333333333333,-422.4
528,-23.466666666666665,-381.8666666666667,-418.1333333333333
529,-21.333333333333332,-375.46666666666664,-420.26666666666665
530,-23.466666666666665,-377.6,-418.1333333333333
531,-21.333333333333332,-375.46666666666664,-424.5333333333333
532,-12.8,-373.3333333333333,-420.26666666666665
533,-8.533333333333333,-373.3333333333333,-407.46666666666664
534,-14.933333333333334,-364.8,-407.46666666666664
535,-8.533333333333333,-362.6666666666667,-409.6
536,-8.533333333333333,-356.26666666666665,-403.2
537,-8.533333333333333,-354.1333333333333,-398.93333333333334
538,-19.2,-358.4,-409.6
539,-14.933333333333334,-349.8666666666667,-394.6666666666667
540,-10.666666666666666,-343.46666666666664,-394.6666666666667
541,-10.666666666666666,-341.3333333333333,-390.4
542,-21.333333333333332,-334.93333333333334,-386.1333333333333
543,-27.733333333333334,-328.5333333333333,-384.0
544,-23.466666666666665,-326.4,-375.46666666666664
545,-29.866666666666667,-326.4,-369.06666666666666
546,-32.0,-328.5333333333333,-360.5333333333333
547,-38.4,-332.8,-356.26666666666665
548,-42.666666666666664,-337.06666666666666,-356.26666666666665
549,-51.2,-341.3333333333333,-356.26666666666665
550,-49.06666666666666,-337.06666666666666,-354.1333333333333
551,-59.733333333333334,-343.46666666666664,-356.26666666666665
552,-59.733333333333334,-345.6,-347.73333333333335
553,-66.13333333333333,-356.26666666666665,-347.73333333333335
554,-61.86666666666667,-352.0,-347.73333333333335
555,-66.13333333333333,-358.4,-347.73333333333335
556,-66.13333333333333,-366.93333333333334,-347.73333333333335
557,-68.26666666666667,-366.93333333333334,-349.8666666666667
558,-61.86666666666667,-373.3333333333333,-343.46666666666664
559,-68.26666666666667,-369.06666666666666,-352.0
560,-70.4,-375.46666666666664,-369.06666666666666
561,-49.06666666666666,-373.3333333333333,-354.1333333333333
562,-51.2,-371.2,-349.8666666666667
563,-53.333333333333336,-369.06666666666666,-343.46666666666664
564,-51.2,-364.8,-328.5333333333333
565,-53.333333333333336,-364.8,-326.4
566,-53.333333333333336,-366.93333333333334,-320.0
567,-46.93333333333333,-373.3333333333333,-315.73333333333335
568,-49.06666666666666,-364.8,-302.93333333333334
569,-42.666666666666664,-360.5333333333333,-320.0
570,-40.53333333333333,-364.8,-305.06666666666666
571,-49.06666666666666,-366.93333333333334,-277.3333333333333
572,-46.93333333333333,-362.6666666666667,-294.4
573,-34.13333333333333,-356.26666666666665,-296.5333333333333
574,-34.13333333333333,-358.4,-296.5333333333333
575,-32.0,-358.4,-298.6666666666667
576,-21.333333333333332,-362.6666666666667,-302.93333333333334
577,-19.2,-360.5333333333333,-302.93333333333334
578,-10.666666666666666,-366.93333333333334,-307.2
579,-8.533333333333333,-373.3333333333333,-309.3333333333333
580,-2.1333333333333333,-384.0,-311.46666666666664
581,12.8,-384.0,-317.8666666666667
582,0.0,-388.26666666666665,-311.46666666666664
583,10.666666666666666,-394.6666666666667,-315.73333333333335
584,-4.266666666666667,-396.8,-326.4
585,-10.666666666666666,-392.5333333333333,-328.5333333333333
586,-23.466666666666665,-396.8,-322.1333333333333
587,-34.13333333333333,-401.06666666666666,-322.1333333333333
588,-55.46666666666667,-394.6666666666667,-334.93333333333334
589,-61.86666666666667,-392.5333333333333,-334.93333333333334
590,-64.0,-392.5333333333333,-343.46666666666664
591,-72.53333333333333,-392.5333333333333,-354.1333333333333
592,-81.06666666666666,-392.5333333333333,-356.26666666666665
593,-57.6,-386.1333333333333,-356.26666666666665
594,-74.66666666666667,-398.93333333333334,-358.4
595,-72.53333333333333,-407.46666666666664,-345.6
596,-57.6,-422.4,-354.1333333333333
597,-53.333333333333336,-426.6666666666667,-347.73333333333335
598,-40.53333333333333,-437.3333333333333,-343.46666666666664
599,-27.733333333333334,-452.26666666666665,-345.6
600,-14.933333333333334,-465.06666666666666,-354.1333333333333
601,4.266666666666667,-462.93333333333334,-352.0
602,-2.1333333333333333,-462.93333333333334,-364.8
603,8.533333333333333,-465.06666666666666,-377.6
604,19.2,-448.0,-398.93333333333334
605,8.533333333333333,-441.59999999999997,-388.26666666666665
606,12.8,-428.8,-390.4
607,14.933333333333334,-426.6666666666667,-390.4
608,17.066666666666666,-420.26666666666665,-396.8
609,6.4,-416.0,-379.73333333333335
610,-6.4,-413.8666666666667,-379.73333333333335
611,-19.2,-416.0,-369.06666666666666
612,-29.866666666666667,-422.4,-358.4
613,-57.6,-418.1333333333333,-349.8666666666667
614,-74.66666666666667,-426.6666666666667,-339.2
615,-93.86666666666666,-433.06666666666666,-328.5333333333333
616,-96.0,-433.06666666666666,-330.6666666666667
617,-102.4,-435.2,-311.46666666666664
618,-110.93333333333334,-435.2,-315.73333333333335
619,-102.4,-435.2,-324.26666666666665
620,-106.66666666666667,-437.3333333333333,-334.93333333333334
621,-104.53333333333333,-422.4,-352.0
622,-96.0,-409.6,-381.8666666666667
623,-76.8,-411.73333333333335,-407.46666666666664
624,-46.93333333333333,-407.46666666666664,-420.26666666666665
625,-34.13333333333333,-418.1333333333333,-430.93333333333334
626,-23.466666666666665,-428.8,-424.5333333333333
627,-23.466666666666665,-448.0,-418.1333333333333
628,-34.13333333333333,-462.93333333333334,-418.1333333333333
629,-59.733333333333334,-482.1333333333333,-409.6
630,-78.93333333333334,-484.26666666666665,-413.8666666666667
631,-104.53333333333333,-484.26666666666665,-424.5333333333333
632,-130.13333333333333,-475.73333333333335,-424.5333333333333
633,-149.33333333333334,-465.06666666666666,-433.06666666666666
634,-162.13333333333333,-458.6666666666667,-443.73333333333335
635,-170.66666666666666,-458.6666666666667,-443.73333333333335
636,-174.93333333333334,-482.1333333333333,-452.26666666666665
637,-172.8,-471.46666666666664,-460.8
638,-179.2,-454.4,-469.3333333333333
639,-185.6,-441.59999999999997,-477.8666666666667
640,-185.6,-422.4,-503.46666666666664
641,-187.73333333333332,-407.46666666666664,-524.8
642,-177.06666666666666,-396.8,-533.3333333333334
643,-168.53333333333333,-377.6,-544.0
644,-147.2,-373.3333333333333,-548.2666666666667
645,-123.73333333333333,-369.06666666666666,-535.4666666666667
646,-106.66666666666667,-377.6,-512.0
647,-108.8,-366.93333333333334,-499.2
648,-98.13333333333333,-362.6666666666667,-490.6666666666667
649,-91.73333333333333,-341.3333333333333,-484.26666666666665
650,-74.66666666666667,-324.26666666666665,-480.0
651,-64.0,-290.1333333333333,-475.73333333333335
652,-49.06666666666666,-256.0,-473.59999999999997
653,-25.6,-234.66666666666666,-480.0
654,-14.933333333333334,-211.2,-473.59999999999997
655,4.266666666666667,-192.0,-475.73333333333335
656,14.933333333333334,-185.6,-475.73333333333335
657,55.46666666666667,-185.6,-462.93333333333334
658,68.26666666666667,-194.13333333333333,-456.5333333333333
659,72.53333333333333,-189.86666666666667,-448.0
660,72.53333333333333,-202.66666666666666,-445.8666666666667
661,74.66666666666667,-213.33333333333334,-445.8666666666667
662,64.0,-224.0,-430.93333333333334
663,53.333333333333336,-232.53333333333333,-437.3333333333333
664,14.933333333333334,-241.06666666666666,-435.2
665,-8.533333333333333,-249.6,-424.5333333333333
666,-51.2,-253.86666666666667,-430.93333333333334
667,-72.53333333333333,-262.4,-433.06666666666666
668,-91.73333333333333,-258.1333333333333,-437.3333333333333
669,-123.73333333333333,-275.2,-433.06666666666666
670,-132.26666666666665,-273.06666666666666,-439.46666666666664
671,-142.93333333333334,-285.8666666666667,-441.59999999999997
672,-151.46666666666667,-292.26666666666665,-441.59999999999997
673,-147.2,-309.3333333333333,-450.1333333333333
674,-147.2,-320.0,-454.4
675,-142.93333333333334,-332.8,-462.93333333333334
676,-134.4,-337.06666666666666,-465.06666666666666
677,-119.46666666666667,-328.5333333333333,-450.1333333333333
678,-98.13333333333333,-339.2,-445.8666666666667
679,-81.06666666666666,-343.46666666666664,-458.6666666666667
680,-64.0,-352.0,-456.5333333333333
681,-40.53333333333333,-356.26666666666665,-448.0
682,-19.2,-364.8,-452.26666666666665
683,-10.666666666666666,-364.8,-450.1333333333333
684,-2.1333333333333333,-364.8,-458.6666666666667
685,-4.266666666666667,-362.6666666666667,-448.0
686,8.533333333333333,-366.93333333333334,-450.1333333333333
687,10.666666666666666,-358.4,-454.4
688,19.2,-364.8,-452.26666666666665
689,17.066666666666666,-358.4,-433.06666666666666
690,21.333333333333332,-356.26666666666665,-420.26666666666665
691,29.866666666666667,-345.6,-411.73333333333335
692,4.266666666666667,-337.06666666666666,-405.3333333333333
693,8.533333333333333,-334.93333333333334,-390.4
694,2.1333333333333333,-324.26666666666665,-394.6666666666667
695,-4.266666666666667,-311.46666666666664,-390.4
696,-8.533333333333333,-305.06666666666666,-375.46666666666664
697,-6.4,-285.8666666666667,-384.0
698,-19.2,-283.73333333333335,-373.3333333333333
699,-19.2,-266.6666666666667,-364.8
700,-32.0,-268.8,-356.26666666666665
701,-14.933333333333334,-262.4,-366.93333333333334
702,-10.666666666666666,-253.86666666666667,-356.26666666666665
703,-23.466666666666665,-260.26666666666665,-354.1333333333333
704,-10.666666666666666,-268.8,-356.26666666666665
705,-10.666666666666666,-264.5333333333333,-364.8
706,-8.533333333333333,-273.06666666666666,-371.2
707,-8.533333333333333,-279.46666666666664,-371.2
708,-6.4,-290.1333333333333,-377.6
709,0.0,-290.1333333333333,-381.8666666666667
710,6.4,-305.06666666666666,-377.6
711,0.0,-311.46666666666664,-373.3333333333333
712,2.1333333333333333,-341.3333333333333,-366.93333333333334
713,6.4,-322.1333333333333,-394.6666666666667
714,12.8,-349.8666666666667,-364.8
715,6.4,-343.46666666666664,-356.26666666666665
716,0.0,-345.6,-352.0
717,2.1333333333333333,-354.1333333333333,-349.8666666666667
718,-2.1333333333333333,-358.4,-352.0
719,-2.1333333333333333,-360.5333333333333,-343.46666666666664
720,-25.6,-360.5333333333333,-330.6666666666667
721,-25.6,-360.5333333333333,-326.4
722,-29.866666666666667,-356.26666666666665,-320.0
723,-36.266666666666666,-373.3333333333333,-309.3333333333333
724,-38.4,-362.6666666666667,-311.46666666666664
725,-38.4,-358.4,-317.8666666666667
726,-42.666666666666664,-360.5333333333333,-311.46666666666664
727,-36.266666666666666,-354.1333333333333,-320.0
728,-44.8,-347.73333333333335,-328.5333333333333
729,-36.266666666666666,-352.0,-322.1333333333333
730,-29.866666666666667,-341.3333333333333,-334.93333333333334
731,-25.6,-352.0,-341.3333333333333
732,-19.2,-345.6,-349.8666666666667
733,-8.533333333333333,-343.46666666666664,-352.0
734,-4.266666666666667,-364.8,-345.6
735,8.533333333333333,-356.26666666666665,-356.26666666666665
736,21.333333333333332,-352.0,-343.46666666666664
737,34.13333333333333,-362.6666666666667,-339.2
738,51.2,-369.06666666666666,-330.6666666666667
739,49.06666666666666,-366.93333333333334,-341.3333333333333
740,64.0,-369.06666666666666,-341.3333333333333
741,76.8,-371.2,-332.8
742,72.53333333333333,-373.3333333333333,-334.93333333333334
743,81.06666666666666,-371.2,-337.06666666666666
744,89.6,-375.46666666666664,-349.8666666666667
745,83.2,-371.2,-362.6666666666667
746,87.46666666666667,-369.06666666666666,-364.8
747,83.2,-366.93333333333334,-373.3333333333333
748,81.06666666666666,-369.06666666666666,-381.8666666666667
749,78.93333333333334,-375.46666666666664,-373.3333333333333
750,81.06666666666666,-371.2,-377.6
751,57.6,-360.5333333333333,-384.0
752,46.93333333333333,-360.5333333333333,-390.4
753,14.933333333333334,-360.5333333333333,-369.06666666666666
754,-6.4,-352.0,-371.2
755,-17.066666666666666,-364.8,-371.2
756,-42.666666666666664,-371.2,-341.3333333333333
757,-51.2,-377.6,-356.26666666666665
758,-61.86666666666667,-377.6,-349.8666666666667
759,-76.8,-379.73333333333335,-343.46666666666664
760,-93.86666666666666,-375.46666666666664,-337.06666666666666
761,-106.66666666666667,-375.46666666666664,-339.2
762,-115.2,-364.8,-347.73333333333335
763,-115.2,-362.6666666666667,-352.0
764,-132.26666666666665,-347.73333333333335,-358.4
765,-125.86666666666666,-354.1333333333333,-369.06666666666666
766,-134.4,-345.6,-373.3333333333333
767,-130.13333333333333,-356.26666666666665,-373.3333333333333
768,-125.86666666666666,-347.73333333333335,-386.1333333333333
769,-110.93333333333334,-347.73333333333335,-392.5333333333333
770,-104.53333333333333,-358.4,-407.46666666666664
771,-96.0,-364.8,-409.6
772,-76.8,-375.46666666666664,-403.2
773,-68.26666666666667,-384.0,-390.4
774,-40.53333333333333,-390.4,-396.8
775,-32.0,-396.8,-386.1333333333333
776,-17.066666666666666,-409.6,-396.8
777,-10.666666666666666,-411.73333333333335,-396.8
778,4.266666666666667,-426.6666666666667,-377.6
779,10.666666666666666,-420.26666666666665,-401.06666666666666
780,21.333333333333332,-433.06666666666666,-396.8
781,40.53333333333333,-443.73333333333335,-403.2
782,53.333333333333336,-465.06666666666666,-398.93333333333334
783,64.0,-467.2,-394.6666666666667
784,72.53333333333333,-471.46666666666664,-405.3333333333333
785,70.4,-465.06666666666666,-396.8
786,59.733333333333334,-469.3333333333333,-398.93333333333334
787,68.26666666666667,-465.06666666666666,-403.2
788,59.733333333333334,-462.93333333333334,-407.46666666666664
789,46.93333333333333,-454.4,-420.26666666666665
790,44.8,-448.0,-424.5333333333333
791,21.333333333333332,-437.3333333333333,-428.8
792,0.0,-443.73333333333335,-433.06666666666666
793,-17.066666666666666,-445.8666666666667,-430.93333333333334
794,-23.466666666666665,-465.06666666666666,-422.4
795,-32.0,-480.0,-418.1333333333333
796,-51.2,-492.8,-420.26666666666665
797,-46.93333333333333,-509.8666666666667,-407.46666666666664
798,-64.0,-494.93333333333334,-405.3333333333333
799,-46.93333333333333,-494.93333333333334,-420.26666666666665
800,-34.13333333333333,-484.26666666666665,-424.5333333333333
801,-8.533333333333333,-460.8,-424.5333333333333
802,17.066666666666666,-435.2,-443.73333333333335
803,34.13333333333333,-416.0,-462.93333333333334
804,59.733333333333334,-388.26666666666665,-482.1333333333333
805,72.53333333333333,-358.4,-503.46666666666664
806,76.8,-332.8,-537.6
807,72.53333333333333,-320.0,-550.4
808,64.0,-317.8666666666667,-567.4666666666667
809,40.53333333333333,-347.73333333333335,-554.6666666666666
810,4.266666666666667,-358.4,-535.4666666666667
811,-6.4,-394.6666666666667,-499.2
812,-12.8,-418.1333333333333,-486.4
813,-17.066666666666666,-428.8,-471.46666666666664
814,-6.4,-409.6,-456.5333333333333
815,-6.4,-369.06666666666666,-437.3333333333333
816,2.1333333333333333,-341.3333333333333,-413.8666666666667
817,12.8,-309.3333333333333,-403.2
818,21.333333333333332,-268.8,-379.73333333333335
819,23.466666666666665,-219.73333333333332,-354.1333333333333
820,46.93333333333333,-187.73333333333332,-311.46666666666664
821,36.266666666666666,-147.2,-313.6
822,34.13333333333333,-134.4,-292.26666666666665
823,23.466666666666665,-110.93333333333334,-285.8666666666667
824,19.2,-108.8,-275.2
825,12.8,-104.53333333333333,-288.0
826,12.8,-108.8,-296.5333333333333
827,4.266666666666667,-115.2,-313.6
828,4.266666666666667,-138.66666666666666,-347.73333333333335
829,8.533333333333333,-153.6,-384.0
830,21.333333333333332,-174.93333333333334,-413.8666666666667
831,25.6,-192.0,-445.8666666666667
832,44.8,-189.86666666666667,-480.0
833,59.733333333333334,-187.73333333333332,-505.59999999999997
834,72.53333333333333,-185.6,-531.2
835,89.6,-185.6,-558.9333333333333
836,96.0,-194.13333333333333,-563.2
837,98.13333333333333,-198.4,-582.4
838,98.13333333333333,-202.66666666666666,-605.8666666666667
839,93.86666666666666,-202.66666666666666,-625.0666666666666
840,83.2,-198.4,-633.6
841,89.6,-194.13333333333333,-654.9333333333333
842,93.86666666666666,-198.4,-680.5333333333333
843,85.33333333333333,-213.33333333333334,-695.4666666666667
844,91.73333333333333,-219.73333333333332,-712.5333333333333
845,93.86666666666666,-213.33333333333334,-738.1333333333333
846,100.26666666666667,-211.2,-757.3333333333334
847,93.86666666666666,-213.33333333333334,-782.9333333333333
848,91.73333333333333,-221.86666666666667,-812.8
849,70.4,-217.6,-842.6666666666666
850,64.0,-209.06666666666666,-870.4
851,40.53333333333333,-189.86666666666667,-906.6666666666666
852,6.4,-177.06666666666666,-938.6666666666666
853,-4.266666666666667,-172.8,-951.4666666666667
854,-2.1333333333333333,-164.26666666666665,-964.2666666666667
855,4.266666666666667,-168.53333333333333,-970.6666666666666
856,25.6,-177.06666666666666,-968.5333333333333
857,40.53333333333333,-168.53333333333333,-957.8666666666667
858,59.733333333333334,-166.4,-938.6666666666666
859,72.53333333333333,-168.53333333333333,-915.1999999999999
860,72.53333333333333,-179.2,-876.8
861,76.8,-200.53333333333333,-829.8666666666667
862,55.46666666666667,-213.33333333333334,-765.8666666666667
863,42.666666666666664,-238.93333333333334,-676.2666666666667
864,38.4,-268.8,-590.9333333333333
865,-4.266666666666667,-317.8666666666667,-499.2
866,-27.733333333333334,-371.2,-401.06666666666666
867,-74.66666666666667,-398.93333333333334,-298.6666666666667
868,-108.8,-411.73333333333335,-194.13333333333333
869,-140.8,-409.6,-115.2
870,-153.6,-396.8,-14.933333333333334
871,-172.8,-356.26666666666665,68.26666666666667
872,-181.33333333333334,-288.0,121.6
873,-168.53333333333333,-219.73333333333332,170.66666666666666
874,-153.6,-153.6,196.26666666666665
875,-149.33333333333334,-59.733333333333334,196.26666666666665
876,-134.4,0.0,224.0
877,-87.46666666666667,70.4,202.66666666666666
878,-46.93333333333333,108.8,187.73333333333332
879,-4.266666666666667,134.4,174.93333333333334
880,8.533333333333333,136.53333333333333,153.6
881,44.8,132.26666666666665,140.8
882,57.6,83.2,108.8
883,78.93333333333334,40.53333333333333,89.6
884,87.46666666666667,0.0,38.4
885,81.06666666666666,-66.13333333333333,8.533333333333333
886,44.8,-128.0,-21.333333333333332
887,-8.533333333333333,-189.86666666666667,-38.4
888,-57.6,-241.06666666666666,-74.66666666666667
889,-98.13333333333333,-313.6,-87.46666666666667
890,-115.2,-379.73333333333335,-89.6
891,-113.06666666666666,-465.06666666666666,-102.4
892,-166.4,-424.5333333333333,-96.0
893,-93.86666666666666,-407.46666666666664,-98.13333333333333
894,-113.06666666666666,-403.2,-115.2
895,-32.0,-311.46666666666664,-140.8
896,-10.666666666666666,-247.46666666666667,-164.26666666666665
897,0.0,-93.86666666666666,-192.0
898,36.266666666666666,55.46666666666667,-230.4
899,46.93333333333333,317.8666666666667,-341.3333333333333
900,-64.0,629.3333333333334,-531.2
901,-140.8,891.7333333333333,-580.2666666666667
902,-228.26666666666665,996.2666666666667,-661.3333333333334
903,-418.1333333333333,1213.8666666666666,-1036.8
904,-392.5333333333333,1218.1333333333332,-1527.4666666666667
905,162.13333333333333,915.1999999999999,-1977.6
906,258.1333333333333,740.2666666666667,-1657.6
907,-138.66666666666666,590.9333333333333,-910.9333333333333
908,-311.46666666666664,567.4666666666667,-509.8666666666667
909,-379.73333333333335,554.6666666666666,-561.0666666666666
910,-339.2,501.3333333333333,-759.4666666666667
911,-281.6,484.26666666666665,-866.1333333333333
912,-113.06666666666666,439.46666666666664,-977.0666666666666
913,10.666666666666666,494.93333333333334,-1015.4666666666667
914,64.0,586.6666666666666,-989.8666666666667
915,4.266666666666667,629.3333333333334,-923.7333333333333
916,-10.666666666666666,627.2,-881.0666666666666
917,-53.333333333333336,614.4,-898.1333333333333
918,-87.46666666666667,614.4,-878.9333333333333
919,-117.33333333333333,595.2,-893.8666666666667
920,-145.06666666666666,573.8666666666667,-896.0
921,-202.66666666666666,505.59999999999997,-902.4
922,-245.33333333333334,405.3333333333333,-898.1333333333333
923,-300.8,311.46666666666664,-885.3333333333334
924,-384.0,219.73333333333332,-861.8666666666667
925,-428.8,168.53333333333333,-855.4666666666667
926,-492.8,125.86666666666666,-832.0
927,-539.7333333333333,100.26666666666667,-802.1333333333333
928,-514.1333333333333,115.2,-774.4
929,-475.73333333333335,113.06666666666666,-738.1333333333333
930,-439.46666666666664,113.06666666666666,-699.7333333333333
931,-394.6666666666667,117.33333333333333,-659.2
932,-339.2,123.73333333333333,-627.2
933,-307.2,132.26666666666665,-616.5333333333333
934,-279.46666666666664,138.66666666666666,-616.5333333333333
935,-245.33333333333334,155.73333333333332,-640.0
936,-198.4,164.26666666666665,-652.8
937,-155.73333333333332,179.2,-646.4
938,-110.93333333333334,179.2,-640.0
939,-76.8,172.8,-646.4
940,-32.0,162.13333333333333,-635.7333333333333
941,4.266666666666667,138.66666666666666,-610.1333333333333
942,23.466666666666665,110.93333333333334,-595.2
943,29.866666666666667,83.2,-582.4
944,27.733333333333334,78.93333333333334,-580.2666666666667
945,23.466666666666665,66.13333333333333,-567.4666666666667
946,19.2,59.733333333333334,-576.0
947,19.2,64.0,-567.4666666666667
948,19.2,64.0,-567.4666666666667
949,6.4,55.46666666666667,-571.7333333333333
950,-8.533333333333333,66.13333333333333,-593.0666666666666
951,-21.333333333333332,66.13333333333333,-605.8666666666667
952,-46.93333333333333,68.26666666666667,-622.9333333333333
953,-64.0,74.66666666666667,-627.2
954,-85.33333333333333,72.53333333333333,-637.8666666666667
955,-115.2,76.8,-648.5333333333333
956,-132.26666666666665,76.8,-646.4
957,-157.86666666666667,76.8,-633.6
958,-160.0,74.66666666666667,-622.9333333333333
959,-155.73333333333332,68.26666666666667,-622.9333333333333
960,-147.2,57.6,-603.7333333333333
961,-142.93333333333334,42.666666666666664,-593.0666666666666
962,-130.13333333333333,36.266666666666666,-576.0
963,-113.06666666666666,21.333333333333332,-561.0666666666666
964,-96.0,17.066666666666666,-558.9333333333333
965,-83.2,4.266666666666667,-558.9333333333333
966,-66.13333333333333,2.1333333333333333,-539.7333333333333
967,-57.6,0.0,-526.9333333333333
968,-53.333333333333336,0.0,-533.3333333333334
969,-46.93333333333333,4.266666666666667,-539.7333333333333
970,-49.06666666666666,10.666666666666666,-535.4666666666667
971,-51.2,4.266666666666667,-526.9333333333333
972,-44.8,4.266666666666667,-524.8
973,-36.266666666666666,2.1333333333333333,-526.9333333333333
974,-38.4,2.1333333333333333,-516.2666666666667
975,-40.53333333333333,0.0,-516.2666666666667
976,-38.4,-8.533333333333333,-509.8666666666667
977,-34.13333333333333,-19.2,-516.2666666666667
978,-38.4,-29.866666666666667,-520.5333333333333
979,-44.8,-36.266666666666666,-512.0
980,-40.53333333333333,-34.13333333333333,-514.1333333333333
981,-38.4,-32.0,-518.4
982,-46.93333333333333,-38.4,-512.0
983,-59.733333333333334,-38.4,-503.46666666666664
984,-53.333333333333336,-42.666666666666664,-501.3333333333333
985,-55.46666666666667,-40.53333333333333,-501.3333333333333
986,-46.93333333333333,-38.4,-490.6666666666667
987,-46.93333333333333,-40.53333333333333,-477.8666666666667
988,-46.93333333333333,-32.0,-482.1333333333333
989,-40.53333333333333,-38.4,-469.3333333333333
990,-38.4,-36.266666666666666,-456.5333333333333
991,-25.6,-38.4,-456.5333333333333
992,-25.6,-42.666666666666664,-448.0
993,-23.466666666666665,-44.8,-437.3333333333333
994,-12.8,-49.06666666666666,-430.93333333333334
995,-8.533333333333333,-59.733333333333334,-437.3333333333333
996,0.0,-74.66666666666667,-424.5333333333333
997,2.1333333333333333,-91.73333333333333,-420.26666666666665
998,14.933333333333334,-108.8,-398.93333333333334
999,27.733333333333334,-128.0,-384.0
1000,36.266666666666666,-128.0,-388.26666666666665
1001,36.266666666666666,-151.46666666666667,-386.1333333333333
1002,34.13333333333333,-155.73333333333332,-366.93333333333334
1003,17.066666666666666,-172.8,-377.6
1004,29.866666666666667,-170.66666666666666,-360.5333333333333
1005,36.266666666666666,-164.26666666666665,-369.06666666666666
1006,25.6,-153.6,-375.46666666666664
1007,29.866666666666667,-136.53333333333333,-381.8666666666667
1008,21.333333333333332,-132.26666666666665,-379.73333333333335
1009,19.2,-125.86666666666666,-394.6666666666667
1010,19.2,-117.33333333333333,-388.26666666666665
1011,19.2,-117.33333333333333,-390.4
1012,21.333333333333332,-125.86666666666666,-381.8666666666667
1013,19.2,-147.2,-388.26666666666665
1014,25.6,-162.13333333333333,-386.1333333333333
1015,23.466666666666665,-162.13333333333333,-390.4
1016,40.53333333333333,-170.66666666666666,-396.8
1017,36.266666666666666,-174.93333333333334,-411.73333333333335
1018,40.53333333333333,-166.4,-407.46666666666664
1019,40.53333333333333,-162.13333333333333,-418.1333333333333
1020,25.6,-166.4,-418.1333333333333
1021,17.066666666666666,-172.8,-416.0
1022,19.2,-187.73333333333332,-424.5333333333333
1023,0.0,-189.86666666666667,-409.6
1024,25.6,-202.66666666666666,-394.6666666666667
1025,32.0,-202.66666666666666,-381.8666666666667
1026,42.666666666666664,-198.4,-381.8666666666667
1027,49.06666666666666,-183.46666666666667,-375.46666666666664
1028,44.8,-168.53333333333333,-379.73333333333335
1029,38.4,-125.86666666666666,-398.93333333333334
1030,59.733333333333334,-40.53333333333333,-462.93333333333334
1031,64.0,29.866666666666667,-522.6666666666666
1032,55.46666666666667,100.26666666666667,-588.8
1033,44.8,217.6,-699.7333333333333
1034,36.266666666666666,341.3333333333333,-842.6666666666666
1035,46.93333333333333,349.8666666666667,-910.9333333333333
1036,36.266666666666666,232.53333333333333,-923.7333333333333
1037,42.666666666666664,87.46666666666667,-908.8
1038,42.666666666666664,-87.46666666666667,-838.4
1039,96.0,-174.93333333333334,-761.6
1040,181.33333333333334,-136.53333333333333,-678.4
1041,226.13333333333333,-49.06666666666666,-646.4
1042,266.6666666666667,0.0,-674.1333333333333
1043,309.3333333333333,64.0,-736.0
1044,285.8666666666667,100.26666666666667,-797.8666666666667
1045,200.53333333333333,113.06666666666666,-851.1999999999999
1046,123.73333333333333,83.2,-878.9333333333333
1047,53.333333333333336,49.06666666666666,-864.0
1048,-70.4,6.4,-821.3333333333334
1049,-164.26666666666665,-34.13333333333333,-829.8666666666667
1050,-253.86666666666667,-51.2,-827.7333333333333
1051,-288.0,-44.8,-825.6
1052,-330.6666666666667,-34.13333333333333,-842.6666666666666
1053,-349.8666666666667,4.266666666666667,-838.4
1054,-334.93333333333334,27.733333333333334,-829.8666666666667
1055,-322.1333333333333,55.46666666666667,-821.3333333333334
1056,-283.73333333333335,55.46666666666667,-804.2666666666667
1057,-236.79999999999998,55.46666666666667,-787.2
1058,-153.6,46.93333333333333,-757.3333333333334
1059,-104.53333333333333,10.666666666666666,-776.5333333333333
1060,-64.0,-4.266666666666667,-780.8
1061,-27.733333333333334,-14.933333333333334,-791.4666666666667
1062,-10.666666666666666,-32.0,-785.0666666666666
1063,6.4,-61.86666666666667,-776.5333333333333
1064,21.333333333333332,-102.4,-738.1333333333333
1065,21.333333333333332,-117.33333333333333,-721.0666666666666
1066,23.466666666666665,-145.06666666666666,-710.4
1067,42.666666666666664,-162.13333333333333,-708.2666666666667
1068,19.2,-172.8,-693.3333333333334
1069,19.2,-166.4,-680.5333333333333
1070,10.666666666666666,-155.73333333333332,-676.2666666666667
1071,12.8,-132.26666666666665,-663.4666666666667
1072,0.0,-115.2,-640.0
1073,-2.1333333333333333,-102.4,-620.8
1074,-6.4,-98.13333333333333,-595.2
1075,-12.8,-93.86666666666666,-584.5333333333333
1076,-21.333333333333332,-93.86666666666666,-565.3333333333334
1077,-25.6,-85.33333333333333,-541.8666666666667
1078,-34.13333333333333,-117.33333333333333,-537.6
1079,-34.13333333333333,-123.73333333333333,-529.0666666666666
1080,-36.266666666666666,-136.53333333333333,-520.5333333333333
1081,-40.53333333333333,-142.93333333333334,-520.5333333333333
1082,-34.13333333333333,-160.0,-507.73333333333335
1083,-42.666666666666664,-168.53333333333333,-505.59999999999997
1084,-32.0,-172.8,-503.46666666666664
1085,-36.266666666666666,-172.8,-499.2
1086,-21.333333333333332,-170.66666666666666,-488.5333333333333
1087,-21.333333333333332,-174.93333333333334,-486.4
1088,-6.4,-162.13333333333333,-490.6666666666667
1089,-32.0,-183.46666666666667,-456.5333333333333
1090,-42.666666666666664,-181.33333333333334,-473.59999999999997
1091,-42.666666666666664,-185.6,-480.0
1092,-44.8,-196.26666666666665,-462.93333333333334
1093,-55.46666666666667,-202.66666666666666,-460.8
1094,-61.86666666666667,-204.8,-456.5333333333333
1095,-68.26666666666667,-209.06666666666666,-450.1333333333333
1096,-83.2,-177.06666666666666,-441.59999999999997
1097,-78.93333333333334,-213.33333333333334,-437.3333333333333
1098,-85.33333333333333,-209.06666666666666,-433.06666666666666
1099,-98.13333333333333,-206.93333333333334,-426.6666666666667
1100,-108.8,-196.26666666666665,-433.06666666666666
1101,-104.53333333333333,-198.4,-426.6666666666667
1102,-104.53333333333333,-196.26666666666665,-411.73333333333335
1103,-106.66666666666667,-204.8,-403.2
1104,-76.8,-206.93333333333334,-390.4
1105,-110.93333333333334,-206.93333333333334,-384.0
1106,-89.6,-219.73333333333332,-375.46666666666664
1107,-98.13333333333333,-204.8,-388.26666666666665
1108,-91.73333333333333,-206.93333333333334,-362.6666666666667
1109,-83.2,-219.73333333333332,-358.4
1110,-78.93333333333334,-226.13333333333333,-360.5333333333333
1111,-68.26666666666667,-228.26666666666665,-341.3333333333333
1112,-59.733333333333334,-230.4,-337.06666666666666
1113,-59.733333333333334,-234.66666666666666,-330.6666666666667
1114,-55.46666666666667,-241.06666666666666,-328.5333333333333
1115,-44.8,-238.93333333333334,-326.4
1116,-49.06666666666666,-241.06666666666666,-317.8666666666667
1117,-44.8,-238.93333333333334,-330.6666666666667
1118,-40.53333333333333,-236.79999999999998,-320.0
1119,-49.06666666666666,-243.2,-313.6
1120,-49.06666666666666,-241.06666666666666,-322.1333333333333
1121,-10.666666666666666,-251.73333333333332,-298.6666666666667
1122,-55.46666666666667,-253.86666666666667,-315.73333333333335
1123,-44.8,-251.73333333333332,-313.6
1124,-46.93333333333333,-264.5333333333333,-317.8666666666667
1125,-40.53333333333333,-260.26666666666665,-315.73333333333335
1126,-46.93333333333333,-266.6666666666667,-313.6
1127,-38.4,-270.93333333333334,-326.4
1128,-27.733333333333334,-270.93333333333334,-320.0
1129,-25.6,-273.06666666666666,-320.0
1130,-14.933333333333334,-275.2,-305.06666666666666
1131,-12.8,-277.3333333333333,-315.73333333333335
1132,6.4,-279.46666666666664,-300.8
1133,-6.4,-277.3333333333333,-302.93333333333334
1134,-8.533333333333333,-277.3333333333333,-298.6666666666667
1135,-17.066666666666666,-273.06666666666666,-309.3333333333333
1136,-14.933333333333334,-281.6,-322.1333333333333
1137,-23.466666666666665,-288.0,-309.3333333333333
1138,-25.6,-296.5333333333333,-300.8
1139,-29.866666666666667,-298.6666666666667,-296.5333333333333
1140,-29.866666666666667,-313.6,-300.8
1141,-38.4,-309.3333333333333,-305.06666666666666
1142,-42.666666666666664,-309.3333333333333,-311.46666666666664
1143,-40.53333333333333,-324.26666666666665,-315.73333333333335
1144,-42.666666666666664,-322.1333333333333,-302.93333333333334
1145,-38.4,-330.6666666666667,-309.3333333333333
1146,-36.266666666666666,-337.06666666666666,-317.8666666666667
1147,-32.0,-341.3333333333333,-311.46666666666664
1148,-27.733333333333334,-354.1333333333333,-320.0
1149,-32.0,-349.8666666666667,-311.46666666666664
1150,-34.13333333333333,-360.5333333333333,-320.0
1151,-40.53333333333333,-366.93333333333334,-320.0
1152,-38.4,-364.8,-313.6
1153,-42.666666666666664,-360.5333333333333,-302.93333333333334
1154,-57.6,-373.3333333333333,-302.93333333333334
1155,-59.733333333333334,-364.8,-302.93333333333334
1156,-70.4,-369.06666666666666,-300.8
1157,-83.2,-373.3333333333333,-288.0
1158,-98.13333333333333,-379.73333333333335,-290.1333333333333
1159,-108.8,-381.8666666666667,-285.8666666666667
1160,-130.13333333333333,-384.0,-281.6
1161,-145.06666666666666,-381.8666666666667,-290.1333333333333
1162,-168.53333333333333,-362.6666666666667,-315.73333333333335
1163,-179.2,-328.5333333333333,-343.46666666666664
1164,-189.86666666666667,-290.1333333333333,-381.8666666666667
1165,-194.13333333333333,-258.1333333333333,-426.6666666666667
1166,-177.06666666666666,-215.46666666666667,-501.3333333333333
1167,-151.46666666666667,-164.26666666666665,-569.6
1168,-145.06666666666666,-136.53333333333333,-627.2
1169,-145.06666666666666,-121.6,-689.0666666666666
1170,-142.93333333333334,-128.0,-695.4666666666667
1171,-149.33333333333334,-174.93333333333334,-672.0
1172,-157.86666666666667,-253.86666666666667,-625.0666666666666
1173,-164.26666666666665,-307.2,-603.7333333333333
1174,-170.66666666666666,-422.4,-563.2
1175,-115.2,-477.8666666666667,-567.4666666666667
1176,-89.6,-486.4,-627.2
1177,-81.06666666666666,-437.3333333333333,-657.0666666666666
1178,-68.26666666666667,-384.0,-686.9333333333333
1179,-51.2,-307.2,-699.7333333333333
1180,-51.2,-236.79999999999998,-714.6666666666666
1181,-51.2,-187.73333333333332,-727.4666666666667
1182,-53.333333333333336,-187.73333333333332,-740.2666666666667
1183,-23.466666666666665,-174.93333333333334,-744.5333333333333
1184,-6.4,-204.8,-744.5333333333333
1185,4.266666666666667,-224.0,-736.0
1186,17.066666666666666,-258.1333333333333,-733.8666666666667
1187,4.266666666666667,-275.2,-740.2666666666667
1188,2.1333333333333333,-279.46666666666664,-746.6666666666666
1189,2.1333333333333333,-279.46666666666664,-770.1333333333333
1190,-4.266666666666667,-273.06666666666666,-785.0666666666666
1191,-14.933333333333334,-266.6666666666667,-780.8
1192,-53.333333333333336,-260.26666666666665,-780.8
1193,-70.4,-253.86666666666667,-765.8666666666667
1194,-115.2,-243.2,-770.1333333333333
1195,-138.66666666666666,-258.1333333333333,-753.0666666666666
1196,-166.4,-256.0,-740.2666666666667
1197,-179.2,-249.6,-710.4
1198,-183.46666666666667,-270.93333333333334,-686.9333333333333
1199,-179.2,-285.8666666666667,-652.8
1200,-172.8,-290.1333333333333,-620.8
1201,-164.26666666666665,-298.6666666666667,-593.0666666666666
1202,-160.0,-285.8666666666667,-573.8666666666667
1203,-142.93333333333334,-285.8666666666667,-556.8
1204,-142.93333333333334,-264.5333333333333,-548.2666666666667
1205,-140.8,-251.73333333333332,-529.0666666666666
1206,-136.53333333333333,-228.26666666666665,-520.5333333333333
1207,-106.66666666666667,-234.66666666666666,-518.4
1208,-106.66666666666667,-226.13333333333333,-494.93333333333334
1209,-76.8,-224.0,-473.59999999999997
1210,-66.13333333333333,-228.26666666666665,-458.6666666666667
1211,-44.8,-234.66666666666666,-435.2
1212,-23.466666666666665,-247.46666666666667,-422.4
1213,-10.666666666666666,-247.46666666666667,-416.0
1214,-2.1333333333333333,-251.73333333333332,-394.6666666666667
1215,8.533333333333333,-249.6,-392.5333333333333
1216,17.066666666666666,-249.6,-390.4
1217,25.6,-241.06666666666666,-377.6
1218,29.866666666666667,-224.0,-371.2
1219,53.333333333333336,-224.0,-362.6666666666667
1220,36.266666666666666,-202.66666666666666,-371.2
1221,34.13333333333333,-187.73333333333332,-371.2
1222,32.0,-172.8,-360.5333333333333
1223,27.733333333333334,-166.4,-354.1333333333333
1224,29.866666666666667,-168.53333333333333,-349.8666666666667
1225,23.466666666666665,-147.2,-337.06666666666666
1226,36.266666666666666,-164.26666666666665,-341.3333333333333
1227,17.066666666666666,-155.73333333333332,-330.6666666666667
1228,10.666666666666666,-153.6,-328.5333333333333
1229,6.4,-155.73333333333332,-332.8
1230,10.666666666666666,-153.6,-349.8666666666667
1231,6.4,-153.6,-347.73333333333335
1232,-4.266666666666667,-166.4,-347.73333333333335
1233,0.0,-179.2,-347.73333333333335
1234,-4.266666666666667,-187.73333333333332,-341.3333333333333
1235,6.4,-192.0,-322.1333333333333
1236,-2.1333333333333333,-211.2,-317.8666666666667
1237,8.533333333333333,-219.73333333333332,-317.8666666666667
1238,4.266666666666667,-226.13333333333333,-326.4
1239,4.266666666666667,-236.79999999999998,-322.1333333333333
1240,2.1333333333333333,-232.53333333333333,-343.46666666666664
1241,8.533333333333333,-236.79999999999998,-349.8666666666667
1242,4.266666666666667,-245.33333333333334,-352.0
1243,4.266666666666667,-256.0,-356.26666666666665
1244,4.266666666666667,-270.93333333333334,-356.26666666666665
1245,6.4,-285.8666666666667,-356.26666666666665
1246,8.533333333333333,-298.6666666666667,-364.8
1247,4.266666666666667,-313.6,-360.5333333333333
1248,0.0,-326.4,-371.2
1249,-6.4,-349.8666666666667,-375.46666666666664
1250,-8.533333333333333,-360.5333333333333,-373.3333333333333
1251,-10.666666666666666,-371.2,-379.73333333333335
1252,-17.066666666666666,-366.93333333333334,-379.73333333333335
1253,-19.2,-386.1333333333333,-375.46666666666664
1254,-21.333333333333332,-388.26666666666665,-362.6666666666667
1255,-10.666666666666666,-401.06666666666666,-362.6666666666667
1256,-21.333333333333332,-411.73333333333335,-356.26666666666665
1257,-23.466666666666665,-413.8666666666667,-352.0
1258,-19.2,-418.1333333333333,-341.3333333333333
1259,-19.2,-409.6,-349.8666666666667
1260,-23.466666666666665,-411.73333333333335,-330.6666666666667
1261,-29.866666666666667,-411.73333333333335,-330.6666666666667
1262,-36.266666666666666,-379.73333333333335,-349.8666666666667
1263,-32.0,-394.6666666666667,-330.6666666666667
1264,-23.466666666666665,-394.6666666666667,-326.4
1265,-25.6,-394.6666666666667,-313.6
1266,-14.933333333333334,-394.6666666666667,-320.0
1267,-8.533333333333333,-394.6666666666667,-311.46666666666664
1268,-6.4,-394.6666666666667,-311.46666666666664
1269,-6.4,-386.1333333333333,-300.8
1270,4.266666666666667,-379.73333333333335,-307.2
1271,12.8,-384.0,-302.93333333333334
1272,17.066666666666666,-379.73333333333335,-305.06666666666666
1273,32.0,-390.4,-320.0
1274,49.06666666666666,-373.3333333333333,-322.1333333333333
1275,66.13333333333333,-366.93333333333334,-332.8
1276,76.8,-352.0,-345.6
1277,85.33333333333333,-337.06666666666666,-373.3333333333333
1278,98.13333333333333,-328.5333333333333,-377.6
1279,100.26666666666667,-324.26666666666665,-364.8
1280,93.86666666666666,-330.6666666666667,-369.06666666666666
1281,98.13333333333333,-332.8,-360.5333333333333
1282,76.8,-345.6,-369.06666666666666
1283,72.53333333333333,-360.5333333333333,-373.3333333333333
1284,42.666666666666664,-366.93333333333334,-379.73333333333335
1285,46.93333333333333,-392.5333333333333,-354.1333333333333
1286,36.266666666666666,-416.0,-360.5333333333333
1287,23.466666666666665,-441.59999999999997,-362.6666666666667
1288,17.066666666666666,-471.46666666666664,-354.1333333333333
1289,4.266666666666667,-462.93333333333334,-347.73333333333335
1290,10.666666666666666,-509.8666666666667,-362.6666666666667
1291,12.8,-537.6,-349.8666666666667
1292,6.4,-552.5333333333333,-356.26666666666665
1293,10.666666666666666,-565.3333333333334,-347.73333333333335
1294,12.8,-578.1333333333333,-347.73333333333335
1295,19.2,-599.4666666666667,-343.46666666666664
1296,34.13333333333333,-593.0666666666666,-362.6666666666667
1297,51.2,-573.8666666666667,-403.2
1298,66.13333333333333,-529.0666666666666,-456.5333333333333
1299,49.06666666666666,-486.4,-507.73333333333335
1300,12.8,-428.8,-578.1333333333333
1301,-32.0,-405.3333333333333,-612.2666666666667
1302,-66.13333333333333,-428.8,-614.4
1303,-53.333333333333336,-460.8,-597.3333333333334
1304,-19.2,-482.1333333333333,-595.2
1305,36.266666666666666,-499.2,-620.8
1306,61.86666666666667,-471.46666666666664,-629.3333333333334
1307,66.13333333333333,-450.1333333333333,-633.6
1308,85.33333333333333,-458.6666666666667,-633.6
1309,110.93333333333334,-484.26666666666665,-605.8666666666667
1310,130.13333333333333,-490.6666666666667,-586.6666666666666
1311,170.66666666666666,-494.93333333333334,-584.5333333333333
1312,196.26666666666665,-471.46666666666664,-580.2666666666667
1313,196.26666666666665,-443.73333333333335,-597.3333333333334
1314,192.0,-416.0,-582.4
1315,168.53333333333333,-394.6666666666667,-571.7333333333333
1316,153.6,-366.93333333333334,-561.0666666666666
1317,134.4,-362.6666666666667,-541.8666666666667
1318,106.66666666666667,-347.73333333333335,-518.4
1319,74.66666666666667,-315.73333333333335,-512.0
1320,46.93333333333333,-294.4,-507.73333333333335
1321,21.333333333333332,-273.06666666666666,-494.93333333333334
1322,-8.533333333333333,-258.1333333333333,-492.8
1323,-49.06666666666666,-247.46666666666667,-486.4
1324,-93.86666666666666,-221.86666666666667,-475.73333333333335
1325,-125.86666666666666,-221.86666666666667,-454.4
1326,-145.06666666666666,-230.4,-433.06666666666666
1327,-136.53333333333333,-230.4,-426.6666666666667
1328,-174.93333333333334,-247.46666666666667,-411.73333333333335
1329,-179.2,-260.26666666666665,-388.26666666666665
1330,-185.6,-275.2,-375.46666666666664
1331,-181.33333333333334,-290.1333333333333,-366.93333333333334
1332,-168.53333333333333,-302.93333333333334,-366.93333333333334
1333,-151.46666666666667,-307.2,-384.0
1334,-125.86666666666666,-298.6666666666667,-398.93333333333334
1335,-91.73333333333333,-294.4,-418.1333333333333
1336,-72.53333333333333,-285.8666666666667,-426.6666666666667
1337,-51.2,-288.0,-448.0
1338,-29.866666666666667,-290.1333333333333,-460.8
1339,-10.666666666666666,-300.8,-465.06666666666666
1340,-8.533333333333333,-320.0,-456.5333333333333
1341,8.533333333333333,-334.93333333333334,-456.5333333333333
1342,14.933333333333334,-345.6,-445.8666666666667
1343,17.066666666666666,-360.5333333333333,-439.46666666666664
1344,25.6,-375.46666666666664,-443.73333333333335
1345,25.6,-375.46666666666664,-445.8666666666667
1346,27.733333333333334,-373.3333333333333,-448.0
1347,23.466666666666665,-373.3333333333333,-454.4
1348,27.733333333333334,-364.8,-448.0
1349,34.13333333333333,-354.1333333333333,-454.4
1350,32.0,-360.5333333333333,-445.8666666666667
1351,23.466666666666665,-356.26666666666665,-445.8666666666667
1352,14.933333333333334,-347.73333333333335,-433.06666666666666
1353,8.533333333333333,-349.8666666666667,-416.0
1354,-6.4,-345.6,-398.93333333333334
1355,-4.266666666666667,-345.6,-398.93333333333334
1356,-19.2,-341.3333333333333,-388.26666666666665
1357,-23.466666666666665,-324.26666666666665,-373.3333333333333
1358,-29.866666666666667,-315.73333333333335,-375.46666666666664
1359,-46.93333333333333,-298.6666666666667,-369.06666666666666
1360,-40.53333333333333,-288.0,-354.1333333333333
1361,-42.666666666666664,-296.5333333333333,-352.0
1362,-42.666666666666664,-298.6666666666667,-349.8666666666667
1363,-40.53333333333333,-294.4,-339.2
1364,-38.4,-300.8,-345.6
1365,-40.53333333333333,-298.6666666666667,-334.93333333333334
1366,-38.4,-290.1333333333333,-339.2
1367,-36.266666666666666,-305.06666666666666,-328.5333333333333
1368,-32.0,-292.26666666666665,-320.0
1369,-25.6,-296.5333333333333,-324.26666666666665
1370,-27.733333333333334,-275.2,-317.8666666666667
1371,-12.8,-298.6666666666667,-315.73333333333335
1372,-8.533333333333333,-298.6666666666667,-326.4
1373,-12.8,-292.26666666666665,-315.73333333333335
1374,-17.066666666666666,-298.6666666666667,-313.6
1375,-14.933333333333334,-305.06666666666666,-317.8666666666667
1376,-27.733333333333334,-296.5333333333333,-320.0
1377,-32.0,-307.2,-315.73333333333335
1378,-42.666666666666664,-296.5333333333333,-305.06666666666666
1379,-51.2,-305.06666666666666,-305.06666666666666
1380,-55.46666666666667,-311.46666666666664,-300.8
1381,-72.53333333333333,-322.1333333333333,-302.93333333333334
1382,-70.4,-326.4,-288.0
1383,-70.4,-334.93333333333334,-285.8666666666667
1384,-81.06666666666666,-349.8666666666667,-264.5333333333333
1385,-78.93333333333334,-360.5333333333333,-260.26666666666665
1386,-78.93333333333334,-366.93333333333334,-253.86666666666667
1387,-74.66666666666667,-384.0,-245.33333333333334
1388,-70.4,-384.0,-232.53333333333333
1389,-68.26666666666667,-390.4,-236.79999999999998
1390,-64.0,-388.26666666666665,-243.2
1391,-53.333333333333336,-384.0,-232.53333333333333
1392,-44.8,-375.46666666666664,-243.2
1393,-32.0,-369.06666666666666,-241.06666666666666
1394,-12.8,-362.6666666666667,-238.93333333333334
1395,-6.4,-360.5333333333333,-241.06666666666666
1396,6.4,-345.6,-241.06666666666666
1397,8.533333333333333,-347.73333333333335,-247.46666666666667
1398,17.066666666666666,-341.3333333333333,-249.6
1399,27.733333333333334,-339.2,-245.33333333333334
1400,23.466666666666665,-328.5333333333333,-262.4
1401,12.8,-324.26666666666665,-270.93333333333334
1402,0.0,-328.5333333333333,-283.73333333333335
1403,-17.066666666666666,-343.46666666666664,-292.26666666666665
1404,-17.066666666666666,-330.6666666666667,-302.93333333333334
1405,-38.4,-345.6,-313.6
1406,-51.2,-345.6,-315.73333333333335
1407,-66.13333333333333,-354.1333333333333,-328.5333333333333
1408,-68.26666666666667,-377.6,-337.06666666666666
1409,-74.66666666666667,-398.93333333333334,-341.3333333333333
1410,-70.4,-418.1333333333333,-341.3333333333333
1411,-72.53333333333333,-435.2,-343.46666666666664
1412,-61.86666666666667,-467.2,-349.8666666666667
1413,-51.2,-488.5333333333333,-347.73333333333335
1414,-49.06666666666666,-512.0,-358.4
1415,-36.266666666666666,-533.3333333333334,-371.2
1416,-34.13333333333333,-537.6,-375.46666666666664
1417,-36.266666666666666,-546.1333333333333,-390.4
1418,-32.0,-550.4,-394.6666666666667
1419,-40.53333333333333,-554.6666666666666,-396.8
1420,-42.666666666666664,-550.4,-396.8
1421,-57.6,-561.0666666666666,-362.6666666666667
1422,-70.4,-561.0666666666666,-358.4
1423,-89.6,-580.2666666666667,-324.26666666666665
1424,-100.26666666666667,-578.1333333333333,-292.26666666666665
1425,-119.46666666666667,-584.5333333333333,-273.06666666666666
1426,-121.6,-576.0,-288.0
1427,-138.66666666666666,-563.2,-281.6
1428,-132.26666666666665,-546.1333333333333,-298.6666666666667
1429,-119.46666666666667,-539.7333333333333,-326.4
1430,-104.53333333333333,-524.8,-341.3333333333333
1431,-76.8,-520.5333333333333,-371.2
1432,-46.93333333333333,-531.2,-381.8666666666667
1433,-17.066666666666666,-552.5333333333333,-388.26666666666665
1434,2.1333333333333333,-554.6666666666666,-379.73333333333335
1435,10.666666666666666,-554.6666666666666,-416.0
1436,-4.266666666666667,-516.2666666666667,-426.6666666666667
1437,-40.53333333333333,-488.5333333333333,-454.4
1438,-85.33333333333333,-465.06666666666666,-488.5333333333333
1439,-134.4,-456.5333333333333,-494.93333333333334
1440,-166.4,-458.6666666666667,-499.2
1441,-206.93333333333334,-450.1333333333333,-499.2
1442,-238.93333333333334,-448.0,-490.6666666666667
1443,-247.46666666666667,-450.1333333333333,-512.0
1444,-260.26666666666665,-448.0,-488.5333333333333
1445,-270.93333333333334,-437.3333333333333,-499.2
1446,-300.8,-426.6666666666667,-497.06666666666666
1447,-296.5333333333333,-411.73333333333335,-509.8666666666667
1448,-288.0,-403.2,-518.4
1449,-268.8,-375.46666666666664,-529.0666666666666
1450,-230.4,-347.73333333333335,-529.0666666666666
1451,-187.73333333333332,-326.4,-524.8
1452,-140.8,-309.3333333333333,-520.5333333333333
1453,-106.66666666666667,-296.5333333333333,-518.4
1454,-66.13333333333333,-296.5333333333333,-494.93333333333334
1455,-19.2,-288.0,-462.93333333333334
1456,17.066666666666666,-298.6666666666667,-454.4
1457,66.13333333333333,-283.73333333333335,-448.0
1458,108.8,-283.73333333333335,-433.06666666666666
1459,145.06666666666666,-268.8,-443.73333333333335
1460,174.93333333333334,-266.6666666666667,-437.3333333333333
1461,198.4,-275.2,-430.93333333333334
1462,198.4,-273.06666666666666,-441.59999999999997
1463,209.06666666666666,-279.46666666666664,-430.93333333333334
1464,202.66666666666666,-305.06666666666666,-426.6666666666667
1465,192.0,-324.26666666666665,-433.06666666666666
1466,172.8,-339.2,-424.5333333333333
1467,138.66666666666666,-341.3333333333333,-422.4
1468,104.53333333333333,-364.8,-422.4
1469,46.93333333333333,-366.93333333333334,-420.26666666666665
1470,-2.1333333333333333,-373.3333333333333,-424.5333333333333
1471,-38.4,-373.3333333333333,-428.8
1472,-76.8,-366.93333333333334,-433.06666666666666
1473,-117.33333333333333,-373.3333333333333,-441.59999999999997
1474,-145.06666666666666,-360.5333333333333,-445.8666666666667
1475,-166.4,-358.4,-441.59999999999997
1476,-183.46666666666667,-366.93333333333334,-430.93333333333334
1477,-185.6,-362.6666666666667,-411.73333333333335
1478,-192.0,-352.0,-398.93333333333334
1479,-179.2,-358.4,-384.0
1480,-183.46666666666667,-347.73333333333335,-369.06666666666666
1481,-168.53333333333333,-347.73333333333335,-362.6666666666667
1482,-149.33333333333334,-339.2,-356.26666666666665
1483,-138.66666666666666,-332.8,-358.4
1484,-106.66666666666667,-332.8,-362.6666666666667
1485,-83.2,-347.73333333333335,-360.5333333333333
1486,-64.0,-345.6,-362.6666666666667
1487,-36.266666666666666,-358.4,-362.6666666666667
1488,-19.2,-364.8,-369.06666666666666
1489,4.266666666666667,-375.46666666666664,-362.6666666666667
1490,0.0,-384.0,-379.73333333333335
1491,14.933333333333334,-390.4,-377.6
1492,27.733333333333334,-398.93333333333334,-388.26666666666665
1493,34.13333333333333,-388.26666666666665,-384.0
1494,36.266666666666666,-386.1333333333333,-377.6
1495,32.0,-377.6,-377.6
1496,40.53333333333333,-381.8666666666667,-375.46666666666664
1497,42.666666666666664,-369.06666666666666,-371.2
1498,40.53333333333333,-369.06666666666666,-369.06666666666666
1499,34.13333333333333,-349.8666666666667,-362.6666666666667
1500,21.333333333333332,-354.1333333333333,-345.6
1501,38.4,-360.5333333333333,-332.8
1502,19.2,-349.8666666666667,-324.26666666666665
1503,-2.1333333333333333,-337.06666666666666,-322.1333333333333
1504,2.1333333333333333,-339.2,-313.6
1505,-6.4,-330.6666666666667,-317.8666666666667
1506,-6.4,-324.26666666666665,-313.6
1507,-8.533333333333333,-311.46666666666664,-311.46666666666664
1508,-10.666666666666666,-305.06666666666666,-307.2
1509,-2.1333333333333333,-309.3333333333333,-324.26666666666665
1510,-8.533333333333333,-307.2,-317.8666666666667
1511,-12.8,-305.06666666666666,-317.8666666666667
1512,-10.666666666666666,-309.3333333333333,-326.4
1513,4.266666666666667,-320.0,-311.46666666666664
1514,12.8,-334.93333333333334,-294.4
1515,19.2,-347.73333333333335,-292.26666666666665
1516,34.13333333333333,-356.26666666666665,-292.26666666666665
1517,34.13333333333333,-369.06666666666666,-294.4
1518,32.0,-364.8,-285.8666666666667
1519,25.6,-386.1333333333333,-285.8666666666667
1520,23.466666666666665,-390.4,-279.46666666666664
1521,8.533333333333333,-394.6666666666667,-277.3333333333333
1522,-2.1333333333333333,-407.46666666666664,-266.6666666666667
1523,-10.666666666666666,-405.3333333333333,-273.06666666666666
1524,-21.333333333333332,-409.6,-266.6666666666667
1525,-29.866666666666667,-422.4,-262.4
1526,-40.53333333333333,-422.4,-243.2
1527,-53.333333333333336,-428.8,-247.46666666666667
1528,-61.86666666666667,-428.8,-234.66666666666666
1529,-61.86666666666667,-443.73333333333335,-234.66666666666666
1530,-64.0,-452.26666666666665,-219.73333333333332
1531,-66.13333333333333,-458.6666666666667,-219.73333333333332
1532,-55.46666666666667,-445.8666666666667,-219.73333333333332
1533,-44.8,-452.26666666666665,-213.33333333333334
1534,-21.333333333333332,-445.8666666666667,-228.26666666666665
1535,-17.066666666666666,-435.2,-249.6
1536,2.1333333333333333,-422.4,-268.8
1537,21.333333333333332,-413.8666666666667,-275.2
1538,36.266666666666666,-396.8,-279.46666666666664
1539,57.6,-394.6666666666667,-298.6666666666667
1540,59.733333333333334,-377.6,-305.06666666666666
1541,68.26666666666667,-379.73333333333335,-305.06666666666666
1542,78.93333333333334,-377.6,-307.2
1543,72.53333333333333,-377.6,-317.8666666666667
1544,64.0,-379.73333333333335,-309.3333333333333
1545,51.2,-373.3333333333333,-324.26666666666665
1546,38.4,-364.8,-326.4
1547,2.1333333333333333,-356.26666666666665,-339.2
1548,-17.066666666666666,-356.26666666666665,-343.46666666666664
1549,-44.8,-369.06666666666666,-341.3333333333333
1550,-70.4,-379.73333333333335,-332.8
1551,-81.06666666666666,-386.1333333333333,-343.46666666666664
1552,-91.73333333333333,-396.8,-345.6
1553,-98.13333333333333,-407.46666666666664,-347.73333333333335
1554,-93.86666666666666,-435.2,-341.3333333333333
1555,-89.6,-456.5333333333333,-324.26666666666665
1556,-83.2,-482.1333333333333,-320.0
1557,-55.46666666666667,-509.8666666666667,-288.0
1558,-46.93333333333333,-533.3333333333334,-275.2
1559,-34.13333333333333,-544.0,-268.8
1560,-21.333333333333332,-588.8,-266.6666666666667
1561,-27.733333333333334,-584.5333333333333,-258.1333333333333
1562,-29.866666666666667,-590.9333333333333,-266.6666666666667
1563,-25.6,-590.9333333333333,-266.6666666666667
1564,-25.6,-582.4,-283.73333333333335
1565,-19.2,-576.0,-288.0
1566,-12.8,-558.9333333333333,-279.46666666666664
1567,-34.13333333333333,-546.1333333333333,-285.8666666666667
1568,-36.266666666666666,-554.6666666666666,-281.6
1569,-38.4,-556.8,-266.6666666666667
1570,-29.866666666666667,-561.0666666666666,-281.6
1571,-23.466666666666665,-556.8,-273.06666666666666
1572,-12.8,-552.5333333333333,-285.8666666666667
1573,-21.333333333333332,-539.7333333333333,-307.2
1574,-25.6,-524.8,-328.5333333333333
1575,-49.06666666666666,-518.4,-326.4
1576,-66.13333333333333,-507.73333333333335,-315.73333333333335
1577,-64.0,-529.0666666666666,-320.0
1578,-68.26666666666667,-518.4,-302.93333333333334
1579,-59.733333333333334,-526.9333333333333,-305.06666666666666
1580,-46.93333333333333,-507.73333333333335,-320.0
1581,-32.0,-484.26666666666665,-341.3333333333333
1582,-23.466666666666665,-456.5333333333333,-379.73333333333335
1583,-10.666666666666666,-433.06666666666666,-405.3333333333333
1584,-4.266666666666667,-424.5333333333333,-439.46666666666664
1585,6.4,-398.93333333333334,-473.59999999999997
1586,10.666666666666666,-396.8,-497.06666666666666
1587,17.066666666666666,-405.3333333333333,-531.2
1588,32.0,-411.73333333333335,-533.3333333333334
1589,42.666666666666664,-424.5333333333333,-526.9333333333333
1590,46.93333333333333,-441.59999999999997,-537.6
1591,46.93333333333333,-437.3333333333333,-539.7333333333333
1592,42.666666666666664,-426.6666666666667,-539.7333333333333
1593,38.4,-420.26666666666665,-539.7333333333333
1594,46.93333333333333,-430.93333333333334,-512.0
1595,53.333333333333336,-413.8666666666667,-503.46666666666664
1596,59.733333333333334,-401.06666666666666,-482.1333333333333
1597,51.2,-373.3333333333333,-471.46666666666664
1598,46.93333333333333,-352.0,-441.59999999999997
1599,29.866666666666667,-322.1333333333333,-448.0
1600,6.4,-296.5333333333333,-413.8666666666667
1601,-21.333333333333332,-279.46666666666664,-405.3333333333333
1602,-49.06666666666666,-277.3333333333333,-379.73333333333335
1603,-83.2,-266.6666666666667,-356.26666666666665
1604,-119.46666666666667,-268.8,-343.46666666666664
1605,-162.13333333333333,-262.4,-341.3333333333333
1606,-194.13333333333333,-268.8,-330.6666666666667
1607,-215.46666666666667,-270.93333333333334,-328.5333333333333
1608,-236.79999999999998,-285.8666666666667,-334.93333333333334
1609,-245.33333333333334,-292.26666666666665,-343.46666666666664
1610,-258.1333333333333,-317.8666666666667,-356.26666666666665
1611,-256.0,-341.3333333333333,-352.0
1612,-241.06666666666666,-360.5333333333333,-364.8
1613,-230.4,-371.2,-375.46666666666664
1614,-200.53333333333333,-392.5333333333333,-388.26666666666665
1615,-160.0,-401.06666666666666,-396.8
1616,-140.8,-401.06666666666666,-407.46666666666664
1617,-100.26666666666667,-409.6,-424.5333333333333
1618,-66.13333333333333,-416.0,-445.8666666666667
1619,-36.266666666666666,-426.6666666666667,-448.0
1620,0.0,-437.3333333333333,-439.46666666666664
1621,32.0,-445.8666666666667,-454.4
1622,55.46666666666667,-441.59999999999997,-443.73333333333335
1623,89.6,-452.26666666666665,-439.46666666666664
1624,108.8,-452.26666666666665,-428.8
1625,110.93333333333334,-441.59999999999997,-430.93333333333334
1626,128.0,-435.2,-422.4
1627,128.0,-418.1333333333333,-416.0
1628,123.73333333333333,-407.46666666666664,-416.0
1629,102.4,-394.6666666666667,-407.46666666666664
1630,85.33333333333333,-394.6666666666667,-384.0
1631,57.6,-381.8666666666667,-394.6666666666667
1632,44.8,-398.93333333333334,-381.8666666666667
1633,8.533333333333333,-398.93333333333334,-369.06666666666666
1634,-10.666666666666666,-392.5333333333333,-369.06666666666666
1635,-36.266666666666666,-377.6,-377.6
1636,-51.2,-375.46666666666664,-371.2
1637,-61.86666666666667,-373.3333333333333,-360.5333333333333
1638,-78.93333333333334,-358.4,-375.46666666666664
1639,-83.2,-345.6,-352.0
1640,-93.86666666666666,-345.6,-352.0
1641,-98.13333333333333,-337.06666666666666,-349.8666666666667
1642,-110.93333333333334,-332.8,-349.8666666666667
1643,-100.26666666666667,-320.0,-337.06666666666666
1644,-113.06666666666666,-313.6,-337.06666666666666
1645,-106.66666666666667,-313.6,-345.6
1646,-104.53333333333333,-322.1333333333333,-337.06666666666666
1647,-100.26666666666667,-320.0,-330.6666666666667
1648,-93.86666666666666,-315.73333333333335,-330.6666666666667
1649,-89.6,-315.73333333333335,-324.26666666666665
1650,-81.06666666666666,-313.6,-320.0
1651,-91.73333333333333,-307.2,-328.5333333333333
1652,-87.46666666666667,-315.73333333333335,-330.6666666666667
1653,-83.2,-309.3333333333333,-322.1333333333333
1654,-81.06666666666666,-302.93333333333334,-332.8
1655,-81.06666666666666,-320.0,-330.6666666666667
1656,-78.93333333333334,-324.26666666666665,-330.6666666666667
1657,-76.8,-326.4,-339.2
1658,-70.4,-341.3333333333333,-337.06666666666666
1659,-70.4,-352.0,-334.93333333333334
1660,-55.46666666666667,-362.6666666666667,-345.6
1661,-51.2,-369.06666666666666,-349.8666666666667
1662,-42.666666666666664,-377.6,-345.6
1663,-42.666666666666664,-405.3333333333333,-347.73333333333335
1664,-42.666666666666664,-398.93333333333334,-343.46666666666664
1665,-29.866666666666667,-403.2,-339.2
1666,-25.6,-413.8666666666667,-330.6666666666667
1667,-25.6,-416.0,-341.3333333333333
1668,-19.2,-422.4,-330.6666666666667
1669,-17.066666666666666,-430.93333333333334,-324.26666666666665
1670,-23.466666666666665,-439.46666666666664,-334.93333333333334
1671,-19.2,-441.59999999999997,-330.6666666666667
1672,-17.066666666666666,-441.59999999999997,-320.0
1673,-23.466666666666665,-437.3333333333333,-324.26666666666665
1674,-21.333333333333332,-439.46666666666664,-322.1333333333333
1675,-21.333333333333332,-430.93333333333334,-317.8666666666667
1676,-25.6,-430.93333333333334,-305.06666666666666
1677,-17.066666666666666,-428.8,-300.8
1678,-23.466666666666665,-418.1333333333333,-309.3333333333333
1679,-17.066666666666666,-418.1333333333333,-300.8
1680,-27.733333333333334,-424.5333333333333,-292.26666666666665
1681,-19.2,-418.1333333333333,-300.8
1682,-19.2,-411.73333333333335,-288.0
1683,-19.2,-416.0,-283.73333333333335
1684,-27.733333333333334,-407.46666666666664,-290.1333333333333
1685,-10.666666666666666,-405.3333333333333,-307.2
1686,-32.0,-398.93333333333334,-288.0
1687,-32.0,-388.26666666666665,-292.26666666666665
1688,-44.8,-384.0,-294.4
1689,-44.8,-379.73333333333335,-300.8
1690,-44.8,-373.3333333333333,-309.3333333333333
1691,-59.733333333333334,-362.6666666666667,-317.8666666666667
1692,-59.733333333333334,-366.93333333333334,-320.0
1693,-64.0,-366.93333333333334,-322.1333333333333
1694,-59.733333333333334,-364.8,-324.26666666666665
1695,-59.733333333333334,-371.2,-322.1333333333333
1696,-53.333333333333336,-371.2,-320.0
1697,-57.6,-398.93333333333334,-315.73333333333335
1698,-42.666666666666664,-405.3333333333333,-307.2
1699,-25.6,-416.0,-307.2
1700,-14.933333333333334,-424.5333333333333,-307.2
1701,-6.4,-433.06666666666666,-320.0
1702,10.666666666666666,-435.2,-320.0
1703,21.333333333333332,-439.46666666666664,-345.6
1704,32.0,-445.8666666666667,-354.1333333333333
1705,38.4,-443.73333333333335,-349.8666666666667
1706,40.53333333333333,-439.46666666666664,-358.4
1707,51.2,-439.46666666666664,-379.73333333333335
1708,53.333333333333336,-445.8666666666667,-362.6666666666667
1709,51.2,-450.1333333333333,-362.6666666666667
1710,46.93333333333333,-458.6666666666667,-360.5333333333333
1711,44.8,-462.93333333333334,-354.1333333333333
1712,21.333333333333332,-471.46666666666664,-343.46666666666664
1713,17.066666666666666,-477.8666666666667,-337.06666666666666
1714,12.8,-486.4,-337.06666666666666
1715,-6.4,-488.5333333333333,-328.5333333333333
1716,-14.933333333333334,-490.6666666666667,-320.0
1717,-40.53333333333333,-492.8,-322.1333333333333
1718,-53.333333333333336,-497.06666666666666,-322.1333333333333
1719,-64.0,-492.8,-326.4
1720,-83.2,-492.8,-345.6
1721,-78.93333333333334,-482.1333333333333,-345.6
1722,-70.4,-486.4,-364.8
1723,-64.0,-488.5333333333333,-377.6
1724,-70.4,-501.3333333333333,-384.0
1725,-81.06666666666666,-516.2666666666667,-388.26666666666665
1726,-98.13333333333333,-512.0,-390.4
1727,-108.8,-499.2,-398.93333333333334
1728,-130.13333333333333,-492.8,-407.46666666666664
1729,-142.93333333333334,-454.4,-426.6666666666667
1730,-160.0,-471.46666666666664,-426.6666666666667
1731,-166.4,-477.8666666666667,-433.06666666666666
1732,-179.2,-484.26666666666665,-430.93333333333334
1733,-187.73333333333332,-492.8,-416.0
1734,-196.26666666666665,-509.8666666666667,-409.6
1735,-204.8,-503.46666666666664,-403.2
1736,-204.8,-503.46666666666664,-388.26666666666665
1737,-209.06666666666666,-501.3333333333333,-381.8666666666667
1738,-211.2,-484.26666666666665,-386.1333333333333
1739,-209.06666666666666,-473.59999999999997,-375.46666666666664
1740,-209.06666666666666,-452.26666666666665,-375.46666666666664
1741,-217.6,-448.0,-375.46666666666664
1742,-211.2,-437.3333333333333,-366.93333333333334
1743,-206.93333333333334,-411.73333333333335,-364.8
1744,-200.53333333333333,-394.6666666666667,-366.93333333333334
1745,-181.33333333333334,-384.0,-377.6
1746,-164.26666666666665,-356.26666666666665,-392.5333333333333
1747,-140.8,-334.93333333333334,-396.8
1748,-113.06666666666666,-324.26666666666665,-403.2
1749,-93.86666666666666,-305.06666666666666,-422.4
1750,-76.8,-288.0,-424.5333333333333
1751,-53.333333333333336,-298.6666666666667,-426.6666666666667
1752,-40.53333333333333,-277.3333333333333,-430.93333333333334
1753,-25.6,-273.06666666666666,-435.2
1754,-6.4,-268.8,-430.93333333333334
1755,6.4,-260.26666666666665,-433.06666666666666
1756,21.333333333333332,-258.1333333333333,-430.93333333333334
1757,27.733333333333334,-256.0,-422.4
1758,32.0,-258.1333333333333,-433.06666666666666
1759,38.4,-260.26666666666665,-420.26666666666665
1760,51.2,-268.8,-418.1333333333333
1761,34.13333333333333,-273.06666666666666,-405.3333333333333
1762,29.866666666666667,-279.46666666666664,-416.0
1763,19.2,-298.6666666666667,-416.0
1764,2.1333333333333333,-302.93333333333334,-409.6
1765,-8.533333333333333,-317.8666666666667,-416.0
1766,-23.466666666666665,-324.26666666666665,-418.1333333333333
1767,-44.8,-334.93333333333334,-413.8666666666667
1768,-70.4,-347.73333333333335,-426.6666666666667
1769,-74.66666666666667,-354.1333333333333,-426.6666666666667
1770,-96.0,-354.1333333333333,-435.2
1771,-106.66666666666667,-375.46666666666664,-437.3333333333333
1772,-115.2,-377.6,-454.4
1773,-115.2,-390.4,-439.46666666666664
1774,-115.2,-396.8,-441.59999999999997
1775,-119.46666666666667,-401.06666666666666,-448.0
1776,-117.33333333333333,-409.6,-441.59999999999997
1777,-110.93333333333334,-409.6,-428.8
1778,-100.26666666666667,-420.26666666666665,-430.93333333333334
1779,-96.0,-418.1333333333333,-445.8666666666667
1780,-96.0,-426.6666666666667,-445.8666666666667
1781,-91.73333333333333,-418.1333333333333,-439.46666666666664
1782,-78.93333333333334,-418.1333333333333,-430.93333333333334
1783,-87.46666666666667,-413.8666666666667,-437.3333333333333
1784,-74.66666666666667,-413.8666666666667,-430.93333333333334
1785,-76.8,-407.46666666666664,-426.6666666666667
1786,-59.733333333333334,-398.93333333333334,-426.6666666666667
1787,-57.6,-398.93333333333334,-426.6666666666667
1788,-49.06666666666666,-390.4,-418.1333333333333
1789,-40.53333333333333,-384.0,-416.0
1790,-29.866666666666667,-381.8666666666667,-413.8666666666667
1791,-23.466666666666665,-366.93333333333334,-416.0
1792,-17.066666666666666,-356.26666666666665,-411.73333333333335
1793,-10.666666666666666,-352.0,-392.5333333333333
1794,-21.333333333333332,-337.06666666666666,-381.8666666666667
1795,-6.4,-322.1333333333333,-386.1333333333333
1796,0.0,-322.1333333333333,-381.8666666666667
1797,2.1333333333333333,-322.1333333333333,-358.4
1798,8.533333333333333,-315.73333333333335,-356.26666666666665
1799,12.8,-305.06666666666666,-354.1333333333333
1800,17.066666666666666,-300.8,-347.73333333333335
1801,8.533333333333333,-296.5333333333333,-349.8666666666667
1802,10.666666666666666,-290.1333333333333,-339.2
1803,12.8,-296.5333333333333,-345.6
1804,19.2,-290.1333333333333,-354.1333333333333
1805,14.933333333333334,-290.1333333333333,-356.26666666666665
1806,17.066666666666666,-292.26666666666665,-345.6
1807,19.2,-298.6666666666667,-352.0
1808,29.866666666666667,-298.6666666666667,-354.1333333333333
1809,32.0,-307.2,-347.73333333333335
1810,32.0,-313.6,-347.73333333333335
1811,29.866666666666667,-317.8666666666667,-349.8666666666667
1812,36.266666666666666,-332.8,-358.4
1813,29.866666666666667,-341.3333333333333,-358.4
1814,27.733333333333334,-347.73333333333335,-354.1333333333333
1815,27.733333333333334,-366.93333333333334,-347.73333333333335
1816,27.733333333333334,-371.2,-345.6
1817,21.333333333333332,-375.46666666666664,-352.0
1818,25.6,-379.73333333333335,-354.1333333333333
1819,17.066666666666666,-394.6666666666667,-360.5333333333333
1820,14.933333333333334,-405.3333333333333,-349.8666666666667
1821,14.933333333333334,-405.3333333333333,-362.6666666666667
1822,2.1333333333333333,-416.0,-354.1333333333333
1823,2.1333333333333333,-420.26666666666665,-349.8666666666667
1824,-10.666666666666666,-437.3333333333333,-349.8666666666667
1825,-6.4,-433.06666666666666,-337.06666666666666
1826,-27.733333333333334,-450.1333333333333,-349.8666666666667
1827,-25.6,-437.3333333333333,-347.73333333333335
1828,-14.933333333333334,-441.59999999999997,-345.6
1829,-14.933333333333334,-439.46666666666664,-337.06666666666666
1830,-12.8,-435.2,-330.6666666666667
1831,-14.933333333333334,-439.46666666666664,-332.8
1832,-10.666666666666666,-435.2,-320.0
1833,-17.066666666666666,-424.5333333333333,-309.3333333333333
1834,-12.8,-433.06666666666666,-307.2
1835,-12.8,-424.5333333333333,-294.4
1836,-4.266666666666667,-411.73333333333335,-296.5333333333333
1837,-6.4,-396.8,-309.3333333333333
1838,2.1333333333333333,-398.93333333333334,-283.73333333333335
1839,8.533333333333333,-388.26666666666665,-283.73333333333335
1840,14.933333333333334,-386.1333333333333,-288.0
1841,14.933333333333334,-373.3333333333333,-283.73333333333335
1842,23.466666666666665,-371.2,-275.2
1843,34.13333333333333,-362.6666666666667,-277.3333333333333
1844,34.13333333333333,-354.1333333333333,-277.3333333333333
1845,40.53333333333333,-369.06666666666666,-273.06666666666666
1846,46.93333333333333,-360.5333333333333,-266.6666666666667
1847,46.93333333333333,-373.3333333333333,-262.4
1848,42.666666666666664,-384.0,-262.4
1849,44.8,-386.1333333333333,-264.5333333333333
1850,46.93333333333333,-396.8,-270.93333333333334
1851,40.53333333333333,-390.4,-279.46666666666664
1852,40.53333333333333,-396.8,-283.73333333333335
1853,36.266666666666666,-398.93333333333334,-296.5333333333333
1854,38.4,-401.06666666666666,-294.4
1855,34.13333333333333,-407.46666666666664,-296.5333333333333
1856,25.6,-409.6,-302.93333333333334
1857,21.333333333333332,-411.73333333333335,-307.2
1858,12.8,-416.0,-309.3333333333333
1859,2.1333333333333333,-426.6666666666667,-313.6
1860,0.0,-435.2,-311.46666666666664
1861,-4.266666666666667,-445.8666666666667,-313.6
1862,-8.533333333333333,-458.6666666666667,-320.0
1863,-8.533333333333333,-450.1333333333333,-317.8666666666667
1864,-10.666666666666666,-460.8,-328.5333333333333
1865,-17.066666666666666,-458.6666666666667,-334.93333333333334
1866,-23.466666666666665,-465.06666666666666,-341.3333333333333
1867,-10.666666666666666,-462.93333333333334,-341.3333333333333
1868,-8.533333333333333,-471.46666666666664,-343.46666666666664
1869,-4.266666666666667,-456.5333333333333,-347.73333333333335
1870,-10.666666666666666,-480.0,-328.5333333333333
1871,0.0,-473.59999999999997,-354.1333333333333
1872,4.266666666666667,-469.3333333333333,-345.6
1873,12.8,-473.59999999999997,-337.06666666666666
1874,19.2,-477.8666666666667,-334.93333333333334
1875,23.466666666666665,-484.26666666666665,-337.06666666666666
1876,21.333333333333332,-480.0,-339.2
1877,29.866666666666667,-477.8666666666667,-332.8
1878,23.466666666666665,-477.8666666666667,-324.26666666666665
1879,36.266666666666666,-482.1333333333333,-326.4
1880,32.0,-473.59999999999997,-324.26666666666665
1881,21.333333333333332,-471.46666666666664,-332.8
1882,23.466666666666665,-465.06666666666666,-320.0
1883,12.8,-467.2,-324.26666666666665
1884,12.8,-469.3333333333333,-313.6
1885,19.2,-467.2,-315.73333333333335
1886,12.8,-465.06666666666666,-313.6
1887,6.4,-458.6666666666667,-315.73333333333335
1888,-2.1333333333333333,-452.26666666666665,-315.73333333333335
1889,-8.533333333333333,-443.73333333333335,-328.5333333333333
1890,-34.13333333333333,-439.46666666666664,-345.6
1891,-42.666666666666664,-443.73333333333335,-337.06666666666666
1892,-55.46666666666667,-448.0,-324.26666666666665
1893,-55.46666666666667,-469.3333333333333,-326.4
1894,-59.733333333333334,-488.5333333333333,-307.2
1895,-44.8,-505.59999999999997,-296.5333333333333
1896,-38.4,-509.8666666666667,-288.0
1897,-27.733333333333334,-507.73333333333335,-292.26666666666665
1898,-10.666666666666666,-484.26666666666665,-307.2
1899,23.466666666666665,-480.0,-326.4
1900,44.8,-462.93333333333334,-328.5333333333333
1901,66.13333333333333,-454.4,-345.6
1902,78.93333333333334,-452.26666666666665,-364.8
1903,93.86666666666666,-443.73333333333335,-364.8
1904,110.93333333333334,-462.93333333333334,-386.1333333333333
1905,125.86666666666666,-469.3333333333333,-392.5333333333333
1906,125.86666666666666,-467.2,-403.2
1907,121.6,-460.8,-433.06666666666666
1908,117.33333333333333,-465.06666666666666,-437.3333333333333
1909,96.0,-477.8666666666667,-439.46666666666664
1910,83.2,-469.3333333333333,-435.2
1911,72.53333333333333,-494.93333333333334,-437.3333333333333
1912,70.4,-499.2,-441.59999999999997
1913,61.86666666666667,-497.06666666666666,-448.0
1914,55.46666666666667,-482.1333333333333,-458.6666666666667
1915,38.4,-473.59999999999997,-456.5333333333333
1916,21.333333333333332,-456.5333333333333,-462.93333333333334
1917,12.8,-452.26666666666665,-452.26666666666665
1918,-6.4,-433.06666666666666,-439.46666666666664
1919,-10.666666666666666,-426.6666666666667,-448.0
1920,-29.866666666666667,-416.0,-445.8666666666667
1921,-55.46666666666667,-403.2,-428.8
1922,-74.66666666666667,-386.1333333333333,-435.2
1923,-98.13333333333333,-369.06666666666666,-439.46666666666664
1924,-121.6,-345.6,-437.3333333333333
1925,-149.33333333333334,-317.8666666666667,-437.3333333333333
1926,-183.46666666666667,-298.6666666666667,-420.26666666666665
1927,-206.93333333333334,-292.26666666666665,-403.2
1928,-230.4,-290.1333333333333,-401.06666666666666
1929,-243.2,-279.46666666666664,-375.46666666666664
1930,-258.1333333333333,-281.6,-360.5333333333333
1931,-260.26666666666665,-279.46666666666664,-354.1333333333333
1932,-253.86666666666667,-283.73333333333335,-334.93333333333334
1933,-251.73333333333332,-283.73333333333335,-330.6666666666667
1934,-215.46666666666667,-290.1333333333333,-324.26666666666665
1935,-185.6,-285.8666666666667,-324.26666666666665
1936,-147.2,-296.5333333333333,-309.3333333333333
1937,-106.66666666666667,-305.06666666666666,-320.0
1938,-68.26666666666667,-320.0,-341.3333333333333
1939,-23.466666666666665,-326.4,-347.73333333333335
1940,8.533333333333333,-345.6,-356.26666666666665
1941,27.733333333333334,-364.8,-358.4
1942,46.93333333333333,-377.6,-364.8
1943,59.733333333333334,-390.4,-388.26666666666665
1944,76.8,-409.6,-392.5333333333333
1945,85.33333333333333,-411.73333333333335,-396.8
1946,96.0,-416.0,-405.3333333333333
1947,96.0,-422.4,-403.2
1948,87.46666666666667,-428.8,-411.73333333333335
1949,81.06666666666666,-428.8,-409.6
1950,66.13333333333333,-437.3333333333333,-413.8666666666667
1951,55.46666666666667,-443.73333333333335,-405.3333333333333
1952,34.13333333333333,-433.06666666666666,-401.06666666666666
1953,21.333333333333332,-435.2,-403.2
1954,6.4,-428.8,-401.06666666666666
1955,-6.4,-418.1333333333333,-409.6
1956,-12.8,-418.1333333333333,-409.6
1957,-6.4,-411.73333333333335,-398.93333333333334
1958,-27.733333333333334,-411.73333333333335,-407.46666666666664
1959,-27.733333333333334,-411.73333333333335,-394.6666666666667
1960,-27.733333333333334,-413.8666666666667,-390.4
1961,-25.6,-418.1333333333333,-369.06666666666666
1962,-27.733333333333334,-416.0,-364.8
1963,-23.466666666666665,-409.6,-362.6666666666667
1964,-17.066666666666666,-407.46666666666664,-345.6
1965,-19.2,-405.3333333333333,-337.06666666666666
1966,-14.933333333333334,-396.8,-347.73333333333335
1967,-17.066666666666666,-375.46666666666664,-337.06666666666666
1968,-17.066666666666666,-377.6,-334.93333333333334
1969,-29.866666666666667,-354.1333333333333,-317.8666666666667
1970,-34.13333333333333,-349.8666666666667,-313.6
1971,-36.266666666666666,-345.6,-315.73333333333335
1972,-46.93333333333333,-337.06666666666666,-300.8
1973,-55.46666666666667,-341.3333333333333,-296.5333333333333
1974,-51.2,-343.46666666666664,-288.0
1975,-61.86666666666667,-334.93333333333334,-283.73333333333335
1976,-70.4,-343.46666666666664,-277.3333333333333
1977,-68.26666666666667,-341.3333333333333,-277.3333333333333
1978,-64.0,-345.6,-283.73333333333335
1979,-68.26666666666667,-345.6,-292.26666666666665
1980,-53.333333333333336,-356.26666666666665,-288.0
1981,-34.13333333333333,-360.5333333333333,-285.8666666666667
1982,-25.6,-362.6666666666667,-277.3333333333333
1983,-17.066666666666666,-377.6,-281.6
1984,-10.666666666666666,-388.26666666666665,-288.0
1985,-10.666666666666666,-388.26666666666665,-290.1333333333333
1986,-12.8,-390.4,-294.4
1987,-17.066666666666666,-390.4,-305.06666666666666
1988,-14.933333333333334,-392.5333333333333,-313.6
1989,-19.2,-390.4,-311.46666666666664
1990,-25.6,-392.5333333333333,-313.6
1991,-32.0,-384.0,-307.2
1992,-27.733333333333334,-386.1333333333333,-307.2
1993,-34.13333333333333,-396.8,-313.6
1994,-25.6,-401.06666666666666,-309.3333333333333
1995,-27.733333333333334,-405.3333333333333,-305.06666666666666
1996,-21.333333333333332,-418.1333333333333,-296.5333333333333
1997,-21.333333333333332,-428.8,-285.8666666666667
1998,-19.2,-437.3333333333333,-283.73333333333335
1999,-8.533333333333333,-437.3333333333333,-279.46666666666664
2000,2.1333333333333333,-448.0,-268.8
2001,12.8,-445.8666666666667,-270.93333333333334
2002,10.666666666666666,-441.59999999999997,-270.93333333333334
2003,10.666666666666666,-439.46666666666664,-273.06666666666666
2004,10.666666666666666,-450.1333333333333,-270.93333333333334
2005,12.8,-448.0,-275.2
2006,6.4,-433.06666666666666,-268.8
2007,4.266666666666667,-445.8666666666667,-275.2
2008,6.4,-450.1333333333333,-270.93333333333334
2009,6.4,-448.0,-283.73333333333335
2010,-4.266666666666667,-435.2,-290.1333333333333
2011,-12.8,-430.93333333333334,-305.06666666666666
2012,-12.8,-426.6666666666667,-311.46666666666664
2013,-27.733333333333334,-418.1333333333333,-307.2
2014,-34.13333333333333,-416.0,-309.3333333333333
2015,-34.13333333333333,-411.73333333333335,-311.46666666666664
2016,-46.93333333333333,-409.6,-317.8666666666667
2017,-64.0,-409.6,-328.5333333333333
2018,-72.53333333333333,-407.46666666666664,-324.26666666666665
2019,-76.8,-409.6,-330.6666666666667
2020,-78.93333333333334,-409.6,-347.73333333333335
2021,-85.33333333333333,-409.6,-337.06666666666666
2022,-93.86666666666666,-394.6666666666667,-360.5333333333333
2023,-89.6,-413.8666666666667,-349.8666666666667
2024,-89.6,-422.4,-352.0
2025,-85.33333333333333,-426.6666666666667,-345.6
2026,-76.8,-445.8666666666667,-354.1333333333333
2027,-59.733333333333334,-458.6666666666667,-356.26666666666665
2028,-53.333333333333336,-469.3333333333333,-356.26666666666665
2029,-34.13333333333333,-477.8666666666667,-347.73333333333335
2030,-19.2,-473.59999999999997,-364.8
2031,-10.666666666666666,-480.0,-366.93333333333334
2032,0.0,-482.1333333333333,-358.4
2033,4.266666666666667,-484.26666666666665,-341.3333333333333
2034,14.933333333333334,-482.1333333333333,-339.2
2035,14.933333333333334,-490.6666666666667,-326.4
2036,14.933333333333334,-486.4,-322.1333333333333
2037,19.2,-494.93333333333334,-317.8666666666667
2038,19.2,-492.8,-302.93333333333334
2039,4.266666666666667,-488.5333333333333,-292.26666666666665
2040,-2.1333333333333333,-486.4,-296.5333333333333
2041,-8.533333333333333,-482.1333333333333,-283.73333333333335
2042,-21.333333333333332,-484.26666666666665,-283.73333333333335
2043,-40.53333333333333,-473.59999999999997,-292.26666666666665
2044,-51.2,-465.06666666666666,-311.46666666666664
2045,-55.46666666666667,-467.2,-315.73333333333335
2046,-74.66666666666667,-462.93333333333334,-332.8
2047,-91.73333333333333,-460.8,-345.6
2048,-96.0,-475.73333333333335,-358.4
2049,-98.13333333333333,-477.8666666666667,-349.8666666666667
2050,-102.4,-494.93333333333334,-343.46666666666664
2051,-115.2,-509.8666666666667,-332.8
2052,-125.86666666666666,-520.5333333333333,-305.06666666666666
2053,-130.13333333333333,-516.2666666666667,-302.93333333333334
2054,-138.66666666666666,-507.73333333333335,-300.8
2055,-147.2,-497.06666666666666,-305.06666666666666
2056,-149.33333333333334,-484.26666666666665,-309.3333333333333
2057,-155.73333333333332,-460.8,-313.6
2058,-155.73333333333332,-462.93333333333334,-322.1333333333333
2059,-164.26666666666665,-452.26666666666665,-322.1333333333333
2060,-162.13333333333333,-454.4,-317.8666666666667
2061,-160.0,-443.73333333333335,-334.93333333333334
2062,-153.6,-445.8666666666667,-349.8666666666667
2063,-147.2,-454.4,-354.1333333333333
2064,-138.66666666666666,-445.8666666666667,-354.1333333333333
2065,-140.8,-443.73333333333335,-373.3333333333333
2066,-157.86666666666667,-443.73333333333335,-394.6666666666667
2067,-147.2,-445.8666666666667,-401.06666666666666
2068,-142.93333333333334,-452.26666666666665,-409.6
2069,-138.66666666666666,-458.6666666666667,-433.06666666666666
2070,-125.86666666666666,-465.06666666666666,-439.46666666666664
2071,-108.8,-482.1333333333333,-445.8666666666667
2072,-89.6,-494.93333333333334,-437.3333333333333
2073,-78.93333333333334,-497.06666666666666,-448.0
2074,-78.93333333333334,-490.6666666666667,-443.73333333333335
2075,-83.2,-482.1333333333333,-443.73333333333335
2076,-74.66666666666667,-454.4,-462.93333333333334
2077,-70.4,-424.5333333333333,-465.06666666666666
2078,-72.53333333333333,-396.8,-471.46666666666664
2079,-66.13333333333333,-371.2,-475.73333333333335
2080,-61.86666666666667,-345.6,-465.06666666666666
2081,-61.86666666666667,-322.1333333333333,-456.5333333333333
2082,-46.93333333333333,-311.46666666666664,-454.4
2083,-36.266666666666666,-288.0,-439.46666666666664
2084,-14.933333333333334,-281.6,-424.5333333333333
2085,-2.1333333333333333,-275.2,-407.46666666666664
2086,17.066666666666666,-283.73333333333335,-388.26666666666665
2087,32.0,-281.6,-375.46666666666664
2088,40.53333333333333,-288.0,-356.26666666666665
2089,38.4,-288.0,-345.6
2090,23.466666666666665,-302.93333333333334,-339.2
2091,14.933333333333334,-313.6,-332.8
2092,2.1333333333333333,-322.1333333333333,-334.93333333333334
2093,-12.8,-332.8,-341.3333333333333
2094,-34.13333333333333,-354.1333333333333,-343.46666666666664
2095,-57.6,-358.4,-341.3333333333333
2096,-68.26666666666667,-375.46666666666664,-347.73333333333335
2097,-74.66666666666667,-386.1333333333333,-358.4
2098,-81.06666666666666,-407.46666666666664,-354.1333333333333
2099,-83.2,-422.4,-362.6666666666667
2100,-98.13333333333333,-430.93333333333334,-360.5333333333333
2101,-104.53333333333333,-443.73333333333335,-364.8
2102,-108.8,-450.1333333333333,-369.06666666666666
2103,-113.06666666666666,-460.8,-379.73333333333335
2104,-113.06666666666666,-460.8,-381.8666666666667
2105,-104.53333333333333,-477.8666666666667,-375.46666666666664
2106,-100.26666666666667,-465.06666666666666,-375.46666666666664
2107,-89.6,-467.2,-358.4
2108,-66.13333333333333,-467.2,-358.4
2109,-59.733333333333334,-473.59999999999997,-349.8666666666667
2110,-36.266666666666666,-475.73333333333335,-337.06666666666666
2111,-29.866666666666667,-480.0,-339.2
2112,-19.2,-475.73333333333335,-334.93333333333334
2113,-2.1333333333333333,-475.73333333333335,-326.4
2114,6.4,-462.93333333333334,-328.5333333333333
2115,19.2,-458.6666666666667,-324.26666666666665
2116,23.466666666666665,-454.4,-311.46666666666664
2117,29.866666666666667,-441.59999999999997,-307.2
2118,36.266666666666666,-424.5333333333333,-311.46666666666664
2119,40.53333333333333,-416.0,-296.5333333333333
2120,49.06666666666666,-407.46666666666664,-298.6666666666667
2121,46.93333333333333,-398.93333333333334,-290.1333333333333
2122,44.8,-381.8666666666667,-290.1333333333333
2123,46.93333333333333,-375.46666666666664,-292.26666666666665
2124,46.93333333333333,-366.93333333333334,-279.46666666666664
2125,53.333333333333336,-358.4,-275.2
2126,46.93333333333333,-356.26666666666665,-275.2
2127,49.06666666666666,-352.0,-260.26666666666665
2128,46.93333333333333,-354.1333333333333,-268.8
2129,42.666666666666664,-358.4,-262.4
2130,44.8,-360.5333333333333,-251.73333333333332
2131,40.53333333333333,-358.4,-264.5333333333333
2132,32.0,-377.6,-260.26666666666665
2133,38.4,-377.6,-264.5333333333333
2134,34.13333333333333,-384.0,-253.86666666666667
2135,27.733333333333334,-386.1333333333333,-262.4
2136,27.733333333333334,-396.8,-270.93333333333334
2137,25.6,-403.2,-273.06666666666666
2138,21.333333333333332,-407.46666666666664,-279.46666666666664
2139,32.0,-413.8666666666667,-273.06666666666666
2140,34.13333333333333,-420.26666666666665,-273.06666666666666
2141,34.13333333333333,-437.3333333333333,-273.06666666666666
2142,32.0,-445.8666666666667,-290.1333333333333
2143,38.4,-443.73333333333335,-279.46666666666664
2144,40.53333333333333,-462.93333333333334,-277.3333333333333
2145,32.0,-460.8,-273.06666666666666
2146,46.93333333333333,-465.06666666666666,-270.93333333333334
2147,46.93333333333333,-458.6666666666667,-249.6
2148,46.93333333333333,-458.6666666666667,-256.0
2149,49.06666666666666,-450.1333333333333,-247.46666666666667
2150,42.666666666666664,-443.73333333333335,-245.33333333333334
2151,32.0,-430.93333333333334,-232.53333333333333
2152,19.2,-428.8,-224.0
2153,8.533333333333333,-426.6666666666667,-228.26666666666665
2154,-2.1333333333333333,-413.8666666666667,-211.2
2155,-12.8,-424.5333333333333,-206.93333333333334
2156,-23.466666666666665,-409.6,-198.4
2157,-32.0,-411.73333333333335,-209.06666666666666
2158,-42.666666666666664,-413.8666666666667,-206.93333333333334
2159,-51.2,-409.6,-209.06666666666666
2160,-55.46666666666667,-411.73333333333335,-196.26666666666665
2161,-51.2,-416.0,-217.6
2162,-55.46666666666667,-418.1333333333333,-219.73333333333332
2163,-59.733333333333334,-416.0,-215.46666666666667
2164,-44.8,-433.06666666666666,-215.46666666666667
2165,-32.0,-448.0,-221.86666666666667
2166,-36.266666666666666,-454.4,-211.2
2167,-25.6,-458.6666666666667,-213.33333333333334
2168,-6.4,-460.8,-219.73333333333332
2169,-2.1333333333333333,-458.6666666666667,-236.79999999999998
2170,21.333333333333332,-458.6666666666667,-258.1333333333333
2171,29.866666666666667,-452.26666666666665,-270.93333333333334
2172,72.53333333333333,-462.93333333333334,-281.6
2173,121.6,-465.06666666666666,-290.1333333333333
2174,130.13333333333333,-439.46666666666664,-328.5333333333333
2175,125.86666666666666,-435.2,-345.6
2176,117.33333333333333,-443.73333333333335,-352.0
2177,93.86666666666666,-469.3333333333333,-330.6666666666667
2178,66.13333333333333,-501.3333333333333,-309.3333333333333
2179,44.8,-539.7333333333333,-285.8666666666667
2180,27.733333333333334,-548.2666666666667,-275.2
2181,23.466666666666665,-556.8,-268.8
2182,4.266666666666667,-548.2666666666667,-279.46666666666664
2183,-2.1333333333333333,-544.0,-275.2
2184,-12.8,-526.9333333333333,-288.0
2185,-27.733333333333334,-531.2,-277.3333333333333
2186,-36.266666666666666,-535.4666666666667,-268.8
2187,-40.53333333333333,-531.2,-245.33333333333334
2188,-42.666666666666664,-537.6,-234.66666666666666
2189,-32.0,-539.7333333333333,-219.73333333333332
2190,-25.6,-550.4,-213.33333333333334
2191,-25.6,-546.1333333333333,-206.93333333333334
2192,-17.066666666666666,-546.1333333333333,-198.4
2193,-8.533333333333333,-533.3333333333334,-185.6
2194,-17.066666666666666,-520.5333333333333,-194.13333333333333
2195,-14.933333333333334,-514.1333333333333,-181.33333333333334
2196,-6.4,-503.46666666666664,-172.8
2197,-4.266666666666667,-512.0,-160.0
2198,-6.4,-503.46666666666664,-164.26666666666665
2199,-4.266666666666667,-497.06666666666666,-160.0
2200,6.4,-490.6666666666667,-153.6
2201,12.8,-475.73333333333335,-170.66666666666666
2202,6.4,-462.93333333333334,-198.4
2203,2.1333333333333333,-452.26666666666665,-228.26666666666665
2204,-10.666666666666666,-462.93333333333334,-232.53333333333333
2205,-21.333333333333332,-486.4,-245.33333333333334
2206,-29.866666666666667,-514.1333333333333,-221.86666666666667
2207,-40.53333333333333,-520.5333333333333,-209.06666666666666
2208,-32.0,-544.0,-196.26666666666665
2209,0.0,-550.4,-198.4
2210,27.733333333333334,-546.1333333333333,-213.33333333333334
2211,53.333333333333336,-541.8666666666667,-238.93333333333334
2212,57.6,-529.0666666666666,-290.1333333333333
2213,59.733333333333334,-518.4,-307.2
2214,53.333333333333336,-501.3333333333333,-337.06666666666666
2215,38.4,-505.59999999999997,-356.26666666666665
2216,38.4,-516.2666666666667,-362.6666666666667
2217,57.6,-541.8666666666667,-360.5333333333333
2218,55.46666666666667,-541.8666666666667,-375.46666666666664
2219,66.13333333333333,-537.6,-381.8666666666667
2220,68.26666666666667,-548.2666666666667,-386.1333333333333
2221,74.66666666666667,-558.9333333333333,-384.0
2222,66.13333333333333,-569.6,-366.93333333333334
2223,68.26666666666667,-588.8,-358.4
2224,70.4,-576.0,-345.6
2225,64.0,-561.0666666666666,-328.5333333333333
2226,68.26666666666667,-546.1333333333333,-330.6666666666667
2227,81.06666666666666,-529.0666666666666,-339.2
2228,72.53333333333333,-490.6666666666667,-334.93333333333334
2229,70.4,-456.5333333333333,-352.0
2230,42.666666666666664,-409.6,-341.3333333333333
2231,21.333333333333332,-384.0,-343.46666666666664
2232,-2.1333333333333333,-364.8,-334.93333333333334
2233,-19.2,-347.73333333333335,-313.6
2234,-61.86666666666667,-341.3333333333333,-292.26666666666665
2235,-81.06666666666666,-341.3333333333333,-285.8666666666667
2236,-108.8,-347.73333333333335,-262.4
2237,-140.8,-343.46666666666664,-251.73333333333332
2238,-160.0,-364.8,-256.0
2239,-174.93333333333334,-360.5333333333333,-241.06666666666666
2240,-185.6,-373.3333333333333,-247.46666666666667
2241,-162.13333333333333,-392.5333333333333,-241.06666666666666
2242,-110.93333333333334,-424.5333333333333,-241.06666666666666
2243,-51.2,-448.0,-249.6
2244,-4.266666666666667,-443.73333333333335,-270.93333333333334
2245,12.8,-433.06666666666666,-270.93333333333334
2246,19.2,-409.6,-277.3333333333333
2247,14.933333333333334,-411.73333333333335,-268.8
2248,10.666666666666666,-413.8666666666667,-262.4
2249,2.1333333333333333,-413.8666666666667,-247.46666666666667
2250,14.933333333333334,-437.3333333333333,-245.33333333333334
2251,6.4,-450.1333333333333,-243.2
2252,-8.533333333333333,-475.73333333333335,-243.2
2253,-6.4,-509.8666666666667,-253.86666666666667
2254,-6.4,-522.6666666666666,-260.26666666666665
2255,-6.4,-539.7333333333333,-270.93333333333334
2256,-6.4,-544.0,-264.5333333333333
2257,-10.666666666666666,-548.2666666666667,-285.8666666666667
2258,-6.4,-550.4,-288.0
2259,-4.266666666666667,-548.2666666666667,-277.3333333333333
2260,-42.666666666666664,-537.6,-285.8666666666667
2261,-27.733333333333334,-539.7333333333333,-290.1333333333333
2262,-34.13333333333333,-520.5333333333333,-290.1333333333333
2263,-49.06666666666666,-516.2666666666667,-290.1333333333333
2264,-44.8,-514.1333333333333,-285.8666666666667
2265,-44.8,-526.9333333333333,-285.8666666666667
2266,-36.266666666666666,-529.0666666666666,-285.8666666666667
2267,-40.53333333333333,-516.2666666666667,-277.3333333333333
2268,-42.666666666666664,-503.46666666666664,-281.6
2269,-59.733333333333334,-475.73333333333335,-281.6
2270,-44.8,-452.26666666666665,-273.06666666666666
2271,-32.0,-433.06666666666666,-262.4
2272,-21.333333333333332,-413.8666666666667,-260.26666666666665
2273,-19.2,-422.4,-258.1333333333333
2274,-17.066666666666666,-409.6,-260.26666666666665
2275,-25.6,-407.46666666666664,-243.2
2276,-29.866666666666667,-409.6,-232.53333333333333
2277,-36.266666666666666,-405.3333333333333,-221.86666666666667
2278,-38.4,-405.3333333333333,-211.2
2279,-51.2,-403.2,-217.6
2280,-51.2,-396.8,-206.93333333333334
2281,-61.86666666666667,-377.6,-213.33333333333334
2282,-51.2,-373.3333333333333,-206.93333333333334
2283,-68.26666666666667,-381.8666666666667,-202.66666666666666
2284,-66.13333333333333,-366.93333333333334,-196.26666666666665
2285,-70.4,-371.2,-192.0
2286,-66.13333333333333,-377.6,-189.86666666666667
2287,-70.4,-388.26666666666665,-196.26666666666665
2288,-68.26666666666667,-388.26666666666665,-192.0
2289,-68.26666666666667,-386.1333333333333,-206.93333333333334
2290,-66.13333333333333,-398.93333333333334,-206.93333333333334
2291,-61.86666666666667,-409.6,-217.6
2292,-66.13333333333333,-409.6,-211.2
2293,-64.0,-418.1333333333333,-217.6
2294,-57.6,-428.8,-234.66666666666666
2295,-61.86666666666667,-439.46666666666664,-228.26666666666665
2296,-57.6,-443.73333333333335,-221.86666666666667
2297,-57.6,-452.26666666666665,-224.0
2298,-51.2,-462.93333333333334,-226.13333333333333
2299,-49.06666666666666,-467.2,-238.93333333333334
2300,-46.93333333333333,-467.2,-226.13333333333333
2301,-44.8,-471.46666666666664,-232.53333333333333
2302,-46.93333333333333,-471.46666666666664,-232.53333333333333
2303,-44.8,-469.3333333333333,-221.86666666666667
2304,-38.4,-475.73333333333335,-221.86666666666667
2305,-40.53333333333333,-480.0,-215.46666666666667
2306,-29.866666666666667,-482.1333333333333,-204.8
2307,-29.866666666666667,-484.26666666666665,-204.8
2308,-25.6,-490.6666666666667,-206.93333333333334
2309,-25.6,-492.8,-189.86666666666667
2310,-21.333333333333332,-499.2,-204.8
2311,-21.333333333333332,-503.46666666666664,-189.86666666666667
2312,-14.933333333333334,-509.8666666666667,-200.53333333333333
2313,-10.666666666666666,-516.2666666666667,-189.86666666666667
2314,-8.533333333333333,-522.6666666666666,-185.6
2315,-6.4,-531.2,-181.33333333333334
2316,-6.4,-520.5333333333333,-204.8
2317,-4.266666666666667,-522.6666666666666,-183.46666666666667
2318,0.0,-522.6666666666666,-194.13333333333333
2319,-2.1333333333333333,-524.8,-198.4
2320,4.266666666666667,-522.6666666666666,-200.53333333333333
2321,0.0,-520.5333333333333,-204.8
2322,12.8,-520.5333333333333,-215.46666666666667
2323,10.666666666666666,-509.8666666666667,-219.73333333333332
2324,10.666666666666666,-503.46666666666664,-219.73333333333332
2325,0.0,-494.93333333333334,-211.2
2326,6.4,-484.26666666666665,-224.0
2327,-2.1333333333333333,-477.8666666666667,-221.86666666666667
2328,-17.066666666666666,-473.59999999999997,-221.86666666666667
2329,-19.2,-475.73333333333335,-215.46666666666667
2330,-23.466666666666665,-480.0,-206.93333333333334
2331,-34.13333333333333,-482.1333333333333,-206.93333333333334
2332,-34.13333333333333,-490.6666666666667,-215.46666666666667
2333,-42.666666666666664,-497.06666666666666,-204.8
2334,-49.06666666666666,-486.4,-215.46666666666667
2335,-59.733333333333334,-497.06666666666666,-202.66666666666666
2336,-51.2,-503.46666666666664,-198.4
2337,-53.333333333333336,-509.8666666666667,-194.13333333333333
2338,-61.86666666666667,-509.8666666666667,-202.66666666666666
2339,-61.86666666666667,-499.2,-200.53333333333333
2340,-66.13333333333333,-505.59999999999997,-198.4
2341,-72.53333333333333,-503.46666666666664,-198.4
2342,-70.4,-505.59999999999997,-198.4
2343,-76.8,-499.2,-196.26666666666665
2344,-74.66666666666667,-505.59999999999997,-185.6
2345,-66.13333333333333,-514.1333333333333,-183.46666666666667
2346,-68.26666666666667,-514.1333333333333,-177.06666666666666
2347,-66.13333333333333,-518.4,-172.8
2348,-66.13333333333333,-531.2,-183.46666666666667
2349,-59.733333333333334,-533.3333333333334,-185.6
2350,-51.2,-524.8,-200.53333333333333
2351,-46.93333333333333,-522.6666666666666,-217.6
2352,-46.93333333333333,-516.2666666666667,-224.0
2353,-55.46666666666667,-533.3333333333334,-221.86666666666667
2354,-57.6,-539.7333333333333,-215.46666666666667
2355,-78.93333333333334,-552.5333333333333,-192.0
2356,-91.73333333333333,-550.4,-181.33333333333334
2357,-108.8,-544.0,-189.86666666666667
2358,-115.2,-535.4666666666667,-183.46666666666667
2359,-134.4,-535.4666666666667,-217.6
2360,-142.93333333333334,-526.9333333333333,-221.86666666666667
2361,-140.8,-535.4666666666667,-232.53333333333333
2362,-147.2,-537.6,-238.93333333333334
2363,-153.6,-546.1333333333333,-249.6
2364,-164.26666666666665,-548.2666666666667,-262.4
2365,-170.66666666666666,-544.0,-277.3333333333333
2366,-164.26666666666665,-531.2,-294.4
2367,-153.6,-535.4666666666667,-307.2
2368,-153.6,-522.6666666666666,-313.6
2369,-142.93333333333334,-524.8,-324.26666666666665
2370,-149.33333333333334,-546.1333333333333,-332.8
2371,-147.2,-548.2666666666667,-330.6666666666667
2372,-142.93333333333334,-558.9333333333333,-309.3333333333333
2373,-134.4,-558.9333333333333,-307.2
2374,-121.6,-558.9333333333333,-309.3333333333333
2375,-117.33333333333333,-554.6666666666666,-298.6666666666667
