,accelerometerAccelerationX(G),accelerometerAccelerationY(G),accelerometerAccelerationZ(G)
0,-19.2,-484.26666666666665,-219.73333333333332
1,-14.933333333333334,-477.8666666666667,-217.6
2,-10.666666666666666,-486.4,-224.0
3,-6.4,-492.8,-221.86666666666667
4,-2.1333333333333333,-486.4,-224.0
5,-19.2,-475.73333333333335,-213.33333333333334
6,-19.2,-488.5333333333333,-221.86666666666667
7,-8.533333333333333,-482.1333333333333,-230.4
8,-14.933333333333334,-486.4,-221.86666666666667
9,-10.666666666666666,-484.26666666666665,-224.0
10,-21.333333333333332,-497.06666666666666,-221.86666666666667
11,-8.533333333333333,-492.8,-213.33333333333334
12,-8.533333333333333,-486.4,-226.13333333333333
13,-17.066666666666666,-492.8,-217.6
14,-17.066666666666666,-499.2,-224.0
15,-12.8,-484.26666666666665,-234.66666666666666
16,-4.266666666666667,-484.26666666666665,-230.4
17,-14.933333333333334,-488.5333333333333,-219.73333333333332
18,-14.933333333333334,-488.5333333333333,-217.6
19,-10.666666666666666,-492.8,-219.73333333333332
20,-10.666666666666666,-486.4,-215.46666666666667
21,-14.933333333333334,-484.26666666666665,-217.6
22,-12.8,-484.26666666666665,-209.06666666666666
23,-4.266666666666667,-482.1333333333333,-215.46666666666667
24,-8.533333333333333,-488.5333333333333,-215.46666666666667
25,-4.266666666666667,-480.0,-221.86666666666667
26,-2.1333333333333333,-497.06666666666666,-217.6
27,-10.666666666666666,-486.4,-219.73333333333332
28,-12.8,-484.26666666666665,-211.2
29,-8.533333333333333,-486.4,-219.73333333333332
30,-8.533333333333333,-482.1333333333333,-209.06666666666666
31,-8.533333333333333,-488.5333333333333,-224.0
32,-8.533333333333333,-490.6666666666667,-217.6
33,-6.4,-492.8,-221.86666666666667
34,-6.4,-490.6666666666667,-221.86666666666667
35,-2.1333333333333333,-494.93333333333334,-221.86666666666667
36,-6.4,-486.4,-219.73333333333332
37,-12.8,-492.8,-211.2
38,-6.4,-488.5333333333333,-217.6
39,-6.4,-488.5333333333333,-221.86666666666667
40,-8.533333333333333,-486.4,-217.6
41,-14.933333333333334,-484.26666666666665,-221.86666666666667
42,-6.4,-484.26666666666665,-224.0
43,-8.533333333333333,-490.6666666666667,-217.6
44,-12.8,-482.1333333333333,-221.86666666666667
45,-10.666666666666666,-488.5333333333333,-215.46666666666667
46,-10.666666666666666,-488.5333333333333,-219.73333333333332
47,-8.533333333333333,-490.6666666666667,-213.33333333333334
48,0.0,-477.8666666666667,-204.8
49,-8.533333333333333,-488.5333333333333,-213.33333333333334
50,-8.533333333333333,-486.4,-224.0
51,-8.533333333333333,-494.93333333333334,-211.2
52,-10.666666666666666,-492.8,-219.73333333333332
53,-12.8,-490.6666666666667,-221.86666666666667
54,-8.533333333333333,-480.0,-219.73333333333332
55,-17.066666666666666,-486.4,-219.73333333333332
56,-10.666666666666666,-488.5333333333333,-215.46666666666667
57,-8.533333333333333,-484.26666666666665,-219.73333333333332
58,-8.533333333333333,-488.5333333333333,-209.06666666666666
59,-8.533333333333333,-477.8666666666667,-230.4
60,-8.533333333333333,-484.26666666666665,-217.6
61,-8.533333333333333,-490.6666666666667,-219.73333333333332
62,-6.4,-490.6666666666667,-219.73333333333332
63,-6.4,-488.5333333333333,-215.46666666666667
64,-8.533333333333333,-484.26666666666665,-221.86666666666667
65,-12.8,-488.5333333333333,-224.0
66,-10.666666666666666,-488.5333333333333,-226.13333333333333
67,-14.933333333333334,-492.8,-213.33333333333334
68,-6.4,-497.06666666666666,-209.06666666666666
69,-8.533333333333333,-482.1333333333333,-219.73333333333332
70,-10.666666666666666,-484.26666666666665,-204.8
71,-8.533333333333333,-488.5333333333333,-219.73333333333332
72,-12.8,-488.5333333333333,-215.46666666666667
73,-8.533333333333333,-486.4,-217.6
74,-12.8,-482.1333333333333,-215.46666666666667
75,-8.533333333333333,-486.4,-217.6
76,-12.8,-484.26666666666665,-226.13333333333333
77,-10.666666666666666,-490.6666666666667,-219.73333333333332
78,-6.4,-492.8,-217.6
79,-2.1333333333333333,-492.8,-221.86666666666667
80,-14.933333333333334,-482.1333333333333,-213.33333333333334
81,-8.533333333333333,-497.06666666666666,-226.13333333333333
82,-12.8,-490.6666666666667,-215.46666666666667
83,-10.666666666666666,-486.4,-213.33333333333334
84,-12.8,-486.4,-224.0
85,-6.4,-488.5333333333333,-226.13333333333333
86,-12.8,-486.4,-226.13333333333333
87,-8.533333333333333,-486.4,-224.0
88,-12.8,-490.6666666666667,-213.33333333333334
89,-8.533333333333333,-484.26666666666665,-213.33333333333334
90,-12.8,-480.0,-221.86666666666667
91,-19.2,-484.26666666666665,-224.0
92,-25.6,-480.0,-219.73333333333332
93,-12.8,-488.5333333333333,-217.6
94,-10.666666666666666,-484.26666666666665,-219.73333333333332
95,-8.533333333333333,-482.1333333333333,-217.6
96,-10.666666666666666,-484.26666666666665,-215.46666666666667
97,-14.933333333333334,-480.0,-226.13333333333333
98,-8.533333333333333,-484.26666666666665,-232.53333333333333
99,-10.666666666666666,-475.73333333333335,-226.13333333333333
100,-10.666666666666666,-480.0,-224.0
101,-17.066666666666666,-482.1333333333333,-221.86666666666667
102,-14.933333333333334,-482.1333333333333,-221.86666666666667
103,-17.066666666666666,-486.4,-232.53333333333333
104,-8.533333333333333,-488.5333333333333,-217.6
105,-12.8,-486.4,-234.66666666666666
106,-12.8,-480.0,-228.26666666666665
107,-10.666666666666666,-482.1333333333333,-221.86666666666667
108,-12.8,-486.4,-219.73333333333332
109,-10.666666666666666,-486.4,-224.0
110,-17.066666666666666,-486.4,-224.0
111,-8.533333333333333,-484.26666666666665,-211.2
112,-10.666666666666666,-486.4,-219.73333333333332
113,-23.466666666666665,-480.0,-226.13333333333333
114,-14.933333333333334,-490.6666666666667,-228.26666666666665
115,-10.666666666666666,-486.4,-221.86666666666667
116,-14.933333333333334,-484.26666666666665,-215.46666666666667
117,-8.533333333333333,-492.8,-224.0
118,-8.533333333333333,-488.5333333333333,-224.0
119,-12.8,-488.5333333333333,-221.86666666666667
120,-6.4,-486.4,-221.86666666666667
121,-12.8,-490.6666666666667,-224.0
122,-14.933333333333334,-486.4,-226.13333333333333
123,-10.666666666666666,-480.0,-217.6
124,-10.666666666666666,-492.8,-232.53333333333333
125,-6.4,-488.5333333333333,-226.13333333333333
126,-10.666666666666666,-490.6666666666667,-224.0
127,-8.533333333333333,-484.26666666666665,-228.26666666666665
128,-8.533333333333333,-490.6666666666667,-230.4
129,-6.4,-486.4,-224.0
130,-6.4,-484.26666666666665,-226.13333333333333
131,-10.666666666666666,-486.4,-230.4
132,-6.4,-484.26666666666665,-232.53333333333333
133,-10.666666666666666,-492.8,-226.13333333333333
134,-8.533333333333333,-480.0,-217.6
135,-17.066666666666666,-477.8666666666667,-226.13333333333333
136,-8.533333333333333,-492.8,-224.0
137,-14.933333333333334,-492.8,-217.6
138,-8.533333333333333,-486.4,-224.0
139,-10.666666666666666,-482.1333333333333,-224.0
140,-12.8,-486.4,-221.86666666666667
141,-6.4,-486.4,-236.79999999999998
142,-8.533333333333333,-484.26666666666665,-232.53333333333333
143,-8.533333333333333,-492.8,-228.26666666666665
144,-6.4,-484.26666666666665,-219.73333333333332
145,-10.666666666666666,-490.6666666666667,-230.4
146,-17.066666666666666,-482.1333333333333,-234.66666666666666
147,-8.533333333333333,-484.26666666666665,-217.6
148,-10.666666666666666,-482.1333333333333,-215.46666666666667
149,-8.533333333333333,-484.26666666666665,-221.86666666666667
150,-8.533333333333333,-486.4,-221.86666666666667
151,-8.533333333333333,-482.1333333333333,-228.26666666666665
152,-8.533333333333333,-488.5333333333333,-224.0
153,-8.533333333333333,-488.5333333333333,-221.86666666666667
154,-10.666666666666666,-482.1333333333333,-221.86666666666667
155,-4.266666666666667,-490.6666666666667,-221.86666666666667
156,-6.4,-488.5333333333333,-226.13333333333333
157,-14.933333333333334,-482.1333333333333,-230.4
158,-8.533333333333333,-486.4,-226.13333333333333
159,-6.4,-486.4,-232.53333333333333
160,-8.533333333333333,-490.6666666666667,-230.4
161,-8.533333333333333,-477.8666666666667,-226.13333333333333
162,-8.533333333333333,-488.5333333333333,-221.86666666666667
163,-6.4,-490.6666666666667,-221.86666666666667
164,-6.4,-484.26666666666665,-224.0
165,-8.533333333333333,-486.4,-221.86666666666667
166,-8.533333333333333,-482.1333333333333,-230.4
167,-6.4,-484.26666666666665,-230.4
168,-12.8,-484.26666666666665,-221.86666666666667
169,-8.533333333333333,-484.26666666666665,-226.13333333333333
170,-12.8,-480.0,-224.0
171,-8.533333333333333,-488.5333333333333,-226.13333333333333
172,-8.533333333333333,-488.5333333333333,-224.0
173,-8.533333333333333,-488.5333333333333,-221.86666666666667
174,-8.533333333333333,-480.0,-219.73333333333332
175,-12.8,-484.26666666666665,-226.13333333333333
176,-10.666666666666666,-482.1333333333333,-221.86666666666667
177,-6.4,-486.4,-230.4
178,-14.933333333333334,-482.1333333333333,-228.26666666666665
179,-14.933333333333334,-486.4,-230.4
180,-10.666666666666666,-490.6666666666667,-224.0
181,-8.533333333333333,-490.6666666666667,-228.26666666666665
182,-8.533333333333333,-488.5333333333333,-234.66666666666666
183,-12.8,-490.6666666666667,-230.4
184,-8.533333333333333,-486.4,-232.53333333333333
185,-17.066666666666666,-484.26666666666665,-230.4
186,-8.533333333333333,-488.5333333333333,-230.4
187,-12.8,-486.4,-224.0
188,-21.333333333333332,-480.0,-228.26666666666665
189,-10.666666666666666,-492.8,-224.0
190,-21.333333333333332,-484.26666666666665,-226.13333333333333
191,-17.066666666666666,-484.26666666666665,-221.86666666666667
192,-14.933333333333334,-488.5333333333333,-224.0
193,-10.666666666666666,-484.26666666666665,-226.13333333333333
194,-12.8,-490.6666666666667,-226.13333333333333
195,-8.533333333333333,-486.4,-221.86666666666667
196,-10.666666666666666,-488.5333333333333,-224.0
197,-10.666666666666666,-486.4,-226.13333333333333
198,-14.933333333333334,-490.6666666666667,-226.13333333333333
199,-12.8,-484.26666666666665,-228.26666666666665
200,-14.933333333333334,-480.0,-224.0
201,-12.8,-486.4,-230.4
202,-14.933333333333334,-482.1333333333333,-230.4
203,-12.8,-484.26666666666665,-224.0
204,-8.533333333333333,-484.26666666666665,-226.13333333333333
205,-12.8,-482.1333333333333,-234.66666666666666
206,-12.8,-486.4,-230.4
207,-12.8,-482.1333333333333,-217.6
208,-14.933333333333334,-486.4,-228.26666666666665
209,-14.933333333333334,-480.0,-224.0
210,-19.2,-486.4,-228.26666666666665
211,-21.333333333333332,-484.26666666666665,-236.79999999999998
212,-17.066666666666666,-488.5333333333333,-226.13333333333333
213,-12.8,-484.26666666666665,-219.73333333333332
214,-12.8,-486.4,-232.53333333333333
215,-10.666666666666666,-490.6666666666667,-230.4
216,-12.8,-490.6666666666667,-236.79999999999998
217,-8.533333333333333,-486.4,-228.26666666666665
218,-10.666666666666666,-484.26666666666665,-230.4
219,-21.333333333333332,-473.59999999999997,-232.53333333333333
220,-17.066666666666666,-484.26666666666665,-232.53333333333333
221,-10.666666666666666,-486.4,-221.86666666666667
222,-10.666666666666666,-484.26666666666665,-215.46666666666667
223,-17.066666666666666,-486.4,-232.53333333333333
224,-19.2,-480.0,-232.53333333333333
225,-19.2,-484.26666666666665,-230.4
226,-17.066666666666666,-486.4,-226.13333333333333
227,-17.066666666666666,-484.26666666666665,-228.26666666666665
228,-17.066666666666666,-490.6666666666667,-228.26666666666665
229,-19.2,-492.8,-221.86666666666667
230,-14.933333333333334,-494.93333333333334,-219.73333333333332
231,-17.066666666666666,-488.5333333333333,-230.4
232,-12.8,-486.4,-228.26666666666665
233,-19.2,-486.4,-228.26666666666665
234,-12.8,-486.4,-219.73333333333332
235,-12.8,-488.5333333333333,-232.53333333333333
236,-14.933333333333334,-486.4,-219.73333333333332
237,-12.8,-480.0,-228.26666666666665
238,-23.466666666666665,-486.4,-228.26666666666665
239,-14.933333333333334,-486.4,-228.26666666666665
240,-17.066666666666666,-486.4,-228.26666666666665
241,-19.2,-492.8,-234.66666666666666
242,-19.2,-480.0,-230.4
243,-14.933333333333334,-482.1333333333333,-228.26666666666665
244,-8.533333333333333,-490.6666666666667,-228.26666666666665
245,-17.066666666666666,-480.0,-241.06666666666666
246,-12.8,-484.26666666666665,-238.93333333333334
247,-12.8,-484.26666666666665,-236.79999999999998
248,-8.533333333333333,-477.8666666666667,-234.66666666666666
249,-10.666666666666666,-480.0,-232.53333333333333
250,-10.666666666666666,-484.26666666666665,-234.66666666666666
251,-8.533333333333333,-475.73333333333335,-230.4
252,-12.8,-482.1333333333333,-243.2
253,-8.533333333333333,-480.0,-238.93333333333334
254,-2.1333333333333333,-480.0,-236.79999999999998
255,-25.6,-480.0,-236.79999999999998
256,-12.8,-480.0,-238.93333333333334
257,-19.2,-480.0,-232.53333333333333
258,-14.933333333333334,-480.0,-234.66666666666666
259,-14.933333333333334,-486.4,-238.93333333333334
260,-12.8,-471.46666666666664,-238.93333333333334
261,-8.533333333333333,-482.1333333333333,-238.93333333333334
262,-8.533333333333333,-477.8666666666667,-243.2
263,-10.666666666666666,-482.1333333333333,-238.93333333333334
264,-14.933333333333334,-477.8666666666667,-243.2
265,-14.933333333333334,-477.8666666666667,-228.26666666666665
266,-10.666666666666666,-484.26666666666665,-228.26666666666665
267,-8.533333333333333,-482.1333333333333,-226.13333333333333
268,-14.933333333333334,-486.4,-221.86666666666667
269,-12.8,-482.1333333333333,-230.4
270,-12.8,-490.6666666666667,-226.13333333333333
271,-12.8,-486.4,-230.4
272,-14.933333333333334,-482.1333333333333,-230.4
273,-25.6,-482.1333333333333,-234.66666666666666
274,-21.333333333333332,-471.46666666666664,-234.66666666666666
275,-25.6,-467.2,-232.53333333333333
276,-21.333333333333332,-469.3333333333333,-234.66666666666666
277,-25.6,-480.0,-238.93333333333334
278,-21.333333333333332,-471.46666666666664,-232.53333333333333
279,-17.066666666666666,-482.1333333333333,-232.53333333333333
280,-23.466666666666665,-482.1333333333333,-226.13333333333333
281,-23.466666666666665,-473.59999999999997,-243.2
282,-27.733333333333334,-475.73333333333335,-238.93333333333334
283,-14.933333333333334,-475.73333333333335,-236.79999999999998
284,-19.2,-482.1333333333333,-234.66666666666666
285,-12.8,-488.5333333333333,-230.4
286,-14.933333333333334,-482.1333333333333,-224.0
287,-12.8,-484.26666666666665,-234.66666666666666
288,-4.266666666666667,-490.6666666666667,-221.86666666666667
289,-8.533333333333333,-486.4,-226.13333333333333
290,-6.4,-482.1333333333333,-230.4
291,-8.533333333333333,-486.4,-221.86666666666667
292,-4.266666666666667,-477.8666666666667,-228.26666666666665
293,-4.266666666666667,-482.1333333333333,-224.0
294,-6.4,-477.8666666666667,-221.86666666666667
295,0.0,-477.8666666666667,-219.73333333333332
296,-6.4,-471.46666666666664,-217.6
297,0.0,-477.8666666666667,-204.8
298,2.1333333333333333,-480.0,-204.8
299,2.1333333333333333,-484.26666666666665,-198.4
300,-6.4,-482.1333333333333,-202.66666666666666
301,0.0,-475.73333333333335,-194.13333333333333
302,8.533333333333333,-484.26666666666665,-202.66666666666666
303,4.266666666666667,-482.1333333333333,-194.13333333333333
304,6.4,-486.4,-198.4
305,4.266666666666667,-480.0,-200.53333333333333
306,17.066666666666666,-492.8,-213.33333333333334
307,8.533333333333333,-486.4,-209.06666666666666
308,8.533333333333333,-475.73333333333335,-224.0
309,10.666666666666666,-477.8666666666667,-228.26666666666665
310,19.2,-480.0,-213.33333333333334
311,8.533333333333333,-480.0,-238.93333333333334
312,8.533333333333333,-480.0,-241.06666666666666
313,2.1333333333333333,-477.8666666666667,-236.79999999999998
314,0.0,-473.59999999999997,-241.06666666666666
315,-2.1333333333333333,-473.59999999999997,-243.2
316,-8.533333333333333,-465.06666666666666,-256.0
317,-8.533333333333333,-458.6666666666667,-247.46666666666667
318,0.0,-450.1333333333333,-268.8
319,-4.266666666666667,-454.4,-262.4
320,-8.533333333333333,-456.5333333333333,-260.26666666666665
321,-6.4,-441.59999999999997,-256.0
322,-10.666666666666666,-437.3333333333333,-260.26666666666665
323,-14.933333333333334,-437.3333333333333,-270.93333333333334
324,-10.666666666666666,-424.5333333333333,-279.46666666666664
325,-17.066666666666666,-416.0,-283.73333333333335
326,-19.2,-418.1333333333333,-290.1333333333333
327,-27.733333333333334,-396.8,-292.26666666666665
328,-38.4,-386.1333333333333,-302.93333333333334
329,-21.333333333333332,-381.8666666666667,-324.26666666666665
330,-27.733333333333334,-377.6,-315.73333333333335
331,-29.866666666666667,-366.93333333333334,-315.73333333333335
332,-34.13333333333333,-360.5333333333333,-334.93333333333334
333,-36.266666666666666,-347.73333333333335,-324.26666666666665
334,-42.666666666666664,-347.73333333333335,-324.26666666666665
335,-38.4,-349.8666666666667,-313.6
336,-32.0,-347.73333333333335,-296.5333333333333
337,-23.466666666666665,-352.0,-283.73333333333335
338,-34.13333333333333,-352.0,-279.46666666666664
339,-32.0,-347.73333333333335,-270.93333333333334
340,-32.0,-347.73333333333335,-262.4
341,-32.0,-341.3333333333333,-253.86666666666667
342,-38.4,-326.4,-262.4
343,-32.0,-317.8666666666667,-266.6666666666667
344,-29.866666666666667,-309.3333333333333,-281.6
345,-32.0,-279.46666666666664,-288.0
346,-29.866666666666667,-264.5333333333333,-285.8666666666667
347,-27.733333333333334,-258.1333333333333,-288.0
348,-29.866666666666667,-243.2,-283.73333333333335
349,-23.466666666666665,-228.26666666666665,-281.6
350,-23.466666666666665,-230.4,-264.5333333333333
351,-19.2,-221.86666666666667,-258.1333333333333
352,-14.933333333333334,-228.26666666666665,-251.73333333333332
353,-14.933333333333334,-228.26666666666665,-219.73333333333332
354,-8.533333333333333,-226.13333333333333,-219.73333333333332
355,-6.4,-224.0,-192.0
356,0.0,-224.0,-183.46666666666667
357,0.0,-232.53333333333333,-183.46666666666667
358,4.266666666666667,-224.0,-189.86666666666667
359,-2.1333333333333333,-226.13333333333333,-185.6
360,2.1333333333333333,-230.4,-172.8
361,2.1333333333333333,-243.2,-160.0
362,-4.266666666666667,-245.33333333333334,-162.13333333333333
363,-8.533333333333333,-253.86666666666667,-166.4
364,-10.666666666666666,-258.1333333333333,-172.8
365,-8.533333333333333,-268.8,-170.66666666666666
366,-4.266666666666667,-273.06666666666666,-149.33333333333334
367,-8.533333333333333,-285.8666666666667,-177.06666666666666
368,-8.533333333333333,-294.4,-183.46666666666667
369,-8.533333333333333,-302.93333333333334,-179.2
370,-21.333333333333332,-309.3333333333333,-196.26666666666665
371,-23.466666666666665,-324.26666666666665,-213.33333333333334
372,-23.466666666666665,-332.8,-217.6
373,-23.466666666666665,-337.06666666666666,-230.4
374,-27.733333333333334,-339.2,-256.0
375,-21.333333333333332,-339.2,-285.8666666666667
376,-23.466666666666665,-347.73333333333335,-281.6
377,-25.6,-356.26666666666665,-292.26666666666665
378,-21.333333333333332,-379.73333333333335,-300.8
379,-14.933333333333334,-403.2,-307.2
380,-6.4,-407.46666666666664,-317.8666666666667
381,-10.666666666666666,-439.46666666666664,-320.0
382,-8.533333333333333,-452.26666666666665,-337.06666666666666
383,-2.1333333333333333,-462.93333333333334,-356.26666666666665
384,-12.8,-490.6666666666667,-377.6
385,-12.8,-497.06666666666666,-394.6666666666667
386,-21.333333333333332,-499.2,-435.2
387,-8.533333333333333,-535.4666666666667,-445.8666666666667
388,-17.066666666666666,-550.4,-460.8
389,-17.066666666666666,-576.0,-469.3333333333333
390,-25.6,-599.4666666666667,-484.26666666666665
391,-32.0,-614.4,-482.1333333333333
392,-40.53333333333333,-620.8,-497.06666666666666
393,-32.0,-637.8666666666667,-518.4
394,-42.666666666666664,-642.1333333333333,-524.8
395,-36.266666666666666,-667.7333333333333,-537.6
396,-40.53333333333333,-686.9333333333333,-552.5333333333333
397,-59.733333333333334,-691.2,-561.0666666666666
398,-51.2,-708.2666666666667,-586.6666666666666
399,-53.333333333333336,-710.4,-590.9333333333333
400,-40.53333333333333,-718.9333333333333,-603.7333333333333
401,-53.333333333333336,-740.2666666666667,-612.2666666666667
402,-49.06666666666666,-746.6666666666666,-629.3333333333334
403,-53.333333333333336,-742.4,-648.5333333333333
404,-55.46666666666667,-740.2666666666667,-669.8666666666667
405,-42.666666666666664,-746.6666666666666,-693.3333333333334
406,-55.46666666666667,-757.3333333333334,-708.2666666666667
407,-46.93333333333333,-776.5333333333333,-733.8666666666667
408,-42.666666666666664,-802.1333333333333,-742.4
409,-40.53333333333333,-825.6,-757.3333333333334
410,-44.8,-859.7333333333333,-768.0
411,-46.93333333333333,-889.6,-770.1333333333333
412,-36.266666666666666,-919.4666666666667,-761.6
413,-38.4,-938.6666666666666,-761.6
414,-51.2,-966.4,-742.4
415,-55.46666666666667,-1002.6666666666666,-725.3333333333334
416,-51.2,-1043.2,-710.4
417,-57.6,-1079.4666666666667,-712.5333333333333
418,-51.2,-1107.2,-701.8666666666667
419,-51.2,-1122.1333333333332,-706.1333333333333
420,-46.93333333333333,-1139.2,-706.1333333333333
421,-49.06666666666666,-1162.6666666666667,-701.8666666666667
422,-36.266666666666666,-1177.6,-706.1333333333333
423,-25.6,-1201.0666666666666,-706.1333333333333
424,-32.0,-1211.7333333333333,-716.8
425,-44.8,-1211.7333333333333,-706.1333333333333
426,-59.733333333333334,-1211.7333333333333,-699.7333333333333
427,-70.4,-1213.8666666666666,-691.2
428,-93.86666666666666,-1216.0,-674.1333333333333
429,-132.26666666666665,-1228.8,-627.2
430,-149.33333333333334,-1228.8,-593.0666666666666
431,-194.13333333333333,-1201.0666666666666,-588.8
432,-228.26666666666665,-1166.9333333333334,-582.4
433,-270.93333333333334,-1126.4,-565.3333333333334
434,-292.26666666666665,-1098.6666666666667,-535.4666666666667
435,-300.8,-1060.2666666666667,-535.4666666666667
436,-300.8,-1013.3333333333334,-550.4
437,-275.2,-957.8666666666667,-567.4666666666667
438,-258.1333333333333,-940.8,-578.1333333333333
439,-204.8,-878.9333333333333,-522.6666666666666
440,-157.86666666666667,-808.5333333333333,-541.8666666666667
441,-136.53333333333333,-736.0,-565.3333333333334
442,-100.26666666666667,-637.8666666666667,-556.8
443,-49.06666666666666,-541.8666666666667,-537.6
444,-42.666666666666664,-439.46666666666664,-497.06666666666666
445,-4.266666666666667,-347.73333333333335,-437.3333333333333
446,-2.1333333333333333,-296.5333333333333,-411.73333333333335
447,27.733333333333334,-221.86666666666667,-341.3333333333333
448,38.4,-136.53333333333333,-292.26666666666665
449,36.266666666666666,-36.266666666666666,-260.26666666666665
450,27.733333333333334,85.33333333333333,-226.13333333333333
451,64.0,183.46666666666667,-217.6
452,96.0,320.0,-215.46666666666667
453,128.0,458.6666666666667,-243.2
454,140.8,580.2666666666667,-262.4
455,147.2,646.4,-251.73333333333332
456,115.2,706.1333333333333,-273.06666666666666
457,85.33333333333333,733.8666666666667,-277.3333333333333
458,34.13333333333333,721.0666666666666,-262.4
459,-12.8,676.2666666666667,-245.33333333333334
460,-70.4,616.5333333333333,-256.0
461,-78.93333333333334,497.06666666666666,-236.79999999999998
462,-89.6,371.2,-213.33333333333334
463,-83.2,251.73333333333332,-198.4
464,-76.8,162.13333333333333,-172.8
465,-72.53333333333333,93.86666666666666,-157.86666666666667
466,-61.86666666666667,23.466666666666665,-147.2
467,-57.6,-12.8,-115.2
468,-74.66666666666667,-32.0,-91.73333333333333
469,-74.66666666666667,-40.53333333333333,-78.93333333333334
470,-38.4,-76.8,-55.46666666666667
471,-40.53333333333333,-100.26666666666667,-68.26666666666667
472,-10.666666666666666,-132.26666666666665,-74.66666666666667
473,-4.266666666666667,-136.53333333333333,-55.46666666666667
474,6.4,-138.66666666666666,-27.733333333333334
475,27.733333333333334,-138.66666666666666,-12.8
476,38.4,-138.66666666666666,-2.1333333333333333
477,53.333333333333336,-136.53333333333333,8.533333333333333
478,61.86666666666667,-123.73333333333333,14.933333333333334
479,68.26666666666667,-110.93333333333334,21.333333333333332
480,76.8,-85.33333333333333,44.8
481,81.06666666666666,-59.733333333333334,40.53333333333333
482,93.86666666666666,-32.0,51.2
483,85.33333333333333,0.0,46.93333333333333
484,81.06666666666666,10.666666666666666,53.333333333333336
485,70.4,29.866666666666667,68.26666666666667
486,44.8,34.13333333333333,72.53333333333333
487,6.4,42.666666666666664,74.66666666666667
488,-17.066666666666666,23.466666666666665,76.8
489,-53.333333333333336,4.266666666666667,91.73333333333333
490,-76.8,-14.933333333333334,91.73333333333333
491,-61.86666666666667,-32.0,87.46666666666667
492,-59.733333333333334,-44.8,66.13333333333333
493,-70.4,-51.2,72.53333333333333
494,-70.4,-53.333333333333336,44.8
495,-72.53333333333333,-55.46666666666667,27.733333333333334
496,-76.8,-49.06666666666666,10.666666666666666
497,-70.4,-44.8,-14.933333333333334
498,-61.86666666666667,-25.6,-40.53333333333333
499,-66.13333333333333,-12.8,-70.4
500,-61.86666666666667,6.4,-91.73333333333333
501,-38.4,27.733333333333334,-85.33333333333333
502,-29.866666666666667,38.4,-93.86666666666666
503,-17.066666666666666,51.2,-102.4
504,8.533333333333333,51.2,-102.4
505,21.333333333333332,68.26666666666667,-100.26666666666667
506,38.4,74.66666666666667,-113.06666666666666
507,57.6,91.73333333333333,-121.6
508,59.733333333333334,110.93333333333334,-132.26666666666665
509,68.26666666666667,117.33333333333333,-130.13333333333333
510,76.8,134.4,-132.26666666666665
511,78.93333333333334,123.73333333333333,-130.13333333333333
512,72.53333333333333,128.0,-119.46666666666667
513,59.733333333333334,121.6,-134.4
514,55.46666666666667,121.6,-125.86666666666666
515,49.06666666666666,108.8,-119.46666666666667
516,53.333333333333336,89.6,-108.8
517,32.0,81.06666666666666,-89.6
518,23.466666666666665,66.13333333333333,-78.93333333333334
519,49.06666666666666,55.46666666666667,-134.4
520,66.13333333333333,25.6,-160.0
521,64.0,-2.1333333333333333,-189.86666666666667
522,42.666666666666664,-53.333333333333336,-213.33333333333334
523,25.6,-119.46666666666667,-215.46666666666667
524,6.4,-213.33333333333334,-198.4
525,-10.666666666666666,-349.8666666666667,-192.0
526,-17.066666666666666,-482.1333333333333,-187.73333333333332
527,-23.466666666666665,-667.7333333333333,-194.13333333333333
528,-23.466666666666665,-795.7333333333333,-328.5333333333333
529,-23.466666666666665,-857.6,-558.9333333333333
530,-21.333333333333332,-896.0,-710.4
531,-34.13333333333333,-1019.7333333333333,-868.2666666666667
532,0.0,-1258.6666666666667,-876.8
533,25.6,-1472.0,-800.0
534,-59.733333333333334,-1550.9333333333334,-648.5333333333333
535,-217.6,-1531.7333333333333,-535.4666666666667
536,-426.6666666666667,-1501.8666666666666,-445.8666666666667
537,-507.73333333333335,-1514.6666666666667,-337.06666666666666
538,-441.59999999999997,-1565.8666666666666,-260.26666666666665
539,-307.2,-1604.2666666666667,-260.26666666666665
540,-226.13333333333333,-1593.6,-300.8
541,-209.06666666666666,-1478.4,-405.3333333333333
542,-157.86666666666667,-1294.9333333333334,-520.5333333333333
543,-85.33333333333333,-1098.6666666666667,-642.1333333333333
544,-34.13333333333333,-960.0,-706.1333333333333
545,10.666666666666666,-870.4,-708.2666666666667
546,59.733333333333334,-902.4,-612.2666666666667
547,102.4,-1030.4,-490.6666666666667
548,108.8,-1130.6666666666667,-435.2
549,49.06666666666666,-1154.1333333333332,-396.8
550,-32.0,-1126.4,-356.26666666666665
551,-108.8,-1051.7333333333333,-328.5333333333333
552,-136.53333333333333,-966.4,-296.5333333333333
553,-100.26666666666667,-906.6666666666666,-241.06666666666666
554,-70.4,-866.1333333333333,-213.33333333333334
555,-8.533333333333333,-846.9333333333333,-215.46666666666667
556,21.333333333333332,-817.0666666666666,-262.4
557,46.93333333333333,-804.2666666666667,-296.5333333333333
558,36.266666666666666,-800.0,-296.5333333333333
559,23.466666666666665,-810.6666666666666,-307.2
560,6.4,-814.9333333333333,-322.1333333333333
561,-6.4,-834.1333333333333,-349.8666666666667
562,-12.8,-864.0,-358.4
563,-10.666666666666666,-904.5333333333333,-349.8666666666667
564,-38.4,-955.7333333333333,-337.06666666666666
565,-49.06666666666666,-964.2666666666667,-349.8666666666667
566,-64.0,-936.5333333333333,-360.5333333333333
567,-83.2,-866.1333333333333,-386.1333333333333
568,-98.13333333333333,-832.0,-388.26666666666665
569,-113.06666666666666,-782.9333333333333,-364.8
570,-125.86666666666666,-733.8666666666667,-345.6
571,-136.53333333333333,-682.6666666666666,-315.73333333333335
572,-142.93333333333334,-650.6666666666666,-309.3333333333333
573,-147.2,-618.6666666666666,-302.93333333333334
574,-149.33333333333334,-558.9333333333333,-288.0
575,-147.2,-529.0666666666666,-279.46666666666664
576,-147.2,-477.8666666666667,-247.46666666666667
577,-145.06666666666666,-462.93333333333334,-238.93333333333334
578,-125.86666666666666,-422.4,-213.33333333333334
579,-119.46666666666667,-413.8666666666667,-213.33333333333334
580,-108.8,-403.2,-202.66666666666666
581,-98.13333333333333,-392.5333333333333,-192.0
582,-85.33333333333333,-390.4,-185.6
583,-72.53333333333333,-381.8666666666667,-185.6
584,-68.26666666666667,-371.2,-192.0
585,-38.4,-371.2,-200.53333333333333
586,-19.2,-354.1333333333333,-206.93333333333334
587,-4.266666666666667,-349.8666666666667,-209.06666666666666
588,12.8,-326.4,-202.66666666666666
589,40.53333333333333,-317.8666666666667,-196.26666666666665
590,53.333333333333336,-315.73333333333335,-185.6
591,61.86666666666667,-313.6,-183.46666666666667
592,66.13333333333333,-309.3333333333333,-162.13333333333333
593,66.13333333333333,-300.8,-160.0
594,70.4,-298.6666666666667,-160.0
595,61.86666666666667,-290.1333333333333,-151.46666666666667
596,57.6,-290.1333333333333,-147.2
597,42.666666666666664,-283.73333333333335,-147.2
598,40.53333333333333,-285.8666666666667,-149.33333333333334
599,34.13333333333333,-288.0,-147.2
600,34.13333333333333,-296.5333333333333,-151.46666666666667
601,32.0,-298.6666666666667,-155.73333333333332
602,19.2,-296.5333333333333,-155.73333333333332
603,21.333333333333332,-309.3333333333333,-172.8
604,8.533333333333333,-307.2,-166.4
605,6.4,-311.46666666666664,-181.33333333333334
606,4.266666666666667,-317.8666666666667,-187.73333333333332
607,4.266666666666667,-326.4,-204.8
608,-6.4,-343.46666666666664,-217.6
609,-8.533333333333333,-352.0,-224.0
610,-14.933333333333334,-362.6666666666667,-234.66666666666666
611,-42.666666666666664,-371.2,-253.86666666666667
612,-40.53333333333333,-388.26666666666665,-238.93333333333334
613,-53.333333333333336,-403.2,-238.93333333333334
614,-61.86666666666667,-411.73333333333335,-238.93333333333334
615,-66.13333333333333,-426.6666666666667,-236.79999999999998
616,-72.53333333333333,-433.06666666666666,-226.13333333333333
617,-78.93333333333334,-443.73333333333335,-213.33333333333334
618,-81.06666666666666,-460.8,-215.46666666666667
619,-57.6,-471.46666666666664,-209.06666666666666
620,-64.0,-480.0,-211.2
621,-53.333333333333336,-473.59999999999997,-211.2
622,-42.666666666666664,-477.8666666666667,-200.53333333333333
623,-42.666666666666664,-467.2,-221.86666666666667
624,-27.733333333333334,-469.3333333333333,-232.53333333333333
625,-21.333333333333332,-471.46666666666664,-217.6
626,-32.0,-473.59999999999997,-202.66666666666666
627,-17.066666666666666,-482.1333333333333,-200.53333333333333
628,-17.066666666666666,-494.93333333333334,-192.0
629,-17.066666666666666,-492.8,-187.73333333333332
630,-12.8,-497.06666666666666,-192.0
631,-8.533333333333333,-509.8666666666667,-206.93333333333334
632,-8.533333333333333,-497.06666666666666,-198.4
633,-14.933333333333334,-507.73333333333335,-196.26666666666665
634,-14.933333333333334,-514.1333333333333,-213.33333333333334
635,-17.066666666666666,-512.0,-213.33333333333334
636,-19.2,-520.5333333333333,-211.2
637,-21.333333333333332,-520.5333333333333,-209.06666666666666
638,-23.466666666666665,-520.5333333333333,-219.73333333333332
639,-23.466666666666665,-514.1333333333333,-211.2
640,-19.2,-516.2666666666667,-209.06666666666666
641,-17.066666666666666,-501.3333333333333,-215.46666666666667
642,-10.666666666666666,-507.73333333333335,-196.26666666666665
643,-6.4,-499.2,-202.66666666666666
644,8.533333333333333,-488.5333333333333,-204.8
645,-4.266666666666667,-486.4,-192.0
646,0.0,-475.73333333333335,-200.53333333333333
647,2.1333333333333333,-465.06666666666666,-202.66666666666666
648,4.266666666666667,-465.06666666666666,-200.53333333333333
649,8.533333333333333,-456.5333333333333,-189.86666666666667
650,6.4,-448.0,-202.66666666666666
651,2.1333333333333333,-439.46666666666664,-196.26666666666665
652,6.4,-437.3333333333333,-194.13333333333333
653,17.066666666666666,-450.1333333333333,-196.26666666666665
654,4.266666666666667,-452.26666666666665,-196.26666666666665
655,2.1333333333333333,-456.5333333333333,-187.73333333333332
656,8.533333333333333,-469.3333333333333,-194.13333333333333
657,6.4,-471.46666666666664,-194.13333333333333
658,-4.266666666666667,-473.59999999999997,-196.26666666666665
659,-2.1333333333333333,-473.59999999999997,-206.93333333333334
660,-4.266666666666667,-482.1333333333333,-206.93333333333334
661,-2.1333333333333333,-475.73333333333335,-224.0
662,2.1333333333333333,-482.1333333333333,-226.13333333333333
663,-6.4,-477.8666666666667,-230.4
664,-12.8,-475.73333333333335,-234.66666666666666
665,-12.8,-492.8,-228.26666666666665
666,-14.933333333333334,-490.6666666666667,-238.93333333333334
667,-12.8,-492.8,-241.06666666666666
668,-21.333333333333332,-494.93333333333334,-236.79999999999998
669,-19.2,-497.06666666666666,-241.06666666666666
670,-27.733333333333334,-492.8,-245.33333333333334
671,-19.2,-494.93333333333334,-243.2
672,-17.066666666666666,-499.2,-234.66666666666666
673,-12.8,-497.06666666666666,-247.46666666666667
674,-17.066666666666666,-486.4,-247.46666666666667
675,-17.066666666666666,-486.4,-230.4
676,-12.8,-488.5333333333333,-243.2
677,-12.8,-482.1333333333333,-243.2
678,-21.333333333333332,-469.3333333333333,-241.06666666666666
679,-14.933333333333334,-467.2,-241.06666666666666
680,-14.933333333333334,-473.59999999999997,-238.93333333333334
681,-17.066666666666666,-460.8,-241.06666666666666
682,-25.6,-460.8,-241.06666666666666
683,-14.933333333333334,-465.06666666666666,-232.53333333333333
684,-21.333333333333332,-458.6666666666667,-238.93333333333334
685,-27.733333333333334,-460.8,-238.93333333333334
686,-32.0,-462.93333333333334,-234.66666666666666
687,-27.733333333333334,-475.73333333333335,-241.06666666666666
688,-25.6,-465.06666666666666,-234.66666666666666
689,-29.866666666666667,-460.8,-232.53333333333333
690,-27.733333333333334,-465.06666666666666,-234.66666666666666
691,-34.13333333333333,-465.06666666666666,-238.93333333333334
692,-32.0,-471.46666666666664,-234.66666666666666
693,-38.4,-467.2,-241.06666666666666
694,-44.8,-480.0,-245.33333333333334
695,-29.866666666666667,-475.73333333333335,-249.6
696,-36.266666666666666,-484.26666666666665,-247.46666666666667
697,-44.8,-475.73333333333335,-256.0
698,-44.8,-480.0,-251.73333333333332
699,-40.53333333333333,-482.1333333333333,-260.26666666666665
700,-42.666666666666664,-486.4,-245.33333333333334
701,-42.666666666666664,-480.0,-249.6
702,-40.53333333333333,-480.0,-260.26666666666665
703,-42.666666666666664,-486.4,-256.0
704,-42.666666666666664,-475.73333333333335,-260.26666666666665
705,-36.266666666666666,-480.0,-253.86666666666667
706,-36.266666666666666,-475.73333333333335,-266.6666666666667
707,-29.866666666666667,-475.73333333333335,-266.6666666666667
708,-32.0,-480.0,-253.86666666666667
709,-23.466666666666665,-458.6666666666667,-266.6666666666667
710,-23.466666666666665,-471.46666666666664,-266.6666666666667
711,-27.733333333333334,-467.2,-262.4
712,-23.466666666666665,-471.46666666666664,-270.93333333333334
713,-23.466666666666665,-462.93333333333334,-264.5333333333333
714,-21.333333333333332,-462.93333333333334,-268.8
715,-17.066666666666666,-456.5333333333333,-262.4
716,-27.733333333333334,-456.5333333333333,-260.26666666666665
717,-23.466666666666665,-465.06666666666666,-268.8
718,-23.466666666666665,-462.93333333333334,-264.5333333333333
719,-27.733333333333334,-467.2,-266.6666666666667
720,-17.066666666666666,-480.0,-262.4
721,-17.066666666666666,-471.46666666666664,-268.8
722,-17.066666666666666,-469.3333333333333,-273.06666666666666
723,-19.2,-471.46666666666664,-273.06666666666666
724,-14.933333333333334,-467.2,-283.73333333333335
725,-19.2,-467.2,-273.06666666666666
726,-8.533333333333333,-475.73333333333335,-275.2
727,-14.933333333333334,-480.0,-285.8666666666667
728,-10.666666666666666,-477.8666666666667,-273.06666666666666
729,-17.066666666666666,-473.59999999999997,-294.4
730,-23.466666666666665,-473.59999999999997,-277.3333333333333
731,-29.866666666666667,-465.06666666666666,-285.8666666666667
732,-23.466666666666665,-465.06666666666666,-266.6666666666667
733,-23.466666666666665,-471.46666666666664,-268.8
734,-25.6,-469.3333333333333,-270.93333333333334
735,-25.6,-480.0,-260.26666666666665
736,-25.6,-465.06666666666666,-247.46666666666667
737,-27.733333333333334,-469.3333333333333,-251.73333333333332
738,-36.266666666666666,-471.46666666666664,-258.1333333333333
739,-27.733333333333334,-462.93333333333334,-260.26666666666665
740,-29.866666666666667,-469.3333333333333,-268.8
741,-21.333333333333332,-465.06666666666666,-260.26666666666665
742,-32.0,-465.06666666666666,-281.6
743,-25.6,-456.5333333333333,-270.93333333333334
744,-10.666666666666666,-469.3333333333333,-270.93333333333334
745,-19.2,-471.46666666666664,-266.6666666666667
746,-21.333333333333332,-469.3333333333333,-268.8
747,-17.066666666666666,-475.73333333333335,-266.6666666666667
748,-12.8,-482.1333333333333,-256.0
749,-21.333333333333332,-475.73333333333335,-262.4
750,-12.8,-477.8666666666667,-256.0
751,-19.2,-467.2,-262.4
752,-25.6,-465.06666666666666,-266.6666666666667
753,-8.533333333333333,-465.06666666666666,-256.0
754,-8.533333333333333,-465.06666666666666,-264.5333333333333
755,-8.533333333333333,-462.93333333333334,-256.0
756,-8.533333333333333,-462.93333333333334,-256.0
757,-6.4,-467.2,-253.86666666666667
758,-4.266666666666667,-469.3333333333333,-251.73333333333332
759,-2.1333333333333333,-462.93333333333334,-249.6
760,-2.1333333333333333,-465.06666666666666,-243.2
761,-6.4,-465.06666666666666,-258.1333333333333
762,-4.266666666666667,-460.8,-258.1333333333333
763,6.4,-462.93333333333334,-266.6666666666667
764,-6.4,-458.6666666666667,-262.4
765,-6.4,-454.4,-262.4
766,-12.8,-469.3333333333333,-262.4
767,-8.533333333333333,-469.3333333333333,-264.5333333333333
768,-8.533333333333333,-473.59999999999997,-253.86666666666667
769,-12.8,-475.73333333333335,-260.26666666666665
770,-10.666666666666666,-471.46666666666664,-260.26666666666665
771,-6.4,-471.46666666666664,-253.86666666666667
772,-6.4,-471.46666666666664,-258.1333333333333
773,2.1333333333333333,-460.8,-249.6
774,-8.533333333333333,-448.0,-226.13333333333333
775,-2.1333333333333333,-469.3333333333333,-247.46666666666667
776,-2.1333333333333333,-467.2,-245.33333333333334
777,-4.266666666666667,-469.3333333333333,-260.26666666666665
778,-2.1333333333333333,-471.46666666666664,-251.73333333333332
779,-6.4,-477.8666666666667,-247.46666666666667
780,-4.266666666666667,-469.3333333333333,-256.0
781,6.4,-475.73333333333335,-251.73333333333332
782,-2.1333333333333333,-475.73333333333335,-258.1333333333333
783,-6.4,-469.3333333333333,-251.73333333333332
784,-10.666666666666666,-471.46666666666664,-260.26666666666665
785,-6.4,-492.8,-253.86666666666667
786,-12.8,-469.3333333333333,-253.86666666666667
787,-8.533333333333333,-469.3333333333333,-260.26666666666665
788,-8.533333333333333,-471.46666666666664,-264.5333333333333
789,-12.8,-473.59999999999997,-251.73333333333332
790,-12.8,-475.73333333333335,-253.86666666666667
791,-8.533333333333333,-467.2,-243.2
792,-21.333333333333332,-469.3333333333333,-241.06666666666666
793,-12.8,-473.59999999999997,-247.46666666666667
794,-6.4,-475.73333333333335,-249.6
795,-10.666666666666666,-473.59999999999997,-247.46666666666667
796,-6.4,-471.46666666666664,-253.86666666666667
797,-8.533333333333333,-467.2,-241.06666666666666
798,-8.533333333333333,-475.73333333333335,-236.79999999999998
799,-8.533333333333333,-462.93333333333334,-249.6
800,-6.4,-477.8666666666667,-249.6
801,-8.533333333333333,-469.3333333333333,-241.06666666666666
802,-6.4,-475.73333333333335,-251.73333333333332
803,-6.4,-473.59999999999997,-245.33333333333334
804,-6.4,-473.59999999999997,-251.73333333333332
805,-2.1333333333333333,-475.73333333333335,-253.86666666666667
806,-8.533333333333333,-477.8666666666667,-243.2
807,4.266666666666667,-490.6666666666667,-228.26666666666665
808,-10.666666666666666,-488.5333333333333,-241.06666666666666
809,-8.533333333333333,-475.73333333333335,-243.2
810,-8.533333333333333,-477.8666666666667,-241.06666666666666
811,-10.666666666666666,-473.59999999999997,-241.06666666666666
812,-8.533333333333333,-471.46666666666664,-238.93333333333334
813,-8.533333333333333,-480.0,-238.93333333333334
814,-8.533333333333333,-473.59999999999997,-234.66666666666666
815,-8.533333333333333,-469.3333333333333,-236.79999999999998
816,-19.2,-482.1333333333333,-234.66666666666666
817,-8.533333333333333,-471.46666666666664,-234.66666666666666
818,-8.533333333333333,-471.46666666666664,-228.26666666666665
819,-4.266666666666667,-473.59999999999997,-234.66666666666666
820,-8.533333333333333,-469.3333333333333,-234.66666666666666
821,-19.2,-465.06666666666666,-238.93333333333334
822,-6.4,-471.46666666666664,-226.13333333333333
823,-8.533333333333333,-482.1333333333333,-236.79999999999998
824,-2.1333333333333333,-477.8666666666667,-241.06666666666666
825,-8.533333333333333,-480.0,-236.79999999999998
826,-6.4,-484.26666666666665,-243.2
827,-14.933333333333334,-480.0,-251.73333333333332
828,-10.666666666666666,-480.0,-243.2
829,-10.666666666666666,-477.8666666666667,-245.33333333333334
830,-12.8,-475.73333333333335,-243.2
831,-12.8,-477.8666666666667,-245.33333333333334
832,-12.8,-471.46666666666664,-238.93333333333334
833,-8.533333333333333,-475.73333333333335,-241.06666666666666
834,-12.8,-480.0,-238.93333333333334
835,-14.933333333333334,-477.8666666666667,-241.06666666666666
836,-14.933333333333334,-477.8666666666667,-232.53333333333333
837,-12.8,-475.73333333333335,-238.93333333333334
838,-14.933333333333334,-473.59999999999997,-241.06666666666666
839,-21.333333333333332,-471.46666666666664,-245.33333333333334
840,-6.4,-475.73333333333335,-238.93333333333334
841,-21.333333333333332,-471.46666666666664,-247.46666666666667
842,-21.333333333333332,-477.8666666666667,-238.93333333333334
843,-17.066666666666666,-473.59999999999997,-247.46666666666667
844,-23.466666666666665,-473.59999999999997,-245.33333333333334
845,-23.466666666666665,-465.06666666666666,-243.2
846,-14.933333333333334,-471.46666666666664,-243.2
847,-21.333333333333332,-469.3333333333333,-243.2
848,-17.066666666666666,-471.46666666666664,-241.06666666666666
849,-12.8,-469.3333333333333,-251.73333333333332
850,-10.666666666666666,-477.8666666666667,-251.73333333333332
851,-19.2,-486.4,-247.46666666666667
852,-8.533333333333333,-471.46666666666664,-251.73333333333332
853,-8.533333333333333,-471.46666666666664,-247.46666666666667
854,-14.933333333333334,-471.46666666666664,-243.2
855,-8.533333333333333,-473.59999999999997,-249.6
856,-12.8,-469.3333333333333,-247.46666666666667
857,-10.666666666666666,-471.46666666666664,-247.46666666666667
858,-8.533333333333333,-473.59999999999997,-251.73333333333332
859,-14.933333333333334,-462.93333333333334,-253.86666666666667
860,-8.533333333333333,-482.1333333333333,-249.6
861,-8.533333333333333,-477.8666666666667,-249.6
862,-14.933333333333334,-480.0,-253.86666666666667
863,-12.8,-482.1333333333333,-256.0
864,-8.533333333333333,-471.46666666666664,-245.33333333333334
865,-12.8,-473.59999999999997,-247.46666666666667
866,-8.533333333333333,-475.73333333333335,-243.2
867,-14.933333333333334,-465.06666666666666,-253.86666666666667
868,-12.8,-477.8666666666667,-249.6
869,-12.8,-475.73333333333335,-249.6
870,-6.4,-471.46666666666664,-258.1333333333333
871,-14.933333333333334,-471.46666666666664,-260.26666666666665
872,-17.066666666666666,-471.46666666666664,-256.0
873,-21.333333333333332,-465.06666666666666,-260.26666666666665
874,-17.066666666666666,-465.06666666666666,-256.0
875,-12.8,-465.06666666666666,-247.46666666666667
876,-10.666666666666666,-462.93333333333334,-251.73333333333332
877,-8.533333333333333,-465.06666666666666,-253.86666666666667
878,-12.8,-462.93333333333334,-256.0
879,-10.666666666666666,-477.8666666666667,-249.6
880,-8.533333333333333,-469.3333333333333,-247.46666666666667
881,-10.666666666666666,-471.46666666666664,-247.46666666666667
882,-12.8,-469.3333333333333,-258.1333333333333
883,-14.933333333333334,-486.4,-256.0
884,-12.8,-475.73333333333335,-260.26666666666665
885,-12.8,-475.73333333333335,-256.0
886,-12.8,-469.3333333333333,-258.1333333333333
887,-14.933333333333334,-480.0,-264.5333333333333
888,-12.8,-471.46666666666664,-260.26666666666665
889,-19.2,-469.3333333333333,-253.86666666666667
890,-8.533333333333333,-480.0,-247.46666666666667
891,-8.533333333333333,-471.46666666666664,-260.26666666666665
892,-19.2,-467.2,-253.86666666666667
893,-10.666666666666666,-471.46666666666664,-260.26666666666665
894,-17.066666666666666,-475.73333333333335,-270.93333333333334
895,-10.666666666666666,-467.2,-251.73333333333332
896,-21.333333333333332,-460.8,-262.4
897,-8.533333333333333,-458.6666666666667,-264.5333333333333
898,-14.933333333333334,-462.93333333333334,-264.5333333333333
899,-10.666666666666666,-465.06666666666666,-260.26666666666665
900,-14.933333333333334,-462.93333333333334,-260.26666666666665
901,-21.333333333333332,-460.8,-258.1333333333333
902,-21.333333333333332,-460.8,-256.0
903,-14.933333333333334,-467.2,-256.0
904,-14.933333333333334,-462.93333333333334,-258.1333333333333
905,-14.933333333333334,-471.46666666666664,-260.26666666666665
906,-17.066666666666666,-465.06666666666666,-264.5333333333333
907,-19.2,-465.06666666666666,-268.8
908,-21.333333333333332,-471.46666666666664,-268.8
909,-10.666666666666666,-467.2,-281.6
910,-12.8,-465.06666666666666,-279.46666666666664
911,-19.2,-467.2,-270.93333333333334
912,-8.533333333333333,-469.3333333333333,-273.06666666666666
913,-19.2,-469.3333333333333,-270.93333333333334
914,-25.6,-465.06666666666666,-279.46666666666664
915,-17.066666666666666,-467.2,-268.8
916,-21.333333333333332,-445.8666666666667,-288.0
917,-17.066666666666666,-471.46666666666664,-277.3333333333333
918,-10.666666666666666,-467.2,-281.6
919,-32.0,-471.46666666666664,-275.2
920,-25.6,-467.2,-270.93333333333334
921,-32.0,-473.59999999999997,-268.8
922,-23.466666666666665,-473.59999999999997,-275.2
923,-29.866666666666667,-475.73333333333335,-275.2
924,-25.6,-465.06666666666666,-279.46666666666664
925,-25.6,-471.46666666666664,-285.8666666666667
926,-29.866666666666667,-465.06666666666666,-273.06666666666666
927,-27.733333333333334,-467.2,-264.5333333333333
928,-34.13333333333333,-462.93333333333334,-270.93333333333334
929,-29.866666666666667,-462.93333333333334,-279.46666666666664
930,-29.866666666666667,-460.8,-273.06666666666666
931,-29.866666666666667,-458.6666666666667,-275.2
932,-29.866666666666667,-460.8,-275.2
933,-29.866666666666667,-462.93333333333334,-266.6666666666667
934,-27.733333333333334,-460.8,-277.3333333333333
935,-27.733333333333334,-458.6666666666667,-281.6
936,-27.733333333333334,-460.8,-285.8666666666667
937,-29.866666666666667,-456.5333333333333,-266.6666666666667
938,-40.53333333333333,-458.6666666666667,-281.6
939,-27.733333333333334,-460.8,-270.93333333333334
940,-27.733333333333334,-456.5333333333333,-283.73333333333335
941,-23.466666666666665,-467.2,-281.6
942,-27.733333333333334,-465.06666666666666,-270.93333333333334
943,-27.733333333333334,-467.2,-268.8
944,-29.866666666666667,-460.8,-277.3333333333333
945,-27.733333333333334,-458.6666666666667,-273.06666666666666
946,-25.6,-465.06666666666666,-264.5333333333333
947,-23.466666666666665,-465.06666666666666,-275.2
948,-27.733333333333334,-467.2,-268.8
949,-21.333333333333332,-460.8,-283.73333333333335
950,-25.6,-467.2,-270.93333333333334
951,-29.866666666666667,-460.8,-273.06666666666666
952,-27.733333333333334,-462.93333333333334,-273.06666666666666
953,-21.333333333333332,-465.06666666666666,-273.06666666666666
954,-25.6,-458.6666666666667,-264.5333333333333
955,-25.6,-465.06666666666666,-268.8
956,-32.0,-467.2,-266.6666666666667
957,-17.066666666666666,-462.93333333333334,-260.26666666666665
958,-25.6,-456.5333333333333,-275.2
959,-29.866666666666667,-454.4,-260.26666666666665
960,-23.466666666666665,-456.5333333333333,-268.8
961,-21.333333333333332,-456.5333333333333,-264.5333333333333
962,-21.333333333333332,-460.8,-273.06666666666666
963,-12.8,-465.06666666666666,-266.6666666666667
964,-21.333333333333332,-460.8,-279.46666666666664
965,-19.2,-465.06666666666666,-275.2
966,-23.466666666666665,-465.06666666666666,-277.3333333333333
967,-25.6,-462.93333333333334,-273.06666666666666
968,-12.8,-465.06666666666666,-268.8
969,-19.2,-465.06666666666666,-277.3333333333333
970,-34.13333333333333,-465.06666666666666,-264.5333333333333
971,-23.466666666666665,-467.2,-275.2
972,-21.333333333333332,-465.06666666666666,-273.06666666666666
973,-21.333333333333332,-471.46666666666664,-273.06666666666666
974,-23.466666666666665,-465.06666666666666,-275.2
975,-21.333333333333332,-467.2,-268.8
976,-21.333333333333332,-469.3333333333333,-277.3333333333333
977,-27.733333333333334,-471.46666666666664,-262.4
978,-25.6,-471.46666666666664,-266.6666666666667
979,-21.333333333333332,-462.93333333333334,-268.8
980,-21.333333333333332,-465.06666666666666,-253.86666666666667
981,-4.266666666666667,-456.5333333333333,-266.6666666666667
982,-25.6,-460.8,-260.26666666666665
983,-21.333333333333332,-471.46666666666664,-268.8
984,-21.333333333333332,-460.8,-275.2
985,-17.066666666666666,-465.06666666666666,-264.5333333333333
986,-19.2,-465.06666666666666,-260.26666666666665
987,-14.933333333333334,-465.06666666666666,-266.6666666666667
988,-19.2,-460.8,-262.4
989,-21.333333333333332,-458.6666666666667,-268.8
990,-19.2,-460.8,-266.6666666666667
991,-25.6,-467.2,-264.5333333333333
992,-27.733333333333334,-471.46666666666664,-288.0
993,-23.466666666666665,-460.8,-266.6666666666667
994,-17.066666666666666,-467.2,-264.5333333333333
995,-21.333333333333332,-465.06666666666666,-275.2
996,-17.066666666666666,-460.8,-270.93333333333334
997,-25.6,-460.8,-262.4
998,-23.466666666666665,-456.5333333333333,-262.4
999,-32.0,-471.46666666666664,-270.93333333333334
1000,-23.466666666666665,-460.8,-262.4
1001,-25.6,-469.3333333333333,-268.8
1002,-27.733333333333334,-456.5333333333333,-262.4
1003,-17.066666666666666,-473.59999999999997,-262.4
1004,-23.466666666666665,-469.3333333333333,-262.4
1005,-17.066666666666666,-467.2,-262.4
1006,-19.2,-467.2,-260.26666666666665
1007,-25.6,-473.59999999999997,-256.0
1008,-17.066666666666666,-465.06666666666666,-256.0
1009,-25.6,-469.3333333333333,-264.5333333333333
1010,-17.066666666666666,-469.3333333333333,-266.6666666666667
1011,-14.933333333333334,-465.06666666666666,-262.4
1012,-25.6,-465.06666666666666,-264.5333333333333
1013,-17.066666666666666,-469.3333333333333,-251.73333333333332
1014,-19.2,-467.2,-262.4
1015,-21.333333333333332,-469.3333333333333,-258.1333333333333
1016,-23.466666666666665,-469.3333333333333,-260.26666666666665
1017,-12.8,-471.46666666666664,-253.86666666666667
1018,-19.2,-467.2,-258.1333333333333
1019,-17.066666666666666,-465.06666666666666,-260.26666666666665
1020,-21.333333333333332,-460.8,-258.1333333333333
1021,-21.333333333333332,-465.06666666666666,-266.6666666666667
1022,-19.2,-460.8,-260.26666666666665
1023,-19.2,-462.93333333333334,-264.5333333333333
1024,-8.533333333333333,-465.06666666666666,-268.8
1025,-19.2,-473.59999999999997,-264.5333333333333
1026,-14.933333333333334,-471.46666666666664,-256.0
1027,-10.666666666666666,-462.93333333333334,-262.4
1028,-21.333333333333332,-460.8,-260.26666666666665
1029,-12.8,-465.06666666666666,-262.4
1030,-19.2,-467.2,-262.4
1031,-19.2,-465.06666666666666,-262.4
1032,-21.333333333333332,-462.93333333333334,-266.6666666666667
1033,-23.466666666666665,-462.93333333333334,-266.6666666666667
1034,-25.6,-475.73333333333335,-256.0
1035,-17.066666666666666,-467.2,-266.6666666666667
1036,-12.8,-475.73333333333335,-264.5333333333333
1037,-12.8,-473.59999999999997,-258.1333333333333
1038,-21.333333333333332,-473.59999999999997,-260.26666666666665
1039,-19.2,-471.46666666666664,-262.4
1040,-14.933333333333334,-473.59999999999997,-258.1333333333333
1041,-23.466666666666665,-462.93333333333334,-258.1333333333333
1042,-17.066666666666666,-467.2,-260.26666666666665
1043,-17.066666666666666,-462.93333333333334,-251.73333333333332
1044,-19.2,-456.5333333333333,-258.1333333333333
1045,-14.933333333333334,-462.93333333333334,-258.1333333333333
1046,-17.066666666666666,-469.3333333333333,-256.0
1047,-17.066666666666666,-465.06666666666666,-260.26666666666665
1048,-17.066666666666666,-467.2,-258.1333333333333
1049,-21.333333333333332,-462.93333333333334,-260.26666666666665
1050,-21.333333333333332,-465.06666666666666,-253.86666666666667
1051,-14.933333333333334,-469.3333333333333,-258.1333333333333
1052,-23.466666666666665,-465.06666666666666,-264.5333333333333
1053,-25.6,-465.06666666666666,-258.1333333333333
1054,-23.466666666666665,-465.06666666666666,-264.5333333333333
1055,-21.333333333333332,-467.2,-264.5333333333333
1056,-23.466666666666665,-469.3333333333333,-268.8
1057,-21.333333333333332,-469.3333333333333,-262.4
1058,-27.733333333333334,-462.93333333333334,-262.4
1059,-21.333333333333332,-462.93333333333334,-260.26666666666665
1060,-17.066666666666666,-467.2,-258.1333333333333
1061,-19.2,-467.2,-258.1333333333333
1062,-21.333333333333332,-469.3333333333333,-260.26666666666665
1063,-23.466666666666665,-462.93333333333334,-262.4
1064,-19.2,-465.06666666666666,-256.0
1065,-21.333333333333332,-471.46666666666664,-256.0
1066,-21.333333333333332,-465.06666666666666,-268.8
1067,-23.466666666666665,-467.2,-262.4
1068,-27.733333333333334,-473.59999999999997,-251.73333333333332
1069,-25.6,-465.06666666666666,-264.5333333333333
1070,-25.6,-473.59999999999997,-256.0
1071,-19.2,-473.59999999999997,-260.26666666666665
1072,-23.466666666666665,-465.06666666666666,-260.26666666666665
1073,-21.333333333333332,-462.93333333333334,-262.4
1074,-19.2,-473.59999999999997,-249.6
1075,-23.466666666666665,-467.2,-256.0
1076,-14.933333333333334,-469.3333333333333,-260.26666666666665
1077,-17.066666666666666,-469.3333333333333,-256.0
1078,-19.2,-467.2,-258.1333333333333
1079,-25.6,-473.59999999999997,-249.6
1080,-19.2,-465.06666666666666,-253.86666666666667
1081,-21.333333333333332,-462.93333333333334,-256.0
1082,-19.2,-465.06666666666666,-260.26666666666665
1083,-23.466666666666665,-467.2,-260.26666666666665
1084,-17.066666666666666,-469.3333333333333,-251.73333333333332
1085,-12.8,-467.2,-256.0
1086,-23.466666666666665,-469.3333333333333,-266.6666666666667
1087,-23.466666666666665,-465.06666666666666,-266.6666666666667
1088,-17.066666666666666,-458.6666666666667,-264.5333333333333
1089,-25.6,-458.6666666666667,-273.06666666666666
1090,-12.8,-477.8666666666667,-270.93333333333334
1091,-23.466666666666665,-462.93333333333334,-262.4
1092,-21.333333333333332,-465.06666666666666,-270.93333333333334
1093,-19.2,-460.8,-260.26666666666665
1094,-23.466666666666665,-467.2,-258.1333333333333
1095,-21.333333333333332,-458.6666666666667,-268.8
1096,-23.466666666666665,-469.3333333333333,-264.5333333333333
1097,-25.6,-465.06666666666666,-273.06666666666666
1098,-17.066666666666666,-471.46666666666664,-268.8
1099,-14.933333333333334,-469.3333333333333,-270.93333333333334
1100,-25.6,-454.4,-268.8
1101,-23.466666666666665,-469.3333333333333,-268.8
1102,-23.466666666666665,-462.93333333333334,-268.8
1103,-21.333333333333332,-460.8,-270.93333333333334
1104,-23.466666666666665,-462.93333333333334,-273.06666666666666
1105,-25.6,-465.06666666666666,-277.3333333333333
1106,-29.866666666666667,-462.93333333333334,-273.06666666666666
1107,-27.733333333333334,-458.6666666666667,-273.06666666666666
1108,-32.0,-467.2,-275.2
1109,-23.466666666666665,-458.6666666666667,-281.6
1110,-27.733333333333334,-458.6666666666667,-283.73333333333335
1111,-36.266666666666666,-458.6666666666667,-275.2
1112,-14.933333333333334,-467.2,-266.6666666666667
1113,-27.733333333333334,-462.93333333333334,-283.73333333333335
1114,-32.0,-465.06666666666666,-288.0
1115,-27.733333333333334,-460.8,-285.8666666666667
1116,-32.0,-465.06666666666666,-281.6
1117,-38.4,-458.6666666666667,-277.3333333333333
1118,-34.13333333333333,-462.93333333333334,-281.6
1119,-32.0,-460.8,-270.93333333333334
1120,-29.866666666666667,-458.6666666666667,-266.6666666666667
1121,-27.733333333333334,-469.3333333333333,-266.6666666666667
1122,-42.666666666666664,-456.5333333333333,-275.2
1123,-32.0,-465.06666666666666,-266.6666666666667
1124,-25.6,-460.8,-275.2
1125,-29.866666666666667,-460.8,-264.5333333333333
1126,-25.6,-469.3333333333333,-268.8
1127,-27.733333333333334,-469.3333333333333,-270.93333333333334
1128,-25.6,-467.2,-266.6666666666667
1129,-25.6,-467.2,-273.06666666666666
1130,-23.466666666666665,-467.2,-266.6666666666667
1131,-32.0,-467.2,-275.2
1132,-14.933333333333334,-469.3333333333333,-268.8
1133,-27.733333333333334,-467.2,-258.1333333333333
1134,-19.2,-475.73333333333335,-258.1333333333333
1135,-23.466666666666665,-458.6666666666667,-273.06666666666666
1136,-12.8,-467.2,-264.5333333333333
1137,-25.6,-454.4,-264.5333333333333
1138,-23.466666666666665,-462.93333333333334,-258.1333333333333
1139,-23.466666666666665,-462.93333333333334,-260.26666666666665
1140,-23.466666666666665,-465.06666666666666,-262.4
1141,-19.2,-469.3333333333333,-253.86666666666667
1142,-17.066666666666666,-456.5333333333333,-258.1333333333333
1143,-19.2,-460.8,-268.8
1144,-21.333333333333332,-450.1333333333333,-268.8
1145,-12.8,-445.8666666666667,-268.8
1146,-17.066666666666666,-458.6666666666667,-270.93333333333334
1147,-23.466666666666665,-456.5333333333333,-264.5333333333333
1148,-19.2,-454.4,-277.3333333333333
1149,-25.6,-450.1333333333333,-281.6
1150,-23.466666666666665,-454.4,-273.06666666666666
1151,-21.333333333333332,-450.1333333333333,-281.6
1152,-34.13333333333333,-441.59999999999997,-283.73333333333335
1153,-29.866666666666667,-448.0,-292.26666666666665
1154,-32.0,-448.0,-288.0
1155,-21.333333333333332,-445.8666666666667,-288.0
1156,-29.866666666666667,-445.8666666666667,-307.2
1157,-23.466666666666665,-441.59999999999997,-292.26666666666665
1158,-29.866666666666667,-443.73333333333335,-288.0
1159,-23.466666666666665,-439.46666666666664,-292.26666666666665
1160,-14.933333333333334,-439.46666666666664,-294.4
1161,-19.2,-437.3333333333333,-296.5333333333333
1162,-8.533333333333333,-441.59999999999997,-300.8
1163,-12.8,-428.8,-298.6666666666667
1164,-19.2,-430.93333333333334,-300.8
1165,-19.2,-422.4,-305.06666666666666
1166,-2.1333333333333333,-426.6666666666667,-317.8666666666667
1167,-17.066666666666666,-411.73333333333335,-315.73333333333335
1168,-14.933333333333334,-407.46666666666664,-313.6
1169,-10.666666666666666,-403.2,-317.8666666666667
1170,-8.533333333333333,-388.26666666666665,-322.1333333333333
1171,-14.933333333333334,-369.06666666666666,-326.4
1172,-17.066666666666666,-356.26666666666665,-322.1333333333333
1173,-10.666666666666666,-343.46666666666664,-334.93333333333334
1174,-8.533333333333333,-332.8,-324.26666666666665
1175,-12.8,-317.8666666666667,-328.5333333333333
1176,-6.4,-300.8,-315.73333333333335
1177,-10.666666666666666,-279.46666666666664,-326.4
1178,-21.333333333333332,-273.06666666666666,-309.3333333333333
1179,-19.2,-260.26666666666665,-296.5333333333333
1180,-17.066666666666666,-258.1333333333333,-281.6
1181,-25.6,-245.33333333333334,-273.06666666666666
1182,-23.466666666666665,-247.46666666666667,-256.0
1183,-32.0,-243.2,-238.93333333333334
1184,-25.6,-245.33333333333334,-215.46666666666667
1185,-34.13333333333333,-249.6,-198.4
1186,-27.733333333333334,-260.26666666666665,-185.6
1187,-25.6,-266.6666666666667,-179.2
1188,-25.6,-275.2,-164.26666666666665
1189,-14.933333333333334,-277.3333333333333,-153.6
1190,-17.066666666666666,-279.46666666666664,-149.33333333333334
1191,-12.8,-275.2,-153.6
1192,-10.666666666666666,-273.06666666666666,-160.0
1193,-10.666666666666666,-273.06666666666666,-174.93333333333334
1194,-23.466666666666665,-256.0,-198.4
1195,-27.733333333333334,-241.06666666666666,-221.86666666666667
1196,-27.733333333333334,-224.0,-243.2
1197,-29.866666666666667,-226.13333333333333,-249.6
1198,-32.0,-224.0,-264.5333333333333
1199,-44.8,-236.79999999999998,-256.0
1200,-51.2,-253.86666666666667,-241.06666666666666
1201,-68.26666666666667,-264.5333333333333,-234.66666666666666
1202,-76.8,-281.6,-228.26666666666665
1203,-81.06666666666666,-322.1333333333333,-211.2
1204,-85.33333333333333,-334.93333333333334,-211.2
1205,-83.2,-356.26666666666665,-213.33333333333334
1206,-81.06666666666666,-364.8,-215.46666666666667
1207,-70.4,-384.0,-221.86666666666667
1208,-64.0,-394.6666666666667,-238.93333333333334
1209,-70.4,-403.2,-236.79999999999998
1210,-59.733333333333334,-418.1333333333333,-253.86666666666667
1211,-49.06666666666666,-416.0,-251.73333333333332
1212,-44.8,-433.06666666666666,-247.46666666666667
1213,-40.53333333333333,-443.73333333333335,-266.6666666666667
1214,-36.266666666666666,-454.4,-275.2
1215,-36.266666666666666,-456.5333333333333,-290.1333333333333
1216,-23.466666666666665,-465.06666666666666,-315.73333333333335
1217,-12.8,-469.3333333333333,-328.5333333333333
1218,-10.666666666666666,-462.93333333333334,-343.46666666666664
1219,-8.533333333333333,-473.59999999999997,-362.6666666666667
1220,-12.8,-477.8666666666667,-371.2
1221,-10.666666666666666,-477.8666666666667,-388.26666666666665
1222,-21.333333333333332,-512.0,-377.6
1223,-34.13333333333333,-541.8666666666667,-377.6
1224,-40.53333333333333,-563.2,-388.26666666666665
1225,-40.53333333333333,-582.4,-403.2
1226,-38.4,-605.8666666666667,-416.0
1227,-34.13333333333333,-625.0666666666666,-445.8666666666667
1228,-27.733333333333334,-642.1333333333333,-458.6666666666667
1229,-21.333333333333332,-663.4666666666667,-473.59999999999997
1230,-10.666666666666666,-680.5333333333333,-503.46666666666664
1231,-8.533333333333333,-708.2666666666667,-507.73333333333335
1232,-12.8,-753.0666666666666,-520.5333333333333
1233,-10.666666666666666,-793.6,-529.0666666666666
1234,-12.8,-817.0666666666666,-539.7333333333333
1235,-17.066666666666666,-853.3333333333334,-561.0666666666666
1236,-19.2,-887.4666666666667,-578.1333333333333
1237,-23.466666666666665,-921.6,-616.5333333333333
1238,-46.93333333333333,-936.5333333333333,-669.8666666666667
1239,-51.2,-960.0,-697.6
1240,-61.86666666666667,-974.9333333333333,-750.9333333333333
1241,-74.66666666666667,-1000.5333333333333,-800.0
1242,-91.73333333333333,-1041.0666666666666,-808.5333333333333
1243,-87.46666666666667,-1066.6666666666667,-817.0666666666666
1244,-81.06666666666666,-1109.3333333333333,-810.6666666666666
1245,-74.66666666666667,-1158.4,-800.0
1246,-68.26666666666667,-1194.6666666666667,-812.8
1247,-66.13333333333333,-1226.6666666666667,-817.0666666666666
1248,-61.86666666666667,-1239.4666666666667,-821.3333333333334
1249,-59.733333333333334,-1256.5333333333333,-827.7333333333333
1250,-70.4,-1252.2666666666667,-832.0
1251,-83.2,-1241.6,-838.4
1252,-96.0,-1233.0666666666666,-829.8666666666667
1253,-110.93333333333334,-1222.4,-829.8666666666667
1254,-113.06666666666666,-1213.8666666666666,-802.1333333333333
1255,-123.73333333333333,-1201.0666666666666,-778.6666666666666
1256,-134.4,-1179.7333333333333,-742.4
1257,-149.33333333333334,-1164.8,-704.0
1258,-166.4,-1152.0,-678.4
1259,-192.0,-1132.8,-637.8666666666667
1260,-211.2,-1088.0,-625.0666666666666
1261,-228.26666666666665,-1009.0666666666666,-622.9333333333333
1262,-234.66666666666666,-953.6,-627.2
1263,-226.13333333333333,-853.3333333333334,-618.6666666666666
1264,-202.66666666666666,-787.2,-646.4
1265,-172.8,-714.6666666666666,-616.5333333333333
1266,-151.46666666666667,-640.0,-569.6
1267,-142.93333333333334,-597.3333333333334,-526.9333333333333
1268,-130.13333333333333,-526.9333333333333,-503.46666666666664
1269,-89.6,-469.3333333333333,-473.59999999999997
1270,-46.93333333333333,-411.73333333333335,-407.46666666666664
1271,-14.933333333333334,-334.93333333333334,-328.5333333333333
1272,-2.1333333333333333,-296.5333333333333,-262.4
1273,10.666666666666666,-221.86666666666667,-209.06666666666666
1274,17.066666666666666,-147.2,-157.86666666666667
1275,29.866666666666667,-89.6,-119.46666666666667
1276,34.13333333333333,-29.866666666666667,-134.4
1277,46.93333333333333,49.06666666666666,-113.06666666666666
1278,42.666666666666664,136.53333333333333,-113.06666666666666
1279,59.733333333333334,215.46666666666667,-140.8
1280,55.46666666666667,281.6,-153.6
1281,38.4,352.0,-157.86666666666667
1282,38.4,398.93333333333334,-174.93333333333334
1283,19.2,441.59999999999997,-183.46666666666667
1284,8.533333333333333,469.3333333333333,-177.06666666666666
1285,-8.533333333333333,490.6666666666667,-215.46666666666667
1286,-17.066666666666666,482.1333333333333,-215.46666666666667
1287,-27.733333333333334,469.3333333333333,-226.13333333333333
1288,-4.266666666666667,422.4,-219.73333333333332
1289,12.8,375.46666666666664,-187.73333333333332
1290,25.6,328.5333333333333,-160.0
1291,38.4,294.4,-134.4
1292,49.06666666666666,249.6,-110.93333333333334
1293,57.6,192.0,-89.6
1294,68.26666666666667,134.4,-57.6
1295,68.26666666666667,85.33333333333333,-34.13333333333333
1296,76.8,44.8,-10.666666666666666
1297,64.0,2.1333333333333333,-8.533333333333333
1298,64.0,-38.4,-14.933333333333334
1299,72.53333333333333,-70.4,-25.6
1300,70.4,-87.46666666666667,-38.4
1301,66.13333333333333,-110.93333333333334,-40.53333333333333
1302,66.13333333333333,-130.13333333333333,-49.06666666666666
1303,70.4,-119.46666666666667,-55.46666666666667
1304,55.46666666666667,-123.73333333333333,-55.46666666666667
1305,49.06666666666666,-117.33333333333333,-59.733333333333334
1306,38.4,-85.33333333333333,-59.733333333333334
1307,32.0,-66.13333333333333,-46.93333333333333
1308,14.933333333333334,-53.333333333333336,-32.0
1309,12.8,-32.0,-23.466666666666665
1310,-12.8,-12.8,-12.8
1311,-12.8,6.4,0.0
1312,-38.4,17.066666666666666,17.066666666666666
1313,-46.93333333333333,29.866666666666667,32.0
1314,-55.46666666666667,42.666666666666664,25.6
1315,-68.26666666666667,51.2,23.466666666666665
1316,-74.66666666666667,53.333333333333336,10.666666666666666
1317,-74.66666666666667,55.46666666666667,4.266666666666667
1318,-72.53333333333333,57.6,-4.266666666666667
1319,-68.26666666666667,49.06666666666666,-14.933333333333334
1320,-61.86666666666667,42.666666666666664,-17.066666666666666
1321,-72.53333333333333,51.2,-29.866666666666667
1322,-72.53333333333333,44.8,-44.8
1323,-74.66666666666667,36.266666666666666,-44.8
1324,-70.4,32.0,-64.0
1325,-74.66666666666667,23.466666666666665,-68.26666666666667
1326,-76.8,17.066666666666666,-72.53333333333333
1327,-74.66666666666667,12.8,-83.2
1328,-66.13333333333333,21.333333333333332,-85.33333333333333
1329,-61.86666666666667,19.2,-93.86666666666666
1330,-51.2,38.4,-117.33333333333333
1331,-44.8,51.2,-113.06666666666666
1332,-44.8,85.33333333333333,-121.6
1333,-25.6,81.06666666666666,-123.73333333333333
1334,-19.2,91.73333333333333,-117.33333333333333
1335,-10.666666666666666,85.33333333333333,-93.86666666666666
1336,-10.666666666666666,61.86666666666667,-70.4
1337,-2.1333333333333333,36.266666666666666,-68.26666666666667
1338,27.733333333333334,25.6,-89.6
1339,72.53333333333333,4.266666666666667,-134.4
1340,49.06666666666666,-55.46666666666667,-142.93333333333334
1341,34.13333333333333,-117.33333333333333,-151.46666666666667
1342,27.733333333333334,-145.06666666666666,-183.46666666666667
1343,4.266666666666667,-166.4,-264.5333333333333
1344,-12.8,-209.06666666666666,-337.06666666666666
1345,-19.2,-268.8,-424.5333333333333
1346,-21.333333333333332,-326.4,-571.7333333333333
1347,-34.13333333333333,-373.3333333333333,-706.1333333333333
1348,-44.8,-467.2,-812.8
1349,-51.2,-603.7333333333333,-814.9333333333333
1350,-42.666666666666664,-797.8666666666667,-744.5333333333333
1351,23.466666666666665,-1013.3333333333334,-652.8
1352,91.73333333333333,-1154.1333333333332,-620.8
1353,213.33333333333334,-1256.5333333333333,-627.2
1354,226.13333333333333,-1256.5333333333333,-631.4666666666667
1355,119.46666666666667,-1203.2,-552.5333333333333
1356,-38.4,-1184.0,-492.8
1357,-219.73333333333332,-1273.6,-424.5333333333333
1358,-288.0,-1429.3333333333333,-371.2
1359,-256.0,-1582.9333333333334,-396.8
1360,-200.53333333333333,-1597.8666666666666,-499.2
1361,-151.46666666666667,-1506.1333333333332,-648.5333333333333
1362,-98.13333333333333,-1297.0666666666666,-859.7333333333333
1363,-32.0,-1021.8666666666667,-1077.3333333333333
1364,25.6,-806.4,-1160.5333333333333
1365,76.8,-776.5333333333333,-1030.4
1366,91.73333333333333,-868.2666666666667,-823.4666666666667
1367,85.33333333333333,-1019.7333333333333,-571.7333333333333
1368,40.53333333333333,-1102.9333333333334,-437.3333333333333
1369,-44.8,-1085.8666666666666,-430.93333333333334
1370,-108.8,-1053.8666666666666,-430.93333333333334
1371,-179.2,-985.6,-430.93333333333334
1372,-185.6,-915.1999999999999,-422.4
1373,-177.06666666666666,-844.8,-405.3333333333333
1374,-147.2,-778.6666666666666,-416.0
1375,-115.2,-750.9333333333333,-405.3333333333333
1376,-76.8,-706.1333333333333,-411.73333333333335
1377,-32.0,-693.3333333333334,-411.73333333333335
1378,-23.466666666666665,-697.6,-396.8
1379,-23.466666666666665,-727.4666666666667,-394.6666666666667
1380,-29.866666666666667,-742.4,-394.6666666666667
1381,-42.666666666666664,-774.4,-388.26666666666665
1382,-49.06666666666666,-817.0666666666666,-428.8
1383,-49.06666666666666,-851.1999999999999,-443.73333333333335
1384,-57.6,-868.2666666666667,-469.3333333333333
1385,-55.46666666666667,-870.4,-486.4
1386,-57.6,-855.4666666666667,-497.06666666666666
1387,-55.46666666666667,-838.4,-499.2
1388,-70.4,-812.8,-497.06666666666666
1389,-76.8,-785.0666666666666,-477.8666666666667
1390,-89.6,-746.6666666666666,-454.4
1391,-98.13333333333333,-716.8,-433.06666666666666
1392,-108.8,-682.6666666666666,-422.4
1393,-110.93333333333334,-635.7333333333333,-405.3333333333333
1394,-117.33333333333333,-593.0666666666666,-379.73333333333335
1395,-115.2,-548.2666666666667,-364.8
1396,-119.46666666666667,-512.0,-343.46666666666664
1397,-113.06666666666666,-471.46666666666664,-322.1333333333333
1398,-100.26666666666667,-439.46666666666664,-305.06666666666666
1399,-96.0,-413.8666666666667,-298.6666666666667
1400,-78.93333333333334,-386.1333333333333,-275.2
1401,-72.53333333333333,-347.73333333333335,-262.4
1402,-55.46666666666667,-322.1333333333333,-241.06666666666666
1403,-51.2,-313.6,-238.93333333333334
1404,-29.866666666666667,-266.6666666666667,-215.46666666666667
1405,-6.4,-253.86666666666667,-213.33333333333334
1406,14.933333333333334,-234.66666666666666,-209.06666666666666
1407,32.0,-209.06666666666666,-202.66666666666666
1408,42.666666666666664,-204.8,-200.53333333333333
1409,61.86666666666667,-183.46666666666667,-196.26666666666665
1410,66.13333333333333,-168.53333333333333,-179.2
1411,68.26666666666667,-168.53333333333333,-179.2
1412,66.13333333333333,-166.4,-164.26666666666665
1413,66.13333333333333,-164.26666666666665,-170.66666666666666
1414,66.13333333333333,-157.86666666666667,-155.73333333333332
1415,51.2,-162.13333333333333,-162.13333333333333
1416,42.666666666666664,-185.6,-168.53333333333333
1417,27.733333333333334,-192.0,-181.33333333333334
1418,21.333333333333332,-209.06666666666666,-183.46666666666667
1419,14.933333333333334,-230.4,-194.13333333333333
1420,4.266666666666667,-243.2,-200.53333333333333
1421,-4.266666666666667,-253.86666666666667,-215.46666666666667
1422,-17.066666666666666,-273.06666666666666,-213.33333333333334
1423,-27.733333333333334,-288.0,-219.73333333333332
1424,-38.4,-294.4,-221.86666666666667
1425,-36.266666666666666,-296.5333333333333,-213.33333333333334
1426,-44.8,-298.6666666666667,-243.2
1427,-42.666666666666664,-302.93333333333334,-238.93333333333334
1428,-49.06666666666666,-298.6666666666667,-247.46666666666667
1429,-46.93333333333333,-298.6666666666667,-256.0
1430,-53.333333333333336,-307.2,-258.1333333333333
1431,-59.733333333333334,-315.73333333333335,-279.46666666666664
1432,-64.0,-317.8666666666667,-281.6
1433,-59.733333333333334,-343.46666666666664,-283.73333333333335
1434,-59.733333333333334,-358.4,-294.4
1435,-55.46666666666667,-381.8666666666667,-298.6666666666667
1436,-61.86666666666667,-407.46666666666664,-294.4
1437,-57.6,-418.1333333333333,-292.26666666666665
1438,-46.93333333333333,-441.59999999999997,-305.06666666666666
1439,-40.53333333333333,-458.6666666666667,-311.46666666666664
1440,-27.733333333333334,-482.1333333333333,-317.8666666666667
1441,-23.466666666666665,-490.6666666666667,-315.73333333333335
1442,-8.533333333333333,-505.59999999999997,-309.3333333333333
1443,-4.266666666666667,-516.2666666666667,-315.73333333333335
1444,4.266666666666667,-526.9333333333333,-313.6
1445,14.933333333333334,-533.3333333333334,-300.8
1446,6.4,-524.8,-320.0
1447,6.4,-531.2,-296.5333333333333
1448,10.666666666666666,-531.2,-290.1333333333333
1449,8.533333333333333,-531.2,-285.8666666666667
1450,2.1333333333333333,-520.5333333333333,-283.73333333333335
1451,12.8,-522.6666666666666,-262.4
1452,8.533333333333333,-514.1333333333333,-262.4
1453,10.666666666666666,-505.59999999999997,-258.1333333333333
1454,4.266666666666667,-497.06666666666666,-262.4
1455,10.666666666666666,-497.06666666666666,-258.1333333333333
1456,2.1333333333333333,-475.73333333333335,-262.4
1457,2.1333333333333333,-471.46666666666664,-262.4
1458,-4.266666666666667,-467.2,-251.73333333333332
1459,-2.1333333333333333,-467.2,-236.79999999999998
1460,-2.1333333333333333,-458.6666666666667,-236.79999999999998
1461,-8.533333333333333,-456.5333333333333,-238.93333333333334
1462,-8.533333333333333,-452.26666666666665,-238.93333333333334
1463,-8.533333333333333,-443.73333333333335,-238.93333333333334
1464,-6.4,-437.3333333333333,-236.79999999999998
1465,-8.533333333333333,-433.06666666666666,-245.33333333333334
1466,-12.8,-426.6666666666667,-238.93333333333334
1467,-12.8,-430.93333333333334,-236.79999999999998
1468,-21.333333333333332,-452.26666666666665,-241.06666666666666
1469,-10.666666666666666,-443.73333333333335,-228.26666666666665
1470,-17.066666666666666,-452.26666666666665,-245.33333333333334
1471,-10.666666666666666,-454.4,-256.0
1472,-10.666666666666666,-452.26666666666665,-262.4
1473,-19.2,-439.46666666666664,-264.5333333333333
1474,-17.066666666666666,-430.93333333333334,-270.93333333333334
1475,-17.066666666666666,-416.0,-273.06666666666666
1476,-25.6,-411.73333333333335,-277.3333333333333
1477,-12.8,-411.73333333333335,-273.06666666666666
1478,-17.066666666666666,-424.5333333333333,-249.6
1479,-14.933333333333334,-437.3333333333333,-224.0
1480,-27.733333333333334,-448.0,-217.6
1481,-21.333333333333332,-454.4,-215.46666666666667
1482,-25.6,-473.59999999999997,-211.2
1483,-14.933333333333334,-480.0,-200.53333333333333
1484,-10.666666666666666,-488.5333333333333,-209.06666666666666
1485,-6.4,-499.2,-202.66666666666666
1486,-12.8,-507.73333333333335,-194.13333333333333
1487,-8.533333333333333,-507.73333333333335,-185.6
1488,-8.533333333333333,-507.73333333333335,-202.66666666666666
1489,-10.666666666666666,-509.8666666666667,-192.0
1490,-2.1333333333333333,-499.2,-198.4
1491,-12.8,-507.73333333333335,-211.2
1492,-12.8,-488.5333333333333,-215.46666666666667
1493,-17.066666666666666,-486.4,-217.6
1494,-12.8,-488.5333333333333,-226.13333333333333
1495,-19.2,-484.26666666666665,-230.4
1496,-27.733333333333334,-473.59999999999997,-226.13333333333333
1497,-27.733333333333334,-475.73333333333335,-234.66666666666666
1498,-27.733333333333334,-460.8,-238.93333333333334
1499,-21.333333333333332,-458.6666666666667,-236.79999999999998
1500,-32.0,-452.26666666666665,-224.0
1501,-36.266666666666666,-448.0,-234.66666666666666
1502,-25.6,-454.4,-241.06666666666666
1503,-32.0,-450.1333333333333,-243.2
1504,-27.733333333333334,-458.6666666666667,-228.26666666666665
1505,-29.866666666666667,-458.6666666666667,-221.86666666666667
1506,-19.2,-469.3333333333333,-221.86666666666667
1507,-19.2,-471.46666666666664,-228.26666666666665
1508,-17.066666666666666,-475.73333333333335,-232.53333333333333
1509,-12.8,-473.59999999999997,-228.26666666666665
1510,-19.2,-469.3333333333333,-245.33333333333334
1511,-21.333333333333332,-477.8666666666667,-243.2
1512,-17.066666666666666,-475.73333333333335,-264.5333333333333
1513,-23.466666666666665,-473.59999999999997,-253.86666666666667
1514,-19.2,-480.0,-264.5333333333333
1515,-17.066666666666666,-482.1333333333333,-270.93333333333334
1516,-25.6,-484.26666666666665,-270.93333333333334
1517,-17.066666666666666,-497.06666666666666,-262.4
1518,-19.2,-501.3333333333333,-266.6666666666667
1519,-23.466666666666665,-501.3333333333333,-264.5333333333333
1520,-21.333333333333332,-501.3333333333333,-264.5333333333333
1521,-17.066666666666666,-503.46666666666664,-270.93333333333334
1522,-27.733333333333334,-497.06666666666666,-264.5333333333333
1523,-21.333333333333332,-501.3333333333333,-273.06666666666666
1524,-23.466666666666665,-484.26666666666665,-260.26666666666665
1525,-34.13333333333333,-475.73333333333335,-266.6666666666667
1526,-27.733333333333334,-475.73333333333335,-262.4
1527,-27.733333333333334,-482.1333333333333,-251.73333333333332
1528,-27.733333333333334,-477.8666666666667,-264.5333333333333
1529,-38.4,-477.8666666666667,-258.1333333333333
1530,-34.13333333333333,-475.73333333333335,-251.73333333333332
1531,-38.4,-482.1333333333333,-249.6
1532,-38.4,-480.0,-243.2
1533,-34.13333333333333,-484.26666666666665,-243.2
1534,-34.13333333333333,-480.0,-243.2
1535,-42.666666666666664,-482.1333333333333,-256.0
1536,-40.53333333333333,-482.1333333333333,-258.1333333333333
1537,-36.266666666666666,-482.1333333333333,-264.5333333333333
1538,-36.266666666666666,-486.4,-260.26666666666665
1539,-34.13333333333333,-490.6666666666667,-260.26666666666665
1540,-40.53333333333333,-486.4,-256.0
1541,-40.53333333333333,-484.26666666666665,-262.4
1542,-34.13333333333333,-484.26666666666665,-251.73333333333332
1543,-40.53333333333333,-480.0,-256.0
1544,-40.53333333333333,-471.46666666666664,-275.2
1545,-36.266666666666666,-475.73333333333335,-262.4
1546,-29.866666666666667,-477.8666666666667,-256.0
1547,-23.466666666666665,-480.0,-251.73333333333332
1548,-29.866666666666667,-477.8666666666667,-262.4
1549,-29.866666666666667,-475.73333333333335,-251.73333333333332
1550,-23.466666666666665,-469.3333333333333,-258.1333333333333
1551,-25.6,-480.0,-258.1333333333333
1552,-23.466666666666665,-477.8666666666667,-247.46666666666667
1553,-27.733333333333334,-473.59999999999997,-260.26666666666665
1554,-12.8,-482.1333333333333,-245.33333333333334
1555,-2.1333333333333333,-465.06666666666666,-253.86666666666667
1556,-21.333333333333332,-480.0,-256.0
1557,-19.2,-477.8666666666667,-251.73333333333332
1558,-27.733333333333334,-482.1333333333333,-249.6
1559,-17.066666666666666,-475.73333333333335,-256.0
1560,-17.066666666666666,-480.0,-251.73333333333332
1561,-23.466666666666665,-473.59999999999997,-256.0
1562,-19.2,-473.59999999999997,-253.86666666666667
1563,-12.8,-471.46666666666664,-251.73333333333332
1564,-14.933333333333334,-467.2,-249.6
1565,-8.533333333333333,-467.2,-251.73333333333332
1566,-25.6,-465.06666666666666,-253.86666666666667
1567,-8.533333333333333,-469.3333333333333,-236.79999999999998
1568,-8.533333333333333,-469.3333333333333,-243.2
1569,-8.533333333333333,-462.93333333333334,-238.93333333333334
1570,-8.533333333333333,-467.2,-238.93333333333334
1571,-8.533333333333333,-460.8,-243.2
1572,-6.4,-467.2,-236.79999999999998
1573,-8.533333333333333,-460.8,-238.93333333333334
1574,-6.4,-467.2,-253.86666666666667
1575,-2.1333333333333333,-465.06666666666666,-249.6
1576,-8.533333333333333,-469.3333333333333,-243.2
1577,-4.266666666666667,-469.3333333333333,-247.46666666666667
1578,-4.266666666666667,-465.06666666666666,-247.46666666666667
1579,-6.4,-471.46666666666664,-245.33333333333334
1580,-8.533333333333333,-462.93333333333334,-245.33333333333334
1581,-2.1333333333333333,-471.46666666666664,-249.6
1582,0.0,-482.1333333333333,-249.6
1583,4.266666666666667,-480.0,-245.33333333333334
1584,0.0,-477.8666666666667,-256.0
1585,0.0,-477.8666666666667,-249.6
1586,4.266666666666667,-475.73333333333335,-243.2
1587,4.266666666666667,-480.0,-245.33333333333334
1588,-4.266666666666667,-475.73333333333335,-260.26666666666665
1589,-2.1333333333333333,-484.26666666666665,-245.33333333333334
1590,-4.266666666666667,-484.26666666666665,-243.2
1591,-4.266666666666667,-471.46666666666664,-247.46666666666667
1592,0.0,-469.3333333333333,-251.73333333333332
1593,-2.1333333333333333,-467.2,-251.73333333333332
1594,0.0,-480.0,-251.73333333333332
1595,2.1333333333333333,-473.59999999999997,-249.6
1596,-4.266666666666667,-475.73333333333335,-251.73333333333332
1597,-2.1333333333333333,-477.8666666666667,-247.46666666666667
1598,4.266666666666667,-482.1333333333333,-241.06666666666666
1599,0.0,-484.26666666666665,-245.33333333333334
1600,-2.1333333333333333,-475.73333333333335,-241.06666666666666
1601,0.0,-484.26666666666665,-247.46666666666667
1602,-4.266666666666667,-471.46666666666664,-247.46666666666667
1603,2.1333333333333333,-484.26666666666665,-245.33333333333334
1604,-2.1333333333333333,-486.4,-251.73333333333332
1605,-4.266666666666667,-480.0,-243.2
1606,-8.533333333333333,-477.8666666666667,-238.93333333333334
1607,-6.4,-490.6666666666667,-256.0
1608,-8.533333333333333,-477.8666666666667,-247.46666666666667
1609,-8.533333333333333,-477.8666666666667,-234.66666666666666
1610,-14.933333333333334,-490.6666666666667,-260.26666666666665
1611,-8.533333333333333,-475.73333333333335,-245.33333333333334
1612,-10.666666666666666,-471.46666666666664,-256.0
1613,-12.8,-469.3333333333333,-249.6
1614,-8.533333333333333,-477.8666666666667,-245.33333333333334
1615,-10.666666666666666,-473.59999999999997,-245.33333333333334
1616,-8.533333333333333,-480.0,-241.06666666666666
1617,-12.8,-480.0,-249.6
1618,-12.8,-484.26666666666665,-247.46666666666667
1619,-6.4,-477.8666666666667,-243.2
1620,-8.533333333333333,-484.26666666666665,-245.33333333333334
1621,-21.333333333333332,-482.1333333333333,-247.46666666666667
1622,-10.666666666666666,-477.8666666666667,-249.6
1623,-8.533333333333333,-471.46666666666664,-245.33333333333334
1624,-6.4,-477.8666666666667,-249.6
1625,-10.666666666666666,-475.73333333333335,-243.2
1626,-17.066666666666666,-471.46666666666664,-241.06666666666666
1627,-8.533333333333333,-477.8666666666667,-234.66666666666666
1628,-6.4,-480.0,-243.2
1629,-8.533333333333333,-488.5333333333333,-236.79999999999998
1630,-8.533333333333333,-477.8666666666667,-241.06666666666666
1631,-8.533333333333333,-475.73333333333335,-236.79999999999998
1632,-21.333333333333332,-471.46666666666664,-234.66666666666666
1633,-8.533333333333333,-480.0,-245.33333333333334
1634,-6.4,-484.26666666666665,-241.06666666666666
1635,-8.533333333333333,-480.0,-241.06666666666666
1636,-6.4,-484.26666666666665,-241.06666666666666
1637,-8.533333333333333,-473.59999999999997,-234.66666666666666
1638,-4.266666666666667,-484.26666666666665,-236.79999999999998
1639,-8.533333333333333,-475.73333333333335,-232.53333333333333
1640,-10.666666666666666,-475.73333333333335,-241.06666666666666
1641,-8.533333333333333,-477.8666666666667,-241.06666666666666
1642,-12.8,-482.1333333333333,-238.93333333333334
1643,-8.533333333333333,-473.59999999999997,-241.06666666666666
1644,-8.533333333333333,-475.73333333333335,-241.06666666666666
1645,-8.533333333333333,-475.73333333333335,-230.4
1646,-8.533333333333333,-480.0,-241.06666666666666
1647,-12.8,-471.46666666666664,-228.26666666666665
1648,-6.4,-486.4,-232.53333333333333
1649,-10.666666666666666,-471.46666666666664,-226.13333333333333
1650,-6.4,-475.73333333333335,-234.66666666666666
1651,-14.933333333333334,-477.8666666666667,-234.66666666666666
1652,-8.533333333333333,-475.73333333333335,-224.0
1653,-6.4,-484.26666666666665,-236.79999999999998
1654,-14.933333333333334,-473.59999999999997,-232.53333333333333
1655,-8.533333333333333,-484.26666666666665,-236.79999999999998
1656,-8.533333333333333,-480.0,-230.4
1657,-17.066666666666666,-475.73333333333335,-232.53333333333333
1658,-8.533333333333333,-475.73333333333335,-238.93333333333334
1659,-19.2,-477.8666666666667,-230.4
1660,-10.666666666666666,-473.59999999999997,-230.4
1661,-14.933333333333334,-480.0,-232.53333333333333
1662,-23.466666666666665,-486.4,-226.13333333333333
1663,-23.466666666666665,-480.0,-234.66666666666666
1664,-17.066666666666666,-486.4,-241.06666666666666
1665,-10.666666666666666,-488.5333333333333,-234.66666666666666
1666,-23.466666666666665,-480.0,-234.66666666666666
1667,-12.8,-488.5333333333333,-234.66666666666666
1668,-10.666666666666666,-482.1333333333333,-234.66666666666666
1669,-10.666666666666666,-484.26666666666665,-236.79999999999998
1670,-12.8,-480.0,-241.06666666666666
1671,-10.666666666666666,-480.0,-243.2
1672,-12.8,-480.0,-228.26666666666665
1673,-12.8,-477.8666666666667,-236.79999999999998
1674,-8.533333333333333,-477.8666666666667,-236.79999999999998
1675,-6.4,-484.26666666666665,-215.46666666666667
1676,-6.4,-484.26666666666665,-224.0
1677,-8.533333333333333,-480.0,-234.66666666666666
1678,-8.533333333333333,-477.8666666666667,-230.4
1679,-8.533333333333333,-477.8666666666667,-228.26666666666665
1680,-8.533333333333333,-477.8666666666667,-219.73333333333332
1681,-12.8,-480.0,-226.13333333333333
1682,-10.666666666666666,-482.1333333333333,-232.53333333333333
1683,-6.4,-486.4,-232.53333333333333
1684,-12.8,-480.0,-224.0
1685,-14.933333333333334,-480.0,-228.26666666666665
1686,-14.933333333333334,-490.6666666666667,-243.2
1687,-10.666666666666666,-486.4,-230.4
1688,-8.533333333333333,-484.26666666666665,-234.66666666666666
1689,-8.533333333333333,-488.5333333333333,-234.66666666666666
1690,-10.666666666666666,-484.26666666666665,-230.4
1691,-12.8,-480.0,-241.06666666666666
1692,-14.933333333333334,-480.0,-232.53333333333333
1693,-6.4,-494.93333333333334,-226.13333333333333
1694,-12.8,-482.1333333333333,-241.06666666666666
1695,-8.533333333333333,-488.5333333333333,-230.4
1696,-8.533333333333333,-482.1333333333333,-236.79999999999998
1697,-2.1333333333333333,-475.73333333333335,-241.06666666666666
1698,-8.533333333333333,-486.4,-238.93333333333334
1699,-17.066666666666666,-482.1333333333333,-238.93333333333334
1700,-8.533333333333333,-482.1333333333333,-241.06666666666666
1701,-6.4,-486.4,-238.93333333333334
1702,-8.533333333333333,-484.26666666666665,-238.93333333333334
1703,-10.666666666666666,-486.4,-241.06666666666666
1704,-17.066666666666666,-477.8666666666667,-241.06666666666666
1705,-14.933333333333334,-480.0,-241.06666666666666
1706,-14.933333333333334,-480.0,-236.79999999999998
1707,-14.933333333333334,-475.73333333333335,-236.79999999999998
1708,-17.066666666666666,-486.4,-230.4
1709,-10.666666666666666,-486.4,-236.79999999999998
1710,-8.533333333333333,-480.0,-232.53333333333333
1711,-10.666666666666666,-482.1333333333333,-238.93333333333334
1712,-17.066666666666666,-484.26666666666665,-234.66666666666666
1713,-10.666666666666666,-484.26666666666665,-236.79999999999998
1714,-12.8,-484.26666666666665,-236.79999999999998
1715,-21.333333333333332,-477.8666666666667,-234.66666666666666
1716,-19.2,-484.26666666666665,-241.06666666666666
1717,-14.933333333333334,-480.0,-234.66666666666666
1718,-21.333333333333332,-473.59999999999997,-234.66666666666666
1719,-19.2,-480.0,-228.26666666666665
1720,-14.933333333333334,-475.73333333333335,-234.66666666666666
1721,-10.666666666666666,-482.1333333333333,-245.33333333333334
1722,-17.066666666666666,-480.0,-245.33333333333334
1723,-8.533333333333333,-477.8666666666667,-243.2
1724,-10.666666666666666,-484.26666666666665,-243.2
1725,-12.8,-484.26666666666665,-238.93333333333334
1726,-12.8,-482.1333333333333,-243.2
1727,-21.333333333333332,-484.26666666666665,-232.53333333333333
1728,-14.933333333333334,-492.8,-241.06666666666666
1729,-17.066666666666666,-482.1333333333333,-243.2
1730,-23.466666666666665,-477.8666666666667,-238.93333333333334
1731,-23.466666666666665,-484.26666666666665,-234.66666666666666
1732,-17.066666666666666,-480.0,-243.2
1733,-21.333333333333332,-482.1333333333333,-234.66666666666666
1734,-19.2,-480.0,-232.53333333333333
1735,-12.8,-482.1333333333333,-234.66666666666666
1736,-17.066666666666666,-480.0,-241.06666666666666
1737,-23.466666666666665,-477.8666666666667,-230.4
1738,-21.333333333333332,-486.4,-232.53333333333333
1739,-21.333333333333332,-480.0,-236.79999999999998
1740,-17.066666666666666,-484.26666666666665,-232.53333333333333
1741,-14.933333333333334,-486.4,-228.26666666666665
1742,-17.066666666666666,-480.0,-230.4
1743,-17.066666666666666,-484.26666666666665,-232.53333333333333
1744,-21.333333333333332,-488.5333333333333,-228.26666666666665
1745,-10.666666666666666,-492.8,-234.66666666666666
1746,-12.8,-486.4,-230.4
1747,-12.8,-492.8,-228.26666666666665
1748,-14.933333333333334,-492.8,-232.53333333333333
1749,-17.066666666666666,-494.93333333333334,-224.0
1750,-8.533333333333333,-490.6666666666667,-228.26666666666665
1751,-19.2,-490.6666666666667,-224.0
1752,-8.533333333333333,-492.8,-243.2
1753,-14.933333333333334,-492.8,-217.6
1754,-10.666666666666666,-486.4,-230.4
1755,-8.533333333333333,-482.1333333333333,-226.13333333333333
1756,-12.8,-482.1333333333333,-234.66666666666666
1757,-12.8,-486.4,-221.86666666666667
1758,-2.1333333333333333,-486.4,-224.0
1759,4.266666666666667,-492.8,-221.86666666666667
1760,-4.266666666666667,-490.6666666666667,-226.13333333333333
1761,2.1333333333333333,-497.06666666666666,-224.0
1762,-6.4,-499.2,-224.0
1763,-4.266666666666667,-490.6666666666667,-219.73333333333332
1764,-2.1333333333333333,-494.93333333333334,-217.6
1765,-8.533333333333333,-486.4,-224.0
1766,-4.266666666666667,-490.6666666666667,-232.53333333333333
1767,-2.1333333333333333,-492.8,-221.86666666666667
1768,-6.4,-486.4,-224.0
1769,0.0,-484.26666666666665,-221.86666666666667
1770,0.0,-488.5333333333333,-217.6
1771,2.1333333333333333,-488.5333333333333,-226.13333333333333
1772,6.4,-494.93333333333334,-215.46666666666667
1773,6.4,-503.46666666666664,-226.13333333333333
1774,0.0,-497.06666666666666,-224.0
1775,4.266666666666667,-497.06666666666666,-221.86666666666667
1776,-2.1333333333333333,-497.06666666666666,-219.73333333333332
1777,4.266666666666667,-497.06666666666666,-219.73333333333332
1778,2.1333333333333333,-501.3333333333333,-213.33333333333334
1779,-2.1333333333333333,-490.6666666666667,-215.46666666666667
1780,2.1333333333333333,-494.93333333333334,-217.6
1781,0.0,-499.2,-213.33333333333334
1782,0.0,-497.06666666666666,-211.2
1783,4.266666666666667,-486.4,-192.0
1784,-4.266666666666667,-497.06666666666666,-187.73333333333332
1785,-2.1333333333333333,-494.93333333333334,-200.53333333333333
1786,-2.1333333333333333,-492.8,-206.93333333333334
1787,0.0,-494.93333333333334,-198.4
1788,-4.266666666666667,-492.8,-196.26666666666665
1789,-6.4,-492.8,-198.4
1790,-4.266666666666667,-497.06666666666666,-194.13333333333333
1791,-8.533333333333333,-494.93333333333334,-198.4
1792,-6.4,-488.5333333333333,-189.86666666666667
1793,-8.533333333333333,-492.8,-185.6
1794,-8.533333333333333,-494.93333333333334,-202.66666666666666
1795,-17.066666666666666,-488.5333333333333,-187.73333333333332
1796,-8.533333333333333,-494.93333333333334,-185.6
1797,-49.06666666666666,-482.1333333333333,-211.2
1798,-25.6,-505.59999999999997,-326.4
1799,-46.93333333333333,-490.6666666666667,-183.46666666666667
1800,-12.8,-486.4,-83.2
1801,0.0,-512.0,-149.33333333333334
1802,-6.4,-503.46666666666664,-187.73333333333332
1803,-8.533333333333333,-501.3333333333333,-192.0
1804,-10.666666666666666,-494.93333333333334,-194.13333333333333
1805,-14.933333333333334,-482.1333333333333,-202.66666666666666
1806,-8.533333333333333,-486.4,-213.33333333333334
1807,-12.8,-475.73333333333335,-198.4
1808,-10.666666666666666,-471.46666666666664,-200.53333333333333
1809,-6.4,-486.4,-194.13333333333333
1810,-10.666666666666666,-488.5333333333333,-187.73333333333332
1811,-12.8,-490.6666666666667,-181.33333333333334
1812,-12.8,-497.06666666666666,-174.93333333333334
1813,-14.933333333333334,-503.46666666666664,-192.0
1814,-6.4,-505.59999999999997,-192.0
1815,-8.533333333333333,-505.59999999999997,-192.0
1816,-12.8,-492.8,-196.26666666666665
1817,-10.666666666666666,-507.73333333333335,-219.73333333333332
1818,-8.533333333333333,-509.8666666666667,-206.93333333333334
1819,-12.8,-501.3333333333333,-198.4
1820,-8.533333333333333,-505.59999999999997,-200.53333333333333
1821,-8.533333333333333,-509.8666666666667,-198.4
1822,-6.4,-507.73333333333335,-198.4
1823,-6.4,-501.3333333333333,-194.13333333333333
1824,-17.066666666666666,-499.2,-194.13333333333333
1825,-10.666666666666666,-490.6666666666667,-196.26666666666665
1826,-19.2,-492.8,-200.53333333333333
1827,-6.4,-492.8,-185.6
1828,-8.533333333333333,-501.3333333333333,-209.06666666666666
1829,-6.4,-492.8,-194.13333333333333
1830,-6.4,-497.06666666666666,-200.53333333333333
1831,-27.733333333333334,-546.1333333333333,-164.26666666666665
1832,-21.333333333333332,-544.0,-168.53333333333333
1833,21.333333333333332,-497.06666666666666,-226.13333333333333
1834,4.266666666666667,-486.4,-221.86666666666667
1835,4.266666666666667,-473.59999999999997,-204.8
1836,12.8,-471.46666666666664,-211.2
1837,-4.266666666666667,-467.2,-206.93333333333334
1838,-14.933333333333334,-475.73333333333335,-177.06666666666666
1839,-8.533333333333333,-490.6666666666667,-187.73333333333332
1840,-12.8,-507.73333333333335,-172.8
1841,-10.666666666666666,-503.46666666666664,-183.46666666666667
1842,-4.266666666666667,-509.8666666666667,-187.73333333333332
1843,-10.666666666666666,-514.1333333333333,-172.8
1844,-6.4,-524.8,-187.73333333333332
1845,-12.8,-505.59999999999997,-198.4
1846,-2.1333333333333333,-535.4666666666667,-206.93333333333334
1847,0.0,-535.4666666666667,-196.26666666666665
1848,-8.533333333333333,-524.8,-198.4
1849,4.266666666666667,-537.6,-196.26666666666665
1850,-6.4,-524.8,-183.46666666666667
1851,-10.666666666666666,-507.73333333333335,-179.2
1852,-23.466666666666665,-499.2,-174.93333333333334
1853,-10.666666666666666,-490.6666666666667,-177.06666666666666
1854,-8.533333333333333,-499.2,-170.66666666666666
1855,-23.466666666666665,-484.26666666666665,-172.8
1856,-23.466666666666665,-486.4,-174.93333333333334
1857,-12.8,-490.6666666666667,-172.8
1858,-17.066666666666666,-492.8,-162.13333333333333
1859,-32.0,-486.4,-160.0
1860,-23.466666666666665,-475.73333333333335,-162.13333333333333
1861,-14.933333333333334,-503.46666666666664,-153.6
1862,-17.066666666666666,-509.8666666666667,-155.73333333333332
1863,-25.6,-505.59999999999997,-160.0
1864,-19.2,-503.46666666666664,-157.86666666666667
1865,-14.933333333333334,-503.46666666666664,-160.0
1866,-12.8,-509.8666666666667,-155.73333333333332
1867,-6.4,-524.8,-162.13333333333333
1868,-12.8,-522.6666666666666,-151.46666666666667
1869,-19.2,-526.9333333333333,-149.33333333333334
1870,-29.866666666666667,-520.5333333333333,-147.2
1871,-32.0,-520.5333333333333,-155.73333333333332
1872,-14.933333333333334,-505.59999999999997,-138.66666666666666
1873,-17.066666666666666,-503.46666666666664,-140.8
1874,-12.8,-501.3333333333333,-145.06666666666666
1875,-6.4,-512.0,-149.33333333333334
1876,-19.2,-490.6666666666667,-138.66666666666666
1877,-12.8,-490.6666666666667,-125.86666666666666
1878,-12.8,-503.46666666666664,-134.4
1879,-14.933333333333334,-507.73333333333335,-134.4
1880,-17.066666666666666,-492.8,-123.73333333333333
1881,-10.666666666666666,-512.0,-136.53333333333333
1882,-10.666666666666666,-460.8,-125.86666666666666
1883,-10.666666666666666,-484.26666666666665,-138.66666666666666
1884,19.2,-452.26666666666665,-110.93333333333334
1885,-10.666666666666666,-426.6666666666667,-110.93333333333334
1886,-14.933333333333334,-471.46666666666664,-113.06666666666666
1887,6.4,-507.73333333333335,-153.6
1888,8.533333333333333,-573.8666666666667,-187.73333333333332
1889,0.0,-548.2666666666667,-189.86666666666667
1890,10.666666666666666,-548.2666666666667,-200.53333333333333
1891,4.266666666666667,-548.2666666666667,-236.79999999999998
1892,-6.4,-546.1333333333333,-206.93333333333334
1893,-12.8,-531.2,-162.13333333333333
1894,-14.933333333333334,-522.6666666666666,-153.6
1895,-12.8,-509.8666666666667,-138.66666666666666
1896,-17.066666666666666,-507.73333333333335,-132.26666666666665
1897,-8.533333333333333,-512.0,-130.13333333333333
1898,-8.533333333333333,-512.0,-136.53333333333333
1899,-6.4,-507.73333333333335,-142.93333333333334
1900,-10.666666666666666,-505.59999999999997,-138.66666666666666
1901,-8.533333333333333,-505.59999999999997,-145.06666666666666
1902,-8.533333333333333,-509.8666666666667,-153.6
1903,0.0,-520.5333333333333,-153.6
1904,2.1333333333333333,-522.6666666666666,-149.33333333333334
1905,-6.4,-509.8666666666667,-157.86666666666667
1906,0.0,-518.4,-168.53333333333333
1907,0.0,-518.4,-162.13333333333333
1908,4.266666666666667,-514.1333333333333,-157.86666666666667
1909,0.0,-516.2666666666667,-166.4
1910,2.1333333333333333,-522.6666666666666,-153.6
1911,4.266666666666667,-516.2666666666667,-153.6
1912,8.533333333333333,-529.0666666666666,-147.2
1913,-2.1333333333333333,-533.3333333333334,-142.93333333333334
1914,0.0,-531.2,-149.33333333333334
1915,8.533333333333333,-529.0666666666666,-151.46666666666667
1916,-2.1333333333333333,-524.8,-149.33333333333334
1917,-2.1333333333333333,-524.8,-151.46666666666667
1918,-2.1333333333333333,-516.2666666666667,-142.93333333333334
1919,-4.266666666666667,-524.8,-142.93333333333334
1920,-6.4,-522.6666666666666,-145.06666666666666
1921,-8.533333333333333,-522.6666666666666,-138.66666666666666
1922,-8.533333333333333,-512.0,-142.93333333333334
1923,-12.8,-509.8666666666667,-136.53333333333333
1924,-12.8,-494.93333333333334,-128.0
1925,-8.533333333333333,-486.4,-125.86666666666666
1926,-17.066666666666666,-497.06666666666666,-130.13333333333333
1927,-12.8,-501.3333333333333,-132.26666666666665
1928,-10.666666666666666,-505.59999999999997,-142.93333333333334
1929,-8.533333333333333,-507.73333333333335,-147.2
1930,-14.933333333333334,-509.8666666666667,-149.33333333333334
1931,-19.2,-516.2666666666667,-155.73333333333332
1932,-19.2,-518.4,-160.0
1933,-19.2,-524.8,-164.26666666666665
1934,-14.933333333333334,-507.73333333333335,-162.13333333333333
1935,-10.666666666666666,-520.5333333333333,-153.6
1936,-8.533333333333333,-531.2,-155.73333333333332
1937,-4.266666666666667,-535.4666666666667,-140.8
1938,0.0,-539.7333333333333,-147.2
1939,-4.266666666666667,-548.2666666666667,-147.2
1940,-4.266666666666667,-548.2666666666667,-140.8
1941,6.4,-554.6666666666666,-138.66666666666666
1942,0.0,-546.1333333333333,-142.93333333333334
1943,0.0,-533.3333333333334,-145.06666666666666
1944,-6.4,-505.59999999999997,-155.73333333333332
1945,6.4,-499.2,-145.06666666666666
1946,-2.1333333333333333,-482.1333333333333,-134.4
1947,-6.4,-484.26666666666665,-145.06666666666666
1948,0.0,-486.4,-138.66666666666666
1949,-4.266666666666667,-480.0,-132.26666666666665
1950,-2.1333333333333333,-488.5333333333333,-134.4
1951,-6.4,-492.8,-132.26666666666665
1952,-4.266666666666667,-494.93333333333334,-140.8
1953,-6.4,-503.46666666666664,-140.8
1954,-10.666666666666666,-541.8666666666667,-110.93333333333334
1955,-6.4,-535.4666666666667,-136.53333333333333
1956,-6.4,-520.5333333333333,-157.86666666666667
1957,-4.266666666666667,-507.73333333333335,-149.33333333333334
1958,0.0,-501.3333333333333,-151.46666666666667
1959,-4.266666666666667,-509.8666666666667,-151.46666666666667
1960,-6.4,-518.4,-147.2
1961,-8.533333333333333,-518.4,-140.8
1962,-8.533333333333333,-518.4,-149.33333333333334
1963,-12.8,-505.59999999999997,-142.93333333333334
1964,-6.4,-514.1333333333333,-136.53333333333333
1965,-12.8,-499.2,-123.73333333333333
1966,-14.933333333333334,-490.6666666666667,-145.06666666666666
1967,-6.4,-503.46666666666664,-132.26666666666665
1968,-8.533333333333333,-499.2,-132.26666666666665
1969,-14.933333333333334,-509.8666666666667,-132.26666666666665
1970,-4.266666666666667,-509.8666666666667,-145.06666666666666
1971,-8.533333333333333,-516.2666666666667,-147.2
1972,-8.533333333333333,-514.1333333333333,-142.93333333333334
1973,-8.533333333333333,-514.1333333333333,-149.33333333333334
1974,-2.1333333333333333,-514.1333333333333,-138.66666666666666
1975,-6.4,-518.4,-136.53333333333333
1976,-4.266666666666667,-516.2666666666667,-140.8
1977,-6.4,-514.1333333333333,-149.33333333333334
1978,6.4,-522.6666666666666,-153.6
1979,0.0,-531.2,-145.06666666666666
1980,4.266666666666667,-533.3333333333334,-147.2
1981,-2.1333333333333333,-537.6,-151.46666666666667
1982,8.533333333333333,-544.0,-134.4
1983,8.533333333333333,-531.2,-136.53333333333333
1984,12.8,-522.6666666666666,-140.8
1985,6.4,-520.5333333333333,-138.66666666666666
1986,6.4,-512.0,-151.46666666666667
1987,2.1333333333333333,-507.73333333333335,-147.2
1988,6.4,-509.8666666666667,-136.53333333333333
1989,-2.1333333333333333,-512.0,-125.86666666666666
1990,-2.1333333333333333,-529.0666666666666,-136.53333333333333
1991,-6.4,-524.8,-123.73333333333333
1992,2.1333333333333333,-535.4666666666667,-121.6
1993,0.0,-537.6,-117.33333333333333
1994,-4.266666666666667,-537.6,-138.66666666666666
1995,-2.1333333333333333,-526.9333333333333,-130.13333333333333
1996,4.266666666666667,-531.2,-134.4
1997,-2.1333333333333333,-526.9333333333333,-128.0
1998,-6.4,-529.0666666666666,-123.73333333333333
1999,0.0,-522.6666666666666,-125.86666666666666
2000,2.1333333333333333,-518.4,-130.13333333333333
2001,-2.1333333333333333,-524.8,-117.33333333333333
2002,-6.4,-520.5333333333333,-123.73333333333333
2003,-4.266666666666667,-505.59999999999997,-117.33333333333333
2004,0.0,-514.1333333333333,-117.33333333333333
2005,2.1333333333333333,-514.1333333333333,-119.46666666666667
2006,-4.266666666666667,-509.8666666666667,-108.8
2007,0.0,-509.8666666666667,-110.93333333333334
2008,8.533333333333333,-505.59999999999997,-110.93333333333334
2009,0.0,-501.3333333333333,-106.66666666666667
2010,-4.266666666666667,-494.93333333333334,-115.2
2011,2.1333333333333333,-499.2,-106.66666666666667
2012,-6.4,-501.3333333333333,-117.33333333333333
2013,-4.266666666666667,-484.26666666666665,-108.8
2014,4.266666666666667,-486.4,-102.4
2015,-6.4,-484.26666666666665,-106.66666666666667
2016,-8.533333333333333,-484.26666666666665,-110.93333333333334
2017,-4.266666666666667,-497.06666666666666,-115.2
2018,-8.533333333333333,-499.2,-117.33333333333333
2019,-6.4,-514.1333333333333,-113.06666666666666
2020,-2.1333333333333333,-512.0,-119.46666666666667
2021,-8.533333333333333,-514.1333333333333,-125.86666666666666
2022,0.0,-514.1333333333333,-130.13333333333333
2023,-6.4,-516.2666666666667,-142.93333333333334
2024,2.1333333333333333,-514.1333333333333,-142.93333333333334
2025,2.1333333333333333,-512.0,-140.8
2026,0.0,-512.0,-134.4
2027,2.1333333333333333,-514.1333333333333,-130.13333333333333
2028,6.4,-518.4,-128.0
2029,0.0,-526.9333333333333,-123.73333333333333
2030,0.0,-524.8,-121.6
2031,-4.266666666666667,-522.6666666666666,-123.73333333333333
2032,0.0,-526.9333333333333,-132.26666666666665
2033,-6.4,-533.3333333333334,-136.53333333333333
2034,-4.266666666666667,-535.4666666666667,-147.2
2035,-6.4,-535.4666666666667,-138.66666666666666
2036,-6.4,-531.2,-138.66666666666666
2037,-6.4,-539.7333333333333,-134.4
2038,-4.266666666666667,-531.2,-130.13333333333333
2039,-8.533333333333333,-526.9333333333333,-130.13333333333333
2040,-2.1333333333333333,-522.6666666666666,-125.86666666666666
2041,-6.4,-518.4,-136.53333333333333
2042,-2.1333333333333333,-512.0,-134.4
2043,-2.1333333333333333,-507.73333333333335,-125.86666666666666
2044,-4.266666666666667,-507.73333333333335,-130.13333333333333
2045,2.1333333333333333,-497.06666666666666,-128.0
2046,-2.1333333333333333,-512.0,-123.73333333333333
2047,-6.4,-509.8666666666667,-128.0
2048,0.0,-507.73333333333335,-128.0
2049,4.266666666666667,-507.73333333333335,-125.86666666666666
2050,-4.266666666666667,-509.8666666666667,-121.6
2051,-2.1333333333333333,-497.06666666666666,-134.4
2052,-6.4,-505.59999999999997,-128.0
2053,-6.4,-512.0,-136.53333333333333
2054,0.0,-518.4,-121.6
2055,-2.1333333333333333,-512.0,-134.4
2056,-4.266666666666667,-520.5333333333333,-134.4
2057,-2.1333333333333333,-509.8666666666667,-136.53333333333333
2058,4.266666666666667,-520.5333333333333,-140.8
2059,2.1333333333333333,-524.8,-140.8
2060,-4.266666666666667,-520.5333333333333,-134.4
2061,4.266666666666667,-526.9333333333333,-130.13333333333333
2062,-2.1333333333333333,-512.0,-132.26666666666665
2063,-113.06666666666666,-684.8,-46.93333333333333
2064,132.26666666666665,-625.0666666666666,-230.4
2065,-70.4,-571.7333333333333,-168.53333333333333
2066,-93.86666666666666,-509.8666666666667,-145.06666666666666
2067,-17.066666666666666,-501.3333333333333,-132.26666666666665
2068,14.933333333333334,-516.2666666666667,-106.66666666666667
2069,17.066666666666666,-516.2666666666667,-93.86666666666666
2070,-10.666666666666666,-520.5333333333333,-83.2
2071,-8.533333333333333,-501.3333333333333,-96.0
2072,0.0,-475.73333333333335,-104.53333333333333
2073,4.266666666666667,-475.73333333333335,-106.66666666666667
2074,-29.866666666666667,-503.46666666666664,-96.0
2075,36.266666666666666,-484.26666666666665,-115.2
2076,53.333333333333336,-473.59999999999997,-106.66666666666667
2077,-85.33333333333333,-537.6,-72.53333333333333
2078,14.933333333333334,-499.2,-106.66666666666667
2079,21.333333333333332,-497.06666666666666,-98.13333333333333
2080,51.2,-471.46666666666664,-98.13333333333333
2081,119.46666666666667,-411.73333333333335,-196.26666666666665
2082,296.5333333333333,-300.8,-166.4
2083,-72.53333333333333,-373.3333333333333,-17.066666666666666
2084,-117.33333333333333,-443.73333333333335,29.866666666666667
2085,-96.0,-548.2666666666667,-34.13333333333333
2086,-34.13333333333333,-588.8,-130.13333333333333
2087,-4.266666666666667,-601.6,-198.4
2088,10.666666666666666,-597.3333333333334,-228.26666666666665
2089,2.1333333333333333,-576.0,-251.73333333333332
2090,-6.4,-556.8,-234.66666666666666
2091,-6.4,-558.9333333333333,-198.4
2092,2.1333333333333333,-561.0666666666666,-160.0
2093,-4.266666666666667,-556.8,-147.2
2094,-6.4,-550.4,-123.73333333333333
2095,-6.4,-546.1333333333333,-115.2
2096,-14.933333333333334,-531.2,-115.2
2097,-8.533333333333333,-512.0,-132.26666666666665
2098,-6.4,-499.2,-149.33333333333334
2099,-8.533333333333333,-490.6666666666667,-155.73333333333332
2100,-2.1333333333333333,-490.6666666666667,-157.86666666666667
2101,-6.4,-507.73333333333335,-155.73333333333332
2102,-10.666666666666666,-509.8666666666667,-157.86666666666667
2103,-12.8,-524.8,-162.13333333333333
2104,-14.933333333333334,-537.6,-170.66666666666666
2105,-12.8,-541.8666666666667,-166.4
2106,-17.066666666666666,-546.1333333333333,-162.13333333333333
2107,-10.666666666666666,-550.4,-155.73333333333332
2108,-10.666666666666666,-539.7333333333333,-153.6
2109,-12.8,-526.9333333333333,-153.6
2110,-14.933333333333334,-514.1333333333333,-140.8
2111,-14.933333333333334,-507.73333333333335,-142.93333333333334
2112,-10.666666666666666,-499.2,-140.8
2113,-14.933333333333334,-501.3333333333333,-134.4
2114,-8.533333333333333,-501.3333333333333,-149.33333333333334
2115,-4.266666666666667,-505.59999999999997,-145.06666666666666
2116,-4.266666666666667,-505.59999999999997,-147.2
2117,-4.266666666666667,-501.3333333333333,-151.46666666666667
2118,-4.266666666666667,-507.73333333333335,-142.93333333333334
2119,-6.4,-514.1333333333333,-140.8
2120,-4.266666666666667,-526.9333333333333,-149.33333333333334
2121,-4.266666666666667,-512.0,-140.8
2122,-6.4,-509.8666666666667,-142.93333333333334
2123,0.0,-516.2666666666667,-140.8
2124,-2.1333333333333333,-516.2666666666667,-142.93333333333334
2125,-6.4,-516.2666666666667,-149.33333333333334
2126,-8.533333333333333,-514.1333333333333,-147.2
2127,-6.4,-522.6666666666666,-140.8
2128,-4.266666666666667,-514.1333333333333,-151.46666666666667
2129,6.4,-514.1333333333333,-138.66666666666666
2130,0.0,-505.59999999999997,-151.46666666666667
2131,0.0,-522.6666666666666,-147.2
2132,-8.533333333333333,-512.0,-140.8
2133,-8.533333333333333,-509.8666666666667,-147.2
2134,-6.4,-516.2666666666667,-151.46666666666667
2135,-6.4,-514.1333333333333,-142.93333333333334
2136,-6.4,-516.2666666666667,-142.93333333333334
2137,-4.266666666666667,-522.6666666666666,-151.46666666666667
2138,-2.1333333333333333,-514.1333333333333,-145.06666666666666
2139,-4.266666666666667,-522.6666666666666,-147.2
2140,-6.4,-514.1333333333333,-142.93333333333334
2141,-8.533333333333333,-514.1333333333333,-147.2
2142,-14.933333333333334,-526.9333333333333,-155.73333333333332
2143,-6.4,-514.1333333333333,-145.06666666666666
2144,-2.1333333333333333,-512.0,-145.06666666666666
2145,-6.4,-512.0,-151.46666666666667
2146,-8.533333333333333,-512.0,-145.06666666666666
2147,-8.533333333333333,-512.0,-145.06666666666666
2148,-8.533333333333333,-512.0,-142.93333333333334
2149,-8.533333333333333,-507.73333333333335,-138.66666666666666
2150,0.0,-507.73333333333335,-149.33333333333334
2151,-6.4,-512.0,-145.06666666666666
2152,-8.533333333333333,-505.59999999999997,-151.46666666666667
2153,-8.533333333333333,-503.46666666666664,-149.33333333333334
2154,-8.533333333333333,-505.59999999999997,-142.93333333333334
2155,-6.4,-509.8666666666667,-145.06666666666666
2156,-8.533333333333333,-509.8666666666667,-145.06666666666666
2157,-12.8,-503.46666666666664,-145.06666666666666
2158,-8.533333333333333,-507.73333333333335,-136.53333333333333
2159,-14.933333333333334,-499.2,-147.2
2160,-6.4,-518.4,-142.93333333333334
2161,-6.4,-509.8666666666667,-149.33333333333334
2162,-10.666666666666666,-507.73333333333335,-140.8
2163,-6.4,-514.1333333333333,-147.2
2164,-6.4,-509.8666666666667,-153.6
2165,-6.4,-514.1333333333333,-151.46666666666667
2166,-6.4,-514.1333333333333,-147.2
2167,-4.266666666666667,-512.0,-147.2
2168,-6.4,-516.2666666666667,-151.46666666666667
2169,-6.4,-514.1333333333333,-151.46666666666667
2170,-6.4,-512.0,-147.2
2171,-8.533333333333333,-512.0,-147.2
2172,-4.266666666666667,-516.2666666666667,-142.93333333333334
2173,-8.533333333333333,-512.0,-151.46666666666667
2174,-6.4,-507.73333333333335,-147.2
2175,2.1333333333333333,-512.0,-140.8
2176,-6.4,-514.1333333333333,-151.46666666666667
2177,-2.1333333333333333,-514.1333333333333,-149.33333333333334
2178,-8.533333333333333,-509.8666666666667,-153.6
2179,-2.1333333333333333,-507.73333333333335,-147.2
2180,-6.4,-505.59999999999997,-151.46666666666667
2181,-10.666666666666666,-505.59999999999997,-136.53333333333333
2182,-8.533333333333333,-499.2,-151.46666666666667
2183,-2.1333333333333333,-514.1333333333333,-140.8
2184,-6.4,-505.59999999999997,-147.2
2185,-12.8,-505.59999999999997,-166.4
2186,-6.4,-514.1333333333333,-151.46666666666667
2187,-4.266666666666667,-514.1333333333333,-157.86666666666667
2188,-6.4,-516.2666666666667,-151.46666666666667
2189,-4.266666666666667,-520.5333333333333,-151.46666666666667
2190,-8.533333333333333,-518.4,-151.46666666666667
2191,-8.533333333333333,-524.8,-157.86666666666667
2192,-6.4,-522.6666666666666,-151.46666666666667
2193,-8.533333333333333,-520.5333333333333,-153.6
2194,-8.533333333333333,-526.9333333333333,-155.73333333333332
2195,-4.266666666666667,-524.8,-149.33333333333334
2196,-14.933333333333334,-526.9333333333333,-151.46666666666667
2197,-4.266666666666667,-524.8,-157.86666666666667
2198,-8.533333333333333,-520.5333333333333,-155.73333333333332
2199,-4.266666666666667,-522.6666666666666,-153.6
2200,-4.266666666666667,-518.4,-155.73333333333332
2201,-4.266666666666667,-516.2666666666667,-151.46666666666667
2202,-8.533333333333333,-516.2666666666667,-160.0
2203,-8.533333333333333,-518.4,-151.46666666666667
2204,-8.533333333333333,-514.1333333333333,-162.13333333333333
2205,-8.533333333333333,-509.8666666666667,-149.33333333333334
2206,-12.8,-509.8666666666667,-151.46666666666667
2207,-6.4,-518.4,-155.73333333333332
2208,-8.533333333333333,-514.1333333333333,-151.46666666666667
2209,-12.8,-520.5333333333333,-153.6
2210,-8.533333333333333,-520.5333333333333,-155.73333333333332
2211,-12.8,-520.5333333333333,-153.6
2212,-8.533333333333333,-516.2666666666667,-153.6
2213,-8.533333333333333,-520.5333333333333,-155.73333333333332
2214,-10.666666666666666,-514.1333333333333,-164.26666666666665
2215,-14.933333333333334,-512.0,-145.06666666666666
2216,-12.8,-509.8666666666667,-151.46666666666667
2217,-10.666666666666666,-516.2666666666667,-151.46666666666667
2218,-8.533333333333333,-520.5333333333333,-153.6
2219,-8.533333333333333,-514.1333333333333,-151.46666666666667
2220,-6.4,-509.8666666666667,-151.46666666666667
2221,-8.533333333333333,-512.0,-147.2
2222,-6.4,-507.73333333333335,-151.46666666666667
2223,-4.266666666666667,-505.59999999999997,-142.93333333333334
2224,-8.533333333333333,-512.0,-153.6
2225,-6.4,-512.0,-138.66666666666666
2226,0.0,-505.59999999999997,-145.06666666666666
2227,0.0,-505.59999999999997,-145.06666666666666
2228,-10.666666666666666,-486.4,-153.6
2229,-4.266666666666667,-494.93333333333334,-140.8
2230,-6.4,-492.8,-147.2
2231,-2.1333333333333333,-505.59999999999997,-147.2
2232,-4.266666666666667,-512.0,-149.33333333333334
2233,-8.533333333333333,-507.73333333333335,-145.06666666666666
2234,-8.533333333333333,-505.59999999999997,-142.93333333333334
2235,-6.4,-509.8666666666667,-147.2
2236,-4.266666666666667,-512.0,-147.2
2237,-6.4,-514.1333333333333,-149.33333333333334
2238,-4.266666666666667,-509.8666666666667,-147.2
2239,-6.4,-509.8666666666667,-147.2
2240,2.1333333333333333,-520.5333333333333,-153.6
2241,-6.4,-514.1333333333333,-140.8
2242,-12.8,-503.46666666666664,-140.8
2243,-4.266666666666667,-518.4,-151.46666666666667
2244,-6.4,-512.0,-147.2
2245,-8.533333333333333,-514.1333333333333,-145.06666666666666
2246,-8.533333333333333,-518.4,-147.2
2247,-6.4,-516.2666666666667,-142.93333333333334
2248,-6.4,-518.4,-142.93333333333334
2249,0.0,-522.6666666666666,-151.46666666666667
2250,-8.533333333333333,-516.2666666666667,-145.06666666666666
2251,0.0,-518.4,-136.53333333333333
2252,-8.533333333333333,-514.1333333333333,-145.06666666666666
2253,-10.666666666666666,-514.1333333333333,-142.93333333333334
2254,-8.533333333333333,-512.0,-147.2
2255,-6.4,-516.2666666666667,-147.2
2256,-8.533333333333333,-507.73333333333335,-142.93333333333334
2257,-6.4,-512.0,-138.66666666666666
2258,-8.533333333333333,-516.2666666666667,-145.06666666666666
2259,-2.1333333333333333,-516.2666666666667,-147.2
2260,-8.533333333333333,-505.59999999999997,-140.8
2261,-8.533333333333333,-507.73333333333335,-140.8
2262,-2.1333333333333333,-522.6666666666666,-138.66666666666666
2263,-6.4,-512.0,-138.66666666666666
2264,-8.533333333333333,-514.1333333333333,-138.66666666666666
2265,-8.533333333333333,-509.8666666666667,-149.33333333333334
2266,-8.533333333333333,-509.8666666666667,-142.93333333333334
2267,-8.533333333333333,-509.8666666666667,-142.93333333333334
2268,-8.533333333333333,-507.73333333333335,-140.8
2269,-6.4,-514.1333333333333,-145.06666666666666
2270,-6.4,-501.3333333333333,-142.93333333333334
2271,-10.666666666666666,-507.73333333333335,-149.33333333333334
2272,-10.666666666666666,-503.46666666666664,-149.33333333333334
2273,-8.533333333333333,-503.46666666666664,-142.93333333333334
2274,-8.533333333333333,-507.73333333333335,-145.06666666666666
2275,-12.8,-512.0,-142.93333333333334
2276,-6.4,-516.2666666666667,-136.53333333333333
2277,-6.4,-509.8666666666667,-140.8
2278,-8.533333333333333,-509.8666666666667,-147.2
2279,-8.533333333333333,-514.1333333333333,-149.33333333333334
2280,-8.533333333333333,-514.1333333333333,-153.6
2281,-6.4,-509.8666666666667,-142.93333333333334
2282,-2.1333333333333333,-516.2666666666667,-142.93333333333334
2283,-6.4,-516.2666666666667,-151.46666666666667
2284,-6.4,-514.1333333333333,-149.33333333333334
2285,-4.266666666666667,-518.4,-149.33333333333334
2286,-6.4,-520.5333333333333,-151.46666666666667
2287,-8.533333333333333,-514.1333333333333,-151.46666666666667
2288,-8.533333333333333,-522.6666666666666,-142.93333333333334
2289,-6.4,-516.2666666666667,-149.33333333333334
2290,-6.4,-529.0666666666666,-138.66666666666666
2291,-6.4,-520.5333333333333,-147.2
2292,-6.4,-512.0,-142.93333333333334
2293,-6.4,-514.1333333333333,-136.53333333333333
2294,-6.4,-520.5333333333333,-145.06666666666666
2295,-6.4,-514.1333333333333,-147.2
2296,-8.533333333333333,-516.2666666666667,-149.33333333333334
2297,-6.4,-516.2666666666667,-140.8
2298,-8.533333333333333,-520.5333333333333,-147.2
2299,-8.533333333333333,-512.0,-147.2
2300,-2.1333333333333333,-514.1333333333333,-145.06666666666666
2301,-6.4,-518.4,-142.93333333333334
2302,-8.533333333333333,-516.2666666666667,-142.93333333333334
2303,-6.4,-514.1333333333333,-136.53333333333333
2304,-4.266666666666667,-516.2666666666667,-151.46666666666667
2305,-12.8,-505.59999999999997,-145.06666666666666
2306,-4.266666666666667,-512.0,-149.33333333333334
2307,-2.1333333333333333,-516.2666666666667,-153.6
2308,-6.4,-512.0,-145.06666666666666
2309,-6.4,-503.46666666666664,-147.2
2310,-6.4,-516.2666666666667,-151.46666666666667
2311,-6.4,-512.0,-151.46666666666667
2312,-2.1333333333333333,-509.8666666666667,-140.8
2313,-6.4,-516.2666666666667,-142.93333333333334
2314,-6.4,-512.0,-147.2
2315,-2.1333333333333333,-507.73333333333335,-142.93333333333334
2316,-6.4,-518.4,-136.53333333333333
2317,-8.533333333333333,-520.5333333333333,-147.2
2318,-8.533333333333333,-512.0,-145.06666666666666
2319,-8.533333333333333,-518.4,-142.93333333333334
2320,-8.533333333333333,-516.2666666666667,-147.2
2321,-6.4,-516.2666666666667,-151.46666666666667
2322,-6.4,-522.6666666666666,-151.46666666666667
2323,-8.533333333333333,-509.8666666666667,-142.93333333333334
2324,-6.4,-512.0,-147.2
2325,-2.1333333333333333,-516.2666666666667,-136.53333333333333
2326,-6.4,-516.2666666666667,-134.4
2327,-8.533333333333333,-529.0666666666666,-132.26666666666665
2328,-6.4,-512.0,-145.06666666666666
2329,-8.533333333333333,-520.5333333333333,-140.8
2330,-6.4,-509.8666666666667,-142.93333333333334
2331,-6.4,-518.4,-140.8
2332,-6.4,-514.1333333333333,-140.8
2333,-2.1333333333333333,-514.1333333333333,-147.2
2334,-6.4,-516.2666666666667,-140.8
2335,-8.533333333333333,-518.4,-140.8
2336,-8.533333333333333,-516.2666666666667,-136.53333333333333
2337,-4.266666666666667,-507.73333333333335,-140.8
2338,-10.666666666666666,-522.6666666666666,-121.6
2339,-6.4,-509.8666666666667,-138.66666666666666
2340,-8.533333333333333,-512.0,-142.93333333333334
2341,-2.1333333333333333,-514.1333333333333,-149.33333333333334
2342,-4.266666666666667,-509.8666666666667,-145.06666666666666
2343,-6.4,-509.8666666666667,-147.2
2344,-2.1333333333333333,-507.73333333333335,-132.26666666666665
2345,-4.266666666666667,-520.5333333333333,-136.53333333333333
2346,-17.066666666666666,-514.1333333333333,-142.93333333333334
2347,-8.533333333333333,-512.0,-149.33333333333334
2348,-10.666666666666666,-512.0,-147.2
2349,-6.4,-522.6666666666666,-142.93333333333334
2350,2.1333333333333333,-514.1333333333333,-138.66666666666666
2351,-6.4,-514.1333333333333,-145.06666666666666
2352,-6.4,-512.0,-145.06666666666666
2353,-8.533333333333333,-512.0,-147.2
2354,-6.4,-516.2666666666667,-140.8
2355,-6.4,-512.0,-138.66666666666666
2356,-8.533333333333333,-507.73333333333335,-140.8
2357,-2.1333333333333333,-501.3333333333333,-145.06666666666666
2358,4.266666666666667,-514.1333333333333,-142.93333333333334
2359,-6.4,-520.5333333333333,-145.06666666666666
2360,-6.4,-516.2666666666667,-142.93333333333334
2361,-4.266666666666667,-516.2666666666667,-145.06666666666666
2362,-6.4,-518.4,-145.06666666666666
2363,-8.533333333333333,-516.2666666666667,-140.8
2364,-8.533333333333333,-518.4,-136.53333333333333
