,accelerometerAccelerationX(G),accelerometerAccelerationY(G),accelerometerAccelerationZ(G)
0,-4.266666666666667,-550.4,147.2
1,-12.8,-550.4,147.2
2,-10.666666666666666,-552.5333333333333,145.06666666666666
3,-14.933333333333334,-548.2666666666667,147.2
4,-12.8,-550.4,145.06666666666666
5,-19.2,-548.2666666666667,149.33333333333334
6,-10.666666666666666,-550.4,145.06666666666666
7,-12.8,-550.4,147.2
8,-8.533333333333333,-550.4,151.46666666666667
9,-10.666666666666666,-548.2666666666667,149.33333333333334
10,-19.2,-550.4,153.6
11,-10.666666666666666,-548.2666666666667,151.46666666666667
12,-19.2,-548.2666666666667,147.2
13,-17.066666666666666,-550.4,145.06666666666666
14,-14.933333333333334,-550.4,147.2
15,-12.8,-546.1333333333333,145.06666666666666
16,-6.4,-544.0,145.06666666666666
17,-10.666666666666666,-546.1333333333333,153.6
18,-6.4,-544.0,153.6
19,-8.533333333333333,-548.2666666666667,147.2
20,-6.4,-552.5333333333333,149.33333333333334
21,-4.266666666666667,-548.2666666666667,145.06666666666666
22,0.0,-550.4,147.2
23,0.0,-546.1333333333333,138.66666666666666
24,4.266666666666667,-550.4,147.2
25,-8.533333333333333,-548.2666666666667,151.46666666666667
26,-2.1333333333333333,-548.2666666666667,145.06666666666666
27,0.0,-546.1333333333333,151.46666666666667
28,2.1333333333333333,-550.4,145.06666666666666
29,2.1333333333333333,-550.4,149.33333333333334
30,0.0,-548.2666666666667,155.73333333333332
31,0.0,-546.1333333333333,151.46666666666667
32,0.0,-550.4,149.33333333333334
33,2.1333333333333333,-546.1333333333333,147.2
34,2.1333333333333333,-546.1333333333333,153.6
35,0.0,-548.2666666666667,151.46666666666667
36,0.0,-548.2666666666667,153.6
37,4.266666666666667,-546.1333333333333,142.93333333333334
38,4.266666666666667,-546.1333333333333,153.6
39,6.4,-546.1333333333333,153.6
40,2.1333333333333333,-548.2666666666667,164.26666666666665
41,4.266666666666667,-550.4,162.13333333333333
42,2.1333333333333333,-548.2666666666667,157.86666666666667
43,2.1333333333333333,-546.1333333333333,157.86666666666667
44,-2.1333333333333333,-544.0,155.73333333333332
45,0.0,-544.0,157.86666666666667
46,0.0,-546.1333333333333,157.86666666666667
47,-2.1333333333333333,-544.0,149.33333333333334
48,-8.533333333333333,-544.0,155.73333333333332
49,0.0,-544.0,166.4
50,-6.4,-544.0,164.26666666666665
51,-4.266666666666667,-546.1333333333333,160.0
52,-2.1333333333333333,-544.0,160.0
53,-6.4,-546.1333333333333,149.33333333333334
54,0.0,-546.1333333333333,155.73333333333332
55,0.0,-546.1333333333333,157.86666666666667
56,-4.266666666666667,-541.8666666666667,155.73333333333332
57,0.0,-544.0,162.13333333333333
58,0.0,-541.8666666666667,153.6
59,0.0,-541.8666666666667,149.33333333333334
60,-2.1333333333333333,-544.0,153.6
61,-2.1333333333333333,-546.1333333333333,147.2
62,0.0,-544.0,153.6
63,4.266666666666667,-546.1333333333333,157.86666666666667
64,0.0,-544.0,151.46666666666667
65,2.1333333333333333,-544.0,155.73333333333332
66,-2.1333333333333333,-541.8666666666667,160.0
67,0.0,-537.6,155.73333333333332
68,0.0,-541.8666666666667,160.0
69,4.266666666666667,-544.0,170.66666666666666
70,6.4,-541.8666666666667,151.46666666666667
71,6.4,-544.0,155.73333333333332
72,4.266666666666667,-548.2666666666667,155.73333333333332
73,4.266666666666667,-541.8666666666667,155.73333333333332
74,8.533333333333333,-548.2666666666667,166.4
75,10.666666666666666,-550.4,160.0
76,10.666666666666666,-550.4,168.53333333333333
77,12.8,-546.1333333333333,162.13333333333333
78,14.933333333333334,-552.5333333333333,164.26666666666665
79,17.066666666666666,-548.2666666666667,153.6
80,19.2,-546.1333333333333,155.73333333333332
81,17.066666666666666,-550.4,155.73333333333332
82,19.2,-554.6666666666666,157.86666666666667
83,17.066666666666666,-548.2666666666667,157.86666666666667
84,19.2,-550.4,160.0
85,23.466666666666665,-552.5333333333333,145.06666666666666
86,12.8,-556.8,147.2
87,17.066666666666666,-558.9333333333333,145.06666666666666
88,17.066666666666666,-552.5333333333333,145.06666666666666
89,12.8,-552.5333333333333,142.93333333333334
90,12.8,-558.9333333333333,140.8
91,10.666666666666666,-552.5333333333333,130.13333333333333
92,4.266666666666667,-554.6666666666666,128.0
93,6.4,-563.2,134.4
94,4.266666666666667,-558.9333333333333,130.13333333333333
95,4.266666666666667,-561.0666666666666,106.66666666666667
96,0.0,-558.9333333333333,104.53333333333333
97,0.0,-552.5333333333333,104.53333333333333
98,-2.1333333333333333,-554.6666666666666,100.26666666666667
99,-2.1333333333333333,-544.0,98.13333333333333
100,-8.533333333333333,-537.6,110.93333333333334
101,-14.933333333333334,-537.6,93.86666666666666
102,-21.333333333333332,-520.5333333333333,106.66666666666667
103,-25.6,-514.1333333333333,102.4
104,-25.6,-505.59999999999997,106.66666666666667
105,-29.866666666666667,-499.2,108.8
106,-40.53333333333333,-488.5333333333333,119.46666666666667
107,-36.266666666666666,-486.4,121.6
108,-40.53333333333333,-488.5333333333333,134.4
109,-46.93333333333333,-486.4,142.93333333333334
110,-55.46666666666667,-490.6666666666667,149.33333333333334
111,-49.06666666666666,-503.46666666666664,151.46666666666667
112,-53.333333333333336,-512.0,164.26666666666665
113,-51.2,-520.5333333333333,166.4
114,-51.2,-524.8,162.13333333333333
115,-55.46666666666667,-544.0,164.26666666666665
116,-53.333333333333336,-554.6666666666666,172.8
117,-55.46666666666667,-569.6,179.2
118,-55.46666666666667,-569.6,174.93333333333334
119,-42.666666666666664,-588.8,177.06666666666666
120,-44.8,-593.0666666666666,179.2
121,-42.666666666666664,-599.4666666666667,181.33333333333334
122,-38.4,-599.4666666666667,172.8
123,-25.6,-605.8666666666667,166.4
124,-10.666666666666666,-599.4666666666667,168.53333333333333
125,0.0,-588.8,155.73333333333332
126,4.266666666666667,-580.2666666666667,149.33333333333334
127,8.533333333333333,-578.1333333333333,157.86666666666667
128,19.2,-569.6,138.66666666666666
129,19.2,-561.0666666666666,140.8
130,32.0,-556.8,136.53333333333333
131,40.53333333333333,-550.4,128.0
132,38.4,-546.1333333333333,136.53333333333333
133,36.266666666666666,-548.2666666666667,138.66666666666666
134,40.53333333333333,-550.4,138.66666666666666
135,42.666666666666664,-554.6666666666666,138.66666666666666
136,36.266666666666666,-558.9333333333333,140.8
137,40.53333333333333,-576.0,160.0
138,34.13333333333333,-586.6666666666666,160.0
139,27.733333333333334,-593.0666666666666,157.86666666666667
140,25.6,-599.4666666666667,177.06666666666666
141,17.066666666666666,-605.8666666666667,177.06666666666666
142,8.533333333333333,-612.2666666666667,177.06666666666666
143,4.266666666666667,-612.2666666666667,177.06666666666666
144,0.0,-603.7333333333333,183.46666666666667
145,0.0,-597.3333333333334,174.93333333333334
146,-6.4,-580.2666666666667,172.8
147,-12.8,-573.8666666666667,170.66666666666666
148,-19.2,-563.2,170.66666666666666
149,-21.333333333333332,-546.1333333333333,181.33333333333334
150,-21.333333333333332,-535.4666666666667,179.2
151,-27.733333333333334,-522.6666666666666,172.8
152,-27.733333333333334,-518.4,179.2
153,-32.0,-499.2,181.33333333333334
154,-36.266666666666666,-492.8,177.06666666666666
155,-36.266666666666666,-482.1333333333333,185.6
156,-36.266666666666666,-482.1333333333333,177.06666666666666
157,-34.13333333333333,-475.73333333333335,185.6
158,-29.866666666666667,-477.8666666666667,194.13333333333333
159,-29.866666666666667,-480.0,196.26666666666665
160,-29.866666666666667,-473.59999999999997,196.26666666666665
161,-25.6,-477.8666666666667,196.26666666666665
162,-19.2,-471.46666666666664,200.53333333333333
163,-21.333333333333332,-475.73333333333335,206.93333333333334
164,-12.8,-482.1333333333333,196.26666666666665
165,-2.1333333333333333,-482.1333333333333,192.0
166,0.0,-494.93333333333334,198.4
167,0.0,-512.0,196.26666666666665
168,2.1333333333333333,-514.1333333333333,194.13333333333333
169,-2.1333333333333333,-518.4,196.26666666666665
170,2.1333333333333333,-531.2,200.53333333333333
171,2.1333333333333333,-541.8666666666667,198.4
172,2.1333333333333333,-544.0,194.13333333333333
173,0.0,-541.8666666666667,206.93333333333334
174,0.0,-548.2666666666667,192.0
175,4.266666666666667,-548.2666666666667,194.13333333333333
176,2.1333333333333333,-544.0,196.26666666666665
177,0.0,-552.5333333333333,196.26666666666665
178,0.0,-550.4,183.46666666666667
179,0.0,-548.2666666666667,187.73333333333332
180,0.0,-546.1333333333333,187.73333333333332
181,-2.1333333333333333,-546.1333333333333,192.0
182,-12.8,-550.4,189.86666666666667
183,-8.533333333333333,-546.1333333333333,194.13333333333333
184,-12.8,-546.1333333333333,196.26666666666665
185,-17.066666666666666,-544.0,185.6
186,-12.8,-550.4,196.26666666666665
187,-19.2,-552.5333333333333,189.86666666666667
188,-23.466666666666665,-546.1333333333333,189.86666666666667
189,-19.2,-546.1333333333333,181.33333333333334
190,-23.466666666666665,-546.1333333333333,196.26666666666665
191,-21.333333333333332,-537.6,198.4
192,-23.466666666666665,-537.6,194.13333333333333
193,-32.0,-539.7333333333333,202.66666666666666
194,-32.0,-526.9333333333333,209.06666666666666
195,-25.6,-522.6666666666666,211.2
196,-21.333333333333332,-526.9333333333333,213.33333333333334
197,-23.466666666666665,-524.8,226.13333333333333
198,-17.066666666666666,-524.8,213.33333333333334
199,-32.0,-509.8666666666667,224.0
200,-27.733333333333334,-503.46666666666664,230.4
201,-36.266666666666666,-509.8666666666667,217.6
202,-59.733333333333334,-518.4,202.66666666666666
203,-104.53333333333333,-546.1333333333333,166.4
204,-125.86666666666666,-578.1333333333333,125.86666666666666
205,-110.93333333333334,-620.8,78.93333333333334
206,-76.8,-663.4666666666667,61.86666666666667
207,-59.733333333333334,-718.9333333333333,76.8
208,-72.53333333333333,-759.4666666666667,119.46666666666667
209,-81.06666666666666,-785.0666666666666,142.93333333333334
210,-110.93333333333334,-780.8,166.4
211,-132.26666666666665,-770.1333333333333,147.2
212,-123.73333333333333,-761.6,138.66666666666666
213,-117.33333333333333,-746.6666666666666,121.6
214,-96.0,-738.1333333333333,125.86666666666666
215,-115.2,-718.9333333333333,136.53333333333333
216,-104.53333333333333,-695.4666666666667,142.93333333333334
217,-98.13333333333333,-682.6666666666666,155.73333333333332
218,-100.26666666666667,-667.7333333333333,153.6
219,-85.33333333333333,-663.4666666666667,147.2
220,-91.73333333333333,-657.0666666666666,115.2
221,-96.0,-629.3333333333334,113.06666666666666
222,-108.8,-614.4,93.86666666666666
223,-113.06666666666666,-593.0666666666666,87.46666666666667
224,-123.73333333333333,-576.0,83.2
225,-125.86666666666666,-558.9333333333333,72.53333333333333
226,-128.0,-546.1333333333333,66.13333333333333
227,-123.73333333333333,-544.0,66.13333333333333
228,-110.93333333333334,-539.7333333333333,61.86666666666667
229,-98.13333333333333,-548.2666666666667,46.93333333333333
230,-78.93333333333334,-548.2666666666667,51.2
231,-76.8,-552.5333333333333,55.46666666666667
232,-66.13333333333333,-550.4,36.266666666666666
233,-51.2,-537.6,36.266666666666666
234,-49.06666666666666,-535.4666666666667,27.733333333333334
235,-40.53333333333333,-520.5333333333333,10.666666666666666
236,-36.266666666666666,-501.3333333333333,2.1333333333333333
237,-42.666666666666664,-477.8666666666667,6.4
238,-46.93333333333333,-467.2,2.1333333333333333
239,-42.666666666666664,-462.93333333333334,8.533333333333333
240,-40.53333333333333,-448.0,14.933333333333334
241,-46.93333333333333,-435.2,17.066666666666666
242,-38.4,-439.46666666666664,36.266666666666666
243,-29.866666666666667,-448.0,40.53333333333333
244,-29.866666666666667,-443.73333333333335,44.8
245,-32.0,-460.8,66.13333333333333
246,-27.733333333333334,-467.2,59.733333333333334
247,-34.13333333333333,-471.46666666666664,70.4
248,-38.4,-492.8,74.66666666666667
249,-40.53333333333333,-512.0,81.06666666666666
250,-32.0,-539.7333333333333,76.8
251,-38.4,-546.1333333333333,85.33333333333333
252,-36.266666666666666,-569.6,74.66666666666667
253,-36.266666666666666,-582.4,72.53333333333333
254,-34.13333333333333,-595.2,72.53333333333333
255,-34.13333333333333,-605.8666666666667,87.46666666666667
256,-21.333333333333332,-612.2666666666667,89.6
257,-17.066666666666666,-627.2,89.6
258,-14.933333333333334,-616.5333333333333,96.0
259,-10.666666666666666,-620.8,100.26666666666667
260,-8.533333333333333,-610.1333333333333,91.73333333333333
261,6.4,-601.6,93.86666666666666
262,10.666666666666666,-590.9333333333333,91.73333333333333
263,8.533333333333333,-584.5333333333333,100.26666666666667
264,6.4,-573.8666666666667,100.26666666666667
265,6.4,-567.4666666666667,100.26666666666667
266,14.933333333333334,-556.8,102.4
267,12.8,-550.4,106.66666666666667
268,4.266666666666667,-546.1333333333333,106.66666666666667
269,6.4,-537.6,100.26666666666667
270,8.533333333333333,-533.3333333333334,119.46666666666667
271,2.1333333333333333,-531.2,117.33333333333333
272,4.266666666666667,-516.2666666666667,121.6
273,0.0,-518.4,121.6
274,0.0,-503.46666666666664,121.6
275,0.0,-501.3333333333333,128.0
276,-4.266666666666667,-501.3333333333333,138.66666666666666
277,-8.533333333333333,-494.93333333333334,138.66666666666666
278,-14.933333333333334,-497.06666666666666,142.93333333333334
279,-12.8,-492.8,151.46666666666667
280,-21.333333333333332,-494.93333333333334,149.33333333333334
281,-14.933333333333334,-494.93333333333334,145.06666666666666
282,-14.933333333333334,-492.8,153.6
283,-17.066666666666666,-494.93333333333334,157.86666666666667
284,-12.8,-490.6666666666667,145.06666666666666
285,-12.8,-497.06666666666666,142.93333333333334
286,-4.266666666666667,-494.93333333333334,153.6
287,-8.533333333333333,-501.3333333333333,145.06666666666666
288,0.0,-503.46666666666664,145.06666666666666
289,-4.266666666666667,-501.3333333333333,138.66666666666666
290,-4.266666666666667,-507.73333333333335,145.06666666666666
291,4.266666666666667,-514.1333333333333,140.8
292,0.0,-514.1333333333333,153.6
293,-2.1333333333333333,-516.2666666666667,153.6
294,0.0,-514.1333333333333,155.73333333333332
295,0.0,-522.6666666666666,151.46666666666667
296,-2.1333333333333333,-514.1333333333333,168.53333333333333
297,-2.1333333333333333,-505.59999999999997,166.4
298,2.1333333333333333,-503.46666666666664,172.8
299,4.266666666666667,-494.93333333333334,177.06666666666666
300,2.1333333333333333,-486.4,185.6
301,2.1333333333333333,-490.6666666666667,183.46666666666667
302,4.266666666666667,-486.4,192.0
303,6.4,-492.8,192.0
304,2.1333333333333333,-490.6666666666667,183.46666666666667
305,12.8,-492.8,189.86666666666667
306,8.533333333333333,-505.59999999999997,192.0
307,21.333333333333332,-512.0,187.73333333333332
308,12.8,-520.5333333333333,192.0
309,8.533333333333333,-529.0666666666666,179.2
310,19.2,-539.7333333333333,198.4
311,17.066666666666666,-548.2666666666667,194.13333333333333
312,19.2,-550.4,196.26666666666665
313,14.933333333333334,-556.8,209.06666666666666
314,6.4,-556.8,206.93333333333334
315,8.533333333333333,-558.9333333333333,204.8
316,6.4,-554.6666666666666,200.53333333333333
317,0.0,-552.5333333333333,198.4
318,0.0,-552.5333333333333,198.4
319,6.4,-548.2666666666667,202.66666666666666
320,10.666666666666666,-546.1333333333333,200.53333333333333
321,27.733333333333334,-544.0,200.53333333333333
322,40.53333333333333,-541.8666666666667,204.8
323,61.86666666666667,-541.8666666666667,200.53333333333333
324,83.2,-544.0,196.26666666666665
325,98.13333333333333,-546.1333333333333,187.73333333333332
326,115.2,-558.9333333333333,198.4
327,121.6,-563.2,177.06666666666666
328,134.4,-595.2,181.33333333333334
329,147.2,-640.0,140.8
330,136.53333333333333,-678.4,74.66666666666667
331,128.0,-704.0,40.53333333333333
332,113.06666666666666,-763.7333333333333,81.06666666666666
333,108.8,-812.8,162.13333333333333
334,123.73333333333333,-821.3333333333334,213.33333333333334
335,136.53333333333333,-827.7333333333333,241.06666666666666
336,157.86666666666667,-829.8666666666667,251.73333333333332
337,155.73333333333332,-836.2666666666667,247.46666666666667
338,151.46666666666667,-836.2666666666667,230.4
339,149.33333333333334,-829.8666666666667,217.6
340,138.66666666666666,-817.0666666666666,211.2
341,121.6,-778.6666666666666,189.86666666666667
342,119.46666666666667,-748.8,196.26666666666665
343,117.33333333333333,-718.9333333333333,179.2
344,110.93333333333334,-684.8,147.2
345,100.26666666666667,-654.9333333333333,110.93333333333334
346,100.26666666666667,-627.2,68.26666666666667
347,87.46666666666667,-597.3333333333334,46.93333333333333
348,87.46666666666667,-586.6666666666666,34.13333333333333
349,85.33333333333333,-580.2666666666667,40.53333333333333
350,76.8,-563.2,46.93333333333333
351,61.86666666666667,-546.1333333333333,46.93333333333333
352,51.2,-529.0666666666666,34.13333333333333
353,36.266666666666666,-499.2,12.8
354,27.733333333333334,-475.73333333333335,-2.1333333333333333
355,6.4,-454.4,-19.2
356,-17.066666666666666,-437.3333333333333,-42.666666666666664
357,-40.53333333333333,-416.0,-32.0
358,-51.2,-398.93333333333334,-42.666666666666664
359,-68.26666666666667,-403.2,-40.53333333333333
360,-87.46666666666667,-405.3333333333333,-27.733333333333334
361,-96.0,-396.8,-6.4
362,-102.4,-396.8,4.266666666666667
363,-98.13333333333333,-403.2,12.8
364,-108.8,-413.8666666666667,27.733333333333334
365,-104.53333333333333,-422.4,49.06666666666666
366,-91.73333333333333,-445.8666666666667,55.46666666666667
367,-68.26666666666667,-469.3333333333333,55.46666666666667
368,-61.86666666666667,-497.06666666666666,68.26666666666667
369,-34.13333333333333,-526.9333333333333,72.53333333333333
370,-14.933333333333334,-558.9333333333333,78.93333333333334
371,-17.066666666666666,-576.0,76.8
372,-12.8,-610.1333333333333,70.4
373,-12.8,-622.9333333333333,74.66666666666667
374,0.0,-644.2666666666667,83.2
375,-6.4,-640.0,74.66666666666667
376,-8.533333333333333,-646.4,70.4
377,-17.066666666666666,-646.4,68.26666666666667
378,-21.333333333333332,-631.4666666666667,66.13333333333333
379,-17.066666666666666,-618.6666666666666,61.86666666666667
380,-19.2,-588.8,57.6
381,-14.933333333333334,-576.0,61.86666666666667
382,-19.2,-550.4,83.2
383,-8.533333333333333,-537.6,89.6
384,-2.1333333333333333,-531.2,91.73333333333333
385,-6.4,-520.5333333333333,93.86666666666666
386,0.0,-509.8666666666667,85.33333333333333
387,-4.266666666666667,-514.1333333333333,91.73333333333333
388,-6.4,-520.5333333333333,93.86666666666666
389,-4.266666666666667,-514.1333333333333,89.6
390,-4.266666666666667,-514.1333333333333,96.0
391,-2.1333333333333333,-518.4,102.4
392,-14.933333333333334,-522.6666666666666,98.13333333333333
393,-6.4,-522.6666666666666,100.26666666666667
394,-21.333333333333332,-518.4,113.06666666666666
395,-14.933333333333334,-520.5333333333333,123.73333333333333
396,-6.4,-520.5333333333333,125.86666666666666
397,-8.533333333333333,-512.0,123.73333333333333
398,8.533333333333333,-501.3333333333333,128.0
399,4.266666666666667,-505.59999999999997,123.73333333333333
400,0.0,-499.2,132.26666666666665
401,4.266666666666667,-503.46666666666664,136.53333333333333
402,0.0,-488.5333333333333,132.26666666666665
403,0.0,-492.8,145.06666666666666
404,-10.666666666666666,-497.06666666666666,155.73333333333332
405,-17.066666666666666,-499.2,157.86666666666667
406,-8.533333333333333,-490.6666666666667,151.46666666666667
407,-8.533333333333333,-497.06666666666666,164.26666666666665
408,-17.066666666666666,-501.3333333333333,168.53333333333333
409,-27.733333333333334,-497.06666666666666,183.46666666666667
410,-17.066666666666666,-505.59999999999997,181.33333333333334
411,-27.733333333333334,-488.5333333333333,185.6
412,-23.466666666666665,-494.93333333333334,185.6
413,-27.733333333333334,-486.4,185.6
414,-25.6,-484.26666666666665,187.73333333333332
415,-21.333333333333332,-482.1333333333333,194.13333333333333
416,-17.066666666666666,-480.0,198.4
417,-14.933333333333334,-482.1333333333333,196.26666666666665
418,-14.933333333333334,-477.8666666666667,200.53333333333333
419,-10.666666666666666,-480.0,206.93333333333334
420,-10.666666666666666,-471.46666666666664,200.53333333333333
421,-12.8,-467.2,194.13333333333333
422,-10.666666666666666,-469.3333333333333,196.26666666666665
423,2.1333333333333333,-471.46666666666664,189.86666666666667
424,-21.333333333333332,-482.1333333333333,202.66666666666666
425,-2.1333333333333333,-486.4,172.8
426,-14.933333333333334,-488.5333333333333,177.06666666666666
427,-6.4,-503.46666666666664,170.66666666666666
428,-8.533333333333333,-507.73333333333335,164.26666666666665
429,-14.933333333333334,-512.0,157.86666666666667
430,-6.4,-520.5333333333333,155.73333333333332
431,0.0,-531.2,149.33333333333334
432,0.0,-539.7333333333333,155.73333333333332
433,2.1333333333333333,-541.8666666666667,160.0
434,4.266666666666667,-541.8666666666667,149.33333333333334
435,4.266666666666667,-546.1333333333333,164.26666666666665
436,-6.4,-554.6666666666666,168.53333333333333
437,-25.6,-552.5333333333333,172.8
438,-34.13333333333333,-552.5333333333333,179.2
439,-57.6,-567.4666666666667,177.06666666666666
440,-72.53333333333333,-567.4666666666667,185.6
441,-78.93333333333334,-576.0,194.13333333333333
442,-89.6,-580.2666666666667,213.33333333333334
443,-91.73333333333333,-584.5333333333333,224.0
444,-102.4,-588.8,245.33333333333334
445,-106.66666666666667,-590.9333333333333,256.0
446,-104.53333333333333,-588.8,266.6666666666667
447,-100.26666666666667,-584.5333333333333,279.46666666666664
448,-100.26666666666667,-578.1333333333333,281.6
449,-134.4,-580.2666666666667,270.93333333333334
450,-192.0,-608.0,217.6
451,-206.93333333333334,-646.4,134.4
452,-153.6,-676.2666666666667,61.86666666666667
453,-93.86666666666666,-742.4,38.4
454,-70.4,-812.8,104.53333333333333
455,-66.13333333333333,-844.8,170.66666666666666
456,-36.266666666666666,-868.2666666666667,202.66666666666666
457,-61.86666666666667,-870.4,236.79999999999998
458,-85.33333333333333,-855.4666666666667,232.53333333333333
459,-100.26666666666667,-836.2666666666667,217.6
460,-100.26666666666667,-819.2,204.8
461,-113.06666666666666,-804.2666666666667,202.66666666666666
462,-91.73333333333333,-795.7333333333333,177.06666666666666
463,-123.73333333333333,-791.4666666666667,172.8
464,-145.06666666666666,-761.6,142.93333333333334
465,-168.53333333333333,-746.6666666666666,123.73333333333333
466,-179.2,-718.9333333333333,93.86666666666666
467,-172.8,-691.2,70.4
468,-157.86666666666667,-661.3333333333334,51.2
469,-160.0,-608.0,40.53333333333333
470,-149.33333333333334,-569.6,32.0
471,-136.53333333333333,-518.4,17.066666666666666
472,-115.2,-480.0,0.0
473,-83.2,-448.0,-19.2
474,-57.6,-420.26666666666665,-44.8
475,-25.6,-409.6,-53.333333333333336
476,0.0,-394.6666666666667,-72.53333333333333
477,21.333333333333332,-396.8,-74.66666666666667
478,57.6,-390.4,-66.13333333333333
479,57.6,-390.4,-66.13333333333333
480,74.66666666666667,-403.2,-55.46666666666667
481,70.4,-420.26666666666665,-40.53333333333333
482,66.13333333333333,-439.46666666666664,-14.933333333333334
483,51.2,-462.93333333333334,-2.1333333333333333
484,19.2,-505.59999999999997,25.6
485,4.266666666666667,-546.1333333333333,46.93333333333333
486,-2.1333333333333333,-584.5333333333333,72.53333333333333
487,-25.6,-614.4,89.6
488,-49.06666666666666,-633.6,104.53333333333333
489,-66.13333333333333,-646.4,102.4
490,-87.46666666666667,-654.9333333333333,106.66666666666667
491,-113.06666666666666,-654.9333333333333,96.0
492,-130.13333333333333,-665.6,85.33333333333333
493,-134.4,-654.9333333333333,83.2
494,-138.66666666666666,-652.8,78.93333333333334
495,-136.53333333333333,-635.7333333333333,74.66666666666667
496,-132.26666666666665,-610.1333333333333,66.13333333333333
497,-123.73333333333333,-593.0666666666666,76.8
498,-113.06666666666666,-571.7333333333333,78.93333333333334
499,-98.13333333333333,-544.0,72.53333333333333
500,-85.33333333333333,-518.4,70.4
501,-57.6,-473.59999999999997,68.26666666666667
502,-51.2,-456.5333333333333,68.26666666666667
503,-44.8,-439.46666666666664,76.8
504,-36.266666666666666,-443.73333333333335,74.66666666666667
505,-23.466666666666665,-441.59999999999997,76.8
506,-23.466666666666665,-441.59999999999997,87.46666666666667
507,-12.8,-456.5333333333333,83.2
508,0.0,-467.2,96.0
509,-6.4,-469.3333333333333,98.13333333333333
510,12.8,-477.8666666666667,102.4
511,19.2,-477.8666666666667,100.26666666666667
512,21.333333333333332,-482.1333333333333,106.66666666666667
513,25.6,-482.1333333333333,110.93333333333334
514,29.866666666666667,-492.8,110.93333333333334
515,34.13333333333333,-497.06666666666666,106.66666666666667
516,36.266666666666666,-503.46666666666664,110.93333333333334
517,38.4,-512.0,110.93333333333334
518,36.266666666666666,-509.8666666666667,113.06666666666666
519,27.733333333333334,-522.6666666666666,125.86666666666666
520,34.13333333333333,-529.0666666666666,132.26666666666665
521,40.53333333333333,-526.9333333333333,128.0
522,19.2,-529.0666666666666,138.66666666666666
523,17.066666666666666,-516.2666666666667,147.2
524,17.066666666666666,-501.3333333333333,140.8
525,14.933333333333334,-492.8,157.86666666666667
526,8.533333333333333,-492.8,157.86666666666667
527,2.1333333333333333,-469.3333333333333,160.0
528,0.0,-462.93333333333334,160.0
529,8.533333333333333,-448.0,168.53333333333333
530,6.4,-439.46666666666664,179.2
531,6.4,-430.93333333333334,174.93333333333334
532,10.666666666666666,-420.26666666666665,174.93333333333334
533,12.8,-416.0,179.2
534,17.066666666666666,-422.4,177.06666666666666
535,12.8,-428.8,172.8
536,14.933333333333334,-437.3333333333333,177.06666666666666
537,23.466666666666665,-452.26666666666665,179.2
538,23.466666666666665,-469.3333333333333,174.93333333333334
539,17.066666666666666,-488.5333333333333,179.2
540,8.533333333333333,-490.6666666666667,181.33333333333334
541,8.533333333333333,-505.59999999999997,183.46666666666667
542,6.4,-520.5333333333333,174.93333333333334
543,12.8,-522.6666666666666,179.2
544,6.4,-537.6,194.13333333333333
545,4.266666666666667,-535.4666666666667,198.4
546,2.1333333333333333,-544.0,204.8
547,2.1333333333333333,-546.1333333333333,198.4
548,6.4,-539.7333333333333,187.73333333333332
549,-2.1333333333333333,-544.0,185.6
550,-6.4,-544.0,174.93333333333334
551,-17.066666666666666,-546.1333333333333,177.06666666666666
552,-14.933333333333334,-544.0,168.53333333333333
553,-19.2,-541.8666666666667,177.06666666666666
554,0.0,-537.6,189.86666666666667
555,-4.266666666666667,-539.7333333333333,183.46666666666667
556,2.1333333333333333,-541.8666666666667,187.73333333333332
557,10.666666666666666,-537.6,200.53333333333333
558,46.93333333333333,-546.1333333333333,189.86666666666667
559,66.13333333333333,-546.1333333333333,183.46666666666667
560,87.46666666666667,-546.1333333333333,181.33333333333334
561,121.6,-558.9333333333333,192.0
562,138.66666666666666,-571.7333333333333,196.26666666666665
563,160.0,-580.2666666666667,206.93333333333334
564,166.4,-582.4,221.86666666666667
565,181.33333333333334,-601.6,238.93333333333334
566,183.46666666666667,-597.3333333333334,258.1333333333333
567,172.8,-605.8666666666667,262.4
568,185.6,-676.2666666666667,192.0
569,181.33333333333334,-716.8,81.06666666666666
570,104.53333333333333,-742.4,10.666666666666666
571,44.8,-819.2,49.06666666666666
572,36.266666666666666,-891.7333333333333,174.93333333333334
573,42.666666666666664,-906.6666666666666,232.53333333333333
574,57.6,-887.4666666666667,241.06666666666666
575,68.26666666666667,-872.5333333333333,243.2
576,91.73333333333333,-876.8,232.53333333333333
577,123.73333333333333,-861.8666666666667,217.6
578,149.33333333333334,-829.8666666666667,181.33333333333334
579,153.6,-821.3333333333334,142.93333333333334
580,132.26666666666665,-791.4666666666667,130.13333333333333
581,130.13333333333333,-778.6666666666666,119.46666666666667
582,113.06666666666666,-738.1333333333333,108.8
583,108.8,-712.5333333333333,104.53333333333333
584,106.66666666666667,-674.1333333333333,85.33333333333333
585,93.86666666666666,-637.8666666666667,55.46666666666667
586,74.66666666666667,-595.2,19.2
587,36.266666666666666,-556.8,-14.933333333333334
588,14.933333333333334,-546.1333333333333,-36.266666666666666
589,-4.266666666666667,-522.6666666666666,-55.46666666666667
590,-29.866666666666667,-497.06666666666666,-59.733333333333334
591,-53.333333333333336,-454.4,-46.93333333333333
592,-68.26666666666667,-426.6666666666667,-51.2
593,-81.06666666666666,-418.1333333333333,-36.266666666666666
594,-104.53333333333333,-411.73333333333335,-19.2
595,-123.73333333333333,-405.3333333333333,-6.4
596,-136.53333333333333,-405.3333333333333,2.1333333333333333
597,-142.93333333333334,-418.1333333333333,6.4
598,-145.06666666666666,-437.3333333333333,23.466666666666665
599,-149.33333333333334,-458.6666666666667,27.733333333333334
600,-134.4,-488.5333333333333,29.866666666666667
601,-115.2,-520.5333333333333,40.53333333333333
602,-98.13333333333333,-541.8666666666667,57.6
603,-76.8,-573.8666666666667,66.13333333333333
604,-55.46666666666667,-601.6,74.66666666666667
605,-32.0,-627.2,70.4
606,-19.2,-635.7333333333333,76.8
607,0.0,-652.8,76.8
608,19.2,-652.8,74.66666666666667
609,23.466666666666665,-652.8,72.53333333333333
610,27.733333333333334,-648.5333333333333,66.13333333333333
611,25.6,-637.8666666666667,74.66666666666667
612,21.333333333333332,-618.6666666666666,70.4
613,12.8,-599.4666666666667,64.0
614,0.0,-573.8666666666667,53.333333333333336
615,-4.266666666666667,-552.5333333333333,55.46666666666667
616,-17.066666666666666,-522.6666666666666,44.8
617,-14.933333333333334,-497.06666666666666,44.8
618,-14.933333333333334,-475.73333333333335,46.93333333333333
619,-6.4,-462.93333333333334,46.93333333333333
620,-12.8,-452.26666666666665,55.46666666666667
621,-8.533333333333333,-452.26666666666665,55.46666666666667
622,-12.8,-462.93333333333334,61.86666666666667
623,-10.666666666666666,-467.2,59.733333333333334
624,-10.666666666666666,-467.2,74.66666666666667
625,-17.066666666666666,-467.2,83.2
626,-17.066666666666666,-467.2,85.33333333333333
627,-23.466666666666665,-467.2,91.73333333333333
628,-25.6,-473.59999999999997,100.26666666666667
629,-36.266666666666666,-441.59999999999997,102.4
630,-40.53333333333333,-462.93333333333334,108.8
631,-51.2,-460.8,117.33333333333333
632,-51.2,-458.6666666666667,125.86666666666666
633,-51.2,-471.46666666666664,130.13333333333333
634,-59.733333333333334,-465.06666666666666,128.0
635,-61.86666666666667,-475.73333333333335,134.4
636,-70.4,-482.1333333333333,132.26666666666665
637,-68.26666666666667,-488.5333333333333,134.4
638,-61.86666666666667,-497.06666666666666,134.4
639,-51.2,-509.8666666666667,140.8
640,-72.53333333333333,-516.2666666666667,136.53333333333333
641,-64.0,-509.8666666666667,142.93333333333334
642,-64.0,-514.1333333333333,142.93333333333334
643,-57.6,-518.4,149.33333333333334
644,-49.06666666666666,-512.0,149.33333333333334
645,-40.53333333333333,-509.8666666666667,168.53333333333333
646,-42.666666666666664,-497.06666666666666,157.86666666666667
647,-38.4,-482.1333333333333,168.53333333333333
648,-25.6,-473.59999999999997,155.73333333333332
649,-14.933333333333334,-467.2,157.86666666666667
650,-25.6,-460.8,147.2
651,-6.4,-450.1333333333333,140.8
652,-12.8,-443.73333333333335,149.33333333333334
653,-14.933333333333334,-441.59999999999997,153.6
654,0.0,-443.73333333333335,151.46666666666667
655,0.0,-448.0,160.0
656,-17.066666666666666,-445.8666666666667,170.66666666666666
657,-23.466666666666665,-458.6666666666667,174.93333333333334
658,-19.2,-456.5333333333333,172.8
659,-17.066666666666666,-469.3333333333333,172.8
660,-4.266666666666667,-482.1333333333333,174.93333333333334
661,-19.2,-499.2,194.13333333333333
662,-8.533333333333333,-520.5333333333333,196.26666666666665
663,-12.8,-526.9333333333333,206.93333333333334
664,-12.8,-539.7333333333333,192.0
665,-2.1333333333333333,-548.2666666666667,170.66666666666666
666,4.266666666666667,-550.4,166.4
667,17.066666666666666,-558.9333333333333,160.0
668,29.866666666666667,-567.4666666666667,149.33333333333334
669,29.866666666666667,-576.0,147.2
670,34.13333333333333,-580.2666666666667,138.66666666666666
671,25.6,-582.4,142.93333333333334
672,19.2,-586.6666666666666,145.06666666666666
673,2.1333333333333333,-582.4,136.53333333333333
674,-17.066666666666666,-586.6666666666666,138.66666666666666
675,-40.53333333333333,-593.0666666666666,162.13333333333333
676,-59.733333333333334,-584.5333333333333,168.53333333333333
677,-81.06666666666666,-580.2666666666667,179.2
678,-100.26666666666667,-590.9333333333333,202.66666666666666
679,-102.4,-582.4,217.6
680,-108.8,-580.2666666666667,234.66666666666666
681,-113.06666666666666,-578.1333333333333,258.1333333333333
682,-117.33333333333333,-586.6666666666666,279.46666666666664
683,-123.73333333333333,-584.5333333333333,300.8
684,-115.2,-586.6666666666666,302.93333333333334
685,-108.8,-584.5333333333333,317.8666666666667
686,-98.13333333333333,-584.5333333333333,332.8
687,-130.13333333333333,-584.5333333333333,337.06666666666666
688,-221.86666666666667,-631.4666666666667,258.1333333333333
689,-226.13333333333333,-678.4,166.4
690,-145.06666666666666,-710.4,51.2
691,-78.93333333333334,-819.2,87.46666666666667
692,-85.33333333333333,-887.4666666666667,202.66666666666666
693,-121.6,-923.7333333333333,251.73333333333332
694,-102.4,-906.6666666666666,234.66666666666666
695,-91.73333333333333,-898.1333333333333,217.6
696,-64.0,-887.4666666666667,219.73333333333332
697,-138.66666666666666,-851.1999999999999,226.13333333333333
698,-151.46666666666667,-817.0666666666666,179.2
699,-185.6,-793.6,140.8
700,-162.13333333333333,-757.3333333333334,106.66666666666667
701,-121.6,-740.2666666666667,61.86666666666667
702,-119.46666666666667,-723.2,44.8
703,-134.4,-684.8,40.53333333333333
704,-138.66666666666666,-654.9333333333333,29.866666666666667
705,-145.06666666666666,-612.2666666666667,14.933333333333334
706,-130.13333333333333,-578.1333333333333,-6.4
707,-106.66666666666667,-529.0666666666666,-38.4
708,-85.33333333333333,-501.3333333333333,-57.6
709,-72.53333333333333,-452.26666666666665,-68.26666666666667
710,-57.6,-422.4,-57.6
711,-34.13333333333333,-394.6666666666667,-68.26666666666667
712,0.0,-381.8666666666667,-68.26666666666667
713,19.2,-375.46666666666664,-61.86666666666667
714,42.666666666666664,-379.73333333333335,-61.86666666666667
715,78.93333333333334,-390.4,-36.266666666666666
716,83.2,-420.26666666666665,-19.2
717,78.93333333333334,-454.4,-10.666666666666666
718,72.53333333333333,-484.26666666666665,-2.1333333333333333
719,66.13333333333333,-522.6666666666666,27.733333333333334
720,66.13333333333333,-565.3333333333334,27.733333333333334
721,61.86666666666667,-603.7333333333333,51.2
722,46.93333333333333,-637.8666666666667,72.53333333333333
723,40.53333333333333,-665.6,78.93333333333334
724,29.866666666666667,-682.6666666666666,78.93333333333334
725,2.1333333333333333,-697.6,87.46666666666667
726,0.0,-712.5333333333333,85.33333333333333
727,-32.0,-706.1333333333333,85.33333333333333
728,-64.0,-693.3333333333334,85.33333333333333
729,-81.06666666666666,-678.4,78.93333333333334
730,-110.93333333333334,-663.4666666666667,72.53333333333333
731,-125.86666666666666,-635.7333333333333,68.26666666666667
732,-128.0,-603.7333333333333,64.0
733,-140.8,-569.6,64.0
734,-136.53333333333333,-548.2666666666667,61.86666666666667
735,-125.86666666666666,-514.1333333333333,66.13333333333333
736,-115.2,-482.1333333333333,72.53333333333333
737,-113.06666666666666,-443.73333333333335,78.93333333333334
738,-106.66666666666667,-437.3333333333333,68.26666666666667
739,-100.26666666666667,-430.93333333333334,72.53333333333333
740,-98.13333333333333,-424.5333333333333,76.8
741,-81.06666666666666,-420.26666666666665,78.93333333333334
742,-66.13333333333333,-426.6666666666667,74.66666666666667
743,-46.93333333333333,-430.93333333333334,78.93333333333334
744,-27.733333333333334,-437.3333333333333,85.33333333333333
745,-12.8,-437.3333333333333,83.2
746,2.1333333333333333,-437.3333333333333,85.33333333333333
747,2.1333333333333333,-448.0,91.73333333333333
748,17.066666666666666,-467.2,98.13333333333333
749,23.466666666666665,-469.3333333333333,102.4
750,25.6,-473.59999999999997,108.8
751,32.0,-484.26666666666665,110.93333333333334
752,36.266666666666666,-482.1333333333333,110.93333333333334
753,49.06666666666666,-497.06666666666666,110.93333333333334
754,46.93333333333333,-505.59999999999997,117.33333333333333
755,42.666666666666664,-503.46666666666664,108.8
756,42.666666666666664,-518.4,117.33333333333333
757,38.4,-526.9333333333333,113.06666666666666
758,44.8,-529.0666666666666,125.86666666666666
759,32.0,-524.8,117.33333333333333
760,29.866666666666667,-526.9333333333333,132.26666666666665
761,32.0,-516.2666666666667,140.8
762,27.733333333333334,-514.1333333333333,151.46666666666667
763,14.933333333333334,-492.8,162.13333333333333
764,12.8,-486.4,168.53333333333333
765,19.2,-460.8,166.4
766,12.8,-450.1333333333333,183.46666666666667
767,8.533333333333333,-433.06666666666666,174.93333333333334
768,2.1333333333333333,-426.6666666666667,185.6
769,2.1333333333333333,-422.4,187.73333333333332
770,0.0,-418.1333333333333,185.6
771,-8.533333333333333,-420.26666666666665,189.86666666666667
772,-8.533333333333333,-430.93333333333334,187.73333333333332
773,-12.8,-441.59999999999997,174.93333333333334
774,-23.466666666666665,-450.1333333333333,183.46666666666667
775,-25.6,-471.46666666666664,172.8
776,-34.13333333333333,-482.1333333333333,177.06666666666666
777,-27.733333333333334,-492.8,179.2
778,-25.6,-497.06666666666666,185.6
779,-25.6,-512.0,174.93333333333334
780,-27.733333333333334,-514.1333333333333,185.6
781,-21.333333333333332,-526.9333333333333,185.6
782,-27.733333333333334,-524.8,189.86666666666667
783,-23.466666666666665,-537.6,204.8
784,-12.8,-546.1333333333333,206.93333333333334
785,-19.2,-546.1333333333333,204.8
786,-10.666666666666666,-546.1333333333333,194.13333333333333
787,-12.8,-546.1333333333333,196.26666666666665
788,-17.066666666666666,-548.2666666666667,194.13333333333333
789,-12.8,-550.4,185.6
790,-2.1333333333333333,-546.1333333333333,162.13333333333333
791,2.1333333333333333,-537.6,145.06666666666666
792,8.533333333333333,-537.6,136.53333333333333
793,29.866666666666667,-526.9333333333333,136.53333333333333
794,38.4,-533.3333333333334,145.06666666666666
795,57.6,-544.0,151.46666666666667
796,72.53333333333333,-544.0,168.53333333333333
797,104.53333333333333,-558.9333333333333,192.0
798,117.33333333333333,-563.2,226.13333333333333
799,132.26666666666665,-582.4,234.66666666666666
800,142.93333333333334,-599.4666666666667,260.26666666666665
801,155.73333333333332,-610.1333333333333,275.2
802,166.4,-627.2,268.8
803,170.66666666666666,-627.2,279.46666666666664
804,164.26666666666665,-659.2,275.2
805,179.2,-701.8666666666667,166.4
806,145.06666666666666,-738.1333333333333,57.6
807,102.4,-778.6666666666666,36.266666666666666
808,66.13333333333333,-859.7333333333333,119.46666666666667
809,72.53333333333333,-925.8666666666667,209.06666666666666
810,93.86666666666666,-910.9333333333333,228.26666666666665
811,104.53333333333333,-883.1999999999999,230.4
812,132.26666666666665,-896.0,234.66666666666666
813,138.66666666666666,-887.4666666666667,232.53333333333333
814,145.06666666666666,-874.6666666666666,211.2
815,155.73333333333332,-842.6666666666666,170.66666666666666
816,149.33333333333334,-817.0666666666666,155.73333333333332
817,140.8,-804.2666666666667,134.4
818,138.66666666666666,-782.9333333333333,113.06666666666666
819,138.66666666666666,-761.6,74.66666666666667
820,119.46666666666667,-723.2,61.86666666666667
821,98.13333333333333,-684.8,34.13333333333333
822,74.66666666666667,-642.1333333333333,6.4
823,55.46666666666667,-605.8666666666667,-8.533333333333333
824,8.533333333333333,-561.0666666666666,-25.6
825,-21.333333333333332,-539.7333333333333,-32.0
826,-49.06666666666666,-512.0,-40.53333333333333
827,-72.53333333333333,-471.46666666666664,-44.8
828,-100.26666666666667,-445.8666666666667,-42.666666666666664
829,-115.2,-409.6,-40.53333333333333
830,-132.26666666666665,-386.1333333333333,-44.8
831,-151.46666666666667,-369.06666666666666,-29.866666666666667
832,-172.8,-369.06666666666666,-6.4
833,-183.46666666666667,-381.8666666666667,2.1333333333333333
834,-192.0,-398.93333333333334,8.533333333333333
835,-189.86666666666667,-416.0,19.2
836,-181.33333333333334,-454.4,23.466666666666665
837,-160.0,-494.93333333333334,38.4
838,-142.93333333333334,-539.7333333333333,59.733333333333334
839,-113.06666666666666,-576.0,66.13333333333333
840,-87.46666666666667,-614.4,76.8
841,-70.4,-629.3333333333334,66.13333333333333
842,-44.8,-648.5333333333333,57.6
843,-17.066666666666666,-661.3333333333334,53.333333333333336
844,4.266666666666667,-652.8,53.333333333333336
845,27.733333333333334,-654.9333333333333,42.666666666666664
846,42.666666666666664,-644.2666666666667,51.2
847,53.333333333333336,-622.9333333333333,38.4
848,66.13333333333333,-605.8666666666667,46.93333333333333
849,61.86666666666667,-580.2666666666667,36.266666666666666
850,70.4,-563.2,40.53333333333333
851,66.13333333333333,-537.6,38.4
852,59.733333333333334,-503.46666666666664,42.666666666666664
853,59.733333333333334,-499.2,55.46666666666667
854,55.46666666666667,-475.73333333333335,51.2
855,51.2,-465.06666666666666,53.333333333333336
856,44.8,-460.8,66.13333333333333
857,38.4,-462.93333333333334,66.13333333333333
858,27.733333333333334,-475.73333333333335,78.93333333333334
859,19.2,-471.46666666666664,87.46666666666667
860,14.933333333333334,-469.3333333333333,93.86666666666666
861,10.666666666666666,-477.8666666666667,98.13333333333333
862,6.4,-482.1333333333333,96.0
863,10.666666666666666,-484.26666666666665,104.53333333333333
864,2.1333333333333333,-480.0,121.6
865,-4.266666666666667,-480.0,115.2
866,-14.933333333333334,-473.59999999999997,123.73333333333333
867,-23.466666666666665,-469.3333333333333,125.86666666666666
868,-32.0,-473.59999999999997,128.0
869,-40.53333333333333,-465.06666666666666,134.4
870,-46.93333333333333,-460.8,140.8
871,-42.666666666666664,-465.06666666666666,128.0
872,-34.13333333333333,-471.46666666666664,138.66666666666666
873,-44.8,-465.06666666666666,138.66666666666666
874,-44.8,-471.46666666666664,138.66666666666666
875,-44.8,-477.8666666666667,147.2
876,-55.46666666666667,-480.0,151.46666666666667
877,-51.2,-494.93333333333334,160.0
878,-57.6,-492.8,162.13333333333333
879,-57.6,-492.8,170.66666666666666
880,-53.333333333333336,-501.3333333333333,166.4
881,-49.06666666666666,-492.8,170.66666666666666
882,-44.8,-492.8,177.06666666666666
883,-38.4,-492.8,172.8
884,-21.333333333333332,-482.1333333333333,166.4
885,-14.933333333333334,-482.1333333333333,172.8
886,-14.933333333333334,-471.46666666666664,174.93333333333334
887,-10.666666666666666,-467.2,179.2
888,-2.1333333333333333,-460.8,168.53333333333333
889,2.1333333333333333,-458.6666666666667,174.93333333333334
890,6.4,-450.1333333333333,183.46666666666667
891,2.1333333333333333,-445.8666666666667,179.2
892,-4.266666666666667,-443.73333333333335,183.46666666666667
893,0.0,-445.8666666666667,181.33333333333334
894,-17.066666666666666,-452.26666666666665,179.2
895,0.0,-462.93333333333334,166.4
896,-32.0,-454.4,194.13333333333333
897,-23.466666666666665,-467.2,187.73333333333332
898,-17.066666666666666,-469.3333333333333,185.6
899,-17.066666666666666,-484.26666666666665,183.46666666666667
900,-14.933333333333334,-503.46666666666664,179.2
901,-2.1333333333333333,-507.73333333333335,179.2
902,0.0,-522.6666666666666,172.8
903,8.533333333333333,-524.8,166.4
904,21.333333333333332,-541.8666666666667,172.8
905,21.333333333333332,-548.2666666666667,160.0
906,32.0,-561.0666666666666,155.73333333333332
907,36.266666666666666,-569.6,145.06666666666666
908,19.2,-578.1333333333333,142.93333333333334
909,19.2,-588.8,160.0
910,-2.1333333333333333,-593.0666666666666,151.46666666666667
911,-2.1333333333333333,-601.6,164.26666666666665
912,-21.333333333333332,-605.8666666666667,183.46666666666667
913,-40.53333333333333,-610.1333333333333,206.93333333333334
914,-57.6,-616.5333333333333,230.4
915,-68.26666666666667,-625.0666666666666,243.2
916,-68.26666666666667,-616.5333333333333,260.26666666666665
917,-70.4,-612.2666666666667,268.8
918,-93.86666666666666,-612.2666666666667,288.0
919,-96.0,-603.7333333333333,290.1333333333333
920,-100.26666666666667,-601.6,298.6666666666667
921,-93.86666666666666,-573.8666666666667,281.6
922,-89.6,-546.1333333333333,275.2
923,-74.66666666666667,-541.8666666666667,270.93333333333334
924,-55.46666666666667,-529.0666666666666,273.06666666666666
925,-81.06666666666666,-529.0666666666666,264.5333333333333
926,-192.0,-544.0,177.06666666666666
927,-266.6666666666667,-569.6,128.0
928,-162.13333333333333,-622.9333333333333,6.4
929,-85.33333333333333,-725.3333333333334,0.0
930,-55.46666666666667,-844.8,115.2
931,-55.46666666666667,-925.8666666666667,241.06666666666666
932,-34.13333333333333,-957.8666666666667,273.06666666666666
933,-34.13333333333333,-977.0666666666666,247.46666666666667
934,-89.6,-968.5333333333333,228.26666666666665
935,-189.86666666666667,-953.6,194.13333333333333
936,-245.33333333333334,-934.4,134.4
937,-247.46666666666667,-908.8,61.86666666666667
938,-230.4,-881.0666666666666,10.666666666666666
939,-215.46666666666667,-829.8666666666667,-46.93333333333333
940,-200.53333333333333,-770.1333333333333,-72.53333333333333
941,-196.26666666666665,-710.4,-68.26666666666667
942,-185.6,-650.6666666666666,-61.86666666666667
943,-164.26666666666665,-576.0,-74.66666666666667
944,-134.4,-499.2,-87.46666666666667
945,-108.8,-443.73333333333335,-113.06666666666666
946,-85.33333333333333,-405.3333333333333,-117.33333333333333
947,-68.26666666666667,-373.3333333333333,-119.46666666666667
948,-34.13333333333333,-356.26666666666665,-104.53333333333333
949,2.1333333333333333,-366.93333333333334,-96.0
950,27.733333333333334,-375.46666666666664,-91.73333333333333
951,57.6,-405.3333333333333,-83.2
952,68.26666666666667,-437.3333333333333,-61.86666666666667
953,81.06666666666666,-488.5333333333333,-8.533333333333333
954,68.26666666666667,-533.3333333333334,14.933333333333334
955,70.4,-578.1333333333333,34.13333333333333
956,53.333333333333336,-614.4,57.6
957,44.8,-646.4,66.13333333333333
958,19.2,-680.5333333333333,70.4
959,0.0,-693.3333333333334,76.8
960,-14.933333333333334,-718.9333333333333,74.66666666666667
961,-34.13333333333333,-723.2,66.13333333333333
962,-55.46666666666667,-721.0666666666666,66.13333333333333
963,-91.73333333333333,-706.1333333333333,49.06666666666666
964,-98.13333333333333,-689.0666666666666,42.666666666666664
965,-130.13333333333333,-674.1333333333333,21.333333333333332
966,-140.8,-644.2666666666667,38.4
967,-151.46666666666667,-625.0666666666666,51.2
968,-147.2,-595.2,42.666666666666664
969,-140.8,-563.2,55.46666666666667
970,-134.4,-524.8,72.53333333333333
971,-134.4,-497.06666666666666,81.06666666666666
972,-110.93333333333334,-465.06666666666666,66.13333333333333
973,-93.86666666666666,-441.59999999999997,66.13333333333333
974,-74.66666666666667,-426.6666666666667,64.0
975,-68.26666666666667,-413.8666666666667,70.4
976,-68.26666666666667,-418.1333333333333,59.733333333333334
977,-46.93333333333333,-420.26666666666665,68.26666666666667
978,-40.53333333333333,-418.1333333333333,57.6
979,-25.6,-424.5333333333333,66.13333333333333
980,-8.533333333333333,-424.5333333333333,64.0
981,4.266666666666667,-428.8,57.6
982,8.533333333333333,-428.8,72.53333333333333
983,23.466666666666665,-439.46666666666664,66.13333333333333
984,38.4,-456.5333333333333,70.4
985,46.93333333333333,-460.8,72.53333333333333
986,44.8,-460.8,61.86666666666667
987,57.6,-477.8666666666667,68.26666666666667
988,64.0,-492.8,70.4
989,64.0,-499.2,70.4
990,66.13333333333333,-514.1333333333333,70.4
991,70.4,-526.9333333333333,87.46666666666667
992,70.4,-535.4666666666667,81.06666666666666
993,61.86666666666667,-539.7333333333333,93.86666666666666
994,61.86666666666667,-546.1333333333333,106.66666666666667
995,66.13333333333333,-552.5333333333333,132.26666666666665
996,44.8,-544.0,125.86666666666666
997,44.8,-544.0,138.66666666666666
998,34.13333333333333,-529.0666666666666,145.06666666666666
999,27.733333333333334,-512.0,147.2
1000,21.333333333333332,-492.8,147.2
1001,23.466666666666665,-480.0,149.33333333333334
1002,12.8,-465.06666666666666,145.06666666666666
1003,14.933333333333334,-452.26666666666665,138.66666666666666
1004,14.933333333333334,-445.8666666666667,138.66666666666666
1005,12.8,-435.2,134.4
1006,10.666666666666666,-433.06666666666666,123.73333333333333
1007,14.933333333333334,-426.6666666666667,130.13333333333333
1008,10.666666666666666,-433.06666666666666,130.13333333333333
1009,10.666666666666666,-443.73333333333335,119.46666666666667
1010,6.4,-452.26666666666665,123.73333333333333
1011,12.8,-467.2,130.13333333333333
1012,12.8,-480.0,134.4
1013,17.066666666666666,-490.6666666666667,134.4
1014,25.6,-505.59999999999997,136.53333333333333
1015,23.466666666666665,-516.2666666666667,138.66666666666666
1016,27.733333333333334,-529.0666666666666,142.93333333333334
1017,29.866666666666667,-524.8,160.0
1018,44.8,-535.4666666666667,174.93333333333334
1019,40.53333333333333,-539.7333333333333,179.2
1020,40.53333333333333,-539.7333333333333,164.26666666666665
1021,40.53333333333333,-544.0,174.93333333333334
1022,25.6,-544.0,170.66666666666666
1023,38.4,-550.4,166.4
1024,32.0,-561.0666666666666,172.8
1025,23.466666666666665,-558.9333333333333,166.4
1026,23.466666666666665,-565.3333333333334,164.26666666666665
1027,12.8,-558.9333333333333,170.66666666666666
1028,12.8,-571.7333333333333,170.66666666666666
1029,-2.1333333333333333,-576.0,172.8
1030,6.4,-573.8666666666667,153.6
1031,-6.4,-567.4666666666667,168.53333333333333
1032,-25.6,-563.2,166.4
1033,-29.866666666666667,-558.9333333333333,170.66666666666666
1034,-34.13333333333333,-571.7333333333333,192.0
1035,-42.666666666666664,-569.6,200.53333333333333
1036,-51.2,-563.2,230.4
1037,-32.0,-578.1333333333333,256.0
1038,-27.733333333333334,-586.6666666666666,281.6
1039,-4.266666666666667,-601.6,296.5333333333333
1040,2.1333333333333333,-612.2666666666667,305.06666666666666
1041,17.066666666666666,-612.2666666666667,302.93333333333334
1042,53.333333333333336,-616.5333333333333,279.46666666666664
1043,72.53333333333333,-622.9333333333333,258.1333333333333
1044,91.73333333333333,-635.7333333333333,234.66666666666666
1045,119.46666666666667,-650.6666666666666,202.66666666666666
1046,132.26666666666665,-665.6,183.46666666666667
1047,153.6,-678.4,166.4
1048,162.13333333333333,-693.3333333333334,153.6
1049,170.66666666666666,-712.5333333333333,155.73333333333332
1050,172.8,-738.1333333333333,151.46666666666667
1051,179.2,-753.0666666666666,134.4
1052,166.4,-778.6666666666666,115.2
1053,147.2,-795.7333333333333,113.06666666666666
1054,136.53333333333333,-808.5333333333333,132.26666666666665
1055,130.13333333333333,-819.2,134.4
1056,128.0,-819.2,136.53333333333333
1057,136.53333333333333,-819.2,115.2
1058,140.8,-817.0666666666666,85.33333333333333
1059,130.13333333333333,-806.4,49.06666666666666
1060,125.86666666666666,-791.4666666666667,4.266666666666667
1061,104.53333333333333,-759.4666666666667,-46.93333333333333
1062,96.0,-740.2666666666667,-68.26666666666667
1063,70.4,-689.0666666666666,-106.66666666666667
1064,49.06666666666666,-640.0,-130.13333333333333
1065,21.333333333333332,-610.1333333333333,-147.2
1066,4.266666666666667,-571.7333333333333,-162.13333333333333
1067,-6.4,-524.8,-160.0
1068,-38.4,-490.6666666666667,-153.6
1069,-55.46666666666667,-458.6666666666667,-134.4
1070,-85.33333333333333,-458.6666666666667,-117.33333333333333
1071,-96.0,-437.3333333333333,-104.53333333333333
1072,-106.66666666666667,-443.73333333333335,-87.46666666666667
1073,-110.93333333333334,-465.06666666666666,-72.53333333333333
1074,-115.2,-499.2,-44.8
1075,-104.53333333333333,-544.0,-36.266666666666666
1076,-110.93333333333334,-576.0,-25.6
1077,-108.8,-612.2666666666667,-4.266666666666667
1078,-106.66666666666667,-642.1333333333333,6.4
1079,-93.86666666666666,-665.6,14.933333333333334
1080,-93.86666666666666,-674.1333333333333,14.933333333333334
1081,-91.73333333333333,-674.1333333333333,8.533333333333333
1082,-83.2,-669.8666666666667,19.2
1083,-83.2,-672.0,6.4
1084,-76.8,-657.0666666666666,14.933333333333334
1085,-74.66666666666667,-640.0,0.0
1086,-68.26666666666667,-616.5333333333333,2.1333333333333333
1087,-57.6,-601.6,6.4
1088,-49.06666666666666,-576.0,4.266666666666667
1089,-38.4,-552.5333333333333,10.666666666666666
1090,-23.466666666666665,-537.6,17.066666666666666
1091,-12.8,-524.8,21.333333333333332
1092,2.1333333333333333,-514.1333333333333,21.333333333333332
1093,6.4,-505.59999999999997,27.733333333333334
1094,10.666666666666666,-503.46666666666664,29.866666666666667
1095,14.933333333333334,-492.8,36.266666666666666
1096,19.2,-492.8,49.06666666666666
1097,21.333333333333332,-503.46666666666664,38.4
1098,25.6,-492.8,34.13333333333333
1099,19.2,-486.4,44.8
1100,23.466666666666665,-484.26666666666665,27.733333333333334
1101,17.066666666666666,-475.73333333333335,27.733333333333334
1102,23.466666666666665,-480.0,32.0
1103,19.2,-477.8666666666667,40.53333333333333
1104,6.4,-473.59999999999997,38.4
1105,6.4,-484.26666666666665,49.06666666666666
1106,0.0,-482.1333333333333,59.733333333333334
1107,-6.4,-484.26666666666665,51.2
1108,-27.733333333333334,-486.4,64.0
1109,-29.866666666666667,-503.46666666666664,59.733333333333334
1110,-40.53333333333333,-505.59999999999997,72.53333333333333
1111,-59.733333333333334,-501.3333333333333,72.53333333333333
1112,-51.2,-507.73333333333335,81.06666666666666
1113,-57.6,-499.2,100.26666666666667
1114,-53.333333333333336,-518.4,91.73333333333333
1115,-53.333333333333336,-509.8666666666667,100.26666666666667
1116,-51.2,-514.1333333333333,102.4
1117,-49.06666666666666,-505.59999999999997,100.26666666666667
1118,-46.93333333333333,-505.59999999999997,100.26666666666667
1119,-46.93333333333333,-499.2,93.86666666666666
1120,-38.4,-492.8,93.86666666666666
1121,-38.4,-488.5333333333333,98.13333333333333
1122,-40.53333333333333,-477.8666666666667,83.2
1123,-42.666666666666664,-465.06666666666666,83.2
1124,-42.666666666666664,-452.26666666666665,85.33333333333333
1125,-66.13333333333333,-452.26666666666665,85.33333333333333
1126,-66.13333333333333,-443.73333333333335,87.46666666666667
1127,-76.8,-430.93333333333334,96.0
1128,-85.33333333333333,-435.2,91.73333333333333
1129,-102.4,-441.59999999999997,100.26666666666667
1130,-106.66666666666667,-448.0,108.8
1131,-119.46666666666667,-448.0,117.33333333333333
1132,-117.33333333333333,-460.8,119.46666666666667
1133,-125.86666666666666,-475.73333333333335,125.86666666666666
1134,-134.4,-486.4,138.66666666666666
1135,-136.53333333333333,-490.6666666666667,138.66666666666666
1136,-119.46666666666667,-505.59999999999997,136.53333333333333
1137,-108.8,-505.59999999999997,136.53333333333333
1138,-98.13333333333333,-522.6666666666666,145.06666666666666
1139,-89.6,-520.5333333333333,138.66666666666666
1140,-68.26666666666667,-522.6666666666666,138.66666666666666
1141,-57.6,-520.5333333333333,142.93333333333334
1142,-55.46666666666667,-520.5333333333333,136.53333333333333
1143,-38.4,-509.8666666666667,134.4
1144,-36.266666666666666,-512.0,145.06666666666666
1145,-29.866666666666667,-512.0,151.46666666666667
1146,-27.733333333333334,-514.1333333333333,166.4
1147,-29.866666666666667,-509.8666666666667,187.73333333333332
1148,-23.466666666666665,-518.4,187.73333333333332
1149,-23.466666666666665,-522.6666666666666,183.46666666666667
1150,-21.333333333333332,-518.4,185.6
1151,-29.866666666666667,-516.2666666666667,177.06666666666666
1152,-23.466666666666665,-524.8,177.06666666666666
1153,-19.2,-524.8,166.4
1154,-12.8,-522.6666666666666,157.86666666666667
1155,-8.533333333333333,-520.5333333333333,157.86666666666667
1156,0.0,-522.6666666666666,151.46666666666667
1157,8.533333333333333,-524.8,166.4
1158,10.666666666666666,-537.6,128.0
1159,8.533333333333333,-531.2,132.26666666666665
1160,17.066666666666666,-518.4,164.26666666666665
1161,25.6,-512.0,157.86666666666667
1162,19.2,-514.1333333333333,149.33333333333334
1163,21.333333333333332,-518.4,138.66666666666666
1164,17.066666666666666,-522.6666666666666,140.8
1165,6.4,-533.3333333333334,153.6
1166,2.1333333333333333,-548.2666666666667,164.26666666666665
1167,-2.1333333333333333,-569.6,181.33333333333334
1168,-17.066666666666666,-597.3333333333334,202.66666666666666
1169,-19.2,-625.0666666666666,209.06666666666666
1170,-23.466666666666665,-640.0,224.0
1171,-34.13333333333333,-654.9333333333333,228.26666666666665
1172,-44.8,-654.9333333333333,230.4
1173,-53.333333333333336,-661.3333333333334,234.66666666666666
1174,-55.46666666666667,-657.0666666666666,230.4
1175,-66.13333333333333,-654.9333333333333,228.26666666666665
1176,-83.2,-646.4,224.0
1177,-87.46666666666667,-635.7333333333333,224.0
1178,-102.4,-625.0666666666666,226.13333333333333
1179,-100.26666666666667,-605.8666666666667,217.6
1180,-119.46666666666667,-612.2666666666667,217.6
1181,-134.4,-612.2666666666667,204.8
1182,-140.8,-618.6666666666666,196.26666666666665
1183,-164.26666666666665,-635.7333333333333,192.0
1184,-179.2,-650.6666666666666,185.6
1185,-204.8,-680.5333333333333,179.2
1186,-202.66666666666666,-699.7333333333333,168.53333333333333
1187,-183.46666666666667,-729.6,155.73333333333332
1188,-170.66666666666666,-768.0,142.93333333333334
1189,-162.13333333333333,-785.0666666666666,142.93333333333334
1190,-155.73333333333332,-802.1333333333333,113.06666666666666
1191,-147.2,-806.4,102.4
1192,-145.06666666666666,-810.6666666666666,72.53333333333333
1193,-151.46666666666667,-802.1333333333333,55.46666666666667
1194,-134.4,-793.6,23.466666666666665
1195,-136.53333333333333,-778.6666666666666,25.6
1196,-130.13333333333333,-753.0666666666666,2.1333333333333333
1197,-121.6,-716.8,-23.466666666666665
1198,-108.8,-682.6666666666666,-44.8
1199,-100.26666666666667,-642.1333333333333,-59.733333333333334
1200,-98.13333333333333,-610.1333333333333,-87.46666666666667
1201,-81.06666666666666,-561.0666666666666,-87.46666666666667
1202,-66.13333333333333,-537.6,-110.93333333333334
1203,-55.46666666666667,-507.73333333333335,-115.2
1204,-46.93333333333333,-486.4,-108.8
1205,-34.13333333333333,-467.2,-110.93333333333334
1206,-25.6,-456.5333333333333,-108.8
1207,-19.2,-454.4,-102.4
1208,-6.4,-458.6666666666667,-91.73333333333333
1209,-4.266666666666667,-480.0,-87.46666666666667
1210,-4.266666666666667,-499.2,-74.66666666666667
1211,-21.333333333333332,-524.8,-64.0
1212,-17.066666666666666,-563.2,-53.333333333333336
1213,-40.53333333333333,-573.8666666666667,-25.6
1214,-53.333333333333336,-593.0666666666666,-10.666666666666666
1215,-68.26666666666667,-614.4,2.1333333333333333
1216,-76.8,-633.6,0.0
1217,-96.0,-637.8666666666667,-4.266666666666667
1218,-96.0,-657.0666666666666,6.4
1219,-113.06666666666666,-657.0666666666666,4.266666666666667
1220,-117.33333333333333,-659.2,14.933333333333334
1221,-123.73333333333333,-661.3333333333334,4.266666666666667
1222,-125.86666666666666,-652.8,8.533333333333333
1223,-115.2,-646.4,2.1333333333333333
1224,-110.93333333333334,-631.4666666666667,21.333333333333332
1225,-96.0,-635.7333333333333,23.466666666666665
1226,-98.13333333333333,-603.7333333333333,21.333333333333332
1227,-91.73333333333333,-582.4,12.8
1228,-70.4,-567.4666666666667,25.6
1229,-87.46666666666667,-550.4,29.866666666666667
1230,-83.2,-541.8666666666667,27.733333333333334
1231,-66.13333333333333,-529.0666666666666,29.866666666666667
1232,-64.0,-524.8,32.0
1233,-66.13333333333333,-514.1333333333333,36.266666666666666
1234,-61.86666666666667,-524.8,53.333333333333336
1235,-49.06666666666666,-505.59999999999997,49.06666666666666
1236,-49.06666666666666,-505.59999999999997,59.733333333333334
1237,-32.0,-509.8666666666667,59.733333333333334
1238,-27.733333333333334,-503.46666666666664,53.333333333333336
1239,-29.866666666666667,-486.4,64.0
1240,-23.466666666666665,-499.2,61.86666666666667
1241,-19.2,-488.5333333333333,55.46666666666667
1242,-2.1333333333333333,-488.5333333333333,53.333333333333336
1243,2.1333333333333333,-480.0,46.93333333333333
1244,8.533333333333333,-477.8666666666667,53.333333333333336
1245,4.266666666666667,-471.46666666666664,64.0
1246,4.266666666666667,-477.8666666666667,59.733333333333334
1247,0.0,-482.1333333333333,66.13333333333333
1248,0.0,-484.26666666666665,70.4
1249,-10.666666666666666,-477.8666666666667,81.06666666666666
1250,-12.8,-480.0,85.33333333333333
1251,-25.6,-482.1333333333333,85.33333333333333
1252,-29.866666666666667,-482.1333333333333,98.13333333333333
1253,-27.733333333333334,-484.26666666666665,98.13333333333333
1254,-21.333333333333332,-480.0,102.4
1255,-17.066666666666666,-480.0,104.53333333333333
1256,-8.533333333333333,-477.8666666666667,98.13333333333333
1257,2.1333333333333333,-475.73333333333335,100.26666666666667
1258,2.1333333333333333,-465.06666666666666,100.26666666666667
1259,6.4,-458.6666666666667,96.0
1260,17.066666666666666,-454.4,91.73333333333333
1261,23.466666666666665,-448.0,87.46666666666667
1262,29.866666666666667,-448.0,78.93333333333334
1263,23.466666666666665,-445.8666666666667,83.2
1264,27.733333333333334,-448.0,81.06666666666666
1265,29.866666666666667,-452.26666666666665,85.33333333333333
1266,34.13333333333333,-454.4,98.13333333333333
1267,34.13333333333333,-462.93333333333334,91.73333333333333
1268,27.733333333333334,-469.3333333333333,106.66666666666667
1269,23.466666666666665,-484.26666666666665,110.93333333333334
1270,17.066666666666666,-486.4,117.33333333333333
1271,4.266666666666667,-488.5333333333333,125.86666666666666
1272,2.1333333333333333,-499.2,132.26666666666665
1273,-6.4,-509.8666666666667,151.46666666666667
1274,-17.066666666666666,-509.8666666666667,149.33333333333334
1275,-25.6,-520.5333333333333,160.0
1276,-25.6,-520.5333333333333,160.0
1277,-29.866666666666667,-533.3333333333334,157.86666666666667
1278,-36.266666666666666,-537.6,172.8
1279,-38.4,-529.0666666666666,174.93333333333334
1280,-38.4,-526.9333333333333,179.2
1281,-34.13333333333333,-533.3333333333334,174.93333333333334
1282,-32.0,-533.3333333333334,177.06666666666666
1283,-29.866666666666667,-524.8,172.8
1284,-38.4,-514.1333333333333,168.53333333333333
1285,-34.13333333333333,-499.2,164.26666666666665
1286,-32.0,-490.6666666666667,164.26666666666665
1287,-29.866666666666667,-492.8,155.73333333333332
1288,-29.866666666666667,-484.26666666666665,164.26666666666665
1289,-38.4,-475.73333333333335,162.13333333333333
1290,0.0,-488.5333333333333,187.73333333333332
1291,-10.666666666666666,-488.5333333333333,187.73333333333332
1292,2.1333333333333333,-499.2,174.93333333333334
1293,4.266666666666667,-505.59999999999997,166.4
1294,14.933333333333334,-522.6666666666666,172.8
1295,12.8,-522.6666666666666,177.06666666666666
1296,17.066666666666666,-541.8666666666667,179.2
1297,12.8,-548.2666666666667,177.06666666666666
1298,17.066666666666666,-554.6666666666666,183.46666666666667
1299,14.933333333333334,-544.0,177.06666666666666
1300,2.1333333333333333,-563.2,198.4
1301,-6.4,-569.6,198.4
1302,-25.6,-576.0,213.33333333333334
1303,-27.733333333333334,-576.0,204.8
1304,-17.066666666666666,-580.2666666666667,202.66666666666666
1305,-23.466666666666665,-573.8666666666667,198.4
1306,-17.066666666666666,-565.3333333333334,192.0
1307,-8.533333333333333,-563.2,174.93333333333334
1308,6.4,-556.8,160.0
1309,23.466666666666665,-552.5333333333333,145.06666666666666
1310,49.06666666666666,-554.6666666666666,130.13333333333333
1311,66.13333333333333,-558.9333333333333,134.4
1312,89.6,-571.7333333333333,119.46666666666667
1313,121.6,-571.7333333333333,113.06666666666666
1314,140.8,-595.2,117.33333333333333
1315,155.73333333333332,-612.2666666666667,119.46666666666667
1316,166.4,-644.2666666666667,125.86666666666666
1317,177.06666666666666,-672.0,125.86666666666666
1318,194.13333333333333,-691.2,132.26666666666665
1319,198.4,-716.8,134.4
1320,209.06666666666666,-736.0,138.66666666666666
1321,196.26666666666665,-748.8,123.73333333333333
1322,187.73333333333332,-753.0666666666666,119.46666666666667
1323,181.33333333333334,-759.4666666666667,125.86666666666666
1324,177.06666666666666,-744.5333333333333,93.86666666666666
1325,149.33333333333334,-733.8666666666667,96.0
1326,130.13333333333333,-721.0666666666666,89.6
1327,104.53333333333333,-710.4,87.46666666666667
1328,76.8,-697.6,72.53333333333333
1329,49.06666666666666,-689.0666666666666,76.8
1330,12.8,-672.0,74.66666666666667
1331,0.0,-659.2,98.13333333333333
1332,-12.8,-648.5333333333333,108.8
1333,-25.6,-635.7333333333333,125.86666666666666
1334,-25.6,-620.8,123.73333333333333
1335,-19.2,-595.2,110.93333333333334
1336,-17.066666666666666,-580.2666666666667,87.46666666666667
1337,-8.533333333333333,-563.2,66.13333333333333
1338,-12.8,-550.4,46.93333333333333
1339,-14.933333333333334,-535.4666666666667,23.466666666666665
1340,-29.866666666666667,-516.2666666666667,8.533333333333333
1341,-12.8,-505.59999999999997,-4.266666666666667
1342,-23.466666666666665,-490.6666666666667,-21.333333333333332
1343,-27.733333333333334,-484.26666666666665,-46.93333333333333
1344,-29.866666666666667,-484.26666666666665,-53.333333333333336
1345,-40.53333333333333,-471.46666666666664,-76.8
1346,-53.333333333333336,-460.8,-76.8
1347,-53.333333333333336,-450.1333333333333,-89.6
1348,-51.2,-441.59999999999997,-98.13333333333333
1349,-55.46666666666667,-424.5333333333333,-91.73333333333333
1350,-49.06666666666666,-413.8666666666667,-81.06666666666666
1351,-59.733333333333334,-407.46666666666664,-61.86666666666667
1352,-55.46666666666667,-398.93333333333334,-53.333333333333336
1353,-59.733333333333334,-405.3333333333333,-38.4
1354,-61.86666666666667,-403.2,-38.4
1355,-57.6,-407.46666666666664,-27.733333333333334
1356,-55.46666666666667,-416.0,-19.2
1357,-55.46666666666667,-422.4,-17.066666666666666
1358,-53.333333333333336,-428.8,-29.866666666666667
1359,-53.333333333333336,-430.93333333333334,-44.8
1360,-57.6,-437.3333333333333,-68.26666666666667
1361,-49.06666666666666,-450.1333333333333,-78.93333333333334
1362,-49.06666666666666,-456.5333333333333,-85.33333333333333
1363,-44.8,-458.6666666666667,-115.2
1364,-55.46666666666667,-477.8666666666667,-136.53333333333333
1365,-55.46666666666667,-492.8,-147.2
1366,-57.6,-509.8666666666667,-142.93333333333334
1367,-49.06666666666666,-537.6,-119.46666666666667
1368,-36.266666666666666,-544.0,-91.73333333333333
1369,-49.06666666666666,-550.4,-76.8
1370,-51.2,-556.8,-74.66666666666667
1371,-59.733333333333334,-558.9333333333333,-87.46666666666667
1372,-68.26666666666667,-567.4666666666667,-87.46666666666667
1373,-74.66666666666667,-565.3333333333334,-87.46666666666667
1374,-74.66666666666667,-571.7333333333333,-85.33333333333333
1375,-74.66666666666667,-563.2,-96.0
1376,-70.4,-546.1333333333333,-100.26666666666667
1377,-66.13333333333333,-522.6666666666666,-110.93333333333334
1378,-57.6,-494.93333333333334,-130.13333333333333
1379,-66.13333333333333,-471.46666666666664,-138.66666666666666
1380,-61.86666666666667,-458.6666666666667,-136.53333333333333
1381,-70.4,-437.3333333333333,-136.53333333333333
1382,-76.8,-428.8,-130.13333333333333
1383,-74.66666666666667,-407.46666666666664,-132.26666666666665
1384,-76.8,-409.6,-130.13333333333333
1385,-61.86666666666667,-405.3333333333333,-130.13333333333333
1386,-61.86666666666667,-392.5333333333333,-117.33333333333333
1387,-51.2,-386.1333333333333,-102.4
1388,-32.0,-373.3333333333333,-110.93333333333334
1389,-17.066666666666666,-358.4,-128.0
1390,-6.4,-354.1333333333333,-147.2
1391,-10.666666666666666,-360.5333333333333,-157.86666666666667
1392,-14.933333333333334,-373.3333333333333,-151.46666666666667
1393,-25.6,-390.4,-155.73333333333332
1394,-29.866666666666667,-413.8666666666667,-155.73333333333332
1395,-49.06666666666666,-439.46666666666664,-164.26666666666665
1396,-55.46666666666667,-480.0,-162.13333333333333
1397,-70.4,-520.5333333333333,-155.73333333333332
1398,-72.53333333333333,-548.2666666666667,-164.26666666666665
1399,-81.06666666666666,-580.2666666666667,-162.13333333333333
1400,-74.66666666666667,-605.8666666666667,-172.8
1401,-76.8,-610.1333333333333,-170.66666666666666
1402,-64.0,-620.8,-172.8
1403,-66.13333333333333,-618.6666666666666,-168.53333333333333
1404,-74.66666666666667,-603.7333333333333,-164.26666666666665
1405,-89.6,-614.4,-145.06666666666666
1406,-100.26666666666667,-618.6666666666666,-134.4
1407,-104.53333333333333,-614.4,-128.0
1408,-100.26666666666667,-642.1333333333333,-98.13333333333333
1409,-113.06666666666666,-644.2666666666667,-87.46666666666667
1410,-106.66666666666667,-650.6666666666666,-81.06666666666666
1411,-108.8,-631.4666666666667,-74.66666666666667
1412,-125.86666666666666,-629.3333333333334,-61.86666666666667
1413,-123.73333333333333,-629.3333333333334,-55.46666666666667
1414,-106.66666666666667,-622.9333333333333,-61.86666666666667
1415,-102.4,-614.4,-98.13333333333333
1416,-100.26666666666667,-576.0,-98.13333333333333
1417,-89.6,-548.2666666666667,-130.13333333333333
1418,-76.8,-497.06666666666666,-151.46666666666667
1419,-66.13333333333333,-445.8666666666667,-179.2
1420,-55.46666666666667,-411.73333333333335,-204.8
1421,-55.46666666666667,-379.73333333333335,-241.06666666666666
1422,-53.333333333333336,-345.6,-273.06666666666666
1423,-55.46666666666667,-330.6666666666667,-309.3333333333333
1424,-53.333333333333336,-313.6,-341.3333333333333
1425,-57.6,-315.73333333333335,-384.0
1426,-53.333333333333336,-322.1333333333333,-405.3333333333333
1427,-59.733333333333334,-352.0,-443.73333333333335
1428,-61.86666666666667,-405.3333333333333,-465.06666666666666
1429,-64.0,-443.73333333333335,-452.26666666666665
1430,-72.53333333333333,-480.0,-445.8666666666667
1431,-89.6,-520.5333333333333,-454.4
1432,-81.06666666666666,-535.4666666666667,-454.4
1433,-53.333333333333336,-556.8,-462.93333333333334
1434,-2.1333333333333333,-601.6,-475.73333333333335
1435,42.666666666666664,-625.0666666666666,-492.8
1436,76.8,-640.0,-486.4
1437,96.0,-642.1333333333333,-494.93333333333334
1438,123.73333333333333,-667.7333333333333,-490.6666666666667
1439,121.6,-659.2,-477.8666666666667
1440,125.86666666666666,-640.0,-477.8666666666667
1441,140.8,-612.2666666666667,-437.3333333333333
1442,145.06666666666666,-554.6666666666666,-371.2
1443,134.4,-514.1333333333333,-326.4
1444,128.0,-475.73333333333335,-298.6666666666667
1445,119.46666666666667,-454.4,-247.46666666666667
1446,89.6,-450.1333333333333,-181.33333333333334
1447,83.2,-454.4,-136.53333333333333
1448,83.2,-469.3333333333333,-81.06666666666666
1449,44.8,-456.5333333333333,-32.0
1450,42.666666666666664,-443.73333333333335,29.866666666666667
1451,40.53333333333333,-407.46666666666664,89.6
1452,27.733333333333334,-403.2,121.6
1453,4.266666666666667,-390.4,151.46666666666667
1454,10.666666666666666,-377.6,179.2
1455,-27.733333333333334,-345.6,219.73333333333332
1456,-70.4,-326.4,228.26666666666665
1457,-121.6,-283.73333333333335,273.06666666666666
1458,-172.8,-260.26666666666665,337.06666666666666
1459,-241.06666666666666,-183.46666666666667,439.46666666666664
1460,-324.26666666666665,-115.2,509.8666666666667
1461,-356.26666666666665,-55.46666666666667,567.4666666666667
1462,-384.0,-4.266666666666667,614.4
1463,-433.06666666666666,68.26666666666667,652.8
1464,-445.8666666666667,155.73333333333332,716.8
1465,-462.93333333333334,238.93333333333334,787.2
1466,-462.93333333333334,305.06666666666666,772.2666666666667
1467,-475.73333333333335,290.1333333333333,689.0666666666666
1468,-514.1333333333333,160.0,597.3333333333334
1469,-524.8,21.333333333333332,494.93333333333334
1470,-544.0,-128.0,465.06666666666666
1471,-494.93333333333334,-224.0,258.1333333333333
1472,-339.2,-243.2,61.86666666666667
1473,-236.79999999999998,-140.8,-117.33333333333333
1474,-160.0,-55.46666666666667,-179.2
1475,-98.13333333333333,27.733333333333334,-177.06666666666666
1476,-51.2,32.0,-247.46666666666667
1477,4.266666666666667,57.6,-290.1333333333333
1478,40.53333333333333,74.66666666666667,-352.0
1479,102.4,64.0,-334.93333333333334
1480,149.33333333333334,53.333333333333336,-311.46666666666664
1481,189.86666666666667,57.6,-305.06666666666666
1482,270.93333333333334,55.46666666666667,-305.06666666666666
1483,411.73333333333335,59.733333333333334,-253.86666666666667
1484,620.8,108.8,-230.4
1485,802.1333333333333,115.2,-277.3333333333333
1486,981.3333333333334,119.46666666666667,-401.06666666666666
1487,1096.5333333333333,132.26666666666665,-565.3333333333334
1488,1147.7333333333333,85.33333333333333,-723.2
1489,1105.0666666666666,32.0,-866.1333333333333
1490,1038.9333333333334,21.333333333333332,-987.7333333333333
1491,936.5333333333333,19.2,-1053.8666666666666
1492,832.0,-17.066666666666666,-1100.8
1493,652.8,-81.06666666666666,-1130.6666666666667
1494,443.73333333333335,-153.6,-1126.4
1495,281.6,-243.2,-1107.2
1496,187.73333333333332,-283.73333333333335,-1090.1333333333332
1497,140.8,-324.26666666666665,-1019.7333333333333
1498,136.53333333333333,-337.06666666666666,-1021.8666666666667
1499,142.93333333333334,-334.93333333333334,-1045.3333333333333
1500,149.33333333333334,-320.0,-1096.5333333333333
1501,134.4,-326.4,-1107.2
1502,91.73333333333333,-302.93333333333334,-1075.2
1503,68.26666666666667,-307.2,-996.2666666666667
1504,19.2,-300.8,-951.4666666666667
1505,-19.2,-322.1333333333333,-881.0666666666666
1506,-61.86666666666667,-337.06666666666666,-829.8666666666667
1507,-96.0,-356.26666666666665,-795.7333333333333
1508,-196.26666666666665,-362.6666666666667,-714.6666666666666
1509,-262.4,-326.4,-701.8666666666667
1510,-241.06666666666666,-217.6,-716.8
1511,-714.6666666666666,-61.86666666666667,-744.5333333333333
1512,-1459.2,-85.33333333333333,-778.6666666666666
1513,14.933333333333334,-149.33333333333334,-704.0
1514,209.06666666666666,98.13333333333333,-448.0
1515,-96.0,526.9333333333333,-674.1333333333333
1516,-78.93333333333334,827.7333333333333,-1002.6666666666666
1517,268.8,851.1999999999999,-1124.2666666666667
1518,782.9333333333333,763.7333333333333,-940.8
1519,1068.8,729.6,-770.1333333333333
1520,1358.9333333333334,744.5333333333333,-680.5333333333333
1521,1399.4666666666667,802.1333333333333,-704.0
1522,1474.1333333333332,851.1999999999999,-832.0
1523,1672.5333333333333,949.3333333333334,-928.0
1524,1354.6666666666667,945.0666666666666,-851.1999999999999
1525,1614.9333333333334,1179.7333333333333,-874.6666666666666
1526,1984.0,1433.6,-1107.2
1527,2037.3333333333333,1437.8666666666666,-1068.8
1528,2073.6,1256.5333333333333,-1043.2
1529,1934.9333333333334,960.0,-1006.9333333333333
1530,1926.3999999999999,716.8,-953.6
1531,1738.6666666666667,535.4666666666667,-789.3333333333334
1532,1344.0,377.6,-509.8666666666667
1533,1184.0,253.86666666666667,-418.1333333333333
1534,1000.5333333333333,266.6666666666667,-416.0
1535,900.2666666666667,298.6666666666667,-507.73333333333335
1536,821.3333333333334,226.13333333333333,-512.0
1537,755.2,226.13333333333333,-433.06666666666666
1538,810.6666666666666,238.93333333333334,-298.6666666666667
1539,770.1333333333333,288.0,-151.46666666666667
1540,704.0,307.2,-78.93333333333334
1541,588.8,324.26666666666665,-34.13333333333333
1542,315.73333333333335,339.2,-46.93333333333333
1543,249.6,302.93333333333334,-32.0
1544,283.73333333333335,298.6666666666667,-38.4
1545,247.46666666666667,296.5333333333333,-89.6
1546,245.33333333333334,249.6,-106.66666666666667
1547,354.1333333333333,217.6,-147.2
1548,601.6,217.6,-166.4
1549,597.3333333333334,260.26666666666665,-106.66666666666667
1550,396.8,185.6,-74.66666666666667
1551,224.0,185.6,-36.266666666666666
1552,147.2,102.4,-2.1333333333333333
1553,166.4,38.4,19.2
1554,164.26666666666665,44.8,57.6
1555,162.13333333333333,44.8,76.8
1556,200.53333333333333,66.13333333333333,78.93333333333334
1557,264.5333333333333,93.86666666666666,81.06666666666666
1558,300.8,145.06666666666666,66.13333333333333
1559,349.8666666666667,243.2,14.933333333333334
1560,360.5333333333333,294.4,0.0
1561,384.0,277.3333333333333,4.266666666666667
1562,411.73333333333335,232.53333333333333,-19.2
1563,452.26666666666665,209.06666666666666,-29.866666666666667
1564,433.06666666666666,151.46666666666667,-38.4
1565,413.8666666666667,100.26666666666667,-44.8
1566,379.73333333333335,40.53333333333333,-42.666666666666664
1567,345.6,-12.8,-23.466666666666665
1568,307.2,-59.733333333333334,-19.2
1569,281.6,-78.93333333333334,-25.6
1570,279.46666666666664,-72.53333333333333,-25.6
1571,273.06666666666666,-61.86666666666667,-27.733333333333334
1572,275.2,-12.8,-27.733333333333334
1573,288.0,10.666666666666666,-25.6
1574,305.06666666666666,42.666666666666664,-29.866666666666667
1575,330.6666666666667,70.4,-34.13333333333333
1576,339.2,76.8,-46.93333333333333
1577,317.8666666666667,100.26666666666667,-59.733333333333334
1578,322.1333333333333,130.13333333333333,-74.66666666666667
1579,324.26666666666665,145.06666666666666,-98.13333333333333
1580,334.93333333333334,170.66666666666666,-106.66666666666667
1581,360.5333333333333,198.4,-110.93333333333334
1582,362.6666666666667,217.6,-121.6
1583,375.46666666666664,202.66666666666666,-123.73333333333333
1584,386.1333333333333,204.8,-113.06666666666666
1585,390.4,196.26666666666665,-123.73333333333333
1586,396.8,183.46666666666667,-113.06666666666666
1587,407.46666666666664,164.26666666666665,-113.06666666666666
1588,492.8,160.0,-142.93333333333334
1589,565.3333333333334,168.53333333333333,-142.93333333333334
1590,620.8,149.33333333333334,-132.26666666666665
1591,652.8,121.6,-128.0
1592,697.6,93.86666666666666,-136.53333333333333
1593,729.6,72.53333333333333,-134.4
1594,761.6,78.93333333333334,-136.53333333333333
1595,800.0,66.13333333333333,-151.46666666666667
1596,782.9333333333333,78.93333333333334,-168.53333333333333
1597,800.0,102.4,-181.33333333333334
1598,765.8666666666667,117.33333333333333,-183.46666666666667
1599,770.1333333333333,123.73333333333333,-170.66666666666666
1600,757.3333333333334,136.53333333333333,-189.86666666666667
1601,765.8666666666667,142.93333333333334,-174.93333333333334
1602,761.6,140.8,-160.0
1603,770.1333333333333,136.53333333333333,-138.66666666666666
1604,774.4,138.66666666666666,-110.93333333333334
1605,750.9333333333333,128.0,-91.73333333333333
1606,718.9333333333333,130.13333333333333,-91.73333333333333
1607,686.9333333333333,117.33333333333333,-83.2
1608,665.6,108.8,-85.33333333333333
1609,640.0,96.0,-81.06666666666666
1610,608.0,91.73333333333333,-83.2
1611,593.0666666666666,83.2,-81.06666666666666
1612,565.3333333333334,64.0,-64.0
1613,539.7333333333333,57.6,-64.0
1614,529.0666666666666,61.86666666666667,-59.733333333333334
1615,507.73333333333335,61.86666666666667,-46.93333333333333
1616,488.5333333333333,64.0,-46.93333333333333
1617,462.93333333333334,57.6,-34.13333333333333
1618,462.93333333333334,55.46666666666667,-34.13333333333333
1619,445.8666666666667,59.733333333333334,-17.066666666666666
1620,433.06666666666666,64.0,-17.066666666666666
1621,424.5333333333333,61.86666666666667,-19.2
1622,433.06666666666666,66.13333333333333,-19.2
1623,433.06666666666666,64.0,-6.4
1624,441.59999999999997,61.86666666666667,-10.666666666666666
1625,445.8666666666667,59.733333333333334,-8.533333333333333
1626,454.4,57.6,-12.8
1627,456.5333333333333,57.6,-14.933333333333334
1628,448.0,64.0,-23.466666666666665
1629,456.5333333333333,55.46666666666667,-27.733333333333334
1630,458.6666666666667,51.2,-32.0
1631,456.5333333333333,46.93333333333333,-44.8
1632,467.2,51.2,-55.46666666666667
1633,458.6666666666667,61.86666666666667,-59.733333333333334
1634,467.2,59.733333333333334,-72.53333333333333
1635,467.2,70.4,-76.8
1636,484.26666666666665,68.26666666666667,-98.13333333333333
1637,497.06666666666666,64.0,-93.86666666666666
1638,497.06666666666666,64.0,-110.93333333333334
1639,509.8666666666667,64.0,-115.2
1640,531.2,66.13333333333333,-121.6
1641,531.2,66.13333333333333,-117.33333333333333
1642,539.7333333333333,64.0,-121.6
1643,537.6,64.0,-130.13333333333333
1644,544.0,46.93333333333333,-136.53333333333333
1645,544.0,49.06666666666666,-145.06666666666666
1646,546.1333333333333,36.266666666666666,-149.33333333333334
1647,550.4,34.13333333333333,-157.86666666666667
1648,544.0,36.266666666666666,-153.6
1649,546.1333333333333,29.866666666666667,-155.73333333333332
1650,544.0,29.866666666666667,-160.0
1651,544.0,36.266666666666666,-157.86666666666667
1652,531.2,42.666666666666664,-157.86666666666667
1653,535.4666666666667,34.13333333333333,-164.26666666666665
1654,541.8666666666667,38.4,-151.46666666666667
1655,535.4666666666667,29.866666666666667,-160.0
1656,539.7333333333333,40.53333333333333,-157.86666666666667
1657,541.8666666666667,40.53333333333333,-153.6
1658,541.8666666666667,42.666666666666664,-147.2
1659,535.4666666666667,46.93333333333333,-151.46666666666667
1660,539.7333333333333,49.06666666666666,-153.6
1661,537.6,57.6,-155.73333333333332
1662,539.7333333333333,53.333333333333336,-149.33333333333334
1663,535.4666666666667,55.46666666666667,-160.0
1664,524.8,64.0,-160.0
1665,544.0,57.6,-160.0
1666,529.0666666666666,64.0,-162.13333333333333
1667,533.3333333333334,55.46666666666667,-153.6
1668,529.0666666666666,57.6,-160.0
1669,529.0666666666666,53.333333333333336,-162.13333333333333
1670,518.4,66.13333333333333,-160.0
1671,516.2666666666667,59.733333333333334,-147.2
1672,509.8666666666667,55.46666666666667,-153.6
1673,507.73333333333335,53.333333333333336,-147.2
1674,512.0,64.0,-142.93333333333334
1675,507.73333333333335,64.0,-149.33333333333334
1676,497.06666666666666,68.26666666666667,-145.06666666666666
1677,503.46666666666664,61.86666666666667,-149.33333333333334
1678,501.3333333333333,64.0,-140.8
1679,503.46666666666664,55.46666666666667,-140.8
1680,499.2,57.6,-134.4
1681,507.73333333333335,53.333333333333336,-142.93333333333334
1682,501.3333333333333,55.46666666666667,-132.26666666666665
1683,497.06666666666666,61.86666666666667,-140.8
1684,501.3333333333333,55.46666666666667,-123.73333333333333
1685,507.73333333333335,51.2,-140.8
1686,509.8666666666667,55.46666666666667,-147.2
1687,509.8666666666667,53.333333333333336,-142.93333333333334
1688,509.8666666666667,53.333333333333336,-140.8
1689,514.1333333333333,59.733333333333334,-134.4
1690,512.0,57.6,-142.93333333333334
1691,512.0,61.86666666666667,-136.53333333333333
1692,512.0,55.46666666666667,-138.66666666666666
1693,514.1333333333333,59.733333333333334,-140.8
1694,524.8,51.2,-132.26666666666665
1695,518.4,57.6,-140.8
1696,522.6666666666666,55.46666666666667,-136.53333333333333
1697,516.2666666666667,57.6,-138.66666666666666
1698,520.5333333333333,61.86666666666667,-134.4
1699,520.5333333333333,57.6,-132.26666666666665
1700,526.9333333333333,64.0,-138.66666666666666
1701,518.4,64.0,-134.4
1702,520.5333333333333,57.6,-134.4
1703,518.4,57.6,-130.13333333333333
1704,522.6666666666666,61.86666666666667,-130.13333333333333
1705,526.9333333333333,64.0,-134.4
1706,507.73333333333335,61.86666666666667,-117.33333333333333
1707,529.0666666666666,57.6,-132.26666666666665
1708,531.2,64.0,-132.26666666666665
1709,522.6666666666666,68.26666666666667,-125.86666666666666
1710,524.8,61.86666666666667,-132.26666666666665
1711,529.0666666666666,68.26666666666667,-117.33333333333333
1712,524.8,64.0,-128.0
1713,524.8,70.4,-128.0
1714,524.8,72.53333333333333,-132.26666666666665
1715,518.4,66.13333333333333,-132.26666666666665
1716,524.8,64.0,-128.0
1717,526.9333333333333,61.86666666666667,-121.6
1718,524.8,61.86666666666667,-125.86666666666666
1719,520.5333333333333,59.733333333333334,-121.6
1720,522.6666666666666,61.86666666666667,-123.73333333333333
1721,516.2666666666667,64.0,-121.6
1722,516.2666666666667,57.6,-115.2
1723,520.5333333333333,59.733333333333334,-121.6
1724,520.5333333333333,59.733333333333334,-115.2
1725,522.6666666666666,59.733333333333334,-117.33333333333333
1726,518.4,61.86666666666667,-119.46666666666667
1727,514.1333333333333,61.86666666666667,-115.2
1728,516.2666666666667,57.6,-128.0
1729,526.9333333333333,66.13333333333333,-132.26666666666665
1730,518.4,66.13333333333333,-123.73333333333333
1731,514.1333333333333,64.0,-128.0
1732,514.1333333333333,68.26666666666667,-125.86666666666666
1733,520.5333333333333,64.0,-128.0
1734,514.1333333333333,66.13333333333333,-125.86666666666666
1735,520.5333333333333,66.13333333333333,-128.0
1736,520.5333333333333,64.0,-128.0
1737,522.6666666666666,61.86666666666667,-121.6
1738,518.4,61.86666666666667,-130.13333333333333
1739,520.5333333333333,64.0,-128.0
1740,516.2666666666667,61.86666666666667,-132.26666666666665
1741,522.6666666666666,64.0,-134.4
1742,520.5333333333333,64.0,-132.26666666666665
1743,516.2666666666667,66.13333333333333,-130.13333333333333
1744,520.5333333333333,64.0,-132.26666666666665
1745,529.0666666666666,59.733333333333334,-132.26666666666665
1746,520.5333333333333,68.26666666666667,-128.0
1747,524.8,57.6,-132.26666666666665
1748,518.4,64.0,-134.4
1749,514.1333333333333,64.0,-136.53333333333333
1750,518.4,59.733333333333334,-134.4
1751,516.2666666666667,64.0,-132.26666666666665
1752,516.2666666666667,59.733333333333334,-132.26666666666665
1753,516.2666666666667,59.733333333333334,-128.0
1754,518.4,59.733333333333334,-128.0
1755,514.1333333333333,70.4,-132.26666666666665
1756,512.0,66.13333333333333,-125.86666666666666
1757,520.5333333333333,66.13333333333333,-134.4
1758,518.4,66.13333333333333,-134.4
1759,516.2666666666667,64.0,-132.26666666666665
1760,516.2666666666667,64.0,-130.13333333333333
1761,520.5333333333333,64.0,-128.0
1762,512.0,66.13333333333333,-134.4
1763,514.1333333333333,68.26666666666667,-134.4
1764,516.2666666666667,70.4,-134.4
1765,520.5333333333333,66.13333333333333,-134.4
1766,512.0,68.26666666666667,-136.53333333333333
1767,518.4,66.13333333333333,-132.26666666666665
1768,524.8,68.26666666666667,-132.26666666666665
1769,518.4,66.13333333333333,-136.53333333333333
1770,520.5333333333333,66.13333333333333,-132.26666666666665
1771,516.2666666666667,57.6,-128.0
1772,516.2666666666667,68.26666666666667,-128.0
1773,518.4,66.13333333333333,-134.4
1774,518.4,64.0,-132.26666666666665
1775,518.4,59.733333333333334,-134.4
1776,520.5333333333333,61.86666666666667,-125.86666666666666
1777,512.0,64.0,-128.0
1778,518.4,64.0,-130.13333333333333
1779,520.5333333333333,64.0,-123.73333333333333
1780,514.1333333333333,68.26666666666667,-132.26666666666665
1781,520.5333333333333,64.0,-130.13333333333333
1782,522.6666666666666,66.13333333333333,-132.26666666666665
1783,518.4,66.13333333333333,-128.0
1784,522.6666666666666,59.733333333333334,-128.0
1785,514.1333333333333,70.4,-130.13333333333333
1786,518.4,70.4,-132.26666666666665
1787,516.2666666666667,61.86666666666667,-130.13333333333333
1788,516.2666666666667,66.13333333333333,-130.13333333333333
1789,516.2666666666667,66.13333333333333,-132.26666666666665
1790,516.2666666666667,64.0,-123.73333333333333
1791,518.4,64.0,-125.86666666666666
1792,518.4,64.0,-130.13333333333333
1793,526.9333333333333,66.13333333333333,-115.2
1794,522.6666666666666,66.13333333333333,-128.0
1795,516.2666666666667,66.13333333333333,-132.26666666666665
1796,520.5333333333333,61.86666666666667,-136.53333333333333
1797,522.6666666666666,68.26666666666667,-128.0
1798,522.6666666666666,61.86666666666667,-132.26666666666665
1799,520.5333333333333,68.26666666666667,-132.26666666666665
1800,522.6666666666666,66.13333333333333,-119.46666666666667
1801,516.2666666666667,66.13333333333333,-130.13333333333333
1802,520.5333333333333,66.13333333333333,-128.0
1803,512.0,61.86666666666667,-130.13333333333333
1804,516.2666666666667,70.4,-132.26666666666665
1805,516.2666666666667,66.13333333333333,-125.86666666666666
1806,518.4,61.86666666666667,-134.4
1807,514.1333333333333,64.0,-125.86666666666666
1808,516.2666666666667,61.86666666666667,-128.0
1809,514.1333333333333,61.86666666666667,-134.4
1810,516.2666666666667,66.13333333333333,-130.13333333333333
1811,518.4,64.0,-132.26666666666665
1812,512.0,64.0,-134.4
1813,520.5333333333333,64.0,-134.4
1814,522.6666666666666,57.6,-136.53333333333333
1815,520.5333333333333,61.86666666666667,-132.26666666666665
1816,520.5333333333333,64.0,-132.26666666666665
1817,518.4,68.26666666666667,-130.13333333333333
1818,518.4,59.733333333333334,-130.13333333333333
1819,512.0,70.4,-130.13333333333333
1820,512.0,68.26666666666667,-119.46666666666667
1821,516.2666666666667,66.13333333333333,-136.53333333333333
1822,522.6666666666666,61.86666666666667,-130.13333333333333
1823,520.5333333333333,66.13333333333333,-130.13333333333333
1824,518.4,64.0,-125.86666666666666
1825,514.1333333333333,74.66666666666667,-132.26666666666665
1826,518.4,72.53333333333333,-130.13333333333333
1827,520.5333333333333,70.4,-125.86666666666666
1828,526.9333333333333,68.26666666666667,-132.26666666666665
1829,518.4,61.86666666666667,-130.13333333333333
1830,516.2666666666667,61.86666666666667,-134.4
1831,520.5333333333333,64.0,-125.86666666666666
1832,518.4,61.86666666666667,-121.6
1833,516.2666666666667,64.0,-132.26666666666665
1834,514.1333333333333,72.53333333333333,-132.26666666666665
1835,520.5333333333333,74.66666666666667,-130.13333333333333
1836,518.4,68.26666666666667,-123.73333333333333
1837,522.6666666666666,70.4,-132.26666666666665
1838,520.5333333333333,68.26666666666667,-132.26666666666665
1839,518.4,66.13333333333333,-134.4
1840,509.8666666666667,68.26666666666667,-134.4
1841,522.6666666666666,66.13333333333333,-130.13333333333333
1842,518.4,66.13333333333333,-136.53333333333333
1843,516.2666666666667,70.4,-134.4
1844,505.59999999999997,66.13333333333333,-130.13333333333333
1845,516.2666666666667,64.0,-132.26666666666665
1846,518.4,59.733333333333334,-136.53333333333333
1847,518.4,64.0,-130.13333333333333
1848,514.1333333333333,68.26666666666667,-136.53333333333333
1849,516.2666666666667,64.0,-134.4
1850,514.1333333333333,66.13333333333333,-125.86666666666666
1851,518.4,61.86666666666667,-128.0
1852,518.4,61.86666666666667,-132.26666666666665
1853,520.5333333333333,66.13333333333333,-134.4
1854,512.0,59.733333333333334,-130.13333333333333
1855,518.4,64.0,-132.26666666666665
1856,512.0,59.733333333333334,-130.13333333333333
1857,520.5333333333333,57.6,-128.0
1858,518.4,55.46666666666667,-130.13333333333333
1859,514.1333333333333,61.86666666666667,-130.13333333333333
1860,503.46666666666664,64.0,-128.0
1861,524.8,59.733333333333334,-136.53333333333333
1862,520.5333333333333,70.4,-132.26666666666665
1863,512.0,64.0,-128.0
1864,518.4,61.86666666666667,-130.13333333333333
1865,518.4,61.86666666666667,-130.13333333333333
1866,522.6666666666666,61.86666666666667,-132.26666666666665
1867,520.5333333333333,66.13333333333333,-132.26666666666665
1868,520.5333333333333,59.733333333333334,-136.53333333333333
1869,516.2666666666667,64.0,-136.53333333333333
1870,518.4,66.13333333333333,-132.26666666666665
1871,518.4,57.6,-138.66666666666666
1872,516.2666666666667,55.46666666666667,-132.26666666666665
1873,514.1333333333333,66.13333333333333,-132.26666666666665
1874,518.4,68.26666666666667,-140.8
1875,518.4,66.13333333333333,-138.66666666666666
1876,522.6666666666666,68.26666666666667,-128.0
1877,520.5333333333333,66.13333333333333,-130.13333333333333
1878,520.5333333333333,70.4,-130.13333333333333
1879,522.6666666666666,55.46666666666667,-128.0
1880,514.1333333333333,66.13333333333333,-134.4
1881,509.8666666666667,70.4,-132.26666666666665
1882,520.5333333333333,70.4,-130.13333333333333
1883,522.6666666666666,64.0,-123.73333333333333
1884,512.0,64.0,-125.86666666666666
1885,524.8,66.13333333333333,-130.13333333333333
1886,514.1333333333333,61.86666666666667,-128.0
1887,516.2666666666667,66.13333333333333,-125.86666666666666
1888,516.2666666666667,66.13333333333333,-130.13333333333333
1889,518.4,66.13333333333333,-132.26666666666665
1890,512.0,70.4,-134.4
1891,514.1333333333333,64.0,-130.13333333333333
1892,512.0,72.53333333333333,-134.4
1893,522.6666666666666,68.26666666666667,-130.13333333333333
1894,516.2666666666667,66.13333333333333,-128.0
1895,516.2666666666667,66.13333333333333,-134.4
1896,514.1333333333333,64.0,-128.0
1897,520.5333333333333,64.0,-128.0
1898,518.4,66.13333333333333,-134.4
1899,516.2666666666667,59.733333333333334,-130.13333333333333
1900,516.2666666666667,68.26666666666667,-134.4
1901,526.9333333333333,61.86666666666667,-125.86666666666666
1902,522.6666666666666,78.93333333333334,-138.66666666666666
1903,520.5333333333333,64.0,-123.73333333333333
1904,516.2666666666667,64.0,-132.26666666666665
1905,518.4,68.26666666666667,-130.13333333333333
1906,522.6666666666666,64.0,-134.4
1907,524.8,59.733333333333334,-132.26666666666665
1908,520.5333333333333,64.0,-134.4
1909,522.6666666666666,61.86666666666667,-128.0
1910,516.2666666666667,68.26666666666667,-128.0
1911,520.5333333333333,68.26666666666667,-130.13333333333333
1912,514.1333333333333,68.26666666666667,-134.4
1913,514.1333333333333,61.86666666666667,-123.73333333333333
1914,524.8,61.86666666666667,-130.13333333333333
1915,518.4,68.26666666666667,-123.73333333333333
1916,516.2666666666667,70.4,-132.26666666666665
1917,514.1333333333333,66.13333333333333,-130.13333333333333
1918,524.8,61.86666666666667,-136.53333333333333
1919,518.4,64.0,-128.0
1920,524.8,64.0,-134.4
1921,518.4,68.26666666666667,-128.0
1922,516.2666666666667,68.26666666666667,-132.26666666666665
1923,509.8666666666667,64.0,-134.4
1924,512.0,57.6,-128.0
1925,512.0,68.26666666666667,-125.86666666666666
1926,520.5333333333333,61.86666666666667,-132.26666666666665
1927,516.2666666666667,64.0,-128.0
1928,518.4,66.13333333333333,-130.13333333333333
1929,520.5333333333333,61.86666666666667,-134.4
1930,514.1333333333333,66.13333333333333,-123.73333333333333
1931,518.4,72.53333333333333,-132.26666666666665
1932,520.5333333333333,59.733333333333334,-134.4
1933,516.2666666666667,64.0,-136.53333333333333
1934,512.0,66.13333333333333,-130.13333333333333
1935,516.2666666666667,66.13333333333333,-128.0
1936,520.5333333333333,68.26666666666667,-132.26666666666665
1937,518.4,66.13333333333333,-132.26666666666665
1938,512.0,70.4,-125.86666666666666
1939,524.8,64.0,-134.4
1940,514.1333333333333,74.66666666666667,-128.0
1941,514.1333333333333,74.66666666666667,-130.13333333333333
1942,516.2666666666667,70.4,-123.73333333333333
1943,514.1333333333333,68.26666666666667,-128.0
1944,514.1333333333333,72.53333333333333,-128.0
1945,524.8,64.0,-132.26666666666665
1946,518.4,68.26666666666667,-134.4
1947,503.46666666666664,27.733333333333334,-119.46666666666667
1948,512.0,78.93333333333334,-140.8
1949,522.6666666666666,57.6,-98.13333333333333
1950,524.8,46.93333333333333,-125.86666666666666
1951,526.9333333333333,61.86666666666667,-168.53333333333333
1952,529.0666666666666,53.333333333333336,-93.86666666666666
1953,518.4,51.2,-151.46666666666667
1954,518.4,61.86666666666667,-145.06666666666666
1955,522.6666666666666,108.8,-151.46666666666667
1956,520.5333333333333,64.0,-130.13333333333333
1957,518.4,74.66666666666667,-125.86666666666666
1958,514.1333333333333,70.4,-128.0
1959,512.0,66.13333333333333,-128.0
1960,518.4,51.2,-121.6
1961,561.0666666666666,59.733333333333334,-104.53333333333333
1962,546.1333333333333,81.06666666666666,-123.73333333333333
1963,518.4,38.4,-179.2
1964,503.46666666666664,64.0,-117.33333333333333
1965,507.73333333333335,61.86666666666667,-136.53333333333333
1966,509.8666666666667,53.333333333333336,-134.4
1967,531.2,44.8,-140.8
1968,524.8,76.8,-108.8
1969,509.8666666666667,72.53333333333333,-110.93333333333334
1970,505.59999999999997,74.66666666666667,-93.86666666666666
1971,522.6666666666666,76.8,-138.66666666666666
1972,518.4,66.13333333333333,-130.13333333333333
1973,512.0,70.4,-128.0
1974,516.2666666666667,64.0,-132.26666666666665
1975,512.0,68.26666666666667,-132.26666666666665
1976,522.6666666666666,66.13333333333333,-134.4
1977,518.4,74.66666666666667,-128.0
1978,509.8666666666667,76.8,-145.06666666666666
1979,507.73333333333335,68.26666666666667,-125.86666666666666
1980,518.4,70.4,-162.13333333333333
1981,533.3333333333334,76.8,-119.46666666666667
1982,529.0666666666666,55.46666666666667,-100.26666666666667
1983,524.8,72.53333333333333,-93.86666666666666
1984,516.2666666666667,74.66666666666667,-130.13333333333333
1985,509.8666666666667,66.13333333333333,-123.73333333333333
1986,501.3333333333333,68.26666666666667,-128.0
1987,520.5333333333333,64.0,-128.0
1988,522.6666666666666,68.26666666666667,-128.0
1989,518.4,64.0,-134.4
1990,514.1333333333333,70.4,-132.26666666666665
1991,522.6666666666666,85.33333333333333,-128.0
1992,507.73333333333335,59.733333333333334,-117.33333333333333
1993,514.1333333333333,83.2,-115.2
1994,512.0,72.53333333333333,-121.6
1995,524.8,74.66666666666667,-119.46666666666667
1996,499.2,55.46666666666667,-110.93333333333334
1997,503.46666666666664,66.13333333333333,-119.46666666666667
1998,497.06666666666666,40.53333333333333,-119.46666666666667
1999,514.1333333333333,70.4,-130.13333333333333
2000,507.73333333333335,59.733333333333334,-128.0
2001,516.2666666666667,42.666666666666664,-108.8
2002,516.2666666666667,66.13333333333333,-132.26666666666665
2003,522.6666666666666,72.53333333333333,-125.86666666666666
2004,524.8,66.13333333333333,-128.0
2005,522.6666666666666,70.4,-128.0
2006,524.8,66.13333333333333,-119.46666666666667
2007,539.7333333333333,70.4,-121.6
2008,520.5333333333333,59.733333333333334,-130.13333333333333
2009,514.1333333333333,64.0,-132.26666666666665
2010,503.46666666666664,74.66666666666667,-102.4
2011,531.2,85.33333333333333,-142.93333333333334
2012,499.2,96.0,-136.53333333333333
2013,499.2,76.8,-106.66666666666667
2014,544.0,51.2,-100.26666666666667
2015,514.1333333333333,64.0,-166.4
2016,512.0,72.53333333333333,-128.0
2017,526.9333333333333,53.333333333333336,-123.73333333333333
2018,522.6666666666666,61.86666666666667,-134.4
2019,518.4,72.53333333333333,-117.33333333333333
2020,516.2666666666667,72.53333333333333,-128.0
2021,518.4,70.4,-132.26666666666665
2022,526.9333333333333,70.4,-121.6
2023,529.0666666666666,64.0,-130.13333333333333
2024,509.8666666666667,59.733333333333334,-132.26666666666665
2025,509.8666666666667,70.4,-134.4
2026,526.9333333333333,81.06666666666666,-119.46666666666667
2027,533.3333333333334,53.333333333333336,-113.06666666666666
2028,533.3333333333334,78.93333333333334,-121.6
2029,524.8,66.13333333333333,-119.46666666666667
2030,524.8,66.13333333333333,-128.0
2031,512.0,72.53333333333333,-140.8
2032,548.2666666666667,61.86666666666667,-132.26666666666665
2033,516.2666666666667,66.13333333333333,-130.13333333333333
2034,516.2666666666667,70.4,-132.26666666666665
2035,509.8666666666667,72.53333333333333,-130.13333333333333
2036,507.73333333333335,70.4,-119.46666666666667
2037,512.0,64.0,-132.26666666666665
2038,526.9333333333333,59.733333333333334,-106.66666666666667
2039,514.1333333333333,61.86666666666667,-119.46666666666667
2040,531.2,72.53333333333333,-123.73333333333333
2041,518.4,72.53333333333333,-132.26666666666665
2042,520.5333333333333,68.26666666666667,-134.4
2043,518.4,68.26666666666667,-125.86666666666666
2044,522.6666666666666,55.46666666666667,-132.26666666666665
2045,516.2666666666667,64.0,-132.26666666666665
2046,514.1333333333333,68.26666666666667,-132.26666666666665
2047,514.1333333333333,70.4,-130.13333333333333
2048,516.2666666666667,64.0,-134.4
2049,520.5333333333333,64.0,-128.0
2050,516.2666666666667,64.0,-134.4
2051,524.8,59.733333333333334,-142.93333333333334
2052,516.2666666666667,68.26666666666667,-130.13333333333333
2053,516.2666666666667,68.26666666666667,-130.13333333333333
2054,516.2666666666667,70.4,-136.53333333333333
2055,516.2666666666667,68.26666666666667,-132.26666666666665
2056,522.6666666666666,91.73333333333333,-115.2
2057,518.4,70.4,-130.13333333333333
2058,520.5333333333333,74.66666666666667,-134.4
2059,520.5333333333333,72.53333333333333,-125.86666666666666
2060,518.4,70.4,-130.13333333333333
2061,520.5333333333333,78.93333333333334,-81.06666666666666
2062,518.4,64.0,-130.13333333333333
2063,518.4,68.26666666666667,-125.86666666666666
2064,522.6666666666666,61.86666666666667,-130.13333333333333
2065,524.8,76.8,-119.46666666666667
2066,516.2666666666667,70.4,-130.13333333333333
2067,520.5333333333333,64.0,-119.46666666666667
2068,516.2666666666667,72.53333333333333,-128.0
2069,516.2666666666667,68.26666666666667,-119.46666666666667
2070,520.5333333333333,66.13333333333333,-130.13333333333333
2071,520.5333333333333,72.53333333333333,-132.26666666666665
2072,516.2666666666667,68.26666666666667,-128.0
2073,516.2666666666667,68.26666666666667,-125.86666666666666
2074,520.5333333333333,74.66666666666667,-130.13333333333333
2075,520.5333333333333,70.4,-128.0
2076,516.2666666666667,70.4,-128.0
2077,518.4,72.53333333333333,-128.0
2078,516.2666666666667,68.26666666666667,-123.73333333333333
2079,518.4,66.13333333333333,-125.86666666666666
2080,524.8,64.0,-130.13333333333333
2081,518.4,68.26666666666667,-123.73333333333333
2082,520.5333333333333,68.26666666666667,-123.73333333333333
2083,518.4,70.4,-125.86666666666666
2084,520.5333333333333,64.0,-123.73333333333333
2085,518.4,66.13333333333333,-134.4
2086,522.6666666666666,70.4,-125.86666666666666
2087,516.2666666666667,66.13333333333333,-136.53333333333333
2088,522.6666666666666,64.0,-130.13333333333333
2089,516.2666666666667,66.13333333333333,-123.73333333333333
2090,512.0,66.13333333333333,-128.0
2091,518.4,68.26666666666667,-136.53333333333333
2092,520.5333333333333,64.0,-132.26666666666665
2093,518.4,68.26666666666667,-134.4
2094,520.5333333333333,68.26666666666667,-134.4
2095,516.2666666666667,72.53333333333333,-125.86666666666666
2096,516.2666666666667,64.0,-134.4
2097,524.8,68.26666666666667,-123.73333333333333
2098,514.1333333333333,70.4,-130.13333333333333
2099,520.5333333333333,66.13333333333333,-130.13333333333333
2100,516.2666666666667,76.8,-130.13333333333333
2101,522.6666666666666,68.26666666666667,-123.73333333333333
2102,518.4,64.0,-130.13333333333333
2103,514.1333333333333,76.8,-121.6
2104,520.5333333333333,61.86666666666667,-132.26666666666665
2105,516.2666666666667,68.26666666666667,-128.0
2106,522.6666666666666,64.0,-134.4
2107,516.2666666666667,59.733333333333334,-134.4
2108,520.5333333333333,66.13333333333333,-128.0
2109,518.4,70.4,-121.6
2110,516.2666666666667,64.0,-123.73333333333333
2111,522.6666666666666,64.0,-125.86666666666666
2112,522.6666666666666,66.13333333333333,-132.26666666666665
2113,516.2666666666667,68.26666666666667,-132.26666666666665
2114,520.5333333333333,66.13333333333333,-136.53333333333333
2115,514.1333333333333,74.66666666666667,-128.0
2116,516.2666666666667,68.26666666666667,-130.13333333333333
2117,518.4,66.13333333333333,-125.86666666666666
2118,518.4,66.13333333333333,-121.6
2119,518.4,64.0,-128.0
2120,516.2666666666667,57.6,-128.0
2121,522.6666666666666,68.26666666666667,-123.73333333333333
2122,512.0,66.13333333333333,-128.0
2123,518.4,70.4,-130.13333333333333
2124,512.0,66.13333333333333,-125.86666666666666
2125,514.1333333333333,68.26666666666667,-132.26666666666665
2126,518.4,66.13333333333333,-125.86666666666666
2127,518.4,66.13333333333333,-128.0
2128,520.5333333333333,66.13333333333333,-130.13333333333333
2129,520.5333333333333,66.13333333333333,-119.46666666666667
2130,524.8,64.0,-128.0
2131,522.6666666666666,64.0,-121.6
2132,522.6666666666666,68.26666666666667,-121.6
2133,518.4,68.26666666666667,-130.13333333333333
2134,518.4,70.4,-128.0
2135,524.8,66.13333333333333,-121.6
2136,518.4,66.13333333333333,-125.86666666666666
2137,522.6666666666666,66.13333333333333,-128.0
2138,518.4,74.66666666666667,-128.0
2139,516.2666666666667,74.66666666666667,-130.13333333333333
2140,518.4,72.53333333333333,-130.13333333333333
2141,524.8,68.26666666666667,-132.26666666666665
2142,524.8,68.26666666666667,-130.13333333333333
2143,524.8,66.13333333333333,-134.4
2144,522.6666666666666,66.13333333333333,-123.73333333333333
2145,514.1333333333333,68.26666666666667,-123.73333333333333
2146,520.5333333333333,70.4,-128.0
2147,524.8,68.26666666666667,-125.86666666666666
2148,512.0,72.53333333333333,-125.86666666666666
2149,516.2666666666667,72.53333333333333,-123.73333333333333
2150,518.4,64.0,-125.86666666666666
2151,516.2666666666667,68.26666666666667,-134.4
2152,522.6666666666666,64.0,-128.0
2153,514.1333333333333,68.26666666666667,-123.73333333333333
2154,520.5333333333333,68.26666666666667,-132.26666666666665
2155,514.1333333333333,72.53333333333333,-130.13333333333333
2156,518.4,64.0,-119.46666666666667
2157,516.2666666666667,66.13333333333333,-125.86666666666666
2158,516.2666666666667,64.0,-132.26666666666665
2159,516.2666666666667,72.53333333333333,-130.13333333333333
2160,514.1333333333333,72.53333333333333,-123.73333333333333
2161,520.5333333333333,70.4,-125.86666666666666
2162,518.4,68.26666666666667,-130.13333333333333
2163,520.5333333333333,68.26666666666667,-128.0
2164,516.2666666666667,68.26666666666667,-125.86666666666666
2165,520.5333333333333,70.4,-130.13333333333333
2166,516.2666666666667,76.8,-123.73333333333333
2167,524.8,70.4,-123.73333333333333
2168,522.6666666666666,70.4,-130.13333333333333
2169,522.6666666666666,68.26666666666667,-125.86666666666666
2170,522.6666666666666,66.13333333333333,-121.6
2171,516.2666666666667,70.4,-130.13333333333333
2172,520.5333333333333,59.733333333333334,-123.73333333333333
2173,520.5333333333333,61.86666666666667,-123.73333333333333
2174,522.6666666666666,70.4,-125.86666666666666
2175,520.5333333333333,70.4,-132.26666666666665
2176,520.5333333333333,70.4,-123.73333333333333
2177,518.4,72.53333333333333,-130.13333333333333
2178,516.2666666666667,68.26666666666667,-132.26666666666665
2179,522.6666666666666,72.53333333333333,-121.6
2180,518.4,66.13333333333333,-123.73333333333333
2181,516.2666666666667,66.13333333333333,-130.13333333333333
2182,522.6666666666666,66.13333333333333,-125.86666666666666
2183,518.4,74.66666666666667,-128.0
2184,524.8,70.4,-128.0
2185,529.0666666666666,68.26666666666667,-121.6
2186,524.8,68.26666666666667,-119.46666666666667
2187,514.1333333333333,66.13333333333333,-130.13333333333333
2188,518.4,78.93333333333334,-125.86666666666666
2189,518.4,76.8,-128.0
2190,518.4,70.4,-123.73333333333333
2191,520.5333333333333,72.53333333333333,-123.73333333333333
2192,516.2666666666667,70.4,-121.6
2193,516.2666666666667,70.4,-128.0
2194,524.8,66.13333333333333,-125.86666666666666
2195,529.0666666666666,66.13333333333333,-121.6
2196,522.6666666666666,72.53333333333333,-130.13333333333333
2197,512.0,76.8,-132.26666666666665
2198,516.2666666666667,68.26666666666667,-121.6
2199,518.4,68.26666666666667,-125.86666666666666
2200,522.6666666666666,68.26666666666667,-123.73333333333333
2201,518.4,64.0,-123.73333333333333
2202,524.8,68.26666666666667,-125.86666666666666
2203,522.6666666666666,64.0,-130.13333333333333
2204,518.4,68.26666666666667,-134.4
2205,518.4,70.4,-125.86666666666666
2206,520.5333333333333,70.4,-119.46666666666667
2207,524.8,66.13333333333333,-132.26666666666665
2208,518.4,66.13333333333333,-130.13333333333333
2209,518.4,66.13333333333333,-128.0
2210,522.6666666666666,68.26666666666667,-119.46666666666667
2211,509.8666666666667,74.66666666666667,-121.6
2212,518.4,70.4,-132.26666666666665
2213,516.2666666666667,70.4,-128.0
2214,514.1333333333333,68.26666666666667,-125.86666666666666
2215,516.2666666666667,76.8,-123.73333333333333
2216,512.0,68.26666666666667,-125.86666666666666
2217,520.5333333333333,68.26666666666667,-125.86666666666666
2218,514.1333333333333,70.4,-130.13333333333333
2219,522.6666666666666,68.26666666666667,-125.86666666666666
2220,518.4,70.4,-123.73333333333333
2221,518.4,72.53333333333333,-125.86666666666666
2222,520.5333333333333,70.4,-128.0
2223,514.1333333333333,72.53333333333333,-117.33333333333333
2224,516.2666666666667,68.26666666666667,-125.86666666666666
2225,522.6666666666666,70.4,-121.6
2226,520.5333333333333,66.13333333333333,-121.6
2227,512.0,72.53333333333333,-130.13333333333333
2228,514.1333333333333,68.26666666666667,-121.6
2229,514.1333333333333,70.4,-130.13333333333333
2230,522.6666666666666,72.53333333333333,-123.73333333333333
2231,520.5333333333333,68.26666666666667,-128.0
2232,524.8,66.13333333333333,-130.13333333333333
2233,518.4,72.53333333333333,-132.26666666666665
2234,516.2666666666667,72.53333333333333,-128.0
2235,518.4,66.13333333333333,-130.13333333333333
2236,518.4,70.4,-130.13333333333333
2237,516.2666666666667,74.66666666666667,-125.86666666666666
2238,522.6666666666666,68.26666666666667,-121.6
2239,524.8,72.53333333333333,-119.46666666666667
2240,522.6666666666666,66.13333333333333,-123.73333333333333
2241,518.4,64.0,-119.46666666666667
2242,512.0,66.13333333333333,-125.86666666666666
2243,516.2666666666667,74.66666666666667,-130.13333333333333
2244,516.2666666666667,66.13333333333333,-121.6
2245,518.4,66.13333333333333,-117.33333333333333
2246,518.4,70.4,-123.73333333333333
2247,522.6666666666666,74.66666666666667,-132.26666666666665
2248,518.4,66.13333333333333,-128.0
2249,520.5333333333333,70.4,-121.6
2250,516.2666666666667,72.53333333333333,-128.0
2251,518.4,72.53333333333333,-132.26666666666665
2252,514.1333333333333,72.53333333333333,-125.86666666666666
2253,518.4,64.0,-123.73333333333333
2254,522.6666666666666,66.13333333333333,-128.0
2255,516.2666666666667,72.53333333333333,-121.6
2256,520.5333333333333,66.13333333333333,-132.26666666666665
2257,526.9333333333333,70.4,-121.6
2258,518.4,70.4,-128.0
2259,516.2666666666667,70.4,-125.86666666666666
2260,520.5333333333333,66.13333333333333,-128.0
2261,518.4,68.26666666666667,-123.73333333333333
2262,520.5333333333333,70.4,-130.13333333333333
2263,518.4,66.13333333333333,-123.73333333333333
2264,514.1333333333333,72.53333333333333,-123.73333333333333
2265,518.4,74.66666666666667,-125.86666666666666
2266,522.6666666666666,68.26666666666667,-132.26666666666665
2267,522.6666666666666,64.0,-130.13333333333333
2268,524.8,68.26666666666667,-125.86666666666666
2269,518.4,70.4,-123.73333333333333
2270,524.8,72.53333333333333,-125.86666666666666
2271,518.4,68.26666666666667,-125.86666666666666
2272,526.9333333333333,76.8,-115.2
2273,516.2666666666667,68.26666666666667,-123.73333333333333
2274,522.6666666666666,70.4,-123.73333333333333
2275,516.2666666666667,72.53333333333333,-117.33333333333333
2276,522.6666666666666,66.13333333333333,-123.73333333333333
2277,520.5333333333333,70.4,-125.86666666666666
2278,520.5333333333333,72.53333333333333,-134.4
2279,516.2666666666667,72.53333333333333,-123.73333333333333
2280,522.6666666666666,66.13333333333333,-128.0
2281,516.2666666666667,72.53333333333333,-123.73333333333333
2282,514.1333333333333,76.8,-125.86666666666666
2283,524.8,68.26666666666667,-125.86666666666666
2284,518.4,68.26666666666667,-132.26666666666665
2285,516.2666666666667,72.53333333333333,-128.0
2286,518.4,72.53333333333333,-128.0
2287,520.5333333333333,70.4,-121.6
2288,522.6666666666666,70.4,-123.73333333333333
2289,520.5333333333333,70.4,-130.13333333333333
2290,518.4,78.93333333333334,-121.6
2291,520.5333333333333,72.53333333333333,-128.0
2292,516.2666666666667,66.13333333333333,-130.13333333333333
2293,520.5333333333333,68.26666666666667,-119.46666666666667
2294,514.1333333333333,72.53333333333333,-121.6
2295,514.1333333333333,68.26666666666667,-128.0
2296,522.6666666666666,68.26666666666667,-125.86666666666666
2297,516.2666666666667,70.4,-123.73333333333333
2298,516.2666666666667,70.4,-121.6
2299,526.9333333333333,66.13333333333333,-119.46666666666667
2300,518.4,74.66666666666667,-119.46666666666667
2301,522.6666666666666,70.4,-121.6
2302,520.5333333333333,66.13333333333333,-125.86666666666666
2303,518.4,74.66666666666667,-130.13333333333333
2304,524.8,68.26666666666667,-121.6
2305,522.6666666666666,68.26666666666667,-128.0
2306,522.6666666666666,66.13333333333333,-123.73333333333333
2307,520.5333333333333,72.53333333333333,-113.06666666666666
2308,516.2666666666667,68.26666666666667,-130.13333333333333
2309,516.2666666666667,74.66666666666667,-125.86666666666666
2310,522.6666666666666,66.13333333333333,-123.73333333333333
2311,518.4,68.26666666666667,-128.0
2312,518.4,74.66666666666667,-130.13333333333333
2313,516.2666666666667,76.8,-125.86666666666666
2314,516.2666666666667,74.66666666666667,-121.6
2315,516.2666666666667,66.13333333333333,-119.46666666666667
2316,516.2666666666667,87.46666666666667,-121.6
2317,522.6666666666666,70.4,-128.0
2318,522.6666666666666,72.53333333333333,-117.33333333333333
2319,522.6666666666666,68.26666666666667,-128.0
2320,522.6666666666666,66.13333333333333,-121.6
2321,518.4,68.26666666666667,-125.86666666666666
2322,514.1333333333333,74.66666666666667,-119.46666666666667
2323,524.8,70.4,-132.26666666666665
2324,518.4,68.26666666666667,-123.73333333333333
2325,518.4,74.66666666666667,-130.13333333333333
2326,522.6666666666666,74.66666666666667,-125.86666666666666
2327,522.6666666666666,66.13333333333333,-119.46666666666667
2328,520.5333333333333,68.26666666666667,-121.6
2329,520.5333333333333,70.4,-125.86666666666666
2330,520.5333333333333,78.93333333333334,-132.26666666666665
2331,524.8,70.4,-128.0
2332,518.4,70.4,-121.6
2333,516.2666666666667,74.66666666666667,-123.73333333333333
2334,520.5333333333333,70.4,-130.13333333333333
2335,522.6666666666666,74.66666666666667,-128.0
2336,516.2666666666667,66.13333333333333,-130.13333333333333
2337,514.1333333333333,70.4,-123.73333333333333
2338,516.2666666666667,66.13333333333333,-117.33333333333333
2339,520.5333333333333,66.13333333333333,-125.86666666666666
2340,516.2666666666667,68.26666666666667,-121.6
2341,518.4,70.4,-119.46666666666667
2342,518.4,70.4,-125.86666666666666
2343,522.6666666666666,64.0,-121.6
2344,522.6666666666666,70.4,-130.13333333333333
2345,522.6666666666666,72.53333333333333,-123.73333333333333
2346,516.2666666666667,72.53333333333333,-123.73333333333333
2347,520.5333333333333,70.4,-121.6
2348,516.2666666666667,68.26666666666667,-130.13333333333333
2349,518.4,68.26666666666667,-128.0
2350,518.4,66.13333333333333,-123.73333333333333
2351,520.5333333333333,74.66666666666667,-121.6
2352,518.4,72.53333333333333,-119.46666666666667
2353,522.6666666666666,70.4,-123.73333333333333
2354,520.5333333333333,68.26666666666667,-125.86666666666666
2355,520.5333333333333,72.53333333333333,-115.2
2356,512.0,68.26666666666667,-121.6
2357,516.2666666666667,64.0,-125.86666666666666
2358,522.6666666666666,64.0,-123.73333333333333
2359,522.6666666666666,70.4,-123.73333333333333
2360,516.2666666666667,74.66666666666667,-123.73333333333333
2361,522.6666666666666,72.53333333333333,-123.73333333333333
2362,524.8,68.26666666666667,-128.0
2363,520.5333333333333,72.53333333333333,-123.73333333333333
2364,526.9333333333333,70.4,-134.4
2365,524.8,66.13333333333333,-128.0
2366,520.5333333333333,72.53333333333333,-130.13333333333333
2367,522.6666666666666,70.4,-128.0
2368,516.2666666666667,64.0,-123.73333333333333
2369,520.5333333333333,68.26666666666667,-125.86666666666666
2370,518.4,72.53333333333333,-115.2
2371,516.2666666666667,76.8,-121.6
2372,520.5333333333333,70.4,-121.6
2373,516.2666666666667,68.26666666666667,-121.6
2374,520.5333333333333,70.4,-121.6
2375,514.1333333333333,70.4,-123.73333333333333
2376,522.6666666666666,70.4,-123.73333333333333
2377,514.1333333333333,68.26666666666667,-123.73333333333333
2378,516.2666666666667,70.4,-121.6
2379,516.2666666666667,64.0,-125.86666666666666
2380,535.4666666666667,68.26666666666667,-130.13333333333333
2381,512.0,72.53333333333333,-123.73333333333333
2382,520.5333333333333,72.53333333333333,-121.6
2383,518.4,72.53333333333333,-123.73333333333333
2384,522.6666666666666,70.4,-125.86666666666666
2385,518.4,74.66666666666667,-128.0
2386,514.1333333333333,72.53333333333333,-125.86666666666666
2387,524.8,72.53333333333333,-121.6
2388,520.5333333333333,74.66666666666667,-121.6
2389,514.1333333333333,72.53333333333333,-117.33333333333333
2390,518.4,68.26666666666667,-123.73333333333333
2391,514.1333333333333,76.8,-125.86666666666666
2392,507.73333333333335,72.53333333333333,-125.86666666666666
2393,518.4,70.4,-117.33333333333333
2394,522.6666666666666,72.53333333333333,-121.6
2395,518.4,72.53333333333333,-125.86666666666666
2396,518.4,74.66666666666667,-130.13333333333333
2397,522.6666666666666,68.26666666666667,-119.46666666666667
2398,512.0,74.66666666666667,-123.73333333333333
2399,520.5333333333333,74.66666666666667,-125.86666666666666
2400,524.8,72.53333333333333,-128.0
2401,518.4,78.93333333333334,-121.6
2402,520.5333333333333,74.66666666666667,-125.86666666666666
2403,522.6666666666666,64.0,-130.13333333333333
2404,518.4,72.53333333333333,-123.73333333333333
2405,516.2666666666667,78.93333333333334,-125.86666666666666
2406,516.2666666666667,72.53333333333333,-121.6
2407,518.4,81.06666666666666,-125.86666666666666
2408,514.1333333333333,76.8,-128.0
2409,516.2666666666667,70.4,-125.86666666666666
2410,516.2666666666667,70.4,-123.73333333333333
2411,518.4,68.26666666666667,-128.0
2412,524.8,59.733333333333334,-121.6
2413,518.4,78.93333333333334,-123.73333333333333
2414,516.2666666666667,76.8,-125.86666666666666
2415,518.4,72.53333333333333,-123.73333333333333
2416,518.4,74.66666666666667,-121.6
2417,524.8,72.53333333333333,-121.6
2418,518.4,72.53333333333333,-121.6
2419,516.2666666666667,76.8,-125.86666666666666
2420,516.2666666666667,66.13333333333333,-121.6
2421,516.2666666666667,66.13333333333333,-130.13333333333333
2422,520.5333333333333,66.13333333333333,-123.73333333333333
2423,524.8,66.13333333333333,-121.6
2424,518.4,74.66666666666667,-123.73333333333333
2425,516.2666666666667,68.26666666666667,-123.73333333333333
2426,520.5333333333333,70.4,-125.86666666666666
2427,518.4,66.13333333333333,-123.73333333333333
2428,516.2666666666667,74.66666666666667,-119.46666666666667
2429,524.8,68.26666666666667,-121.6
2430,512.0,74.66666666666667,-117.33333333333333
2431,516.2666666666667,78.93333333333334,-121.6
2432,526.9333333333333,72.53333333333333,-123.73333333333333
2433,518.4,64.0,-125.86666666666666
2434,516.2666666666667,68.26666666666667,-117.33333333333333
2435,518.4,66.13333333333333,-123.73333333333333
2436,516.2666666666667,72.53333333333333,-117.33333333333333
2437,524.8,70.4,-121.6
2438,520.5333333333333,68.26666666666667,-123.73333333333333
2439,516.2666666666667,72.53333333333333,-123.73333333333333
2440,516.2666666666667,74.66666666666667,-121.6
2441,522.6666666666666,76.8,-117.33333333333333
2442,520.5333333333333,70.4,-125.86666666666666
2443,516.2666666666667,74.66666666666667,-123.73333333333333
2444,518.4,68.26666666666667,-123.73333333333333
2445,520.5333333333333,81.06666666666666,-121.6
2446,518.4,66.13333333333333,-121.6
2447,514.1333333333333,70.4,-115.2
2448,514.1333333333333,72.53333333333333,-123.73333333333333
2449,518.4,74.66666666666667,-123.73333333333333
2450,522.6666666666666,76.8,-119.46666666666667
2451,520.5333333333333,70.4,-123.73333333333333
2452,522.6666666666666,74.66666666666667,-113.06666666666666
2453,514.1333333333333,74.66666666666667,-128.0
2454,518.4,66.13333333333333,-121.6
2455,520.5333333333333,68.26666666666667,-117.33333333333333
2456,520.5333333333333,64.0,-121.6
2457,518.4,76.8,-128.0
2458,520.5333333333333,72.53333333333333,-132.26666666666665
2459,516.2666666666667,68.26666666666667,-117.33333333333333
2460,526.9333333333333,68.26666666666667,-121.6
2461,520.5333333333333,70.4,-119.46666666666667
2462,520.5333333333333,68.26666666666667,-121.6
2463,516.2666666666667,70.4,-125.86666666666666
2464,524.8,70.4,-121.6
2465,520.5333333333333,72.53333333333333,-117.33333333333333
2466,516.2666666666667,76.8,-128.0
2467,518.4,70.4,-123.73333333333333
2468,520.5333333333333,72.53333333333333,-132.26666666666665
2469,518.4,68.26666666666667,-119.46666666666667
2470,516.2666666666667,74.66666666666667,-125.86666666666666
2471,522.6666666666666,68.26666666666667,-119.46666666666667
2472,520.5333333333333,76.8,-130.13333333333333
2473,524.8,70.4,-119.46666666666667
2474,520.5333333333333,74.66666666666667,-121.6
2475,518.4,74.66666666666667,-115.2
2476,518.4,72.53333333333333,-119.46666666666667
2477,518.4,72.53333333333333,-121.6
2478,520.5333333333333,70.4,-119.46666666666667
2479,520.5333333333333,64.0,-117.33333333333333
2480,518.4,72.53333333333333,-119.46666666666667
2481,522.6666666666666,74.66666666666667,-121.6
