,accelerometerAccelerationX(G),accelerometerAccelerationY(G),accelerometerAccelerationZ(G)
0,-204.8,-812.8,-157.86666666666667
1,-238.93333333333334,-832.0,-125.86666666666666
2,-230.4,-851.1999999999999,-72.53333333333333
3,-232.53333333333333,-857.6,-27.733333333333334
4,-198.4,-855.4666666666667,4.266666666666667
5,-145.06666666666666,-838.4,0.0
6,-108.8,-836.2666666666667,6.4
7,-81.06666666666666,-821.3333333333334,0.0
8,-53.333333333333336,-802.1333333333333,-17.066666666666666
9,-27.733333333333334,-787.2,-46.93333333333333
10,-12.8,-750.9333333333333,-59.733333333333334
11,-4.266666666666667,-708.2666666666667,-72.53333333333333
12,4.266666666666667,-684.8,-100.26666666666667
13,12.8,-642.1333333333333,-121.6
14,8.533333333333333,-610.1333333333333,-177.06666666666666
15,25.6,-565.3333333333334,-192.0
16,25.6,-539.7333333333333,-217.6
17,32.0,-507.73333333333335,-213.33333333333334
18,34.13333333333333,-471.46666666666664,-215.46666666666667
19,66.13333333333333,-452.26666666666665,-206.93333333333334
20,81.06666666666666,-430.93333333333334,-206.93333333333334
21,104.53333333333333,-411.73333333333335,-202.66666666666666
22,123.73333333333333,-401.06666666666666,-179.2
23,134.4,-398.93333333333334,-164.26666666666665
24,149.33333333333334,-398.93333333333334,-166.4
25,170.66666666666666,-396.8,-145.06666666666666
26,189.86666666666667,-396.8,-153.6
27,183.46666666666667,-422.4,-142.93333333333334
28,172.8,-445.8666666666667,-147.2
29,149.33333333333334,-488.5333333333333,-136.53333333333333
30,115.2,-520.5333333333333,-132.26666666666665
31,89.6,-550.4,-117.33333333333333
32,51.2,-586.6666666666666,-117.33333333333333
33,19.2,-618.6666666666666,-102.4
34,-14.933333333333334,-654.9333333333333,-89.6
35,-29.866666666666667,-682.6666666666666,-96.0
36,-70.4,-684.8,-98.13333333333333
37,-100.26666666666667,-701.8666666666667,-96.0
38,-110.93333333333334,-693.3333333333334,-104.53333333333333
39,-128.0,-691.2,-106.66666666666667
40,-136.53333333333333,-682.6666666666666,-115.2
41,-134.4,-667.7333333333333,-117.33333333333333
42,-130.13333333333333,-657.0666666666666,-115.2
43,-115.2,-635.7333333333333,-106.66666666666667
44,-102.4,-620.8,-106.66666666666667
45,-83.2,-599.4666666666667,-98.13333333333333
46,-61.86666666666667,-573.8666666666667,-91.73333333333333
47,-51.2,-567.4666666666667,-98.13333333333333
48,-32.0,-544.0,-115.2
49,-21.333333333333332,-524.8,-110.93333333333334
50,0.0,-518.4,-115.2
51,2.1333333333333333,-501.3333333333333,-108.8
52,4.266666666666667,-486.4,-121.6
53,8.533333333333333,-477.8666666666667,-121.6
54,6.4,-469.3333333333333,-123.73333333333333
55,10.666666666666666,-465.06666666666666,-121.6
56,25.6,-454.4,-106.66666666666667
57,29.866666666666667,-460.8,-104.53333333333333
58,29.866666666666667,-480.0,-110.93333333333334
59,40.53333333333333,-486.4,-96.0
60,36.266666666666666,-492.8,-87.46666666666667
61,38.4,-488.5333333333333,-72.53333333333333
62,32.0,-499.2,-85.33333333333333
63,27.733333333333334,-501.3333333333333,-74.66666666666667
64,17.066666666666666,-497.06666666666666,-68.26666666666667
65,17.066666666666666,-503.46666666666664,-59.733333333333334
66,17.066666666666666,-514.1333333333333,-59.733333333333334
67,17.066666666666666,-512.0,-68.26666666666667
68,17.066666666666666,-505.59999999999997,-57.6
69,17.066666666666666,-505.59999999999997,-76.8
70,10.666666666666666,-514.1333333333333,-55.46666666666667
71,25.6,-522.6666666666666,-59.733333333333334
72,23.466666666666665,-520.5333333333333,-53.333333333333336
73,23.466666666666665,-516.2666666666667,-44.8
74,23.466666666666665,-516.2666666666667,-55.46666666666667
75,29.866666666666667,-520.5333333333333,-36.266666666666666
76,34.13333333333333,-531.2,-17.066666666666666
77,29.866666666666667,-535.4666666666667,-36.266666666666666
78,32.0,-539.7333333333333,-32.0
79,32.0,-533.3333333333334,-19.2
80,27.733333333333334,-541.8666666666667,-23.466666666666665
81,51.2,-535.4666666666667,-34.13333333333333
82,46.93333333333333,-524.8,-25.6
83,49.06666666666666,-529.0666666666666,-25.6
84,55.46666666666667,-509.8666666666667,-29.866666666666667
85,55.46666666666667,-501.3333333333333,-12.8
86,57.6,-494.93333333333334,-10.666666666666666
87,59.733333333333334,-501.3333333333333,-8.533333333333333
88,64.0,-486.4,2.1333333333333333
89,68.26666666666667,-482.1333333333333,2.1333333333333333
90,70.4,-477.8666666666667,6.4
91,81.06666666666666,-486.4,23.466666666666665
92,74.66666666666667,-469.3333333333333,17.066666666666666
93,81.06666666666666,-471.46666666666664,19.2
94,85.33333333333333,-467.2,27.733333333333334
95,85.33333333333333,-469.3333333333333,19.2
96,87.46666666666667,-469.3333333333333,21.333333333333332
97,81.06666666666666,-469.3333333333333,25.6
98,78.93333333333334,-473.59999999999997,27.733333333333334
99,61.86666666666667,-467.2,34.13333333333333
100,61.86666666666667,-482.1333333333333,40.53333333333333
101,44.8,-490.6666666666667,36.266666666666666
102,38.4,-475.73333333333335,53.333333333333336
103,21.333333333333332,-501.3333333333333,61.86666666666667
104,19.2,-514.1333333333333,81.06666666666666
105,4.266666666666667,-522.6666666666666,83.2
106,0.0,-524.8,85.33333333333333
107,-6.4,-537.6,89.6
108,-21.333333333333332,-548.2666666666667,91.73333333333333
109,-32.0,-546.1333333333333,81.06666666666666
110,-23.466666666666665,-556.8,72.53333333333333
111,-14.933333333333334,-558.9333333333333,64.0
112,0.0,-552.5333333333333,68.26666666666667
113,38.4,-563.2,72.53333333333333
114,42.666666666666664,-561.0666666666666,78.93333333333334
115,59.733333333333334,-556.8,104.53333333333333
116,83.2,-556.8,104.53333333333333
117,102.4,-558.9333333333333,121.6
118,119.46666666666667,-563.2,125.86666666666666
119,132.26666666666665,-558.9333333333333,134.4
120,128.0,-552.5333333333333,132.26666666666665
121,136.53333333333333,-550.4,136.53333333333333
122,140.8,-544.0,106.66666666666667
123,142.93333333333334,-537.6,96.0
124,140.8,-548.2666666666667,51.2
125,149.33333333333334,-558.9333333333333,23.466666666666665
126,172.8,-584.5333333333333,-17.066666666666666
127,170.66666666666666,-618.6666666666666,-64.0
128,170.66666666666666,-661.3333333333334,-87.46666666666667
129,162.13333333333333,-686.9333333333333,-104.53333333333333
130,151.46666666666667,-733.8666666666667,-72.53333333333333
131,134.4,-765.8666666666667,-44.8
132,108.8,-778.6666666666666,-21.333333333333332
133,89.6,-800.0,17.066666666666666
134,78.93333333333334,-797.8666666666667,44.8
135,78.93333333333334,-797.8666666666667,66.13333333333333
136,83.2,-787.2,68.26666666666667
137,59.733333333333334,-772.2666666666667,46.93333333333333
138,42.666666666666664,-763.7333333333333,17.066666666666666
139,34.13333333333333,-748.8,-4.266666666666667
140,32.0,-740.2666666666667,-36.266666666666666
141,34.13333333333333,-723.2,-64.0
142,36.266666666666666,-689.0666666666666,-87.46666666666667
143,36.266666666666666,-682.6666666666666,-121.6
144,29.866666666666667,-652.8,-153.6
145,34.13333333333333,-620.8,-174.93333333333334
146,32.0,-597.3333333333334,-202.66666666666666
147,25.6,-571.7333333333333,-226.13333333333333
148,10.666666666666666,-535.4666666666667,-253.86666666666667
149,6.4,-509.8666666666667,-260.26666666666665
150,-19.2,-473.59999999999997,-268.8
151,-61.86666666666667,-448.0,-264.5333333333333
152,-102.4,-422.4,-258.1333333333333
153,-134.4,-413.8666666666667,-238.93333333333334
154,-174.93333333333334,-407.46666666666664,-228.26666666666665
155,-185.6,-409.6,-204.8
156,-213.33333333333334,-418.1333333333333,-206.93333333333334
157,-213.33333333333334,-445.8666666666667,-181.33333333333334
158,-200.53333333333333,-469.3333333333333,-164.26666666666665
159,-160.0,-505.59999999999997,-153.6
160,-130.13333333333333,-544.0,-140.8
161,-89.6,-563.2,-113.06666666666666
162,-46.93333333333333,-593.0666666666666,-104.53333333333333
163,2.1333333333333333,-625.0666666666666,-89.6
164,40.53333333333333,-657.0666666666666,-76.8
165,81.06666666666666,-657.0666666666666,-74.66666666666667
166,132.26666666666665,-672.0,-74.66666666666667
167,168.53333333333333,-676.2666666666667,-85.33333333333333
168,206.93333333333334,-684.8,-108.8
169,247.46666666666667,-682.6666666666666,-125.86666666666666
170,266.6666666666667,-678.4,-140.8
171,281.6,-678.4,-138.66666666666666
172,281.6,-661.3333333333334,-138.66666666666666
173,283.73333333333335,-640.0,-132.26666666666665
174,256.0,-620.8,-134.4
175,228.26666666666665,-595.2,-106.66666666666667
176,202.66666666666666,-580.2666666666667,-113.06666666666666
177,172.8,-550.4,-110.93333333333334
178,134.4,-533.3333333333334,-113.06666666666666
179,115.2,-514.1333333333333,-119.46666666666667
180,78.93333333333334,-492.8,-119.46666666666667
181,59.733333333333334,-473.59999999999997,-123.73333333333333
182,49.06666666666666,-465.06666666666666,-115.2
183,40.53333333333333,-454.4,-119.46666666666667
184,25.6,-448.0,-110.93333333333334
185,21.333333333333332,-452.26666666666665,-106.66666666666667
186,27.733333333333334,-448.0,-102.4
187,32.0,-460.8,-98.13333333333333
188,34.13333333333333,-465.06666666666666,-89.6
189,42.666666666666664,-465.06666666666666,-91.73333333333333
190,46.93333333333333,-469.3333333333333,-76.8
191,46.93333333333333,-469.3333333333333,-74.66666666666667
192,51.2,-460.8,-72.53333333333333
193,49.06666666666666,-467.2,-64.0
194,42.666666666666664,-460.8,-57.6
195,44.8,-467.2,-64.0
196,44.8,-480.0,-53.333333333333336
197,61.86666666666667,-484.26666666666665,-44.8
198,51.2,-480.0,-40.53333333333333
199,59.733333333333334,-492.8,-42.666666666666664
200,55.46666666666667,-492.8,-34.13333333333333
201,61.86666666666667,-497.06666666666666,-32.0
202,68.26666666666667,-499.2,-34.13333333333333
203,66.13333333333333,-499.2,-34.13333333333333
204,68.26666666666667,-501.3333333333333,-19.2
205,74.66666666666667,-507.73333333333335,-25.6
206,76.8,-522.6666666666666,-12.8
207,70.4,-520.5333333333333,-10.666666666666666
208,59.733333333333334,-526.9333333333333,-2.1333333333333333
209,53.333333333333336,-524.8,0.0
210,46.93333333333333,-524.8,4.266666666666667
211,40.53333333333333,-518.4,2.1333333333333333
212,36.266666666666666,-514.1333333333333,-2.1333333333333333
213,34.13333333333333,-507.73333333333335,-8.533333333333333
214,23.466666666666665,-505.59999999999997,0.0
215,23.466666666666665,-503.46666666666664,-4.266666666666667
216,17.066666666666666,-501.3333333333333,6.4
217,19.2,-503.46666666666664,23.466666666666665
218,23.466666666666665,-514.1333333333333,17.066666666666666
219,14.933333333333334,-524.8,21.333333333333332
220,12.8,-518.4,38.4
221,29.866666666666667,-533.3333333333334,25.6
222,23.466666666666665,-524.8,25.6
223,32.0,-524.8,34.13333333333333
224,36.266666666666666,-524.8,29.866666666666667
225,42.666666666666664,-518.4,14.933333333333334
226,55.46666666666667,-524.8,12.8
227,66.13333333333333,-531.2,19.2
228,70.4,-541.8666666666667,12.8
229,83.2,-535.4666666666667,14.933333333333334
230,87.46666666666667,-537.6,14.933333333333334
231,98.13333333333333,-546.1333333333333,42.666666666666664
232,93.86666666666666,-552.5333333333333,40.53333333333333
233,100.26666666666667,-563.2,38.4
234,85.33333333333333,-573.8666666666667,51.2
235,81.06666666666666,-578.1333333333333,36.266666666666666
236,59.733333333333334,-584.5333333333333,42.666666666666664
237,42.666666666666664,-590.9333333333333,34.13333333333333
238,2.1333333333333333,-580.2666666666667,29.866666666666667
239,-6.4,-580.2666666666667,29.866666666666667
240,-29.866666666666667,-565.3333333333334,40.53333333333333
241,-40.53333333333333,-554.6666666666666,51.2
242,-46.93333333333333,-533.3333333333334,64.0
243,-40.53333333333333,-539.7333333333333,98.13333333333333
244,-40.53333333333333,-529.0666666666666,117.33333333333333
245,-38.4,-509.8666666666667,142.93333333333334
246,-23.466666666666665,-503.46666666666664,157.86666666666667
247,4.266666666666667,-501.3333333333333,149.33333333333334
248,27.733333333333334,-526.9333333333333,132.26666666666665
249,27.733333333333334,-539.7333333333333,115.2
250,19.2,-571.7333333333333,70.4
251,8.533333333333333,-595.2,32.0
252,-19.2,-644.2666666666667,-46.93333333333333
253,-59.733333333333334,-678.4,-138.66666666666666
254,-85.33333333333333,-736.0,-198.4
255,-115.2,-782.9333333333333,-234.66666666666666
256,-134.4,-823.4666666666667,-226.13333333333333
257,-145.06666666666666,-836.2666666666667,-192.0
258,-155.73333333333332,-842.6666666666666,-128.0
259,-136.53333333333333,-838.4,-76.8
260,-87.46666666666667,-842.6666666666666,-23.466666666666665
261,-40.53333333333333,-834.1333333333333,-4.266666666666667
262,0.0,-825.6,-12.8
263,27.733333333333334,-810.6666666666666,-29.866666666666667
264,57.6,-778.6666666666666,-23.466666666666665
265,64.0,-763.7333333333333,-76.8
266,76.8,-742.4,-104.53333333333333
267,85.33333333333333,-710.4,-123.73333333333333
268,87.46666666666667,-682.6666666666666,-147.2
269,85.33333333333333,-648.5333333333333,-168.53333333333333
270,89.6,-618.6666666666666,-181.33333333333334
271,102.4,-582.4,-196.26666666666665
272,85.33333333333333,-544.0,-206.93333333333334
273,89.6,-509.8666666666667,-221.86666666666667
274,96.0,-488.5333333333333,-236.79999999999998
275,93.86666666666666,-454.4,-245.33333333333334
276,100.26666666666667,-418.1333333333333,-247.46666666666667
277,113.06666666666666,-398.93333333333334,-238.93333333333334
278,134.4,-371.2,-219.73333333333332
279,145.06666666666666,-360.5333333333333,-217.6
280,162.13333333333333,-356.26666666666665,-200.53333333333333
281,172.8,-356.26666666666665,-181.33333333333334
282,179.2,-379.73333333333335,-164.26666666666665
283,162.13333333333333,-407.46666666666664,-149.33333333333334
284,138.66666666666666,-435.2,-134.4
285,115.2,-475.73333333333335,-125.86666666666666
286,87.46666666666667,-509.8666666666667,-96.0
287,57.6,-541.8666666666667,-93.86666666666666
288,29.866666666666667,-565.3333333333334,-83.2
289,-4.266666666666667,-601.6,-66.13333333333333
290,-40.53333333333333,-629.3333333333334,-72.53333333333333
291,-76.8,-657.0666666666666,-66.13333333333333
292,-117.33333333333333,-669.8666666666667,-74.66666666666667
293,-138.66666666666666,-684.8,-87.46666666666667
294,-168.53333333333333,-701.8666666666667,-98.13333333333333
295,-183.46666666666667,-695.4666666666667,-106.66666666666667
296,-204.8,-684.8,-102.4
297,-196.26666666666665,-676.2666666666667,-123.73333333333333
298,-183.46666666666667,-665.6,-117.33333333333333
299,-164.26666666666665,-640.0,-110.93333333333334
300,-128.0,-616.5333333333333,-115.2
301,-100.26666666666667,-599.4666666666667,-108.8
302,-55.46666666666667,-576.0,-108.8
303,-36.266666666666666,-552.5333333333333,-100.26666666666667
304,-27.733333333333334,-526.9333333333333,-106.66666666666667
305,2.1333333333333333,-512.0,-102.4
306,14.933333333333334,-503.46666666666664,-93.86666666666666
307,21.333333333333332,-507.73333333333335,-110.93333333333334
308,36.266666666666666,-480.0,-110.93333333333334
309,27.733333333333334,-475.73333333333335,-108.8
310,17.066666666666666,-471.46666666666664,-96.0
311,10.666666666666666,-471.46666666666664,-98.13333333333333
312,4.266666666666667,-475.73333333333335,-93.86666666666666
313,6.4,-486.4,-81.06666666666666
314,-2.1333333333333333,-488.5333333333333,-87.46666666666667
315,-8.533333333333333,-486.4,-83.2
316,-10.666666666666666,-494.93333333333334,-83.2
317,-23.466666666666665,-505.59999999999997,-78.93333333333334
318,-23.466666666666665,-505.59999999999997,-64.0
319,-32.0,-499.2,-66.13333333333333
320,-29.866666666666667,-501.3333333333333,-61.86666666666667
321,-27.733333333333334,-507.73333333333335,-59.733333333333334
322,-36.266666666666666,-490.6666666666667,-64.0
323,-29.866666666666667,-492.8,-46.93333333333333
324,-38.4,-488.5333333333333,-36.266666666666666
325,-32.0,-497.06666666666666,-34.13333333333333
326,-23.466666666666665,-503.46666666666664,-29.866666666666667
327,-25.6,-499.2,-14.933333333333334
328,-34.13333333333333,-492.8,-27.733333333333334
329,-21.333333333333332,-490.6666666666667,-17.066666666666666
330,-19.2,-497.06666666666666,-2.1333333333333333
331,-14.933333333333334,-492.8,-2.1333333333333333
332,-8.533333333333333,-492.8,-14.933333333333334
333,0.0,-492.8,-12.8
334,0.0,-484.26666666666665,0.0
335,0.0,-482.1333333333333,0.0
336,6.4,-484.26666666666665,0.0
337,10.666666666666666,-473.59999999999997,-2.1333333333333333
338,19.2,-477.8666666666667,-4.266666666666667
339,23.466666666666665,-486.4,4.266666666666667
340,36.266666666666666,-482.1333333333333,4.266666666666667
341,38.4,-484.26666666666665,8.533333333333333
342,38.4,-490.6666666666667,17.066666666666666
343,40.53333333333333,-490.6666666666667,34.13333333333333
344,44.8,-497.06666666666666,44.8
345,46.93333333333333,-507.73333333333335,49.06666666666666
346,53.333333333333336,-503.46666666666664,55.46666666666667
347,53.333333333333336,-507.73333333333335,66.13333333333333
348,51.2,-507.73333333333335,70.4
349,59.733333333333334,-501.3333333333333,76.8
350,66.13333333333333,-497.06666666666666,76.8
351,61.86666666666667,-494.93333333333334,93.86666666666666
352,59.733333333333334,-484.26666666666665,87.46666666666667
353,64.0,-486.4,91.73333333333333
354,64.0,-490.6666666666667,91.73333333333333
355,59.733333333333334,-486.4,104.53333333333333
356,66.13333333333333,-490.6666666666667,104.53333333333333
357,68.26666666666667,-488.5333333333333,87.46666666666667
358,57.6,-490.6666666666667,83.2
359,61.86666666666667,-492.8,70.4
360,64.0,-492.8,64.0
361,85.33333333333333,-488.5333333333333,42.666666666666664
362,81.06666666666666,-484.26666666666665,27.733333333333334
363,96.0,-482.1333333333333,29.866666666666667
364,100.26666666666667,-488.5333333333333,27.733333333333334
365,108.8,-497.06666666666666,53.333333333333336
366,117.33333333333333,-512.0,72.53333333333333
367,117.33333333333333,-533.3333333333334,83.2
368,110.93333333333334,-546.1333333333333,117.33333333333333
369,113.06666666666666,-554.6666666666666,136.53333333333333
370,96.0,-582.4,134.4
371,98.13333333333333,-601.6,138.66666666666666
372,98.13333333333333,-629.3333333333334,123.73333333333333
373,98.13333333333333,-654.9333333333333,87.46666666666667
374,89.6,-684.8,38.4
375,85.33333333333333,-721.0666666666666,-25.6
376,91.73333333333333,-759.4666666666667,-100.26666666666667
377,89.6,-806.4,-138.66666666666666
378,89.6,-840.5333333333333,-140.8
379,76.8,-868.2666666666667,-117.33333333333333
380,55.46666666666667,-887.4666666666667,-72.53333333333333
381,25.6,-881.0666666666666,-2.1333333333333333
382,12.8,-876.8,49.06666666666666
383,38.4,-872.5333333333333,104.53333333333333
384,23.466666666666665,-834.1333333333333,125.86666666666666
385,2.1333333333333333,-825.6,128.0
386,-12.8,-817.0666666666666,110.93333333333334
387,-32.0,-800.0,74.66666666666667
388,-40.53333333333333,-782.9333333333333,27.733333333333334
389,-32.0,-746.6666666666666,-14.933333333333334
390,-25.6,-721.0666666666666,-66.13333333333333
391,-10.666666666666666,-680.5333333333333,-110.93333333333334
392,0.0,-650.6666666666666,-142.93333333333334
393,12.8,-618.6666666666666,-187.73333333333332
394,25.6,-578.1333333333333,-206.93333333333334
395,53.333333333333336,-546.1333333333333,-234.66666666666666
396,78.93333333333334,-520.5333333333333,-241.06666666666666
397,91.73333333333333,-475.73333333333335,-262.4
398,93.86666666666666,-448.0,-268.8
399,78.93333333333334,-418.1333333333333,-268.8
400,46.93333333333333,-396.8,-262.4
401,8.533333333333333,-377.6,-238.93333333333334
402,-34.13333333333333,-366.93333333333334,-219.73333333333332
403,-83.2,-362.6666666666667,-206.93333333333334
404,-119.46666666666667,-384.0,-183.46666666666667
405,-140.8,-386.1333333333333,-157.86666666666667
406,-157.86666666666667,-409.6,-138.66666666666666
407,-157.86666666666667,-458.6666666666667,-115.2
408,-138.66666666666666,-507.73333333333335,-104.53333333333333
409,-100.26666666666667,-552.5333333333333,-91.73333333333333
410,-61.86666666666667,-590.9333333333333,-61.86666666666667
411,-25.6,-614.4,-53.333333333333336
412,19.2,-642.1333333333333,-36.266666666666666
413,46.93333333333333,-663.4666666666667,-61.86666666666667
414,89.6,-667.7333333333333,-66.13333333333333
415,130.13333333333333,-674.1333333333333,-76.8
416,151.46666666666667,-672.0,-106.66666666666667
417,177.06666666666666,-663.4666666666667,-132.26666666666665
418,192.0,-646.4,-142.93333333333334
419,202.66666666666666,-633.6,-149.33333333333334
420,204.8,-618.6666666666666,-149.33333333333334
421,202.66666666666666,-597.3333333333334,-132.26666666666665
422,179.2,-580.2666666666667,-136.53333333333333
423,155.73333333333332,-571.7333333333333,-121.6
424,138.66666666666666,-550.4,-110.93333333333334
425,115.2,-537.6,-121.6
426,100.26666666666667,-505.59999999999997,-108.8
427,78.93333333333334,-486.4,-119.46666666666667
428,70.4,-467.2,-110.93333333333334
429,57.6,-448.0,-117.33333333333333
430,44.8,-439.46666666666664,-106.66666666666667
431,32.0,-428.8,-104.53333333333333
432,29.866666666666667,-424.5333333333333,-106.66666666666667
433,29.866666666666667,-428.8,-81.06666666666666
434,27.733333333333334,-433.06666666666666,-89.6
435,32.0,-441.59999999999997,-66.13333333333333
436,40.53333333333333,-452.26666666666665,-57.6
437,55.46666666666667,-465.06666666666666,-55.46666666666667
438,64.0,-467.2,-42.666666666666664
439,70.4,-486.4,-42.666666666666664
440,72.53333333333333,-482.1333333333333,-36.266666666666666
441,83.2,-482.1333333333333,-34.13333333333333
442,100.26666666666667,-492.8,-21.333333333333332
443,102.4,-505.59999999999997,-29.866666666666667
444,106.66666666666667,-503.46666666666664,-27.733333333333334
445,108.8,-497.06666666666666,-25.6
446,113.06666666666666,-499.2,-29.866666666666667
447,100.26666666666667,-490.6666666666667,-14.933333333333334
448,115.2,-503.46666666666664,-12.8
449,119.46666666666667,-507.73333333333335,0.0
450,117.33333333333333,-505.59999999999997,-2.1333333333333333
451,113.06666666666666,-509.8666666666667,0.0
452,104.53333333333333,-503.46666666666664,4.266666666666667
453,102.4,-509.8666666666667,8.533333333333333
454,93.86666666666666,-507.73333333333335,21.333333333333332
455,91.73333333333333,-509.8666666666667,25.6
456,72.53333333333333,-518.4,19.2
457,70.4,-514.1333333333333,6.4
458,72.53333333333333,-518.4,14.933333333333334
459,55.46666666666667,-512.0,0.0
460,44.8,-503.46666666666664,-4.266666666666667
461,42.666666666666664,-494.93333333333334,0.0
462,46.93333333333333,-494.93333333333334,-10.666666666666666
463,38.4,-484.26666666666665,-2.1333333333333333
464,49.06666666666666,-486.4,-2.1333333333333333
465,64.0,-490.6666666666667,4.266666666666667
466,59.733333333333334,-497.06666666666666,10.666666666666666
467,68.26666666666667,-499.2,14.933333333333334
468,81.06666666666666,-507.73333333333335,36.266666666666666
469,89.6,-512.0,38.4
470,96.0,-524.8,49.06666666666666
471,98.13333333333333,-533.3333333333334,61.86666666666667
472,115.2,-546.1333333333333,68.26666666666667
473,115.2,-550.4,59.733333333333334
474,121.6,-548.2666666666667,68.26666666666667
475,128.0,-556.8,64.0
476,132.26666666666665,-563.2,72.53333333333333
477,130.13333333333333,-563.2,74.66666666666667
478,123.73333333333333,-569.6,59.733333333333334
479,104.53333333333333,-565.3333333333334,53.333333333333336
480,89.6,-567.4666666666667,19.2
481,55.46666666666667,-563.2,4.266666666666667
482,8.533333333333333,-556.8,-2.1333333333333333
483,-32.0,-548.2666666666667,-12.8
484,-68.26666666666667,-539.7333333333333,-17.066666666666666
485,-98.13333333333333,-544.0,-17.066666666666666
486,-134.4,-539.7333333333333,8.533333333333333
487,-145.06666666666666,-548.2666666666667,55.46666666666667
488,-164.26666666666665,-546.1333333333333,87.46666666666667
489,-166.4,-544.0,132.26666666666665
490,-151.46666666666667,-548.2666666666667,155.73333333333332
491,-134.4,-552.5333333333333,179.2
492,-108.8,-554.6666666666666,179.2
493,-74.66666666666667,-552.5333333333333,168.53333333333333
494,-23.466666666666665,-556.8,145.06666666666666
495,0.0,-567.4666666666667,106.66666666666667
496,17.066666666666666,-597.3333333333334,64.0
497,-2.1333333333333333,-629.3333333333334,-4.266666666666667
498,-34.13333333333333,-661.3333333333334,-76.8
499,-72.53333333333333,-710.4,-149.33333333333334
500,-110.93333333333334,-774.4,-215.46666666666667
501,-142.93333333333334,-819.2,-247.46666666666667
502,-172.8,-857.6,-226.13333333333333
503,-219.73333333333332,-861.8666666666667,-179.2
504,-243.2,-870.4,-121.6
505,-245.33333333333334,-864.0,-68.26666666666667
506,-198.4,-866.1333333333333,-40.53333333333333
507,-138.66666666666666,-876.8,-34.13333333333333
508,-85.33333333333333,-872.5333333333333,-32.0
509,-53.333333333333336,-855.4666666666667,-46.93333333333333
510,-14.933333333333334,-823.4666666666667,-72.53333333333333
511,4.266666666666667,-791.4666666666667,-98.13333333333333
512,21.333333333333332,-740.2666666666667,-151.46666666666667
513,44.8,-712.5333333333333,-170.66666666666666
514,55.46666666666667,-678.4,-209.06666666666666
515,44.8,-637.8666666666667,-232.53333333333333
516,72.53333333333333,-612.2666666666667,-253.86666666666667
517,66.13333333333333,-558.9333333333333,-266.6666666666667
518,64.0,-520.5333333333333,-285.8666666666667
519,66.13333333333333,-477.8666666666667,-292.26666666666665
520,70.4,-433.06666666666666,-279.46666666666664
521,85.33333333333333,-401.06666666666666,-270.93333333333334
522,115.2,-375.46666666666664,-262.4
523,153.6,-364.8,-238.93333333333334
524,174.93333333333334,-364.8,-217.6
525,211.2,-371.2,-204.8
526,230.4,-388.26666666666665,-177.06666666666666
527,253.86666666666667,-411.73333333333335,-160.0
528,256.0,-439.46666666666664,-157.86666666666667
529,241.06666666666666,-469.3333333333333,-151.46666666666667
530,215.46666666666667,-501.3333333333333,-138.66666666666666
531,185.6,-526.9333333333333,-128.0
532,164.26666666666665,-552.5333333333333,-108.8
533,140.8,-578.1333333333333,-104.53333333333333
534,96.0,-590.9333333333333,-100.26666666666667
535,49.06666666666666,-605.8666666666667,-93.86666666666666
536,10.666666666666666,-633.6,-89.6
537,-34.13333333333333,-648.5333333333333,-76.8
538,-83.2,-654.9333333333333,-81.06666666666666
539,-121.6,-669.8666666666667,-89.6
540,-145.06666666666666,-669.8666666666667,-104.53333333333333
541,-172.8,-665.6,-115.2
542,-192.0,-642.1333333333333,-115.2
543,-187.73333333333332,-633.6,-119.46666666666667
544,-189.86666666666667,-612.2666666666667,-125.86666666666666
545,-162.13333333333333,-590.9333333333333,-119.46666666666667
546,-134.4,-582.4,-110.93333333333334
547,-104.53333333333333,-558.9333333333333,-102.4
548,-83.2,-546.1333333333333,-93.86666666666666
549,-57.6,-529.0666666666666,-98.13333333333333
550,-32.0,-520.5333333333333,-85.33333333333333
551,-4.266666666666667,-509.8666666666667,-87.46666666666667
552,2.1333333333333333,-497.06666666666666,-98.13333333333333
553,12.8,-486.4,-100.26666666666667
554,4.266666666666667,-475.73333333333335,-108.8
555,0.0,-480.0,-102.4
556,0.0,-467.2,-102.4
557,-2.1333333333333333,-477.8666666666667,-87.46666666666667
558,-8.533333333333333,-482.1333333333333,-87.46666666666667
559,-17.066666666666666,-486.4,-81.06666666666666
560,-19.2,-494.93333333333334,-83.2
561,-27.733333333333334,-492.8,-76.8
562,-23.466666666666665,-494.93333333333334,-66.13333333333333
563,-23.466666666666665,-497.06666666666666,-55.46666666666667
564,-29.866666666666667,-494.93333333333334,-46.93333333333333
565,-23.466666666666665,-497.06666666666666,-36.266666666666666
566,-21.333333333333332,-505.59999999999997,-32.0
567,-17.066666666666666,-512.0,-29.866666666666667
568,-10.666666666666666,-518.4,-19.2
569,-14.933333333333334,-514.1333333333333,-4.266666666666667
570,-10.666666666666666,-512.0,-4.266666666666667
571,-4.266666666666667,-509.8666666666667,0.0
572,2.1333333333333333,-505.59999999999997,-2.1333333333333333
573,8.533333333333333,-516.2666666666667,-2.1333333333333333
574,8.533333333333333,-503.46666666666664,-4.266666666666667
575,14.933333333333334,-507.73333333333335,-2.1333333333333333
576,25.6,-509.8666666666667,-2.1333333333333333
577,17.066666666666666,-507.73333333333335,0.0
578,23.466666666666665,-505.59999999999997,2.1333333333333333
579,23.466666666666665,-507.73333333333335,8.533333333333333
580,19.2,-501.3333333333333,10.666666666666666
581,25.6,-499.2,6.4
582,27.733333333333334,-501.3333333333333,12.8
583,27.733333333333334,-494.93333333333334,19.2
584,21.333333333333332,-505.59999999999997,25.6
585,27.733333333333334,-494.93333333333334,23.466666666666665
586,27.733333333333334,-492.8,34.13333333333333
587,32.0,-494.93333333333334,44.8
588,23.466666666666665,-492.8,38.4
589,19.2,-492.8,51.2
590,19.2,-494.93333333333334,51.2
591,14.933333333333334,-488.5333333333333,57.6
592,12.8,-501.3333333333333,61.86666666666667
593,12.8,-499.2,66.13333333333333
594,14.933333333333334,-499.2,72.53333333333333
595,6.4,-497.06666666666666,70.4
596,6.4,-501.3333333333333,76.8
597,8.533333333333333,-505.59999999999997,72.53333333333333
598,10.666666666666666,-507.73333333333335,76.8
599,21.333333333333332,-503.46666666666664,49.06666666666666
600,12.8,-516.2666666666667,23.466666666666665
601,23.466666666666665,-505.59999999999997,6.4
602,46.93333333333333,-501.3333333333333,2.1333333333333333
603,72.53333333333333,-499.2,-14.933333333333334
604,93.86666666666666,-499.2,-25.6
605,113.06666666666666,-505.59999999999997,-23.466666666666665
606,132.26666666666665,-516.2666666666667,-10.666666666666666
607,149.33333333333334,-537.6,6.4
608,168.53333333333333,-550.4,23.466666666666665
609,177.06666666666666,-565.3333333333334,64.0
610,183.46666666666667,-582.4,78.93333333333334
611,168.53333333333333,-584.5333333333333,106.66666666666667
612,147.2,-584.5333333333333,125.86666666666666
613,138.66666666666666,-582.4,147.2
614,136.53333333333333,-584.5333333333333,155.73333333333332
615,136.53333333333333,-578.1333333333333,149.33333333333334
616,128.0,-580.2666666666667,132.26666666666665
617,123.73333333333333,-578.1333333333333,102.4
618,110.93333333333334,-582.4,70.4
619,98.13333333333333,-595.2,12.8
620,96.0,-625.0666666666666,-10.666666666666666
621,89.6,-652.8,-59.733333333333334
622,83.2,-684.8,-78.93333333333334
623,81.06666666666666,-714.6666666666666,-64.0
624,66.13333333333333,-727.4666666666667,-36.266666666666666
625,57.6,-727.4666666666667,-4.266666666666667
626,51.2,-727.4666666666667,17.066666666666666
627,55.46666666666667,-723.2,55.46666666666667
628,64.0,-729.6,78.93333333333334
629,57.6,-712.5333333333333,81.06666666666666
630,51.2,-708.2666666666667,76.8
631,42.666666666666664,-699.7333333333333,64.0
632,36.266666666666666,-697.6,51.2
633,36.266666666666666,-689.0666666666666,32.0
634,38.4,-682.6666666666666,14.933333333333334
635,40.53333333333333,-674.1333333333333,0.0
636,51.2,-665.6,-32.0
637,40.53333333333333,-659.2,-72.53333333333333
638,55.46666666666667,-650.6666666666666,-96.0
639,44.8,-631.4666666666667,-128.0
640,42.666666666666664,-616.5333333333333,-155.73333333333332
641,34.13333333333333,-588.8,-181.33333333333334
642,29.866666666666667,-558.9333333333333,-200.53333333333333
643,21.333333333333332,-531.2,-219.73333333333332
644,10.666666666666666,-499.2,-247.46666666666667
645,-2.1333333333333333,-467.2,-256.0
646,-32.0,-433.06666666666666,-260.26666666666665
647,-70.4,-401.06666666666666,-260.26666666666665
648,-115.2,-375.46666666666664,-256.0
649,-149.33333333333334,-354.1333333333333,-245.33333333333334
650,-174.93333333333334,-343.46666666666664,-230.4
651,-204.8,-339.2,-213.33333333333334
652,-234.66666666666666,-369.06666666666666,-202.66666666666666
653,-238.93333333333334,-392.5333333333333,-177.06666666666666
654,-217.6,-433.06666666666666,-160.0
655,-181.33333333333334,-484.26666666666665,-136.53333333333333
656,-134.4,-529.0666666666666,-119.46666666666667
657,-85.33333333333333,-561.0666666666666,-100.26666666666667
658,-38.4,-603.7333333333333,-81.06666666666666
659,0.0,-637.8666666666667,-76.8
660,51.2,-678.4,-68.26666666666667
661,100.26666666666667,-697.6,-64.0
662,140.8,-718.9333333333333,-61.86666666666667
663,181.33333333333334,-738.1333333333333,-93.86666666666666
664,221.86666666666667,-742.4,-98.13333333333333
665,247.46666666666667,-757.3333333333334,-110.93333333333334
666,268.8,-757.3333333333334,-125.86666666666666
667,275.2,-765.8666666666667,-132.26666666666665
668,279.46666666666664,-755.2,-128.0
669,275.2,-740.2666666666667,-115.2
670,253.86666666666667,-716.8,-108.8
671,232.53333333333333,-684.8,-87.46666666666667
672,209.06666666666666,-646.4,-74.66666666666667
673,179.2,-599.4666666666667,-66.13333333333333
674,164.26666666666665,-595.2,-70.4
675,145.06666666666666,-544.0,-68.26666666666667
676,132.26666666666665,-520.5333333333333,-81.06666666666666
677,115.2,-490.6666666666667,-83.2
678,104.53333333333333,-473.59999999999997,-93.86666666666666
679,98.13333333333333,-450.1333333333333,-91.73333333333333
680,81.06666666666666,-439.46666666666664,-102.4
681,68.26666666666667,-433.06666666666666,-93.86666666666666
682,66.13333333333333,-428.8,-83.2
683,66.13333333333333,-435.2,-78.93333333333334
684,57.6,-433.06666666666666,-53.333333333333336
685,59.733333333333334,-448.0,-57.6
686,64.0,-448.0,-57.6
687,57.6,-448.0,-44.8
688,57.6,-460.8,-44.8
689,53.333333333333336,-458.6666666666667,-36.266666666666666
690,55.46666666666667,-462.93333333333334,-27.733333333333334
691,51.2,-462.93333333333334,-29.866666666666667
692,57.6,-475.73333333333335,-25.6
693,53.333333333333336,-480.0,-12.8
694,59.733333333333334,-492.8,-19.2
695,55.46666666666667,-484.26666666666665,-6.4
696,59.733333333333334,-490.6666666666667,-14.933333333333334
697,64.0,-494.93333333333334,-2.1333333333333333
698,68.26666666666667,-503.46666666666664,8.533333333333333
699,76.8,-503.46666666666664,4.266666666666667
700,72.53333333333333,-505.59999999999997,14.933333333333334
701,68.26666666666667,-505.59999999999997,19.2
702,64.0,-503.46666666666664,23.466666666666665
703,57.6,-512.0,27.733333333333334
704,57.6,-503.46666666666664,32.0
705,59.733333333333334,-507.73333333333335,32.0
706,61.86666666666667,-505.59999999999997,19.2
707,59.733333333333334,-494.93333333333334,29.866666666666667
708,55.46666666666667,-488.5333333333333,32.0
709,49.06666666666666,-486.4,40.53333333333333
710,53.333333333333336,-484.26666666666665,49.06666666666666
711,51.2,-482.1333333333333,40.53333333333333
712,53.333333333333336,-477.8666666666667,53.333333333333336
713,44.8,-475.73333333333335,46.93333333333333
714,46.93333333333333,-469.3333333333333,49.06666666666666
715,49.06666666666666,-469.3333333333333,51.2
716,49.06666666666666,-477.8666666666667,51.2
717,51.2,-480.0,36.266666666666666
718,51.2,-482.1333333333333,38.4
719,44.8,-486.4,42.666666666666664
720,36.266666666666666,-484.26666666666665,27.733333333333334
721,42.666666666666664,-490.6666666666667,23.466666666666665
722,42.666666666666664,-492.8,14.933333333333334
723,53.333333333333336,-509.8666666666667,25.6
724,55.46666666666667,-518.4,27.733333333333334
725,66.13333333333333,-539.7333333333333,27.733333333333334
726,59.733333333333334,-546.1333333333333,23.466666666666665
727,57.6,-556.8,55.46666666666667
728,68.26666666666667,-573.8666666666667,74.66666666666667
729,46.93333333333333,-578.1333333333333,76.8
730,38.4,-593.0666666666666,70.4
731,34.13333333333333,-593.0666666666666,89.6
732,32.0,-586.6666666666666,96.0
733,21.333333333333332,-580.2666666666667,98.13333333333333
734,17.066666666666666,-561.0666666666666,102.4
735,10.666666666666666,-561.0666666666666,108.8
736,21.333333333333332,-561.0666666666666,110.93333333333334
737,17.066666666666666,-565.3333333333334,110.93333333333334
738,10.666666666666666,-573.8666666666667,102.4
739,8.533333333333333,-586.6666666666666,98.13333333333333
740,-6.4,-625.0666666666666,72.53333333333333
741,-29.866666666666667,-659.2,42.666666666666664
742,-46.93333333333333,-695.4666666666667,-10.666666666666666
743,-72.53333333333333,-748.8,-46.93333333333333
744,-93.86666666666666,-795.7333333333333,-83.2
745,-102.4,-844.8,-106.66666666666667
746,-123.73333333333333,-872.5333333333333,-106.66666666666667
747,-128.0,-887.4666666666667,-81.06666666666666
748,-123.73333333333333,-898.1333333333333,-55.46666666666667
749,-130.13333333333333,-891.7333333333333,-27.733333333333334
750,-83.2,-881.0666666666666,-17.066666666666666
751,-23.466666666666665,-857.6,-19.2
752,8.533333333333333,-823.4666666666667,-27.733333333333334
753,38.4,-795.7333333333333,-66.13333333333333
754,57.6,-753.0666666666666,-81.06666666666666
755,66.13333333333333,-697.6,-110.93333333333334
756,83.2,-652.8,-138.66666666666666
757,78.93333333333334,-599.4666666666667,-147.2
758,83.2,-550.4,-179.2
759,81.06666666666666,-503.46666666666664,-200.53333333333333
760,96.0,-477.8666666666667,-228.26666666666665
761,98.13333333333333,-411.73333333333335,-238.93333333333334
762,98.13333333333333,-379.73333333333335,-234.66666666666666
763,100.26666666666667,-347.73333333333335,-228.26666666666665
764,106.66666666666667,-315.73333333333335,-228.26666666666665
765,117.33333333333333,-298.6666666666667,-213.33333333333334
766,140.8,-294.4,-198.4
767,153.6,-294.4,-177.06666666666666
768,162.13333333333333,-313.6,-162.13333333333333
769,177.06666666666666,-349.8666666666667,-147.2
770,166.4,-388.26666666666665,-132.26666666666665
771,140.8,-418.1333333333333,-113.06666666666666
772,117.33333333333333,-471.46666666666664,-104.53333333333333
773,91.73333333333333,-516.2666666666667,-93.86666666666666
774,70.4,-554.6666666666666,-70.4
775,34.13333333333333,-582.4,-76.8
776,2.1333333333333333,-614.4,-61.86666666666667
777,-38.4,-644.2666666666667,-66.13333333333333
778,-85.33333333333333,-667.7333333333333,-85.33333333333333
779,-125.86666666666666,-686.9333333333333,-87.46666666666667
780,-166.4,-704.0,-87.46666666666667
781,-209.06666666666666,-721.0666666666666,-108.8
782,-228.26666666666665,-714.6666666666666,-98.13333333333333
783,-264.5333333333333,-736.0,-104.53333333333333
784,-270.93333333333334,-729.6,-106.66666666666667
785,-279.46666666666664,-714.6666666666666,-100.26666666666667
786,-270.93333333333334,-695.4666666666667,-91.73333333333333
787,-258.1333333333333,-669.8666666666667,-91.73333333333333
788,-224.0,-650.6666666666666,-98.13333333333333
789,-179.2,-625.0666666666666,-91.73333333333333
790,-138.66666666666666,-595.2,-96.0
791,-98.13333333333333,-573.8666666666667,-100.26666666666667
792,-49.06666666666666,-548.2666666666667,-108.8
793,-17.066666666666666,-535.4666666666667,-123.73333333333333
794,12.8,-512.0,-125.86666666666666
795,38.4,-494.93333333333334,-130.13333333333333
796,53.333333333333336,-480.0,-125.86666666666666
797,64.0,-467.2,-128.0
798,70.4,-460.8,-119.46666666666667
799,55.46666666666667,-454.4,-104.53333333333333
800,53.333333333333336,-462.93333333333334,-91.73333333333333
801,49.06666666666666,-473.59999999999997,-72.53333333333333
802,38.4,-490.6666666666667,-66.13333333333333
803,40.53333333333333,-503.46666666666664,-49.06666666666666
804,23.466666666666665,-514.1333333333333,-46.93333333333333
805,21.333333333333332,-518.4,-36.266666666666666
806,6.4,-533.3333333333334,-25.6
807,4.266666666666667,-539.7333333333333,-12.8
808,2.1333333333333333,-546.1333333333333,-6.4
809,0.0,-550.4,2.1333333333333333
810,6.4,-558.9333333333333,2.1333333333333333
811,0.0,-546.1333333333333,10.666666666666666
812,2.1333333333333333,-537.6,12.8
813,-2.1333333333333333,-531.2,6.4
814,-2.1333333333333333,-518.4,6.4
815,-4.266666666666667,-514.1333333333333,8.533333333333333
816,-8.533333333333333,-512.0,-2.1333333333333333
817,-10.666666666666666,-501.3333333333333,4.266666666666667
818,0.0,-501.3333333333333,6.4
819,2.1333333333333333,-501.3333333333333,12.8
820,4.266666666666667,-497.06666666666666,2.1333333333333333
821,8.533333333333333,-477.8666666666667,2.1333333333333333
822,6.4,-475.73333333333335,17.066666666666666
823,19.2,-458.6666666666667,8.533333333333333
824,27.733333333333334,-473.59999999999997,6.4
825,23.466666666666665,-452.26666666666665,21.333333333333332
826,27.733333333333334,-458.6666666666667,25.6
827,34.13333333333333,-454.4,25.6
828,40.53333333333333,-452.26666666666665,29.866666666666667
829,40.53333333333333,-456.5333333333333,46.93333333333333
830,44.8,-465.06666666666666,53.333333333333336
831,42.666666666666664,-471.46666666666664,68.26666666666667
832,42.666666666666664,-477.8666666666667,72.53333333333333
833,34.13333333333333,-477.8666666666667,81.06666666666666
834,36.266666666666666,-484.26666666666665,87.46666666666667
835,44.8,-488.5333333333333,85.33333333333333
836,44.8,-469.3333333333333,78.93333333333334
837,44.8,-490.6666666666667,83.2
838,53.333333333333336,-492.8,78.93333333333334
839,64.0,-505.59999999999997,76.8
840,64.0,-499.2,72.53333333333333
841,72.53333333333333,-499.2,70.4
842,55.46666666666667,-505.59999999999997,76.8
843,55.46666666666667,-497.06666666666666,74.66666666666667
844,44.8,-514.1333333333333,70.4
845,49.06666666666666,-512.0,53.333333333333336
846,40.53333333333333,-509.8666666666667,25.6
847,49.06666666666666,-516.2666666666667,14.933333333333334
848,44.8,-501.3333333333333,6.4
849,46.93333333333333,-492.8,-2.1333333333333333
850,59.733333333333334,-492.8,-2.1333333333333333
851,61.86666666666667,-501.3333333333333,23.466666666666665
852,64.0,-516.2666666666667,55.46666666666667
853,61.86666666666667,-520.5333333333333,78.93333333333334
854,70.4,-533.3333333333334,91.73333333333333
855,74.66666666666667,-539.7333333333333,85.33333333333333
856,66.13333333333333,-554.6666666666666,81.06666666666666
857,68.26666666666667,-580.2666666666667,46.93333333333333
858,81.06666666666666,-627.2,23.466666666666665
859,68.26666666666667,-652.8,12.8
860,55.46666666666667,-686.9333333333333,-2.1333333333333333
861,38.4,-738.1333333333333,0.0
862,17.066666666666666,-789.3333333333334,2.1333333333333333
863,6.4,-836.2666666666667,23.466666666666665
864,-6.4,-874.6666666666666,38.4
865,-21.333333333333332,-900.2666666666667,64.0
866,-25.6,-904.5333333333333,64.0
867,-14.933333333333334,-891.7333333333333,46.93333333333333
868,4.266666666666667,-870.4,8.533333333333333
869,2.1333333333333333,-846.9333333333333,-51.2
870,0.0,-821.3333333333334,-108.8
871,0.0,-780.8,-147.2
872,0.0,-738.1333333333333,-179.2
873,8.533333333333333,-695.4666666666667,-204.8
874,23.466666666666665,-637.8666666666667,-206.93333333333334
875,42.666666666666664,-573.8666666666667,-213.33333333333334
876,44.8,-516.2666666666667,-230.4
877,64.0,-465.06666666666666,-228.26666666666665
878,74.66666666666667,-424.5333333333333,-232.53333333333333
879,57.6,-392.5333333333333,-230.4
880,51.2,-360.5333333333333,-221.86666666666667
881,21.333333333333332,-330.6666666666667,-202.66666666666666
882,-12.8,-320.0,-181.33333333333334
883,-36.266666666666666,-330.6666666666667,-170.66666666666666
884,-66.13333333333333,-343.46666666666664,-155.73333333333332
885,-96.0,-388.26666666666665,-138.66666666666666
886,-110.93333333333334,-435.2,-115.2
887,-98.13333333333333,-492.8,-100.26666666666667
888,-78.93333333333334,-546.1333333333333,-87.46666666666667
889,-46.93333333333333,-593.0666666666666,-83.2
890,-17.066666666666666,-620.8,-70.4
891,4.266666666666667,-676.2666666666667,-70.4
892,34.13333333333333,-697.6,-89.6
893,72.53333333333333,-716.8,-96.0
894,115.2,-725.3333333333334,-121.6
895,155.73333333333332,-736.0,-125.86666666666666
896,202.66666666666666,-738.1333333333333,-136.53333333333333
897,236.79999999999998,-729.6,-134.4
898,268.8,-718.9333333333333,-136.53333333333333
899,281.6,-699.7333333333333,-123.73333333333333
900,294.4,-674.1333333333333,-121.6
901,294.4,-637.8666666666667,-123.73333333333333
902,270.93333333333334,-595.2,-93.86666666666666
903,243.2,-576.0,-87.46666666666667
904,224.0,-544.0,-78.93333333333334
905,183.46666666666667,-514.1333333333333,-91.73333333333333
906,151.46666666666667,-492.8,-83.2
907,128.0,-475.73333333333335,-102.4
908,87.46666666666667,-452.26666666666665,-87.46666666666667
909,72.53333333333333,-450.1333333333333,-87.46666666666667
910,51.2,-443.73333333333335,-91.73333333333333
911,40.53333333333333,-456.5333333333333,-89.6
912,21.333333333333332,-450.1333333333333,-81.06666666666666
913,14.933333333333334,-450.1333333333333,-83.2
914,14.933333333333334,-452.26666666666665,-76.8
915,21.333333333333332,-460.8,-66.13333333333333
916,32.0,-465.06666666666666,-74.66666666666667
917,46.93333333333333,-471.46666666666664,-78.93333333333334
918,53.333333333333336,-469.3333333333333,-68.26666666666667
919,72.53333333333333,-460.8,-74.66666666666667
920,85.33333333333333,-454.4,-70.4
921,89.6,-458.6666666666667,-59.733333333333334
922,96.0,-460.8,-32.0
923,100.26666666666667,-458.6666666666667,-25.6
924,106.66666666666667,-467.2,-27.733333333333334
925,102.4,-475.73333333333335,-14.933333333333334
926,100.26666666666667,-482.1333333333333,-8.533333333333333
927,96.0,-488.5333333333333,-2.1333333333333333
928,108.8,-492.8,-10.666666666666666
929,102.4,-497.06666666666666,-6.4
930,102.4,-488.5333333333333,-8.533333333333333
931,102.4,-494.93333333333334,-4.266666666666667
932,106.66666666666667,-505.59999999999997,0.0
933,85.33333333333333,-505.59999999999997,6.4
934,83.2,-505.59999999999997,6.4
935,78.93333333333334,-516.2666666666667,21.333333333333332
936,74.66666666666667,-524.8,19.2
937,66.13333333333333,-524.8,21.333333333333332
938,51.2,-526.9333333333333,21.333333333333332
939,51.2,-533.3333333333334,23.466666666666665
940,46.93333333333333,-535.4666666666667,21.333333333333332
941,49.06666666666666,-544.0,12.8
942,46.93333333333333,-541.8666666666667,21.333333333333332
943,64.0,-552.5333333333333,12.8
944,68.26666666666667,-548.2666666666667,14.933333333333334
945,81.06666666666666,-556.8,27.733333333333334
946,87.46666666666667,-558.9333333333333,34.13333333333333
947,87.46666666666667,-556.8,51.2
948,91.73333333333333,-556.8,59.733333333333334
949,89.6,-556.8,64.0
950,78.93333333333334,-552.5333333333333,70.4
951,64.0,-550.4,68.26666666666667
952,40.53333333333333,-546.1333333333333,87.46666666666667
953,19.2,-537.6,81.06666666666666
954,12.8,-544.0,76.8
955,0.0,-541.8666666666667,64.0
956,-4.266666666666667,-546.1333333333333,74.66666666666667
957,-21.333333333333332,-546.1333333333333,72.53333333333333
958,-40.53333333333333,-546.1333333333333,76.8
959,-57.6,-546.1333333333333,74.66666666666667
960,-70.4,-556.8,66.13333333333333
961,-81.06666666666666,-569.6,57.6
962,-93.86666666666666,-582.4,34.13333333333333
963,-102.4,-597.3333333333334,32.0
964,-119.46666666666667,-620.8,8.533333333333333
965,-128.0,-657.0666666666666,-8.533333333333333
966,-138.66666666666666,-684.8,-34.13333333333333
967,-142.93333333333334,-721.0666666666666,-46.93333333333333
968,-130.13333333333333,-770.1333333333333,-57.6
969,-125.86666666666666,-817.0666666666666,-51.2
970,-104.53333333333333,-853.3333333333334,-29.866666666666667
971,-85.33333333333333,-883.1999999999999,-12.8
972,-53.333333333333336,-885.3333333333334,-4.266666666666667
973,-36.266666666666666,-876.8,-6.4
974,-19.2,-838.4,-29.866666666666667
975,21.333333333333332,-797.8666666666667,-53.333333333333336
976,46.93333333333333,-746.6666666666666,-96.0
977,68.26666666666667,-708.2666666666667,-134.4
978,70.4,-657.0666666666666,-162.13333333333333
979,72.53333333333333,-597.3333333333334,-177.06666666666666
980,78.93333333333334,-548.2666666666667,-206.93333333333334
981,81.06666666666666,-490.6666666666667,-228.26666666666665
982,81.06666666666666,-433.06666666666666,-230.4
983,78.93333333333334,-396.8,-236.79999999999998
984,76.8,-343.46666666666664,-238.93333333333334
985,89.6,-313.6,-221.86666666666667
986,83.2,-279.46666666666664,-217.6
987,93.86666666666666,-264.5333333333333,-196.26666666666665
988,89.6,-270.93333333333334,-172.8
989,100.26666666666667,-288.0,-151.46666666666667
990,113.06666666666666,-324.26666666666665,-140.8
991,128.0,-375.46666666666664,-125.86666666666666
992,119.46666666666667,-420.26666666666665,-113.06666666666666
993,98.13333333333333,-469.3333333333333,-106.66666666666667
994,72.53333333333333,-524.8,-81.06666666666666
995,53.333333333333336,-573.8666666666667,-61.86666666666667
996,42.666666666666664,-614.4,-55.46666666666667
997,17.066666666666666,-654.9333333333333,-59.733333333333334
998,8.533333333333333,-674.1333333333333,-68.26666666666667
999,-21.333333333333332,-701.8666666666667,-76.8
1000,-55.46666666666667,-708.2666666666667,-89.6
1001,-83.2,-712.5333333333333,-106.66666666666667
1002,-104.53333333333333,-721.0666666666666,-106.66666666666667
1003,-123.73333333333333,-723.2,-113.06666666666666
1004,-136.53333333333333,-723.2,-106.66666666666667
1005,-132.26666666666665,-721.0666666666666,-98.13333333333333
1006,-138.66666666666666,-714.6666666666666,-87.46666666666667
1007,-125.86666666666666,-701.8666666666667,-85.33333333333333
1008,-104.53333333333333,-678.4,-64.0
1009,-81.06666666666666,-652.8,-53.333333333333336
1010,-57.6,-614.4,-66.13333333333333
1011,-38.4,-578.1333333333333,-64.0
1012,-23.466666666666665,-544.0,-70.4
1013,-6.4,-516.2666666666667,-74.66666666666667
1014,4.266666666666667,-490.6666666666667,-93.86666666666666
1015,19.2,-475.73333333333335,-106.66666666666667
1016,32.0,-443.73333333333335,-113.06666666666666
1017,46.93333333333333,-426.6666666666667,-130.13333333333333
1018,49.06666666666666,-424.5333333333333,-125.86666666666666
1019,61.86666666666667,-433.06666666666666,-106.66666666666667
1020,53.333333333333336,-428.8,-98.13333333333333
1021,53.333333333333336,-441.59999999999997,-81.06666666666666
1022,55.46666666666667,-452.26666666666665,-72.53333333333333
1023,44.8,-462.93333333333334,-66.13333333333333
1024,36.266666666666666,-477.8666666666667,-55.46666666666667
1025,36.266666666666666,-497.06666666666666,-51.2
1026,27.733333333333334,-512.0,-42.666666666666664
1027,17.066666666666666,-526.9333333333333,-23.466666666666665
1028,6.4,-524.8,-19.2
1029,2.1333333333333333,-537.6,-19.2
1030,-6.4,-550.4,-14.933333333333334
1031,2.1333333333333333,-548.2666666666667,-12.8
1032,0.0,-552.5333333333333,-12.8
1033,0.0,-550.4,0.0
1034,0.0,-546.1333333333333,0.0
1035,0.0,-548.2666666666667,6.4
1036,4.266666666666667,-546.1333333333333,12.8
1037,0.0,-539.7333333333333,6.4
1038,0.0,-544.0,19.2
1039,2.1333333333333333,-544.0,27.733333333333334
1040,4.266666666666667,-544.0,34.13333333333333
1041,8.533333333333333,-544.0,49.06666666666666
1042,8.533333333333333,-537.6,66.13333333333333
1043,10.666666666666666,-541.8666666666667,61.86666666666667
1044,10.666666666666666,-546.1333333333333,83.2
1045,19.2,-546.1333333333333,83.2
1046,23.466666666666665,-550.4,74.66666666666667
1047,29.866666666666667,-546.1333333333333,74.66666666666667
1048,25.6,-544.0,74.66666666666667
1049,29.866666666666667,-541.8666666666667,76.8
1050,42.666666666666664,-535.4666666666667,72.53333333333333
1051,42.666666666666664,-518.4,74.66666666666667
1052,57.6,-518.4,85.33333333333333
1053,74.66666666666667,-492.8,68.26666666666667
1054,81.06666666666666,-482.1333333333333,76.8
1055,78.93333333333334,-467.2,61.86666666666667
1056,78.93333333333334,-454.4,59.733333333333334
1057,81.06666666666666,-448.0,51.2
1058,85.33333333333333,-441.59999999999997,53.333333333333336
1059,87.46666666666667,-443.73333333333335,46.93333333333333
1060,91.73333333333333,-452.26666666666665,61.86666666666667
1061,87.46666666666667,-465.06666666666666,55.46666666666667
1062,83.2,-482.1333333333333,74.66666666666667
1063,72.53333333333333,-494.93333333333334,78.93333333333334
1064,76.8,-518.4,83.2
1065,78.93333333333334,-537.6,91.73333333333333
1066,85.33333333333333,-554.6666666666666,93.86666666666666
1067,91.73333333333333,-563.2,68.26666666666667
1068,85.33333333333333,-571.7333333333333,42.666666666666664
1069,91.73333333333333,-586.6666666666666,25.6
1070,102.4,-586.6666666666666,-2.1333333333333333
1071,117.33333333333333,-599.4666666666667,2.1333333333333333
1072,119.46666666666667,-618.6666666666666,0.0
1073,125.86666666666666,-648.5333333333333,8.533333333333333
1074,113.06666666666666,-689.0666666666666,14.933333333333334
1075,85.33333333333333,-718.9333333333333,25.6
1076,53.333333333333336,-744.5333333333333,36.266666666666666
1077,27.733333333333334,-780.8,29.866666666666667
1078,0.0,-810.6666666666666,17.066666666666666
1079,-19.2,-825.6,-8.533333333333333
1080,-32.0,-827.7333333333333,-46.93333333333333
1081,-27.733333333333334,-819.2,-83.2
1082,-21.333333333333332,-791.4666666666667,-128.0
1083,-32.0,-757.3333333333334,-172.8
1084,-36.266666666666666,-731.7333333333333,-189.86666666666667
1085,-44.8,-680.5333333333333,-209.06666666666666
1086,-25.6,-644.2666666666667,-241.06666666666666
1087,-10.666666666666666,-593.0666666666666,-264.5333333333333
1088,4.266666666666667,-537.6,-275.2
1089,12.8,-482.1333333333333,-285.8666666666667
1090,17.066666666666666,-413.8666666666667,-273.06666666666666
1091,4.266666666666667,-354.1333333333333,-253.86666666666667
1092,-6.4,-322.1333333333333,-221.86666666666667
1093,-38.4,-281.6,-206.93333333333334
1094,-68.26666666666667,-268.8,-164.26666666666665
1095,-81.06666666666666,-273.06666666666666,-151.46666666666667
1096,-106.66666666666667,-300.8,-121.6
1097,-123.73333333333333,-341.3333333333333,-102.4
1098,-136.53333333333333,-394.6666666666667,-78.93333333333334
1099,-130.13333333333333,-467.2,-51.2
1100,-113.06666666666666,-512.0,-51.2
1101,-104.53333333333333,-563.2,-23.466666666666665
1102,-85.33333333333333,-614.4,-27.733333333333334
1103,-64.0,-665.6,-34.13333333333333
1104,-27.733333333333334,-699.7333333333333,-57.6
1105,8.533333333333333,-731.7333333333333,-74.66666666666667
1106,21.333333333333332,-761.6,-98.13333333333333
1107,68.26666666666667,-785.0666666666666,-102.4
1108,100.26666666666667,-791.4666666666667,-106.66666666666667
1109,142.93333333333334,-804.2666666666667,-113.06666666666666
1110,166.4,-810.6666666666666,-106.66666666666667
1111,200.53333333333333,-804.2666666666667,-110.93333333333334
1112,224.0,-778.6666666666666,-96.0
1113,236.79999999999998,-748.8,-96.0
1114,243.2,-706.1333333333333,-91.73333333333333
1115,238.93333333333334,-657.0666666666666,-96.0
1116,236.79999999999998,-599.4666666666667,-85.33333333333333
1117,211.2,-563.2,-78.93333333333334
1118,187.73333333333332,-503.46666666666664,-87.46666666666667
1119,157.86666666666667,-471.46666666666664,-93.86666666666666
1120,132.26666666666665,-435.2,-98.13333333333333
1121,108.8,-422.4,-102.4
1122,76.8,-407.46666666666664,-96.0
1123,57.6,-403.2,-96.0
1124,32.0,-401.06666666666666,-83.2
1125,12.8,-401.06666666666666,-70.4
1126,6.4,-411.73333333333335,-68.26666666666667
1127,0.0,-424.5333333333333,-78.93333333333334
1128,-4.266666666666667,-443.73333333333335,-49.06666666666666
1129,-4.266666666666667,-460.8,-44.8
1130,4.266666666666667,-469.3333333333333,-49.06666666666666
1131,14.933333333333334,-473.59999999999997,-44.8
1132,19.2,-482.1333333333333,-57.6
1133,32.0,-488.5333333333333,-61.86666666666667
1134,36.266666666666666,-492.8,-53.333333333333336
1135,44.8,-499.2,-44.8
1136,32.0,-499.2,-38.4
1137,36.266666666666666,-499.2,-17.066666666666666
1138,40.53333333333333,-509.8666666666667,-12.8
1139,49.06666666666666,-516.2666666666667,2.1333333333333333
1140,42.666666666666664,-516.2666666666667,-6.4
1141,49.06666666666666,-512.0,4.266666666666667
1142,59.733333333333334,-516.2666666666667,14.933333333333334
1143,64.0,-514.1333333333333,12.8
1144,72.53333333333333,-516.2666666666667,27.733333333333334
1145,72.53333333333333,-505.59999999999997,25.6
1146,85.33333333333333,-514.1333333333333,25.6
1147,96.0,-509.8666666666667,42.666666666666664
1148,102.4,-514.1333333333333,55.46666666666667
1149,102.4,-507.73333333333335,70.4
1150,98.13333333333333,-520.5333333333333,53.333333333333336
1151,108.8,-514.1333333333333,64.0
1152,100.26666666666667,-518.4,64.0
1153,96.0,-516.2666666666667,68.26666666666667
1154,104.53333333333333,-526.9333333333333,68.26666666666667
1155,96.0,-509.8666666666667,70.4
1156,85.33333333333333,-503.46666666666664,59.733333333333334
1157,74.66666666666667,-505.59999999999997,70.4
1158,59.733333333333334,-482.1333333333333,59.733333333333334
1159,49.06666666666666,-480.0,57.6
1160,55.46666666666667,-490.6666666666667,57.6
1161,42.666666666666664,-486.4,42.666666666666664
1162,51.2,-501.3333333333333,49.06666666666666
1163,46.93333333333333,-514.1333333333333,38.4
1164,51.2,-520.5333333333333,34.13333333333333
1165,66.13333333333333,-529.0666666666666,32.0
1166,72.53333333333333,-531.2,32.0
1167,83.2,-518.4,38.4
1168,102.4,-516.2666666666667,42.666666666666664
1169,110.93333333333334,-518.4,29.866666666666667
1170,117.33333333333333,-518.4,-2.1333333333333333
1171,123.73333333333333,-531.2,-36.266666666666666
1172,98.13333333333333,-561.0666666666666,-61.86666666666667
1173,53.333333333333336,-588.8,-113.06666666666666
1174,2.1333333333333333,-620.8,-179.2
1175,-76.8,-642.1333333333333,-241.06666666666666
1176,-140.8,-676.2666666666667,-320.0
1177,-211.2,-695.4666666666667,-388.26666666666665
1178,-281.6,-723.2,-450.1333333333333
1179,-354.1333333333333,-740.2666666666667,-482.1333333333333
1180,-386.1333333333333,-740.2666666666667,-486.4
1181,-373.3333333333333,-718.9333333333333,-439.46666666666664
1182,-296.5333333333333,-695.4666666666667,-371.2
1183,-215.46666666666667,-657.0666666666666,-300.8
1184,-136.53333333333333,-631.4666666666667,-226.13333333333333
1185,-57.6,-608.0,-164.26666666666665
1186,14.933333333333334,-603.7333333333333,-123.73333333333333
1187,91.73333333333333,-605.8666666666667,-98.13333333333333
1188,153.6,-614.4,-108.8
1189,211.2,-627.2,-115.2
1190,241.06666666666666,-650.6666666666666,-130.13333333333333
1191,234.66666666666666,-663.4666666666667,-147.2
1192,221.86666666666667,-674.1333333333333,-155.73333333333332
1193,217.6,-701.8666666666667,-138.66666666666666
1194,204.8,-710.4,-125.86666666666666
1195,162.13333333333333,-729.6,-128.0
1196,123.73333333333333,-736.0,-119.46666666666667
1197,70.4,-742.4,-123.73333333333333
1198,19.2,-742.4,-149.33333333333334
1199,-29.866666666666667,-723.2,-166.4
1200,-72.53333333333333,-701.8666666666667,-194.13333333333333
1201,-119.46666666666667,-682.6666666666666,-213.33333333333334
1202,-136.53333333333333,-659.2,-221.86666666666667
1203,-125.86666666666666,-654.9333333333333,-209.06666666666666
1204,-117.33333333333333,-635.7333333333333,-185.6
1205,-110.93333333333334,-622.9333333333333,-160.0
1206,-119.46666666666667,-610.1333333333333,-130.13333333333333
1207,-132.26666666666665,-605.8666666666667,-102.4
1208,-136.53333333333333,-588.8,-89.6
1209,-136.53333333333333,-584.5333333333333,-83.2
1210,-142.93333333333334,-563.2,-85.33333333333333
1211,-164.26666666666665,-554.6666666666666,-98.13333333333333
1212,-170.66666666666666,-544.0,-93.86666666666666
1213,-174.93333333333334,-529.0666666666666,-106.66666666666667
1214,-172.8,-518.4,-132.26666666666665
1215,-125.86666666666666,-505.59999999999997,-132.26666666666665
1216,-117.33333333333333,-499.2,-147.2
1217,-104.53333333333333,-514.1333333333333,-181.33333333333334
1218,-53.333333333333336,-503.46666666666664,-177.06666666666666
1219,-6.4,-514.1333333333333,-181.33333333333334
1220,27.733333333333334,-537.6,-185.6
1221,49.06666666666666,-531.2,-140.8
1222,100.26666666666667,-516.2666666666667,-157.86666666666667
1223,119.46666666666667,-524.8,-160.0
1224,155.73333333333332,-499.2,-147.2
1225,181.33333333333334,-499.2,-125.86666666666666
1226,213.33333333333334,-462.93333333333334,-136.53333333333333
1227,226.13333333333333,-471.46666666666664,-130.13333333333333
1228,228.26666666666665,-445.8666666666667,-115.2
1229,238.93333333333334,-443.73333333333335,-98.13333333333333
1230,238.93333333333334,-441.59999999999997,-125.86666666666666
1231,215.46666666666667,-420.26666666666665,-117.33333333333333
1232,196.26666666666665,-422.4,-96.0
1233,162.13333333333333,-435.2,-87.46666666666667
1234,142.93333333333334,-433.06666666666666,-78.93333333333334
1235,128.0,-433.06666666666666,-74.66666666666667
1236,130.13333333333333,-445.8666666666667,-81.06666666666666
1237,130.13333333333333,-445.8666666666667,-57.6
1238,108.8,-460.8,-61.86666666666667
1239,113.06666666666666,-469.3333333333333,-51.2
1240,98.13333333333333,-482.1333333333333,-51.2
1241,89.6,-480.0,-40.53333333333333
1242,76.8,-484.26666666666665,-55.46666666666667
1243,76.8,-484.26666666666665,-29.866666666666667
1244,53.333333333333336,-484.26666666666665,-25.6
1245,46.93333333333333,-486.4,-8.533333333333333
1246,17.066666666666666,-486.4,-4.266666666666667
1247,2.1333333333333333,-484.26666666666665,-6.4
1248,-19.2,-458.6666666666667,8.533333333333333
1249,-36.266666666666666,-448.0,6.4
1250,-61.86666666666667,-426.6666666666667,4.266666666666667
1251,-87.46666666666667,-407.46666666666664,10.666666666666666
1252,-106.66666666666667,-386.1333333333333,17.066666666666666
1253,-132.26666666666665,-369.06666666666666,4.266666666666667
1254,-147.2,-354.1333333333333,10.666666666666666
1255,-172.8,-339.2,0.0
1256,-200.53333333333333,-337.06666666666666,10.666666666666666
1257,-211.2,-347.73333333333335,6.4
1258,-228.26666666666665,-364.8,6.4
1259,-236.79999999999998,-373.3333333333333,12.8
1260,-236.79999999999998,-407.46666666666664,14.933333333333334
1261,-234.66666666666666,-426.6666666666667,21.333333333333332
1262,-230.4,-456.5333333333333,25.6
1263,-215.46666666666667,-475.73333333333335,14.933333333333334
1264,-198.4,-488.5333333333333,0.0
1265,-168.53333333333333,-494.93333333333334,-38.4
1266,-130.13333333333333,-488.5333333333333,-98.13333333333333
1267,-87.46666666666667,-477.8666666666667,-157.86666666666667
1268,-57.6,-458.6666666666667,-213.33333333333334
1269,-4.266666666666667,-443.73333333333335,-277.3333333333333
1270,29.866666666666667,-430.93333333333334,-315.73333333333335
1271,68.26666666666667,-422.4,-326.4
1272,108.8,-422.4,-322.1333333333333
1273,138.66666666666666,-426.6666666666667,-320.0
1274,153.6,-441.59999999999997,-315.73333333333335
1275,160.0,-462.93333333333334,-334.93333333333334
1276,157.86666666666667,-494.93333333333334,-339.2
1277,160.0,-509.8666666666667,-375.46666666666664
1278,147.2,-524.8,-422.4
1279,166.4,-546.1333333333333,-445.8666666666667
1280,179.2,-561.0666666666666,-467.2
1281,202.66666666666666,-578.1333333333333,-458.6666666666667
1282,202.66666666666666,-588.8,-441.59999999999997
1283,211.2,-618.6666666666666,-445.8666666666667
1284,181.33333333333334,-646.4,-471.46666666666664
1285,151.46666666666667,-684.8,-492.8
1286,110.93333333333334,-716.8,-512.0
1287,66.13333333333333,-744.5333333333333,-518.4
1288,21.333333333333332,-770.1333333333333,-514.1333333333333
1289,-29.866666666666667,-778.6666666666666,-514.1333333333333
1290,-55.46666666666667,-814.9333333333333,-507.73333333333335
1291,-76.8,-834.1333333333333,-501.3333333333333
1292,-102.4,-840.5333333333333,-480.0
1293,-108.8,-851.1999999999999,-477.8666666666667
1294,-108.8,-844.8,-486.4
1295,-102.4,-819.2,-482.1333333333333
1296,-91.73333333333333,-804.2666666666667,-477.8666666666667
1297,-83.2,-757.3333333333334,-484.26666666666665
1298,-76.8,-712.5333333333333,-488.5333333333333
1299,-76.8,-691.2,-497.06666666666666
1300,-55.46666666666667,-657.0666666666666,-492.8
1301,-49.06666666666666,-631.4666666666667,-494.93333333333334
1302,-29.866666666666667,-616.5333333333333,-503.46666666666664
1303,-27.733333333333334,-603.7333333333333,-505.59999999999997
1304,-21.333333333333332,-595.2,-516.2666666666667
1305,-4.266666666666667,-605.8666666666667,-512.0
1306,2.1333333333333333,-601.6,-518.4
1307,17.066666666666666,-614.4,-503.46666666666664
1308,27.733333333333334,-625.0666666666666,-501.3333333333333
1309,32.0,-608.0,-488.5333333333333
1310,40.53333333333333,-612.2666666666667,-492.8
1311,46.93333333333333,-603.7333333333333,-512.0
1312,66.13333333333333,-603.7333333333333,-524.8
1313,76.8,-593.0666666666666,-518.4
1314,78.93333333333334,-584.5333333333333,-514.1333333333333
1315,81.06666666666666,-567.4666666666667,-488.5333333333333
1316,83.2,-544.0,-458.6666666666667
1317,85.33333333333333,-520.5333333333333,-437.3333333333333
1318,96.0,-486.4,-403.2
1319,93.86666666666666,-450.1333333333333,-371.2
1320,106.66666666666667,-424.5333333333333,-341.3333333333333
1321,96.0,-396.8,-322.1333333333333
1322,93.86666666666666,-369.06666666666666,-285.8666666666667
1323,85.33333333333333,-341.3333333333333,-264.5333333333333
1324,91.73333333333333,-334.93333333333334,-226.13333333333333
1325,81.06666666666666,-317.8666666666667,-192.0
1326,85.33333333333333,-311.46666666666664,-157.86666666666667
1327,74.66666666666667,-320.0,-132.26666666666665
1328,74.66666666666667,-320.0,-110.93333333333334
1329,42.666666666666664,-309.3333333333333,-93.86666666666666
1330,32.0,-296.5333333333333,-74.66666666666667
1331,10.666666666666666,-292.26666666666665,-74.66666666666667
1332,0.0,-277.3333333333333,-83.2
1333,-27.733333333333334,-273.06666666666666,-96.0
1334,-51.2,-268.8,-98.13333333333333
1335,-64.0,-273.06666666666666,-98.13333333333333
1336,-76.8,-270.93333333333334,-96.0
1337,-81.06666666666666,-268.8,-83.2
1338,-74.66666666666667,-258.1333333333333,-74.66666666666667
1339,-61.86666666666667,-262.4,-57.6
1340,-57.6,-251.73333333333332,-49.06666666666666
1341,-44.8,-236.79999999999998,-44.8
1342,-4.266666666666667,-230.4,-8.533333333333333
1343,14.933333333333334,-226.13333333333333,0.0
1344,29.866666666666667,-213.33333333333334,19.2
1345,66.13333333333333,-202.66666666666666,53.333333333333336
1346,89.6,-196.26666666666665,72.53333333333333
1347,115.2,-200.53333333333333,87.46666666666667
1348,140.8,-198.4,102.4
1349,157.86666666666667,-192.0,119.46666666666667
1350,200.53333333333333,-209.06666666666666,140.8
1351,217.6,-211.2,160.0
1352,236.79999999999998,-217.6,145.06666666666666
1353,230.4,-198.4,168.53333333333333
1354,221.86666666666667,-170.66666666666666,162.13333333333333
1355,226.13333333333333,-130.13333333333333,183.46666666666667
1356,236.79999999999998,-76.8,206.93333333333334
1357,264.5333333333333,-8.533333333333333,243.2
1358,294.4,25.6,249.6
1359,305.06666666666666,44.8,221.86666666666667
1360,298.6666666666667,32.0,147.2
1361,277.3333333333333,-2.1333333333333333,46.93333333333333
1362,241.06666666666666,-17.066666666666666,-42.666666666666664
1363,151.46666666666667,-17.066666666666666,-132.26666666666665
1364,49.06666666666666,4.266666666666667,-153.6
1365,-51.2,17.066666666666666,-147.2
1366,-128.0,27.733333333333334,-119.46666666666667
1367,-189.86666666666667,14.933333333333334,-81.06666666666666
1368,-268.8,2.1333333333333333,-53.333333333333336
1369,-324.26666666666665,-4.266666666666667,-100.26666666666667
1370,-375.46666666666664,-17.066666666666666,-189.86666666666667
1371,-430.93333333333334,-8.533333333333333,-251.73333333333332
1372,-482.1333333333333,2.1333333333333333,-292.26666666666665
1373,-546.1333333333333,2.1333333333333333,-358.4
1374,-548.2666666666667,-8.533333333333333,-394.6666666666667
1375,-558.9333333333333,-25.6,-426.6666666666667
1376,-567.4666666666667,-38.4,-439.46666666666664
1377,-576.0,-53.333333333333336,-467.2
1378,-573.8666666666667,-72.53333333333333,-484.26666666666665
1379,-558.9333333333333,-81.06666666666666,-526.9333333333333
1380,-548.2666666666667,-89.6,-573.8666666666667
1381,-537.6,-61.86666666666667,-610.1333333333333
1382,-537.6,-6.4,-646.4
1383,-539.7333333333333,27.733333333333334,-680.5333333333333
1384,-514.1333333333333,38.4,-697.6
1385,-514.1333333333333,53.333333333333336,-729.6
1386,-499.2,55.46666666666667,-757.3333333333334
1387,-497.06666666666666,42.666666666666664,-765.8666666666667
1388,-501.3333333333333,38.4,-763.7333333333333
1389,-492.8,32.0,-780.8
1390,-477.8666666666667,4.266666666666667,-778.6666666666666
1391,-462.93333333333334,0.0,-789.3333333333334
1392,-430.93333333333334,-17.066666666666666,-789.3333333333334
1393,-401.06666666666666,-49.06666666666666,-804.2666666666667
1394,-341.3333333333333,-104.53333333333333,-804.2666666666667
1395,-281.6,-136.53333333333333,-791.4666666666667
1396,-232.53333333333333,-100.26666666666667,-793.6
1397,-228.26666666666665,-59.733333333333334,-772.2666666666667
1398,-302.93333333333334,44.8,-759.4666666666667
1399,-445.8666666666667,200.53333333333333,-840.5333333333333
1400,-605.8666666666667,356.26666666666665,-957.8666666666667
1401,-859.7333333333333,648.5333333333333,-1073.0666666666666
1402,-819.2,827.7333333333333,-1230.9333333333334
1403,-633.6,738.1333333333333,-1358.9333333333334
1404,-834.1333333333333,746.6666666666666,-1442.1333333333332
1405,-1160.5333333333333,755.2,-1493.3333333333333
1406,-1610.6666666666667,791.4666666666667,-1437.8666666666666
1407,-1868.8,876.8,-1425.0666666666666
1408,-1941.3333333333333,983.4666666666667,-1352.5333333333333
1409,-1947.7333333333333,1115.7333333333333,-1194.6666666666667
1410,-2314.6666666666665,1299.2,-1017.6
1411,-3150.9333333333334,1512.5333333333333,-644.2666666666667
1412,-3541.3333333333335,1410.1333333333332,-200.53333333333333
1413,-3694.9333333333334,1390.9333333333334,-236.79999999999998
1414,-3165.866666666667,1282.1333333333332,-501.3333333333333
1415,-1966.9333333333334,827.7333333333333,-516.2666666666667
1416,-806.4,456.5333333333333,-597.3333333333334
1417,123.73333333333333,119.46666666666667,-680.5333333333333
1418,546.1333333333333,-168.53333333333333,-659.2
1419,187.73333333333332,-339.2,-612.2666666666667
1420,-305.06666666666666,-409.6,-494.93333333333334
1421,-605.8666666666667,-452.26666666666665,-279.46666666666664
1422,-701.8666666666667,-486.4,-96.0
1423,-684.8,-544.0,17.066666666666666
1424,-608.0,-590.9333333333333,83.2
1425,-541.8666666666667,-595.2,61.86666666666667
1426,-384.0,-603.7333333333333,40.53333333333333
1427,-328.5333333333333,-469.3333333333333,-29.866666666666667
1428,-405.3333333333333,-245.33333333333334,-151.46666666666667
1429,-477.8666666666667,-19.2,-236.79999999999998
1430,-537.6,160.0,-311.46666666666664
1431,-552.5333333333333,294.4,-345.6
1432,-505.59999999999997,384.0,-373.3333333333333
1433,-450.1333333333333,426.6666666666667,-392.5333333333333
1434,-462.93333333333334,492.8,-388.26666666666665
1435,-518.4,529.0666666666666,-379.73333333333335
1436,-573.8666666666667,552.5333333333333,-373.3333333333333
1437,-620.8,576.0,-358.4
1438,-627.2,552.5333333333333,-352.0
1439,-610.1333333333333,497.06666666666666,-326.4
1440,-608.0,422.4,-285.8666666666667
1441,-603.7333333333333,332.8,-247.46666666666667
1442,-612.2666666666667,247.46666666666667,-194.13333333333333
1443,-590.9333333333333,151.46666666666667,-145.06666666666666
1444,-546.1333333333333,53.333333333333336,-125.86666666666666
1445,-471.46666666666664,-36.266666666666666,-123.73333333333333
1446,-394.6666666666667,-98.13333333333333,-145.06666666666666
1447,-324.26666666666665,-121.6,-151.46666666666667
1448,-275.2,-98.13333333333333,-187.73333333333332
1449,-241.06666666666666,-40.53333333333333,-243.2
1450,-219.73333333333332,38.4,-300.8
1451,-209.06666666666666,128.0,-375.46666666666664
1452,-172.8,194.13333333333333,-422.4
1453,-155.73333333333332,243.2,-437.3333333333333
1454,-153.6,315.73333333333335,-435.2
1455,-170.66666666666666,375.46666666666664,-413.8666666666667
1456,-168.53333333333333,424.5333333333333,-375.46666666666664
1457,-140.8,409.6,-366.93333333333334
1458,-115.2,388.26666666666665,-334.93333333333334
1459,-100.26666666666667,371.2,-349.8666666666667
1460,-110.93333333333334,349.8666666666667,-354.1333333333333
1461,-96.0,320.0,-364.8
1462,-76.8,294.4,-373.3333333333333
1463,-38.4,219.73333333333332,-373.3333333333333
1464,-46.93333333333333,260.26666666666665,-401.06666666666666
1465,-104.53333333333333,334.93333333333334,-441.59999999999997
1466,-115.2,358.4,-473.59999999999997
1467,-10.666666666666666,300.8,-488.5333333333333
1468,10.666666666666666,270.93333333333334,-509.8666666666667
1469,42.666666666666664,285.8666666666667,-563.2
1470,-8.533333333333333,386.1333333333333,-627.2
1471,-70.4,413.8666666666667,-650.6666666666666
1472,-93.86666666666666,349.8666666666667,-689.0666666666666
1473,-132.26666666666665,294.4,-750.9333333333333
1474,-172.8,234.66666666666666,-763.7333333333333
1475,-236.79999999999998,260.26666666666665,-782.9333333333333
1476,-298.6666666666667,294.4,-776.5333333333333
1477,-307.2,296.5333333333333,-750.9333333333333
1478,-317.8666666666667,339.2,-753.0666666666666
1479,-337.06666666666666,307.2,-704.0
1480,-343.46666666666664,277.3333333333333,-708.2666666666667
1481,-332.8,241.06666666666666,-693.3333333333334
1482,-294.4,241.06666666666666,-708.2666666666667
1483,-273.06666666666666,232.53333333333333,-701.8666666666667
1484,-234.66666666666666,230.4,-697.6
1485,-228.26666666666665,226.13333333333333,-682.6666666666666
1486,-221.86666666666667,236.79999999999998,-672.0
1487,-221.86666666666667,219.73333333333332,-667.7333333333333
1488,-194.13333333333333,198.4,-652.8
1489,-174.93333333333334,194.13333333333333,-644.2666666666667
1490,-162.13333333333333,194.13333333333333,-618.6666666666666
1491,-149.33333333333334,166.4,-605.8666666666667
1492,-142.93333333333334,157.86666666666667,-586.6666666666666
1493,-145.06666666666666,160.0,-580.2666666666667
1494,-147.2,157.86666666666667,-569.6
1495,-138.66666666666666,147.2,-544.0
1496,-140.8,134.4,-518.4
1497,-151.46666666666667,113.06666666666666,-514.1333333333333
1498,-155.73333333333332,104.53333333333333,-526.9333333333333
1499,-177.06666666666666,85.33333333333333,-520.5333333333333
1500,-153.6,104.53333333333333,-537.6
1501,-151.46666666666667,106.66666666666667,-539.7333333333333
1502,-172.8,91.73333333333333,-533.3333333333334
1503,-155.73333333333332,128.0,-550.4
1504,-140.8,113.06666666666666,-541.8666666666667
1505,-108.8,119.46666666666667,-550.4
1506,-104.53333333333333,98.13333333333333,-546.1333333333333
1507,-96.0,108.8,-548.2666666666667
1508,-128.0,70.4,-537.6
1509,-87.46666666666667,76.8,-550.4
1510,-57.6,96.0,-571.7333333333333
1511,-100.26666666666667,98.13333333333333,-567.4666666666667
1512,-113.06666666666666,81.06666666666666,-558.9333333333333
1513,-115.2,59.733333333333334,-558.9333333333333
1514,-110.93333333333334,61.86666666666667,-567.4666666666667
1515,-108.8,70.4,-565.3333333333334
1516,-110.93333333333334,68.26666666666667,-573.8666666666667
1517,-115.2,66.13333333333333,-576.0
1518,-123.73333333333333,59.733333333333334,-590.9333333333333
1519,-134.4,72.53333333333333,-599.4666666666667
1520,-136.53333333333333,53.333333333333336,-599.4666666666667
1521,-140.8,55.46666666666667,-599.4666666666667
1522,-130.13333333333333,74.66666666666667,-608.0
1523,-138.66666666666666,85.33333333333333,-635.7333333333333
1524,-147.2,91.73333333333333,-659.2
1525,-196.26666666666665,68.26666666666667,-663.4666666666667
1526,-238.93333333333334,51.2,-695.4666666666667
1527,-194.13333333333333,17.066666666666666,-550.4
1528,-151.46666666666667,93.86666666666666,-501.3333333333333
1529,-104.53333333333333,85.33333333333333,-411.73333333333335
1530,-49.06666666666666,70.4,-578.1333333333333
1531,-27.733333333333334,44.8,-731.7333333333333
1532,-53.333333333333336,32.0,-691.2
1533,-98.13333333333333,32.0,-635.7333333333333
1534,-117.33333333333333,40.53333333333333,-620.8
1535,-110.93333333333334,32.0,-627.2
1536,-134.4,49.06666666666666,-620.8
1537,-155.73333333333332,46.93333333333333,-620.8
1538,-166.4,53.333333333333336,-625.0666666666666
1539,-185.6,51.2,-646.4
1540,-204.8,64.0,-631.4666666666667
1541,-198.4,59.733333333333334,-631.4666666666667
1542,-196.26666666666665,70.4,-625.0666666666666
1543,-189.86666666666667,66.13333333333333,-627.2
1544,-181.33333333333334,66.13333333333333,-635.7333333333333
1545,-164.26666666666665,57.6,-625.0666666666666
1546,-174.93333333333334,59.733333333333334,-601.6
1547,-166.4,46.93333333333333,-608.0
1548,-157.86666666666667,51.2,-603.7333333333333
1549,-168.53333333333333,51.2,-593.0666666666666
1550,-162.13333333333333,53.333333333333336,-597.3333333333334
1551,-183.46666666666667,57.6,-599.4666666666667
1552,-168.53333333333333,53.333333333333336,-586.6666666666666
1553,-157.86666666666667,55.46666666666667,-582.4
1554,-147.2,70.4,-576.0
1555,-174.93333333333334,74.66666666666667,-590.9333333333333
1556,-174.93333333333334,61.86666666666667,-571.7333333333333
1557,-172.8,68.26666666666667,-567.4666666666667
1558,-166.4,70.4,-565.3333333333334
1559,-166.4,68.26666666666667,-573.8666666666667
1560,-170.66666666666666,61.86666666666667,-565.3333333333334
1561,-172.8,66.13333333333333,-573.8666666666667
1562,-170.66666666666666,66.13333333333333,-565.3333333333334
1563,-168.53333333333333,68.26666666666667,-567.4666666666667
1564,-170.66666666666666,61.86666666666667,-569.6
1565,-166.4,61.86666666666667,-567.4666666666667
1566,-172.8,66.13333333333333,-565.3333333333334
1567,-168.53333333333333,66.13333333333333,-565.3333333333334
1568,-170.66666666666666,70.4,-565.3333333333334
1569,-172.8,78.93333333333334,-567.4666666666667
1570,-174.93333333333334,76.8,-563.2
1571,-174.93333333333334,72.53333333333333,-567.4666666666667
1572,-177.06666666666666,72.53333333333333,-569.6
1573,-179.2,74.66666666666667,-567.4666666666667
1574,-181.33333333333334,76.8,-561.0666666666666
1575,-170.66666666666666,78.93333333333334,-561.0666666666666
1576,-185.6,76.8,-554.6666666666666
1577,-172.8,74.66666666666667,-576.0
1578,-177.06666666666666,76.8,-558.9333333333333
1579,-172.8,83.2,-569.6
1580,-170.66666666666666,81.06666666666666,-571.7333333333333
1581,-170.66666666666666,83.2,-565.3333333333334
1582,-179.2,89.6,-561.0666666666666
1583,-164.26666666666665,83.2,-569.6
1584,-170.66666666666666,78.93333333333334,-569.6
1585,-172.8,85.33333333333333,-556.8
1586,-174.93333333333334,85.33333333333333,-578.1333333333333
1587,-181.33333333333334,78.93333333333334,-569.6
1588,-168.53333333333333,81.06666666666666,-569.6
1589,-172.8,78.93333333333334,-569.6
1590,-168.53333333333333,78.93333333333334,-569.6
1591,-166.4,74.66666666666667,-576.0
1592,-166.4,74.66666666666667,-576.0
1593,-164.26666666666665,74.66666666666667,-573.8666666666667
1594,-162.13333333333333,81.06666666666666,-582.4
1595,-170.66666666666666,78.93333333333334,-571.7333333333333
1596,-162.13333333333333,74.66666666666667,-578.1333333333333
1597,-160.0,68.26666666666667,-593.0666666666666
1598,-166.4,74.66666666666667,-584.5333333333333
1599,-168.53333333333333,76.8,-586.6666666666666
1600,-164.26666666666665,72.53333333333333,-588.8
1601,-168.53333333333333,70.4,-595.2
1602,-162.13333333333333,68.26666666666667,-582.4
1603,-160.0,61.86666666666667,-590.9333333333333
1604,-166.4,72.53333333333333,-588.8
1605,-164.26666666666665,66.13333333333333,-597.3333333333334
1606,-157.86666666666667,66.13333333333333,-593.0666666666666
1607,-160.0,64.0,-593.0666666666666
1608,-166.4,72.53333333333333,-590.9333333333333
1609,-170.66666666666666,66.13333333333333,-586.6666666666666
1610,-162.13333333333333,64.0,-593.0666666666666
1611,-162.13333333333333,66.13333333333333,-593.0666666666666
1612,-157.86666666666667,72.53333333333333,-590.9333333333333
1613,-160.0,68.26666666666667,-588.8
1614,-160.0,66.13333333333333,-590.9333333333333
1615,-162.13333333333333,66.13333333333333,-595.2
1616,-162.13333333333333,66.13333333333333,-595.2
1617,-153.6,64.0,-586.6666666666666
1618,-151.46666666666667,68.26666666666667,-593.0666666666666
1619,-149.33333333333334,70.4,-593.0666666666666
1620,-147.2,61.86666666666667,-590.9333333333333
1621,-151.46666666666667,64.0,-593.0666666666666
1622,-149.33333333333334,61.86666666666667,-590.9333333333333
1623,-155.73333333333332,68.26666666666667,-586.6666666666666
1624,-151.46666666666667,70.4,-586.6666666666666
1625,-149.33333333333334,68.26666666666667,-584.5333333333333
1626,-151.46666666666667,66.13333333333333,-595.2
1627,-151.46666666666667,68.26666666666667,-580.2666666666667
1628,-149.33333333333334,70.4,-586.6666666666666
1629,-151.46666666666667,74.66666666666667,-588.8
1630,-153.6,66.13333333333333,-595.2
1631,-149.33333333333334,66.13333333333333,-590.9333333333333
1632,-145.06666666666666,66.13333333333333,-586.6666666666666
1633,-149.33333333333334,72.53333333333333,-584.5333333333333
1634,-153.6,72.53333333333333,-584.5333333333333
1635,-149.33333333333334,74.66666666666667,-595.2
1636,-145.06666666666666,64.0,-582.4
1637,-147.2,66.13333333333333,-584.5333333333333
1638,-147.2,68.26666666666667,-584.5333333333333
1639,-149.33333333333334,70.4,-586.6666666666666
1640,-155.73333333333332,68.26666666666667,-586.6666666666666
1641,-147.2,74.66666666666667,-590.9333333333333
1642,-149.33333333333334,66.13333333333333,-593.0666666666666
1643,-155.73333333333332,66.13333333333333,-586.6666666666666
1644,-147.2,70.4,-582.4
1645,-149.33333333333334,66.13333333333333,-590.9333333333333
1646,-151.46666666666667,68.26666666666667,-588.8
1647,-149.33333333333334,72.53333333333333,-584.5333333333333
1648,-151.46666666666667,68.26666666666667,-578.1333333333333
1649,-153.6,74.66666666666667,-588.8
1650,-151.46666666666667,68.26666666666667,-582.4
1651,-160.0,70.4,-593.0666666666666
1652,-157.86666666666667,61.86666666666667,-601.6
1653,-155.73333333333332,68.26666666666667,-599.4666666666667
1654,-153.6,66.13333333333333,-582.4
1655,-155.73333333333332,68.26666666666667,-584.5333333333333
1656,-151.46666666666667,66.13333333333333,-586.6666666666666
1657,-157.86666666666667,68.26666666666667,-588.8
1658,-157.86666666666667,72.53333333333333,-588.8
1659,-155.73333333333332,68.26666666666667,-595.2
1660,-157.86666666666667,76.8,-588.8
1661,-157.86666666666667,68.26666666666667,-590.9333333333333
1662,-151.46666666666667,70.4,-588.8
1663,-172.8,72.53333333333333,-590.9333333333333
1664,-160.0,72.53333333333333,-593.0666666666666
1665,-153.6,70.4,-586.6666666666666
1666,-155.73333333333332,68.26666666666667,-582.4
1667,-157.86666666666667,70.4,-586.6666666666666
1668,-153.6,74.66666666666667,-590.9333333333333
1669,-151.46666666666667,68.26666666666667,-578.1333333333333
1670,-157.86666666666667,70.4,-588.8
1671,-149.33333333333334,70.4,-580.2666666666667
1672,-153.6,70.4,-588.8
1673,-153.6,70.4,-582.4
1674,-164.26666666666665,78.93333333333334,-584.5333333333333
1675,-160.0,74.66666666666667,-578.1333333333333
1676,-153.6,70.4,-578.1333333333333
1677,-151.46666666666667,72.53333333333333,-586.6666666666666
1678,-155.73333333333332,70.4,-578.1333333333333
1679,-153.6,70.4,-590.9333333333333
1680,-155.73333333333332,68.26666666666667,-588.8
1681,-157.86666666666667,68.26666666666667,-584.5333333333333
1682,-155.73333333333332,68.26666666666667,-588.8
1683,-157.86666666666667,68.26666666666667,-586.6666666666666
1684,-157.86666666666667,74.66666666666667,-582.4
1685,-168.53333333333333,57.6,-588.8
1686,-160.0,70.4,-584.5333333333333
1687,-155.73333333333332,68.26666666666667,-582.4
1688,-160.0,64.0,-588.8
1689,-153.6,66.13333333333333,-584.5333333333333
1690,-153.6,70.4,-582.4
1691,-162.13333333333333,72.53333333333333,-586.6666666666666
1692,-153.6,66.13333333333333,-593.0666666666666
1693,-153.6,70.4,-584.5333333333333
1694,-160.0,74.66666666666667,-595.2
1695,-155.73333333333332,64.0,-584.5333333333333
1696,-160.0,78.93333333333334,-590.9333333333333
1697,-155.73333333333332,64.0,-584.5333333333333
1698,-160.0,70.4,-584.5333333333333
1699,-155.73333333333332,68.26666666666667,-590.9333333333333
1700,-151.46666666666667,64.0,-584.5333333333333
1701,-160.0,70.4,-588.8
1702,-155.73333333333332,68.26666666666667,-588.8
1703,-155.73333333333332,66.13333333333333,-584.5333333333333
1704,-166.4,68.26666666666667,-601.6
1705,-155.73333333333332,70.4,-593.0666666666666
1706,-157.86666666666667,66.13333333333333,-582.4
1707,-162.13333333333333,68.26666666666667,-595.2
1708,-153.6,68.26666666666667,-588.8
1709,-153.6,72.53333333333333,-590.9333333333333
1710,-157.86666666666667,76.8,-588.8
1711,-155.73333333333332,72.53333333333333,-582.4
1712,-153.6,66.13333333333333,-588.8
1713,-149.33333333333334,72.53333333333333,-588.8
1714,-157.86666666666667,76.8,-582.4
1715,-149.33333333333334,66.13333333333333,-582.4
1716,-157.86666666666667,61.86666666666667,-584.5333333333333
1717,-145.06666666666666,66.13333333333333,-584.5333333333333
1718,-155.73333333333332,55.46666666666667,-571.7333333333333
1719,-157.86666666666667,72.53333333333333,-593.0666666666666
1720,-155.73333333333332,72.53333333333333,-578.1333333333333
1721,-153.6,68.26666666666667,-584.5333333333333
1722,-149.33333333333334,72.53333333333333,-578.1333333333333
1723,-149.33333333333334,68.26666666666667,-586.6666666666666
1724,-157.86666666666667,68.26666666666667,-580.2666666666667
1725,-151.46666666666667,70.4,-580.2666666666667
1726,-157.86666666666667,66.13333333333333,-588.8
1727,-155.73333333333332,66.13333333333333,-593.0666666666666
1728,-151.46666666666667,66.13333333333333,-590.9333333333333
1729,-155.73333333333332,70.4,-588.8
1730,-155.73333333333332,64.0,-588.8
1731,-155.73333333333332,70.4,-586.6666666666666
1732,-160.0,70.4,-586.6666666666666
1733,-157.86666666666667,68.26666666666667,-584.5333333333333
1734,-155.73333333333332,70.4,-586.6666666666666
1735,-157.86666666666667,61.86666666666667,-582.4
1736,-160.0,72.53333333333333,-590.9333333333333
1737,-160.0,66.13333333333333,-588.8
1738,-155.73333333333332,66.13333333333333,-584.5333333333333
1739,-155.73333333333332,64.0,-593.0666666666666
1740,-157.86666666666667,74.66666666666667,-588.8
1741,-153.6,70.4,-590.9333333333333
1742,-157.86666666666667,74.66666666666667,-582.4
1743,-151.46666666666667,70.4,-597.3333333333334
1744,-153.6,70.4,-588.8
1745,-157.86666666666667,68.26666666666667,-586.6666666666666
1746,-155.73333333333332,68.26666666666667,-580.2666666666667
1747,-153.6,66.13333333333333,-586.6666666666666
1748,-155.73333333333332,68.26666666666667,-588.8
1749,-164.26666666666665,66.13333333333333,-590.9333333333333
1750,-166.4,70.4,-586.6666666666666
1751,-164.26666666666665,76.8,-584.5333333333333
1752,-160.0,76.8,-593.0666666666666
1753,-160.0,72.53333333333333,-582.4
1754,-160.0,68.26666666666667,-584.5333333333333
1755,-155.73333333333332,68.26666666666667,-582.4
1756,-155.73333333333332,70.4,-586.6666666666666
1757,-160.0,74.66666666666667,-584.5333333333333
1758,-155.73333333333332,74.66666666666667,-582.4
1759,-153.6,66.13333333333333,-580.2666666666667
1760,-157.86666666666667,70.4,-590.9333333333333
1761,-155.73333333333332,66.13333333333333,-576.0
1762,-155.73333333333332,70.4,-584.5333333333333
1763,-147.2,64.0,-580.2666666666667
1764,-157.86666666666667,81.06666666666666,-580.2666666666667
1765,-160.0,70.4,-593.0666666666666
1766,-155.73333333333332,72.53333333333333,-582.4
1767,-160.0,70.4,-584.5333333333333
1768,-160.0,76.8,-584.5333333333333
1769,-155.73333333333332,68.26666666666667,-584.5333333333333
1770,-151.46666666666667,70.4,-586.6666666666666
1771,-153.6,70.4,-588.8
1772,-155.73333333333332,72.53333333333333,-580.2666666666667
1773,-155.73333333333332,68.26666666666667,-584.5333333333333
1774,-155.73333333333332,70.4,-586.6666666666666
1775,-155.73333333333332,64.0,-584.5333333333333
1776,-153.6,70.4,-586.6666666666666
1777,-162.13333333333333,70.4,-586.6666666666666
1778,-153.6,66.13333333333333,-590.9333333333333
1779,-155.73333333333332,70.4,-588.8
1780,-153.6,76.8,-584.5333333333333
1781,-155.73333333333332,70.4,-586.6666666666666
1782,-157.86666666666667,70.4,-586.6666666666666
1783,-162.13333333333333,64.0,-595.2
1784,-151.46666666666667,68.26666666666667,-584.5333333333333
1785,-155.73333333333332,66.13333333333333,-584.5333333333333
1786,-155.73333333333332,66.13333333333333,-582.4
1787,-155.73333333333332,68.26666666666667,-590.9333333333333
1788,-164.26666666666665,74.66666666666667,-586.6666666666666
1789,-149.33333333333334,68.26666666666667,-580.2666666666667
1790,-153.6,70.4,-588.8
1791,-155.73333333333332,70.4,-580.2666666666667
1792,-155.73333333333332,68.26666666666667,-597.3333333333334
1793,-157.86666666666667,72.53333333333333,-593.0666666666666
1794,-164.26666666666665,76.8,-590.9333333333333
1795,-151.46666666666667,68.26666666666667,-597.3333333333334
1796,-155.73333333333332,70.4,-586.6666666666666
1797,-153.6,72.53333333333333,-584.5333333333333
1798,-157.86666666666667,66.13333333333333,-586.6666666666666
1799,-157.86666666666667,72.53333333333333,-576.0
1800,-157.86666666666667,70.4,-588.8
1801,-155.73333333333332,70.4,-582.4
1802,-153.6,70.4,-588.8
1803,-153.6,74.66666666666667,-590.9333333333333
1804,-153.6,74.66666666666667,-584.5333333333333
1805,-142.93333333333334,72.53333333333333,-582.4
1806,-147.2,68.26666666666667,-586.6666666666666
1807,-153.6,68.26666666666667,-586.6666666666666
1808,-155.73333333333332,66.13333333333333,-590.9333333333333
1809,-153.6,72.53333333333333,-593.0666666666666
1810,-147.2,64.0,-584.5333333333333
1811,-153.6,68.26666666666667,-588.8
1812,-149.33333333333334,61.86666666666667,-588.8
1813,-151.46666666666667,68.26666666666667,-586.6666666666666
1814,-151.46666666666667,72.53333333333333,-590.9333333333333
1815,-153.6,70.4,-590.9333333333333
1816,-172.8,74.66666666666667,-584.5333333333333
1817,-157.86666666666667,72.53333333333333,-588.8
1818,-151.46666666666667,64.0,-588.8
1819,-155.73333333333332,64.0,-582.4
1820,-157.86666666666667,72.53333333333333,-586.6666666666666
1821,-157.86666666666667,74.66666666666667,-584.5333333333333
1822,-160.0,72.53333333333333,-590.9333333333333
1823,-153.6,68.26666666666667,-593.0666666666666
1824,-155.73333333333332,72.53333333333333,-590.9333333333333
1825,-155.73333333333332,68.26666666666667,-584.5333333333333
1826,-157.86666666666667,66.13333333333333,-590.9333333333333
1827,-155.73333333333332,68.26666666666667,-573.8666666666667
1828,-153.6,61.86666666666667,-584.5333333333333
1829,-155.73333333333332,72.53333333333333,-586.6666666666666
1830,-157.86666666666667,72.53333333333333,-590.9333333333333
1831,-157.86666666666667,72.53333333333333,-590.9333333333333
1832,-155.73333333333332,68.26666666666667,-580.2666666666667
1833,-151.46666666666667,64.0,-582.4
1834,-153.6,68.26666666666667,-586.6666666666666
1835,-153.6,72.53333333333333,-586.6666666666666
1836,-157.86666666666667,68.26666666666667,-582.4
1837,-157.86666666666667,72.53333333333333,-586.6666666666666
1838,-157.86666666666667,68.26666666666667,-584.5333333333333
1839,-151.46666666666667,64.0,-582.4
1840,-155.73333333333332,66.13333333333333,-590.9333333333333
1841,-155.73333333333332,72.53333333333333,-590.9333333333333
1842,-151.46666666666667,66.13333333333333,-582.4
1843,-157.86666666666667,70.4,-586.6666666666666
1844,-153.6,72.53333333333333,-588.8
1845,-155.73333333333332,72.53333333333333,-586.6666666666666
1846,-166.4,74.66666666666667,-582.4
1847,-151.46666666666667,64.0,-582.4
1848,-162.13333333333333,70.4,-595.2
1849,-157.86666666666667,72.53333333333333,-588.8
1850,-155.73333333333332,72.53333333333333,-586.6666666666666
1851,-151.46666666666667,68.26666666666667,-588.8
1852,-155.73333333333332,72.53333333333333,-590.9333333333333
1853,-157.86666666666667,64.0,-593.0666666666666
1854,-151.46666666666667,70.4,-590.9333333333333
1855,-160.0,72.53333333333333,-593.0666666666666
1856,-151.46666666666667,68.26666666666667,-582.4
1857,-157.86666666666667,66.13333333333333,-590.9333333333333
1858,-155.73333333333332,68.26666666666667,-586.6666666666666
1859,-157.86666666666667,72.53333333333333,-601.6
1860,-155.73333333333332,70.4,-588.8
1861,-153.6,66.13333333333333,-584.5333333333333
1862,-155.73333333333332,70.4,-588.8
1863,-155.73333333333332,74.66666666666667,-580.2666666666667
1864,-155.73333333333332,74.66666666666667,-586.6666666666666
1865,-155.73333333333332,68.26666666666667,-588.8
1866,-149.33333333333334,70.4,-593.0666666666666
1867,-164.26666666666665,68.26666666666667,-586.6666666666666
1868,-157.86666666666667,66.13333333333333,-582.4
1869,-157.86666666666667,66.13333333333333,-588.8
1870,-149.33333333333334,64.0,-569.6
1871,-157.86666666666667,66.13333333333333,-582.4
1872,-147.2,68.26666666666667,-588.8
1873,-155.73333333333332,74.66666666666667,-590.9333333333333
1874,-155.73333333333332,70.4,-586.6666666666666
1875,-157.86666666666667,66.13333333333333,-584.5333333333333
1876,-151.46666666666667,72.53333333333333,-580.2666666666667
1877,-155.73333333333332,68.26666666666667,-584.5333333333333
1878,-162.13333333333333,81.06666666666666,-582.4
1879,-149.33333333333334,61.86666666666667,-582.4
1880,-155.73333333333332,68.26666666666667,-586.6666666666666
1881,-157.86666666666667,89.6,-582.4
1882,-153.6,70.4,-584.5333333333333
1883,-157.86666666666667,61.86666666666667,-582.4
1884,-151.46666666666667,70.4,-588.8
1885,-157.86666666666667,66.13333333333333,-580.2666666666667
1886,-160.0,66.13333333333333,-590.9333333333333
1887,-153.6,72.53333333333333,-595.2
1888,-155.73333333333332,70.4,-582.4
1889,-153.6,68.26666666666667,-584.5333333333333
1890,-157.86666666666667,68.26666666666667,-588.8
1891,-153.6,66.13333333333333,-586.6666666666666
1892,-151.46666666666667,78.93333333333334,-582.4
1893,-157.86666666666667,66.13333333333333,-588.8
1894,-157.86666666666667,70.4,-588.8
1895,-153.6,68.26666666666667,-590.9333333333333
1896,-153.6,70.4,-582.4
1897,-147.2,68.26666666666667,-590.9333333333333
1898,-155.73333333333332,68.26666666666667,-588.8
1899,-155.73333333333332,64.0,-590.9333333333333
1900,-155.73333333333332,68.26666666666667,-584.5333333333333
1901,-153.6,66.13333333333333,-586.6666666666666
1902,-160.0,70.4,-590.9333333333333
1903,-153.6,66.13333333333333,-582.4
1904,-155.73333333333332,68.26666666666667,-582.4
1905,-157.86666666666667,66.13333333333333,-584.5333333333333
1906,-149.33333333333334,70.4,-588.8
1907,-149.33333333333334,64.0,-582.4
1908,-157.86666666666667,68.26666666666667,-582.4
1909,-153.6,66.13333333333333,-590.9333333333333
1910,-151.46666666666667,68.26666666666667,-586.6666666666666
1911,-160.0,74.66666666666667,-586.6666666666666
1912,-155.73333333333332,66.13333333333333,-586.6666666666666
1913,-155.73333333333332,68.26666666666667,-586.6666666666666
1914,-162.13333333333333,76.8,-578.1333333333333
1915,-155.73333333333332,68.26666666666667,-588.8
1916,-160.0,68.26666666666667,-586.6666666666666
1917,-153.6,68.26666666666667,-580.2666666666667
1918,-157.86666666666667,70.4,-576.0
1919,-162.13333333333333,70.4,-593.0666666666666
1920,-157.86666666666667,72.53333333333333,-582.4
1921,-155.73333333333332,68.26666666666667,-593.0666666666666
1922,-157.86666666666667,72.53333333333333,-586.6666666666666
1923,-142.93333333333334,70.4,-580.2666666666667
1924,-157.86666666666667,72.53333333333333,-595.2
1925,-162.13333333333333,76.8,-593.0666666666666
1926,-155.73333333333332,70.4,-582.4
1927,-157.86666666666667,70.4,-582.4
1928,-160.0,70.4,-590.9333333333333
1929,-157.86666666666667,70.4,-584.5333333333333
1930,-160.0,66.13333333333333,-590.9333333333333
1931,-155.73333333333332,72.53333333333333,-580.2666666666667
1932,-151.46666666666667,68.26666666666667,-578.1333333333333
1933,-155.73333333333332,72.53333333333333,-588.8
1934,-155.73333333333332,72.53333333333333,-584.5333333333333
1935,-147.2,59.733333333333334,-578.1333333333333
1936,-149.33333333333334,68.26666666666667,-590.9333333333333
1937,-153.6,66.13333333333333,-590.9333333333333
1938,-155.73333333333332,72.53333333333333,-590.9333333333333
1939,-151.46666666666667,66.13333333333333,-590.9333333333333
1940,-160.0,70.4,-586.6666666666666
1941,-155.73333333333332,66.13333333333333,-588.8
1942,-155.73333333333332,68.26666666666667,-590.9333333333333
1943,-155.73333333333332,70.4,-588.8
1944,-147.2,68.26666666666667,-593.0666666666666
1945,-157.86666666666667,76.8,-590.9333333333333
1946,-155.73333333333332,51.2,-582.4
1947,-153.6,68.26666666666667,-595.2
1948,-149.33333333333334,68.26666666666667,-588.8
1949,-155.73333333333332,70.4,-588.8
1950,-157.86666666666667,70.4,-580.2666666666667
1951,-160.0,76.8,-582.4
1952,-157.86666666666667,72.53333333333333,-586.6666666666666
1953,-157.86666666666667,68.26666666666667,-584.5333333333333
1954,-155.73333333333332,59.733333333333334,-584.5333333333333
1955,-153.6,64.0,-584.5333333333333
1956,-155.73333333333332,72.53333333333333,-586.6666666666666
1957,-153.6,66.13333333333333,-599.4666666666667
1958,-160.0,72.53333333333333,-578.1333333333333
1959,-153.6,68.26666666666667,-584.5333333333333
1960,-151.46666666666667,70.4,-588.8
1961,-153.6,66.13333333333333,-590.9333333333333
1962,-155.73333333333332,68.26666666666667,-580.2666666666667
1963,-155.73333333333332,74.66666666666667,-590.9333333333333
1964,-157.86666666666667,64.0,-590.9333333333333
1965,-157.86666666666667,70.4,-586.6666666666666
1966,-153.6,59.733333333333334,-586.6666666666666
1967,-153.6,64.0,-603.7333333333333
1968,-149.33333333333334,61.86666666666667,-571.7333333333333
1969,-153.6,68.26666666666667,-580.2666666666667
1970,-151.46666666666667,74.66666666666667,-588.8
1971,-155.73333333333332,70.4,-588.8
1972,-153.6,70.4,-588.8
1973,-157.86666666666667,70.4,-582.4
1974,-157.86666666666667,74.66666666666667,-584.5333333333333
1975,-157.86666666666667,66.13333333333333,-586.6666666666666
1976,-153.6,76.8,-580.2666666666667
1977,-151.46666666666667,70.4,-597.3333333333334
1978,-153.6,68.26666666666667,-578.1333333333333
1979,-157.86666666666667,72.53333333333333,-590.9333333333333
1980,-157.86666666666667,72.53333333333333,-586.6666666666666
1981,-155.73333333333332,74.66666666666667,-595.2
1982,-149.33333333333334,70.4,-584.5333333333333
1983,-157.86666666666667,64.0,-586.6666666666666
1984,-155.73333333333332,66.13333333333333,-580.2666666666667
1985,-157.86666666666667,76.8,-586.6666666666666
1986,-155.73333333333332,66.13333333333333,-595.2
1987,-157.86666666666667,66.13333333333333,-593.0666666666666
1988,-157.86666666666667,68.26666666666667,-590.9333333333333
1989,-151.46666666666667,68.26666666666667,-586.6666666666666
1990,-160.0,66.13333333333333,-584.5333333333333
1991,-160.0,72.53333333333333,-584.5333333333333
1992,-155.73333333333332,76.8,-584.5333333333333
1993,-155.73333333333332,72.53333333333333,-588.8
1994,-153.6,68.26666666666667,-586.6666666666666
1995,-149.33333333333334,68.26666666666667,-586.6666666666666
1996,-153.6,64.0,-582.4
1997,-153.6,64.0,-580.2666666666667
1998,-157.86666666666667,70.4,-582.4
1999,-155.73333333333332,76.8,-590.9333333333333
2000,-155.73333333333332,70.4,-582.4
2001,-149.33333333333334,66.13333333333333,-593.0666666666666
2002,-153.6,68.26666666666667,-593.0666666666666
2003,-151.46666666666667,68.26666666666667,-590.9333333333333
2004,-151.46666666666667,70.4,-588.8
2005,-155.73333333333332,68.26666666666667,-580.2666666666667
2006,-153.6,66.13333333333333,-586.6666666666666
2007,-155.73333333333332,74.66666666666667,-584.5333333333333
2008,-153.6,66.13333333333333,-582.4
2009,-151.46666666666667,68.26666666666667,-588.8
2010,-157.86666666666667,66.13333333333333,-588.8
2011,-153.6,70.4,-584.5333333333333
2012,-162.13333333333333,66.13333333333333,-584.5333333333333
2013,-145.06666666666666,68.26666666666667,-586.6666666666666
2014,-157.86666666666667,70.4,-588.8
2015,-155.73333333333332,72.53333333333333,-590.9333333333333
2016,-155.73333333333332,61.86666666666667,-588.8
2017,-153.6,70.4,-584.5333333333333
2018,-157.86666666666667,68.26666666666667,-593.0666666666666
2019,-160.0,72.53333333333333,-590.9333333333333
2020,-157.86666666666667,68.26666666666667,-588.8
2021,-155.73333333333332,74.66666666666667,-586.6666666666666
2022,-157.86666666666667,72.53333333333333,-588.8
2023,-162.13333333333333,72.53333333333333,-593.0666666666666
2024,-153.6,72.53333333333333,-590.9333333333333
2025,-157.86666666666667,66.13333333333333,-588.8
2026,-157.86666666666667,74.66666666666667,-582.4
2027,-153.6,66.13333333333333,-580.2666666666667
2028,-151.46666666666667,68.26666666666667,-595.2
2029,-160.0,68.26666666666667,-590.9333333333333
2030,-151.46666666666667,66.13333333333333,-586.6666666666666
2031,-155.73333333333332,74.66666666666667,-582.4
2032,-147.2,68.26666666666667,-588.8
2033,-157.86666666666667,61.86666666666667,-588.8
2034,-155.73333333333332,74.66666666666667,-595.2
2035,-157.86666666666667,70.4,-590.9333333333333
2036,-151.46666666666667,70.4,-595.2
2037,-153.6,68.26666666666667,-584.5333333333333
2038,-155.73333333333332,68.26666666666667,-582.4
2039,-153.6,66.13333333333333,-588.8
2040,-157.86666666666667,72.53333333333333,-586.6666666666666
2041,-157.86666666666667,68.26666666666667,-590.9333333333333
2042,-162.13333333333333,70.4,-586.6666666666666
2043,-157.86666666666667,64.0,-588.8
2044,-162.13333333333333,66.13333333333333,-582.4
2045,-151.46666666666667,64.0,-582.4
2046,-157.86666666666667,74.66666666666667,-582.4
2047,-153.6,68.26666666666667,-582.4
2048,-157.86666666666667,70.4,-580.2666666666667
2049,-157.86666666666667,74.66666666666667,-582.4
2050,-157.86666666666667,74.66666666666667,-586.6666666666666
2051,-151.46666666666667,68.26666666666667,-595.2
2052,-151.46666666666667,70.4,-578.1333333333333
2053,-147.2,64.0,-586.6666666666666
2054,-166.4,72.53333333333333,-593.0666666666666
2055,-151.46666666666667,68.26666666666667,-586.6666666666666
2056,-153.6,70.4,-586.6666666666666
2057,-149.33333333333334,66.13333333333333,-586.6666666666666
2058,-149.33333333333334,68.26666666666667,-597.3333333333334
2059,-149.33333333333334,66.13333333333333,-590.9333333333333
2060,-155.73333333333332,78.93333333333334,-593.0666666666666
2061,-155.73333333333332,70.4,-582.4
2062,-153.6,72.53333333333333,-586.6666666666666
2063,-155.73333333333332,66.13333333333333,-580.2666666666667
2064,-155.73333333333332,70.4,-578.1333333333333
2065,-155.73333333333332,68.26666666666667,-576.0
2066,-151.46666666666667,74.66666666666667,-584.5333333333333
2067,-155.73333333333332,68.26666666666667,-588.8
2068,-151.46666666666667,66.13333333333333,-586.6666666666666
2069,-153.6,64.0,-584.5333333333333
2070,-155.73333333333332,61.86666666666667,-593.0666666666666
2071,-153.6,70.4,-588.8
2072,-157.86666666666667,72.53333333333333,-584.5333333333333
2073,-151.46666666666667,70.4,-584.5333333333333
2074,-151.46666666666667,64.0,-588.8
2075,-149.33333333333334,66.13333333333333,-580.2666666666667
2076,-155.73333333333332,74.66666666666667,-597.3333333333334
2077,-153.6,72.53333333333333,-584.5333333333333
2078,-149.33333333333334,68.26666666666667,-584.5333333333333
2079,-153.6,68.26666666666667,-593.0666666666666
2080,-153.6,70.4,-590.9333333333333
2081,-149.33333333333334,68.26666666666667,-578.1333333333333
2082,-160.0,70.4,-588.8
2083,-160.0,78.93333333333334,-582.4
2084,-153.6,72.53333333333333,-586.6666666666666
2085,-160.0,64.0,-588.8
2086,-157.86666666666667,72.53333333333333,-584.5333333333333
2087,-155.73333333333332,74.66666666666667,-584.5333333333333
2088,-155.73333333333332,64.0,-586.6666666666666
2089,-151.46666666666667,74.66666666666667,-578.1333333333333
2090,-151.46666666666667,66.13333333333333,-586.6666666666666
2091,-155.73333333333332,70.4,-586.6666666666666
2092,-157.86666666666667,70.4,-586.6666666666666
2093,-153.6,68.26666666666667,-588.8
2094,-157.86666666666667,66.13333333333333,-582.4
2095,-151.46666666666667,68.26666666666667,-586.6666666666666
2096,-157.86666666666667,66.13333333333333,-595.2
2097,-145.06666666666666,68.26666666666667,-590.9333333333333
2098,-149.33333333333334,76.8,-580.2666666666667
2099,-160.0,70.4,-590.9333333333333
2100,-153.6,74.66666666666667,-593.0666666666666
2101,-155.73333333333332,72.53333333333333,-586.6666666666666
2102,-147.2,66.13333333333333,-597.3333333333334
2103,-155.73333333333332,72.53333333333333,-586.6666666666666
2104,-155.73333333333332,68.26666666666667,-584.5333333333333
2105,-151.46666666666667,70.4,-595.2
2106,-155.73333333333332,72.53333333333333,-584.5333333333333
2107,-153.6,70.4,-582.4
2108,-155.73333333333332,70.4,-586.6666666666666
2109,-149.33333333333334,66.13333333333333,-584.5333333333333
2110,-151.46666666666667,74.66666666666667,-584.5333333333333
2111,-151.46666666666667,70.4,-588.8
2112,-151.46666666666667,74.66666666666667,-588.8
2113,-155.73333333333332,68.26666666666667,-590.9333333333333
2114,-151.46666666666667,66.13333333333333,-590.9333333333333
2115,-155.73333333333332,68.26666666666667,-584.5333333333333
2116,-153.6,70.4,-586.6666666666666
2117,-153.6,70.4,-584.5333333333333
2118,-151.46666666666667,70.4,-584.5333333333333
2119,-151.46666666666667,66.13333333333333,-582.4
2120,-153.6,68.26666666666667,-588.8
2121,-149.33333333333334,68.26666666666667,-593.0666666666666
2122,-157.86666666666667,70.4,-582.4
2123,-155.73333333333332,68.26666666666667,-586.6666666666666
2124,-155.73333333333332,72.53333333333333,-578.1333333333333
2125,-153.6,72.53333333333333,-588.8
2126,-153.6,68.26666666666667,-590.9333333333333
2127,-151.46666666666667,70.4,-586.6666666666666
2128,-149.33333333333334,68.26666666666667,-586.6666666666666
2129,-157.86666666666667,72.53333333333333,-593.0666666666666
2130,-157.86666666666667,70.4,-588.8
2131,-155.73333333333332,64.0,-588.8
2132,-153.6,55.46666666666667,-595.2
2133,-153.6,66.13333333333333,-578.1333333333333
2134,-153.6,68.26666666666667,-593.0666666666666
2135,-149.33333333333334,70.4,-586.6666666666666
2136,-149.33333333333334,72.53333333333333,-586.6666666666666
2137,-153.6,70.4,-590.9333333333333
2138,-153.6,68.26666666666667,-586.6666666666666
2139,-153.6,70.4,-573.8666666666667
2140,-151.46666666666667,66.13333333333333,-588.8
2141,-147.2,70.4,-588.8
2142,-160.0,68.26666666666667,-578.1333333333333
2143,-155.73333333333332,70.4,-588.8
2144,-153.6,66.13333333333333,-586.6666666666666
2145,-151.46666666666667,72.53333333333333,-586.6666666666666
2146,-155.73333333333332,72.53333333333333,-588.8
2147,-149.33333333333334,66.13333333333333,-588.8
2148,-157.86666666666667,72.53333333333333,-584.5333333333333
2149,-160.0,68.26666666666667,-590.9333333333333
2150,-149.33333333333334,68.26666666666667,-595.2
2151,-151.46666666666667,70.4,-597.3333333333334
2152,-155.73333333333332,72.53333333333333,-593.0666666666666
2153,-151.46666666666667,59.733333333333334,-580.2666666666667
2154,-157.86666666666667,70.4,-586.6666666666666
2155,-149.33333333333334,66.13333333333333,-586.6666666666666
2156,-149.33333333333334,70.4,-578.1333333333333
2157,-149.33333333333334,68.26666666666667,-588.8
2158,-153.6,70.4,-580.2666666666667
2159,-149.33333333333334,70.4,-590.9333333333333
2160,-153.6,72.53333333333333,-582.4
2161,-145.06666666666666,66.13333333333333,-580.2666666666667
2162,-157.86666666666667,68.26666666666667,-595.2
2163,-151.46666666666667,70.4,-578.1333333333333
2164,-160.0,83.2,-599.4666666666667
2165,-149.33333333333334,68.26666666666667,-582.4
2166,-147.2,68.26666666666667,-593.0666666666666
2167,-147.2,72.53333333333333,-588.8
2168,-149.33333333333334,74.66666666666667,-595.2
2169,-157.86666666666667,72.53333333333333,-590.9333333333333
2170,-155.73333333333332,74.66666666666667,-590.9333333333333
2171,-151.46666666666667,70.4,-582.4
2172,-151.46666666666667,64.0,-590.9333333333333
2173,-153.6,68.26666666666667,-584.5333333333333
2174,-168.53333333333333,68.26666666666667,-588.8
2175,-155.73333333333332,61.86666666666667,-586.6666666666666
2176,-151.46666666666667,72.53333333333333,-584.5333333333333
2177,-151.46666666666667,70.4,-590.9333333333333
2178,-153.6,68.26666666666667,-582.4
2179,-153.6,72.53333333333333,-586.6666666666666
2180,-149.33333333333334,72.53333333333333,-588.8
2181,-149.33333333333334,70.4,-593.0666666666666
2182,-155.73333333333332,72.53333333333333,-584.5333333333333
2183,-151.46666666666667,68.26666666666667,-578.1333333333333
2184,-153.6,68.26666666666667,-584.5333333333333
2185,-151.46666666666667,70.4,-588.8
2186,-145.06666666666666,61.86666666666667,-582.4
2187,-153.6,74.66666666666667,-584.5333333333333
2188,-151.46666666666667,72.53333333333333,-582.4
2189,-155.73333333333332,64.0,-578.1333333333333
2190,-153.6,70.4,-584.5333333333333
2191,-149.33333333333334,68.26666666666667,-588.8
2192,-151.46666666666667,74.66666666666667,-582.4
2193,-151.46666666666667,68.26666666666667,-593.0666666666666
2194,-149.33333333333334,70.4,-578.1333333333333
2195,-149.33333333333334,66.13333333333333,-595.2
2196,-153.6,70.4,-582.4
2197,-149.33333333333334,59.733333333333334,-588.8
2198,-153.6,70.4,-590.9333333333333
2199,-155.73333333333332,64.0,-595.2
2200,-160.0,70.4,-582.4
2201,-155.73333333333332,70.4,-590.9333333333333
2202,-149.33333333333334,68.26666666666667,-586.6666666666666
2203,-147.2,68.26666666666667,-584.5333333333333
2204,-151.46666666666667,72.53333333333333,-582.4
2205,-147.2,66.13333333333333,-584.5333333333333
2206,-147.2,72.53333333333333,-582.4
2207,-151.46666666666667,68.26666666666667,-582.4
2208,-145.06666666666666,74.66666666666667,-569.6
2209,-151.46666666666667,74.66666666666667,-578.1333333333333
2210,-149.33333333333334,68.26666666666667,-595.2
2211,-147.2,66.13333333333333,-595.2
2212,-149.33333333333334,64.0,-597.3333333333334
2213,-151.46666666666667,68.26666666666667,-586.6666666666666
2214,-149.33333333333334,64.0,-590.9333333333333
2215,-153.6,70.4,-595.2
2216,-140.8,70.4,-588.8
2217,-157.86666666666667,70.4,-590.9333333333333
2218,-157.86666666666667,66.13333333333333,-593.0666666666666
2219,-155.73333333333332,78.93333333333334,-582.4
2220,-149.33333333333334,74.66666666666667,-584.5333333333333
2221,-147.2,66.13333333333333,-590.9333333333333
2222,-149.33333333333334,61.86666666666667,-593.0666666666666
2223,-149.33333333333334,66.13333333333333,-593.0666666666666
2224,-157.86666666666667,74.66666666666667,-595.2
2225,-149.33333333333334,64.0,-580.2666666666667
2226,-147.2,72.53333333333333,-582.4
2227,-155.73333333333332,72.53333333333333,-586.6666666666666
2228,-153.6,68.26666666666667,-588.8
2229,-153.6,72.53333333333333,-595.2
2230,-164.26666666666665,64.0,-590.9333333333333
2231,-151.46666666666667,74.66666666666667,-582.4
2232,-153.6,72.53333333333333,-593.0666666666666
2233,-155.73333333333332,74.66666666666667,-590.9333333333333
2234,-149.33333333333334,66.13333333333333,-582.4
2235,-157.86666666666667,70.4,-586.6666666666666
2236,-147.2,66.13333333333333,-590.9333333333333
2237,-155.73333333333332,64.0,-588.8
2238,-151.46666666666667,66.13333333333333,-582.4
2239,-149.33333333333334,72.53333333333333,-586.6666666666666
2240,-149.33333333333334,68.26666666666667,-595.2
2241,-145.06666666666666,74.66666666666667,-582.4
2242,-153.6,74.66666666666667,-588.8
2243,-147.2,76.8,-584.5333333333333
2244,-149.33333333333334,70.4,-590.9333333333333
2245,-153.6,68.26666666666667,-595.2
2246,-157.86666666666667,76.8,-586.6666666666666
2247,-164.26666666666665,76.8,-584.5333333333333
2248,-155.73333333333332,68.26666666666667,-593.0666666666666
2249,-155.73333333333332,68.26666666666667,-588.8
2250,-145.06666666666666,68.26666666666667,-582.4
2251,-157.86666666666667,74.66666666666667,-595.2
2252,-157.86666666666667,76.8,-580.2666666666667
2253,-153.6,70.4,-584.5333333333333
2254,-153.6,68.26666666666667,-584.5333333333333
2255,-155.73333333333332,72.53333333333333,-590.9333333333333
2256,-147.2,66.13333333333333,-593.0666666666666
2257,-147.2,68.26666666666667,-595.2
2258,-153.6,74.66666666666667,-588.8
2259,-153.6,76.8,-593.0666666666666
2260,-151.46666666666667,70.4,-588.8
2261,-155.73333333333332,76.8,-588.8
2262,-155.73333333333332,64.0,-593.0666666666666
2263,-151.46666666666667,68.26666666666667,-588.8
2264,-153.6,66.13333333333333,-588.8
2265,-149.33333333333334,66.13333333333333,-588.8
2266,-151.46666666666667,70.4,-586.6666666666666
2267,-155.73333333333332,64.0,-588.8
2268,-145.06666666666666,70.4,-584.5333333333333
2269,-151.46666666666667,64.0,-593.0666666666666
2270,-151.46666666666667,70.4,-593.0666666666666
2271,-157.86666666666667,70.4,-593.0666666666666
2272,-147.2,66.13333333333333,-586.6666666666666
2273,-151.46666666666667,78.93333333333334,-576.0
2274,-153.6,72.53333333333333,-582.4
2275,-147.2,68.26666666666667,-582.4
2276,-149.33333333333334,70.4,-584.5333333333333
2277,-157.86666666666667,72.53333333333333,-586.6666666666666
2278,-147.2,66.13333333333333,-582.4
2279,-151.46666666666667,70.4,-588.8
2280,-153.6,66.13333333333333,-599.4666666666667
2281,-151.46666666666667,64.0,-593.0666666666666
2282,-151.46666666666667,68.26666666666667,-586.6666666666666
2283,-153.6,74.66666666666667,-597.3333333333334
2284,-164.26666666666665,72.53333333333333,-580.2666666666667
2285,-151.46666666666667,72.53333333333333,-582.4
2286,-147.2,72.53333333333333,-580.2666666666667
2287,-151.46666666666667,68.26666666666667,-584.5333333333333
2288,-149.33333333333334,70.4,-586.6666666666666
2289,-147.2,68.26666666666667,-590.9333333333333
2290,-151.46666666666667,70.4,-588.8
2291,-149.33333333333334,66.13333333333333,-580.2666666666667
2292,-153.6,66.13333333333333,-588.8
2293,-155.73333333333332,72.53333333333333,-580.2666666666667
2294,-147.2,70.4,-593.0666666666666
2295,-149.33333333333334,83.2,-599.4666666666667
2296,-155.73333333333332,74.66666666666667,-586.6666666666666
2297,-151.46666666666667,72.53333333333333,-593.0666666666666
2298,-151.46666666666667,72.53333333333333,-582.4
2299,-155.73333333333332,70.4,-595.2
2300,-155.73333333333332,72.53333333333333,-588.8
2301,-151.46666666666667,70.4,-586.6666666666666
2302,-151.46666666666667,68.26666666666667,-586.6666666666666
2303,-153.6,66.13333333333333,-588.8
2304,-151.46666666666667,76.8,-580.2666666666667
2305,-149.33333333333334,68.26666666666667,-584.5333333333333
2306,-160.0,66.13333333333333,-605.8666666666667
2307,-151.46666666666667,72.53333333333333,-590.9333333333333
2308,-153.6,70.4,-584.5333333333333
2309,-151.46666666666667,72.53333333333333,-584.5333333333333
2310,-147.2,68.26666666666667,-595.2
2311,-160.0,74.66666666666667,-586.6666666666666
2312,-157.86666666666667,68.26666666666667,-586.6666666666666
2313,-153.6,72.53333333333333,-584.5333333333333
2314,-151.46666666666667,70.4,-590.9333333333333
2315,-151.46666666666667,74.66666666666667,-586.6666666666666
2316,-151.46666666666667,66.13333333333333,-597.3333333333334
2317,-172.8,76.8,-603.7333333333333
2318,-153.6,74.66666666666667,-578.1333333333333
2319,-151.46666666666667,74.66666666666667,-590.9333333333333
2320,-153.6,76.8,-588.8
2321,-149.33333333333334,72.53333333333333,-590.9333333333333
2322,-142.93333333333334,66.13333333333333,-580.2666666666667
2323,-149.33333333333334,64.0,-586.6666666666666
2324,-147.2,74.66666666666667,-590.9333333333333
2325,-155.73333333333332,74.66666666666667,-586.6666666666666
2326,-151.46666666666667,74.66666666666667,-584.5333333333333
2327,-153.6,68.26666666666667,-584.5333333333333
2328,-160.0,59.733333333333334,-595.2
2329,-153.6,72.53333333333333,-586.6666666666666
2330,-155.73333333333332,68.26666666666667,-595.2
2331,-147.2,72.53333333333333,-584.5333333333333
2332,-149.33333333333334,68.26666666666667,-588.8
2333,-147.2,70.4,-593.0666666666666
2334,-149.33333333333334,70.4,-586.6666666666666
2335,-153.6,68.26666666666667,-597.3333333333334
2336,-151.46666666666667,68.26666666666667,-593.0666666666666
2337,-147.2,74.66666666666667,-590.9333333333333
2338,-151.46666666666667,68.26666666666667,-582.4
2339,-153.6,64.0,-599.4666666666667
2340,-151.46666666666667,68.26666666666667,-590.9333333333333
2341,-149.33333333333334,68.26666666666667,-588.8
2342,-162.13333333333333,70.4,-584.5333333333333
2343,-153.6,74.66666666666667,-588.8
2344,-160.0,76.8,-590.9333333333333
2345,-151.46666666666667,76.8,-590.9333333333333
2346,-149.33333333333334,68.26666666666667,-590.9333333333333
2347,-149.33333333333334,66.13333333333333,-588.8
2348,-151.46666666666667,64.0,-593.0666666666666
2349,-168.53333333333333,68.26666666666667,-588.8
2350,-151.46666666666667,72.53333333333333,-586.6666666666666
2351,-153.6,70.4,-588.8
2352,-153.6,66.13333333333333,-593.0666666666666
2353,-142.93333333333334,66.13333333333333,-584.5333333333333
2354,-151.46666666666667,74.66666666666667,-584.5333333333333
2355,-151.46666666666667,66.13333333333333,-586.6666666666666
2356,-157.86666666666667,66.13333333333333,-588.8
2357,-153.6,72.53333333333333,-595.2
2358,-142.93333333333334,66.13333333333333,-590.9333333333333
2359,-153.6,72.53333333333333,-580.2666666666667
2360,-147.2,83.2,-584.5333333333333
2361,-155.73333333333332,70.4,-590.9333333333333
2362,-151.46666666666667,64.0,-590.9333333333333
2363,-149.33333333333334,68.26666666666667,-588.8
2364,-149.33333333333334,68.26666666666667,-590.9333333333333
2365,-153.6,68.26666666666667,-586.6666666666666
2366,-149.33333333333334,68.26666666666667,-580.2666666666667
2367,-149.33333333333334,72.53333333333333,-582.4
2368,-151.46666666666667,70.4,-586.6666666666666
2369,-153.6,72.53333333333333,-586.6666666666666
2370,-149.33333333333334,66.13333333333333,-597.3333333333334
2371,-153.6,64.0,-597.3333333333334
2372,-145.06666666666666,64.0,-586.6666666666666
2373,-142.93333333333334,74.66666666666667,-588.8
2374,-151.46666666666667,72.53333333333333,-588.8
2375,-147.2,68.26666666666667,-582.4
2376,-151.46666666666667,72.53333333333333,-593.0666666666666
2377,-149.33333333333334,70.4,-582.4
2378,-145.06666666666666,70.4,-584.5333333333333
2379,-157.86666666666667,76.8,-590.9333333333333
2380,-153.6,70.4,-595.2
2381,-153.6,68.26666666666667,-588.8
2382,-157.86666666666667,76.8,-590.9333333333333
2383,-155.73333333333332,74.66666666666667,-586.6666666666666
2384,-145.06666666666666,68.26666666666667,-582.4
2385,-147.2,68.26666666666667,-593.0666666666666
2386,-147.2,68.26666666666667,-590.9333333333333
2387,-149.33333333333334,66.13333333333333,-588.8
2388,-151.46666666666667,72.53333333333333,-588.8
2389,-149.33333333333334,64.0,-593.0666666666666
2390,-145.06666666666666,68.26666666666667,-584.5333333333333
2391,-149.33333333333334,74.66666666666667,-586.6666666666666
2392,-160.0,76.8,-593.0666666666666
2393,-160.0,70.4,-593.0666666666666
2394,-149.33333333333334,68.26666666666667,-595.2
2395,-151.46666666666667,74.66666666666667,-588.8
2396,-149.33333333333334,72.53333333333333,-590.9333333333333
2397,-153.6,68.26666666666667,-590.9333333333333
2398,-149.33333333333334,68.26666666666667,-593.0666666666666
2399,-147.2,70.4,-590.9333333333333
2400,-151.46666666666667,68.26666666666667,-588.8
2401,-145.06666666666666,68.26666666666667,-578.1333333333333
2402,-149.33333333333334,66.13333333333333,-584.5333333333333
2403,-147.2,70.4,-590.9333333333333
2404,-151.46666666666667,70.4,-586.6666666666666
2405,-149.33333333333334,72.53333333333333,-586.6666666666666
2406,-151.46666666666667,68.26666666666667,-588.8
2407,-149.33333333333334,70.4,-597.3333333333334
2408,-153.6,66.13333333333333,-588.8
2409,-149.33333333333334,66.13333333333333,-588.8
2410,-147.2,66.13333333333333,-586.6666666666666
2411,-149.33333333333334,66.13333333333333,-590.9333333333333
2412,-151.46666666666667,72.53333333333333,-597.3333333333334
2413,-147.2,68.26666666666667,-588.8
2414,-145.06666666666666,72.53333333333333,-586.6666666666666
2415,-155.73333333333332,74.66666666666667,-584.5333333333333
2416,-147.2,68.26666666666667,-580.2666666666667
2417,-151.46666666666667,66.13333333333333,-584.5333333333333
2418,-151.46666666666667,76.8,-590.9333333333333
2419,-155.73333333333332,74.66666666666667,-586.6666666666666
2420,-147.2,66.13333333333333,-590.9333333333333
2421,-147.2,68.26666666666667,-582.4
2422,-153.6,68.26666666666667,-586.6666666666666
2423,-149.33333333333334,66.13333333333333,-588.8
2424,-149.33333333333334,64.0,-593.0666666666666
2425,-155.73333333333332,81.06666666666666,-593.0666666666666
2426,-149.33333333333334,72.53333333333333,-584.5333333333333
2427,-153.6,70.4,-588.8
2428,-153.6,70.4,-584.5333333333333
2429,-149.33333333333334,68.26666666666667,-588.8
2430,-149.33333333333334,66.13333333333333,-582.4
2431,-145.06666666666666,72.53333333333333,-582.4
2432,-153.6,76.8,-590.9333333333333
2433,-147.2,61.86666666666667,-595.2
2434,-153.6,72.53333333333333,-578.1333333333333
2435,-149.33333333333334,61.86666666666667,-582.4
2436,-149.33333333333334,66.13333333333333,-582.4
2437,-151.46666666666667,57.6,-595.2
2438,-147.2,72.53333333333333,-584.5333333333333
2439,-151.46666666666667,68.26666666666667,-595.2
2440,-149.33333333333334,66.13333333333333,-586.6666666666666
2441,-149.33333333333334,64.0,-586.6666666666666
2442,-151.46666666666667,70.4,-584.5333333333333
