,accelerometerAccelerationX(G),accelerometerAccelerationY(G),accelerometerAccelerationZ(G)
0,36.266666666666666,-520.5333333333333,-64.0
1,29.866666666666667,-524.8,-51.2
2,32.0,-522.6666666666666,-61.86666666666667
3,34.13333333333333,-524.8,-46.93333333333333
4,42.666666666666664,-531.2,-57.6
5,32.0,-535.4666666666667,-64.0
6,40.53333333333333,-535.4666666666667,-55.46666666666667
7,34.13333333333333,-522.6666666666666,-59.733333333333334
8,27.733333333333334,-531.2,-55.46666666666667
9,40.53333333333333,-533.3333333333334,-49.06666666666666
10,27.733333333333334,-520.5333333333333,-61.86666666666667
11,34.13333333333333,-522.6666666666666,-53.333333333333336
12,25.6,-520.5333333333333,-61.86666666666667
13,32.0,-526.9333333333333,-55.46666666666667
14,38.4,-518.4,-55.46666666666667
15,23.466666666666665,-516.2666666666667,-64.0
16,34.13333333333333,-518.4,-64.0
17,34.13333333333333,-520.5333333333333,-55.46666666666667
18,36.266666666666666,-522.6666666666666,-51.2
19,29.866666666666667,-516.2666666666667,-59.733333333333334
20,42.666666666666664,-526.9333333333333,-53.333333333333336
21,29.866666666666667,-520.5333333333333,-59.733333333333334
22,36.266666666666666,-514.1333333333333,-57.6
23,36.266666666666666,-522.6666666666666,-49.06666666666666
24,36.266666666666666,-529.0666666666666,-51.2
25,34.13333333333333,-522.6666666666666,-53.333333333333336
26,36.266666666666666,-518.4,-59.733333333333334
27,38.4,-533.3333333333334,-51.2
28,32.0,-529.0666666666666,-66.13333333333333
29,34.13333333333333,-535.4666666666667,-61.86666666666667
30,40.53333333333333,-535.4666666666667,-64.0
31,36.266666666666666,-531.2,-68.26666666666667
32,32.0,-529.0666666666666,-66.13333333333333
33,34.13333333333333,-522.6666666666666,-59.733333333333334
34,36.266666666666666,-520.5333333333333,-68.26666666666667
35,36.266666666666666,-514.1333333333333,-57.6
36,36.266666666666666,-518.4,-61.86666666666667
37,36.266666666666666,-524.8,-59.733333333333334
38,34.13333333333333,-516.2666666666667,-66.13333333333333
39,34.13333333333333,-514.1333333333333,-64.0
40,34.13333333333333,-516.2666666666667,-57.6
41,34.13333333333333,-518.4,-55.46666666666667
42,40.53333333333333,-516.2666666666667,-59.733333333333334
43,36.266666666666666,-522.6666666666666,-59.733333333333334
44,34.13333333333333,-518.4,-64.0
45,40.53333333333333,-518.4,-70.4
46,42.666666666666664,-535.4666666666667,-66.13333333333333
47,40.53333333333333,-529.0666666666666,-74.66666666666667
48,40.53333333333333,-537.6,-72.53333333333333
49,40.53333333333333,-522.6666666666666,-70.4
50,36.266666666666666,-529.0666666666666,-68.26666666666667
51,32.0,-524.8,-64.0
52,32.0,-531.2,-74.66666666666667
53,38.4,-531.2,-68.26666666666667
54,32.0,-526.9333333333333,-66.13333333333333
55,27.733333333333334,-531.2,-66.13333333333333
56,38.4,-526.9333333333333,-78.93333333333334
57,36.266666666666666,-516.2666666666667,-61.86666666666667
58,34.13333333333333,-526.9333333333333,-70.4
59,29.866666666666667,-518.4,-81.06666666666666
60,34.13333333333333,-518.4,-85.33333333333333
61,25.6,-516.2666666666667,-74.66666666666667
62,34.13333333333333,-518.4,-74.66666666666667
63,29.866666666666667,-512.0,-72.53333333333333
64,25.6,-507.73333333333335,-70.4
65,34.13333333333333,-505.59999999999997,-74.66666666666667
66,29.866666666666667,-512.0,-70.4
67,21.333333333333332,-497.06666666666666,-78.93333333333334
68,27.733333333333334,-497.06666666666666,-76.8
69,32.0,-505.59999999999997,-87.46666666666667
70,25.6,-492.8,-85.33333333333333
71,25.6,-490.6666666666667,-87.46666666666667
72,29.866666666666667,-494.93333333333334,-83.2
73,19.2,-490.6666666666667,-85.33333333333333
74,21.333333333333332,-497.06666666666666,-87.46666666666667
75,12.8,-509.8666666666667,-91.73333333333333
76,19.2,-514.1333333333333,-85.33333333333333
77,17.066666666666666,-522.6666666666666,-87.46666666666667
78,14.933333333333334,-518.4,-87.46666666666667
79,10.666666666666666,-507.73333333333335,-96.0
80,2.1333333333333333,-522.6666666666666,-91.73333333333333
81,4.266666666666667,-514.1333333333333,-87.46666666666667
82,2.1333333333333333,-503.46666666666664,-87.46666666666667
83,0.0,-505.59999999999997,-89.6
84,-6.4,-499.2,-89.6
85,-2.1333333333333333,-492.8,-78.93333333333334
86,-4.266666666666667,-494.93333333333334,-72.53333333333333
87,-4.266666666666667,-497.06666666666666,-78.93333333333334
88,-6.4,-497.06666666666666,-81.06666666666666
89,6.4,-497.06666666666666,-78.93333333333334
90,4.266666666666667,-486.4,-68.26666666666667
91,-6.4,-499.2,-66.13333333333333
92,14.933333333333334,-499.2,-61.86666666666667
93,29.866666666666667,-501.3333333333333,-72.53333333333333
94,17.066666666666666,-501.3333333333333,-61.86666666666667
95,27.733333333333334,-518.4,-61.86666666666667
96,27.733333333333334,-526.9333333333333,-66.13333333333333
97,29.866666666666667,-541.8666666666667,-72.53333333333333
98,17.066666666666666,-552.5333333333333,-74.66666666666667
99,23.466666666666665,-567.4666666666667,-61.86666666666667
100,14.933333333333334,-578.1333333333333,-57.6
101,34.13333333333333,-590.9333333333333,-59.733333333333334
102,27.733333333333334,-608.0,-59.733333333333334
103,36.266666666666666,-595.2,-72.53333333333333
104,29.866666666666667,-595.2,-57.6
105,40.53333333333333,-599.4666666666667,-51.2
106,46.93333333333333,-586.6666666666666,-59.733333333333334
107,53.333333333333336,-582.4,-51.2
108,49.06666666666666,-558.9333333333333,-55.46666666666667
109,55.46666666666667,-550.4,-57.6
110,46.93333333333333,-539.7333333333333,-49.06666666666666
111,53.333333333333336,-529.0666666666666,-44.8
112,53.333333333333336,-533.3333333333334,-51.2
113,70.4,-512.0,-49.06666666666666
114,51.2,-514.1333333333333,-29.866666666666667
115,61.86666666666667,-522.6666666666666,-38.4
116,68.26666666666667,-520.5333333333333,-44.8
117,64.0,-514.1333333333333,-46.93333333333333
118,61.86666666666667,-533.3333333333334,-34.13333333333333
119,55.46666666666667,-546.1333333333333,-29.866666666666667
120,55.46666666666667,-546.1333333333333,-21.333333333333332
121,53.333333333333336,-550.4,-32.0
122,51.2,-548.2666666666667,-42.666666666666664
123,38.4,-548.2666666666667,-34.13333333333333
124,36.266666666666666,-556.8,-34.13333333333333
125,25.6,-548.2666666666667,-36.266666666666666
126,19.2,-550.4,-40.53333333333333
127,8.533333333333333,-550.4,-38.4
128,-4.266666666666667,-544.0,-53.333333333333336
129,-12.8,-544.0,-40.53333333333333
130,-23.466666666666665,-533.3333333333334,-36.266666666666666
131,-27.733333333333334,-529.0666666666666,-36.266666666666666
132,-38.4,-533.3333333333334,-36.266666666666666
133,-49.06666666666666,-529.0666666666666,-44.8
134,-53.333333333333336,-524.8,-27.733333333333334
135,-55.46666666666667,-522.6666666666666,-29.866666666666667
136,-59.733333333333334,-529.0666666666666,-25.6
137,-55.46666666666667,-526.9333333333333,-25.6
138,-55.46666666666667,-526.9333333333333,-32.0
139,-46.93333333333333,-526.9333333333333,-44.8
140,-42.666666666666664,-526.9333333333333,-27.733333333333334
141,-42.666666666666664,-526.9333333333333,-29.866666666666667
142,-40.53333333333333,-522.6666666666666,-36.266666666666666
143,-29.866666666666667,-516.2666666666667,-40.53333333333333
144,-29.866666666666667,-514.1333333333333,-34.13333333333333
145,-40.53333333333333,-505.59999999999997,-29.866666666666667
146,-23.466666666666665,-503.46666666666664,-34.13333333333333
147,-21.333333333333332,-501.3333333333333,-34.13333333333333
148,-10.666666666666666,-507.73333333333335,-36.266666666666666
149,-17.066666666666666,-503.46666666666664,-29.866666666666667
150,-14.933333333333334,-497.06666666666666,-29.866666666666667
151,-10.666666666666666,-509.8666666666667,-27.733333333333334
152,-23.466666666666665,-492.8,-27.733333333333334
153,-12.8,-501.3333333333333,-23.466666666666665
154,-19.2,-499.2,-23.466666666666665
155,-17.066666666666666,-509.8666666666667,-25.6
156,-19.2,-520.5333333333333,-21.333333333333332
157,-10.666666666666666,-526.9333333333333,-21.333333333333332
158,-10.666666666666666,-529.0666666666666,-19.2
159,-8.533333333333333,-522.6666666666666,-17.066666666666666
160,-8.533333333333333,-533.3333333333334,-17.066666666666666
161,-4.266666666666667,-535.4666666666667,-17.066666666666666
162,4.266666666666667,-537.6,-17.066666666666666
163,0.0,-531.2,-14.933333333333334
164,8.533333333333333,-531.2,-14.933333333333334
165,2.1333333333333333,-537.6,-12.8
166,-2.1333333333333333,-524.8,-17.066666666666666
167,10.666666666666666,-531.2,-17.066666666666666
168,8.533333333333333,-526.9333333333333,-17.066666666666666
169,10.666666666666666,-520.5333333333333,-14.933333333333334
170,14.933333333333334,-522.6666666666666,-34.13333333333333
171,14.933333333333334,-522.6666666666666,-27.733333333333334
172,6.4,-529.0666666666666,-32.0
173,6.4,-539.7333333333333,-46.93333333333333
174,-6.4,-541.8666666666667,-49.06666666666666
175,-14.933333333333334,-544.0,-42.666666666666664
176,-17.066666666666666,-556.8,-61.86666666666667
177,-36.266666666666666,-563.2,-66.13333333333333
178,-34.13333333333333,-578.1333333333333,-57.6
179,-40.53333333333333,-599.4666666666667,-72.53333333333333
180,-44.8,-616.5333333333333,-70.4
181,-51.2,-631.4666666666667,-78.93333333333334
182,-49.06666666666666,-642.1333333333333,-81.06666666666666
183,-40.53333333333333,-654.9333333333333,-70.4
184,-27.733333333333334,-665.6,-74.66666666666667
185,-21.333333333333332,-648.5333333333333,-74.66666666666667
186,6.4,-644.2666666666667,-74.66666666666667
187,23.466666666666665,-612.2666666666667,-68.26666666666667
188,40.53333333333333,-601.6,-68.26666666666667
189,57.6,-571.7333333333333,-78.93333333333334
190,66.13333333333333,-550.4,-87.46666666666667
191,83.2,-544.0,-93.86666666666666
192,83.2,-531.2,-93.86666666666666
193,87.46666666666667,-524.8,-100.26666666666667
194,76.8,-524.8,-102.4
195,72.53333333333333,-529.0666666666666,-104.53333333333333
196,59.733333333333334,-544.0,-100.26666666666667
197,40.53333333333333,-556.8,-102.4
198,34.13333333333333,-567.4666666666667,-106.66666666666667
199,4.266666666666667,-580.2666666666667,-113.06666666666666
200,-6.4,-595.2,-123.73333333333333
201,-19.2,-582.4,-128.0
202,-27.733333333333334,-580.2666666666667,-136.53333333333333
203,-32.0,-573.8666666666667,-138.66666666666666
204,-40.53333333333333,-567.4666666666667,-142.93333333333334
205,-27.733333333333334,-561.0666666666666,-138.66666666666666
206,-19.2,-544.0,-142.93333333333334
207,-6.4,-535.4666666666667,-149.33333333333334
208,-2.1333333333333333,-524.8,-140.8
209,8.533333333333333,-507.73333333333335,-132.26666666666665
210,27.733333333333334,-486.4,-130.13333333333333
211,38.4,-475.73333333333335,-119.46666666666667
212,44.8,-467.2,-113.06666666666666
213,59.733333333333334,-452.26666666666665,-121.6
214,70.4,-445.8666666666667,-117.33333333333333
215,76.8,-443.73333333333335,-121.6
216,78.93333333333334,-441.59999999999997,-128.0
217,83.2,-443.73333333333335,-104.53333333333333
218,83.2,-443.73333333333335,-115.2
219,87.46666666666667,-450.1333333333333,-110.93333333333334
220,81.06666666666666,-458.6666666666667,-100.26666666666667
221,85.33333333333333,-456.5333333333333,-102.4
222,83.2,-445.8666666666667,-102.4
223,85.33333333333333,-456.5333333333333,-91.73333333333333
224,91.73333333333333,-460.8,-96.0
225,83.2,-450.1333333333333,-98.13333333333333
226,85.33333333333333,-448.0,-100.26666666666667
227,81.06666666666666,-452.26666666666665,-96.0
228,74.66666666666667,-460.8,-93.86666666666666
229,66.13333333333333,-456.5333333333333,-113.06666666666666
230,59.733333333333334,-465.06666666666666,-93.86666666666666
231,70.4,-499.2,-78.93333333333334
232,64.0,-516.2666666666667,-61.86666666666667
233,51.2,-533.3333333333334,-64.0
234,57.6,-533.3333333333334,-74.66666666666667
235,55.46666666666667,-541.8666666666667,-85.33333333333333
236,74.66666666666667,-544.0,-83.2
237,76.8,-556.8,-81.06666666666666
238,102.4,-573.8666666666667,-78.93333333333334
239,108.8,-565.3333333333334,-78.93333333333334
240,125.86666666666666,-573.8666666666667,-78.93333333333334
241,128.0,-578.1333333333333,-72.53333333333333
242,142.93333333333334,-573.8666666666667,-70.4
243,145.06666666666666,-569.6,-72.53333333333333
244,134.4,-552.5333333333333,-76.8
245,134.4,-535.4666666666667,-61.86666666666667
246,134.4,-516.2666666666667,-61.86666666666667
247,130.13333333333333,-516.2666666666667,-70.4
248,113.06666666666666,-505.59999999999997,-57.6
249,104.53333333333333,-501.3333333333333,-53.333333333333336
250,98.13333333333333,-501.3333333333333,-49.06666666666666
251,91.73333333333333,-499.2,-55.46666666666667
252,85.33333333333333,-514.1333333333333,-46.93333333333333
253,83.2,-505.59999999999997,-55.46666666666667
254,81.06666666666666,-507.73333333333335,-51.2
255,70.4,-509.8666666666667,-61.86666666666667
256,78.93333333333334,-512.0,-61.86666666666667
257,76.8,-512.0,-53.333333333333336
258,78.93333333333334,-507.73333333333335,-51.2
259,76.8,-497.06666666666666,-55.46666666666667
260,78.93333333333334,-501.3333333333333,-53.333333333333336
261,89.6,-497.06666666666666,-44.8
262,85.33333333333333,-497.06666666666666,-46.93333333333333
263,91.73333333333333,-497.06666666666666,-64.0
264,87.46666666666667,-490.6666666666667,-44.8
265,85.33333333333333,-486.4,-49.06666666666666
266,74.66666666666667,-480.0,-42.666666666666664
267,76.8,-486.4,-42.666666666666664
268,68.26666666666667,-488.5333333333333,-40.53333333333333
269,64.0,-482.1333333333333,-32.0
270,61.86666666666667,-488.5333333333333,-29.866666666666667
271,68.26666666666667,-492.8,-21.333333333333332
272,66.13333333333333,-477.8666666666667,-29.866666666666667
273,64.0,-486.4,-17.066666666666666
274,61.86666666666667,-488.5333333333333,-19.2
275,59.733333333333334,-482.1333333333333,-17.066666666666666
276,76.8,-482.1333333333333,-12.8
277,70.4,-482.1333333333333,-10.666666666666666
278,74.66666666666667,-482.1333333333333,-10.666666666666666
279,81.06666666666666,-477.8666666666667,-8.533333333333333
280,78.93333333333334,-480.0,-4.266666666666667
281,78.93333333333334,-471.46666666666664,-8.533333333333333
282,70.4,-471.46666666666664,-2.1333333333333333
283,81.06666666666666,-480.0,-4.266666666666667
284,72.53333333333333,-475.73333333333335,-8.533333333333333
285,102.4,-465.06666666666666,-2.1333333333333333
286,87.46666666666667,-477.8666666666667,-4.266666666666667
287,87.46666666666667,-480.0,-4.266666666666667
288,85.33333333333333,-477.8666666666667,6.4
289,91.73333333333333,-488.5333333333333,0.0
290,91.73333333333333,-488.5333333333333,8.533333333333333
291,87.46666666666667,-497.06666666666666,0.0
292,100.26666666666667,-505.59999999999997,4.266666666666667
293,100.26666666666667,-509.8666666666667,4.266666666666667
294,87.46666666666667,-514.1333333333333,6.4
295,87.46666666666667,-522.6666666666666,14.933333333333334
296,85.33333333333333,-520.5333333333333,10.666666666666666
297,85.33333333333333,-529.0666666666666,0.0
298,81.06666666666666,-531.2,4.266666666666667
299,76.8,-531.2,6.4
300,81.06666666666666,-539.7333333333333,4.266666666666667
301,81.06666666666666,-535.4666666666667,-2.1333333333333333
302,76.8,-531.2,6.4
303,76.8,-529.0666666666666,2.1333333333333333
304,72.53333333333333,-522.6666666666666,2.1333333333333333
305,76.8,-522.6666666666666,-2.1333333333333333
306,87.46666666666667,-531.2,14.933333333333334
307,93.86666666666666,-531.2,0.0
308,85.33333333333333,-522.6666666666666,14.933333333333334
309,85.33333333333333,-516.2666666666667,8.533333333333333
310,96.0,-516.2666666666667,12.8
311,102.4,-524.8,14.933333333333334
312,110.93333333333334,-518.4,27.733333333333334
313,117.33333333333333,-533.3333333333334,32.0
314,123.73333333333333,-541.8666666666667,46.93333333333333
315,117.33333333333333,-550.4,59.733333333333334
316,125.86666666666666,-561.0666666666666,57.6
317,130.13333333333333,-584.5333333333333,76.8
318,132.26666666666665,-576.0,74.66666666666667
319,132.26666666666665,-580.2666666666667,72.53333333333333
320,140.8,-601.6,72.53333333333333
321,147.2,-625.0666666666666,51.2
322,147.2,-657.0666666666666,36.266666666666666
323,145.06666666666666,-680.5333333333333,8.533333333333333
324,151.46666666666667,-712.5333333333333,-23.466666666666665
325,166.4,-744.5333333333333,-57.6
326,177.06666666666666,-765.8666666666667,-102.4
327,196.26666666666665,-772.2666666666667,-128.0
328,236.79999999999998,-770.1333333333333,-153.6
329,236.79999999999998,-763.7333333333333,-138.66666666666666
330,249.6,-742.4,-136.53333333333333
331,253.86666666666667,-712.5333333333333,-153.6
332,253.86666666666667,-678.4,-155.73333333333332
333,247.46666666666667,-659.2,-166.4
334,234.66666666666666,-631.4666666666667,-181.33333333333334
335,209.06666666666666,-614.4,-177.06666666666666
336,187.73333333333332,-597.3333333333334,-162.13333333333333
337,162.13333333333333,-584.5333333333333,-147.2
338,132.26666666666665,-580.2666666666667,-140.8
339,100.26666666666667,-561.0666666666666,-132.26666666666665
340,66.13333333333333,-544.0,-121.6
341,25.6,-529.0666666666666,-130.13333333333333
342,-4.266666666666667,-507.73333333333335,-138.66666666666666
343,-40.53333333333333,-490.6666666666667,-136.53333333333333
344,-57.6,-471.46666666666664,-134.4
345,-91.73333333333333,-435.2,-149.33333333333334
346,-102.4,-411.73333333333335,-149.33333333333334
347,-108.8,-407.46666666666664,-147.2
348,-104.53333333333333,-386.1333333333333,-153.6
349,-100.26666666666667,-347.73333333333335,-157.86666666666667
350,-87.46666666666667,-330.6666666666667,-157.86666666666667
351,-70.4,-311.46666666666664,-153.6
352,-49.06666666666666,-309.3333333333333,-151.46666666666667
353,-23.466666666666665,-311.46666666666664,-151.46666666666667
354,2.1333333333333333,-326.4,-155.73333333333332
355,34.13333333333333,-343.46666666666664,-151.46666666666667
356,57.6,-369.06666666666666,-149.33333333333334
357,85.33333333333333,-386.1333333333333,-140.8
358,106.66666666666667,-407.46666666666664,-145.06666666666666
359,125.86666666666666,-435.2,-140.8
360,142.93333333333334,-465.06666666666666,-157.86666666666667
361,136.53333333333333,-477.8666666666667,-142.93333333333334
362,138.66666666666666,-499.2,-147.2
363,134.4,-514.1333333333333,-145.06666666666666
364,140.8,-552.5333333333333,-134.4
365,128.0,-561.0666666666666,-134.4
366,125.86666666666666,-580.2666666666667,-130.13333333333333
367,117.33333333333333,-586.6666666666666,-128.0
368,104.53333333333333,-601.6,-132.26666666666665
369,102.4,-595.2,-128.0
370,89.6,-599.4666666666667,-132.26666666666665
371,76.8,-605.8666666666667,-117.33333333333333
372,81.06666666666666,-593.0666666666666,-125.86666666666666
373,81.06666666666666,-595.2,-115.2
374,76.8,-582.4,-117.33333333333333
375,81.06666666666666,-571.7333333333333,-106.66666666666667
376,78.93333333333334,-554.6666666666666,-113.06666666666666
377,83.2,-544.0,-100.26666666666667
378,87.46666666666667,-539.7333333333333,-102.4
379,83.2,-522.6666666666666,-102.4
380,96.0,-526.9333333333333,-93.86666666666666
381,91.73333333333333,-522.6666666666666,-96.0
382,76.8,-507.73333333333335,-89.6
383,83.2,-516.2666666666667,-91.73333333333333
384,66.13333333333333,-471.46666666666664,-104.53333333333333
385,68.26666666666667,-492.8,-83.2
386,66.13333333333333,-514.1333333333333,-72.53333333333333
387,59.733333333333334,-514.1333333333333,-64.0
388,29.866666666666667,-501.3333333333333,-85.33333333333333
389,29.866666666666667,-507.73333333333335,-74.66666666666667
390,32.0,-514.1333333333333,-64.0
391,27.733333333333334,-512.0,-68.26666666666667
392,8.533333333333333,-501.3333333333333,-74.66666666666667
393,2.1333333333333333,-484.26666666666665,-59.733333333333334
394,-6.4,-482.1333333333333,-59.733333333333334
395,-6.4,-467.2,-59.733333333333334
396,-6.4,-471.46666666666664,-57.6
397,0.0,-477.8666666666667,-51.2
398,14.933333333333334,-460.8,-57.6
399,14.933333333333334,-452.26666666666665,-57.6
400,14.933333333333334,-452.26666666666665,-53.333333333333336
401,21.333333333333332,-441.59999999999997,-55.46666666666667
402,29.866666666666667,-428.8,-51.2
403,32.0,-435.2,-40.53333333333333
404,34.13333333333333,-428.8,-44.8
405,40.53333333333333,-437.3333333333333,-34.13333333333333
406,40.53333333333333,-435.2,-34.13333333333333
407,44.8,-443.73333333333335,-29.866666666666667
408,36.266666666666666,-445.8666666666667,-32.0
409,42.666666666666664,-456.5333333333333,-25.6
410,49.06666666666666,-465.06666666666666,-21.333333333333332
411,49.06666666666666,-475.73333333333335,-17.066666666666666
412,42.666666666666664,-477.8666666666667,-14.933333333333334
413,34.13333333333333,-475.73333333333335,-17.066666666666666
414,46.93333333333333,-484.26666666666665,-21.333333333333332
415,44.8,-494.93333333333334,-17.066666666666666
416,40.53333333333333,-492.8,-19.2
417,38.4,-492.8,-17.066666666666666
418,32.0,-494.93333333333334,-14.933333333333334
419,32.0,-497.06666666666666,-17.066666666666666
420,25.6,-499.2,-12.8
421,23.466666666666665,-497.06666666666666,-10.666666666666666
422,14.933333333333334,-499.2,-10.666666666666666
423,25.6,-507.73333333333335,-10.666666666666666
424,17.066666666666666,-509.8666666666667,-19.2
425,25.6,-516.2666666666667,-29.866666666666667
426,21.333333333333332,-520.5333333333333,-8.533333333333333
427,27.733333333333334,-522.6666666666666,-12.8
428,32.0,-539.7333333333333,-10.666666666666666
429,29.866666666666667,-535.4666666666667,-4.266666666666667
430,32.0,-539.7333333333333,-6.4
431,32.0,-546.1333333333333,-8.533333333333333
432,29.866666666666667,-546.1333333333333,-6.4
433,21.333333333333332,-546.1333333333333,-10.666666666666666
434,17.066666666666666,-533.3333333333334,-10.666666666666666
435,14.933333333333334,-544.0,-12.8
436,2.1333333333333333,-541.8666666666667,-8.533333333333333
437,6.4,-544.0,-12.8
438,12.8,-544.0,-12.8
439,10.666666666666666,-556.8,-6.4
440,17.066666666666666,-561.0666666666666,-6.4
441,21.333333333333332,-565.3333333333334,-2.1333333333333333
442,23.466666666666665,-573.8666666666667,10.666666666666666
443,19.2,-576.0,10.666666666666666
444,29.866666666666667,-586.6666666666666,21.333333333333332
445,36.266666666666666,-582.4,44.8
446,42.666666666666664,-582.4,55.46666666666667
447,42.666666666666664,-586.6666666666666,49.06666666666666
448,40.53333333333333,-586.6666666666666,61.86666666666667
449,55.46666666666667,-582.4,68.26666666666667
450,59.733333333333334,-588.8,61.86666666666667
451,64.0,-584.5333333333333,42.666666666666664
452,66.13333333333333,-586.6666666666666,17.066666666666666
453,72.53333333333333,-595.2,0.0
454,70.4,-625.0666666666666,-34.13333333333333
455,49.06666666666666,-644.2666666666667,-66.13333333333333
456,25.6,-684.8,-91.73333333333333
457,-12.8,-718.9333333333333,-98.13333333333333
458,-38.4,-740.2666666666667,-96.0
459,-59.733333333333334,-759.4666666666667,-81.06666666666666
460,-74.66666666666667,-761.6,-61.86666666666667
461,-91.73333333333333,-753.0666666666666,-61.86666666666667
462,-87.46666666666667,-725.3333333333334,-59.733333333333334
463,-83.2,-712.5333333333333,-66.13333333333333
464,-85.33333333333333,-693.3333333333334,-70.4
465,-76.8,-680.5333333333333,-70.4
466,-53.333333333333336,-657.0666666666666,-72.53333333333333
467,-49.06666666666666,-610.1333333333333,-100.26666666666667
468,-10.666666666666666,-593.0666666666666,-78.93333333333334
469,17.066666666666666,-567.4666666666667,-89.6
470,49.06666666666666,-558.9333333333333,-89.6
471,74.66666666666667,-554.6666666666666,-93.86666666666666
472,106.66666666666667,-558.9333333333333,-106.66666666666667
473,128.0,-552.5333333333333,-104.53333333333333
474,170.66666666666666,-548.2666666666667,-123.73333333333333
475,185.6,-531.2,-134.4
476,194.13333333333333,-514.1333333333333,-142.93333333333334
477,209.06666666666666,-501.3333333333333,-164.26666666666665
478,202.66666666666666,-471.46666666666664,-172.8
479,202.66666666666666,-443.73333333333335,-198.4
480,183.46666666666667,-411.73333333333335,-213.33333333333334
481,164.26666666666665,-396.8,-215.46666666666667
482,140.8,-381.8666666666667,-213.33333333333334
483,125.86666666666666,-373.3333333333333,-204.8
484,93.86666666666666,-358.4,-198.4
485,87.46666666666667,-358.4,-189.86666666666667
486,70.4,-381.8666666666667,-177.06666666666666
487,57.6,-379.73333333333335,-177.06666666666666
488,34.13333333333333,-407.46666666666664,-170.66666666666666
489,21.333333333333332,-418.1333333333333,-170.66666666666666
490,0.0,-430.93333333333334,-170.66666666666666
491,-8.533333333333333,-443.73333333333335,-164.26666666666665
492,-12.8,-445.8666666666667,-168.53333333333333
493,-27.733333333333334,-460.8,-160.0
494,-40.53333333333333,-452.26666666666665,-155.73333333333332
495,-29.866666666666667,-475.73333333333335,-157.86666666666667
496,-34.13333333333333,-477.8666666666667,-151.46666666666667
497,-25.6,-492.8,-142.93333333333334
498,-19.2,-509.8666666666667,-134.4
499,-8.533333333333333,-529.0666666666666,-117.33333333333333
500,-4.266666666666667,-541.8666666666667,-104.53333333333333
501,17.066666666666666,-561.0666666666666,-102.4
502,14.933333333333334,-565.3333333333334,-102.4
503,25.6,-580.2666666666667,-104.53333333333333
504,27.733333333333334,-588.8,-106.66666666666667
505,23.466666666666665,-595.2,-108.8
506,21.333333333333332,-597.3333333333334,-104.53333333333333
507,21.333333333333332,-588.8,-110.93333333333334
508,14.933333333333334,-576.0,-121.6
509,8.533333333333333,-569.6,-119.46666666666667
510,21.333333333333332,-556.8,-115.2
511,6.4,-531.2,-123.73333333333333
512,14.933333333333334,-518.4,-110.93333333333334
513,14.933333333333334,-492.8,-98.13333333333333
514,21.333333333333332,-480.0,-102.4
515,27.733333333333334,-477.8666666666667,-91.73333333333333
516,14.933333333333334,-477.8666666666667,-89.6
517,36.266666666666666,-462.93333333333334,-87.46666666666667
518,49.06666666666666,-450.1333333333333,-87.46666666666667
519,55.46666666666667,-441.59999999999997,-74.66666666666667
520,64.0,-448.0,-78.93333333333334
521,74.66666666666667,-452.26666666666665,-74.66666666666667
522,102.4,-471.46666666666664,-87.46666666666667
523,91.73333333333333,-460.8,-76.8
524,96.0,-462.93333333333334,-76.8
525,100.26666666666667,-467.2,-70.4
526,104.53333333333333,-471.46666666666664,-83.2
527,102.4,-471.46666666666664,-78.93333333333334
528,96.0,-482.1333333333333,-70.4
529,100.26666666666667,-471.46666666666664,-72.53333333333333
530,104.53333333333333,-477.8666666666667,-70.4
531,96.0,-477.8666666666667,-59.733333333333334
532,96.0,-473.59999999999997,-64.0
533,78.93333333333334,-480.0,-57.6
534,89.6,-480.0,-51.2
535,87.46666666666667,-477.8666666666667,-44.8
536,83.2,-484.26666666666665,-36.266666666666666
537,78.93333333333334,-477.8666666666667,-40.53333333333333
538,64.0,-477.8666666666667,-29.866666666666667
539,57.6,-484.26666666666665,-32.0
540,61.86666666666667,-484.26666666666665,-34.13333333333333
541,55.46666666666667,-492.8,-25.6
542,53.333333333333336,-494.93333333333334,-32.0
543,55.46666666666667,-497.06666666666666,-27.733333333333334
544,46.93333333333333,-507.73333333333335,-17.066666666666666
545,42.666666666666664,-497.06666666666666,-17.066666666666666
546,42.666666666666664,-484.26666666666665,-10.666666666666666
547,40.53333333333333,-477.8666666666667,-8.533333333333333
548,49.06666666666666,-477.8666666666667,-4.266666666666667
549,40.53333333333333,-467.2,-2.1333333333333333
550,36.266666666666666,-448.0,6.4
551,40.53333333333333,-439.46666666666664,12.8
552,38.4,-424.5333333333333,10.666666666666666
553,49.06666666666666,-433.06666666666666,17.066666666666666
554,46.93333333333333,-426.6666666666667,4.266666666666667
555,59.733333333333334,-437.3333333333333,12.8
556,61.86666666666667,-439.46666666666664,19.2
557,76.8,-445.8666666666667,19.2
558,78.93333333333334,-471.46666666666664,19.2
559,89.6,-475.73333333333335,23.466666666666665
560,98.13333333333333,-494.93333333333334,21.333333333333332
561,100.26666666666667,-499.2,17.066666666666666
562,104.53333333333333,-516.2666666666667,23.466666666666665
563,113.06666666666666,-518.4,17.066666666666666
564,115.2,-522.6666666666666,12.8
565,121.6,-526.9333333333333,4.266666666666667
566,104.53333333333333,-541.8666666666667,10.666666666666666
567,102.4,-552.5333333333333,34.13333333333333
568,91.73333333333333,-558.9333333333333,8.533333333333333
569,85.33333333333333,-567.4666666666667,21.333333333333332
570,53.333333333333336,-563.2,17.066666666666666
571,42.666666666666664,-573.8666666666667,25.6
572,23.466666666666665,-556.8,38.4
573,10.666666666666666,-561.0666666666666,38.4
574,4.266666666666667,-558.9333333333333,40.53333333333333
575,0.0,-561.0666666666666,49.06666666666666
576,-4.266666666666667,-556.8,51.2
577,-4.266666666666667,-582.4,74.66666666666667
578,2.1333333333333333,-590.9333333333333,85.33333333333333
579,14.933333333333334,-610.1333333333333,102.4
580,12.8,-618.6666666666666,121.6
581,17.066666666666666,-620.8,134.4
582,10.666666666666666,-620.8,151.46666666666667
583,17.066666666666666,-620.8,153.6
584,19.2,-620.8,147.2
585,25.6,-616.5333333333333,121.6
586,44.8,-616.5333333333333,87.46666666666667
587,57.6,-648.5333333333333,51.2
588,72.53333333333333,-661.3333333333334,19.2
589,89.6,-691.2,-23.466666666666665
590,115.2,-744.5333333333333,-66.13333333333333
591,149.33333333333334,-785.0666666666666,-102.4
592,221.86666666666667,-817.0666666666666,-108.8
593,268.8,-832.0,-110.93333333333334
594,311.46666666666664,-817.0666666666666,-113.06666666666666
595,347.73333333333335,-793.6,-121.6
596,354.1333333333333,-740.2666666666667,-153.6
597,354.1333333333333,-712.5333333333333,-155.73333333333332
598,358.4,-676.2666666666667,-185.6
599,337.06666666666666,-633.6,-206.93333333333334
600,296.5333333333333,-605.8666666666667,-221.86666666666667
601,270.93333333333334,-586.6666666666666,-219.73333333333332
602,232.53333333333333,-561.0666666666666,-209.06666666666666
603,172.8,-548.2666666666667,-196.26666666666665
604,115.2,-539.7333333333333,-174.93333333333334
605,68.26666666666667,-529.0666666666666,-183.46666666666667
606,8.533333333333333,-512.0,-174.93333333333334
607,-23.466666666666665,-494.93333333333334,-183.46666666666667
608,-70.4,-467.2,-174.93333333333334
609,-104.53333333333333,-430.93333333333334,-187.73333333333332
610,-130.13333333333333,-403.2,-202.66666666666666
611,-157.86666666666667,-375.46666666666664,-194.13333333333333
612,-162.13333333333333,-352.0,-198.4
613,-153.6,-324.26666666666665,-202.66666666666666
614,-128.0,-320.0,-187.73333333333332
615,-110.93333333333334,-322.1333333333333,-183.46666666666667
616,-85.33333333333333,-328.5333333333333,-177.06666666666666
617,-64.0,-339.2,-168.53333333333333
618,-27.733333333333334,-364.8,-155.73333333333332
619,38.4,-392.5333333333333,-160.0
620,55.46666666666667,-405.3333333333333,-142.93333333333334
621,76.8,-416.0,-145.06666666666666
622,104.53333333333333,-430.93333333333334,-147.2
623,125.86666666666666,-439.46666666666664,-155.73333333333332
624,138.66666666666666,-450.1333333333333,-155.73333333333332
625,155.73333333333332,-465.06666666666666,-157.86666666666667
626,166.4,-482.1333333333333,-157.86666666666667
627,177.06666666666666,-494.93333333333334,-157.86666666666667
628,185.6,-529.0666666666666,-151.46666666666667
629,177.06666666666666,-537.6,-153.6
630,162.13333333333333,-565.3333333333334,-142.93333333333334
631,155.73333333333332,-567.4666666666667,-130.13333333333333
632,130.13333333333333,-578.1333333333333,-125.86666666666666
633,106.66666666666667,-588.8,-121.6
634,74.66666666666667,-593.0666666666666,-121.6
635,64.0,-588.8,-110.93333333333334
636,44.8,-584.5333333333333,-123.73333333333333
637,32.0,-573.8666666666667,-121.6
638,29.866666666666667,-567.4666666666667,-104.53333333333333
639,42.666666666666664,-548.2666666666667,-121.6
640,42.666666666666664,-531.2,-119.46666666666667
641,78.93333333333334,-535.4666666666667,-106.66666666666667
642,64.0,-524.8,-100.26666666666667
643,78.93333333333334,-518.4,-100.26666666666667
644,93.86666666666666,-514.1333333333333,-91.73333333333333
645,96.0,-518.4,-87.46666666666667
646,102.4,-514.1333333333333,-98.13333333333333
647,102.4,-512.0,-85.33333333333333
648,96.0,-514.1333333333333,-81.06666666666666
649,91.73333333333333,-518.4,-78.93333333333334
650,74.66666666666667,-514.1333333333333,-74.66666666666667
651,55.46666666666667,-520.5333333333333,-64.0
652,44.8,-526.9333333333333,-68.26666666666667
653,36.266666666666666,-518.4,-61.86666666666667
654,23.466666666666665,-509.8666666666667,-64.0
655,4.266666666666667,-499.2,-59.733333333333334
656,-8.533333333333333,-490.6666666666667,-57.6
657,-10.666666666666666,-477.8666666666667,-55.46666666666667
658,-17.066666666666666,-473.59999999999997,-38.4
659,-19.2,-460.8,-38.4
660,-29.866666666666667,-454.4,-36.266666666666666
661,-34.13333333333333,-445.8666666666667,-34.13333333333333
662,-29.866666666666667,-418.1333333333333,-23.466666666666665
663,-27.733333333333334,-428.8,-34.13333333333333
664,-19.2,-413.8666666666667,-21.333333333333332
665,-12.8,-424.5333333333333,-10.666666666666666
666,-8.533333333333333,-416.0,-14.933333333333334
667,-4.266666666666667,-420.26666666666665,-14.933333333333334
668,8.533333333333333,-411.73333333333335,-14.933333333333334
669,10.666666666666666,-420.26666666666665,-8.533333333333333
670,12.8,-411.73333333333335,-14.933333333333334
671,14.933333333333334,-428.8,-12.8
672,0.0,-439.46666666666664,6.4
673,0.0,-450.1333333333333,19.2
674,46.93333333333333,-437.3333333333333,-10.666666666666666
675,66.13333333333333,-437.3333333333333,-12.8
676,46.93333333333333,-450.1333333333333,-4.266666666666667
677,42.666666666666664,-462.93333333333334,6.4
678,32.0,-477.8666666666667,12.8
679,32.0,-480.0,8.533333333333333
680,25.6,-480.0,14.933333333333334
681,14.933333333333334,-486.4,14.933333333333334
682,21.333333333333332,-492.8,10.666666666666666
683,14.933333333333334,-497.06666666666666,19.2
684,19.2,-490.6666666666667,10.666666666666666
685,12.8,-505.59999999999997,12.8
686,12.8,-516.2666666666667,19.2
687,19.2,-529.0666666666666,25.6
688,23.466666666666665,-541.8666666666667,25.6
689,27.733333333333334,-552.5333333333333,34.13333333333333
690,25.6,-561.0666666666666,29.866666666666667
691,34.13333333333333,-576.0,34.13333333333333
692,23.466666666666665,-573.8666666666667,36.266666666666666
693,25.6,-593.0666666666666,42.666666666666664
694,19.2,-593.0666666666666,38.4
695,19.2,-588.8,51.2
696,-4.266666666666667,-582.4,55.46666666666667
697,-8.533333333333333,-584.5333333333333,55.46666666666667
698,-12.8,-580.2666666666667,70.4
699,-21.333333333333332,-573.8666666666667,61.86666666666667
700,-23.466666666666665,-571.7333333333333,83.2
701,-23.466666666666665,-569.6,85.33333333333333
702,-21.333333333333332,-569.6,87.46666666666667
703,-14.933333333333334,-558.9333333333333,83.2
704,-17.066666666666666,-563.2,68.26666666666667
705,-12.8,-582.4,57.6
706,-4.266666666666667,-599.4666666666667,17.066666666666666
707,-8.533333333333333,-620.8,-6.4
708,-8.533333333333333,-646.4,-27.733333333333334
709,-17.066666666666666,-678.4,-44.8
710,-8.533333333333333,-716.8,-68.26666666666667
711,-6.4,-761.6,-85.33333333333333
712,10.666666666666666,-806.4,-76.8
713,-2.1333333333333333,-825.6,-72.53333333333333
714,-4.266666666666667,-834.1333333333333,-57.6
715,14.933333333333334,-842.6666666666666,-51.2
716,14.933333333333334,-814.9333333333333,-49.06666666666666
717,40.53333333333333,-804.2666666666667,-51.2
718,53.333333333333336,-772.2666666666667,-49.06666666666666
719,70.4,-746.6666666666666,-42.666666666666664
720,89.6,-708.2666666666667,-51.2
721,102.4,-667.7333333333333,-74.66666666666667
722,128.0,-644.2666666666667,-91.73333333333333
723,140.8,-601.6,-119.46666666666667
724,155.73333333333332,-548.2666666666667,-149.33333333333334
725,170.66666666666666,-505.59999999999997,-157.86666666666667
726,185.6,-454.4,-185.6
727,174.93333333333334,-428.8,-192.0
728,177.06666666666666,-401.06666666666666,-204.8
729,174.93333333333334,-384.0,-211.2
730,164.26666666666665,-377.6,-215.46666666666667
731,160.0,-375.46666666666664,-219.73333333333332
732,162.13333333333333,-375.46666666666664,-206.93333333333334
733,157.86666666666667,-386.1333333333333,-209.06666666666666
734,168.53333333333333,-394.6666666666667,-200.53333333333333
735,155.73333333333332,-409.6,-192.0
736,134.4,-422.4,-181.33333333333334
737,125.86666666666666,-430.93333333333334,-172.8
738,96.0,-443.73333333333335,-185.6
739,74.66666666666667,-448.0,-172.8
740,49.06666666666666,-456.5333333333333,-155.73333333333332
741,32.0,-456.5333333333333,-157.86666666666667
742,10.666666666666666,-465.06666666666666,-157.86666666666667
743,-12.8,-462.93333333333334,-147.2
744,-29.866666666666667,-462.93333333333334,-134.4
745,-44.8,-462.93333333333334,-115.2
746,-44.8,-462.93333333333334,-102.4
747,-38.4,-475.73333333333335,-89.6
748,-27.733333333333334,-482.1333333333333,-78.93333333333334
749,-23.466666666666665,-497.06666666666666,-72.53333333333333
750,-4.266666666666667,-503.46666666666664,-83.2
751,10.666666666666666,-512.0,-81.06666666666666
752,25.6,-526.9333333333333,-89.6
753,40.53333333333333,-533.3333333333334,-96.0
754,53.333333333333336,-539.7333333333333,-87.46666666666667
755,59.733333333333334,-548.2666666666667,-100.26666666666667
756,64.0,-546.1333333333333,-106.66666666666667
757,72.53333333333333,-535.4666666666667,-102.4
758,76.8,-537.6,-100.26666666666667
759,64.0,-514.1333333333333,-100.26666666666667
760,59.733333333333334,-509.8666666666667,-96.0
761,57.6,-492.8,-81.06666666666666
762,40.53333333333333,-480.0,-78.93333333333334
763,42.666666666666664,-477.8666666666667,-81.06666666666666
764,42.666666666666664,-465.06666666666666,-83.2
765,29.866666666666667,-454.4,-81.06666666666666
766,34.13333333333333,-452.26666666666665,-70.4
767,21.333333333333332,-452.26666666666665,-81.06666666666666
768,19.2,-443.73333333333335,-76.8
769,19.2,-441.59999999999997,-83.2
770,34.13333333333333,-452.26666666666665,-64.0
771,40.53333333333333,-452.26666666666665,-66.13333333333333
772,27.733333333333334,-462.93333333333334,-55.46666666666667
773,38.4,-471.46666666666664,-57.6
774,49.06666666666666,-480.0,-55.46666666666667
775,57.6,-484.26666666666665,-59.733333333333334
776,57.6,-488.5333333333333,-57.6
777,68.26666666666667,-486.4,-64.0
778,70.4,-477.8666666666667,-61.86666666666667
779,78.93333333333334,-480.0,-70.4
780,81.06666666666666,-473.59999999999997,-61.86666666666667
781,74.66666666666667,-469.3333333333333,-72.53333333333333
782,83.2,-458.6666666666667,-64.0
783,91.73333333333333,-460.8,-59.733333333333334
784,87.46666666666667,-456.5333333333333,-49.06666666666666
785,91.73333333333333,-458.6666666666667,-51.2
786,100.26666666666667,-462.93333333333334,-38.4
787,108.8,-462.93333333333334,-36.266666666666666
788,119.46666666666667,-467.2,-23.466666666666665
789,115.2,-473.59999999999997,-19.2
790,123.73333333333333,-475.73333333333335,-17.066666666666666
791,123.73333333333333,-471.46666666666664,-12.8
792,115.2,-490.6666666666667,-14.933333333333334
793,125.86666666666666,-473.59999999999997,-8.533333333333333
794,125.86666666666666,-469.3333333333333,-14.933333333333334
795,123.73333333333333,-477.8666666666667,-6.4
796,115.2,-473.59999999999997,-2.1333333333333333
797,113.06666666666666,-475.73333333333335,-2.1333333333333333
798,100.26666666666667,-471.46666666666664,6.4
799,96.0,-467.2,8.533333333333333
800,83.2,-469.3333333333333,17.066666666666666
801,70.4,-465.06666666666666,10.666666666666666
802,55.46666666666667,-469.3333333333333,17.066666666666666
803,42.666666666666664,-488.5333333333333,25.6
804,23.466666666666665,-484.26666666666665,21.333333333333332
805,6.4,-492.8,19.2
806,-8.533333333333333,-507.73333333333335,6.4
807,-14.933333333333334,-509.8666666666667,8.533333333333333
808,-6.4,-518.4,-4.266666666666667
809,4.266666666666667,-531.2,-2.1333333333333333
810,21.333333333333332,-535.4666666666667,6.4
811,61.86666666666667,-544.0,-17.066666666666666
812,91.73333333333333,-535.4666666666667,-10.666666666666666
813,110.93333333333334,-544.0,-14.933333333333334
814,136.53333333333333,-529.0666666666666,-23.466666666666665
815,164.26666666666665,-558.9333333333333,-2.1333333333333333
816,183.46666666666667,-563.2,4.266666666666667
817,198.4,-561.0666666666666,12.8
818,202.66666666666666,-567.4666666666667,29.866666666666667
819,202.66666666666666,-576.0,44.8
820,187.73333333333332,-576.0,74.66666666666667
821,170.66666666666666,-590.9333333333333,83.2
822,136.53333333333333,-603.7333333333333,106.66666666666667
823,121.6,-603.7333333333333,121.6
824,87.46666666666667,-614.4,145.06666666666666
825,61.86666666666667,-618.6666666666666,151.46666666666667
826,25.6,-618.6666666666666,162.13333333333333
827,6.4,-616.5333333333333,147.2
828,0.0,-633.6,125.86666666666666
829,2.1333333333333333,-650.6666666666666,76.8
830,-2.1333333333333333,-680.5333333333333,8.533333333333333
831,-4.266666666666667,-727.4666666666667,-76.8
832,-2.1333333333333333,-787.2,-157.86666666666667
833,38.4,-817.0666666666666,-209.06666666666666
834,121.6,-864.0,-213.33333333333334
835,217.6,-896.0,-189.86666666666667
836,281.6,-868.2666666666667,-196.26666666666665
837,317.8666666666667,-840.5333333333333,-209.06666666666666
838,332.8,-806.4,-260.26666666666665
839,345.6,-774.4,-292.26666666666665
840,341.3333333333333,-731.7333333333333,-330.6666666666667
841,322.1333333333333,-697.6,-328.5333333333333
842,298.6666666666667,-674.1333333333333,-315.73333333333335
843,256.0,-635.7333333333333,-281.6
844,200.53333333333333,-605.8666666666667,-238.93333333333334
845,130.13333333333333,-569.6,-200.53333333333333
846,68.26666666666667,-537.6,-179.2
847,14.933333333333334,-507.73333333333335,-164.26666666666665
848,-42.666666666666664,-465.06666666666666,-164.26666666666665
849,-106.66666666666667,-424.5333333333333,-155.73333333333332
850,-155.73333333333332,-396.8,-145.06666666666666
851,-202.66666666666666,-373.3333333333333,-142.93333333333334
852,-228.26666666666665,-369.06666666666666,-123.73333333333333
853,-247.46666666666667,-345.6,-113.06666666666666
854,-251.73333333333332,-349.8666666666667,-117.33333333333333
855,-247.46666666666667,-343.46666666666664,-121.6
856,-211.2,-371.2,-134.4
857,-189.86666666666667,-384.0,-123.73333333333333
858,-145.06666666666666,-398.93333333333334,-140.8
859,-110.93333333333334,-409.6,-138.66666666666666
860,-66.13333333333333,-424.5333333333333,-136.53333333333333
861,-21.333333333333332,-426.6666666666667,-134.4
862,32.0,-443.73333333333335,-140.8
863,87.46666666666667,-458.6666666666667,-142.93333333333334
864,115.2,-465.06666666666666,-138.66666666666666
865,162.13333333333333,-456.5333333333333,-149.33333333333334
866,187.73333333333332,-473.59999999999997,-151.46666666666667
867,213.33333333333334,-469.3333333333333,-145.06666666666666
868,234.66666666666666,-452.26666666666665,-157.86666666666667
869,241.06666666666666,-443.73333333333335,-147.2
870,228.26666666666665,-452.26666666666665,-149.33333333333334
871,209.06666666666666,-448.0,-140.8
872,177.06666666666666,-458.6666666666667,-132.26666666666665
873,149.33333333333334,-469.3333333333333,-136.53333333333333
874,125.86666666666666,-477.8666666666667,-147.2
875,96.0,-482.1333333333333,-142.93333333333334
876,78.93333333333334,-488.5333333333333,-134.4
877,55.46666666666667,-492.8,-128.0
878,29.866666666666667,-497.06666666666666,-104.53333333333333
879,10.666666666666666,-503.46666666666664,-100.26666666666667
880,12.8,-509.8666666666667,-87.46666666666667
881,8.533333333333333,-520.5333333333333,-87.46666666666667
882,10.666666666666666,-526.9333333333333,-81.06666666666666
883,17.066666666666666,-541.8666666666667,-78.93333333333334
884,21.333333333333332,-544.0,-93.86666666666666
885,27.733333333333334,-544.0,-87.46666666666667
886,27.733333333333334,-544.0,-96.0
887,42.666666666666664,-546.1333333333333,-96.0
888,57.6,-544.0,-98.13333333333333
889,55.46666666666667,-533.3333333333334,-100.26666666666667
890,66.13333333333333,-531.2,-81.06666666666666
891,68.26666666666667,-520.5333333333333,-78.93333333333334
892,66.13333333333333,-512.0,-66.13333333333333
893,59.733333333333334,-503.46666666666664,-64.0
894,49.06666666666666,-486.4,-57.6
895,49.06666666666666,-486.4,-49.06666666666666
896,49.06666666666666,-492.8,-40.53333333333333
897,23.466666666666665,-477.8666666666667,-51.2
898,19.2,-480.0,-36.266666666666666
899,19.2,-484.26666666666665,-42.666666666666664
900,14.933333333333334,-488.5333333333333,-23.466666666666665
901,8.533333333333333,-486.4,-19.2
902,8.533333333333333,-492.8,-21.333333333333332
903,6.4,-497.06666666666666,-25.6
904,8.533333333333333,-492.8,-21.333333333333332
905,12.8,-492.8,-27.733333333333334
906,2.1333333333333333,-490.6666666666667,-25.6
907,6.4,-486.4,-32.0
908,8.533333333333333,-482.1333333333333,-19.2
909,2.1333333333333333,-473.59999999999997,-21.333333333333332
910,6.4,-467.2,-14.933333333333334
911,14.933333333333334,-467.2,-14.933333333333334
912,32.0,-458.6666666666667,-25.6
913,19.2,-450.1333333333333,0.0
914,25.6,-456.5333333333333,-4.266666666666667
915,27.733333333333334,-452.26666666666665,-6.4
916,29.866666666666667,-443.73333333333335,12.8
917,44.8,-460.8,14.933333333333334
918,40.53333333333333,-452.26666666666665,6.4
919,44.8,-456.5333333333333,10.666666666666666
920,57.6,-471.46666666666664,10.666666666666666
921,57.6,-462.93333333333334,12.8
922,53.333333333333336,-465.06666666666666,14.933333333333334
923,66.13333333333333,-480.0,14.933333333333334
924,66.13333333333333,-480.0,14.933333333333334
925,64.0,-475.73333333333335,19.2
926,64.0,-486.4,19.2
927,64.0,-488.5333333333333,17.066666666666666
928,61.86666666666667,-499.2,19.2
929,61.86666666666667,-507.73333333333335,14.933333333333334
930,66.13333333333333,-529.0666666666666,19.2
931,57.6,-539.7333333333333,25.6
932,46.93333333333333,-546.1333333333333,23.466666666666665
933,49.06666666666666,-554.6666666666666,23.466666666666665
934,42.666666666666664,-558.9333333333333,32.0
935,34.13333333333333,-569.6,32.0
936,21.333333333333332,-578.1333333333333,42.666666666666664
937,8.533333333333333,-573.8666666666667,36.266666666666666
938,6.4,-571.7333333333333,34.13333333333333
939,2.1333333333333333,-576.0,49.06666666666666
940,-4.266666666666667,-569.6,49.06666666666666
941,-6.4,-569.6,46.93333333333333
942,0.0,-569.6,68.26666666666667
943,-8.533333333333333,-561.0666666666666,70.4
944,8.533333333333333,-569.6,87.46666666666667
945,6.4,-558.9333333333333,81.06666666666666
946,10.666666666666666,-552.5333333333333,91.73333333333333
947,6.4,-546.1333333333333,102.4
948,23.466666666666665,-546.1333333333333,104.53333333333333
949,34.13333333333333,-552.5333333333333,98.13333333333333
950,40.53333333333333,-552.5333333333333,91.73333333333333
951,46.93333333333333,-563.2,59.733333333333334
952,53.333333333333336,-588.8,42.666666666666664
953,66.13333333333333,-629.3333333333334,14.933333333333334
954,64.0,-669.8666666666667,-17.066666666666666
955,83.2,-736.0,-55.46666666666667
956,72.53333333333333,-800.0,-59.733333333333334
957,59.733333333333334,-840.5333333333333,-51.2
958,40.53333333333333,-855.4666666666667,-40.53333333333333
959,32.0,-868.2666666666667,-21.333333333333332
960,17.066666666666666,-851.1999999999999,-12.8
961,21.333333333333332,-825.6,-17.066666666666666
962,25.6,-789.3333333333334,-27.733333333333334
963,27.733333333333334,-733.8666666666667,-44.8
964,10.666666666666666,-676.2666666666667,-68.26666666666667
965,8.533333333333333,-625.0666666666666,-106.66666666666667
966,8.533333333333333,-576.0,-128.0
967,6.4,-552.5333333333333,-147.2
968,4.266666666666667,-531.2,-155.73333333333332
969,4.266666666666667,-505.59999999999997,-157.86666666666667
970,8.533333333333333,-486.4,-157.86666666666667
971,17.066666666666666,-473.59999999999997,-157.86666666666667
972,44.8,-462.93333333333334,-168.53333333333333
973,59.733333333333334,-441.59999999999997,-168.53333333333333
974,78.93333333333334,-433.06666666666666,-172.8
975,106.66666666666667,-413.8666666666667,-168.53333333333333
976,138.66666666666666,-394.6666666666667,-185.6
977,166.4,-386.1333333333333,-189.86666666666667
978,183.46666666666667,-371.2,-200.53333333333333
979,202.66666666666666,-352.0,-200.53333333333333
980,219.73333333333332,-352.0,-204.8
981,206.93333333333334,-352.0,-200.53333333333333
982,196.26666666666665,-360.5333333333333,-177.06666666666666
983,160.0,-377.6,-164.26666666666665
984,132.26666666666665,-407.46666666666664,-147.2
985,117.33333333333333,-441.59999999999997,-119.46666666666667
986,91.73333333333333,-469.3333333333333,-113.06666666666666
987,66.13333333333333,-488.5333333333333,-93.86666666666666
988,36.266666666666666,-514.1333333333333,-85.33333333333333
989,-2.1333333333333333,-529.0666666666666,-78.93333333333334
990,-27.733333333333334,-535.4666666666667,-61.86666666666667
991,-57.6,-539.7333333333333,-57.6
992,-81.06666666666666,-544.0,-66.13333333333333
993,-85.33333333333333,-546.1333333333333,-61.86666666666667
994,-87.46666666666667,-546.1333333333333,-64.0
995,-89.6,-550.4,-81.06666666666666
996,-76.8,-556.8,-68.26666666666667
997,-57.6,-556.8,-78.93333333333334
998,-42.666666666666664,-550.4,-66.13333333333333
999,-4.266666666666667,-558.9333333333333,-70.4
1000,17.066666666666666,-546.1333333333333,-64.0
1001,42.666666666666664,-548.2666666666667,-51.2
1002,59.733333333333334,-526.9333333333333,-36.266666666666666
1003,85.33333333333333,-501.3333333333333,-23.466666666666665
1004,93.86666666666666,-497.06666666666666,-19.2
1005,98.13333333333333,-480.0,-17.066666666666666
1006,108.8,-469.3333333333333,-6.4
1007,115.2,-467.2,-25.6
1008,106.66666666666667,-439.46666666666664,-21.333333333333332
1009,110.93333333333334,-460.8,-19.2
1010,100.26666666666667,-473.59999999999997,-12.8
1011,76.8,-477.8666666666667,-17.066666666666666
1012,74.66666666666667,-507.73333333333335,-21.333333333333332
1013,55.46666666666667,-505.59999999999997,-19.2
1014,34.13333333333333,-514.1333333333333,-19.2
1015,36.266666666666666,-522.6666666666666,-10.666666666666666
1016,23.466666666666665,-514.1333333333333,-19.2
1017,8.533333333333333,-520.5333333333333,-14.933333333333334
1018,8.533333333333333,-505.59999999999997,-17.066666666666666
1019,4.266666666666667,-497.06666666666666,-19.2
1020,12.8,-488.5333333333333,-14.933333333333334
1021,17.066666666666666,-475.73333333333335,-12.8
1022,29.866666666666667,-469.3333333333333,-17.066666666666666
1023,36.266666666666666,-458.6666666666667,-17.066666666666666
1024,44.8,-452.26666666666665,-12.8
1025,55.46666666666667,-452.26666666666665,-6.4
1026,68.26666666666667,-450.1333333333333,-12.8
1027,76.8,-445.8666666666667,-4.266666666666667
1028,89.6,-439.46666666666664,-6.4
1029,100.26666666666667,-452.26666666666665,8.533333333333333
1030,100.26666666666667,-448.0,-2.1333333333333333
1031,102.4,-454.4,8.533333333333333
1032,91.73333333333333,-460.8,4.266666666666667
1033,89.6,-465.06666666666666,12.8
1034,85.33333333333333,-471.46666666666664,4.266666666666667
1035,85.33333333333333,-473.59999999999997,6.4
1036,85.33333333333333,-480.0,14.933333333333334
1037,74.66666666666667,-475.73333333333335,17.066666666666666
1038,66.13333333333333,-469.3333333333333,12.8
1039,74.66666666666667,-473.59999999999997,19.2
1040,66.13333333333333,-465.06666666666666,25.6
1041,59.733333333333334,-452.26666666666665,19.2
1042,64.0,-458.6666666666667,32.0
1043,57.6,-458.6666666666667,36.266666666666666
1044,61.86666666666667,-460.8,40.53333333333333
1045,57.6,-450.1333333333333,34.13333333333333
1046,57.6,-452.26666666666665,36.266666666666666
1047,55.46666666666667,-452.26666666666665,42.666666666666664
1048,49.06666666666666,-458.6666666666667,51.2
1049,57.6,-454.4,49.06666666666666
1050,53.333333333333336,-467.2,53.333333333333336
1051,57.6,-480.0,53.333333333333336
1052,78.93333333333334,-490.6666666666667,40.53333333333333
1053,85.33333333333333,-505.59999999999997,42.666666666666664
1054,98.13333333333333,-516.2666666666667,38.4
1055,113.06666666666666,-524.8,29.866666666666667
1056,128.0,-541.8666666666667,17.066666666666666
1057,138.66666666666666,-556.8,25.6
1058,155.73333333333332,-552.5333333333333,25.6
1059,155.73333333333332,-571.7333333333333,29.866666666666667
1060,157.86666666666667,-576.0,34.13333333333333
1061,149.33333333333334,-578.1333333333333,40.53333333333333
1062,151.46666666666667,-586.6666666666666,40.53333333333333
1063,151.46666666666667,-580.2666666666667,64.0
1064,145.06666666666666,-582.4,68.26666666666667
1065,132.26666666666665,-576.0,100.26666666666667
1066,115.2,-571.7333333333333,100.26666666666667
1067,106.66666666666667,-573.8666666666667,119.46666666666667
1068,96.0,-569.6,132.26666666666665
1069,87.46666666666667,-578.1333333333333,145.06666666666666
1070,74.66666666666667,-573.8666666666667,155.73333333333332
1071,57.6,-571.7333333333333,160.0
1072,32.0,-573.8666666666667,155.73333333333332
1073,36.266666666666666,-567.4666666666667,151.46666666666667
1074,42.666666666666664,-561.0666666666666,157.86666666666667
1075,46.93333333333333,-548.2666666666667,147.2
1076,44.8,-546.1333333333333,142.93333333333334
1077,66.13333333333333,-541.8666666666667,125.86666666666666
1078,78.93333333333334,-541.8666666666667,96.0
1079,102.4,-550.4,66.13333333333333
1080,130.13333333333333,-582.4,14.933333333333334
1081,142.93333333333334,-642.1333333333333,-29.866666666666667
1082,164.26666666666665,-676.2666666666667,-68.26666666666667
1083,196.26666666666665,-736.0,-113.06666666666666
1084,258.1333333333333,-785.0666666666666,-151.46666666666667
1085,315.73333333333335,-840.5333333333333,-155.73333333333332
1086,347.73333333333335,-842.6666666666666,-179.2
1087,379.73333333333335,-834.1333333333333,-181.33333333333334
1088,371.2,-795.7333333333333,-224.0
1089,366.93333333333334,-753.0666666666666,-251.73333333333332
1090,352.0,-718.9333333333333,-266.6666666666667
1091,315.73333333333335,-689.0666666666666,-266.6666666666667
1092,296.5333333333333,-686.9333333333333,-251.73333333333332
1093,238.93333333333334,-659.2,-249.6
1094,168.53333333333333,-646.4,-224.0
1095,117.33333333333333,-620.8,-209.06666666666666
1096,46.93333333333333,-576.0,-202.66666666666666
1097,-6.4,-556.8,-202.66666666666666
1098,-64.0,-518.4,-202.66666666666666
1099,-117.33333333333333,-475.73333333333335,-185.6
1100,-174.93333333333334,-437.3333333333333,-168.53333333333333
1101,-217.6,-394.6666666666667,-149.33333333333334
1102,-241.06666666666666,-369.06666666666666,-147.2
1103,-262.4,-339.2,-145.06666666666666
1104,-260.26666666666665,-328.5333333333333,-134.4
1105,-219.73333333333332,-339.2,-104.53333333333333
1106,-185.6,-347.73333333333335,-115.2
1107,-134.4,-364.8,-119.46666666666667
1108,-70.4,-388.26666666666665,-115.2
1109,-4.266666666666667,-413.8666666666667,-117.33333333333333
1110,61.86666666666667,-448.0,-113.06666666666666
1111,115.2,-465.06666666666666,-113.06666666666666
1112,168.53333333333333,-486.4,-130.13333333333333
1113,224.0,-509.8666666666667,-125.86666666666666
1114,264.5333333333333,-516.2666666666667,-136.53333333333333
1115,300.8,-522.6666666666666,-140.8
1116,309.3333333333333,-535.4666666666667,-134.4
1117,320.0,-531.2,-142.93333333333334
1118,294.4,-522.6666666666666,-130.13333333333333
1119,266.6666666666667,-514.1333333333333,-138.66666666666666
1120,228.26666666666665,-507.73333333333335,-121.6
1121,189.86666666666667,-512.0,-119.46666666666667
1122,145.06666666666666,-501.3333333333333,-113.06666666666666
1123,108.8,-501.3333333333333,-113.06666666666666
1124,61.86666666666667,-509.8666666666667,-100.26666666666667
1125,36.266666666666666,-512.0,-76.8
1126,19.2,-512.0,-64.0
1127,4.266666666666667,-512.0,-64.0
1128,-6.4,-509.8666666666667,-51.2
1129,0.0,-505.59999999999997,-55.46666666666667
1130,6.4,-518.4,-40.53333333333333
1131,17.066666666666666,-518.4,-38.4
1132,34.13333333333333,-529.0666666666666,-34.13333333333333
1133,51.2,-526.9333333333333,-53.333333333333336
1134,68.26666666666667,-518.4,-53.333333333333336
1135,78.93333333333334,-520.5333333333333,-59.733333333333334
1136,85.33333333333333,-514.1333333333333,-66.13333333333333
1137,87.46666666666667,-501.3333333333333,-59.733333333333334
1138,70.4,-482.1333333333333,-76.8
1139,74.66666666666667,-482.1333333333333,-57.6
1140,68.26666666666667,-475.73333333333335,-59.733333333333334
1141,46.93333333333333,-469.3333333333333,-49.06666666666666
1142,40.53333333333333,-471.46666666666664,-49.06666666666666
1143,23.466666666666665,-458.6666666666667,-44.8
1144,4.266666666666667,-462.93333333333334,-32.0
1145,-4.266666666666667,-456.5333333333333,-29.866666666666667
1146,-10.666666666666666,-454.4,-23.466666666666665
1147,-17.066666666666666,-437.3333333333333,-34.13333333333333
1148,-19.2,-471.46666666666664,-10.666666666666666
1149,-23.466666666666665,-465.06666666666666,-21.333333333333332
1150,-25.6,-469.3333333333333,-10.666666666666666
1151,-27.733333333333334,-465.06666666666666,-12.8
1152,-19.2,-469.3333333333333,-4.266666666666667
1153,-19.2,-473.59999999999997,0.0
1154,-10.666666666666666,-462.93333333333334,-2.1333333333333333
1155,-14.933333333333334,-462.93333333333334,-8.533333333333333
1156,-10.666666666666666,-460.8,-2.1333333333333333
1157,0.0,-454.4,8.533333333333333
1158,6.4,-452.26666666666665,4.266666666666667
1159,17.066666666666666,-456.5333333333333,12.8
1160,27.733333333333334,-448.0,14.933333333333334
1161,21.333333333333332,-452.26666666666665,23.466666666666665
1162,25.6,-460.8,34.13333333333333
1163,29.866666666666667,-460.8,23.466666666666665
1164,34.13333333333333,-469.3333333333333,25.6
1165,32.0,-462.93333333333334,25.6
1166,29.866666666666667,-460.8,14.933333333333334
1167,23.466666666666665,-469.3333333333333,17.066666666666666
1168,27.733333333333334,-471.46666666666664,21.333333333333332
1169,21.333333333333332,-469.3333333333333,34.13333333333333
1170,32.0,-482.1333333333333,14.933333333333334
1171,25.6,-488.5333333333333,32.0
1172,32.0,-507.73333333333335,21.333333333333332
1173,25.6,-514.1333333333333,25.6
1174,36.266666666666666,-516.2666666666667,23.466666666666665
1175,34.13333333333333,-535.4666666666667,34.13333333333333
1176,29.866666666666667,-544.0,27.733333333333334
1177,32.0,-554.6666666666666,27.733333333333334
1178,29.866666666666667,-550.4,21.333333333333332
1179,23.466666666666665,-561.0666666666666,25.6
1180,8.533333333333333,-573.8666666666667,29.866666666666667
1181,0.0,-569.6,29.866666666666667
1182,-17.066666666666666,-569.6,34.13333333333333
1183,-29.866666666666667,-561.0666666666666,38.4
1184,-44.8,-565.3333333333334,55.46666666666667
1185,-49.06666666666666,-569.6,68.26666666666667
1186,-68.26666666666667,-571.7333333333333,85.33333333333333
1187,-64.0,-573.8666666666667,104.53333333333333
1188,-76.8,-571.7333333333333,110.93333333333334
1189,-70.4,-571.7333333333333,117.33333333333333
1190,-64.0,-563.2,128.0
1191,-55.46666666666667,-565.3333333333334,147.2
1192,-32.0,-565.3333333333334,147.2
1193,-8.533333333333333,-561.0666666666666,142.93333333333334
1194,4.266666666666667,-550.4,147.2
1195,25.6,-541.8666666666667,132.26666666666665
1196,51.2,-541.8666666666667,113.06666666666666
1197,76.8,-548.2666666666667,78.93333333333334
1198,89.6,-569.6,53.333333333333336
1199,93.86666666666666,-614.4,4.266666666666667
1200,91.73333333333333,-663.4666666666667,-23.466666666666665
1201,85.33333333333333,-725.3333333333334,-66.13333333333333
1202,64.0,-759.4666666666667,-87.46666666666667
1203,44.8,-797.8666666666667,-76.8
1204,14.933333333333334,-814.9333333333333,-64.0
1205,2.1333333333333333,-817.0666666666666,-59.733333333333334
1206,-8.533333333333333,-819.2,-42.666666666666664
1207,4.266666666666667,-810.6666666666666,-53.333333333333336
1208,14.933333333333334,-782.9333333333333,-53.333333333333336
1209,36.266666666666666,-755.2,-40.53333333333333
1210,57.6,-718.9333333333333,-66.13333333333333
1211,68.26666666666667,-686.9333333333333,-68.26666666666667
1212,85.33333333333333,-663.4666666666667,-98.13333333333333
1213,104.53333333333333,-631.4666666666667,-125.86666666666666
1214,140.8,-590.9333333333333,-157.86666666666667
1215,170.66666666666666,-554.6666666666666,-170.66666666666666
1216,198.4,-518.4,-187.73333333333332
1217,217.6,-484.26666666666665,-204.8
1218,234.66666666666666,-454.4,-221.86666666666667
1219,253.86666666666667,-428.8,-230.4
1220,253.86666666666667,-394.6666666666667,-226.13333333333333
1221,256.0,-377.6,-221.86666666666667
1222,247.46666666666667,-369.06666666666666,-221.86666666666667
1223,228.26666666666665,-356.26666666666665,-211.2
1224,209.06666666666666,-356.26666666666665,-194.13333333333333
1225,172.8,-366.93333333333334,-177.06666666666666
1226,138.66666666666666,-379.73333333333335,-160.0
1227,108.8,-403.2,-147.2
1228,74.66666666666667,-422.4,-138.66666666666666
1229,44.8,-445.8666666666667,-125.86666666666666
1230,14.933333333333334,-473.59999999999997,-106.66666666666667
1231,-2.1333333333333333,-494.93333333333334,-123.73333333333333
1232,-17.066666666666666,-514.1333333333333,-98.13333333333333
1233,-44.8,-541.8666666666667,-93.86666666666666
1234,-49.06666666666666,-554.6666666666666,-74.66666666666667
1235,-57.6,-558.9333333333333,-76.8
1236,-64.0,-552.5333333333333,-68.26666666666667
1237,-66.13333333333333,-552.5333333333333,-64.0
1238,-55.46666666666667,-544.0,-61.86666666666667
1239,-40.53333333333333,-544.0,-66.13333333333333
1240,-25.6,-544.0,-74.66666666666667
1241,-8.533333333333333,-533.3333333333334,-57.6
1242,14.933333333333334,-537.6,-59.733333333333334
1243,34.13333333333333,-531.2,-51.2
1244,46.93333333333333,-518.4,-44.8
1245,59.733333333333334,-505.59999999999997,-19.2
1246,76.8,-516.2666666666667,-21.333333333333332
1247,91.73333333333333,-505.59999999999997,-19.2
1248,98.13333333333333,-488.5333333333333,-21.333333333333332
1249,106.66666666666667,-492.8,-17.066666666666666
1250,93.86666666666666,-480.0,-17.066666666666666
1251,93.86666666666666,-482.1333333333333,-12.8
1252,78.93333333333334,-471.46666666666664,-27.733333333333334
1253,74.66666666666667,-473.59999999999997,-32.0
1254,74.66666666666667,-462.93333333333334,-29.866666666666667
1255,66.13333333333333,-460.8,-36.266666666666666
1256,57.6,-473.59999999999997,-21.333333333333332
1257,55.46666666666667,-450.1333333333333,-29.866666666666667
1258,57.6,-448.0,-25.6
1259,59.733333333333334,-445.8666666666667,-17.066666666666666
1260,61.86666666666667,-439.46666666666664,-14.933333333333334
1261,68.26666666666667,-439.46666666666664,-10.666666666666666
1262,64.0,-433.06666666666666,-19.2
1263,78.93333333333334,-426.6666666666667,-10.666666666666666
1264,89.6,-422.4,-8.533333333333333
1265,102.4,-416.0,-6.4
1266,102.4,-416.0,-14.933333333333334
1267,104.53333333333333,-416.0,-23.466666666666665
1268,113.06666666666666,-420.26666666666665,-17.066666666666666
1269,115.2,-411.73333333333335,-19.2
1270,117.33333333333333,-424.5333333333333,-19.2
1271,117.33333333333333,-433.06666666666666,-19.2
1272,117.33333333333333,-430.93333333333334,-10.666666666666666
1273,119.46666666666667,-443.73333333333335,-10.666666666666666
1274,119.46666666666667,-443.73333333333335,-14.933333333333334
1275,123.73333333333333,-450.1333333333333,-12.8
1276,121.6,-465.06666666666666,-10.666666666666666
1277,117.33333333333333,-473.59999999999997,-6.4
1278,106.66666666666667,-477.8666666666667,-6.4
1279,108.8,-482.1333333333333,2.1333333333333333
1280,100.26666666666667,-486.4,6.4
1281,91.73333333333333,-492.8,12.8
1282,87.46666666666667,-501.3333333333333,2.1333333333333333
1283,76.8,-497.06666666666666,10.666666666666666
1284,68.26666666666667,-494.93333333333334,14.933333333333334
1285,61.86666666666667,-503.46666666666664,25.6
1286,66.13333333333333,-497.06666666666666,29.866666666666667
1287,61.86666666666667,-499.2,46.93333333333333
1288,57.6,-501.3333333333333,51.2
1289,53.333333333333336,-490.6666666666667,51.2
1290,46.93333333333333,-490.6666666666667,42.666666666666664
1291,51.2,-492.8,49.06666666666666
1292,51.2,-497.06666666666666,57.6
1293,46.93333333333333,-497.06666666666666,51.2
1294,51.2,-501.3333333333333,49.06666666666666
1295,53.333333333333336,-494.93333333333334,55.46666666666667
1296,53.333333333333336,-501.3333333333333,59.733333333333334
1297,64.0,-505.59999999999997,49.06666666666666
1298,70.4,-505.59999999999997,40.53333333333333
1299,87.46666666666667,-509.8666666666667,42.666666666666664
1300,102.4,-518.4,38.4
1301,108.8,-522.6666666666666,36.266666666666666
1302,125.86666666666666,-533.3333333333334,36.266666666666666
1303,130.13333333333333,-544.0,38.4
1304,138.66666666666666,-552.5333333333333,53.333333333333336
1305,151.46666666666667,-569.6,53.333333333333336
1306,149.33333333333334,-578.1333333333333,68.26666666666667
1307,149.33333333333334,-597.3333333333334,72.53333333333333
1308,142.93333333333334,-610.1333333333333,85.33333333333333
1309,145.06666666666666,-625.0666666666666,113.06666666666666
1310,138.66666666666666,-622.9333333333333,113.06666666666666
1311,140.8,-633.6,121.6
1312,123.73333333333333,-633.6,138.66666666666666
1313,119.46666666666667,-637.8666666666667,142.93333333333334
1314,100.26666666666667,-629.3333333333334,160.0
1315,87.46666666666667,-620.8,172.8
1316,78.93333333333334,-612.2666666666667,179.2
1317,68.26666666666667,-595.2,179.2
1318,59.733333333333334,-565.3333333333334,168.53333333333333
1319,57.6,-552.5333333333333,164.26666666666665
1320,55.46666666666667,-533.3333333333334,155.73333333333332
1321,74.66666666666667,-514.1333333333333,125.86666666666666
1322,98.13333333333333,-509.8666666666667,85.33333333333333
1323,113.06666666666666,-535.4666666666667,55.46666666666667
1324,138.66666666666666,-567.4666666666667,4.266666666666667
1325,170.66666666666666,-618.6666666666666,-46.93333333333333
1326,211.2,-684.8,-89.6
1327,230.4,-710.4,-100.26666666666667
1328,266.6666666666667,-759.4666666666667,-98.13333333333333
1329,285.8666666666667,-761.6,-110.93333333333334
1330,307.2,-744.5333333333333,-121.6
1331,334.93333333333334,-708.2666666666667,-151.46666666666667
1332,356.26666666666665,-701.8666666666667,-172.8
1333,360.5333333333333,-659.2,-202.66666666666666
1334,360.5333333333333,-642.1333333333333,-232.53333333333333
1335,328.5333333333333,-622.9333333333333,-253.86666666666667
1336,283.73333333333335,-612.2666666666667,-264.5333333333333
1337,243.2,-610.1333333333333,-279.46666666666664
1338,172.8,-601.6,-266.6666666666667
1339,93.86666666666666,-582.4,-241.06666666666666
1340,14.933333333333334,-561.0666666666666,-228.26666666666665
1341,-51.2,-531.2,-217.6
1342,-117.33333333333333,-499.2,-209.06666666666666
1343,-179.2,-475.73333333333335,-189.86666666666667
1344,-236.79999999999998,-443.73333333333335,-179.2
1345,-285.8666666666667,-418.1333333333333,-168.53333333333333
1346,-302.93333333333334,-405.3333333333333,-157.86666666666667
1347,-298.6666666666667,-396.8,-153.6
1348,-258.1333333333333,-401.06666666666666,-151.46666666666667
1349,-185.6,-411.73333333333335,-130.13333333333333
1350,-100.26666666666667,-437.3333333333333,-110.93333333333334
1351,-29.866666666666667,-454.4,-98.13333333333333
1352,46.93333333333333,-482.1333333333333,-81.06666666666666
1353,130.13333333333333,-512.0,-66.13333333333333
1354,202.66666666666666,-550.4,-66.13333333333333
1355,281.6,-576.0,-64.0
1356,311.46666666666664,-597.3333333333334,-51.2
1357,375.46666666666664,-612.2666666666667,-64.0
1358,430.93333333333334,-620.8,-85.33333333333333
1359,418.1333333333333,-603.7333333333333,-93.86666666666666
1360,381.8666666666667,-573.8666666666667,-91.73333333333333
1361,349.8666666666667,-554.6666666666666,-96.0
1362,302.93333333333334,-529.0666666666666,-102.4
1363,238.93333333333334,-499.2,-113.06666666666666
1364,185.6,-484.26666666666665,-91.73333333333333
1365,134.4,-471.46666666666664,-78.93333333333334
1366,106.66666666666667,-452.26666666666665,-64.0
1367,66.13333333333333,-456.5333333333333,-49.06666666666666
1368,25.6,-443.73333333333335,-19.2
1369,6.4,-443.73333333333335,-19.2
1370,-6.4,-445.8666666666667,-6.4
1371,-14.933333333333334,-445.8666666666667,-8.533333333333333
1372,-21.333333333333332,-441.59999999999997,-4.266666666666667
1373,-8.533333333333333,-454.4,-10.666666666666666
1374,21.333333333333332,-467.2,-2.1333333333333333
1375,23.466666666666665,-458.6666666666667,-6.4
1376,44.8,-462.93333333333334,-29.866666666666667
1377,61.86666666666667,-469.3333333333333,-27.733333333333334
1378,85.33333333333333,-475.73333333333335,-23.466666666666665
1379,85.33333333333333,-477.8666666666667,-29.866666666666667
1380,91.73333333333333,-471.46666666666664,-27.733333333333334
1381,91.73333333333333,-469.3333333333333,-27.733333333333334
1382,83.2,-462.93333333333334,-29.866666666666667
1383,64.0,-458.6666666666667,-32.0
1384,46.93333333333333,-456.5333333333333,-17.066666666666666
1385,32.0,-452.26666666666665,-14.933333333333334
1386,53.333333333333336,-454.4,-6.4
1387,17.066666666666666,-460.8,-4.266666666666667
1388,4.266666666666667,-465.06666666666666,2.1333333333333333
1389,0.0,-469.3333333333333,6.4
1390,-2.1333333333333333,-465.06666666666666,0.0
1391,-6.4,-467.2,6.4
1392,-6.4,-465.06666666666666,4.266666666666667
1393,4.266666666666667,-473.59999999999997,8.533333333333333
1394,0.0,-465.06666666666666,17.066666666666666
1395,8.533333333333333,-458.6666666666667,12.8
1396,6.4,-460.8,27.733333333333334
1397,6.4,-460.8,34.13333333333333
1398,2.1333333333333333,-465.06666666666666,23.466666666666665
1399,0.0,-467.2,27.733333333333334
1400,-4.266666666666667,-454.4,32.0
1401,-4.266666666666667,-454.4,34.13333333333333
1402,-4.266666666666667,-456.5333333333333,40.53333333333333
1403,-4.266666666666667,-458.6666666666667,53.333333333333336
1404,6.4,-462.93333333333334,53.333333333333336
1405,4.266666666666667,-456.5333333333333,46.93333333333333
1406,8.533333333333333,-460.8,49.06666666666666
1407,12.8,-465.06666666666666,51.2
1408,8.533333333333333,-460.8,34.13333333333333
1409,8.533333333333333,-456.5333333333333,49.06666666666666
1410,10.666666666666666,-454.4,42.666666666666664
1411,19.2,-467.2,36.266666666666666
1412,21.333333333333332,-462.93333333333334,40.53333333333333
1413,23.466666666666665,-477.8666666666667,34.13333333333333
1414,40.53333333333333,-488.5333333333333,29.866666666666667
1415,32.0,-509.8666666666667,42.666666666666664
1416,42.666666666666664,-520.5333333333333,49.06666666666666
1417,44.8,-535.4666666666667,51.2
1418,46.93333333333333,-539.7333333333333,66.13333333333333
1419,57.6,-550.4,61.86666666666667
1420,64.0,-569.6,72.53333333333333
1421,53.333333333333336,-567.4666666666667,74.66666666666667
1422,49.06666666666666,-569.6,76.8
1423,44.8,-571.7333333333333,78.93333333333334
1424,32.0,-567.4666666666667,81.06666666666666
1425,17.066666666666666,-556.8,91.73333333333333
1426,-8.533333333333333,-552.5333333333333,96.0
1427,-12.8,-546.1333333333333,89.6
1428,-19.2,-541.8666666666667,89.6
1429,-25.6,-529.0666666666666,102.4
1430,-25.6,-497.06666666666666,104.53333333333333
1431,-10.666666666666666,-514.1333333333333,123.73333333333333
1432,-4.266666666666667,-503.46666666666664,132.26666666666665
1433,-6.4,-499.2,125.86666666666666
1434,8.533333333333333,-494.93333333333334,115.2
1435,12.8,-490.6666666666667,98.13333333333333
1436,19.2,-512.0,53.333333333333336
1437,23.466666666666665,-533.3333333333334,8.533333333333333
1438,29.866666666666667,-569.6,-25.6
1439,32.0,-629.3333333333334,-87.46666666666667
1440,27.733333333333334,-731.7333333333333,-151.46666666666667
1441,19.2,-823.4666666666667,-170.66666666666666
1442,-10.666666666666666,-887.4666666666667,-170.66666666666666
1443,-19.2,-955.7333333333333,-136.53333333333333
1444,-36.266666666666666,-989.8666666666667,-91.73333333333333
1445,-21.333333333333332,-1009.0666666666666,-51.2
1446,-8.533333333333333,-1011.1999999999999,-19.2
1447,6.4,-1002.6666666666666,-23.466666666666665
1448,44.8,-930.1333333333333,-83.2
1449,76.8,-844.8,-149.33333333333334
1450,85.33333333333333,-757.3333333333334,-221.86666666666667
1451,91.73333333333333,-672.0,-285.8666666666667
1452,115.2,-627.2,-302.93333333333334
1453,138.66666666666666,-544.0,-313.6
1454,174.93333333333334,-477.8666666666667,-290.1333333333333
1455,221.86666666666667,-422.4,-258.1333333333333
1456,251.73333333333332,-401.06666666666666,-232.53333333333333
1457,266.6666666666667,-388.26666666666665,-217.6
1458,283.73333333333335,-386.1333333333333,-211.2
1459,285.8666666666667,-405.3333333333333,-226.13333333333333
1460,281.6,-445.8666666666667,-215.46666666666667
1461,281.6,-462.93333333333334,-219.73333333333332
1462,247.46666666666667,-477.8666666666667,-209.06666666666666
1463,236.79999999999998,-512.0,-221.86666666666667
1464,192.0,-520.5333333333333,-200.53333333333333
1465,153.6,-531.2,-204.8
1466,125.86666666666666,-531.2,-202.66666666666666
1467,89.6,-537.6,-194.13333333333333
1468,59.733333333333334,-550.4,-179.2
1469,23.466666666666665,-550.4,-157.86666666666667
1470,-2.1333333333333333,-535.4666666666667,-147.2
1471,-23.466666666666665,-526.9333333333333,-145.06666666666666
1472,-44.8,-516.2666666666667,-125.86666666666666
1473,-66.13333333333333,-501.3333333333333,-106.66666666666667
1474,-85.33333333333333,-467.2,-121.6
1475,-76.8,-456.5333333333333,-100.26666666666667
1476,-81.06666666666666,-445.8666666666667,-96.0
1477,-85.33333333333333,-430.93333333333334,-96.0
1478,-74.66666666666667,-428.8,-85.33333333333333
1479,-64.0,-428.8,-83.2
1480,-53.333333333333336,-418.1333333333333,-85.33333333333333
1481,-44.8,-413.8666666666667,-81.06666666666666
1482,-21.333333333333332,-422.4,-72.53333333333333
1483,-12.8,-426.6666666666667,-68.26666666666667
1484,0.0,-428.8,-55.46666666666667
1485,10.666666666666666,-428.8,-46.93333333333333
1486,34.13333333333333,-439.46666666666664,-40.53333333333333
1487,42.666666666666664,-441.59999999999997,-40.53333333333333
1488,57.6,-460.8,-29.866666666666667
1489,46.93333333333333,-439.46666666666664,-29.866666666666667
1490,40.53333333333333,-473.59999999999997,-25.6
1491,57.6,-460.8,-27.733333333333334
1492,61.86666666666667,-462.93333333333334,-27.733333333333334
1493,74.66666666666667,-450.1333333333333,-44.8
1494,64.0,-430.93333333333334,-44.8
1495,83.2,-430.93333333333334,-64.0
1496,72.53333333333333,-424.5333333333333,-57.6
1497,89.6,-420.26666666666665,-42.666666666666664
1498,100.26666666666667,-416.0,-44.8
1499,100.26666666666667,-422.4,-40.53333333333333
1500,93.86666666666666,-422.4,-46.93333333333333
1501,100.26666666666667,-428.8,-34.13333333333333
1502,100.26666666666667,-443.73333333333335,-42.666666666666664
1503,100.26666666666667,-445.8666666666667,-44.8
1504,89.6,-458.6666666666667,-49.06666666666666
1505,96.0,-480.0,-36.266666666666666
1506,91.73333333333333,-490.6666666666667,-44.8
1507,93.86666666666666,-499.2,-46.93333333333333
1508,85.33333333333333,-514.1333333333333,-36.266666666666666
1509,96.0,-516.2666666666667,-51.2
1510,93.86666666666666,-537.6,-46.93333333333333
1511,91.73333333333333,-531.2,-51.2
1512,89.6,-533.3333333333334,-40.53333333333333
1513,98.13333333333333,-533.3333333333334,-36.266666666666666
1514,89.6,-514.1333333333333,-40.53333333333333
1515,93.86666666666666,-509.8666666666667,-38.4
1516,98.13333333333333,-501.3333333333333,-32.0
1517,93.86666666666666,-480.0,-34.13333333333333
1518,93.86666666666666,-477.8666666666667,-29.866666666666667
1519,98.13333333333333,-477.8666666666667,-14.933333333333334
1520,93.86666666666666,-475.73333333333335,-14.933333333333334
1521,98.13333333333333,-486.4,-8.533333333333333
1522,83.2,-484.26666666666665,0.0
1523,87.46666666666667,-512.0,4.266666666666667
1524,87.46666666666667,-518.4,2.1333333333333333
1525,74.66666666666667,-529.0666666666666,-2.1333333333333333
1526,64.0,-522.6666666666666,-6.4
1527,61.86666666666667,-522.6666666666666,-4.266666666666667
1528,66.13333333333333,-520.5333333333333,-10.666666666666666
1529,59.733333333333334,-518.4,-14.933333333333334
1530,51.2,-497.06666666666666,-32.0
1531,59.733333333333334,-490.6666666666667,-17.066666666666666
1532,66.13333333333333,-480.0,-21.333333333333332
1533,68.26666666666667,-458.6666666666667,-21.333333333333332
1534,72.53333333333333,-448.0,-19.2
1535,72.53333333333333,-439.46666666666664,-14.933333333333334
1536,83.2,-430.93333333333334,-10.666666666666666
1537,83.2,-433.06666666666666,-14.933333333333334
1538,89.6,-437.3333333333333,-19.2
1539,96.0,-445.8666666666667,-10.666666666666666
1540,91.73333333333333,-452.26666666666665,-12.8
1541,89.6,-460.8,-12.8
1542,93.86666666666666,-477.8666666666667,-2.1333333333333333
1543,87.46666666666667,-486.4,-4.266666666666667
1544,91.73333333333333,-507.73333333333335,4.266666666666667
1545,106.66666666666667,-524.8,-2.1333333333333333
1546,108.8,-541.8666666666667,-6.4
1547,102.4,-541.8666666666667,-2.1333333333333333
1548,113.06666666666666,-544.0,2.1333333333333333
1549,113.06666666666666,-563.2,19.2
1550,119.46666666666667,-558.9333333333333,17.066666666666666
1551,119.46666666666667,-550.4,17.066666666666666
1552,123.73333333333333,-550.4,23.466666666666665
1553,132.26666666666665,-554.6666666666666,34.13333333333333
1554,130.13333333333333,-548.2666666666667,44.8
1555,145.06666666666666,-546.1333333333333,53.333333333333336
1556,155.73333333333332,-544.0,70.4
1557,151.46666666666667,-544.0,68.26666666666667
1558,153.6,-541.8666666666667,81.06666666666666
1559,162.13333333333333,-541.8666666666667,70.4
1560,164.26666666666665,-537.6,83.2
1561,166.4,-537.6,91.73333333333333
1562,170.66666666666666,-533.3333333333334,78.93333333333334
1563,166.4,-531.2,83.2
1564,183.46666666666667,-539.7333333333333,76.8
1565,177.06666666666666,-535.4666666666667,70.4
1566,192.0,-546.1333333333333,87.46666666666667
1567,189.86666666666667,-550.4,81.06666666666666
1568,194.13333333333333,-563.2,93.86666666666666
1569,194.13333333333333,-565.3333333333334,104.53333333333333
1570,187.73333333333332,-565.3333333333334,108.8
1571,185.6,-569.6,136.53333333333333
1572,183.46666666666667,-573.8666666666667,130.13333333333333
1573,174.93333333333334,-569.6,125.86666666666666
1574,166.4,-544.0,104.53333333333333
1575,164.26666666666665,-529.0666666666666,59.733333333333334
1576,160.0,-524.8,4.266666666666667
1577,177.06666666666666,-531.2,-49.06666666666666
1578,194.13333333333333,-569.6,-132.26666666666665
1579,198.4,-657.0666666666666,-217.6
1580,194.13333333333333,-718.9333333333333,-300.8
1581,234.66666666666666,-829.8666666666667,-354.1333333333333
1582,268.8,-910.9333333333333,-347.73333333333335
1583,302.93333333333334,-968.5333333333333,-320.0
1584,300.8,-1038.9333333333334,-292.26666666666665
1585,238.93333333333334,-1013.3333333333334,-288.0
1586,166.4,-987.7333333333333,-288.0
1587,113.06666666666666,-957.8666666666667,-294.4
1588,57.6,-915.1999999999999,-290.1333333333333
1589,27.733333333333334,-840.5333333333333,-298.6666666666667
1590,-34.13333333333333,-772.2666666666667,-305.06666666666666
1591,-83.2,-714.6666666666666,-313.6
1592,-157.86666666666667,-631.4666666666667,-309.3333333333333
1593,-245.33333333333334,-552.5333333333333,-300.8
1594,-313.6,-484.26666666666665,-266.6666666666667
1595,-360.5333333333333,-435.2,-226.13333333333333
1596,-381.8666666666667,-418.1333333333333,-204.8
1597,-386.1333333333333,-398.93333333333334,-181.33333333333334
1598,-379.73333333333335,-398.93333333333334,-157.86666666666667
1599,-339.2,-407.46666666666664,-151.46666666666667
1600,-298.6666666666667,-439.46666666666664,-140.8
1601,-266.6666666666667,-441.59999999999997,-147.2
1602,-217.6,-490.6666666666667,-140.8
1603,-172.8,-522.6666666666666,-160.0
1604,-125.86666666666666,-561.0666666666666,-166.4
1605,-66.13333333333333,-588.8,-179.2
1606,-21.333333333333332,-616.5333333333333,-181.33333333333334
1607,40.53333333333333,-648.5333333333333,-194.13333333333333
1608,91.73333333333333,-678.4,-209.06666666666666
1609,136.53333333333333,-674.1333333333333,-187.73333333333332
1610,192.0,-659.2,-162.13333333333333
1611,209.06666666666666,-612.2666666666667,-142.93333333333334
1612,241.06666666666666,-563.2,-134.4
1613,249.6,-514.1333333333333,-130.13333333333333
1614,247.46666666666667,-465.06666666666666,-136.53333333333333
1615,238.93333333333334,-426.6666666666667,-145.06666666666666
1616,230.4,-373.3333333333333,-145.06666666666666
1617,198.4,-334.93333333333334,-140.8
1618,168.53333333333333,-307.2,-113.06666666666666
1619,117.33333333333333,-305.06666666666666,-96.0
1620,125.86666666666666,-296.5333333333333,-98.13333333333333
1621,104.53333333333333,-290.1333333333333,-98.13333333333333
1622,42.666666666666664,-313.6,-76.8
1623,4.266666666666667,-352.0,-61.86666666666667
1624,-25.6,-384.0,-57.6
1625,-46.93333333333333,-392.5333333333333,-59.733333333333334
1626,-53.333333333333336,-409.6,-66.13333333333333
1627,-72.53333333333333,-422.4,-81.06666666666666
1628,-83.2,-441.59999999999997,-81.06666666666666
1629,-76.8,-456.5333333333333,-78.93333333333334
1630,-74.66666666666667,-456.5333333333333,-87.46666666666667
1631,-68.26666666666667,-460.8,-81.06666666666666
1632,-53.333333333333336,-456.5333333333333,-89.6
1633,-40.53333333333333,-452.26666666666665,-89.6
1634,-27.733333333333334,-441.59999999999997,-83.2
1635,-21.333333333333332,-452.26666666666665,-83.2
1636,-12.8,-443.73333333333335,-53.333333333333336
1637,-4.266666666666667,-448.0,-49.06666666666666
1638,0.0,-454.4,-32.0
1639,8.533333333333333,-460.8,-17.066666666666666
1640,17.066666666666666,-471.46666666666664,-19.2
1641,21.333333333333332,-486.4,-10.666666666666666
1642,21.333333333333332,-507.73333333333335,-14.933333333333334
1643,19.2,-509.8666666666667,-25.6
1644,14.933333333333334,-514.1333333333333,-29.866666666666667
1645,8.533333333333333,-512.0,-40.53333333333333
1646,14.933333333333334,-518.4,-42.666666666666664
1647,2.1333333333333333,-505.59999999999997,-46.93333333333333
1648,-2.1333333333333333,-505.59999999999997,-40.53333333333333
1649,2.1333333333333333,-503.46666666666664,-42.666666666666664
1650,0.0,-505.59999999999997,-38.4
1651,-6.4,-501.3333333333333,-49.06666666666666
1652,-6.4,-501.3333333333333,-38.4
1653,-8.533333333333333,-494.93333333333334,-44.8
1654,-6.4,-482.1333333333333,-46.93333333333333
1655,-68.26666666666667,-477.8666666666667,4.266666666666667
1656,4.266666666666667,-469.3333333333333,-59.733333333333334
1657,21.333333333333332,-448.0,-55.46666666666667
1658,-21.333333333333332,-426.6666666666667,-40.53333333333333
1659,-49.06666666666666,-428.8,-29.866666666666667
1660,-81.06666666666666,-435.2,-14.933333333333334
1661,-93.86666666666666,-456.5333333333333,-12.8
1662,-100.26666666666667,-469.3333333333333,-6.4
1663,-102.4,-497.06666666666666,-10.666666666666666
1664,-100.26666666666667,-516.2666666666667,-17.066666666666666
1665,-96.0,-535.4666666666667,-14.933333333333334
1666,-78.93333333333334,-546.1333333333333,-19.2
1667,-53.333333333333336,-563.2,-12.8
1668,-34.13333333333333,-550.4,-25.6
1669,-17.066666666666666,-546.1333333333333,-17.066666666666666
1670,10.666666666666666,-539.7333333333333,-25.6
1671,21.333333333333332,-520.5333333333333,-19.2
1672,53.333333333333336,-509.8666666666667,-27.733333333333334
1673,64.0,-505.59999999999997,-32.0
1674,64.0,-490.6666666666667,-27.733333333333334
1675,57.6,-477.8666666666667,-38.4
1676,53.333333333333336,-480.0,-44.8
1677,40.53333333333333,-480.0,-36.266666666666666
1678,14.933333333333334,-486.4,-40.53333333333333
1679,2.1333333333333333,-497.06666666666666,-32.0
1680,-12.8,-509.8666666666667,-21.333333333333332
1681,-25.6,-529.0666666666666,-10.666666666666666
1682,-36.266666666666666,-546.1333333333333,-17.066666666666666
1683,-42.666666666666664,-569.6,-10.666666666666666
1684,-57.6,-584.5333333333333,-10.666666666666666
1685,-64.0,-608.0,-2.1333333333333333
1686,-59.733333333333334,-625.0666666666666,-10.666666666666666
1687,-53.333333333333336,-633.6,8.533333333333333
1688,-46.93333333333333,-646.4,4.266666666666667
1689,-34.13333333333333,-631.4666666666667,17.066666666666666
1690,-29.866666666666667,-629.3333333333334,12.8
1691,-10.666666666666666,-627.2,17.066666666666666
1692,-8.533333333333333,-616.5333333333333,25.6
1693,2.1333333333333333,-616.5333333333333,32.0
1694,6.4,-603.7333333333333,27.733333333333334
1695,6.4,-595.2,34.13333333333333
1696,0.0,-584.5333333333333,36.266666666666666
1697,-2.1333333333333333,-582.4,42.666666666666664
1698,-19.2,-584.5333333333333,46.93333333333333
1699,-34.13333333333333,-584.5333333333333,61.86666666666667
1700,-61.86666666666667,-588.8,83.2
1701,-78.93333333333334,-601.6,85.33333333333333
1702,-83.2,-608.0,85.33333333333333
1703,-100.26666666666667,-612.2666666666667,96.0
1704,-121.6,-625.0666666666666,98.13333333333333
1705,-145.06666666666666,-627.2,87.46666666666667
1706,-140.8,-629.3333333333334,85.33333333333333
1707,-157.86666666666667,-627.2,57.6
1708,-172.8,-637.8666666666667,51.2
1709,-168.53333333333333,-650.6666666666666,40.53333333333333
1710,-183.46666666666667,-667.7333333333333,29.866666666666667
1711,-170.66666666666666,-674.1333333333333,36.266666666666666
1712,-168.53333333333333,-691.2,29.866666666666667
1713,-155.73333333333332,-704.0,25.6
1714,-145.06666666666666,-708.2666666666667,17.066666666666666
1715,-130.13333333333333,-706.1333333333333,4.266666666666667
1716,-130.13333333333333,-699.7333333333333,-6.4
1717,-115.2,-684.8,-14.933333333333334
1718,-115.2,-669.8666666666667,-23.466666666666665
1719,-104.53333333333333,-659.2,-32.0
1720,-72.53333333333333,-635.7333333333333,-25.6
1721,-74.66666666666667,-605.8666666666667,-49.06666666666666
1722,-46.93333333333333,-595.2,-38.4
1723,-25.6,-573.8666666666667,-40.53333333333333
1724,-2.1333333333333333,-552.5333333333333,-53.333333333333336
1725,27.733333333333334,-537.6,-87.46666666666667
1726,49.06666666666666,-529.0666666666666,-104.53333333333333
1727,53.333333333333336,-516.2666666666667,-134.4
1728,74.66666666666667,-516.2666666666667,-155.73333333333332
1729,93.86666666666666,-529.0666666666666,-194.13333333333333
1730,102.4,-526.9333333333333,-213.33333333333334
1731,121.6,-526.9333333333333,-241.06666666666666
1732,136.53333333333333,-518.4,-253.86666666666667
1733,130.13333333333333,-512.0,-279.46666666666664
1734,140.8,-490.6666666666667,-292.26666666666665
1735,142.93333333333334,-480.0,-305.06666666666666
1736,149.33333333333334,-460.8,-302.93333333333334
1737,142.93333333333334,-439.46666666666664,-311.46666666666664
1738,160.0,-420.26666666666665,-317.8666666666667
1739,162.13333333333333,-405.3333333333333,-313.6
1740,181.33333333333334,-384.0,-307.2
1741,181.33333333333334,-386.1333333333333,-294.4
1742,202.66666666666666,-390.4,-294.4
1743,181.33333333333334,-386.1333333333333,-264.5333333333333
1744,155.73333333333332,-418.1333333333333,-230.4
1745,132.26666666666665,-443.73333333333335,-211.2
1746,123.73333333333333,-486.4,-185.6
1747,113.06666666666666,-520.5333333333333,-170.66666666666666
1748,104.53333333333333,-552.5333333333333,-164.26666666666665
1749,83.2,-578.1333333333333,-162.13333333333333
1750,57.6,-588.8,-155.73333333333332
1751,27.733333333333334,-595.2,-149.33333333333334
1752,17.066666666666666,-603.7333333333333,-142.93333333333334
1753,-2.1333333333333333,-590.9333333333333,-162.13333333333333
1754,-6.4,-597.3333333333334,-153.6
1755,-6.4,-584.5333333333333,-151.46666666666667
1756,-4.266666666666667,-580.2666666666667,-147.2
1757,4.266666666666667,-567.4666666666667,-145.06666666666666
1758,14.933333333333334,-552.5333333333333,-125.86666666666666
1759,17.066666666666666,-544.0,-117.33333333333333
1760,23.466666666666665,-522.6666666666666,-110.93333333333334
1761,17.066666666666666,-490.6666666666667,-110.93333333333334
1762,27.733333333333334,-471.46666666666664,-102.4
1763,14.933333333333334,-443.73333333333335,-102.4
1764,17.066666666666666,-456.5333333333333,-78.93333333333334
1765,8.533333333333333,-441.59999999999997,-85.33333333333333
1766,2.1333333333333333,-450.1333333333333,-76.8
1767,0.0,-475.73333333333335,-64.0
1768,-4.266666666666667,-482.1333333333333,-61.86666666666667
1769,-6.4,-499.2,-44.8
1770,-6.4,-518.4,-44.8
1771,-8.533333333333333,-529.0666666666666,-32.0
1772,-17.066666666666666,-533.3333333333334,-27.733333333333334
1773,-21.333333333333332,-537.6,-40.53333333333333
1774,-38.4,-526.9333333333333,-44.8
1775,-40.53333333333333,-509.8666666666667,-51.2
1776,-46.93333333333333,-501.3333333333333,-49.06666666666666
1777,-59.733333333333334,-494.93333333333334,-42.666666666666664
1778,-61.86666666666667,-477.8666666666667,-34.13333333333333
1779,-53.333333333333336,-462.93333333333334,-23.466666666666665
1780,-49.06666666666666,-439.46666666666664,-21.333333333333332
1781,-27.733333333333334,-420.26666666666665,-14.933333333333334
1782,-19.2,-416.0,-6.4
1783,-10.666666666666666,-405.3333333333333,6.4
1784,4.266666666666667,-403.2,12.8
1785,17.066666666666666,-405.3333333333333,12.8
1786,17.066666666666666,-411.73333333333335,6.4
1787,44.8,-416.0,14.933333333333334
1788,49.06666666666666,-433.06666666666666,4.266666666666667
1789,68.26666666666667,-454.4,6.4
1790,78.93333333333334,-465.06666666666666,19.2
1791,74.66666666666667,-480.0,17.066666666666666
1792,68.26666666666667,-484.26666666666665,23.466666666666665
1793,59.733333333333334,-490.6666666666667,6.4
1794,59.733333333333334,-494.93333333333334,4.266666666666667
1795,57.6,-486.4,-4.266666666666667
1796,59.733333333333334,-480.0,-14.933333333333334
1797,59.733333333333334,-473.59999999999997,-19.2
1798,57.6,-460.8,-17.066666666666666
1799,55.46666666666667,-443.73333333333335,-23.466666666666665
1800,66.13333333333333,-424.5333333333333,-14.933333333333334
1801,81.06666666666666,-409.6,-21.333333333333332
1802,102.4,-409.6,-21.333333333333332
1803,123.73333333333333,-407.46666666666664,-38.4
1804,138.66666666666666,-413.8666666666667,-27.733333333333334
1805,160.0,-422.4,-44.8
1806,170.66666666666666,-441.59999999999997,-34.13333333333333
1807,177.06666666666666,-469.3333333333333,-36.266666666666666
1808,187.73333333333332,-480.0,-19.2
1809,192.0,-499.2,-10.666666666666666
1810,185.6,-512.0,-2.1333333333333333
1811,194.13333333333333,-514.1333333333333,4.266666666666667
1812,192.0,-507.73333333333335,-4.266666666666667
1813,174.93333333333334,-490.6666666666667,0.0
1814,187.73333333333332,-475.73333333333335,-14.933333333333334
1815,181.33333333333334,-452.26666666666665,-21.333333333333332
1816,189.86666666666667,-428.8,-44.8
1817,187.73333333333332,-418.1333333333333,-64.0
1818,189.86666666666667,-411.73333333333335,-72.53333333333333
1819,172.8,-390.4,-93.86666666666666
1820,164.26666666666665,-371.2,-98.13333333333333
1821,160.0,-356.26666666666665,-119.46666666666667
1822,140.8,-343.46666666666664,-123.73333333333333
1823,100.26666666666667,-320.0,-140.8
1824,40.53333333333333,-305.06666666666666,-164.26666666666665
1825,-4.266666666666667,-298.6666666666667,-202.66666666666666
1826,-32.0,-309.3333333333333,-241.06666666666666
1827,-98.13333333333333,-328.5333333333333,-285.8666666666667
1828,-134.4,-384.0,-305.06666666666666
1829,-174.93333333333334,-445.8666666666667,-315.73333333333335
1830,-234.66666666666666,-471.46666666666664,-302.93333333333334
1831,-230.4,-514.1333333333333,-279.46666666666664
1832,-215.46666666666667,-601.6,-251.73333333333332
1833,-189.86666666666667,-661.3333333333334,-236.79999999999998
1834,-147.2,-714.6666666666666,-224.0
1835,-96.0,-746.6666666666666,-232.53333333333333
1836,-49.06666666666666,-759.4666666666667,-230.4
1837,-8.533333333333333,-772.2666666666667,-243.2
1838,14.933333333333334,-761.6,-264.5333333333333
1839,17.066666666666666,-753.0666666666666,-275.2
1840,-4.266666666666667,-748.8,-294.4
1841,-23.466666666666665,-744.5333333333333,-288.0
1842,-59.733333333333334,-742.4,-277.3333333333333
1843,-100.26666666666667,-757.3333333333334,-245.33333333333334
1844,-147.2,-763.7333333333333,-200.53333333333333
1845,-185.6,-787.2,-157.86666666666667
1846,-228.26666666666665,-806.4,-130.13333333333333
1847,-264.5333333333333,-810.6666666666666,-108.8
1848,-285.8666666666667,-810.6666666666666,-83.2
1849,-300.8,-791.4666666666667,-83.2
1850,-328.5333333333333,-772.2666666666667,-76.8
1851,-349.8666666666667,-725.3333333333334,-64.0
1852,-360.5333333333333,-633.6,-66.13333333333333
1853,-339.2,-514.1333333333333,-81.06666666666666
1854,-311.46666666666664,-409.6,-96.0
1855,-285.8666666666667,-354.1333333333333,-96.0
1856,-258.1333333333333,-285.8666666666667,-83.2
1857,-228.26666666666665,-211.2,-57.6
1858,-206.93333333333334,-157.86666666666667,-64.0
1859,-174.93333333333334,-142.93333333333334,-19.2
1860,-115.2,-119.46666666666667,-27.733333333333334
1861,-46.93333333333333,-74.66666666666667,-68.26666666666667
1862,-19.2,-55.46666666666667,-57.6
1863,53.333333333333336,-46.93333333333333,-72.53333333333333
1864,93.86666666666666,-66.13333333333333,-74.66666666666667
1865,104.53333333333333,-93.86666666666666,-78.93333333333334
1866,125.86666666666666,-142.93333333333334,-78.93333333333334
1867,121.6,-206.93333333333334,-76.8
1868,110.93333333333334,-251.73333333333332,-98.13333333333333
1869,117.33333333333333,-311.46666666666664,-115.2
1870,98.13333333333333,-356.26666666666665,-132.26666666666665
1871,87.46666666666667,-403.2,-138.66666666666666
1872,44.8,-426.6666666666667,-138.66666666666666
1873,34.13333333333333,-441.59999999999997,-108.8
1874,-8.533333333333333,-445.8666666666667,-100.26666666666667
1875,-46.93333333333333,-430.93333333333334,-70.4
1876,-70.4,-381.8666666666667,-74.66666666666667
1877,-85.33333333333333,-320.0,-81.06666666666666
1878,-76.8,-256.0,-76.8
1879,-96.0,-206.93333333333334,-66.13333333333333
1880,-138.66666666666666,-138.66666666666666,-29.866666666666667
1881,-130.13333333333333,-87.46666666666667,-14.933333333333334
1882,-85.33333333333333,-36.266666666666666,4.266666666666667
1883,-68.26666666666667,17.066666666666666,6.4
1884,-34.13333333333333,61.86666666666667,10.666666666666666
1885,2.1333333333333333,91.73333333333333,27.733333333333334
1886,64.0,125.86666666666666,12.8
1887,110.93333333333334,164.26666666666665,-14.933333333333334
1888,140.8,196.26666666666665,-17.066666666666666
1889,189.86666666666667,194.13333333333333,-29.866666666666667
1890,243.2,179.2,-29.866666666666667
1891,262.4,147.2,-40.53333333333333
1892,270.93333333333334,117.33333333333333,-32.0
1893,264.5333333333333,68.26666666666667,-38.4
1894,275.2,32.0,-29.866666666666667
1895,260.26666666666665,-12.8,-27.733333333333334
1896,230.4,-66.13333333333333,-29.866666666666667
1897,183.46666666666667,-117.33333333333333,-4.266666666666667
1898,130.13333333333333,-183.46666666666667,14.933333333333334
1899,134.4,-204.8,21.333333333333332
1900,32.0,-251.73333333333332,44.8
1901,-4.266666666666667,-309.3333333333333,91.73333333333333
1902,-23.466666666666665,-305.06666666666666,87.46666666666667
1903,-34.13333333333333,-322.1333333333333,106.66666666666667
1904,-17.066666666666666,-328.5333333333333,98.13333333333333
1905,-4.266666666666667,-300.8,66.13333333333333
1906,-2.1333333333333333,-206.93333333333334,-4.266666666666667
1907,23.466666666666665,-108.8,-68.26666666666667
1908,42.666666666666664,-23.466666666666665,-96.0
1909,59.733333333333334,61.86666666666667,-136.53333333333333
1910,57.6,123.73333333333333,-151.46666666666667
1911,44.8,151.46666666666667,-177.06666666666666
1912,42.666666666666664,149.33333333333334,-209.06666666666666
1913,10.666666666666666,134.4,-215.46666666666667
1914,-34.13333333333333,91.73333333333333,-204.8
1915,-89.6,25.6,-172.8
1916,-130.13333333333333,4.266666666666667,-145.06666666666666
1917,-166.4,-29.866666666666667,-68.26666666666667
1918,-196.26666666666665,-68.26666666666667,-38.4
1919,-245.33333333333334,-91.73333333333333,-51.2
1920,-288.0,-119.46666666666667,-91.73333333333333
1921,-292.26666666666665,-138.66666666666666,-128.0
1922,-202.66666666666666,-192.0,-138.66666666666666
1923,-119.46666666666667,-262.4,-121.6
1924,-6.4,-356.26666666666665,-108.8
1925,121.6,-524.8,-6.4
1926,213.33333333333334,-676.2666666666667,132.26666666666665
1927,275.2,-797.8666666666667,243.2
1928,311.46666666666664,-957.8666666666667,334.93333333333334
1929,369.06666666666666,-974.9333333333333,264.5333333333333
1930,356.26666666666665,-885.3333333333334,179.2
1931,326.4,-669.8666666666667,194.13333333333333
1932,273.06666666666666,-458.6666666666667,224.0
1933,224.0,-192.0,247.46666666666667
1934,172.8,-4.266666666666667,224.0
1935,119.46666666666667,138.66666666666666,194.13333333333333
1936,53.333333333333336,157.86666666666667,198.4
1937,-2.1333333333333333,134.4,198.4
1938,-59.733333333333334,53.333333333333336,177.06666666666666
1939,-38.4,-59.733333333333334,81.06666666666666
1940,29.866666666666667,-232.53333333333333,93.86666666666666
1941,230.4,-482.1333333333333,138.66666666666666
1942,437.3333333333333,-742.4,168.53333333333333
1943,849.0666666666666,-1203.2,347.73333333333335
1944,1444.2666666666667,-1841.0666666666666,874.6666666666666
1945,2412.8,-2801.0666666666666,1595.7333333333333
1946,3908.2666666666664,-4102.4,2077.866666666667
1947,4983.466666666666,-4919.466666666666,1258.6666666666667
1948,7033.599999999999,-5672.533333333333,-610.1333333333333
1949,7498.666666666667,-5339.733333333334,-642.1333333333333
1950,4765.866666666667,-3978.6666666666665,-356.26666666666665
1951,2801.0666666666666,-2956.8,-548.2666666666667
1952,1038.9333333333334,-2030.9333333333334,-392.5333333333333
1953,113.06666666666666,-836.2666666666667,-68.26666666666667
1954,-599.4666666666667,509.8666666666667,601.6
1955,-1397.3333333333333,1303.4666666666667,1248.0
1956,-1798.3999999999999,1348.2666666666667,1341.8666666666666
1957,-2152.5333333333333,1305.6,1021.8666666666667
1958,-2094.9333333333334,1122.1333333333332,488.5333333333333
1959,-1740.8,740.2666666666667,140.8
1960,-1303.4666666666667,409.6,-151.46666666666667
1961,-923.7333333333333,241.06666666666666,-334.93333333333334
1962,-369.06666666666666,110.93333333333334,-522.6666666666666
1963,140.8,19.2,-514.1333333333333
1964,499.2,-130.13333333333333,-309.3333333333333
1965,721.0666666666666,-266.6666666666667,-10.666666666666666
1966,874.6666666666666,-317.8666666666667,166.4
1967,996.2666666666667,-285.8666666666667,270.93333333333334
1968,1111.4666666666667,-151.46666666666667,341.3333333333333
1969,1139.2,44.8,467.2
1970,1092.2666666666667,217.6,537.6
1971,985.6,307.2,505.59999999999997
1972,644.2666666666667,352.0,405.3333333333333
1973,484.26666666666665,324.26666666666665,290.1333333333333
1974,405.3333333333333,320.0,196.26666666666665
1975,384.0,311.46666666666664,174.93333333333334
1976,356.26666666666665,285.8666666666667,194.13333333333333
1977,403.2,236.79999999999998,260.26666666666665
1978,473.59999999999997,189.86666666666667,337.06666666666666
1979,616.5333333333333,189.86666666666667,394.6666666666667
1980,761.6,266.6666666666667,398.93333333333334
1981,966.4,398.93333333333334,341.3333333333333
1982,1181.8666666666666,518.4,281.6
1983,1241.6,586.6666666666666,200.53333333333333
1984,1164.8,546.1333333333333,96.0
1985,1141.3333333333333,552.5333333333333,34.13333333333333
1986,947.1999999999999,524.8,-17.066666666666666
1987,736.0,403.2,17.066666666666666
1988,618.6666666666666,264.5333333333333,68.26666666666667
1989,550.4,125.86666666666666,106.66666666666667
1990,503.46666666666664,42.666666666666664,123.73333333333333
1991,452.26666666666665,-4.266666666666667,119.46666666666667
1992,403.2,-25.6,160.0
1993,332.8,-44.8,179.2
1994,273.06666666666666,-89.6,219.73333333333332
1995,270.93333333333334,-102.4,206.93333333333334
1996,256.0,-119.46666666666667,179.2
1997,258.1333333333333,-102.4,142.93333333333334
1998,262.4,-51.2,125.86666666666666
1999,264.5333333333333,0.0,119.46666666666667
2000,253.86666666666667,136.53333333333333,106.66666666666667
2001,219.73333333333332,258.1333333333333,125.86666666666666
2002,189.86666666666667,360.5333333333333,134.4
2003,138.66666666666666,448.0,157.86666666666667
2004,100.26666666666667,497.06666666666666,166.4
2005,61.86666666666667,516.2666666666667,145.06666666666666
2006,36.266666666666666,492.8,119.46666666666667
2007,29.866666666666667,428.8,117.33333333333333
2008,34.13333333333333,349.8666666666667,115.2
2009,53.333333333333336,285.8666666666667,104.53333333333333
2010,49.06666666666666,213.33333333333334,61.86666666666667
2011,55.46666666666667,162.13333333333333,32.0
2012,55.46666666666667,138.66666666666666,8.533333333333333
2013,64.0,110.93333333333334,-12.8
2014,81.06666666666666,104.53333333333333,-17.066666666666666
2015,136.53333333333333,108.8,-14.933333333333334
2016,264.5333333333333,128.0,-4.266666666666667
2017,343.46666666666664,168.53333333333333,14.933333333333334
2018,416.0,206.93333333333334,10.666666666666666
2019,484.26666666666665,238.93333333333334,38.4
2020,546.1333333333333,270.93333333333334,61.86666666666667
2021,477.8666666666667,330.6666666666667,14.933333333333334
2022,480.0,377.6,-4.266666666666667
2023,452.26666666666665,373.3333333333333,-8.533333333333333
2024,462.93333333333334,339.2,6.4
2025,480.0,302.93333333333334,8.533333333333333
2026,544.0,245.33333333333334,17.066666666666666
2027,565.3333333333334,198.4,44.8
2028,640.0,187.73333333333332,2.1333333333333333
2029,712.5333333333333,136.53333333333333,57.6
2030,770.1333333333333,121.6,115.2
2031,780.8,123.73333333333333,168.53333333333333
2032,785.0666666666666,123.73333333333333,215.46666666666667
2033,812.8,132.26666666666665,245.33333333333334
2034,825.6,147.2,273.06666666666666
2035,859.7333333333333,157.86666666666667,290.1333333333333
2036,898.1333333333333,162.13333333333333,307.2
2037,921.6,181.33333333333334,288.0
2038,945.0666666666666,179.2,249.6
2039,953.6,170.66666666666666,168.53333333333333
2040,962.1333333333333,125.86666666666666,115.2
2041,949.3333333333334,59.733333333333334,104.53333333333333
2042,900.2666666666667,-38.4,96.0
2043,881.0666666666666,-117.33333333333333,117.33333333333333
2044,810.6666666666666,-192.0,130.13333333333333
2045,674.1333333333333,-245.33333333333334,155.73333333333332
2046,539.7333333333333,-279.46666666666664,187.73333333333332
2047,469.3333333333333,-288.0,194.13333333333333
2048,392.5333333333333,-290.1333333333333,194.13333333333333
2049,313.6,-247.46666666666667,183.46666666666667
2050,328.5333333333333,-189.86666666666667,134.4
2051,238.93333333333334,-147.2,147.2
2052,187.73333333333332,-110.93333333333334,160.0
2053,200.53333333333333,-72.53333333333333,134.4
2054,192.0,-34.13333333333333,96.0
2055,251.73333333333332,-27.733333333333334,81.06666666666666
2056,294.4,-2.1333333333333333,61.86666666666667
2057,305.06666666666666,14.933333333333334,66.13333333333333
2058,326.4,44.8,51.2
2059,352.0,68.26666666666667,51.2
2060,375.46666666666664,106.66666666666667,12.8
2061,403.2,140.8,-17.066666666666666
2062,413.8666666666667,147.2,-38.4
2063,437.3333333333333,149.33333333333334,-59.733333333333334
2064,452.26666666666665,119.46666666666667,-81.06666666666666
2065,488.5333333333333,61.86666666666667,-70.4
2066,509.8666666666667,8.533333333333333,-64.0
2067,526.9333333333333,-44.8,-49.06666666666666
2068,531.2,-106.66666666666667,-38.4
2069,524.8,-145.06666666666666,-29.866666666666667
2070,569.6,-213.33333333333334,-38.4
2071,603.7333333333333,-249.6,-34.13333333333333
2072,654.9333333333333,-294.4,-27.733333333333334
2073,657.0666666666666,-317.8666666666667,-53.333333333333336
2074,682.6666666666666,-330.6666666666667,-59.733333333333334
2075,718.9333333333333,-328.5333333333333,-74.66666666666667
2076,729.6,-300.8,-100.26666666666667
2077,740.2666666666667,-251.73333333333332,-138.66666666666666
2078,746.6666666666666,-202.66666666666666,-160.0
2079,748.8,-123.73333333333333,-185.6
2080,723.2,-64.0,-189.86666666666667
2081,718.9333333333333,-29.866666666666667,-192.0
2082,697.6,8.533333333333333,-157.86666666666667
2083,672.0,23.466666666666665,-130.13333333333333
2084,657.0666666666666,14.933333333333334,-104.53333333333333
2085,650.6666666666666,6.4,-78.93333333333334
2086,652.8,-12.8,-64.0
2087,642.1333333333333,-44.8,-57.6
2088,635.7333333333333,-74.66666666666667,-64.0
2089,631.4666666666667,-102.4,-83.2
2090,620.8,-134.4,-83.2
2091,616.5333333333333,-149.33333333333334,-93.86666666666666
2092,599.4666666666667,-162.13333333333333,-100.26666666666667
2093,597.3333333333334,-174.93333333333334,-108.8
2094,576.0,-185.6,-106.66666666666667
2095,565.3333333333334,-183.46666666666667,-102.4
2096,537.6,-170.66666666666666,-104.53333333333333
2097,537.6,-149.33333333333334,-87.46666666666667
2098,529.0666666666666,-136.53333333333333,-57.6
2099,509.8666666666667,-113.06666666666666,-49.06666666666666
2100,501.3333333333333,-91.73333333333333,-44.8
2101,486.4,-70.4,-36.266666666666666
2102,469.3333333333333,-38.4,-21.333333333333332
2103,460.8,-25.6,-21.333333333333332
2104,458.6666666666667,-23.466666666666665,-21.333333333333332
2105,443.73333333333335,-8.533333333333333,-21.333333333333332
2106,456.5333333333333,-19.2,-17.066666666666666
2107,458.6666666666667,-19.2,-19.2
2108,460.8,-32.0,-17.066666666666666
2109,488.5333333333333,-40.53333333333333,-17.066666666666666
2110,488.5333333333333,-38.4,-21.333333333333332
2111,503.46666666666664,-51.2,-17.066666666666666
2112,526.9333333333333,-51.2,-23.466666666666665
2113,529.0666666666666,-46.93333333333333,-32.0
2114,548.2666666666667,-42.666666666666664,-36.266666666666666
2115,550.4,-29.866666666666667,-36.266666666666666
2116,565.3333333333334,-17.066666666666666,-53.333333333333336
2117,571.7333333333333,-2.1333333333333333,-59.733333333333334
2118,584.5333333333333,6.4,-61.86666666666667
2119,586.6666666666666,17.066666666666666,-64.0
2120,599.4666666666667,8.533333333333333,-61.86666666666667
2121,603.7333333333333,8.533333333333333,-66.13333333333333
2122,610.1333333333333,12.8,-66.13333333333333
2123,608.0,0.0,-66.13333333333333
2124,618.6666666666666,0.0,-61.86666666666667
2125,618.6666666666666,-2.1333333333333333,-49.06666666666666
2126,618.6666666666666,0.0,-53.333333333333336
2127,608.0,-14.933333333333334,-42.666666666666664
2128,603.7333333333333,-19.2,-21.333333333333332
2129,614.4,0.0,-55.46666666666667
2130,590.9333333333333,12.8,-53.333333333333336
2131,576.0,25.6,-53.333333333333336
2132,561.0666666666666,19.2,-38.4
2133,548.2666666666667,17.066666666666666,-42.666666666666664
2134,544.0,14.933333333333334,-38.4
2135,529.0666666666666,12.8,-36.266666666666666
2136,518.4,10.666666666666666,-40.53333333333333
2137,514.1333333333333,4.266666666666667,-23.466666666666665
2138,516.2666666666667,6.4,-27.733333333333334
2139,503.46666666666664,8.533333333333333,-38.4
2140,507.73333333333335,8.533333333333333,-40.53333333333333
2141,514.1333333333333,8.533333333333333,-42.666666666666664
2142,522.6666666666666,2.1333333333333333,-40.53333333333333
2143,522.6666666666666,4.266666666666667,-42.666666666666664
2144,531.2,4.266666666666667,-44.8
2145,533.3333333333334,0.0,-46.93333333333333
2146,537.6,-8.533333333333333,-46.93333333333333
2147,533.3333333333334,-10.666666666666666,-51.2
2148,524.8,-17.066666666666666,-44.8
2149,539.7333333333333,-17.066666666666666,-46.93333333333333
2150,537.6,-10.666666666666666,-53.333333333333336
2151,533.3333333333334,-8.533333333333333,-53.333333333333336
2152,537.6,0.0,-51.2
2153,544.0,6.4,-55.46666666666667
2154,541.8666666666667,8.533333333333333,-55.46666666666667
2155,544.0,4.266666666666667,-55.46666666666667
2156,552.5333333333333,2.1333333333333333,-61.86666666666667
2157,561.0666666666666,0.0,-61.86666666666667
2158,567.4666666666667,-6.4,-68.26666666666667
2159,556.8,-4.266666666666667,-61.86666666666667
2160,561.0666666666666,-21.333333333333332,-72.53333333333333
2161,573.8666666666667,-23.466666666666665,-74.66666666666667
2162,561.0666666666666,-36.266666666666666,-91.73333333333333
2163,556.8,-32.0,-76.8
2164,554.6666666666666,-44.8,-53.333333333333336
2165,563.2,-53.333333333333336,-53.333333333333336
2166,554.6666666666666,-44.8,-57.6
2167,548.2666666666667,-51.2,-53.333333333333336
2168,546.1333333333333,-46.93333333333333,-55.46666666666667
2169,546.1333333333333,-51.2,-61.86666666666667
2170,544.0,-42.666666666666664,-57.6
2171,541.8666666666667,-46.93333333333333,-55.46666666666667
2172,552.5333333333333,-40.53333333333333,-53.333333333333336
2173,544.0,-38.4,-55.46666666666667
2174,546.1333333333333,-44.8,-51.2
2175,548.2666666666667,-46.93333333333333,-55.46666666666667
2176,546.1333333333333,-36.266666666666666,-51.2
2177,548.2666666666667,-42.666666666666664,-57.6
2178,548.2666666666667,-42.666666666666664,-57.6
2179,550.4,-32.0,-53.333333333333336
2180,544.0,-34.13333333333333,-51.2
2181,544.0,-32.0,-55.46666666666667
2182,541.8666666666667,-27.733333333333334,-51.2
2183,544.0,-38.4,-51.2
2184,529.0666666666666,-36.266666666666666,-51.2
2185,535.4666666666667,-25.6,-51.2
2186,537.6,-32.0,-53.333333333333336
2187,541.8666666666667,-25.6,-51.2
2188,546.1333333333333,-25.6,-55.46666666666667
2189,546.1333333333333,-19.2,-57.6
2190,546.1333333333333,-23.466666666666665,-59.733333333333334
2191,544.0,-21.333333333333332,-53.333333333333336
2192,541.8666666666667,-21.333333333333332,-64.0
2193,558.9333333333333,-27.733333333333334,-51.2
2194,550.4,-21.333333333333332,-64.0
2195,548.2666666666667,-19.2,-66.13333333333333
2196,561.0666666666666,-21.333333333333332,-64.0
2197,563.2,-23.466666666666665,-64.0
2198,561.0666666666666,-23.466666666666665,-72.53333333333333
2199,569.6,-34.13333333333333,-61.86666666666667
2200,573.8666666666667,-38.4,-68.26666666666667
2201,576.0,-40.53333333333333,-72.53333333333333
2202,563.2,-40.53333333333333,-70.4
2203,563.2,-40.53333333333333,-72.53333333333333
2204,556.8,-40.53333333333333,-64.0
2205,558.9333333333333,-27.733333333333334,-55.46666666666667
2206,554.6666666666666,-36.266666666666666,-38.4
2207,552.5333333333333,-32.0,-57.6
2208,546.1333333333333,-34.13333333333333,-51.2
2209,548.2666666666667,-32.0,-49.06666666666666
2210,541.8666666666667,-29.866666666666667,-49.06666666666666
2211,539.7333333333333,-27.733333333333334,-57.6
2212,539.7333333333333,-29.866666666666667,-53.333333333333336
2213,535.4666666666667,-23.466666666666665,-55.46666666666667
2214,544.0,-17.066666666666666,-57.6
2215,537.6,-21.333333333333332,-57.6
2216,539.7333333333333,-19.2,-44.8
2217,533.3333333333334,-19.2,-42.666666666666664
2218,539.7333333333333,-27.733333333333334,-51.2
2219,541.8666666666667,-29.866666666666667,-46.93333333333333
2220,541.8666666666667,-27.733333333333334,-51.2
2221,541.8666666666667,-23.466666666666665,-53.333333333333336
2222,546.1333333333333,-23.466666666666665,-51.2
2223,548.2666666666667,-27.733333333333334,-55.46666666666667
2224,546.1333333333333,-27.733333333333334,-49.06666666666666
2225,546.1333333333333,-27.733333333333334,-53.333333333333336
2226,544.0,-23.466666666666665,-51.2
2227,546.1333333333333,-27.733333333333334,-61.86666666666667
2228,541.8666666666667,-19.2,-49.06666666666666
2229,546.1333333333333,-25.6,-51.2
2230,539.7333333333333,-25.6,-46.93333333333333
2231,552.5333333333333,-25.6,-46.93333333333333
2232,552.5333333333333,-27.733333333333334,-46.93333333333333
2233,552.5333333333333,-27.733333333333334,-40.53333333333333
2234,554.6666666666666,-23.466666666666665,-36.266666666666666
2235,548.2666666666667,-23.466666666666665,-38.4
2236,554.6666666666666,-27.733333333333334,-27.733333333333334
2237,548.2666666666667,-19.2,-32.0
2238,552.5333333333333,-12.8,-32.0
2239,567.4666666666667,-27.733333333333334,-21.333333333333332
2240,548.2666666666667,-19.2,-34.13333333333333
2241,548.2666666666667,-21.333333333333332,-36.266666666666666
2242,550.4,-25.6,-40.53333333333333
2243,550.4,-25.6,-38.4
2244,541.8666666666667,-23.466666666666665,-34.13333333333333
2245,546.1333333333333,-32.0,-40.53333333333333
2246,546.1333333333333,-27.733333333333334,-40.53333333333333
2247,541.8666666666667,-21.333333333333332,-46.93333333333333
2248,533.3333333333334,-29.866666666666667,-40.53333333333333
2249,541.8666666666667,-29.866666666666667,-38.4
2250,537.6,-32.0,-27.733333333333334
2251,535.4666666666667,-27.733333333333334,-34.13333333333333
2252,535.4666666666667,-27.733333333333334,-25.6
2253,535.4666666666667,-34.13333333333333,-21.333333333333332
2254,537.6,-25.6,-21.333333333333332
2255,541.8666666666667,-29.866666666666667,-23.466666666666665
2256,541.8666666666667,-23.466666666666665,-23.466666666666665
2257,537.6,-23.466666666666665,-34.13333333333333
2258,539.7333333333333,-23.466666666666665,-32.0
2259,546.1333333333333,-25.6,-23.466666666666665
2260,550.4,-38.4,-17.066666666666666
2261,539.7333333333333,-21.333333333333332,-29.866666666666667
2262,550.4,-27.733333333333334,-27.733333333333334
2263,544.0,-23.466666666666665,-32.0
2264,544.0,-29.866666666666667,-23.466666666666665
2265,541.8666666666667,-23.466666666666665,-29.866666666666667
2266,539.7333333333333,-29.866666666666667,-25.6
2267,552.5333333333333,-21.333333333333332,-36.266666666666666
2268,548.2666666666667,-32.0,-29.866666666666667
2269,556.8,-38.4,-21.333333333333332
2270,550.4,-29.866666666666667,-27.733333333333334
2271,563.2,-29.866666666666667,-40.53333333333333
2272,554.6666666666666,-34.13333333333333,-36.266666666666666
2273,550.4,-36.266666666666666,-36.266666666666666
2274,539.7333333333333,-27.733333333333334,-34.13333333333333
2275,548.2666666666667,-36.266666666666666,-34.13333333333333
2276,537.6,-32.0,-32.0
2277,539.7333333333333,-36.266666666666666,-27.733333333333334
2278,537.6,-36.266666666666666,-29.866666666666667
2279,535.4666666666667,-36.266666666666666,-23.466666666666665
2280,529.0666666666666,-29.866666666666667,-25.6
2281,539.7333333333333,-38.4,-23.466666666666665
2282,533.3333333333334,-32.0,-27.733333333333334
2283,539.7333333333333,-36.266666666666666,-17.066666666666666
2284,539.7333333333333,-32.0,-23.466666666666665
2285,541.8666666666667,-27.733333333333334,-25.6
2286,544.0,-25.6,-25.6
2287,548.2666666666667,-27.733333333333334,-17.066666666666666
2288,552.5333333333333,-25.6,-17.066666666666666
2289,550.4,-23.466666666666665,-23.466666666666665
2290,546.1333333333333,-27.733333333333334,-21.333333333333332
2291,541.8666666666667,-23.466666666666665,-27.733333333333334
2292,552.5333333333333,-32.0,-17.066666666666666
2293,550.4,-27.733333333333334,-29.866666666666667
2294,554.6666666666666,-34.13333333333333,-19.2
2295,546.1333333333333,-21.333333333333332,-23.466666666666665
2296,552.5333333333333,-23.466666666666665,-19.2
2297,554.6666666666666,-19.2,-27.733333333333334
2298,546.1333333333333,-10.666666666666666,-32.0
2299,546.1333333333333,-14.933333333333334,-25.6
2300,544.0,-14.933333333333334,-36.266666666666666
2301,541.8666666666667,-23.466666666666665,-21.333333333333332
2302,539.7333333333333,-23.466666666666665,-23.466666666666665
2303,541.8666666666667,-21.333333333333332,-25.6
2304,535.4666666666667,-21.333333333333332,-23.466666666666665
2305,535.4666666666667,-29.866666666666667,-17.066666666666666
2306,533.3333333333334,-23.466666666666665,-17.066666666666666
2307,533.3333333333334,-42.666666666666664,-4.266666666666667
2308,541.8666666666667,-32.0,-17.066666666666666
2309,546.1333333333333,-23.466666666666665,-21.333333333333332
2310,558.9333333333333,-17.066666666666666,-27.733333333333334
2311,554.6666666666666,-21.333333333333332,-23.466666666666665
2312,561.0666666666666,-12.8,-17.066666666666666
2313,554.6666666666666,-25.6,-17.066666666666666
2314,548.2666666666667,-19.2,-12.8
2315,544.0,-36.266666666666666,-17.066666666666666
2316,550.4,-19.2,-23.466666666666665
2317,556.8,-27.733333333333334,-21.333333333333332
2318,548.2666666666667,-19.2,-36.266666666666666
2319,552.5333333333333,-27.733333333333334,-25.6
2320,552.5333333333333,-23.466666666666665,-25.6
2321,554.6666666666666,-27.733333333333334,-42.666666666666664
2322,546.1333333333333,-23.466666666666665,-21.333333333333332
2323,550.4,-25.6,-21.333333333333332
2324,546.1333333333333,-32.0,-32.0
2325,550.4,-34.13333333333333,-12.8
2326,548.2666666666667,-32.0,-25.6
2327,541.8666666666667,-27.733333333333334,-23.466666666666665
2328,546.1333333333333,-29.866666666666667,-25.6
2329,539.7333333333333,-27.733333333333334,-27.733333333333334
2330,548.2666666666667,-25.6,-25.6
2331,541.8666666666667,-21.333333333333332,-25.6
2332,544.0,-32.0,-32.0
2333,550.4,-29.866666666666667,-36.266666666666666
2334,548.2666666666667,-27.733333333333334,-32.0
2335,546.1333333333333,-23.466666666666665,-29.866666666666667
2336,558.9333333333333,-23.466666666666665,-27.733333333333334
2337,541.8666666666667,-12.8,-29.866666666666667
2338,550.4,-19.2,-21.333333333333332
2339,550.4,-19.2,-19.2
2340,548.2666666666667,-14.933333333333334,-21.333333333333332
2341,552.5333333333333,-23.466666666666665,-21.333333333333332
2342,554.6666666666666,-17.066666666666666,-25.6
2343,554.6666666666666,-23.466666666666665,-23.466666666666665
2344,554.6666666666666,-25.6,-27.733333333333334
2345,544.0,-21.333333333333332,-27.733333333333334
2346,544.0,-27.733333333333334,-19.2
2347,544.0,-27.733333333333334,-27.733333333333334
2348,546.1333333333333,-34.13333333333333,-25.6
2349,546.1333333333333,-32.0,-25.6
2350,546.1333333333333,-27.733333333333334,-29.866666666666667
2351,541.8666666666667,-29.866666666666667,-21.333333333333332
2352,546.1333333333333,-32.0,-21.333333333333332
2353,546.1333333333333,-23.466666666666665,-21.333333333333332
2354,546.1333333333333,-25.6,-21.333333333333332
2355,539.7333333333333,-23.466666666666665,-23.466666666666665
2356,554.6666666666666,-36.266666666666666,-19.2
2357,554.6666666666666,-27.733333333333334,-17.066666666666666
2358,539.7333333333333,-17.066666666666666,-19.2
2359,544.0,-21.333333333333332,-19.2
2360,546.1333333333333,-21.333333333333332,-14.933333333333334
2361,546.1333333333333,-23.466666666666665,-19.2
2362,550.4,-25.6,-27.733333333333334
2363,544.0,-29.866666666666667,-19.2
2364,546.1333333333333,-27.733333333333334,-21.333333333333332
2365,544.0,-27.733333333333334,-27.733333333333334
2366,550.4,-21.333333333333332,-17.066666666666666
2367,546.1333333333333,-34.13333333333333,-23.466666666666665
2368,546.1333333333333,-29.866666666666667,-21.333333333333332
2369,541.8666666666667,-25.6,-8.533333333333333
2370,548.2666666666667,-29.866666666666667,-12.8
2371,550.4,-29.866666666666667,-14.933333333333334
2372,548.2666666666667,-23.466666666666665,-17.066666666666666
2373,552.5333333333333,-29.866666666666667,-8.533333333333333
2374,546.1333333333333,-32.0,-17.066666666666666
2375,552.5333333333333,-27.733333333333334,-12.8
2376,548.2666666666667,-34.13333333333333,-19.2
2377,546.1333333333333,-29.866666666666667,-21.333333333333332
2378,544.0,-32.0,-14.933333333333334
2379,550.4,-25.6,-17.066666666666666
2380,548.2666666666667,-32.0,-4.266666666666667
2381,539.7333333333333,-23.466666666666665,-27.733333333333334
2382,544.0,-25.6,-23.466666666666665
2383,550.4,-29.866666666666667,-14.933333333333334
2384,546.1333333333333,-27.733333333333334,-17.066666666666666
2385,544.0,-32.0,-17.066666666666666
2386,546.1333333333333,-34.13333333333333,-17.066666666666666
2387,546.1333333333333,-36.266666666666666,-27.733333333333334
2388,546.1333333333333,-34.13333333333333,-21.333333333333332
2389,541.8666666666667,-36.266666666666666,-12.8
2390,544.0,-29.866666666666667,-21.333333333333332
2391,544.0,-27.733333333333334,-4.266666666666667
2392,544.0,-27.733333333333334,-14.933333333333334
2393,550.4,-25.6,-14.933333333333334
2394,548.2666666666667,-27.733333333333334,-17.066666666666666
2395,550.4,-21.333333333333332,-17.066666666666666
2396,541.8666666666667,-23.466666666666665,-17.066666666666666
2397,546.1333333333333,-23.466666666666665,-17.066666666666666
2398,539.7333333333333,-23.466666666666665,-17.066666666666666
2399,544.0,-19.2,-14.933333333333334
2400,548.2666666666667,-21.333333333333332,-19.2
2401,552.5333333333333,-23.466666666666665,-14.933333333333334
2402,541.8666666666667,-27.733333333333334,-8.533333333333333
2403,544.0,-23.466666666666665,-14.933333333333334
2404,546.1333333333333,-25.6,-17.066666666666666
2405,539.7333333333333,-25.6,-10.666666666666666
2406,541.8666666666667,-25.6,-14.933333333333334
2407,544.0,-25.6,-14.933333333333334
