,accelerometerAccelerationX(G),accelerometerAccelerationY(G),accelerometerAccelerationZ(G)
0,59.733333333333334,-599.4666666666667,-27.733333333333334
1,49.06666666666666,-595.2,-32.0
2,46.93333333333333,-593.0666666666666,-34.13333333333333
3,34.13333333333333,-597.3333333333334,-44.8
4,27.733333333333334,-595.2,-49.06666666666666
5,34.13333333333333,-599.4666666666667,-44.8
6,29.866666666666667,-595.2,-46.93333333333333
7,23.466666666666665,-593.0666666666666,-44.8
8,25.6,-593.0666666666666,-51.2
9,23.466666666666665,-588.8,-51.2
10,29.866666666666667,-576.0,-53.333333333333336
11,34.13333333333333,-571.7333333333333,-49.06666666666666
12,32.0,-569.6,-53.333333333333336
13,34.13333333333333,-565.3333333333334,-46.93333333333333
14,38.4,-561.0666666666666,-55.46666666666667
15,44.8,-554.6666666666666,-51.2
16,38.4,-552.5333333333333,-53.333333333333336
17,42.666666666666664,-550.4,-49.06666666666666
18,49.06666666666666,-548.2666666666667,-44.8
19,53.333333333333336,-544.0,-49.06666666666666
20,64.0,-546.1333333333333,-44.8
21,70.4,-548.2666666666667,-46.93333333333333
22,72.53333333333333,-550.4,-46.93333333333333
23,81.06666666666666,-561.0666666666666,-36.266666666666666
24,78.93333333333334,-569.6,-25.6
25,85.33333333333333,-573.8666666666667,-23.466666666666665
26,87.46666666666667,-580.2666666666667,-23.466666666666665
27,91.73333333333333,-578.1333333333333,-21.333333333333332
28,89.6,-588.8,-19.2
29,89.6,-578.1333333333333,-10.666666666666666
30,76.8,-578.1333333333333,-25.6
31,78.93333333333334,-584.5333333333333,-27.733333333333334
32,74.66666666666667,-586.6666666666666,-19.2
33,53.333333333333336,-586.6666666666666,-25.6
34,51.2,-580.2666666666667,-27.733333333333334
35,38.4,-576.0,-36.266666666666666
36,21.333333333333332,-561.0666666666666,-42.666666666666664
37,19.2,-569.6,-38.4
38,14.933333333333334,-546.1333333333333,-38.4
39,4.266666666666667,-550.4,-44.8
40,-6.4,-546.1333333333333,-38.4
41,-4.266666666666667,-541.8666666666667,-36.266666666666666
42,-23.466666666666665,-544.0,-21.333333333333332
43,-27.733333333333334,-546.1333333333333,-21.333333333333332
44,-29.866666666666667,-544.0,-19.2
45,-42.666666666666664,-548.2666666666667,-10.666666666666666
46,-44.8,-546.1333333333333,-12.8
47,-59.733333333333334,-544.0,-4.266666666666667
48,-53.333333333333336,-544.0,-6.4
49,-59.733333333333334,-541.8666666666667,-2.1333333333333333
50,-66.13333333333333,-539.7333333333333,-2.1333333333333333
51,-61.86666666666667,-539.7333333333333,6.4
52,-59.733333333333334,-541.8666666666667,6.4
53,-64.0,-541.8666666666667,19.2
54,-59.733333333333334,-546.1333333333333,21.333333333333332
55,-44.8,-546.1333333333333,23.466666666666665
56,-42.666666666666664,-556.8,27.733333333333334
57,-29.866666666666667,-561.0666666666666,23.466666666666665
58,-19.2,-563.2,36.266666666666666
59,-12.8,-567.4666666666667,29.866666666666667
60,-6.4,-569.6,23.466666666666665
61,0.0,-582.4,25.6
62,2.1333333333333333,-588.8,25.6
63,4.266666666666667,-584.5333333333333,27.733333333333334
64,4.266666666666667,-582.4,23.466666666666665
65,8.533333333333333,-584.5333333333333,6.4
66,2.1333333333333333,-578.1333333333333,2.1333333333333333
67,0.0,-580.2666666666667,-4.266666666666667
68,2.1333333333333333,-576.0,-4.266666666666667
69,-2.1333333333333333,-576.0,-19.2
70,-21.333333333333332,-569.6,-21.333333333333332
71,-23.466666666666665,-554.6666666666666,-23.466666666666665
72,-32.0,-537.6,-29.866666666666667
73,-38.4,-520.5333333333333,-29.866666666666667
74,-38.4,-522.6666666666666,-32.0
75,-57.6,-512.0,-23.466666666666665
76,-66.13333333333333,-501.3333333333333,-12.8
77,-68.26666666666667,-492.8,-8.533333333333333
78,-76.8,-490.6666666666667,-12.8
79,-74.66666666666667,-494.93333333333334,-12.8
80,-70.4,-497.06666666666666,-10.666666666666666
81,-57.6,-507.73333333333335,-8.533333333333333
82,-49.06666666666666,-507.73333333333335,-8.533333333333333
83,-34.13333333333333,-505.59999999999997,-4.266666666666667
84,-27.733333333333334,-509.8666666666667,-6.4
85,-19.2,-512.0,-4.266666666666667
86,2.1333333333333333,-520.5333333333333,-2.1333333333333333
87,4.266666666666667,-518.4,-8.533333333333333
88,10.666666666666666,-522.6666666666666,-6.4
89,17.066666666666666,-522.6666666666666,-14.933333333333334
90,23.466666666666665,-524.8,-10.666666666666666
91,32.0,-535.4666666666667,-10.666666666666666
92,32.0,-535.4666666666667,-12.8
93,27.733333333333334,-539.7333333333333,-6.4
94,34.13333333333333,-539.7333333333333,-8.533333333333333
95,40.53333333333333,-544.0,-10.666666666666666
96,38.4,-548.2666666666667,-2.1333333333333333
97,34.13333333333333,-546.1333333333333,0.0
98,38.4,-550.4,-4.266666666666667
99,29.866666666666667,-548.2666666666667,-6.4
100,32.0,-558.9333333333333,0.0
101,29.866666666666667,-558.9333333333333,-2.1333333333333333
102,29.866666666666667,-561.0666666666666,0.0
103,19.2,-548.2666666666667,2.1333333333333333
104,19.2,-546.1333333333333,0.0
105,10.666666666666666,-544.0,2.1333333333333333
106,12.8,-544.0,0.0
107,19.2,-546.1333333333333,0.0
108,12.8,-546.1333333333333,2.1333333333333333
109,10.666666666666666,-535.4666666666667,8.533333333333333
110,17.066666666666666,-546.1333333333333,4.266666666666667
111,14.933333333333334,-544.0,10.666666666666666
112,14.933333333333334,-541.8666666666667,6.4
113,4.266666666666667,-539.7333333333333,0.0
114,10.666666666666666,-548.2666666666667,0.0
115,12.8,-550.4,4.266666666666667
116,10.666666666666666,-548.2666666666667,-8.533333333333333
117,4.266666666666667,-550.4,-4.266666666666667
118,10.666666666666666,-554.6666666666666,-2.1333333333333333
119,14.933333333333334,-552.5333333333333,2.1333333333333333
120,10.666666666666666,-556.8,0.0
121,12.8,-550.4,0.0
122,-10.666666666666666,-576.0,14.933333333333334
123,17.066666666666666,-548.2666666666667,-21.333333333333332
124,8.533333333333333,-550.4,-6.4
125,8.533333333333333,-548.2666666666667,-6.4
126,6.4,-548.2666666666667,-12.8
127,6.4,-548.2666666666667,0.0
128,4.266666666666667,-546.1333333333333,-2.1333333333333333
129,2.1333333333333333,-556.8,-2.1333333333333333
130,2.1333333333333333,-552.5333333333333,0.0
131,6.4,-548.2666666666667,-4.266666666666667
132,4.266666666666667,-548.2666666666667,2.1333333333333333
133,0.0,-565.3333333333334,21.333333333333332
134,0.0,-546.1333333333333,0.0
135,0.0,-548.2666666666667,-8.533333333333333
136,-2.1333333333333333,-546.1333333333333,-12.8
137,-4.266666666666667,-546.1333333333333,-4.266666666666667
138,2.1333333333333333,-548.2666666666667,-6.4
139,-8.533333333333333,-544.0,-4.266666666666667
140,-4.266666666666667,-537.6,-8.533333333333333
141,0.0,-537.6,-14.933333333333334
142,-2.1333333333333333,-539.7333333333333,-17.066666666666666
143,0.0,-537.6,0.0
144,0.0,-546.1333333333333,-2.1333333333333333
145,0.0,-548.2666666666667,0.0
146,0.0,-546.1333333333333,0.0
147,2.1333333333333333,-548.2666666666667,2.1333333333333333
148,0.0,-558.9333333333333,-8.533333333333333
149,0.0,-552.5333333333333,4.266666666666667
150,-4.266666666666667,-548.2666666666667,-4.266666666666667
151,4.266666666666667,-550.4,0.0
152,2.1333333333333333,-546.1333333333333,-8.533333333333333
153,4.266666666666667,-548.2666666666667,-17.066666666666666
154,2.1333333333333333,-554.6666666666666,-8.533333333333333
155,2.1333333333333333,-544.0,-6.4
156,4.266666666666667,-546.1333333333333,-8.533333333333333
157,0.0,-544.0,-12.8
158,0.0,-541.8666666666667,-25.6
159,2.1333333333333333,-541.8666666666667,-32.0
160,-2.1333333333333333,-533.3333333333334,-21.333333333333332
161,2.1333333333333333,-533.3333333333334,-17.066666666666666
162,0.0,-539.7333333333333,-25.6
163,2.1333333333333333,-544.0,-12.8
164,2.1333333333333333,-546.1333333333333,-4.266666666666667
165,-2.1333333333333333,-548.2666666666667,0.0
166,0.0,-556.8,-4.266666666666667
167,-2.1333333333333333,-552.5333333333333,-4.266666666666667
168,-10.666666666666666,-556.8,-4.266666666666667
169,-6.4,-567.4666666666667,0.0
170,-8.533333333333333,-563.2,-2.1333333333333333
171,-4.266666666666667,-573.8666666666667,0.0
172,0.0,-576.0,2.1333333333333333
173,2.1333333333333333,-569.6,21.333333333333332
174,14.933333333333334,-582.4,27.733333333333334
175,14.933333333333334,-582.4,34.13333333333333
176,19.2,-582.4,36.266666666666666
177,29.866666666666667,-586.6666666666666,38.4
178,38.4,-595.2,42.666666666666664
179,42.666666666666664,-593.0666666666666,46.93333333333333
180,40.53333333333333,-588.8,46.93333333333333
181,44.8,-584.5333333333333,42.666666666666664
182,42.666666666666664,-569.6,40.53333333333333
183,40.53333333333333,-563.2,42.666666666666664
184,36.266666666666666,-569.6,38.4
185,25.6,-573.8666666666667,42.666666666666664
186,21.333333333333332,-593.0666666666666,27.733333333333334
187,4.266666666666667,-612.2666666666667,14.933333333333334
188,6.4,-646.4,10.666666666666666
189,-2.1333333333333333,-659.2,2.1333333333333333
190,-14.933333333333334,-676.2666666666667,-4.266666666666667
191,-29.866666666666667,-686.9333333333333,-4.266666666666667
192,-40.53333333333333,-695.4666666666667,-19.2
193,-59.733333333333334,-693.3333333333334,-17.066666666666666
194,-78.93333333333334,-684.8,-21.333333333333332
195,-102.4,-676.2666666666667,-29.866666666666667
196,-113.06666666666666,-672.0,-40.53333333333333
197,-119.46666666666667,-676.2666666666667,-38.4
198,-119.46666666666667,-667.7333333333333,-46.93333333333333
199,-113.06666666666666,-665.6,-25.6
200,-117.33333333333333,-654.9333333333333,-40.53333333333333
201,-98.13333333333333,-642.1333333333333,-38.4
202,-89.6,-633.6,-53.333333333333336
203,-83.2,-622.9333333333333,-55.46666666666667
204,-74.66666666666667,-614.4,-68.26666666666667
205,-59.733333333333334,-601.6,-74.66666666666667
206,-42.666666666666664,-593.0666666666666,-78.93333333333334
207,-32.0,-584.5333333333333,-87.46666666666667
208,-14.933333333333334,-565.3333333333334,-85.33333333333333
209,0.0,-546.1333333333333,-102.4
210,10.666666666666666,-539.7333333333333,-117.33333333333333
211,21.333333333333332,-522.6666666666666,-123.73333333333333
212,34.13333333333333,-490.6666666666667,-140.8
213,36.266666666666666,-473.59999999999997,-162.13333333333333
214,44.8,-452.26666666666665,-170.66666666666666
215,46.93333333333333,-437.3333333333333,-181.33333333333334
216,55.46666666666667,-424.5333333333333,-187.73333333333332
217,61.86666666666667,-411.73333333333335,-192.0
218,78.93333333333334,-411.73333333333335,-192.0
219,81.06666666666666,-420.26666666666665,-181.33333333333334
220,100.26666666666667,-433.06666666666666,-174.93333333333334
221,93.86666666666666,-467.2,-160.0
222,98.13333333333333,-499.2,-157.86666666666667
223,108.8,-531.2,-134.4
224,100.26666666666667,-552.5333333333333,-125.86666666666666
225,89.6,-582.4,-121.6
226,102.4,-614.4,-110.93333333333334
227,96.0,-622.9333333333333,-96.0
228,85.33333333333333,-629.3333333333334,-98.13333333333333
229,78.93333333333334,-622.9333333333333,-93.86666666666666
230,70.4,-614.4,-85.33333333333333
231,59.733333333333334,-601.6,-89.6
232,42.666666666666664,-595.2,-98.13333333333333
233,29.866666666666667,-580.2666666666667,-98.13333333333333
234,27.733333333333334,-563.2,-102.4
235,32.0,-544.0,-106.66666666666667
236,25.6,-526.9333333333333,-110.93333333333334
237,38.4,-516.2666666666667,-113.06666666666666
238,32.0,-503.46666666666664,-117.33333333333333
239,32.0,-503.46666666666664,-115.2
240,32.0,-501.3333333333333,-113.06666666666666
241,42.666666666666664,-509.8666666666667,-108.8
242,46.93333333333333,-512.0,-115.2
243,44.8,-516.2666666666667,-106.66666666666667
244,49.06666666666666,-526.9333333333333,-98.13333333333333
245,49.06666666666666,-526.9333333333333,-89.6
246,46.93333333333333,-522.6666666666666,-96.0
247,49.06666666666666,-520.5333333333333,-83.2
248,59.733333333333334,-526.9333333333333,-85.33333333333333
249,64.0,-514.1333333333333,-78.93333333333334
250,51.2,-516.2666666666667,-72.53333333333333
251,59.733333333333334,-522.6666666666666,-70.4
252,55.46666666666667,-520.5333333333333,-64.0
253,59.733333333333334,-522.6666666666666,-68.26666666666667
254,64.0,-518.4,-70.4
255,68.26666666666667,-529.0666666666666,-64.0
256,68.26666666666667,-526.9333333333333,-64.0
257,68.26666666666667,-524.8,-66.13333333333333
258,83.2,-526.9333333333333,-61.86666666666667
259,83.2,-537.6,-66.13333333333333
260,91.73333333333333,-541.8666666666667,-49.06666666666666
261,96.0,-544.0,-49.06666666666666
262,100.26666666666667,-546.1333333333333,-44.8
263,100.26666666666667,-548.2666666666667,-34.13333333333333
264,98.13333333333333,-548.2666666666667,-38.4
265,106.66666666666667,-546.1333333333333,-23.466666666666665
266,108.8,-539.7333333333333,-29.866666666666667
267,108.8,-539.7333333333333,-23.466666666666665
268,104.53333333333333,-537.6,-23.466666666666665
269,104.53333333333333,-529.0666666666666,-14.933333333333334
270,108.8,-529.0666666666666,-10.666666666666666
271,102.4,-516.2666666666667,-8.533333333333333
272,113.06666666666666,-526.9333333333333,-12.8
273,113.06666666666666,-520.5333333333333,-2.1333333333333333
274,106.66666666666667,-520.5333333333333,0.0
275,115.2,-520.5333333333333,-4.266666666666667
276,110.93333333333334,-518.4,0.0
277,113.06666666666666,-518.4,-4.266666666666667
278,117.33333333333333,-507.73333333333335,2.1333333333333333
279,125.86666666666666,-509.8666666666667,0.0
280,130.13333333333333,-501.3333333333333,4.266666666666667
281,136.53333333333333,-505.59999999999997,0.0
282,130.13333333333333,-503.46666666666664,0.0
283,128.0,-509.8666666666667,-2.1333333333333333
284,123.73333333333333,-514.1333333333333,-4.266666666666667
285,121.6,-505.59999999999997,-17.066666666666666
286,106.66666666666667,-514.1333333333333,-21.333333333333332
287,102.4,-514.1333333333333,-23.466666666666665
288,98.13333333333333,-520.5333333333333,-12.8
289,91.73333333333333,-529.0666666666666,-12.8
290,83.2,-531.2,-8.533333333333333
291,70.4,-544.0,0.0
292,64.0,-541.8666666666667,0.0
293,55.46666666666667,-548.2666666666667,-2.1333333333333333
294,53.333333333333336,-550.4,6.4
295,57.6,-554.6666666666666,8.533333333333333
296,61.86666666666667,-573.8666666666667,-6.4
297,59.733333333333334,-571.7333333333333,19.2
298,59.733333333333334,-584.5333333333333,14.933333333333334
299,64.0,-595.2,29.866666666666667
300,72.53333333333333,-597.3333333333334,42.666666666666664
301,83.2,-601.6,55.46666666666667
302,87.46666666666667,-620.8,61.86666666666667
303,102.4,-629.3333333333334,66.13333333333333
304,106.66666666666667,-620.8,72.53333333333333
305,113.06666666666666,-618.6666666666666,68.26666666666667
306,96.0,-612.2666666666667,57.6
307,123.73333333333333,-612.2666666666667,59.733333333333334
308,125.86666666666666,-610.1333333333333,61.86666666666667
309,130.13333333333333,-620.8,51.2
310,130.13333333333333,-612.2666666666667,55.46666666666667
311,125.86666666666666,-603.7333333333333,59.733333333333334
312,125.86666666666666,-603.7333333333333,66.13333333333333
313,121.6,-597.3333333333334,46.93333333333333
314,123.73333333333333,-605.8666666666667,38.4
315,117.33333333333333,-618.6666666666666,21.333333333333332
316,108.8,-642.1333333333333,10.666666666666666
317,102.4,-665.6,-19.2
318,91.73333333333333,-686.9333333333333,-17.066666666666666
319,83.2,-710.4,-27.733333333333334
320,78.93333333333334,-763.7333333333333,-38.4
321,76.8,-772.2666666666667,-51.2
322,76.8,-785.0666666666666,-68.26666666666667
323,83.2,-797.8666666666667,-74.66666666666667
324,89.6,-793.6,-83.2
325,85.33333333333333,-780.8,-100.26666666666667
326,78.93333333333334,-744.5333333333333,-121.6
327,70.4,-716.8,-132.26666666666665
328,51.2,-680.5333333333333,-153.6
329,36.266666666666666,-648.5333333333333,-145.06666666666666
330,25.6,-612.2666666666667,-160.0
331,21.333333333333332,-586.6666666666666,-174.93333333333334
332,-17.066666666666666,-546.1333333333333,-183.46666666666667
333,-44.8,-526.9333333333333,-187.73333333333332
334,-78.93333333333334,-505.59999999999997,-194.13333333333333
335,-102.4,-486.4,-177.06666666666666
336,-119.46666666666667,-477.8666666666667,-172.8
337,-134.4,-456.5333333333333,-170.66666666666666
338,-142.93333333333334,-441.59999999999997,-157.86666666666667
339,-151.46666666666667,-445.8666666666667,-151.46666666666667
340,-162.13333333333333,-452.26666666666665,-145.06666666666666
341,-166.4,-467.2,-132.26666666666665
342,-140.8,-486.4,-119.46666666666667
343,-113.06666666666666,-512.0,-83.2
344,-78.93333333333334,-526.9333333333333,-74.66666666666667
345,-44.8,-539.7333333333333,-59.733333333333334
346,-23.466666666666665,-544.0,-59.733333333333334
347,2.1333333333333333,-554.6666666666666,-59.733333333333334
348,25.6,-558.9333333333333,-59.733333333333334
349,42.666666666666664,-571.7333333333333,-61.86666666666667
350,61.86666666666667,-573.8666666666667,-61.86666666666667
351,66.13333333333333,-565.3333333333334,-74.66666666666667
352,66.13333333333333,-561.0666666666666,-85.33333333333333
353,68.26666666666667,-554.6666666666666,-91.73333333333333
354,55.46666666666667,-541.8666666666667,-85.33333333333333
355,51.2,-531.2,-91.73333333333333
356,51.2,-531.2,-76.8
357,53.333333333333336,-529.0666666666666,-74.66666666666667
358,34.13333333333333,-520.5333333333333,-66.13333333333333
359,25.6,-526.9333333333333,-72.53333333333333
360,14.933333333333334,-516.2666666666667,-70.4
361,4.266666666666667,-505.59999999999997,-57.6
362,0.0,-503.46666666666664,-61.86666666666667
363,-14.933333333333334,-494.93333333333334,-61.86666666666667
364,-23.466666666666665,-490.6666666666667,-61.86666666666667
365,-32.0,-488.5333333333333,-66.13333333333333
366,-40.53333333333333,-482.1333333333333,-66.13333333333333
367,-49.06666666666666,-482.1333333333333,-68.26666666666667
368,-57.6,-469.3333333333333,-66.13333333333333
369,-59.733333333333334,-462.93333333333334,-72.53333333333333
370,-74.66666666666667,-460.8,-64.0
371,-76.8,-445.8666666666667,-66.13333333333333
372,-83.2,-443.73333333333335,-64.0
373,-89.6,-450.1333333333333,-61.86666666666667
374,-85.33333333333333,-458.6666666666667,-51.2
375,-78.93333333333334,-465.06666666666666,-51.2
376,-70.4,-475.73333333333335,-34.13333333333333
377,-72.53333333333333,-484.26666666666665,-36.266666666666666
378,-66.13333333333333,-484.26666666666665,-29.866666666666667
379,-61.86666666666667,-494.93333333333334,-34.13333333333333
380,-55.46666666666667,-503.46666666666664,-23.466666666666665
381,-53.333333333333336,-514.1333333333333,-21.333333333333332
382,-44.8,-518.4,-10.666666666666666
383,-42.666666666666664,-531.2,-10.666666666666666
384,-38.4,-526.9333333333333,-8.533333333333333
385,-34.13333333333333,-524.8,-10.666666666666666
386,-27.733333333333334,-524.8,-8.533333333333333
387,-25.6,-520.5333333333333,-2.1333333333333333
388,-27.733333333333334,-507.73333333333335,-2.1333333333333333
389,-12.8,-509.8666666666667,-2.1333333333333333
390,-10.666666666666666,-501.3333333333333,0.0
391,-4.266666666666667,-503.46666666666664,-4.266666666666667
392,-2.1333333333333333,-499.2,4.266666666666667
393,-4.266666666666667,-492.8,4.266666666666667
394,-6.4,-486.4,10.666666666666666
395,0.0,-488.5333333333333,21.333333333333332
396,4.266666666666667,-492.8,19.2
397,6.4,-490.6666666666667,17.066666666666666
398,10.666666666666666,-499.2,21.333333333333332
399,6.4,-503.46666666666664,29.866666666666667
400,10.666666666666666,-494.93333333333334,27.733333333333334
401,10.666666666666666,-494.93333333333334,36.266666666666666
402,6.4,-499.2,32.0
403,12.8,-494.93333333333334,42.666666666666664
404,2.1333333333333333,-497.06666666666666,55.46666666666667
405,10.666666666666666,-505.59999999999997,53.333333333333336
406,10.666666666666666,-505.59999999999997,55.46666666666667
407,6.4,-509.8666666666667,46.93333333333333
408,12.8,-529.0666666666666,38.4
409,12.8,-533.3333333333334,34.13333333333333
410,14.933333333333334,-529.0666666666666,29.866666666666667
411,17.066666666666666,-541.8666666666667,12.8
412,10.666666666666666,-541.8666666666667,10.666666666666666
413,19.2,-548.2666666666667,19.2
414,19.2,-561.0666666666666,19.2
415,21.333333333333332,-580.2666666666667,27.733333333333334
416,29.866666666666667,-590.9333333333333,32.0
417,42.666666666666664,-614.4,36.266666666666666
418,53.333333333333336,-620.8,38.4
419,49.06666666666666,-625.0666666666666,44.8
420,55.46666666666667,-635.7333333333333,49.06666666666666
421,57.6,-650.6666666666666,46.93333333333333
422,55.46666666666667,-646.4,51.2
423,57.6,-644.2666666666667,61.86666666666667
424,61.86666666666667,-644.2666666666667,64.0
425,53.333333333333336,-646.4,91.73333333333333
426,55.46666666666667,-633.6,104.53333333333333
427,46.93333333333333,-622.9333333333333,119.46666666666667
428,46.93333333333333,-616.5333333333333,132.26666666666665
429,38.4,-605.8666666666667,138.66666666666666
430,32.0,-608.0,147.2
431,40.53333333333333,-603.7333333333333,160.0
432,42.666666666666664,-590.9333333333333,151.46666666666667
433,34.13333333333333,-590.9333333333333,153.6
434,27.733333333333334,-595.2,157.86666666666667
435,19.2,-612.2666666666667,147.2
436,21.333333333333332,-635.7333333333333,117.33333333333333
437,36.266666666666666,-669.8666666666667,87.46666666666667
438,21.333333333333332,-714.6666666666666,44.8
439,10.666666666666666,-757.3333333333334,6.4
440,4.266666666666667,-782.9333333333333,-32.0
441,-10.666666666666666,-789.3333333333334,-74.66666666666667
442,-64.0,-780.8,-113.06666666666666
443,-115.2,-759.4666666666667,-134.4
444,-147.2,-723.2,-151.46666666666667
445,-192.0,-678.4,-157.86666666666667
446,-211.2,-633.6,-183.46666666666667
447,-228.26666666666665,-605.8666666666667,-206.93333333333334
448,-230.4,-584.5333333333333,-230.4
449,-215.46666666666667,-552.5333333333333,-243.2
450,-209.06666666666666,-546.1333333333333,-247.46666666666667
451,-204.8,-541.8666666666667,-251.73333333333332
452,-166.4,-552.5333333333333,-232.53333333333333
453,-125.86666666666666,-569.6,-209.06666666666666
454,-70.4,-582.4,-174.93333333333334
455,-25.6,-608.0,-172.8
456,21.333333333333332,-620.8,-168.53333333333333
457,70.4,-633.6,-162.13333333333333
458,108.8,-654.9333333333333,-142.93333333333334
459,134.4,-667.7333333333333,-138.66666666666666
460,160.0,-672.0,-125.86666666666666
461,170.66666666666666,-674.1333333333333,-123.73333333333333
462,160.0,-676.2666666666667,-128.0
463,145.06666666666666,-674.1333333333333,-128.0
464,125.86666666666666,-661.3333333333334,-115.2
465,100.26666666666667,-650.6666666666666,-100.26666666666667
466,76.8,-633.6,-87.46666666666667
467,61.86666666666667,-612.2666666666667,-76.8
468,44.8,-595.2,-74.66666666666667
469,23.466666666666665,-567.4666666666667,-74.66666666666667
470,0.0,-548.2666666666667,-83.2
471,-19.2,-514.1333333333333,-85.33333333333333
472,-34.13333333333333,-484.26666666666665,-87.46666666666667
473,-46.93333333333333,-469.3333333333333,-98.13333333333333
474,-64.0,-437.3333333333333,-91.73333333333333
475,-78.93333333333334,-424.5333333333333,-93.86666666666666
476,-89.6,-409.6,-104.53333333333333
477,-100.26666666666667,-405.3333333333333,-83.2
478,-104.53333333333333,-394.6666666666667,-85.33333333333333
479,-108.8,-390.4,-119.46666666666667
480,-87.46666666666667,-401.06666666666666,-66.13333333333333
481,-68.26666666666667,-411.73333333333335,-72.53333333333333
482,-66.13333333333333,-418.1333333333333,-66.13333333333333
483,-51.2,-416.0,-61.86666666666667
484,-36.266666666666666,-426.6666666666667,-66.13333333333333
485,-14.933333333333334,-418.1333333333333,-70.4
486,0.0,-418.1333333333333,-72.53333333333333
487,10.666666666666666,-420.26666666666665,-70.4
488,23.466666666666665,-424.5333333333333,-59.733333333333334
489,38.4,-428.8,-61.86666666666667
490,83.2,-458.6666666666667,-19.2
491,78.93333333333334,-462.93333333333334,-51.2
492,85.33333333333333,-469.3333333333333,-42.666666666666664
493,104.53333333333333,-490.6666666666667,-44.8
494,110.93333333333334,-507.73333333333335,-32.0
495,117.33333333333333,-516.2666666666667,-42.666666666666664
496,121.6,-518.4,-32.0
497,134.4,-516.2666666666667,-19.2
498,138.66666666666666,-514.1333333333333,-12.8
499,136.53333333333333,-516.2666666666667,-8.533333333333333
500,142.93333333333334,-518.4,-17.066666666666666
501,153.6,-503.46666666666664,-14.933333333333334
502,136.53333333333333,-505.59999999999997,-10.666666666666666
503,136.53333333333333,-501.3333333333333,-14.933333333333334
504,134.4,-501.3333333333333,-4.266666666666667
505,130.13333333333333,-499.2,0.0
506,128.0,-503.46666666666664,-17.066666666666666
507,130.13333333333333,-505.59999999999997,-23.466666666666665
508,125.86666666666666,-509.8666666666667,-10.666666666666666
509,123.73333333333333,-509.8666666666667,-10.666666666666666
510,115.2,-516.2666666666667,-17.066666666666666
511,110.93333333333334,-516.2666666666667,-10.666666666666666
512,100.26666666666667,-499.2,-21.333333333333332
513,102.4,-507.73333333333335,-32.0
514,93.86666666666666,-514.1333333333333,-17.066666666666666
515,93.86666666666666,-526.9333333333333,-14.933333333333334
516,85.33333333333333,-520.5333333333333,-6.4
517,72.53333333333333,-520.5333333333333,-6.4
518,70.4,-535.4666666666667,2.1333333333333333
519,64.0,-531.2,2.1333333333333333
520,70.4,-535.4666666666667,12.8
521,61.86666666666667,-535.4666666666667,12.8
522,64.0,-544.0,12.8
523,61.86666666666667,-544.0,8.533333333333333
524,57.6,-546.1333333333333,19.2
525,51.2,-550.4,19.2
526,53.333333333333336,-558.9333333333333,12.8
527,49.06666666666666,-563.2,25.6
528,55.46666666666667,-569.6,17.066666666666666
529,59.733333333333334,-569.6,14.933333333333334
530,55.46666666666667,-576.0,14.933333333333334
531,61.86666666666667,-571.7333333333333,-2.1333333333333333
532,59.733333333333334,-578.1333333333333,-19.2
533,68.26666666666667,-582.4,-23.466666666666665
534,72.53333333333333,-588.8,-8.533333333333333
535,74.66666666666667,-593.0666666666666,0.0
536,72.53333333333333,-597.3333333333334,0.0
537,59.733333333333334,-599.4666666666667,14.933333333333334
538,55.46666666666667,-603.7333333333333,12.8
539,49.06666666666666,-605.8666666666667,17.066666666666666
540,46.93333333333333,-608.0,14.933333333333334
541,49.06666666666666,-608.0,12.8
542,53.333333333333336,-616.5333333333333,19.2
543,49.06666666666666,-622.9333333333333,23.466666666666665
544,51.2,-633.6,32.0
545,46.93333333333333,-635.7333333333333,34.13333333333333
546,44.8,-637.8666666666667,53.333333333333336
547,44.8,-631.4666666666667,64.0
548,49.06666666666666,-625.0666666666666,72.53333333333333
549,51.2,-618.6666666666666,91.73333333333333
550,55.46666666666667,-597.3333333333334,87.46666666666667
551,64.0,-614.4,83.2
552,44.8,-627.2,78.93333333333334
553,21.333333333333332,-650.6666666666666,53.333333333333336
554,4.266666666666667,-686.9333333333333,23.466666666666665
555,-14.933333333333334,-723.2,-6.4
556,-38.4,-768.0,-40.53333333333333
557,-49.06666666666666,-797.8666666666667,-61.86666666666667
558,-53.333333333333336,-825.6,-91.73333333333333
559,-38.4,-842.6666666666666,-100.26666666666667
560,-2.1333333333333333,-851.1999999999999,-115.2
561,17.066666666666666,-825.6,-117.33333333333333
562,44.8,-795.7333333333333,-134.4
563,72.53333333333333,-759.4666666666667,-164.26666666666665
564,70.4,-718.9333333333333,-192.0
565,61.86666666666667,-678.4,-224.0
566,51.2,-620.8,-260.26666666666665
567,46.93333333333333,-552.5333333333333,-294.4
568,36.266666666666666,-499.2,-317.8666666666667
569,23.466666666666665,-486.4,-309.3333333333333
570,2.1333333333333333,-477.8666666666667,-285.8666666666667
571,-42.666666666666664,-475.73333333333335,-232.53333333333333
572,-83.2,-475.73333333333335,-209.06666666666666
573,-104.53333333333333,-462.93333333333334,-164.26666666666665
574,-130.13333333333333,-465.06666666666666,-132.26666666666665
575,-142.93333333333334,-469.3333333333333,-121.6
576,-160.0,-473.59999999999997,-100.26666666666667
577,-164.26666666666665,-488.5333333333333,-76.8
578,-149.33333333333334,-505.59999999999997,-72.53333333333333
579,-123.73333333333333,-520.5333333333333,-72.53333333333333
580,-89.6,-541.8666666666667,-66.13333333333333
581,-61.86666666666667,-550.4,-57.6
582,-38.4,-558.9333333333333,-70.4
583,-2.1333333333333333,-561.0666666666666,-68.26666666666667
584,34.13333333333333,-569.6,-70.4
585,57.6,-567.4666666666667,-81.06666666666666
586,66.13333333333333,-567.4666666666667,-89.6
587,83.2,-569.6,-85.33333333333333
588,85.33333333333333,-567.4666666666667,-76.8
589,108.8,-565.3333333333334,-83.2
590,96.0,-541.8666666666667,-78.93333333333334
591,108.8,-529.0666666666666,-87.46666666666667
592,89.6,-518.4,-83.2
593,91.73333333333333,-518.4,-87.46666666666667
594,76.8,-514.1333333333333,-72.53333333333333
595,74.66666666666667,-520.5333333333333,-74.66666666666667
596,55.46666666666667,-524.8,-51.2
597,46.93333333333333,-529.0666666666666,-59.733333333333334
598,44.8,-499.2,-55.46666666666667
599,36.266666666666666,-471.46666666666664,-68.26666666666667
600,27.733333333333334,-467.2,-55.46666666666667
601,0.0,-467.2,-53.333333333333336
602,-19.2,-450.1333333333333,-68.26666666666667
603,-25.6,-445.8666666666667,-70.4
604,-32.0,-435.2,-72.53333333333333
605,-44.8,-418.1333333333333,-64.0
606,-57.6,-420.26666666666665,-55.46666666666667
607,-64.0,-416.0,-68.26666666666667
608,-66.13333333333333,-426.6666666666667,-53.333333333333336
609,-59.733333333333334,-416.0,-51.2
610,-70.4,-439.46666666666664,-46.93333333333333
611,-72.53333333333333,-441.59999999999997,-42.666666666666664
612,-57.6,-462.93333333333334,-32.0
613,-70.4,-471.46666666666664,-29.866666666666667
614,-72.53333333333333,-492.8,-17.066666666666666
615,-74.66666666666667,-512.0,-17.066666666666666
616,-64.0,-518.4,-12.8
617,-68.26666666666667,-531.2,-4.266666666666667
618,-72.53333333333333,-531.2,0.0
619,-66.13333333333333,-526.9333333333333,2.1333333333333333
620,-68.26666666666667,-509.8666666666667,-2.1333333333333333
621,-70.4,-497.06666666666666,-6.4
622,-68.26666666666667,-477.8666666666667,0.0
623,-66.13333333333333,-475.73333333333335,-8.533333333333333
624,-70.4,-462.93333333333334,-8.533333333333333
625,-66.13333333333333,-458.6666666666667,-27.733333333333334
626,-66.13333333333333,-452.26666666666665,-8.533333333333333
627,-57.6,-456.5333333333333,-21.333333333333332
628,-55.46666666666667,-456.5333333333333,-14.933333333333334
629,-55.46666666666667,-458.6666666666667,-2.1333333333333333
630,-55.46666666666667,-467.2,2.1333333333333333
631,-49.06666666666666,-471.46666666666664,8.533333333333333
632,-42.666666666666664,-486.4,8.533333333333333
633,-42.666666666666664,-488.5333333333333,14.933333333333334
634,-38.4,-497.06666666666666,23.466666666666665
635,-23.466666666666665,-503.46666666666664,21.333333333333332
636,-25.6,-507.73333333333335,19.2
637,-2.1333333333333333,-514.1333333333333,19.2
638,2.1333333333333333,-516.2666666666667,10.666666666666666
639,25.6,-524.8,17.066666666666666
640,36.266666666666666,-526.9333333333333,12.8
641,51.2,-529.0666666666666,2.1333333333333333
642,61.86666666666667,-541.8666666666667,4.266666666666667
643,68.26666666666667,-544.0,2.1333333333333333
644,74.66666666666667,-561.0666666666666,12.8
645,78.93333333333334,-569.6,0.0
646,83.2,-584.5333333333333,6.4
647,87.46666666666667,-599.4666666666667,6.4
648,72.53333333333333,-616.5333333333333,4.266666666666667
649,72.53333333333333,-629.3333333333334,8.533333333333333
650,66.13333333333333,-637.8666666666667,12.8
651,57.6,-652.8,8.533333333333333
652,83.2,-672.0,34.13333333333333
653,59.733333333333334,-663.4666666666667,23.466666666666665
654,61.86666666666667,-665.6,38.4
655,72.53333333333333,-667.7333333333333,46.93333333333333
656,74.66666666666667,-665.6,57.6
657,70.4,-657.0666666666666,68.26666666666667
658,78.93333333333334,-659.2,87.46666666666667
659,74.66666666666667,-646.4,104.53333333333333
660,81.06666666666666,-637.8666666666667,98.13333333333333
661,87.46666666666667,-627.2,108.8
662,93.86666666666666,-616.5333333333333,106.66666666666667
663,115.2,-618.6666666666666,123.73333333333333
664,102.4,-597.3333333333334,125.86666666666666
665,96.0,-590.9333333333333,125.86666666666666
666,83.2,-595.2,121.6
667,59.733333333333334,-603.7333333333333,91.73333333333333
668,51.2,-625.0666666666666,53.333333333333336
669,40.53333333333333,-661.3333333333334,23.466666666666665
670,38.4,-691.2,-4.266666666666667
671,21.333333333333332,-738.1333333333333,-53.333333333333336
672,0.0,-774.4,-96.0
673,-46.93333333333333,-802.1333333333333,-119.46666666666667
674,-130.13333333333333,-806.4,-142.93333333333334
675,-209.06666666666666,-808.5333333333333,-136.53333333333333
676,-264.5333333333333,-778.6666666666666,-147.2
677,-305.06666666666666,-740.2666666666667,-147.2
678,-328.5333333333333,-686.9333333333333,-168.53333333333333
679,-317.8666666666667,-640.0,-183.46666666666667
680,-292.26666666666665,-582.4,-215.46666666666667
681,-266.6666666666667,-535.4666666666667,-258.1333333333333
682,-230.4,-501.3333333333333,-288.0
683,-196.26666666666665,-475.73333333333335,-292.26666666666665
684,-151.46666666666667,-477.8666666666667,-294.4
685,-91.73333333333333,-505.59999999999997,-266.6666666666667
686,-38.4,-544.0,-238.93333333333334
687,19.2,-586.6666666666666,-219.73333333333332
688,55.46666666666667,-608.0,-219.73333333333332
689,102.4,-627.2,-196.26666666666665
690,145.06666666666666,-637.8666666666667,-194.13333333333333
691,179.2,-629.3333333333334,-181.33333333333334
692,219.73333333333332,-622.9333333333333,-168.53333333333333
693,238.93333333333334,-610.1333333333333,-157.86666666666667
694,238.93333333333334,-605.8666666666667,-149.33333333333334
695,217.6,-616.5333333333333,-138.66666666666666
696,174.93333333333334,-622.9333333333333,-134.4
697,157.86666666666667,-631.4666666666667,-104.53333333333333
698,125.86666666666666,-631.4666666666667,-100.26666666666667
699,89.6,-635.7333333333333,-83.2
700,57.6,-625.0666666666666,-85.33333333333333
701,29.866666666666667,-610.1333333333333,-81.06666666666666
702,6.4,-593.0666666666666,-72.53333333333333
703,-21.333333333333332,-569.6,-74.66666666666667
704,-40.53333333333333,-548.2666666666667,-81.06666666666666
705,-66.13333333333333,-520.5333333333333,-83.2
706,-93.86666666666666,-501.3333333333333,-81.06666666666666
707,-119.46666666666667,-480.0,-85.33333333333333
708,-132.26666666666665,-465.06666666666666,-78.93333333333334
709,-136.53333333333333,-452.26666666666665,-81.06666666666666
710,-138.66666666666666,-454.4,-72.53333333333333
711,-130.13333333333333,-460.8,-76.8
712,-123.73333333333333,-465.06666666666666,-68.26666666666667
713,-102.4,-469.3333333333333,-64.0
714,-83.2,-462.93333333333334,-59.733333333333334
715,-61.86666666666667,-469.3333333333333,-76.8
716,-44.8,-462.93333333333334,-72.53333333333333
717,-27.733333333333334,-452.26666666666665,-78.93333333333334
718,0.0,-454.4,-78.93333333333334
719,10.666666666666666,-456.5333333333333,-83.2
720,27.733333333333334,-454.4,-83.2
721,49.06666666666666,-452.26666666666665,-83.2
722,61.86666666666667,-450.1333333333333,-91.73333333333333
723,74.66666666666667,-458.6666666666667,-76.8
724,81.06666666666666,-462.93333333333334,-81.06666666666666
725,87.46666666666667,-467.2,-68.26666666666667
726,93.86666666666666,-473.59999999999997,-68.26666666666667
727,98.13333333333333,-477.8666666666667,-74.66666666666667
728,102.4,-488.5333333333333,-64.0
729,106.66666666666667,-497.06666666666666,-68.26666666666667
730,102.4,-507.73333333333335,-64.0
731,96.0,-512.0,-55.46666666666667
732,100.26666666666667,-526.9333333333333,-55.46666666666667
733,89.6,-531.2,-42.666666666666664
734,83.2,-535.4666666666667,-42.666666666666664
735,81.06666666666666,-533.3333333333334,-38.4
736,72.53333333333333,-526.9333333333333,-36.266666666666666
737,59.733333333333334,-526.9333333333333,-40.53333333333333
738,55.46666666666667,-524.8,-40.53333333333333
739,49.06666666666666,-518.4,-40.53333333333333
740,40.53333333333333,-518.4,-34.13333333333333
741,29.866666666666667,-516.2666666666667,-25.6
742,27.733333333333334,-516.2666666666667,-27.733333333333334
743,25.6,-516.2666666666667,-32.0
744,38.4,-509.8666666666667,-19.2
745,44.8,-509.8666666666667,-21.333333333333332
746,53.333333333333336,-499.2,-19.2
747,57.6,-497.06666666666666,-23.466666666666665
748,61.86666666666667,-497.06666666666666,-23.466666666666665
749,61.86666666666667,-501.3333333333333,-27.733333333333334
750,68.26666666666667,-509.8666666666667,-14.933333333333334
751,68.26666666666667,-505.59999999999997,-21.333333333333332
752,72.53333333333333,-520.5333333333333,-17.066666666666666
753,78.93333333333334,-516.2666666666667,2.1333333333333333
754,72.53333333333333,-522.6666666666666,2.1333333333333333
755,74.66666666666667,-531.2,0.0
756,70.4,-533.3333333333334,8.533333333333333
757,53.333333333333336,-520.5333333333333,12.8
758,66.13333333333333,-488.5333333333333,17.066666666666666
759,85.33333333333333,-541.8666666666667,27.733333333333334
760,87.46666666666667,-499.2,2.1333333333333333
761,76.8,-544.0,21.333333333333332
762,40.53333333333333,-567.4666666666667,19.2
763,64.0,-531.2,-8.533333333333333
764,38.4,-544.0,83.2
765,55.46666666666667,-556.8,-34.13333333333333
766,40.53333333333333,-486.4,-25.6
767,66.13333333333333,-514.1333333333333,-21.333333333333332
768,49.06666666666666,-552.5333333333333,-4.266666666666667
769,76.8,-509.8666666666667,61.86666666666667
770,46.93333333333333,-558.9333333333333,23.466666666666665
771,34.13333333333333,-563.2,27.733333333333334
772,27.733333333333334,-569.6,36.266666666666666
773,23.466666666666665,-580.2666666666667,57.6
774,21.333333333333332,-597.3333333333334,59.733333333333334
775,25.6,-603.7333333333333,61.86666666666667
776,17.066666666666666,-605.8666666666667,64.0
777,19.2,-620.8,57.6
778,19.2,-620.8,55.46666666666667
779,36.266666666666666,-614.4,59.733333333333334
780,42.666666666666664,-612.2666666666667,64.0
781,59.733333333333334,-614.4,61.86666666666667
782,57.6,-605.8666666666667,78.93333333333334
783,78.93333333333334,-605.8666666666667,91.73333333333333
784,85.33333333333333,-599.4666666666667,102.4
785,96.0,-595.2,110.93333333333334
786,100.26666666666667,-586.6666666666666,110.93333333333334
787,113.06666666666666,-571.7333333333333,106.66666666666667
788,134.4,-561.0666666666666,98.13333333333333
789,128.0,-558.9333333333333,70.4
790,108.8,-576.0,42.666666666666664
791,89.6,-614.4,4.266666666666667
792,57.6,-640.0,-29.866666666666667
793,36.266666666666666,-682.6666666666666,-78.93333333333334
794,8.533333333333333,-706.1333333333333,-115.2
795,19.2,-765.8666666666667,-142.93333333333334
796,6.4,-817.0666666666666,-147.2
797,6.4,-834.1333333333333,-147.2
798,25.6,-838.4,-153.6
799,49.06666666666666,-821.3333333333334,-160.0
800,72.53333333333333,-782.9333333333333,-174.93333333333334
801,57.6,-733.8666666666667,-194.13333333333333
802,46.93333333333333,-682.6666666666666,-221.86666666666667
803,12.8,-646.4,-234.66666666666666
804,12.8,-620.8,-279.46666666666664
805,0.0,-576.0,-273.06666666666666
806,-17.066666666666666,-546.1333333333333,-275.2
807,-27.733333333333334,-526.9333333333333,-270.93333333333334
808,-46.93333333333333,-492.8,-268.8
809,-64.0,-484.26666666666665,-247.46666666666667
810,-93.86666666666666,-494.93333333333334,-224.0
811,-104.53333333333333,-512.0,-204.8
812,-117.33333333333333,-546.1333333333333,-162.13333333333333
813,-119.46666666666667,-571.7333333333333,-142.93333333333334
814,-113.06666666666666,-601.6,-128.0
815,-96.0,-631.4666666666667,-117.33333333333333
816,-64.0,-652.8,-110.93333333333334
817,-25.6,-661.3333333333334,-98.13333333333333
818,-2.1333333333333333,-650.6666666666666,-113.06666666666666
819,21.333333333333332,-635.7333333333333,-110.93333333333334
820,36.266666666666666,-618.6666666666666,-104.53333333333333
821,55.46666666666667,-590.9333333333333,-110.93333333333334
822,70.4,-571.7333333333333,-119.46666666666667
823,70.4,-548.2666666666667,-113.06666666666666
824,72.53333333333333,-550.4,-83.2
825,57.6,-507.73333333333335,-102.4
826,59.733333333333334,-486.4,-115.2
827,53.333333333333336,-477.8666666666667,-108.8
828,44.8,-456.5333333333333,-113.06666666666666
829,34.13333333333333,-452.26666666666665,-117.33333333333333
830,29.866666666666667,-441.59999999999997,-115.2
831,32.0,-443.73333333333335,-123.73333333333333
832,21.333333333333332,-430.93333333333334,-110.93333333333334
833,12.8,-422.4,-113.06666666666666
834,4.266666666666667,-428.8,-108.8
835,6.4,-422.4,-91.73333333333333
836,-23.466666666666665,-426.6666666666667,-100.26666666666667
837,-38.4,-428.8,-96.0
838,-64.0,-428.8,-96.0
839,-70.4,-422.4,-98.13333333333333
840,-83.2,-433.06666666666666,-102.4
841,-98.13333333333333,-439.46666666666664,-98.13333333333333
842,-110.93333333333334,-445.8666666666667,-106.66666666666667
843,-110.93333333333334,-454.4,-96.0
844,-113.06666666666666,-480.0,-102.4
845,-125.86666666666666,-486.4,-91.73333333333333
846,-113.06666666666666,-507.73333333333335,-89.6
847,-123.73333333333333,-520.5333333333333,-87.46666666666667
848,-106.66666666666667,-524.8,-72.53333333333333
849,-98.13333333333333,-535.4666666666667,-68.26666666666667
850,-98.13333333333333,-539.7333333333333,-66.13333333333333
851,-72.53333333333333,-550.4,-64.0
852,-64.0,-554.6666666666666,-59.733333333333334
853,-42.666666666666664,-554.6666666666666,-59.733333333333334
854,-32.0,-548.2666666666667,-66.13333333333333
855,-10.666666666666666,-544.0,-76.8
856,-4.266666666666667,-541.8666666666667,-81.06666666666666
857,0.0,-537.6,-91.73333333333333
858,2.1333333333333333,-526.9333333333333,-96.0
859,12.8,-520.5333333333333,-102.4
860,23.466666666666665,-516.2666666666667,-100.26666666666667
861,38.4,-503.46666666666664,-104.53333333333333
862,49.06666666666666,-494.93333333333334,-110.93333333333334
863,53.333333333333336,-488.5333333333333,-113.06666666666666
864,57.6,-480.0,-113.06666666666666
865,55.46666666666667,-475.73333333333335,-106.66666666666667
866,42.666666666666664,-473.59999999999997,-106.66666666666667
867,42.666666666666664,-469.3333333333333,-110.93333333333334
868,27.733333333333334,-475.73333333333335,-104.53333333333333
869,34.13333333333333,-475.73333333333335,-104.53333333333333
870,29.866666666666667,-465.06666666666666,-104.53333333333333
871,27.733333333333334,-458.6666666666667,-110.93333333333334
872,12.8,-458.6666666666667,-115.2
873,21.333333333333332,-448.0,-121.6
874,19.2,-435.2,-132.26666666666665
875,6.4,-443.73333333333335,-136.53333333333333
876,14.933333333333334,-433.06666666666666,-136.53333333333333
877,12.8,-420.26666666666665,-136.53333333333333
878,10.666666666666666,-405.3333333333333,-145.06666666666666
879,14.933333333333334,-411.73333333333335,-147.2
880,17.066666666666666,-413.8666666666667,-136.53333333333333
881,21.333333333333332,-420.26666666666665,-123.73333333333333
882,23.466666666666665,-424.5333333333333,-117.33333333333333
883,21.333333333333332,-435.2,-117.33333333333333
884,25.6,-452.26666666666665,-115.2
885,25.6,-465.06666666666666,-119.46666666666667
886,8.533333333333333,-467.2,-121.6
887,10.666666666666666,-460.8,-134.4
888,0.0,-454.4,-151.46666666666667
889,-12.8,-443.73333333333335,-164.26666666666665
890,-29.866666666666667,-437.3333333333333,-174.93333333333334
891,-27.733333333333334,-426.6666666666667,-189.86666666666667
892,-40.53333333333333,-428.8,-206.93333333333334
893,-55.46666666666667,-430.93333333333334,-204.8
894,-64.0,-424.5333333333333,-213.33333333333334
895,-72.53333333333333,-426.6666666666667,-211.2
896,-78.93333333333334,-437.3333333333333,-217.6
897,-96.0,-430.93333333333334,-219.73333333333332
898,-96.0,-430.93333333333334,-206.93333333333334
899,-93.86666666666666,-437.3333333333333,-209.06666666666666
900,-100.26666666666667,-452.26666666666665,-211.2
901,-108.8,-445.8666666666667,-209.06666666666666
902,-100.26666666666667,-462.93333333333334,-198.4
903,-106.66666666666667,-458.6666666666667,-211.2
904,-115.2,-488.5333333333333,-219.73333333333332
905,-121.6,-497.06666666666666,-219.73333333333332
906,-130.13333333333333,-522.6666666666666,-204.8
907,-151.46666666666667,-529.0666666666666,-206.93333333333334
908,-142.93333333333334,-558.9333333333333,-204.8
909,-149.33333333333334,-563.2,-189.86666666666667
910,-151.46666666666667,-597.3333333333334,-194.13333333333333
911,-155.73333333333332,-599.4666666666667,-177.06666666666666
912,-149.33333333333334,-614.4,-181.33333333333334
913,-145.06666666666666,-603.7333333333333,-160.0
914,-128.0,-582.4,-177.06666666666666
915,-110.93333333333334,-552.5333333333333,-166.4
916,-96.0,-520.5333333333333,-162.13333333333333
917,-78.93333333333334,-475.73333333333335,-166.4
918,-59.733333333333334,-458.6666666666667,-157.86666666666667
919,-49.06666666666666,-439.46666666666664,-160.0
920,-34.13333333333333,-433.06666666666666,-153.6
921,-21.333333333333332,-428.8,-147.2
922,-8.533333333333333,-433.06666666666666,-153.6
923,2.1333333333333333,-426.6666666666667,-153.6
924,2.1333333333333333,-433.06666666666666,-160.0
925,4.266666666666667,-450.1333333333333,-153.6
926,19.2,-462.93333333333334,-162.13333333333333
927,21.333333333333332,-480.0,-166.4
928,40.53333333333333,-497.06666666666666,-185.6
929,36.266666666666666,-509.8666666666667,-194.13333333333333
930,57.6,-539.7333333333333,-202.66666666666666
931,72.53333333333333,-563.2,-192.0
932,81.06666666666666,-601.6,-198.4
933,78.93333333333334,-614.4,-187.73333333333332
934,38.4,-648.5333333333333,-183.46666666666667
935,66.13333333333333,-667.7333333333333,-200.53333333333333
936,68.26666666666667,-682.6666666666666,-185.6
937,68.26666666666667,-701.8666666666667,-185.6
938,70.4,-723.2,-164.26666666666665
939,70.4,-729.6,-172.8
940,81.06666666666666,-729.6,-179.2
941,93.86666666666666,-714.6666666666666,-185.6
942,100.26666666666667,-680.5333333333333,-187.73333333333332
943,91.73333333333333,-646.4,-189.86666666666667
944,76.8,-595.2,-202.66666666666666
945,61.86666666666667,-593.0666666666666,-215.46666666666667
946,55.46666666666667,-597.3333333333334,-234.66666666666666
947,46.93333333333333,-610.1333333333333,-251.73333333333332
948,59.733333333333334,-614.4,-277.3333333333333
949,78.93333333333334,-654.9333333333333,-251.73333333333332
950,104.53333333333333,-684.8,-234.66666666666666
951,106.66666666666667,-712.5333333333333,-211.2
952,113.06666666666666,-733.8666666666667,-174.93333333333334
953,106.66666666666667,-742.4,-140.8
954,81.06666666666666,-727.4666666666667,-160.0
955,19.2,-665.6,-189.86666666666667
956,-34.13333333333333,-578.1333333333333,-230.4
957,-93.86666666666666,-518.4,-260.26666666666665
958,-121.6,-494.93333333333334,-262.4
959,-147.2,-482.1333333333333,-228.26666666666665
960,-181.33333333333334,-490.6666666666667,-162.13333333333333
961,-192.0,-505.59999999999997,-125.86666666666666
962,-179.2,-501.3333333333333,-181.33333333333334
963,-155.73333333333332,-469.3333333333333,-226.13333333333333
964,-123.73333333333333,-439.46666666666664,-264.5333333333333
965,-89.6,-467.2,-296.5333333333333
966,-61.86666666666667,-469.3333333333333,-307.2
967,-36.266666666666666,-471.46666666666664,-311.46666666666664
968,-12.8,-454.4,-294.4
969,-23.466666666666665,-433.06666666666666,-268.8
970,-81.06666666666666,-398.93333333333334,-268.8
971,-138.66666666666666,-392.5333333333333,-294.4
972,-204.8,-396.8,-320.0
973,-236.79999999999998,-435.2,-347.73333333333335
974,-260.26666666666665,-501.3333333333333,-398.93333333333334
975,-270.93333333333334,-535.4666666666667,-448.0
976,-262.4,-561.0666666666666,-509.8666666666667
977,-238.93333333333334,-548.2666666666667,-520.5333333333333
978,-224.0,-505.59999999999997,-516.2666666666667
979,-215.46666666666667,-462.93333333333334,-516.2666666666667
980,-224.0,-409.6,-514.1333333333333
981,-243.2,-358.4,-529.0666666666666
982,-260.26666666666665,-341.3333333333333,-548.2666666666667
983,-258.1333333333333,-354.1333333333333,-582.4
984,-264.5333333333333,-375.46666666666664,-631.4666666666667
985,-262.4,-398.93333333333334,-672.0
986,-260.26666666666665,-433.06666666666666,-635.7333333333333
987,-234.66666666666666,-413.8666666666667,-610.1333333333333
988,-194.13333333333333,-426.6666666666667,-597.3333333333334
989,-174.93333333333334,-428.8,-584.5333333333333
990,-151.46666666666667,-418.1333333333333,-601.6
991,-134.4,-411.73333333333335,-620.8
992,-132.26666666666665,-394.6666666666667,-616.5333333333333
993,-125.86666666666666,-386.1333333333333,-612.2666666666667
994,-134.4,-381.8666666666667,-603.7333333333333
995,-136.53333333333333,-369.06666666666666,-618.6666666666666
996,-113.06666666666666,-345.6,-618.6666666666666
997,-106.66666666666667,-330.6666666666667,-652.8
998,-72.53333333333333,-307.2,-678.4
999,-204.8,-234.66666666666666,-618.6666666666666
1000,-14.933333333333334,-264.5333333333333,-759.4666666666667
1001,-66.13333333333333,-224.0,-650.6666666666666
1002,-25.6,-234.66666666666666,-738.1333333333333
1003,-76.8,-249.6,-650.6666666666666
1004,-57.6,-258.1333333333333,-697.6
1005,-44.8,-168.53333333333333,-674.1333333333333
1006,4.266666666666667,-166.4,-674.1333333333333
1007,46.93333333333333,-160.0,-701.8666666666667
1008,134.4,-179.2,-742.4
1009,145.06666666666666,-155.73333333333332,-699.7333333333333
1010,128.0,-179.2,-644.2666666666667
1011,100.26666666666667,-142.93333333333334,-672.0
1012,8.533333333333333,-96.0,-648.5333333333333
1013,-81.06666666666666,-102.4,-701.8666666666667
1014,-134.4,-74.66666666666667,-787.2
1015,-228.26666666666665,-25.6,-823.4666666666667
1016,-298.6666666666667,-36.266666666666666,-761.6
1017,-358.4,-36.266666666666666,-716.8
1018,-375.46666666666664,-53.333333333333336,-686.9333333333333
1019,-409.6,-119.46666666666667,-603.7333333333333
1020,-371.2,-174.93333333333334,-561.0666666666666
1021,-437.3333333333333,-256.0,-401.06666666666666
1022,-522.6666666666666,-322.1333333333333,-358.4
1023,-401.06666666666666,-362.6666666666667,-409.6
1024,-266.6666666666667,-371.2,-420.26666666666665
1025,-177.06666666666666,-358.4,-418.1333333333333
1026,-130.13333333333333,-352.0,-441.59999999999997
1027,-96.0,-322.1333333333333,-445.8666666666667
1028,-36.266666666666666,-332.8,-503.46666666666664
1029,-64.0,-313.6,-501.3333333333333
1030,-44.8,-337.06666666666666,-505.59999999999997
1031,-12.8,-320.0,-490.6666666666667
1032,12.8,-296.5333333333333,-475.73333333333335
1033,42.666666666666664,-305.06666666666666,-520.5333333333333
1034,34.13333333333333,-328.5333333333333,-503.46666666666664
1035,61.86666666666667,-377.6,-509.8666666666667
1036,27.733333333333334,-352.0,-512.0
1037,19.2,-403.2,-541.8666666666667
1038,-6.4,-403.2,-505.59999999999997
1039,0.0,-433.06666666666666,-533.3333333333334
1040,-55.46666666666667,-465.06666666666666,-490.6666666666667
1041,-121.6,-452.26666666666665,-520.5333333333333
1042,-93.86666666666666,-518.4,-514.1333333333333
1043,-123.73333333333333,-439.46666666666664,-529.0666666666666
1044,-145.06666666666666,-448.0,-499.2
1045,-147.2,-398.93333333333334,-526.9333333333333
1046,-110.93333333333334,-416.0,-512.0
1047,-145.06666666666666,-416.0,-535.4666666666667
1048,-136.53333333333333,-450.1333333333333,-520.5333333333333
1049,-104.53333333333333,-435.2,-516.2666666666667
1050,-59.733333333333334,-396.8,-503.46666666666664
1051,-44.8,-437.3333333333333,-501.3333333333333
1052,-36.266666666666666,-416.0,-505.59999999999997
1053,-44.8,-420.26666666666665,-554.6666666666666
1054,-8.533333333333333,-450.1333333333333,-544.0
1055,-27.733333333333334,-420.26666666666665,-541.8666666666667
1056,-44.8,-413.8666666666667,-554.6666666666666
1057,-40.53333333333333,-403.2,-563.2
1058,27.733333333333334,-413.8666666666667,-578.1333333333333
1059,14.933333333333334,-407.46666666666664,-569.6
1060,2.1333333333333333,-394.6666666666667,-550.4
1061,0.0,-381.8666666666667,-541.8666666666667
1062,-29.866666666666667,-362.6666666666667,-529.0666666666666
1063,-36.266666666666666,-345.6,-539.7333333333333
1064,-42.666666666666664,-354.1333333333333,-531.2
1065,-40.53333333333333,-356.26666666666665,-529.0666666666666
1066,-32.0,-377.6,-522.6666666666666
1067,-6.4,-377.6,-520.5333333333333
1068,38.4,-403.2,-494.93333333333334
1069,25.6,-424.5333333333333,-494.93333333333334
1070,53.333333333333336,-441.59999999999997,-499.2
1071,55.46666666666667,-439.46666666666664,-494.93333333333334
1072,53.333333333333336,-435.2,-501.3333333333333
1073,61.86666666666667,-416.0,-501.3333333333333
1074,64.0,-396.8,-512.0
1075,57.6,-373.3333333333333,-512.0
1076,46.93333333333333,-366.93333333333334,-492.8
1077,44.8,-354.1333333333333,-471.46666666666664
1078,29.866666666666667,-364.8,-454.4
1079,27.733333333333334,-366.93333333333334,-462.93333333333334
1080,10.666666666666666,-386.1333333333333,-452.26666666666665
1081,4.266666666666667,-394.6666666666667,-456.5333333333333
1082,-17.066666666666666,-407.46666666666664,-443.73333333333335
1083,2.1333333333333333,-424.5333333333333,-456.5333333333333
1084,0.0,-435.2,-456.5333333333333
1085,2.1333333333333333,-448.0,-454.4
1086,12.8,-428.8,-467.2
1087,27.733333333333334,-405.3333333333333,-439.46666666666664
1088,34.13333333333333,-394.6666666666667,-430.93333333333334
1089,42.666666666666664,-388.26666666666665,-433.06666666666666
1090,46.93333333333333,-377.6,-448.0
1091,29.866666666666667,-373.3333333333333,-456.5333333333333
1092,25.6,-371.2,-454.4
1093,12.8,-384.0,-462.93333333333334
1094,4.266666666666667,-381.8666666666667,-460.8
1095,-12.8,-403.2,-473.59999999999997
1096,-23.466666666666665,-409.6,-469.3333333333333
1097,-23.466666666666665,-418.1333333333333,-477.8666666666667
1098,-19.2,-420.26666666666665,-480.0
1099,0.0,-411.73333333333335,-465.06666666666666
1100,2.1333333333333333,-409.6,-454.4
1101,0.0,-394.6666666666667,-450.1333333333333
1102,0.0,-394.6666666666667,-433.06666666666666
1103,0.0,-398.93333333333334,-420.26666666666665
1104,0.0,-413.8666666666667,-435.2
1105,2.1333333333333333,-430.93333333333334,-469.3333333333333
1106,4.266666666666667,-443.73333333333335,-475.73333333333335
1107,12.8,-450.1333333333333,-477.8666666666667
1108,19.2,-450.1333333333333,-499.2
1109,32.0,-422.4,-501.3333333333333
1110,66.13333333333333,-409.6,-471.46666666666664
1111,61.86666666666667,-394.6666666666667,-460.8
1112,59.733333333333334,-396.8,-490.6666666666667
1113,51.2,-396.8,-499.2
1114,44.8,-403.2,-514.1333333333333
1115,38.4,-411.73333333333335,-539.7333333333333
1116,8.533333333333333,-416.0,-522.6666666666666
1117,4.266666666666667,-411.73333333333335,-507.73333333333335
1118,0.0,-411.73333333333335,-497.06666666666666
1119,-23.466666666666665,-418.1333333333333,-492.8
1120,-17.066666666666666,-409.6,-486.4
1121,6.4,-411.73333333333335,-486.4
1122,12.8,-424.5333333333333,-482.1333333333333
1123,10.666666666666666,-443.73333333333335,-488.5333333333333
1124,0.0,-465.06666666666666,-505.59999999999997
1125,4.266666666666667,-469.3333333333333,-512.0
1126,12.8,-458.6666666666667,-494.93333333333334
1127,19.2,-456.5333333333333,-503.46666666666664
1128,29.866666666666667,-439.46666666666664,-492.8
1129,19.2,-430.93333333333334,-492.8
1130,21.333333333333332,-426.6666666666667,-486.4
1131,36.266666666666666,-430.93333333333334,-497.06666666666666
1132,34.13333333333333,-450.1333333333333,-494.93333333333334
1133,32.0,-473.59999999999997,-488.5333333333333
1134,38.4,-505.59999999999997,-499.2
1135,38.4,-514.1333333333333,-480.0
1136,29.866666666666667,-514.1333333333333,-467.2
1137,38.4,-520.5333333333333,-488.5333333333333
1138,32.0,-522.6666666666666,-501.3333333333333
1139,36.266666666666666,-533.3333333333334,-501.3333333333333
1140,42.666666666666664,-520.5333333333333,-499.2
1141,49.06666666666666,-494.93333333333334,-486.4
1142,66.13333333333333,-475.73333333333335,-497.06666666666666
1143,72.53333333333333,-465.06666666666666,-501.3333333333333
1144,81.06666666666666,-452.26666666666665,-516.2666666666667
1145,85.33333333333333,-450.1333333333333,-520.5333333333333
1146,72.53333333333333,-443.73333333333335,-514.1333333333333
1147,55.46666666666667,-437.3333333333333,-509.8666666666667
1148,38.4,-424.5333333333333,-507.73333333333335
1149,27.733333333333334,-411.73333333333335,-492.8
1150,10.666666666666666,-409.6,-475.73333333333335
1151,17.066666666666666,-403.2,-454.4
1152,32.0,-428.8,-456.5333333333333
1153,32.0,-460.8,-450.1333333333333
1154,29.866666666666667,-484.26666666666665,-426.6666666666667
1155,42.666666666666664,-494.93333333333334,-426.6666666666667
1156,59.733333333333334,-516.2666666666667,-435.2
1157,72.53333333333333,-503.46666666666664,-450.1333333333333
1158,78.93333333333334,-477.8666666666667,-460.8
1159,96.0,-437.3333333333333,-494.93333333333334
1160,83.2,-428.8,-437.3333333333333
1161,83.2,-405.3333333333333,-426.6666666666667
1162,74.66666666666667,-390.4,-416.0
1163,66.13333333333333,-394.6666666666667,-405.3333333333333
1164,36.266666666666666,-384.0,-403.2
1165,25.6,-388.26666666666665,-394.6666666666667
1166,19.2,-396.8,-392.5333333333333
1167,2.1333333333333333,-409.6,-394.6666666666667
1168,0.0,-411.73333333333335,-396.8
1169,-6.4,-409.6,-390.4
1170,4.266666666666667,-409.6,-392.5333333333333
1171,8.533333333333333,-416.0,-388.26666666666665
1172,8.533333333333333,-411.73333333333335,-409.6
1173,12.8,-401.06666666666666,-411.73333333333335
1174,14.933333333333334,-377.6,-398.93333333333334
1175,10.666666666666666,-364.8,-394.6666666666667
1176,2.1333333333333333,-358.4,-379.73333333333335
1177,-6.4,-354.1333333333333,-379.73333333333335
1178,-19.2,-352.0,-369.06666666666666
1179,-36.266666666666666,-354.1333333333333,-369.06666666666666
1180,-40.53333333333333,-354.1333333333333,-354.1333333333333
1181,-40.53333333333333,-366.93333333333334,-337.06666666666666
1182,-32.0,-366.93333333333334,-373.3333333333333
1183,-32.0,-379.73333333333335,-379.73333333333335
1184,-25.6,-396.8,-396.8
1185,-25.6,-394.6666666666667,-398.93333333333334
1186,-6.4,-396.8,-388.26666666666665
1187,-14.933333333333334,-396.8,-384.0
1188,-14.933333333333334,-386.1333333333333,-398.93333333333334
1189,-23.466666666666665,-381.8666666666667,-392.5333333333333
1190,-23.466666666666665,-377.6,-396.8
1191,-19.2,-358.4,-398.93333333333334
1192,-12.8,-343.46666666666664,-403.2
1193,-8.533333333333333,-343.46666666666664,-396.8
1194,-2.1333333333333333,-356.26666666666665,-379.73333333333335
1195,2.1333333333333333,-371.2,-373.3333333333333
1196,10.666666666666666,-373.3333333333333,-379.73333333333335
1197,17.066666666666666,-388.26666666666665,-381.8666666666667
1198,10.666666666666666,-409.6,-369.06666666666666
1199,25.6,-435.2,-377.6
1200,6.4,-458.6666666666667,-371.2
1201,0.0,-473.59999999999997,-381.8666666666667
1202,2.1333333333333333,-473.59999999999997,-392.5333333333333
1203,6.4,-454.4,-392.5333333333333
1204,0.0,-441.59999999999997,-396.8
1205,2.1333333333333333,-411.73333333333335,-390.4
1206,4.266666666666667,-401.06666666666666,-403.2
1207,8.533333333333333,-388.26666666666665,-403.2
1208,8.533333333333333,-381.8666666666667,-409.6
1209,4.266666666666667,-379.73333333333335,-416.0
1210,8.533333333333333,-375.46666666666664,-405.3333333333333
1211,8.533333333333333,-384.0,-394.6666666666667
1212,19.2,-394.6666666666667,-392.5333333333333
1213,23.466666666666665,-398.93333333333334,-401.06666666666666
1214,29.866666666666667,-403.2,-396.8
1215,32.0,-413.8666666666667,-407.46666666666664
1216,32.0,-428.8,-405.3333333333333
1217,29.866666666666667,-430.93333333333334,-413.8666666666667
1218,27.733333333333334,-430.93333333333334,-405.3333333333333
1219,27.733333333333334,-426.6666666666667,-411.73333333333335
1220,19.2,-426.6666666666667,-409.6
1221,21.333333333333332,-428.8,-413.8666666666667
1222,25.6,-420.26666666666665,-413.8666666666667
1223,23.466666666666665,-420.26666666666665,-413.8666666666667
1224,25.6,-418.1333333333333,-411.73333333333335
1225,23.466666666666665,-422.4,-403.2
1226,17.066666666666666,-411.73333333333335,-403.2
1227,12.8,-409.6,-405.3333333333333
1228,14.933333333333334,-418.1333333333333,-398.93333333333334
1229,2.1333333333333333,-411.73333333333335,-407.46666666666664
1230,8.533333333333333,-418.1333333333333,-411.73333333333335
1231,0.0,-413.8666666666667,-424.5333333333333
1232,-4.266666666666667,-409.6,-411.73333333333335
1233,-8.533333333333333,-401.06666666666666,-411.73333333333335
1234,-8.533333333333333,-388.26666666666665,-401.06666666666666
1235,-8.533333333333333,-386.1333333333333,-396.8
1236,2.1333333333333333,-381.8666666666667,-403.2
1237,6.4,-371.2,-416.0
1238,19.2,-373.3333333333333,-407.46666666666664
1239,14.933333333333334,-360.5333333333333,-405.3333333333333
1240,14.933333333333334,-354.1333333333333,-386.1333333333333
1241,27.733333333333334,-366.93333333333334,-371.2
1242,25.6,-373.3333333333333,-390.4
1243,29.866666666666667,-369.06666666666666,-390.4
1244,38.4,-388.26666666666665,-381.8666666666667
1245,40.53333333333333,-381.8666666666667,-381.8666666666667
1246,40.53333333333333,-394.6666666666667,-375.46666666666664
1247,32.0,-384.0,-373.3333333333333
1248,34.13333333333333,-386.1333333333333,-373.3333333333333
1249,34.13333333333333,-373.3333333333333,-371.2
1250,27.733333333333334,-373.3333333333333,-366.93333333333334
1251,36.266666666666666,-375.46666666666664,-362.6666666666667
1252,34.13333333333333,-362.6666666666667,-364.8
1253,38.4,-377.6,-358.4
1254,46.93333333333333,-364.8,-356.26666666666665
1255,49.06666666666666,-366.93333333333334,-356.26666666666665
1256,53.333333333333336,-369.06666666666666,-354.1333333333333
1257,55.46666666666667,-366.93333333333334,-343.46666666666664
1258,51.2,-352.0,-341.3333333333333
1259,44.8,-345.6,-334.93333333333334
1260,53.333333333333336,-341.3333333333333,-332.8
1261,46.93333333333333,-339.2,-326.4
1262,53.333333333333336,-339.2,-330.6666666666667
1263,51.2,-343.46666666666664,-328.5333333333333
1264,42.666666666666664,-341.3333333333333,-334.93333333333334
1265,38.4,-334.93333333333334,-326.4
1266,38.4,-337.06666666666666,-320.0
1267,44.8,-347.73333333333335,-307.2
1268,57.6,-339.2,-307.2
1269,38.4,-326.4,-311.46666666666664
1270,61.86666666666667,-328.5333333333333,-311.46666666666664
1271,66.13333333333333,-324.26666666666665,-311.46666666666664
1272,76.8,-305.06666666666666,-307.2
1273,81.06666666666666,-283.73333333333335,-281.6
1274,91.73333333333333,-273.06666666666666,-273.06666666666666
1275,87.46666666666667,-268.8,-279.46666666666664
1276,100.26666666666667,-260.26666666666665,-275.2
1277,85.33333333333333,-249.6,-270.93333333333334
1278,96.0,-258.1333333333333,-262.4
1279,91.73333333333333,-258.1333333333333,-245.33333333333334
1280,85.33333333333333,-260.26666666666665,-234.66666666666666
1281,49.06666666666666,-256.0,-224.0
1282,85.33333333333333,-236.79999999999998,-258.1333333333333
1283,85.33333333333333,-224.0,-247.46666666666667
1284,83.2,-202.66666666666666,-245.33333333333334
1285,83.2,-194.13333333333333,-264.5333333333333
1286,76.8,-177.06666666666666,-258.1333333333333
1287,72.53333333333333,-153.6,-253.86666666666667
1288,85.33333333333333,-145.06666666666666,-236.79999999999998
1289,93.86666666666666,-136.53333333333333,-217.6
1290,102.4,-132.26666666666665,-228.26666666666665
1291,104.53333333333333,-125.86666666666666,-221.86666666666667
1292,108.8,-121.6,-215.46666666666667
1293,110.93333333333334,-115.2,-217.6
1294,108.8,-110.93333333333334,-194.13333333333333
1295,100.26666666666667,-106.66666666666667,-170.66666666666666
1296,104.53333333333333,-102.4,-153.6
1297,128.0,-89.6,-136.53333333333333
1298,121.6,-72.53333333333333,-104.53333333333333
1299,145.06666666666666,-57.6,-110.93333333333334
1300,157.86666666666667,-44.8,-108.8
1301,157.86666666666667,-25.6,-115.2
1302,172.8,0.0,-153.6
1303,172.8,-6.4,-162.13333333333333
1304,160.0,-21.333333333333332,-142.93333333333334
1305,142.93333333333334,-70.4,-128.0
1306,128.0,-121.6,-113.06666666666666
1307,130.13333333333333,-166.4,-108.8
1308,128.0,-211.2,-106.66666666666667
1309,134.4,-249.6,-119.46666666666667
1310,136.53333333333333,-264.5333333333333,-138.66666666666666
1311,138.66666666666666,-270.93333333333334,-187.73333333333332
1312,121.6,-260.26666666666665,-224.0
1313,100.26666666666667,-262.4,-247.46666666666667
1314,74.66666666666667,-277.3333333333333,-268.8
1315,40.53333333333333,-264.5333333333333,-328.5333333333333
1316,8.533333333333333,-262.4,-364.8
1317,40.53333333333333,-317.8666666666667,-328.5333333333333
1318,110.93333333333334,-433.06666666666666,-198.4
1319,192.0,-546.1333333333333,-46.93333333333333
1320,360.5333333333333,-608.0,51.2
1321,424.5333333333333,-605.8666666666667,-29.866666666666667
1322,601.6,-526.9333333333333,-113.06666666666666
1323,725.3333333333334,-381.8666666666667,-151.46666666666667
1324,829.8666666666667,-187.73333333333332,-162.13333333333333
1325,970.6666666666666,-113.06666666666666,-166.4
1326,1075.2,-32.0,-253.86666666666667
1327,1092.2666666666667,-2.1333333333333333,-264.5333333333333
1328,1175.4666666666667,-153.6,-298.6666666666667
1329,1222.4,-275.2,-243.2
1330,1139.2,-460.8,-138.66666666666666
1331,1218.1333333333332,-652.8,-115.2
1332,1083.7333333333333,-748.8,76.8
1333,1634.1333333333332,-834.1333333333333,128.0
1334,1996.8,-729.6,273.06666666666666
1335,2822.4,-665.6,55.46666666666667
1336,3507.2,-810.6666666666666,23.466666666666665
1337,4209.066666666667,-1098.6666666666667,371.2
1338,4424.533333333333,-1393.0666666666666,554.6666666666666
1339,3769.6,-1435.7333333333333,270.93333333333334
1340,2449.0666666666666,-1147.7333333333333,59.733333333333334
1341,1429.3333333333333,-893.8666666666667,53.333333333333336
1342,573.8666666666667,-701.8666666666667,300.8
1343,91.73333333333333,-652.8,469.3333333333333
1344,187.73333333333332,-667.7333333333333,354.1333333333333
1345,422.4,-403.2,174.93333333333334
1346,716.8,-138.66666666666666,140.8
1347,829.8666666666667,-2.1333333333333333,-70.4
1348,782.9333333333333,70.4,-89.6
1349,663.4666666666667,76.8,46.93333333333333
1350,541.8666666666667,74.66666666666667,174.93333333333334
1351,460.8,32.0,228.26666666666665
1352,418.1333333333333,6.4,177.06666666666666
1353,398.93333333333334,10.666666666666666,172.8
1354,356.26666666666665,25.6,183.46666666666667
1355,313.6,14.933333333333334,183.46666666666667
1356,215.46666666666667,0.0,130.13333333333333
1357,123.73333333333333,-29.866666666666667,138.66666666666666
1358,23.466666666666665,-59.733333333333334,157.86666666666667
1359,-4.266666666666667,-44.8,236.79999999999998
1360,19.2,-32.0,320.0
1361,96.0,-10.666666666666666,366.93333333333334
1362,123.73333333333333,46.93333333333333,377.6
1363,164.26666666666665,93.86666666666666,394.6666666666667
1364,226.13333333333333,162.13333333333333,392.5333333333333
1365,256.0,238.93333333333334,369.06666666666666
1366,247.46666666666667,283.73333333333335,416.0
1367,238.93333333333334,266.6666666666667,411.73333333333335
1368,183.46666666666667,238.93333333333334,371.2
1369,157.86666666666667,204.8,334.93333333333334
1370,123.73333333333333,157.86666666666667,309.3333333333333
1371,185.6,147.2,300.8
1372,256.0,115.2,345.6
1373,343.46666666666664,85.33333333333333,347.73333333333335
1374,413.8666666666667,81.06666666666666,360.5333333333333
1375,456.5333333333333,89.6,322.1333333333333
1376,448.0,108.8,294.4
1377,475.73333333333335,117.33333333333333,275.2
1378,533.3333333333334,140.8,260.26666666666665
1379,618.6666666666666,183.46666666666667,268.8
1380,593.0666666666666,232.53333333333333,224.0
1381,537.6,258.1333333333333,162.13333333333333
1382,490.6666666666667,224.0,149.33333333333334
1383,426.6666666666667,204.8,145.06666666666666
1384,309.3333333333333,204.8,138.66666666666666
1385,230.4,213.33333333333334,157.86666666666667
1386,153.6,215.46666666666667,181.33333333333334
1387,108.8,245.33333333333334,200.53333333333333
1388,72.53333333333333,273.06666666666666,241.06666666666666
1389,38.4,288.0,256.0
1390,0.0,307.2,277.3333333333333
1391,-42.666666666666664,324.26666666666665,298.6666666666667
1392,-70.4,337.06666666666666,307.2
1393,-40.53333333333333,326.4,311.46666666666664
1394,-8.533333333333333,347.73333333333335,302.93333333333334
1395,34.13333333333333,343.46666666666664,285.8666666666667
1396,85.33333333333333,330.6666666666667,273.06666666666666
1397,110.93333333333334,324.26666666666665,264.5333333333333
1398,98.13333333333333,311.46666666666664,253.86666666666667
1399,72.53333333333333,313.6,256.0
1400,61.86666666666667,315.73333333333335,268.8
1401,38.4,315.73333333333335,266.6666666666667
1402,10.666666666666666,320.0,290.1333333333333
1403,0.0,324.26666666666665,309.3333333333333
1404,4.266666666666667,334.93333333333334,337.06666666666666
1405,12.8,332.8,354.1333333333333
1406,23.466666666666665,324.26666666666665,377.6
1407,51.2,328.5333333333333,411.73333333333335
1408,49.06666666666666,339.2,430.93333333333334
1409,34.13333333333333,317.8666666666667,448.0
1410,32.0,320.0,460.8
1411,40.53333333333333,324.26666666666665,469.3333333333333
1412,42.666666666666664,343.46666666666664,486.4
1413,38.4,354.1333333333333,484.26666666666665
1414,14.933333333333334,356.26666666666665,499.2
1415,-4.266666666666667,341.3333333333333,490.6666666666667
1416,-25.6,317.8666666666667,488.5333333333333
1417,-51.2,290.1333333333333,488.5333333333333
1418,-51.2,277.3333333333333,490.6666666666667
1419,-49.06666666666666,260.26666666666665,494.93333333333334
1420,-42.666666666666664,247.46666666666667,497.06666666666666
1421,-55.46666666666667,230.4,484.26666666666665
1422,-51.2,209.06666666666666,494.93333333333334
1423,-64.0,189.86666666666667,499.2
1424,-68.26666666666667,172.8,501.3333333333333
1425,-68.26666666666667,153.6,509.8666666666667
1426,-64.0,142.93333333333334,505.59999999999997
1427,-64.0,145.06666666666666,514.1333333333333
1428,-78.93333333333334,149.33333333333334,505.59999999999997
1429,-81.06666666666666,164.26666666666665,507.73333333333335
1430,-91.73333333333333,170.66666666666666,503.46666666666664
1431,-96.0,187.73333333333332,501.3333333333333
1432,-93.86666666666666,202.66666666666666,494.93333333333334
1433,-85.33333333333333,228.26666666666665,465.06666666666666
1434,-68.26666666666667,241.06666666666666,441.59999999999997
1435,-57.6,268.8,435.2
1436,-53.333333333333336,264.5333333333333,437.3333333333333
1437,-29.866666666666667,226.13333333333333,454.4
1438,-14.933333333333334,185.6,454.4
1439,0.0,140.8,452.26666666666665
1440,0.0,78.93333333333334,435.2
1441,2.1333333333333333,32.0,424.5333333333333
1442,4.266666666666667,4.266666666666667,416.0
1443,0.0,-6.4,407.46666666666664
1444,4.266666666666667,-21.333333333333332,411.73333333333335
1445,2.1333333333333333,-6.4,418.1333333333333
1446,32.0,-2.1333333333333333,416.0
1447,36.266666666666666,17.066666666666666,405.3333333333333
1448,53.333333333333336,46.93333333333333,411.73333333333335
1449,61.86666666666667,72.53333333333333,409.6
1450,66.13333333333333,104.53333333333333,407.46666666666664
1451,91.73333333333333,123.73333333333333,422.4
1452,110.93333333333334,153.6,430.93333333333334
1453,130.13333333333333,142.93333333333334,435.2
1454,147.2,168.53333333333333,462.93333333333334
1455,202.66666666666666,83.2,456.5333333333333
1456,166.4,29.866666666666667,563.2
1457,83.2,-2.1333333333333333,635.7333333333333
1458,155.73333333333332,-21.333333333333332,648.5333333333333
1459,226.13333333333333,10.666666666666666,580.2666666666667
1460,256.0,14.933333333333334,345.6
1461,313.6,21.333333333333332,85.33333333333333
1462,315.73333333333335,96.0,2.1333333333333333
1463,241.06666666666666,130.13333333333333,55.46666666666667
1464,179.2,93.86666666666666,181.33333333333334
1465,110.93333333333334,-27.733333333333334,377.6
1466,108.8,-168.53333333333333,569.6
1467,113.06666666666666,-288.0,665.6
1468,110.93333333333334,-411.73333333333335,667.7333333333333
1469,119.46666666666667,-488.5333333333333,584.5333333333333
1470,130.13333333333333,-516.2666666666667,503.46666666666664
1471,168.53333333333333,-539.7333333333333,450.1333333333333
1472,181.33333333333334,-544.0,467.2
1473,174.93333333333334,-531.2,482.1333333333333
1474,185.6,-541.8666666666667,486.4
1475,170.66666666666666,-499.2,518.4
1476,123.73333333333333,-430.93333333333334,548.2666666666667
1477,102.4,-401.06666666666666,552.5333333333333
1478,70.4,-292.26666666666665,450.1333333333333
1479,59.733333333333334,-130.13333333333333,384.0
1480,226.13333333333333,-83.2,401.06666666666666
1481,279.46666666666664,96.0,317.8666666666667
1482,379.73333333333335,294.4,364.8
1483,345.6,294.4,347.73333333333335
1484,206.93333333333334,145.06666666666666,245.33333333333334
1485,155.73333333333332,38.4,192.0
1486,189.86666666666667,-12.8,352.0
1487,192.0,-32.0,494.93333333333334
1488,174.93333333333334,-57.6,539.7333333333333
1489,230.4,0.0,497.06666666666666
1490,268.8,98.13333333333333,405.3333333333333
1491,262.4,140.8,362.6666666666667
1492,230.4,128.0,320.0
1493,198.4,34.13333333333333,302.93333333333334
1494,160.0,-64.0,334.93333333333334
1495,138.66666666666666,-117.33333333333333,349.8666666666667
1496,160.0,-151.46666666666667,401.06666666666666
1497,189.86666666666667,-147.2,416.0
1498,196.26666666666665,-142.93333333333334,428.8
1499,185.6,-142.93333333333334,456.5333333333333
1500,177.06666666666666,-134.4,462.93333333333334
1501,174.93333333333334,-117.33333333333333,462.93333333333334
1502,183.46666666666667,-100.26666666666667,480.0
1503,177.06666666666666,-83.2,486.4
1504,179.2,-78.93333333333334,486.4
1505,179.2,-68.26666666666667,488.5333333333333
1506,194.13333333333333,-74.66666666666667,533.3333333333334
1507,185.6,-38.4,501.3333333333333
1508,192.0,-29.866666666666667,499.2
1509,189.86666666666667,-21.333333333333332,497.06666666666666
1510,194.13333333333333,-6.4,482.1333333333333
1511,202.66666666666666,2.1333333333333333,482.1333333333333
1512,198.4,14.933333333333334,460.8
1513,198.4,25.6,452.26666666666665
1514,192.0,38.4,437.3333333333333
1515,179.2,29.866666666666667,426.6666666666667
1516,174.93333333333334,44.8,416.0
1517,157.86666666666667,46.93333333333333,416.0
1518,160.0,61.86666666666667,413.8666666666667
1519,151.46666666666667,55.46666666666667,407.46666666666664
1520,142.93333333333334,59.733333333333334,405.3333333333333
1521,138.66666666666666,66.13333333333333,405.3333333333333
1522,140.8,64.0,407.46666666666664
1523,134.4,64.0,403.2
1524,134.4,57.6,418.1333333333333
1525,134.4,49.06666666666666,418.1333333333333
1526,136.53333333333333,40.53333333333333,413.8666666666667
1527,142.93333333333334,32.0,426.6666666666667
1528,147.2,21.333333333333332,441.59999999999997
1529,155.73333333333332,10.666666666666666,441.59999999999997
1530,157.86666666666667,2.1333333333333333,456.5333333333333
1531,162.13333333333333,2.1333333333333333,445.8666666666667
1532,168.53333333333333,6.4,452.26666666666665
1533,181.33333333333334,0.0,445.8666666666667
1534,174.93333333333334,2.1333333333333333,437.3333333333333
1535,183.46666666666667,2.1333333333333333,435.2
1536,179.2,6.4,430.93333333333334
1537,177.06666666666666,10.666666666666666,435.2
1538,172.8,19.2,428.8
1539,162.13333333333333,23.466666666666665,422.4
1540,164.26666666666665,27.733333333333334,411.73333333333335
1541,164.26666666666665,38.4,435.2
1542,160.0,49.06666666666666,422.4
1543,162.13333333333333,61.86666666666667,424.5333333333333
1544,149.33333333333334,57.6,435.2
1545,149.33333333333334,59.733333333333334,435.2
1546,153.6,64.0,435.2
1547,147.2,68.26666666666667,441.59999999999997
1548,147.2,68.26666666666667,450.1333333333333
1549,147.2,61.86666666666667,443.73333333333335
1550,140.8,68.26666666666667,452.26666666666665
1551,132.26666666666665,68.26666666666667,462.93333333333334
1552,136.53333333333333,61.86666666666667,458.6666666666667
1553,134.4,64.0,460.8
1554,132.26666666666665,59.733333333333334,469.3333333333333
1555,128.0,61.86666666666667,462.93333333333334
1556,132.26666666666665,55.46666666666667,458.6666666666667
1557,132.26666666666665,55.46666666666667,439.46666666666664
1558,132.26666666666665,51.2,441.59999999999997
1559,130.13333333333333,46.93333333333333,439.46666666666664
1560,130.13333333333333,49.06666666666666,437.3333333333333
1561,134.4,42.666666666666664,435.2
1562,132.26666666666665,40.53333333333333,433.06666666666666
1563,132.26666666666665,36.266666666666666,430.93333333333334
1564,134.4,32.0,430.93333333333334
1565,134.4,40.53333333333333,430.93333333333334
1566,128.0,42.666666666666664,428.8
1567,130.13333333333333,44.8,433.06666666666666
1568,136.53333333333333,40.53333333333333,435.2
1569,136.53333333333333,44.8,430.93333333333334
1570,140.8,42.666666666666664,439.46666666666664
1571,147.2,38.4,448.0
1572,138.66666666666666,40.53333333333333,445.8666666666667
1573,142.93333333333334,40.53333333333333,443.73333333333335
1574,140.8,36.266666666666666,443.73333333333335
1575,145.06666666666666,34.13333333333333,448.0
1576,142.93333333333334,29.866666666666667,441.59999999999997
1577,145.06666666666666,29.866666666666667,445.8666666666667
1578,138.66666666666666,23.466666666666665,441.59999999999997
1579,147.2,25.6,452.26666666666665
1580,142.93333333333334,23.466666666666665,445.8666666666667
1581,140.8,21.333333333333332,452.26666666666665
1582,140.8,14.933333333333334,439.46666666666664
1583,145.06666666666666,12.8,443.73333333333335
1584,145.06666666666666,21.333333333333332,441.59999999999997
1585,149.33333333333334,10.666666666666666,441.59999999999997
1586,142.93333333333334,10.666666666666666,437.3333333333333
1587,140.8,17.066666666666666,435.2
1588,142.93333333333334,21.333333333333332,441.59999999999997
1589,145.06666666666666,23.466666666666665,433.06666666666666
1590,142.93333333333334,17.066666666666666,441.59999999999997
1591,140.8,12.8,437.3333333333333
1592,142.93333333333334,17.066666666666666,428.8
1593,142.93333333333334,12.8,433.06666666666666
1594,142.93333333333334,10.666666666666666,428.8
1595,145.06666666666666,8.533333333333333,424.5333333333333
1596,142.93333333333334,8.533333333333333,428.8
1597,145.06666666666666,14.933333333333334,430.93333333333334
1598,145.06666666666666,10.666666666666666,424.5333333333333
1599,142.93333333333334,10.666666666666666,430.93333333333334
1600,147.2,12.8,437.3333333333333
1601,140.8,12.8,437.3333333333333
1602,142.93333333333334,17.066666666666666,430.93333333333334
1603,142.93333333333334,14.933333333333334,437.3333333333333
1604,145.06666666666666,19.2,437.3333333333333
1605,140.8,34.13333333333333,441.59999999999997
1606,140.8,29.866666666666667,443.73333333333335
1607,149.33333333333334,23.466666666666665,443.73333333333335
1608,142.93333333333334,21.333333333333332,443.73333333333335
1609,145.06666666666666,29.866666666666667,439.46666666666664
1610,147.2,29.866666666666667,435.2
1611,138.66666666666666,27.733333333333334,439.46666666666664
1612,140.8,32.0,439.46666666666664
1613,136.53333333333333,29.866666666666667,439.46666666666664
1614,138.66666666666666,34.13333333333333,437.3333333333333
1615,138.66666666666666,38.4,443.73333333333335
1616,140.8,32.0,445.8666666666667
1617,136.53333333333333,38.4,448.0
1618,140.8,42.666666666666664,441.59999999999997
1619,140.8,40.53333333333333,437.3333333333333
1620,136.53333333333333,40.53333333333333,452.26666666666665
1621,136.53333333333333,36.266666666666666,443.73333333333335
1622,138.66666666666666,36.266666666666666,445.8666666666667
1623,136.53333333333333,40.53333333333333,443.73333333333335
1624,138.66666666666666,38.4,445.8666666666667
1625,134.4,40.53333333333333,445.8666666666667
1626,142.93333333333334,34.13333333333333,435.2
1627,136.53333333333333,34.13333333333333,443.73333333333335
1628,138.66666666666666,40.53333333333333,433.06666666666666
1629,142.93333333333334,38.4,437.3333333333333
1630,140.8,40.53333333333333,437.3333333333333
1631,138.66666666666666,42.666666666666664,433.06666666666666
1632,142.93333333333334,40.53333333333333,450.1333333333333
1633,142.93333333333334,40.53333333333333,437.3333333333333
1634,140.8,40.53333333333333,441.59999999999997
1635,138.66666666666666,36.266666666666666,441.59999999999997
1636,145.06666666666666,36.266666666666666,439.46666666666664
1637,142.93333333333334,29.866666666666667,437.3333333333333
1638,140.8,34.13333333333333,439.46666666666664
1639,155.73333333333332,34.13333333333333,441.59999999999997
1640,142.93333333333334,32.0,433.06666666666666
1641,142.93333333333334,40.53333333333333,437.3333333333333
1642,140.8,38.4,441.59999999999997
1643,140.8,42.666666666666664,433.06666666666666
1644,138.66666666666666,36.266666666666666,439.46666666666664
1645,140.8,38.4,433.06666666666666
1646,147.2,40.53333333333333,441.59999999999997
1647,147.2,38.4,437.3333333333333
1648,136.53333333333333,42.666666666666664,437.3333333333333
1649,142.93333333333334,38.4,437.3333333333333
1650,140.8,38.4,448.0
1651,140.8,40.53333333333333,441.59999999999997
1652,138.66666666666666,36.266666666666666,439.46666666666664
1653,145.06666666666666,32.0,439.46666666666664
1654,142.93333333333334,36.266666666666666,433.06666666666666
1655,140.8,36.266666666666666,437.3333333333333
1656,140.8,36.266666666666666,441.59999999999997
1657,142.93333333333334,34.13333333333333,445.8666666666667
1658,142.93333333333334,32.0,439.46666666666664
1659,138.66666666666666,40.53333333333333,443.73333333333335
1660,140.8,23.466666666666665,437.3333333333333
1661,142.93333333333334,32.0,439.46666666666664
1662,142.93333333333334,34.13333333333333,445.8666666666667
1663,140.8,29.866666666666667,428.8
1664,140.8,32.0,443.73333333333335
1665,142.93333333333334,34.13333333333333,439.46666666666664
1666,138.66666666666666,36.266666666666666,437.3333333333333
1667,140.8,29.866666666666667,439.46666666666664
1668,138.66666666666666,32.0,445.8666666666667
1669,115.2,34.13333333333333,450.1333333333333
1670,136.53333333333333,36.266666666666666,441.59999999999997
1671,140.8,27.733333333333334,439.46666666666664
1672,136.53333333333333,21.333333333333332,435.2
1673,136.53333333333333,27.733333333333334,435.2
1674,145.06666666666666,21.333333333333332,435.2
1675,136.53333333333333,29.866666666666667,437.3333333333333
1676,140.8,27.733333333333334,441.59999999999997
1677,136.53333333333333,27.733333333333334,448.0
1678,136.53333333333333,29.866666666666667,445.8666666666667
1679,132.26666666666665,27.733333333333334,445.8666666666667
1680,128.0,8.533333333333333,475.73333333333335
1681,138.66666666666666,27.733333333333334,439.46666666666664
1682,134.4,29.866666666666667,433.06666666666666
1683,138.66666666666666,29.866666666666667,439.46666666666664
1684,136.53333333333333,36.266666666666666,433.06666666666666
1685,136.53333333333333,34.13333333333333,437.3333333333333
1686,138.66666666666666,29.866666666666667,435.2
1687,132.26666666666665,32.0,437.3333333333333
1688,138.66666666666666,36.266666666666666,435.2
1689,134.4,29.866666666666667,439.46666666666664
1690,136.53333333333333,36.266666666666666,428.8
1691,138.66666666666666,64.0,418.1333333333333
1692,134.4,34.13333333333333,441.59999999999997
1693,138.66666666666666,38.4,435.2
1694,142.93333333333334,44.8,439.46666666666664
1695,138.66666666666666,40.53333333333333,443.73333333333335
1696,138.66666666666666,40.53333333333333,445.8666666666667
1697,136.53333333333333,34.13333333333333,448.0
1698,136.53333333333333,40.53333333333333,439.46666666666664
1699,138.66666666666666,38.4,439.46666666666664
1700,140.8,36.266666666666666,445.8666666666667
1701,138.66666666666666,38.4,445.8666666666667
1702,136.53333333333333,38.4,437.3333333333333
1703,136.53333333333333,32.0,433.06666666666666
1704,140.8,36.266666666666666,439.46666666666664
1705,140.8,34.13333333333333,441.59999999999997
1706,147.2,38.4,445.8666666666667
1707,145.06666666666666,34.13333333333333,430.93333333333334
1708,145.06666666666666,40.53333333333333,435.2
1709,140.8,46.93333333333333,439.46666666666664
1710,147.2,34.13333333333333,433.06666666666666
1711,140.8,36.266666666666666,441.59999999999997
1712,147.2,34.13333333333333,426.6666666666667
1713,138.66666666666666,38.4,437.3333333333333
1714,140.8,34.13333333333333,430.93333333333334
1715,140.8,38.4,443.73333333333335
1716,138.66666666666666,36.266666666666666,445.8666666666667
1717,145.06666666666666,27.733333333333334,428.8
1718,142.93333333333334,36.266666666666666,445.8666666666667
1719,145.06666666666666,40.53333333333333,435.2
1720,149.33333333333334,32.0,439.46666666666664
1721,140.8,36.266666666666666,428.8
1722,138.66666666666666,34.13333333333333,441.59999999999997
1723,142.93333333333334,29.866666666666667,437.3333333333333
1724,138.66666666666666,36.266666666666666,433.06666666666666
1725,147.2,32.0,443.73333333333335
1726,145.06666666666666,36.266666666666666,439.46666666666664
1727,142.93333333333334,34.13333333333333,439.46666666666664
1728,145.06666666666666,25.6,439.46666666666664
1729,145.06666666666666,29.866666666666667,445.8666666666667
1730,140.8,40.53333333333333,439.46666666666664
1731,138.66666666666666,32.0,441.59999999999997
1732,138.66666666666666,34.13333333333333,437.3333333333333
1733,142.93333333333334,29.866666666666667,441.59999999999997
1734,145.06666666666666,29.866666666666667,439.46666666666664
1735,140.8,32.0,437.3333333333333
1736,142.93333333333334,36.266666666666666,443.73333333333335
1737,140.8,27.733333333333334,443.73333333333335
1738,140.8,29.866666666666667,433.06666666666666
1739,138.66666666666666,29.866666666666667,430.93333333333334
1740,140.8,38.4,441.59999999999997
1741,136.53333333333333,27.733333333333334,443.73333333333335
1742,136.53333333333333,32.0,435.2
1743,138.66666666666666,40.53333333333333,443.73333333333335
1744,136.53333333333333,32.0,439.46666666666664
1745,142.93333333333334,34.13333333333333,441.59999999999997
1746,136.53333333333333,36.266666666666666,422.4
1747,136.53333333333333,32.0,439.46666666666664
1748,138.66666666666666,29.866666666666667,439.46666666666664
1749,136.53333333333333,40.53333333333333,441.59999999999997
1750,136.53333333333333,34.13333333333333,441.59999999999997
1751,136.53333333333333,34.13333333333333,433.06666666666666
1752,136.53333333333333,40.53333333333333,435.2
1753,142.93333333333334,38.4,430.93333333333334
1754,136.53333333333333,44.8,433.06666666666666
1755,142.93333333333334,36.266666666666666,437.3333333333333
1756,138.66666666666666,38.4,441.59999999999997
1757,138.66666666666666,40.53333333333333,443.73333333333335
1758,136.53333333333333,42.666666666666664,443.73333333333335
1759,132.26666666666665,38.4,439.46666666666664
1760,138.66666666666666,40.53333333333333,443.73333333333335
1761,134.4,38.4,437.3333333333333
1762,136.53333333333333,42.666666666666664,443.73333333333335
1763,136.53333333333333,38.4,433.06666666666666
1764,142.93333333333334,34.13333333333333,439.46666666666664
1765,138.66666666666666,42.666666666666664,445.8666666666667
1766,136.53333333333333,44.8,445.8666666666667
1767,142.93333333333334,38.4,441.59999999999997
1768,138.66666666666666,36.266666666666666,443.73333333333335
1769,138.66666666666666,36.266666666666666,437.3333333333333
1770,140.8,38.4,445.8666666666667
1771,140.8,32.0,435.2
1772,132.26666666666665,40.53333333333333,435.2
1773,138.66666666666666,40.53333333333333,435.2
1774,138.66666666666666,34.13333333333333,439.46666666666664
1775,140.8,29.866666666666667,441.59999999999997
1776,138.66666666666666,34.13333333333333,439.46666666666664
1777,142.93333333333334,29.866666666666667,435.2
1778,138.66666666666666,36.266666666666666,437.3333333333333
1779,136.53333333333333,38.4,443.73333333333335
1780,142.93333333333334,34.13333333333333,428.8
1781,142.93333333333334,34.13333333333333,437.3333333333333
1782,138.66666666666666,34.13333333333333,439.46666666666664
1783,145.06666666666666,36.266666666666666,439.46666666666664
1784,140.8,36.266666666666666,441.59999999999997
1785,145.06666666666666,36.266666666666666,439.46666666666664
1786,138.66666666666666,38.4,433.06666666666666
1787,140.8,36.266666666666666,430.93333333333334
1788,140.8,34.13333333333333,430.93333333333334
1789,140.8,38.4,445.8666666666667
1790,136.53333333333333,32.0,437.3333333333333
1791,136.53333333333333,29.866666666666667,437.3333333333333
1792,140.8,32.0,428.8
1793,138.66666666666666,27.733333333333334,439.46666666666664
1794,138.66666666666666,36.266666666666666,435.2
1795,138.66666666666666,27.733333333333334,445.8666666666667
1796,134.4,38.4,443.73333333333335
1797,136.53333333333333,34.13333333333333,448.0
1798,134.4,34.13333333333333,445.8666666666667
1799,138.66666666666666,29.866666666666667,448.0
1800,136.53333333333333,36.266666666666666,450.1333333333333
1801,138.66666666666666,34.13333333333333,445.8666666666667
1802,142.93333333333334,34.13333333333333,433.06666666666666
1803,142.93333333333334,32.0,433.06666666666666
1804,149.33333333333334,32.0,433.06666666666666
1805,136.53333333333333,38.4,435.2
1806,142.93333333333334,34.13333333333333,437.3333333333333
1807,140.8,36.266666666666666,439.46666666666664
1808,142.93333333333334,38.4,426.6666666666667
1809,140.8,38.4,433.06666666666666
1810,142.93333333333334,40.53333333333333,439.46666666666664
1811,138.66666666666666,38.4,433.06666666666666
1812,140.8,36.266666666666666,443.73333333333335
1813,138.66666666666666,46.93333333333333,439.46666666666664
1814,138.66666666666666,40.53333333333333,435.2
1815,147.2,38.4,439.46666666666664
1816,138.66666666666666,40.53333333333333,450.1333333333333
1817,138.66666666666666,42.666666666666664,430.93333333333334
1818,136.53333333333333,36.266666666666666,445.8666666666667
1819,138.66666666666666,42.666666666666664,443.73333333333335
1820,136.53333333333333,38.4,433.06666666666666
1821,136.53333333333333,38.4,435.2
1822,138.66666666666666,42.666666666666664,439.46666666666664
1823,136.53333333333333,40.53333333333333,439.46666666666664
1824,132.26666666666665,44.8,443.73333333333335
1825,140.8,38.4,443.73333333333335
1826,140.8,42.666666666666664,441.59999999999997
1827,136.53333333333333,40.53333333333333,435.2
1828,138.66666666666666,38.4,430.93333333333334
1829,136.53333333333333,46.93333333333333,437.3333333333333
1830,136.53333333333333,38.4,437.3333333333333
1831,140.8,29.866666666666667,435.2
1832,136.53333333333333,40.53333333333333,433.06666666666666
1833,142.93333333333334,34.13333333333333,430.93333333333334
1834,134.4,36.266666666666666,435.2
1835,138.66666666666666,40.53333333333333,437.3333333333333
1836,142.93333333333334,32.0,437.3333333333333
1837,136.53333333333333,32.0,426.6666666666667
1838,140.8,29.866666666666667,433.06666666666666
1839,136.53333333333333,36.266666666666666,439.46666666666664
1840,140.8,38.4,439.46666666666664
1841,140.8,38.4,443.73333333333335
1842,138.66666666666666,32.0,441.59999999999997
1843,125.86666666666666,36.266666666666666,467.2
1844,138.66666666666666,38.4,441.59999999999997
1845,140.8,32.0,437.3333333333333
1846,136.53333333333333,38.4,437.3333333333333
1847,136.53333333333333,32.0,437.3333333333333
1848,134.4,42.666666666666664,441.59999999999997
1849,142.93333333333334,38.4,441.59999999999997
1850,140.8,32.0,437.3333333333333
1851,138.66666666666666,32.0,445.8666666666667
1852,140.8,27.733333333333334,443.73333333333335
1853,142.93333333333334,27.733333333333334,443.73333333333335
1854,160.0,40.53333333333333,441.59999999999997
1855,142.93333333333334,34.13333333333333,435.2
1856,140.8,38.4,439.46666666666664
1857,142.93333333333334,38.4,441.59999999999997
1858,147.2,34.13333333333333,433.06666666666666
1859,138.66666666666666,34.13333333333333,433.06666666666666
1860,142.93333333333334,29.866666666666667,443.73333333333335
1861,142.93333333333334,40.53333333333333,437.3333333333333
1862,140.8,38.4,443.73333333333335
1863,145.06666666666666,34.13333333333333,441.59999999999997
1864,140.8,38.4,441.59999999999997
1865,145.06666666666666,38.4,441.59999999999997
1866,140.8,36.266666666666666,437.3333333333333
1867,138.66666666666666,36.266666666666666,430.93333333333334
1868,138.66666666666666,44.8,443.73333333333335
1869,140.8,38.4,439.46666666666664
1870,140.8,42.666666666666664,437.3333333333333
1871,140.8,36.266666666666666,437.3333333333333
1872,138.66666666666666,42.666666666666664,439.46666666666664
1873,136.53333333333333,42.666666666666664,433.06666666666666
1874,138.66666666666666,36.266666666666666,426.6666666666667
1875,140.8,40.53333333333333,439.46666666666664
1876,138.66666666666666,38.4,445.8666666666667
1877,138.66666666666666,42.666666666666664,439.46666666666664
1878,136.53333333333333,32.0,435.2
1879,138.66666666666666,38.4,443.73333333333335
1880,138.66666666666666,38.4,435.2
1881,134.4,40.53333333333333,435.2
1882,136.53333333333333,38.4,452.26666666666665
1883,138.66666666666666,40.53333333333333,433.06666666666666
1884,136.53333333333333,42.666666666666664,439.46666666666664
1885,136.53333333333333,38.4,441.59999999999997
1886,138.66666666666666,40.53333333333333,441.59999999999997
1887,138.66666666666666,38.4,437.3333333333333
1888,138.66666666666666,44.8,439.46666666666664
1889,138.66666666666666,40.53333333333333,450.1333333333333
1890,138.66666666666666,38.4,443.73333333333335
1891,138.66666666666666,34.13333333333333,433.06666666666666
1892,138.66666666666666,40.53333333333333,437.3333333333333
1893,145.06666666666666,34.13333333333333,439.46666666666664
1894,136.53333333333333,40.53333333333333,441.59999999999997
1895,136.53333333333333,38.4,443.73333333333335
1896,138.66666666666666,36.266666666666666,443.73333333333335
1897,136.53333333333333,38.4,441.59999999999997
1898,136.53333333333333,38.4,430.93333333333334
1899,136.53333333333333,36.266666666666666,428.8
1900,147.2,29.866666666666667,437.3333333333333
1901,142.93333333333334,40.53333333333333,448.0
1902,136.53333333333333,38.4,437.3333333333333
1903,138.66666666666666,40.53333333333333,435.2
1904,142.93333333333334,27.733333333333334,439.46666666666664
1905,140.8,36.266666666666666,439.46666666666664
1906,136.53333333333333,36.266666666666666,441.59999999999997
1907,142.93333333333334,40.53333333333333,437.3333333333333
1908,138.66666666666666,40.53333333333333,433.06666666666666
1909,134.4,34.13333333333333,435.2
1910,138.66666666666666,36.266666666666666,430.93333333333334
1911,134.4,38.4,428.8
1912,136.53333333333333,32.0,430.93333333333334
1913,138.66666666666666,38.4,437.3333333333333
1914,136.53333333333333,29.866666666666667,437.3333333333333
1915,136.53333333333333,29.866666666666667,439.46666666666664
1916,136.53333333333333,34.13333333333333,445.8666666666667
1917,140.8,27.733333333333334,437.3333333333333
1918,136.53333333333333,38.4,443.73333333333335
1919,138.66666666666666,29.866666666666667,441.59999999999997
1920,136.53333333333333,36.266666666666666,441.59999999999997
1921,138.66666666666666,29.866666666666667,450.1333333333333
1922,132.26666666666665,34.13333333333333,437.3333333333333
1923,140.8,32.0,433.06666666666666
1924,136.53333333333333,38.4,437.3333333333333
1925,140.8,42.666666666666664,433.06666666666666
1926,138.66666666666666,36.266666666666666,435.2
1927,142.93333333333334,36.266666666666666,428.8
1928,136.53333333333333,36.266666666666666,430.93333333333334
1929,138.66666666666666,36.266666666666666,435.2
1930,136.53333333333333,38.4,437.3333333333333
1931,142.93333333333334,40.53333333333333,433.06666666666666
1932,145.06666666666666,42.666666666666664,443.73333333333335
1933,138.66666666666666,40.53333333333333,443.73333333333335
1934,138.66666666666666,42.666666666666664,441.59999999999997
1935,142.93333333333334,36.266666666666666,441.59999999999997
1936,138.66666666666666,40.53333333333333,443.73333333333335
1937,140.8,36.266666666666666,437.3333333333333
1938,140.8,40.53333333333333,439.46666666666664
1939,138.66666666666666,38.4,441.59999999999997
1940,138.66666666666666,40.53333333333333,441.59999999999997
1941,142.93333333333334,38.4,443.73333333333335
1942,138.66666666666666,38.4,439.46666666666664
1943,136.53333333333333,40.53333333333333,439.46666666666664
1944,140.8,34.13333333333333,443.73333333333335
1945,140.8,38.4,428.8
1946,145.06666666666666,29.866666666666667,439.46666666666664
1947,142.93333333333334,42.666666666666664,435.2
1948,142.93333333333334,44.8,441.59999999999997
1949,138.66666666666666,42.666666666666664,441.59999999999997
1950,138.66666666666666,40.53333333333333,435.2
1951,136.53333333333333,42.666666666666664,433.06666666666666
1952,138.66666666666666,29.866666666666667,443.73333333333335
1953,136.53333333333333,29.866666666666667,445.8666666666667
1954,136.53333333333333,38.4,437.3333333333333
1955,138.66666666666666,32.0,441.59999999999997
1956,138.66666666666666,32.0,435.2
1957,138.66666666666666,38.4,433.06666666666666
1958,138.66666666666666,32.0,435.2
1959,140.8,42.666666666666664,433.06666666666666
1960,136.53333333333333,38.4,433.06666666666666
1961,138.66666666666666,34.13333333333333,439.46666666666664
1962,140.8,34.13333333333333,439.46666666666664
1963,140.8,38.4,430.93333333333334
1964,145.06666666666666,29.866666666666667,443.73333333333335
1965,140.8,32.0,439.46666666666664
1966,136.53333333333333,40.53333333333333,433.06666666666666
1967,142.93333333333334,34.13333333333333,441.59999999999997
1968,136.53333333333333,36.266666666666666,433.06666666666666
1969,140.8,36.266666666666666,441.59999999999997
1970,136.53333333333333,36.266666666666666,435.2
1971,138.66666666666666,32.0,441.59999999999997
1972,138.66666666666666,38.4,439.46666666666664
1973,138.66666666666666,34.13333333333333,439.46666666666664
1974,136.53333333333333,34.13333333333333,439.46666666666664
1975,136.53333333333333,32.0,439.46666666666664
1976,136.53333333333333,34.13333333333333,437.3333333333333
1977,140.8,29.866666666666667,430.93333333333334
1978,142.93333333333334,36.266666666666666,439.46666666666664
1979,145.06666666666666,27.733333333333334,435.2
1980,136.53333333333333,34.13333333333333,437.3333333333333
1981,136.53333333333333,38.4,445.8666666666667
1982,138.66666666666666,36.266666666666666,439.46666666666664
1983,138.66666666666666,34.13333333333333,443.73333333333335
1984,140.8,32.0,441.59999999999997
1985,140.8,36.266666666666666,435.2
1986,138.66666666666666,32.0,443.73333333333335
1987,138.66666666666666,38.4,445.8666666666667
1988,136.53333333333333,32.0,437.3333333333333
1989,138.66666666666666,38.4,435.2
1990,142.93333333333334,34.13333333333333,437.3333333333333
1991,142.93333333333334,38.4,437.3333333333333
1992,145.06666666666666,36.266666666666666,441.59999999999997
1993,145.06666666666666,38.4,439.46666666666664
1994,145.06666666666666,38.4,435.2
1995,140.8,38.4,445.8666666666667
1996,138.66666666666666,40.53333333333333,433.06666666666666
1997,147.2,19.2,439.46666666666664
1998,136.53333333333333,46.93333333333333,439.46666666666664
1999,136.53333333333333,40.53333333333333,439.46666666666664
2000,140.8,38.4,433.06666666666666
2001,136.53333333333333,44.8,439.46666666666664
2002,142.93333333333334,38.4,445.8666666666667
2003,134.4,42.666666666666664,443.73333333333335
2004,138.66666666666666,42.666666666666664,443.73333333333335
2005,138.66666666666666,38.4,443.73333333333335
2006,138.66666666666666,42.666666666666664,441.59999999999997
2007,117.33333333333333,29.866666666666667,430.93333333333334
2008,142.93333333333334,36.266666666666666,441.59999999999997
2009,136.53333333333333,42.666666666666664,437.3333333333333
2010,138.66666666666666,32.0,441.59999999999997
2011,138.66666666666666,49.06666666666666,443.73333333333335
2012,138.66666666666666,40.53333333333333,430.93333333333334
2013,138.66666666666666,40.53333333333333,443.73333333333335
2014,136.53333333333333,38.4,435.2
2015,138.66666666666666,42.666666666666664,443.73333333333335
2016,138.66666666666666,38.4,437.3333333333333
2017,138.66666666666666,38.4,435.2
2018,130.13333333333333,46.93333333333333,396.8
2019,140.8,29.866666666666667,437.3333333333333
2020,136.53333333333333,32.0,435.2
2021,138.66666666666666,36.266666666666666,435.2
2022,136.53333333333333,34.13333333333333,443.73333333333335
2023,136.53333333333333,29.866666666666667,443.73333333333335
2024,132.26666666666665,36.266666666666666,441.59999999999997
2025,140.8,38.4,441.59999999999997
2026,145.06666666666666,32.0,441.59999999999997
2027,138.66666666666666,38.4,437.3333333333333
2028,140.8,34.13333333333333,435.2
2029,138.66666666666666,29.866666666666667,450.1333333333333
2030,140.8,40.53333333333333,443.73333333333335
2031,136.53333333333333,44.8,439.46666666666664
2032,138.66666666666666,36.266666666666666,433.06666666666666
2033,136.53333333333333,34.13333333333333,435.2
2034,136.53333333333333,34.13333333333333,441.59999999999997
2035,136.53333333333333,44.8,443.73333333333335
2036,138.66666666666666,36.266666666666666,437.3333333333333
2037,136.53333333333333,36.266666666666666,439.46666666666664
2038,140.8,32.0,437.3333333333333
2039,136.53333333333333,36.266666666666666,443.73333333333335
2040,138.66666666666666,38.4,437.3333333333333
2041,136.53333333333333,29.866666666666667,443.73333333333335
2042,138.66666666666666,34.13333333333333,448.0
2043,136.53333333333333,34.13333333333333,448.0
2044,138.66666666666666,29.866666666666667,445.8666666666667
2045,138.66666666666666,29.866666666666667,445.8666666666667
2046,134.4,36.266666666666666,435.2
2047,134.4,38.4,437.3333333333333
2048,136.53333333333333,40.53333333333333,439.46666666666664
2049,136.53333333333333,32.0,433.06666666666666
2050,138.66666666666666,40.53333333333333,439.46666666666664
2051,138.66666666666666,38.4,437.3333333333333
2052,142.93333333333334,34.13333333333333,433.06666666666666
2053,138.66666666666666,38.4,439.46666666666664
2054,134.4,44.8,441.59999999999997
2055,136.53333333333333,38.4,437.3333333333333
2056,140.8,40.53333333333333,450.1333333333333
2057,140.8,44.8,439.46666666666664
2058,140.8,46.93333333333333,437.3333333333333
2059,140.8,40.53333333333333,443.73333333333335
2060,145.06666666666666,42.666666666666664,439.46666666666664
2061,142.93333333333334,40.53333333333333,441.59999999999997
2062,136.53333333333333,40.53333333333333,445.8666666666667
2063,138.66666666666666,44.8,448.0
2064,136.53333333333333,42.666666666666664,441.59999999999997
2065,140.8,32.0,439.46666666666664
2066,142.93333333333334,38.4,437.3333333333333
2067,145.06666666666666,40.53333333333333,437.3333333333333
2068,140.8,36.266666666666666,439.46666666666664
2069,140.8,36.266666666666666,441.59999999999997
2070,138.66666666666666,32.0,435.2
2071,138.66666666666666,40.53333333333333,448.0
2072,145.06666666666666,40.53333333333333,437.3333333333333
2073,138.66666666666666,38.4,441.59999999999997
2074,138.66666666666666,38.4,437.3333333333333
2075,145.06666666666666,40.53333333333333,441.59999999999997
2076,136.53333333333333,42.666666666666664,443.73333333333335
2077,140.8,36.266666666666666,441.59999999999997
2078,136.53333333333333,29.866666666666667,435.2
2079,142.93333333333334,34.13333333333333,439.46666666666664
2080,136.53333333333333,36.266666666666666,441.59999999999997
2081,138.66666666666666,34.13333333333333,443.73333333333335
2082,138.66666666666666,32.0,439.46666666666664
2083,138.66666666666666,36.266666666666666,435.2
2084,132.26666666666665,38.4,435.2
2085,136.53333333333333,42.666666666666664,435.2
2086,138.66666666666666,38.4,437.3333333333333
2087,140.8,36.266666666666666,439.46666666666664
2088,138.66666666666666,36.266666666666666,441.59999999999997
2089,140.8,36.266666666666666,445.8666666666667
2090,140.8,36.266666666666666,435.2
2091,145.06666666666666,36.266666666666666,441.59999999999997
2092,136.53333333333333,38.4,435.2
2093,138.66666666666666,38.4,439.46666666666664
2094,138.66666666666666,34.13333333333333,452.26666666666665
2095,138.66666666666666,34.13333333333333,435.2
2096,140.8,36.266666666666666,443.73333333333335
2097,140.8,32.0,441.59999999999997
2098,138.66666666666666,44.8,441.59999999999997
2099,136.53333333333333,40.53333333333333,435.2
2100,138.66666666666666,38.4,435.2
2101,142.93333333333334,36.266666666666666,443.73333333333335
2102,145.06666666666666,32.0,445.8666666666667
2103,140.8,32.0,439.46666666666664
2104,140.8,36.266666666666666,443.73333333333335
2105,136.53333333333333,36.266666666666666,445.8666666666667
2106,138.66666666666666,36.266666666666666,443.73333333333335
2107,138.66666666666666,34.13333333333333,445.8666666666667
2108,140.8,44.8,433.06666666666666
2109,134.4,44.8,433.06666666666666
2110,138.66666666666666,38.4,435.2
2111,138.66666666666666,36.266666666666666,448.0
2112,140.8,44.8,435.2
2113,136.53333333333333,36.266666666666666,435.2
2114,138.66666666666666,38.4,441.59999999999997
2115,138.66666666666666,36.266666666666666,441.59999999999997
2116,140.8,38.4,433.06666666666666
2117,136.53333333333333,40.53333333333333,441.59999999999997
2118,140.8,38.4,445.8666666666667
2119,138.66666666666666,38.4,441.59999999999997
2120,136.53333333333333,38.4,443.73333333333335
2121,140.8,42.666666666666664,441.59999999999997
2122,136.53333333333333,44.8,441.59999999999997
2123,142.93333333333334,36.266666666666666,439.46666666666664
2124,138.66666666666666,36.266666666666666,437.3333333333333
2125,134.4,40.53333333333333,439.46666666666664
2126,142.93333333333334,38.4,437.3333333333333
2127,140.8,32.0,445.8666666666667
2128,140.8,40.53333333333333,439.46666666666664
2129,136.53333333333333,44.8,435.2
2130,140.8,40.53333333333333,435.2
2131,134.4,42.666666666666664,439.46666666666664
2132,136.53333333333333,36.266666666666666,424.5333333333333
2133,147.2,29.866666666666667,435.2
2134,136.53333333333333,38.4,433.06666666666666
2135,138.66666666666666,42.666666666666664,439.46666666666664
2136,138.66666666666666,38.4,445.8666666666667
2137,136.53333333333333,34.13333333333333,435.2
2138,140.8,38.4,437.3333333333333
2139,140.8,38.4,445.8666666666667
2140,136.53333333333333,40.53333333333333,437.3333333333333
2141,138.66666666666666,38.4,437.3333333333333
2142,132.26666666666665,40.53333333333333,443.73333333333335
2143,140.8,36.266666666666666,437.3333333333333
2144,140.8,38.4,441.59999999999997
2145,142.93333333333334,34.13333333333333,435.2
2146,145.06666666666666,34.13333333333333,430.93333333333334
2147,140.8,36.266666666666666,437.3333333333333
2148,140.8,36.266666666666666,441.59999999999997
2149,136.53333333333333,34.13333333333333,445.8666666666667
2150,140.8,32.0,439.46666666666664
2151,140.8,36.266666666666666,435.2
2152,140.8,32.0,445.8666666666667
2153,142.93333333333334,40.53333333333333,433.06666666666666
2154,140.8,34.13333333333333,433.06666666666666
2155,138.66666666666666,40.53333333333333,441.59999999999997
2156,138.66666666666666,36.266666666666666,435.2
2157,136.53333333333333,34.13333333333333,430.93333333333334
2158,134.4,38.4,437.3333333333333
2159,138.66666666666666,36.266666666666666,439.46666666666664
2160,136.53333333333333,36.266666666666666,441.59999999999997
2161,134.4,51.2,445.8666666666667
2162,138.66666666666666,36.266666666666666,433.06666666666666
2163,136.53333333333333,44.8,435.2
2164,138.66666666666666,38.4,437.3333333333333
2165,136.53333333333333,40.53333333333333,433.06666666666666
2166,136.53333333333333,40.53333333333333,443.73333333333335
2167,138.66666666666666,32.0,443.73333333333335
2168,136.53333333333333,34.13333333333333,439.46666666666664
2169,142.93333333333334,32.0,443.73333333333335
2170,136.53333333333333,40.53333333333333,452.26666666666665
2171,132.26666666666665,38.4,460.8
2172,140.8,32.0,445.8666666666667
2173,136.53333333333333,38.4,437.3333333333333
2174,134.4,36.266666666666666,448.0
2175,138.66666666666666,38.4,437.3333333333333
2176,136.53333333333333,34.13333333333333,450.1333333333333
2177,140.8,36.266666666666666,437.3333333333333
2178,147.2,38.4,443.73333333333335
2179,138.66666666666666,40.53333333333333,439.46666666666664
2180,145.06666666666666,40.53333333333333,430.93333333333334
2181,106.66666666666667,32.0,430.93333333333334
2182,138.66666666666666,49.06666666666666,439.46666666666664
2183,136.53333333333333,42.666666666666664,435.2
2184,140.8,51.2,433.06666666666666
2185,138.66666666666666,44.8,437.3333333333333
2186,134.4,46.93333333333333,445.8666666666667
2187,140.8,38.4,443.73333333333335
2188,132.26666666666665,44.8,443.73333333333335
2189,140.8,36.266666666666666,437.3333333333333
2190,145.06666666666666,36.266666666666666,433.06666666666666
2191,140.8,32.0,448.0
2192,162.13333333333333,34.13333333333333,439.46666666666664
2193,138.66666666666666,29.866666666666667,439.46666666666664
2194,136.53333333333333,46.93333333333333,437.3333333333333
2195,138.66666666666666,40.53333333333333,437.3333333333333
2196,140.8,38.4,439.46666666666664
2197,136.53333333333333,46.93333333333333,435.2
2198,138.66666666666666,42.666666666666664,435.2
2199,138.66666666666666,38.4,441.59999999999997
2200,138.66666666666666,42.666666666666664,441.59999999999997
2201,136.53333333333333,36.266666666666666,443.73333333333335
2202,145.06666666666666,42.666666666666664,439.46666666666664
2203,149.33333333333334,29.866666666666667,452.26666666666665
2204,136.53333333333333,40.53333333333333,450.1333333333333
2205,136.53333333333333,38.4,437.3333333333333
2206,138.66666666666666,32.0,433.06666666666666
2207,138.66666666666666,34.13333333333333,443.73333333333335
2208,138.66666666666666,29.866666666666667,433.06666666666666
2209,136.53333333333333,27.733333333333334,439.46666666666664
2210,138.66666666666666,34.13333333333333,435.2
2211,136.53333333333333,32.0,443.73333333333335
2212,145.06666666666666,34.13333333333333,435.2
2213,138.66666666666666,38.4,433.06666666666666
2214,140.8,32.0,437.3333333333333
2215,136.53333333333333,32.0,445.8666666666667
2216,136.53333333333333,29.866666666666667,443.73333333333335
2217,136.53333333333333,32.0,443.73333333333335
2218,136.53333333333333,29.866666666666667,441.59999999999997
2219,140.8,29.866666666666667,439.46666666666664
2220,136.53333333333333,29.866666666666667,443.73333333333335
2221,136.53333333333333,29.866666666666667,437.3333333333333
2222,140.8,38.4,437.3333333333333
2223,140.8,34.13333333333333,443.73333333333335
2224,142.93333333333334,32.0,443.73333333333335
2225,140.8,29.866666666666667,441.59999999999997
2226,138.66666666666666,34.13333333333333,437.3333333333333
2227,138.66666666666666,32.0,439.46666666666664
2228,142.93333333333334,34.13333333333333,435.2
2229,147.2,23.466666666666665,437.3333333333333
2230,145.06666666666666,27.733333333333334,439.46666666666664
2231,140.8,32.0,445.8666666666667
2232,142.93333333333334,36.266666666666666,437.3333333333333
2233,140.8,34.13333333333333,435.2
2234,145.06666666666666,36.266666666666666,441.59999999999997
2235,138.66666666666666,32.0,428.8
2236,140.8,29.866666666666667,433.06666666666666
2237,140.8,38.4,437.3333333333333
2238,142.93333333333334,29.866666666666667,441.59999999999997
2239,138.66666666666666,32.0,439.46666666666664
2240,138.66666666666666,34.13333333333333,433.06666666666666
2241,138.66666666666666,29.866666666666667,426.6666666666667
2242,140.8,38.4,439.46666666666664
2243,140.8,25.6,435.2
2244,142.93333333333334,29.866666666666667,437.3333333333333
2245,138.66666666666666,36.266666666666666,435.2
2246,136.53333333333333,34.13333333333333,437.3333333333333
2247,140.8,36.266666666666666,437.3333333333333
2248,138.66666666666666,34.13333333333333,428.8
2249,138.66666666666666,34.13333333333333,448.0
2250,140.8,32.0,439.46666666666664
2251,145.06666666666666,34.13333333333333,441.59999999999997
2252,138.66666666666666,25.6,441.59999999999997
2253,138.66666666666666,40.53333333333333,437.3333333333333
2254,138.66666666666666,27.733333333333334,448.0
2255,142.93333333333334,32.0,435.2
2256,142.93333333333334,29.866666666666667,435.2
2257,136.53333333333333,32.0,439.46666666666664
2258,140.8,32.0,437.3333333333333
2259,147.2,29.866666666666667,441.59999999999997
2260,145.06666666666666,29.866666666666667,439.46666666666664
2261,138.66666666666666,25.6,441.59999999999997
2262,138.66666666666666,29.866666666666667,443.73333333333335
2263,140.8,25.6,439.46666666666664
2264,138.66666666666666,25.6,435.2
2265,138.66666666666666,27.733333333333334,441.59999999999997
2266,142.93333333333334,29.866666666666667,428.8
2267,142.93333333333334,23.466666666666665,437.3333333333333
2268,140.8,34.13333333333333,437.3333333333333
2269,140.8,25.6,435.2
2270,138.66666666666666,29.866666666666667,437.3333333333333
2271,145.06666666666666,27.733333333333334,433.06666666666666
2272,138.66666666666666,27.733333333333334,439.46666666666664
2273,136.53333333333333,27.733333333333334,443.73333333333335
2274,138.66666666666666,29.866666666666667,450.1333333333333
2275,138.66666666666666,32.0,441.59999999999997
2276,138.66666666666666,34.13333333333333,445.8666666666667
2277,142.93333333333334,23.466666666666665,437.3333333333333
2278,138.66666666666666,27.733333333333334,443.73333333333335
2279,145.06666666666666,27.733333333333334,437.3333333333333
2280,142.93333333333334,27.733333333333334,439.46666666666664
2281,145.06666666666666,23.466666666666665,441.59999999999997
2282,147.2,19.2,439.46666666666664
2283,138.66666666666666,32.0,445.8666666666667
2284,149.33333333333334,19.2,439.46666666666664
2285,145.06666666666666,23.466666666666665,439.46666666666664
2286,145.06666666666666,34.13333333333333,441.59999999999997
2287,149.33333333333334,29.866666666666667,428.8
2288,142.93333333333334,34.13333333333333,443.73333333333335
2289,145.06666666666666,27.733333333333334,430.93333333333334
2290,147.2,36.266666666666666,439.46666666666664
2291,147.2,25.6,439.46666666666664
2292,142.93333333333334,32.0,437.3333333333333
2293,140.8,34.13333333333333,435.2
2294,140.8,23.466666666666665,433.06666666666666
2295,138.66666666666666,21.333333333333332,433.06666666666666
2296,142.93333333333334,21.333333333333332,422.4
2297,140.8,14.933333333333334,428.8
2298,136.53333333333333,25.6,435.2
2299,138.66666666666666,23.466666666666665,441.59999999999997
2300,142.93333333333334,19.2,443.73333333333335
2301,142.93333333333334,21.333333333333332,443.73333333333335
2302,140.8,14.933333333333334,433.06666666666666
2303,136.53333333333333,23.466666666666665,441.59999999999997
2304,138.66666666666666,19.2,435.2
2305,145.06666666666666,25.6,435.2
2306,138.66666666666666,21.333333333333332,430.93333333333334
2307,140.8,25.6,426.6666666666667
2308,142.93333333333334,27.733333333333334,433.06666666666666
2309,142.93333333333334,23.466666666666665,441.59999999999997
2310,142.93333333333334,27.733333333333334,437.3333333333333
2311,142.93333333333334,29.866666666666667,439.46666666666664
2312,138.66666666666666,32.0,441.59999999999997
2313,138.66666666666666,34.13333333333333,437.3333333333333
2314,142.93333333333334,29.866666666666667,439.46666666666664
2315,145.06666666666666,29.866666666666667,437.3333333333333
2316,145.06666666666666,29.866666666666667,439.46666666666664
2317,145.06666666666666,27.733333333333334,441.59999999999997
2318,138.66666666666666,32.0,441.59999999999997
2319,140.8,34.13333333333333,441.59999999999997
2320,145.06666666666666,25.6,437.3333333333333
2321,145.06666666666666,34.13333333333333,439.46666666666664
2322,145.06666666666666,23.466666666666665,450.1333333333333
2323,145.06666666666666,27.733333333333334,435.2
2324,145.06666666666666,27.733333333333334,445.8666666666667
2325,147.2,27.733333333333334,439.46666666666664
2326,147.2,29.866666666666667,441.59999999999997
2327,142.93333333333334,23.466666666666665,443.73333333333335
2328,147.2,23.466666666666665,439.46666666666664
2329,142.93333333333334,27.733333333333334,441.59999999999997
2330,138.66666666666666,32.0,435.2
2331,138.66666666666666,29.866666666666667,433.06666666666666
2332,140.8,27.733333333333334,439.46666666666664
2333,145.06666666666666,23.466666666666665,433.06666666666666
2334,149.33333333333334,23.466666666666665,433.06666666666666
2335,140.8,21.333333333333332,435.2
2336,138.66666666666666,23.466666666666665,435.2
2337,147.2,23.466666666666665,433.06666666666666
2338,140.8,27.733333333333334,443.73333333333335
2339,142.93333333333334,27.733333333333334,437.3333333333333
2340,136.53333333333333,21.333333333333332,428.8
2341,136.53333333333333,27.733333333333334,435.2
2342,140.8,29.866666666666667,441.59999999999997
2343,142.93333333333334,34.13333333333333,441.59999999999997
2344,142.93333333333334,29.866666666666667,435.2
2345,145.06666666666666,27.733333333333334,435.2
2346,149.33333333333334,38.4,430.93333333333334
2347,142.93333333333334,29.866666666666667,433.06666666666666
2348,140.8,27.733333333333334,439.46666666666664
2349,140.8,32.0,439.46666666666664
2350,140.8,29.866666666666667,435.2
2351,145.06666666666666,25.6,441.59999999999997
2352,142.93333333333334,23.466666666666665,445.8666666666667
2353,138.66666666666666,34.13333333333333,454.4
2354,142.93333333333334,32.0,441.59999999999997
2355,142.93333333333334,36.266666666666666,443.73333333333335
2356,145.06666666666666,25.6,443.73333333333335
2357,145.06666666666666,29.866666666666667,450.1333333333333
2358,140.8,29.866666666666667,450.1333333333333
2359,140.8,32.0,437.3333333333333
2360,138.66666666666666,27.733333333333334,460.8
2361,142.93333333333334,29.866666666666667,443.73333333333335
2362,145.06666666666666,29.866666666666667,428.8
2363,140.8,27.733333333333334,428.8
2364,142.93333333333334,32.0,426.6666666666667
2365,136.53333333333333,36.266666666666666,428.8
2366,153.6,42.666666666666664,394.6666666666667
2367,140.8,36.266666666666666,439.46666666666664
2368,149.33333333333334,17.066666666666666,428.8
2369,147.2,25.6,437.3333333333333
2370,149.33333333333334,25.6,437.3333333333333
2371,147.2,27.733333333333334,437.3333333333333
2372,140.8,25.6,441.59999999999997
2373,145.06666666666666,32.0,443.73333333333335
2374,140.8,34.13333333333333,435.2
2375,138.66666666666666,29.866666666666667,445.8666666666667
2376,140.8,23.466666666666665,439.46666666666664
2377,151.46666666666667,29.866666666666667,424.5333333333333
2378,145.06666666666666,38.4,448.0
2379,145.06666666666666,29.866666666666667,450.1333333333333
2380,147.2,27.733333333333334,448.0
2381,145.06666666666666,29.866666666666667,443.73333333333335
2382,138.66666666666666,27.733333333333334,443.73333333333335
2383,138.66666666666666,32.0,439.46666666666664
2384,145.06666666666666,27.733333333333334,441.59999999999997
2385,147.2,29.866666666666667,441.59999999999997
2386,140.8,32.0,439.46666666666664
2387,142.93333333333334,27.733333333333334,439.46666666666664
2388,145.06666666666666,25.6,458.6666666666667
2389,140.8,25.6,433.06666666666666
2390,142.93333333333334,29.866666666666667,437.3333333333333
2391,140.8,23.466666666666665,430.93333333333334
2392,138.66666666666666,29.866666666666667,437.3333333333333
2393,140.8,23.466666666666665,430.93333333333334
2394,140.8,27.733333333333334,441.59999999999997
2395,142.93333333333334,23.466666666666665,433.06666666666666
2396,142.93333333333334,23.466666666666665,439.46666666666664
2397,140.8,21.333333333333332,437.3333333333333
2398,145.06666666666666,23.466666666666665,439.46666666666664
2399,136.53333333333333,32.0,439.46666666666664
2400,145.06666666666666,21.333333333333332,439.46666666666664
2401,136.53333333333333,25.6,443.73333333333335
2402,136.53333333333333,34.13333333333333,433.06666666666666
2403,145.06666666666666,27.733333333333334,437.3333333333333
2404,145.06666666666666,32.0,437.3333333333333
2405,138.66666666666666,27.733333333333334,437.3333333333333
2406,145.06666666666666,29.866666666666667,443.73333333333335
2407,142.93333333333334,32.0,441.59999999999997
2408,145.06666666666666,38.4,435.2
2409,142.93333333333334,25.6,435.2
2410,142.93333333333334,25.6,435.2
2411,138.66666666666666,32.0,437.3333333333333
2412,140.8,27.733333333333334,435.2
2413,140.8,29.866666666666667,435.2
2414,138.66666666666666,27.733333333333334,445.8666666666667
2415,142.93333333333334,23.466666666666665,437.3333333333333
2416,136.53333333333333,32.0,441.59999999999997
2417,138.66666666666666,34.13333333333333,437.3333333333333
2418,147.2,25.6,439.46666666666664
2419,145.06666666666666,32.0,437.3333333333333
2420,140.8,38.4,435.2
2421,142.93333333333334,32.0,445.8666666666667
2422,138.66666666666666,34.13333333333333,437.3333333333333
2423,138.66666666666666,32.0,428.8
2424,138.66666666666666,29.866666666666667,426.6666666666667
2425,140.8,32.0,428.8
2426,142.93333333333334,25.6,435.2
2427,140.8,27.733333333333334,435.2
2428,140.8,21.333333333333332,439.46666666666664
2429,138.66666666666666,25.6,439.46666666666664
2430,140.8,25.6,437.3333333333333
