,accelerometerAccelerationX(G),accelerometerAccelerationY(G),accelerometerAccelerationZ(G)
0,51.2,-522.6666666666666,-277.3333333333333
1,49.06666666666666,-514.1333333333333,-277.3333333333333
2,51.2,-522.6666666666666,-279.46666666666664
3,51.2,-526.9333333333333,-283.73333333333335
4,32.0,-522.6666666666666,-285.8666666666667
5,53.333333333333336,-526.9333333333333,-283.73333333333335
6,44.8,-516.2666666666667,-279.46666666666664
7,46.93333333333333,-518.4,-288.0
8,44.8,-522.6666666666666,-281.6
9,46.93333333333333,-520.5333333333333,-275.2
10,51.2,-524.8,-277.3333333333333
11,49.06666666666666,-524.8,-279.46666666666664
12,40.53333333333333,-520.5333333333333,-275.2
13,40.53333333333333,-522.6666666666666,-279.46666666666664
14,44.8,-529.0666666666666,-281.6
15,42.666666666666664,-524.8,-279.46666666666664
16,38.4,-522.6666666666666,-281.6
17,42.666666666666664,-529.0666666666666,-281.6
18,44.8,-520.5333333333333,-279.46666666666664
19,42.666666666666664,-526.9333333333333,-277.3333333333333
20,38.4,-524.8,-279.46666666666664
21,51.2,-529.0666666666666,-285.8666666666667
22,36.266666666666666,-520.5333333333333,-283.73333333333335
23,36.266666666666666,-522.6666666666666,-277.3333333333333
24,38.4,-522.6666666666666,-279.46666666666664
25,40.53333333333333,-522.6666666666666,-288.0
26,42.666666666666664,-522.6666666666666,-283.73333333333335
27,38.4,-518.4,-275.2
28,46.93333333333333,-522.6666666666666,-275.2
29,42.666666666666664,-524.8,-277.3333333333333
30,38.4,-520.5333333333333,-277.3333333333333
31,38.4,-522.6666666666666,-279.46666666666664
32,40.53333333333333,-522.6666666666666,-273.06666666666666
33,36.266666666666666,-518.4,-277.3333333333333
34,44.8,-529.0666666666666,-279.46666666666664
35,40.53333333333333,-520.5333333333333,-273.06666666666666
36,44.8,-524.8,-277.3333333333333
37,42.666666666666664,-526.9333333333333,-281.6
38,42.666666666666664,-522.6666666666666,-283.73333333333335
39,42.666666666666664,-526.9333333333333,-277.3333333333333
40,49.06666666666666,-535.4666666666667,-268.8
41,38.4,-531.2,-270.93333333333334
42,40.53333333333333,-522.6666666666666,-279.46666666666664
43,40.53333333333333,-531.2,-273.06666666666666
44,38.4,-520.5333333333333,-277.3333333333333
45,34.13333333333333,-524.8,-275.2
46,34.13333333333333,-520.5333333333333,-273.06666666666666
47,34.13333333333333,-522.6666666666666,-281.6
48,40.53333333333333,-524.8,-273.06666666666666
49,29.866666666666667,-526.9333333333333,-279.46666666666664
50,29.866666666666667,-522.6666666666666,-279.46666666666664
51,29.866666666666667,-518.4,-281.6
52,29.866666666666667,-522.6666666666666,-279.46666666666664
53,32.0,-524.8,-275.2
54,29.866666666666667,-524.8,-281.6
55,27.733333333333334,-520.5333333333333,-279.46666666666664
56,34.13333333333333,-524.8,-277.3333333333333
57,27.733333333333334,-522.6666666666666,-283.73333333333335
58,27.733333333333334,-522.6666666666666,-281.6
59,38.4,-529.0666666666666,-285.8666666666667
60,32.0,-524.8,-279.46666666666664
61,40.53333333333333,-524.8,-277.3333333333333
62,38.4,-531.2,-279.46666666666664
63,32.0,-520.5333333333333,-275.2
64,38.4,-531.2,-281.6
65,36.266666666666666,-526.9333333333333,-288.0
66,32.0,-522.6666666666666,-279.46666666666664
67,34.13333333333333,-516.2666666666667,-275.2
68,32.0,-522.6666666666666,-281.6
69,61.86666666666667,-529.0666666666666,-247.46666666666667
70,38.4,-522.6666666666666,-275.2
71,44.8,-522.6666666666666,-277.3333333333333
72,42.666666666666664,-522.6666666666666,-275.2
73,34.13333333333333,-516.2666666666667,-279.46666666666664
74,36.266666666666666,-518.4,-281.6
75,40.53333333333333,-514.1333333333333,-273.06666666666666
76,34.13333333333333,-516.2666666666667,-281.6
77,44.8,-514.1333333333333,-275.2
78,40.53333333333333,-518.4,-275.2
79,44.8,-516.2666666666667,-270.93333333333334
80,46.93333333333333,-518.4,-279.46666666666664
81,49.06666666666666,-520.5333333333333,-277.3333333333333
82,59.733333333333334,-520.5333333333333,-275.2
83,64.0,-526.9333333333333,-277.3333333333333
84,53.333333333333336,-524.8,-279.46666666666664
85,61.86666666666667,-516.2666666666667,-273.06666666666666
86,64.0,-518.4,-273.06666666666666
87,59.733333333333334,-518.4,-275.2
88,68.26666666666667,-524.8,-277.3333333333333
89,68.26666666666667,-522.6666666666666,-275.2
90,64.0,-522.6666666666666,-270.93333333333334
91,70.4,-526.9333333333333,-270.93333333333334
92,68.26666666666667,-533.3333333333334,-273.06666666666666
93,64.0,-529.0666666666666,-273.06666666666666
94,61.86666666666667,-533.3333333333334,-268.8
95,59.733333333333334,-531.2,-277.3333333333333
96,61.86666666666667,-526.9333333333333,-266.6666666666667
97,61.86666666666667,-531.2,-266.6666666666667
98,55.46666666666667,-531.2,-281.6
99,57.6,-526.9333333333333,-275.2
100,53.333333333333336,-522.6666666666666,-273.06666666666666
101,53.333333333333336,-524.8,-277.3333333333333
102,51.2,-520.5333333333333,-279.46666666666664
103,51.2,-518.4,-275.2
104,46.93333333333333,-520.5333333333333,-277.3333333333333
105,53.333333333333336,-516.2666666666667,-283.73333333333335
106,44.8,-520.5333333333333,-279.46666666666664
107,49.06666666666666,-518.4,-279.46666666666664
108,51.2,-520.5333333333333,-275.2
109,51.2,-524.8,-277.3333333333333
110,49.06666666666666,-522.6666666666666,-281.6
111,46.93333333333333,-531.2,-279.46666666666664
112,49.06666666666666,-529.0666666666666,-275.2
113,42.666666666666664,-526.9333333333333,-277.3333333333333
114,46.93333333333333,-533.3333333333334,-270.93333333333334
115,36.266666666666666,-535.4666666666667,-279.46666666666664
116,46.93333333333333,-537.6,-279.46666666666664
117,44.8,-539.7333333333333,-273.06666666666666
118,44.8,-535.4666666666667,-279.46666666666664
119,38.4,-539.7333333333333,-281.6
120,34.13333333333333,-531.2,-281.6
121,36.266666666666666,-539.7333333333333,-285.8666666666667
122,38.4,-537.6,-277.3333333333333
123,36.266666666666666,-537.6,-273.06666666666666
124,38.4,-535.4666666666667,-279.46666666666664
125,46.93333333333333,-537.6,-281.6
126,38.4,-531.2,-275.2
127,40.53333333333333,-535.4666666666667,-279.46666666666664
128,38.4,-533.3333333333334,-277.3333333333333
129,36.266666666666666,-533.3333333333334,-279.46666666666664
130,46.93333333333333,-531.2,-281.6
131,40.53333333333333,-533.3333333333334,-277.3333333333333
132,44.8,-531.2,-275.2
133,42.666666666666664,-531.2,-273.06666666666666
134,44.8,-529.0666666666666,-268.8
135,42.666666666666664,-529.0666666666666,-273.06666666666666
136,42.666666666666664,-529.0666666666666,-262.4
137,51.2,-526.9333333333333,-266.6666666666667
138,49.06666666666666,-522.6666666666666,-268.8
139,57.6,-531.2,-268.8
140,53.333333333333336,-520.5333333333333,-266.6666666666667
141,46.93333333333333,-522.6666666666666,-264.5333333333333
142,55.46666666666667,-522.6666666666666,-268.8
143,59.733333333333334,-529.0666666666666,-270.93333333333334
144,57.6,-524.8,-273.06666666666666
145,55.46666666666667,-535.4666666666667,-264.5333333333333
146,64.0,-524.8,-277.3333333333333
147,74.66666666666667,-535.4666666666667,-277.3333333333333
148,83.2,-531.2,-285.8666666666667
149,83.2,-524.8,-279.46666666666664
150,93.86666666666666,-529.0666666666666,-281.6
151,106.66666666666667,-526.9333333333333,-283.73333333333335
152,102.4,-520.5333333333333,-290.1333333333333
153,104.53333333333333,-522.6666666666666,-290.1333333333333
154,110.93333333333334,-522.6666666666666,-290.1333333333333
155,115.2,-518.4,-283.73333333333335
156,113.06666666666666,-526.9333333333333,-279.46666666666664
157,108.8,-526.9333333333333,-275.2
158,110.93333333333334,-529.0666666666666,-270.93333333333334
159,106.66666666666667,-535.4666666666667,-264.5333333333333
160,108.8,-531.2,-275.2
161,102.4,-533.3333333333334,-275.2
162,98.13333333333333,-524.8,-275.2
163,102.4,-529.0666666666666,-270.93333333333334
164,93.86666666666666,-524.8,-279.46666666666664
165,87.46666666666667,-522.6666666666666,-273.06666666666666
166,96.0,-522.6666666666666,-270.93333333333334
167,85.33333333333333,-522.6666666666666,-262.4
168,81.06666666666666,-514.1333333333333,-270.93333333333334
169,76.8,-514.1333333333333,-270.93333333333334
170,68.26666666666667,-516.2666666666667,-253.86666666666667
171,68.26666666666667,-518.4,-264.5333333333333
172,70.4,-524.8,-264.5333333333333
173,68.26666666666667,-524.8,-249.6
174,61.86666666666667,-533.3333333333334,-256.0
175,59.733333333333334,-533.3333333333334,-247.46666666666667
176,53.333333333333336,-537.6,-253.86666666666667
177,53.333333333333336,-539.7333333333333,-258.1333333333333
178,46.93333333333333,-544.0,-256.0
179,55.46666666666667,-546.1333333333333,-251.73333333333332
180,49.06666666666666,-546.1333333333333,-260.26666666666665
181,64.0,-546.1333333333333,-249.6
182,64.0,-541.8666666666667,-251.73333333333332
183,70.4,-544.0,-256.0
184,78.93333333333334,-537.6,-249.6
185,81.06666666666666,-529.0666666666666,-249.6
186,96.0,-537.6,-249.6
187,93.86666666666666,-537.6,-245.33333333333334
188,106.66666666666667,-541.8666666666667,-247.46666666666667
189,108.8,-535.4666666666667,-251.73333333333332
190,110.93333333333334,-533.3333333333334,-251.73333333333332
191,119.46666666666667,-537.6,-238.93333333333334
192,117.33333333333333,-544.0,-243.2
193,123.73333333333333,-546.1333333333333,-251.73333333333332
194,125.86666666666666,-546.1333333333333,-249.6
195,117.33333333333333,-541.8666666666667,-245.33333333333334
196,134.4,-539.7333333333333,-251.73333333333332
197,136.53333333333333,-529.0666666666666,-245.33333333333334
198,134.4,-531.2,-247.46666666666667
199,136.53333333333333,-529.0666666666666,-241.06666666666666
200,136.53333333333333,-529.0666666666666,-247.46666666666667
201,132.26666666666665,-509.8666666666667,-241.06666666666666
202,136.53333333333333,-514.1333333333333,-249.6
203,130.13333333333333,-516.2666666666667,-236.79999999999998
204,128.0,-503.46666666666664,-234.66666666666666
205,123.73333333333333,-507.73333333333335,-230.4
206,115.2,-503.46666666666664,-234.66666666666666
207,108.8,-501.3333333333333,-236.79999999999998
208,102.4,-507.73333333333335,-217.6
209,98.13333333333333,-509.8666666666667,-230.4
210,113.06666666666666,-518.4,-234.66666666666666
211,85.33333333333333,-514.1333333333333,-217.6
212,78.93333333333334,-514.1333333333333,-215.46666666666667
213,96.0,-520.5333333333333,-211.2
214,85.33333333333333,-522.6666666666666,-217.6
215,85.33333333333333,-516.2666666666667,-217.6
216,89.6,-526.9333333333333,-219.73333333333332
217,89.6,-529.0666666666666,-211.2
218,89.6,-533.3333333333334,-219.73333333333332
219,89.6,-526.9333333333333,-213.33333333333334
220,85.33333333333333,-537.6,-204.8
221,83.2,-533.3333333333334,-209.06666666666666
222,83.2,-539.7333333333333,-196.26666666666665
223,76.8,-537.6,-211.2
224,76.8,-533.3333333333334,-202.66666666666666
225,78.93333333333334,-539.7333333333333,-209.06666666666666
226,76.8,-541.8666666666667,-204.8
227,76.8,-537.6,-204.8
228,74.66666666666667,-539.7333333333333,-202.66666666666666
229,70.4,-539.7333333333333,-209.06666666666666
230,72.53333333333333,-539.7333333333333,-206.93333333333334
231,76.8,-544.0,-209.06666666666666
232,66.13333333333333,-546.1333333333333,-204.8
233,68.26666666666667,-548.2666666666667,-209.06666666666666
234,68.26666666666667,-548.2666666666667,-204.8
235,72.53333333333333,-554.6666666666666,-198.4
236,66.13333333333333,-558.9333333333333,-200.53333333333333
237,76.8,-565.3333333333334,-204.8
238,83.2,-576.0,-198.4
239,78.93333333333334,-578.1333333333333,-194.13333333333333
240,85.33333333333333,-578.1333333333333,-185.6
241,83.2,-580.2666666666667,-194.13333333333333
242,83.2,-580.2666666666667,-200.53333333333333
243,87.46666666666667,-582.4,-196.26666666666665
244,87.46666666666667,-584.5333333333333,-209.06666666666666
245,96.0,-586.6666666666666,-198.4
246,93.86666666666666,-590.9333333333333,-185.6
247,104.53333333333333,-590.9333333333333,-179.2
248,98.13333333333333,-588.8,-172.8
249,93.86666666666666,-586.6666666666666,-166.4
250,93.86666666666666,-593.0666666666666,-157.86666666666667
251,87.46666666666667,-590.9333333333333,-155.73333333333332
252,81.06666666666666,-590.9333333333333,-142.93333333333334
253,78.93333333333334,-588.8,-140.8
254,81.06666666666666,-588.8,-136.53333333333333
255,78.93333333333334,-595.2,-134.4
256,89.6,-595.2,-147.2
257,100.26666666666667,-599.4666666666667,-157.86666666666667
258,113.06666666666666,-616.5333333333333,-183.46666666666667
259,119.46666666666667,-612.2666666666667,-202.66666666666666
260,113.06666666666666,-627.2,-228.26666666666665
261,108.8,-627.2,-253.86666666666667
262,93.86666666666666,-646.4,-268.8
263,96.0,-663.4666666666667,-277.3333333333333
264,102.4,-674.1333333333333,-283.73333333333335
265,121.6,-682.6666666666666,-290.1333333333333
266,149.33333333333334,-682.6666666666666,-298.6666666666667
267,177.06666666666666,-684.8,-320.0
268,206.93333333333334,-676.2666666666667,-337.06666666666666
269,215.46666666666667,-657.0666666666666,-349.8666666666667
270,221.86666666666667,-640.0,-358.4
271,211.2,-627.2,-375.46666666666664
272,202.66666666666666,-612.2666666666667,-386.1333333333333
273,179.2,-603.7333333333333,-390.4
274,168.53333333333333,-593.0666666666666,-396.8
275,155.73333333333332,-573.8666666666667,-398.93333333333334
276,149.33333333333334,-548.2666666666667,-409.6
277,142.93333333333334,-520.5333333333333,-416.0
278,123.73333333333333,-484.26666666666665,-416.0
279,108.8,-450.1333333333333,-411.73333333333335
280,96.0,-420.26666666666665,-403.2
281,72.53333333333333,-388.26666666666665,-373.3333333333333
282,64.0,-362.6666666666667,-366.93333333333334
283,49.06666666666666,-354.1333333333333,-347.73333333333335
284,64.0,-337.06666666666666,-339.2
285,59.733333333333334,-326.4,-332.8
286,61.86666666666667,-330.6666666666667,-326.4
287,91.73333333333333,-337.06666666666666,-326.4
288,106.66666666666667,-347.73333333333335,-334.93333333333334
289,110.93333333333334,-362.6666666666667,-317.8666666666667
290,119.46666666666667,-392.5333333333333,-320.0
291,132.26666666666665,-407.46666666666664,-317.8666666666667
292,134.4,-435.2,-324.26666666666665
293,140.8,-448.0,-311.46666666666664
294,142.93333333333334,-460.8,-307.2
295,149.33333333333334,-484.26666666666665,-309.3333333333333
296,147.2,-486.4,-313.6
297,151.46666666666667,-499.2,-324.26666666666665
298,149.33333333333334,-501.3333333333333,-324.26666666666665
299,145.06666666666666,-514.1333333333333,-330.6666666666667
300,142.93333333333334,-522.6666666666666,-332.8
301,132.26666666666665,-533.3333333333334,-343.46666666666664
302,117.33333333333333,-533.3333333333334,-334.93333333333334
303,104.53333333333333,-537.6,-341.3333333333333
304,91.73333333333333,-544.0,-345.6
305,83.2,-539.7333333333333,-347.73333333333335
306,70.4,-544.0,-356.26666666666665
307,68.26666666666667,-539.7333333333333,-358.4
308,55.46666666666667,-533.3333333333334,-352.0
309,57.6,-526.9333333333333,-347.73333333333335
310,61.86666666666667,-512.0,-349.8666666666667
311,64.0,-501.3333333333333,-345.6
312,61.86666666666667,-494.93333333333334,-345.6
313,68.26666666666667,-488.5333333333333,-343.46666666666664
314,68.26666666666667,-480.0,-345.6
315,66.13333333333333,-475.73333333333335,-347.73333333333335
316,64.0,-473.59999999999997,-341.3333333333333
317,61.86666666666667,-458.6666666666667,-334.93333333333334
318,57.6,-465.06666666666666,-326.4
319,57.6,-460.8,-311.46666666666664
320,49.06666666666666,-465.06666666666666,-309.3333333333333
321,40.53333333333333,-469.3333333333333,-298.6666666666667
322,34.13333333333333,-469.3333333333333,-290.1333333333333
323,32.0,-486.4,-283.73333333333335
324,21.333333333333332,-480.0,-283.73333333333335
325,14.933333333333334,-486.4,-279.46666666666664
326,14.933333333333334,-499.2,-260.26666666666665
327,6.4,-497.06666666666666,-264.5333333333333
328,-2.1333333333333333,-503.46666666666664,-258.1333333333333
329,-8.533333333333333,-507.73333333333335,-251.73333333333332
330,0.0,-514.1333333333333,-245.33333333333334
331,-2.1333333333333333,-514.1333333333333,-234.66666666666666
332,-2.1333333333333333,-509.8666666666667,-236.79999999999998
333,2.1333333333333333,-512.0,-238.93333333333334
334,2.1333333333333333,-501.3333333333333,-234.66666666666666
335,8.533333333333333,-501.3333333333333,-219.73333333333332
336,10.666666666666666,-501.3333333333333,-215.46666666666667
337,17.066666666666666,-490.6666666666667,-215.46666666666667
338,23.466666666666665,-492.8,-215.46666666666667
339,27.733333333333334,-480.0,-215.46666666666667
340,38.4,-477.8666666666667,-206.93333333333334
341,32.0,-475.73333333333335,-211.2
342,36.266666666666666,-475.73333333333335,-209.06666666666666
343,36.266666666666666,-473.59999999999997,-213.33333333333334
344,29.866666666666667,-462.93333333333334,-224.0
345,27.733333333333334,-469.3333333333333,-219.73333333333332
346,25.6,-473.59999999999997,-224.0
347,23.466666666666665,-465.06666666666666,-217.6
348,21.333333333333332,-473.59999999999997,-221.86666666666667
349,12.8,-477.8666666666667,-228.26666666666665
350,6.4,-477.8666666666667,-226.13333333333333
351,8.533333333333333,-482.1333333333333,-215.46666666666667
352,8.533333333333333,-494.93333333333334,-211.2
353,8.533333333333333,-494.93333333333334,-194.13333333333333
354,6.4,-503.46666666666664,-202.66666666666666
355,10.666666666666666,-514.1333333333333,-198.4
356,2.1333333333333333,-514.1333333333333,-200.53333333333333
357,4.266666666666667,-535.4666666666667,-211.2
358,10.666666666666666,-533.3333333333334,-196.26666666666665
359,12.8,-546.1333333333333,-187.73333333333332
360,14.933333333333334,-558.9333333333333,-181.33333333333334
361,21.333333333333332,-569.6,-192.0
362,17.066666666666666,-603.7333333333333,-198.4
363,23.466666666666665,-586.6666666666666,-200.53333333333333
364,25.6,-590.9333333333333,-211.2
365,19.2,-588.8,-221.86666666666667
366,10.666666666666666,-588.8,-221.86666666666667
367,10.666666666666666,-586.6666666666666,-236.79999999999998
368,6.4,-586.6666666666666,-234.66666666666666
369,4.266666666666667,-590.9333333333333,-236.79999999999998
370,14.933333333333334,-595.2,-226.13333333333333
371,10.666666666666666,-593.0666666666666,-219.73333333333332
372,21.333333333333332,-595.2,-211.2
373,29.866666666666667,-595.2,-204.8
374,40.53333333333333,-608.0,-192.0
375,51.2,-616.5333333333333,-174.93333333333334
376,66.13333333333333,-620.8,-155.73333333333332
377,74.66666666666667,-625.0666666666666,-142.93333333333334
378,96.0,-633.6,-136.53333333333333
379,119.46666666666667,-633.6,-134.4
380,142.93333333333334,-642.1333333333333,-140.8
381,172.8,-635.7333333333333,-164.26666666666665
382,209.06666666666666,-654.9333333333333,-181.33333333333334
383,224.0,-650.6666666666666,-224.0
384,226.13333333333333,-644.2666666666667,-279.46666666666664
385,206.93333333333334,-650.6666666666666,-352.0
386,153.6,-657.0666666666666,-392.5333333333333
387,132.26666666666665,-680.5333333333333,-401.06666666666666
388,70.4,-699.7333333333333,-396.8
389,23.466666666666665,-727.4666666666667,-388.26666666666665
390,-4.266666666666667,-736.0,-388.26666666666665
391,-34.13333333333333,-731.7333333333333,-394.6666666666667
392,-68.26666666666667,-714.6666666666666,-398.93333333333334
393,-87.46666666666667,-689.0666666666666,-413.8666666666667
394,-98.13333333333333,-665.6,-433.06666666666666
395,-113.06666666666666,-629.3333333333334,-445.8666666666667
396,-113.06666666666666,-599.4666666666667,-456.5333333333333
397,-104.53333333333333,-569.6,-454.4
398,-115.2,-531.2,-454.4
399,-117.33333333333333,-488.5333333333333,-443.73333333333335
400,-104.53333333333333,-443.73333333333335,-430.93333333333334
401,-78.93333333333334,-405.3333333333333,-405.3333333333333
402,-40.53333333333333,-356.26666666666665,-384.0
403,-2.1333333333333333,-317.8666666666667,-377.6
404,40.53333333333333,-279.46666666666664,-364.8
405,81.06666666666666,-256.0,-354.1333333333333
406,119.46666666666667,-245.33333333333334,-352.0
407,140.8,-258.1333333333333,-345.6
408,153.6,-268.8,-339.2
409,151.46666666666667,-298.6666666666667,-339.2
410,134.4,-345.6,-330.6666666666667
411,121.6,-392.5333333333333,-322.1333333333333
412,102.4,-426.6666666666667,-309.3333333333333
413,78.93333333333334,-486.4,-298.6666666666667
414,53.333333333333336,-518.4,-292.26666666666665
415,12.8,-544.0,-290.1333333333333
416,-25.6,-571.7333333333333,-296.5333333333333
417,-57.6,-584.5333333333333,-300.8
418,-96.0,-595.2,-302.93333333333334
419,-119.46666666666667,-593.0666666666666,-320.0
420,-138.66666666666666,-590.9333333333333,-330.6666666666667
421,-151.46666666666667,-578.1333333333333,-339.2
422,-170.66666666666666,-567.4666666666667,-345.6
423,-155.73333333333332,-550.4,-341.3333333333333
424,-125.86666666666666,-529.0666666666666,-332.8
425,-96.0,-518.4,-324.26666666666665
426,-57.6,-499.2,-309.3333333333333
427,-4.266666666666667,-475.73333333333335,-320.0
428,0.0,-467.2,-294.4
429,23.466666666666665,-458.6666666666667,-288.0
430,53.333333333333336,-448.0,-285.8666666666667
431,66.13333333333333,-441.59999999999997,-285.8666666666667
432,81.06666666666666,-439.46666666666664,-298.6666666666667
433,96.0,-437.3333333333333,-294.4
434,93.86666666666666,-426.6666666666667,-296.5333333333333
435,96.0,-422.4,-288.0
436,96.0,-424.5333333333333,-300.8
437,87.46666666666667,-435.2,-305.06666666666666
438,85.33333333333333,-437.3333333333333,-298.6666666666667
439,81.06666666666666,-441.59999999999997,-300.8
440,74.66666666666667,-454.4,-298.6666666666667
441,72.53333333333333,-467.2,-283.73333333333335
442,59.733333333333334,-473.59999999999997,-266.6666666666667
443,66.13333333333333,-482.1333333333333,-275.2
444,53.333333333333336,-486.4,-281.6
445,57.6,-497.06666666666666,-262.4
446,57.6,-501.3333333333333,-253.86666666666667
447,55.46666666666667,-499.2,-247.46666666666667
448,57.6,-503.46666666666664,-241.06666666666666
449,61.86666666666667,-503.46666666666664,-236.79999999999998
450,68.26666666666667,-507.73333333333335,-230.4
451,64.0,-507.73333333333335,-221.86666666666667
452,74.66666666666667,-503.46666666666664,-226.13333333333333
453,66.13333333333333,-494.93333333333334,-215.46666666666667
454,76.8,-490.6666666666667,-206.93333333333334
455,78.93333333333334,-477.8666666666667,-200.53333333333333
456,83.2,-469.3333333333333,-204.8
457,89.6,-462.93333333333334,-202.66666666666666
458,85.33333333333333,-443.73333333333335,-198.4
459,83.2,-441.59999999999997,-202.66666666666666
460,83.2,-435.2,-211.2
461,81.06666666666666,-433.06666666666666,-196.26666666666665
462,81.06666666666666,-437.3333333333333,-200.53333333333333
463,78.93333333333334,-437.3333333333333,-198.4
464,74.66666666666667,-443.73333333333335,-192.0
465,74.66666666666667,-454.4,-187.73333333333332
466,70.4,-465.06666666666666,-189.86666666666667
467,61.86666666666667,-482.1333333333333,-189.86666666666667
468,55.46666666666667,-492.8,-189.86666666666667
469,44.8,-507.73333333333335,-200.53333333333333
470,36.266666666666666,-509.8666666666667,-200.53333333333333
471,32.0,-529.0666666666666,-213.33333333333334
472,27.733333333333334,-531.2,-217.6
473,23.466666666666665,-537.6,-219.73333333333332
474,17.066666666666666,-556.8,-219.73333333333332
475,10.666666666666666,-561.0666666666666,-219.73333333333332
476,6.4,-588.8,-213.33333333333334
477,4.266666666666667,-603.7333333333333,-198.4
478,17.066666666666666,-625.0666666666666,-198.4
479,36.266666666666666,-648.5333333333333,-187.73333333333332
480,59.733333333333334,-676.2666666666667,-181.33333333333334
481,89.6,-689.0666666666666,-164.26666666666665
482,121.6,-706.1333333333333,-166.4
483,155.73333333333332,-704.0,-166.4
484,177.06666666666666,-693.3333333333334,-170.66666666666666
485,206.93333333333334,-682.6666666666666,-185.6
486,226.13333333333333,-659.2,-181.33333333333334
487,245.33333333333334,-644.2666666666667,-162.13333333333333
488,253.86666666666667,-635.7333333333333,-151.46666666666667
489,258.1333333333333,-637.8666666666667,-119.46666666666667
490,249.6,-633.6,-106.66666666666667
491,234.66666666666666,-633.6,-102.4
492,215.46666666666667,-640.0,-117.33333333333333
493,183.46666666666667,-644.2666666666667,-151.46666666666667
494,166.4,-642.1333333333333,-204.8
495,134.4,-657.0666666666666,-283.73333333333335
496,81.06666666666666,-669.8666666666667,-354.1333333333333
497,29.866666666666667,-689.0666666666666,-426.6666666666667
498,4.266666666666667,-731.7333333333333,-473.59999999999997
499,-12.8,-787.2,-482.1333333333333
500,-19.2,-829.8666666666667,-462.93333333333334
501,14.933333333333334,-874.6666666666666,-445.8666666666667
502,70.4,-889.6,-448.0
503,119.46666666666667,-878.9333333333333,-462.93333333333334
504,136.53333333333333,-846.9333333333333,-490.6666666666667
505,125.86666666666666,-808.5333333333333,-520.5333333333333
506,96.0,-753.0666666666666,-544.0
507,72.53333333333333,-684.8,-554.6666666666666
508,55.46666666666667,-625.0666666666666,-544.0
509,44.8,-552.5333333333333,-509.8666666666667
510,40.53333333333333,-492.8,-480.0
511,36.266666666666666,-426.6666666666667,-452.26666666666665
512,27.733333333333334,-356.26666666666665,-433.06666666666666
513,34.13333333333333,-294.4,-422.4
514,29.866666666666667,-241.06666666666666,-403.2
515,32.0,-181.33333333333334,-396.8
516,27.733333333333334,-138.66666666666666,-373.3333333333333
517,10.666666666666666,-125.86666666666666,-345.6
518,8.533333333333333,-125.86666666666666,-330.6666666666667
519,2.1333333333333333,-136.53333333333333,-302.93333333333334
520,0.0,-172.8,-290.1333333333333
521,-25.6,-213.33333333333334,-281.6
522,-17.066666666666666,-268.8,-270.93333333333334
523,0.0,-311.46666666666664,-264.5333333333333
524,14.933333333333334,-366.93333333333334,-243.2
525,34.13333333333333,-418.1333333333333,-256.0
526,61.86666666666667,-454.4,-251.73333333333332
527,74.66666666666667,-484.26666666666665,-266.6666666666667
528,98.13333333333333,-512.0,-275.2
529,115.2,-526.9333333333333,-281.6
530,128.0,-544.0,-302.93333333333334
531,140.8,-556.8,-322.1333333333333
532,136.53333333333333,-563.2,-324.26666666666665
533,138.66666666666666,-573.8666666666667,-328.5333333333333
534,138.66666666666666,-573.8666666666667,-315.73333333333335
535,138.66666666666666,-578.1333333333333,-313.6
536,132.26666666666665,-578.1333333333333,-309.3333333333333
537,119.46666666666667,-569.6,-307.2
538,108.8,-565.3333333333334,-292.26666666666665
539,96.0,-548.2666666666667,-294.4
540,72.53333333333333,-541.8666666666667,-292.26666666666665
541,57.6,-531.2,-285.8666666666667
542,38.4,-520.5333333333333,-275.2
543,17.066666666666666,-505.59999999999997,-275.2
544,4.266666666666667,-492.8,-275.2
545,-6.4,-484.26666666666665,-288.0
546,-19.2,-471.46666666666664,-279.46666666666664
547,-21.333333333333332,-460.8,-275.2
548,-27.733333333333334,-456.5333333333333,-279.46666666666664
549,-21.333333333333332,-448.0,-275.2
550,-12.8,-439.46666666666664,-277.3333333333333
551,-10.666666666666666,-441.59999999999997,-270.93333333333334
552,0.0,-437.3333333333333,-273.06666666666666
553,4.266666666666667,-433.06666666666666,-268.8
554,10.666666666666666,-439.46666666666664,-266.6666666666667
555,19.2,-443.73333333333335,-258.1333333333333
556,21.333333333333332,-454.4,-256.0
557,21.333333333333332,-460.8,-268.8
558,27.733333333333334,-475.73333333333335,-264.5333333333333
559,29.866666666666667,-497.06666666666666,-253.86666666666667
560,32.0,-512.0,-243.2
561,34.13333333333333,-524.8,-221.86666666666667
562,38.4,-535.4666666666667,-228.26666666666665
563,32.0,-537.6,-221.86666666666667
564,32.0,-535.4666666666667,-215.46666666666667
565,36.266666666666666,-533.3333333333334,-206.93333333333334
566,27.733333333333334,-531.2,-200.53333333333333
567,32.0,-522.6666666666666,-202.66666666666666
568,25.6,-512.0,-202.66666666666666
569,23.466666666666665,-497.06666666666666,-204.8
570,25.6,-480.0,-189.86666666666667
571,17.066666666666666,-467.2,-172.8
572,25.6,-460.8,-172.8
573,19.2,-443.73333333333335,-181.33333333333334
574,19.2,-437.3333333333333,-166.4
575,27.733333333333334,-430.93333333333334,-162.13333333333333
576,25.6,-437.3333333333333,-170.66666666666666
577,32.0,-437.3333333333333,-157.86666666666667
578,27.733333333333334,-452.26666666666665,-166.4
579,36.266666666666666,-467.2,-160.0
580,55.46666666666667,-492.8,-168.53333333333333
581,64.0,-505.59999999999997,-168.53333333333333
582,66.13333333333333,-531.2,-166.4
583,72.53333333333333,-548.2666666666667,-172.8
584,85.33333333333333,-565.3333333333334,-183.46666666666667
585,89.6,-580.2666666666667,-177.06666666666666
586,91.73333333333333,-593.0666666666666,-166.4
587,91.73333333333333,-610.1333333333333,-151.46666666666667
588,85.33333333333333,-625.0666666666666,-147.2
589,59.733333333333334,-631.4666666666667,-149.33333333333334
590,38.4,-642.1333333333333,-157.86666666666667
591,10.666666666666666,-640.0,-172.8
592,-19.2,-635.7333333333333,-189.86666666666667
593,-53.333333333333336,-637.8666666666667,-194.13333333333333
594,-78.93333333333334,-635.7333333333333,-206.93333333333334
595,-91.73333333333333,-633.6,-187.73333333333332
596,-89.6,-648.5333333333333,-179.2
597,-68.26666666666667,-652.8,-164.26666666666665
598,-36.266666666666666,-665.6,-132.26666666666665
599,2.1333333333333333,-661.3333333333334,-117.33333333333333
600,46.93333333333333,-661.3333333333334,-89.6
601,96.0,-648.5333333333333,-81.06666666666666
602,136.53333333333333,-635.7333333333333,-98.13333333333333
603,162.13333333333333,-633.6,-134.4
604,172.8,-637.8666666666667,-170.66666666666666
605,164.26666666666665,-652.8,-245.33333333333334
606,119.46666666666667,-661.3333333333334,-328.5333333333333
607,70.4,-667.7333333333333,-422.4
608,25.6,-689.0666666666666,-494.93333333333334
609,-40.53333333333333,-716.8,-497.06666666666666
610,-96.0,-759.4666666666667,-501.3333333333333
611,-151.46666666666667,-791.4666666666667,-499.2
612,-204.8,-797.8666666666667,-520.5333333333333
613,-228.26666666666665,-797.8666666666667,-526.9333333333333
614,-232.53333333333333,-778.6666666666666,-522.6666666666666
615,-213.33333333333334,-731.7333333333333,-524.8
616,-151.46666666666667,-682.6666666666666,-539.7333333333333
617,-96.0,-622.9333333333333,-526.9333333333333
618,-27.733333333333334,-561.0666666666666,-535.4666666666667
619,19.2,-512.0,-497.06666666666666
620,38.4,-448.0,-475.73333333333335
621,34.13333333333333,-398.93333333333334,-445.8666666666667
622,40.53333333333333,-349.8666666666667,-437.3333333333333
623,25.6,-302.93333333333334,-407.46666666666664
624,49.06666666666666,-268.8,-396.8
625,87.46666666666667,-241.06666666666666,-386.1333333333333
626,132.26666666666665,-238.93333333333334,-375.46666666666664
627,160.0,-256.0,-352.0
628,168.53333333333333,-277.3333333333333,-307.2
629,185.6,-328.5333333333333,-277.3333333333333
630,189.86666666666667,-381.8666666666667,-260.26666666666665
631,166.4,-426.6666666666667,-249.6
632,136.53333333333333,-471.46666666666664,-245.33333333333334
633,96.0,-505.59999999999997,-266.6666666666667
634,53.333333333333336,-529.0666666666666,-277.3333333333333
635,0.0,-546.1333333333333,-298.6666666666667
636,-46.93333333333333,-554.6666666666666,-302.93333333333334
637,-89.6,-561.0666666666666,-313.6
638,-136.53333333333333,-550.4,-315.73333333333335
639,-179.2,-550.4,-313.6
640,-200.53333333333333,-539.7333333333333,-309.3333333333333
641,-236.79999999999998,-522.6666666666666,-290.1333333333333
642,-245.33333333333334,-522.6666666666666,-277.3333333333333
643,-249.6,-499.2,-258.1333333333333
644,-224.0,-486.4,-258.1333333333333
645,-200.53333333333333,-469.3333333333333,-245.33333333333334
646,-164.26666666666665,-460.8,-243.2
647,-130.13333333333333,-445.8666666666667,-256.0
648,-72.53333333333333,-439.46666666666664,-258.1333333333333
649,-36.266666666666666,-430.93333333333334,-262.4
650,-4.266666666666667,-430.93333333333334,-266.6666666666667
651,32.0,-420.26666666666665,-270.93333333333334
652,61.86666666666667,-435.2,-275.2
653,91.73333333333333,-437.3333333333333,-262.4
654,117.33333333333333,-448.0,-270.93333333333334
655,136.53333333333333,-460.8,-264.5333333333333
656,147.2,-469.3333333333333,-249.6
657,149.33333333333334,-482.1333333333333,-247.46666666666667
658,149.33333333333334,-492.8,-241.06666666666666
659,145.06666666666666,-494.93333333333334,-236.79999999999998
660,136.53333333333333,-499.2,-234.66666666666666
661,130.13333333333333,-505.59999999999997,-238.93333333333334
662,125.86666666666666,-503.46666666666664,-241.06666666666666
663,121.6,-501.3333333333333,-232.53333333333333
664,113.06666666666666,-497.06666666666666,-226.13333333333333
665,106.66666666666667,-497.06666666666666,-232.53333333333333
666,85.33333333333333,-492.8,-232.53333333333333
667,78.93333333333334,-494.93333333333334,-217.6
668,81.06666666666666,-490.6666666666667,-230.4
669,68.26666666666667,-484.26666666666665,-221.86666666666667
670,59.733333333333334,-475.73333333333335,-215.46666666666667
671,59.733333333333334,-477.8666666666667,-204.8
672,53.333333333333336,-465.06666666666666,-200.53333333333333
673,64.0,-469.3333333333333,-196.26666666666665
674,64.0,-456.5333333333333,-198.4
675,68.26666666666667,-456.5333333333333,-189.86666666666667
676,68.26666666666667,-462.93333333333334,-192.0
677,70.4,-465.06666666666666,-181.33333333333334
678,61.86666666666667,-465.06666666666666,-189.86666666666667
679,61.86666666666667,-462.93333333333334,-183.46666666666667
680,53.333333333333336,-471.46666666666664,-170.66666666666666
681,55.46666666666667,-477.8666666666667,-174.93333333333334
682,49.06666666666666,-488.5333333333333,-172.8
683,53.333333333333336,-501.3333333333333,-172.8
684,40.53333333333333,-514.1333333333333,-179.2
685,40.53333333333333,-533.3333333333334,-168.53333333333333
686,44.8,-544.0,-172.8
687,64.0,-552.5333333333333,-179.2
688,66.13333333333333,-573.8666666666667,-177.06666666666666
689,68.26666666666667,-582.4,-170.66666666666666
690,87.46666666666667,-603.7333333333333,-174.93333333333334
691,115.2,-616.5333333333333,-183.46666666666667
692,117.33333333333333,-622.9333333333333,-196.26666666666665
693,132.26666666666665,-629.3333333333334,-198.4
694,128.0,-627.2,-206.93333333333334
695,119.46666666666667,-627.2,-209.06666666666666
696,119.46666666666667,-618.6666666666666,-224.0
697,106.66666666666667,-622.9333333333333,-211.2
698,93.86666666666666,-622.9333333333333,-202.66666666666666
699,93.86666666666666,-629.3333333333334,-181.33333333333334
700,66.13333333333333,-625.0666666666666,-145.06666666666666
701,78.93333333333334,-625.0666666666666,-130.13333333333333
702,83.2,-622.9333333333333,-106.66666666666667
703,76.8,-618.6666666666666,-72.53333333333333
704,70.4,-618.6666666666666,-34.13333333333333
705,70.4,-616.5333333333333,-14.933333333333334
706,49.06666666666666,-616.5333333333333,-21.333333333333332
707,25.6,-610.1333333333333,-12.8
708,2.1333333333333333,-614.4,-25.6
709,-6.4,-620.8,-70.4
710,0.0,-644.2666666666667,-125.86666666666666
711,-8.533333333333333,-648.5333333333333,-196.26666666666665
712,-25.6,-661.3333333333334,-281.6
713,-34.13333333333333,-684.8,-364.8
714,-25.6,-731.7333333333333,-403.2
715,6.4,-776.5333333333333,-407.46666666666664
716,64.0,-810.6666666666666,-398.93333333333334
717,134.4,-819.2,-401.06666666666666
718,213.33333333333334,-812.8,-418.1333333333333
719,275.2,-772.2666666666667,-473.59999999999997
720,298.6666666666667,-759.4666666666667,-477.8666666666667
721,281.6,-721.0666666666666,-499.2
722,256.0,-684.8,-526.9333333333333
723,234.66666666666666,-654.9333333333333,-541.8666666666667
724,202.66666666666666,-627.2,-537.6
725,183.46666666666667,-588.8,-514.1333333333333
726,181.33333333333334,-546.1333333333333,-501.3333333333333
727,174.93333333333334,-494.93333333333334,-490.6666666666667
728,168.53333333333333,-428.8,-482.1333333333333
729,145.06666666666666,-354.1333333333333,-471.46666666666664
730,130.13333333333333,-296.5333333333333,-452.26666666666665
731,96.0,-249.6,-413.8666666666667
732,44.8,-211.2,-379.73333333333335
733,6.4,-198.4,-341.3333333333333
734,-32.0,-189.86666666666667,-302.93333333333334
735,-53.333333333333336,-209.06666666666666,-273.06666666666666
736,-72.53333333333333,-241.06666666666666,-241.06666666666666
737,-78.93333333333334,-288.0,-213.33333333333334
738,-70.4,-345.6,-200.53333333333333
739,-59.733333333333334,-407.46666666666664,-179.2
740,-29.866666666666667,-450.1333333333333,-185.6
741,4.266666666666667,-490.6666666666667,-204.8
742,46.93333333333333,-520.5333333333333,-228.26666666666665
743,78.93333333333334,-529.0666666666666,-253.86666666666667
744,119.46666666666667,-539.7333333333333,-275.2
745,151.46666666666667,-544.0,-300.8
746,177.06666666666666,-546.1333333333333,-311.46666666666664
747,198.4,-550.4,-324.26666666666665
748,217.6,-548.2666666666667,-315.73333333333335
749,232.53333333333333,-550.4,-315.73333333333335
750,238.93333333333334,-546.1333333333333,-300.8
751,234.66666666666666,-537.6,-300.8
752,217.6,-537.6,-298.6666666666667
753,192.0,-518.4,-279.46666666666664
754,155.73333333333332,-507.73333333333335,-277.3333333333333
755,134.4,-501.3333333333333,-273.06666666666666
756,98.13333333333333,-490.6666666666667,-279.46666666666664
757,59.733333333333334,-488.5333333333333,-283.73333333333335
758,36.266666666666666,-480.0,-277.3333333333333
759,19.2,-482.1333333333333,-283.73333333333335
760,0.0,-477.8666666666667,-283.73333333333335
761,-14.933333333333334,-477.8666666666667,-296.5333333333333
762,-29.866666666666667,-477.8666666666667,-288.0
763,-44.8,-473.59999999999997,-283.73333333333335
764,-49.06666666666666,-471.46666666666664,-277.3333333333333
765,-55.46666666666667,-477.8666666666667,-275.2
766,-49.06666666666666,-471.46666666666664,-268.8
767,-36.266666666666666,-469.3333333333333,-264.5333333333333
768,-25.6,-456.5333333333333,-247.46666666666667
769,-4.266666666666667,-456.5333333333333,-262.4
770,2.1333333333333333,-462.93333333333334,-245.33333333333334
771,14.933333333333334,-462.93333333333334,-236.79999999999998
772,21.333333333333332,-471.46666666666664,-224.0
773,40.53333333333333,-488.5333333333333,-221.86666666666667
774,38.4,-490.6666666666667,-213.33333333333334
775,46.93333333333333,-499.2,-202.66666666666666
776,38.4,-512.0,-192.0
777,40.53333333333333,-518.4,-183.46666666666667
778,38.4,-524.8,-172.8
779,32.0,-522.6666666666666,-170.66666666666666
780,29.866666666666667,-520.5333333333333,-177.06666666666666
781,36.266666666666666,-509.8666666666667,-187.73333333333332
782,34.13333333333333,-492.8,-192.0
783,38.4,-482.1333333333333,-198.4
784,40.53333333333333,-473.59999999999997,-196.26666666666665
785,34.13333333333333,-458.6666666666667,-198.4
786,32.0,-452.26666666666665,-192.0
787,29.866666666666667,-448.0,-185.6
788,23.466666666666665,-439.46666666666664,-181.33333333333334
789,29.866666666666667,-458.6666666666667,-179.2
790,32.0,-469.3333333333333,-164.26666666666665
791,25.6,-480.0,-166.4
792,29.866666666666667,-490.6666666666667,-149.33333333333334
793,34.13333333333333,-514.1333333333333,-145.06666666666666
794,29.866666666666667,-526.9333333333333,-140.8
795,36.266666666666666,-541.8666666666667,-140.8
796,29.866666666666667,-541.8666666666667,-134.4
797,32.0,-558.9333333333333,-138.66666666666666
798,40.53333333333333,-571.7333333333333,-140.8
799,32.0,-580.2666666666667,-136.53333333333333
800,38.4,-593.0666666666666,-132.26666666666665
801,32.0,-597.3333333333334,-149.33333333333334
802,25.6,-610.1333333333333,-155.73333333333332
803,19.2,-605.8666666666667,-172.8
804,8.533333333333333,-608.0,-187.73333333333332
805,2.1333333333333333,-614.4,-200.53333333333333
806,0.0,-618.6666666666666,-189.86666666666667
807,0.0,-625.0666666666666,-189.86666666666667
808,0.0,-633.6,-185.6
809,6.4,-642.1333333333333,-174.93333333333334
810,25.6,-642.1333333333333,-153.6
811,38.4,-637.8666666666667,-138.66666666666666
812,59.733333333333334,-640.0,-130.13333333333333
813,74.66666666666667,-620.8,-110.93333333333334
814,96.0,-608.0,-100.26666666666667
815,119.46666666666667,-599.4666666666667,-85.33333333333333
816,153.6,-601.6,-102.4
817,170.66666666666666,-605.8666666666667,-125.86666666666666
818,157.86666666666667,-625.0666666666666,-162.13333333333333
819,151.46666666666667,-652.8,-206.93333333333334
820,128.0,-674.1333333333333,-285.8666666666667
821,70.4,-684.8,-360.5333333333333
822,10.666666666666666,-710.4,-411.73333333333335
823,-40.53333333333333,-733.8666666666667,-433.06666666666666
824,-104.53333333333333,-761.6,-445.8666666666667
825,-149.33333333333334,-776.5333333333333,-454.4
826,-198.4,-782.9333333333333,-471.46666666666664
827,-232.53333333333333,-763.7333333333333,-494.93333333333334
828,-232.53333333333333,-755.2,-501.3333333333333
829,-230.4,-718.9333333333333,-499.2
830,-194.13333333333333,-682.6666666666666,-490.6666666666667
831,-136.53333333333333,-631.4666666666667,-473.59999999999997
832,-70.4,-588.8,-475.73333333333335
833,-4.266666666666667,-544.0,-450.1333333333333
834,57.6,-497.06666666666666,-435.2
835,106.66666666666667,-437.3333333333333,-420.26666666666665
836,132.26666666666665,-388.26666666666665,-420.26666666666665
837,147.2,-332.8,-435.2
838,160.0,-300.8,-452.26666666666665
839,170.66666666666666,-273.06666666666666,-435.2
840,185.6,-283.73333333333335,-418.1333333333333
841,198.4,-302.93333333333334,-371.2
842,194.13333333333333,-328.5333333333333,-322.1333333333333
843,192.0,-373.3333333333333,-275.2
844,162.13333333333333,-407.46666666666664,-260.26666666666665
845,136.53333333333333,-439.46666666666664,-251.73333333333332
846,102.4,-477.8666666666667,-253.86666666666667
847,59.733333333333334,-499.2,-275.2
848,19.2,-529.0666666666666,-294.4
849,-34.13333333333333,-544.0,-300.8
850,-78.93333333333334,-556.8,-313.6
851,-115.2,-569.6,-311.46666666666664
852,-160.0,-582.4,-313.6
853,-187.73333333333332,-580.2666666666667,-311.46666666666664
854,-215.46666666666667,-584.5333333333333,-311.46666666666664
855,-243.2,-576.0,-290.1333333333333
856,-260.26666666666665,-565.3333333333334,-290.1333333333333
857,-258.1333333333333,-544.0,-273.06666666666666
858,-258.1333333333333,-541.8666666666667,-258.1333333333333
859,-202.66666666666666,-490.6666666666667,-268.8
860,-179.2,-488.5333333333333,-256.0
861,-140.8,-477.8666666666667,-264.5333333333333
862,-104.53333333333333,-456.5333333333333,-264.5333333333333
863,-57.6,-448.0,-268.8
864,-2.1333333333333333,-437.3333333333333,-273.06666666666666
865,38.4,-422.4,-275.2
866,78.93333333333334,-422.4,-275.2
867,98.13333333333333,-411.73333333333335,-281.6
868,132.26666666666665,-420.26666666666665,-279.46666666666664
869,140.8,-428.8,-264.5333333333333
870,157.86666666666667,-454.4,-245.33333333333334
871,166.4,-471.46666666666664,-241.06666666666666
872,179.2,-486.4,-238.93333333333334
873,174.93333333333334,-499.2,-213.33333333333334
874,166.4,-514.1333333333333,-211.2
875,145.06666666666666,-505.59999999999997,-226.13333333333333
876,140.8,-494.93333333333334,-211.2
877,125.86666666666666,-503.46666666666664,-209.06666666666666
878,115.2,-499.2,-206.93333333333334
879,110.93333333333334,-497.06666666666666,-204.8
880,98.13333333333333,-492.8,-198.4
881,85.33333333333333,-494.93333333333334,-196.26666666666665
882,81.06666666666666,-490.6666666666667,-194.13333333333333
883,78.93333333333334,-486.4,-183.46666666666667
884,70.4,-480.0,-187.73333333333332
885,59.733333333333334,-460.8,-192.0
886,59.733333333333334,-452.26666666666665,-177.06666666666666
887,59.733333333333334,-450.1333333333333,-185.6
888,59.733333333333334,-428.8,-174.93333333333334
889,59.733333333333334,-420.26666666666665,-185.6
890,64.0,-422.4,-177.06666666666666
891,59.733333333333334,-424.5333333333333,-187.73333333333332
892,55.46666666666667,-428.8,-172.8
893,59.733333333333334,-437.3333333333333,-185.6
894,53.333333333333336,-443.73333333333335,-183.46666666666667
895,49.06666666666666,-462.93333333333334,-185.6
896,46.93333333333333,-477.8666666666667,-166.4
897,44.8,-501.3333333333333,-164.26666666666665
898,34.13333333333333,-518.4,-162.13333333333333
899,38.4,-535.4666666666667,-160.0
900,40.53333333333333,-552.5333333333333,-166.4
901,40.53333333333333,-567.4666666666667,-160.0
902,55.46666666666667,-582.4,-170.66666666666666
903,68.26666666666667,-582.4,-170.66666666666666
904,76.8,-595.2,-162.13333333333333
905,91.73333333333333,-608.0,-168.53333333333333
906,121.6,-610.1333333333333,-166.4
907,134.4,-608.0,-177.06666666666666
908,147.2,-614.4,-177.06666666666666
909,151.46666666666667,-614.4,-192.0
910,151.46666666666667,-605.8666666666667,-192.0
911,149.33333333333334,-603.7333333333333,-200.53333333333333
912,162.13333333333333,-608.0,-200.53333333333333
913,157.86666666666667,-610.1333333333333,-179.2
914,140.8,-601.6,-162.13333333333333
915,145.06666666666666,-622.9333333333333,-153.6
916,142.93333333333334,-616.5333333333333,-132.26666666666665
917,132.26666666666665,-614.4,-110.93333333333334
918,128.0,-610.1333333333333,-81.06666666666666
919,108.8,-610.1333333333333,-61.86666666666667
920,100.26666666666667,-605.8666666666667,-51.2
921,81.06666666666666,-603.7333333333333,-36.266666666666666
922,61.86666666666667,-605.8666666666667,-36.266666666666666
923,32.0,-595.2,-40.53333333333333
924,6.4,-595.2,-61.86666666666667
925,-2.1333333333333333,-603.7333333333333,-102.4
926,-17.066666666666666,-620.8,-145.06666666666666
927,-23.466666666666665,-640.0,-211.2
928,-42.666666666666664,-652.8,-281.6
929,-46.93333333333333,-678.4,-330.6666666666667
930,-17.066666666666666,-725.3333333333334,-349.8666666666667
931,27.733333333333334,-763.7333333333333,-352.0
932,89.6,-797.8666666666667,-352.0
933,138.66666666666666,-797.8666666666667,-369.06666666666666
934,192.0,-797.8666666666667,-396.8
935,215.46666666666667,-802.1333333333333,-403.2
936,241.06666666666666,-765.8666666666667,-456.5333333333333
937,217.6,-761.6,-482.1333333333333
938,189.86666666666667,-744.5333333333333,-507.73333333333335
939,149.33333333333334,-729.6,-516.2666666666667
940,119.46666666666667,-712.5333333333333,-524.8
941,98.13333333333333,-684.8,-514.1333333333333
942,78.93333333333334,-637.8666666666667,-507.73333333333335
943,51.2,-582.4,-499.2
944,32.0,-524.8,-486.4
945,12.8,-443.73333333333335,-471.46666666666664
946,4.266666666666667,-366.93333333333334,-456.5333333333333
947,0.0,-296.5333333333333,-426.6666666666667
948,-14.933333333333334,-234.66666666666666,-403.2
949,-25.6,-187.73333333333332,-371.2
950,-42.666666666666664,-155.73333333333332,-330.6666666666667
951,-51.2,-145.06666666666666,-313.6
952,-59.733333333333334,-155.73333333333332,-298.6666666666667
953,-64.0,-192.0,-273.06666666666666
954,-49.06666666666666,-249.6,-249.6
955,-40.53333333333333,-311.46666666666664,-236.79999999999998
956,-17.066666666666666,-379.73333333333335,-217.6
957,19.2,-428.8,-215.46666666666667
958,53.333333333333336,-488.5333333333333,-236.79999999999998
959,93.86666666666666,-522.6666666666666,-260.26666666666665
960,125.86666666666666,-544.0,-285.8666666666667
961,149.33333333333334,-552.5333333333333,-296.5333333333333
962,172.8,-571.7333333333333,-317.8666666666667
963,198.4,-588.8,-322.1333333333333
964,224.0,-597.3333333333334,-322.1333333333333
965,232.53333333333333,-601.6,-311.46666666666664
966,247.46666666666667,-595.2,-309.3333333333333
967,245.33333333333334,-590.9333333333333,-285.8666666666667
968,232.53333333333333,-590.9333333333333,-283.73333333333335
969,204.8,-565.3333333333334,-273.06666666666666
970,179.2,-556.8,-270.93333333333334
971,151.46666666666667,-548.2666666666667,-268.8
972,128.0,-529.0666666666666,-273.06666666666666
973,102.4,-514.1333333333333,-266.6666666666667
974,93.86666666666666,-503.46666666666664,-268.8
975,70.4,-488.5333333333333,-270.93333333333334
976,32.0,-477.8666666666667,-275.2
977,14.933333333333334,-469.3333333333333,-268.8
978,-4.266666666666667,-456.5333333333333,-262.4
979,-25.6,-456.5333333333333,-270.93333333333334
980,-34.13333333333333,-450.1333333333333,-264.5333333333333
981,-46.93333333333333,-454.4,-270.93333333333334
982,-59.733333333333334,-456.5333333333333,-256.0
983,-59.733333333333334,-454.4,-253.86666666666667
984,-70.4,-443.73333333333335,-251.73333333333332
985,-64.0,-445.8666666666667,-253.86666666666667
986,-59.733333333333334,-448.0,-247.46666666666667
987,-51.2,-450.1333333333333,-234.66666666666666
988,-36.266666666666666,-458.6666666666667,-238.93333333333334
989,-27.733333333333334,-469.3333333333333,-228.26666666666665
990,-10.666666666666666,-484.26666666666665,-221.86666666666667
991,0.0,-499.2,-215.46666666666667
992,0.0,-509.8666666666667,-219.73333333333332
993,6.4,-520.5333333333333,-198.4
994,4.266666666666667,-520.5333333333333,-204.8
995,14.933333333333334,-524.8,-196.26666666666665
996,17.066666666666666,-522.6666666666666,-189.86666666666667
997,12.8,-512.0,-192.0
998,12.8,-505.59999999999997,-183.46666666666667
999,8.533333333333333,-497.06666666666666,-181.33333333333334
1000,4.266666666666667,-488.5333333333333,-170.66666666666666
1001,2.1333333333333333,-488.5333333333333,-168.53333333333333
1002,0.0,-475.73333333333335,-168.53333333333333
1003,4.266666666666667,-473.59999999999997,-168.53333333333333
1004,2.1333333333333333,-462.93333333333334,-166.4
1005,4.266666666666667,-467.2,-164.26666666666665
1006,4.266666666666667,-460.8,-168.53333333333333
1007,10.666666666666666,-462.93333333333334,-166.4
1008,14.933333333333334,-469.3333333333333,-160.0
1009,25.6,-484.26666666666665,-168.53333333333333
1010,44.8,-488.5333333333333,-145.06666666666666
1011,27.733333333333334,-509.8666666666667,-142.93333333333334
1012,38.4,-524.8,-142.93333333333334
1013,40.53333333333333,-544.0,-149.33333333333334
1014,42.666666666666664,-550.4,-134.4
1015,53.333333333333336,-556.8,-138.66666666666666
1016,55.46666666666667,-576.0,-140.8
1017,53.333333333333336,-580.2666666666667,-138.66666666666666
1018,57.6,-584.5333333333333,-138.66666666666666
1019,40.53333333333333,-595.2,-140.8
1020,27.733333333333334,-597.3333333333334,-140.8
1021,23.466666666666665,-595.2,-147.2
1022,14.933333333333334,-601.6,-172.8
1023,12.8,-595.2,-177.06666666666666
1024,17.066666666666666,-595.2,-185.6
1025,23.466666666666665,-597.3333333333334,-185.6
1026,23.466666666666665,-601.6,-192.0
1027,32.0,-616.5333333333333,-181.33333333333334
1028,44.8,-616.5333333333333,-168.53333333333333
1029,76.8,-629.3333333333334,-147.2
1030,93.86666666666666,-629.3333333333334,-138.66666666666666
1031,117.33333333333333,-622.9333333333333,-119.46666666666667
1032,121.6,-625.0666666666666,-117.33333333333333
1033,132.26666666666665,-616.5333333333333,-100.26666666666667
1034,134.4,-608.0,-106.66666666666667
1035,153.6,-601.6,-113.06666666666666
1036,164.26666666666665,-608.0,-119.46666666666667
1037,160.0,-631.4666666666667,-138.66666666666666
1038,134.4,-667.7333333333333,-168.53333333333333
1039,85.33333333333333,-682.6666666666666,-251.73333333333332
1040,32.0,-695.4666666666667,-339.2
1041,-32.0,-710.4,-405.3333333333333
1042,-96.0,-740.2666666666667,-441.59999999999997
1043,-136.53333333333333,-778.6666666666666,-441.59999999999997
1044,-194.13333333333333,-802.1333333333333,-435.2
1045,-226.13333333333333,-810.6666666666666,-445.8666666666667
1046,-256.0,-806.4,-458.6666666666667
1047,-266.6666666666667,-778.6666666666666,-473.59999999999997
1048,-249.6,-746.6666666666666,-482.1333333333333
1049,-219.73333333333332,-691.2,-488.5333333333333
1050,-162.13333333333333,-637.8666666666667,-480.0
1051,-100.26666666666667,-593.0666666666666,-471.46666666666664
1052,-38.4,-539.7333333333333,-460.8
1053,2.1333333333333333,-486.4,-443.73333333333335
1054,34.13333333333333,-435.2,-441.59999999999997
1055,70.4,-386.1333333333333,-437.3333333333333
1056,96.0,-343.46666666666664,-450.1333333333333
1057,110.93333333333334,-309.3333333333333,-454.4
1058,123.73333333333333,-285.8666666666667,-450.1333333333333
1059,132.26666666666665,-283.73333333333335,-428.8
1060,151.46666666666667,-300.8,-394.6666666666667
1061,149.33333333333334,-334.93333333333334,-358.4
1062,162.13333333333333,-364.8,-320.0
1063,157.86666666666667,-403.2,-292.26666666666665
1064,151.46666666666667,-428.8,-275.2
1065,125.86666666666666,-454.4,-266.6666666666667
1066,87.46666666666667,-482.1333333333333,-264.5333333333333
1067,49.06666666666666,-509.8666666666667,-264.5333333333333
1068,10.666666666666666,-535.4666666666667,-273.06666666666666
1069,-29.866666666666667,-550.4,-281.6
1070,-81.06666666666666,-565.3333333333334,-292.26666666666665
1071,-117.33333333333333,-584.5333333333333,-298.6666666666667
1072,-160.0,-584.5333333333333,-296.5333333333333
1073,-185.6,-588.8,-305.06666666666666
1074,-206.93333333333334,-586.6666666666666,-302.93333333333334
1075,-243.2,-576.0,-290.1333333333333
1076,-226.13333333333333,-563.2,-302.93333333333334
1077,-217.6,-541.8666666666667,-298.6666666666667
1078,-194.13333333333333,-518.4,-296.5333333333333
1079,-166.4,-497.06666666666666,-283.73333333333335
1080,-119.46666666666667,-486.4,-283.73333333333335
1081,-78.93333333333334,-460.8,-283.73333333333335
1082,-34.13333333333333,-450.1333333333333,-283.73333333333335
1083,0.0,-435.2,-283.73333333333335
1084,40.53333333333333,-428.8,-283.73333333333335
1085,74.66666666666667,-413.8666666666667,-281.6
1086,96.0,-409.6,-253.86666666666667
1087,113.06666666666666,-401.06666666666666,-283.73333333333335
1088,138.66666666666666,-401.06666666666666,-283.73333333333335
1089,145.06666666666666,-409.6,-285.8666666666667
1090,157.86666666666667,-424.5333333333333,-275.2
1091,153.6,-437.3333333333333,-264.5333333333333
1092,160.0,-458.6666666666667,-260.26666666666665
1093,151.46666666666667,-477.8666666666667,-258.1333333333333
1094,128.0,-482.1333333333333,-243.2
1095,115.2,-501.3333333333333,-241.06666666666666
1096,100.26666666666667,-516.2666666666667,-241.06666666666666
1097,91.73333333333333,-522.6666666666666,-234.66666666666666
1098,87.46666666666667,-529.0666666666666,-228.26666666666665
1099,74.66666666666667,-533.3333333333334,-217.6
1100,64.0,-531.2,-204.8
1101,68.26666666666667,-526.9333333333333,-196.26666666666665
1102,68.26666666666667,-522.6666666666666,-200.53333333333333
1103,53.333333333333336,-507.73333333333335,-211.2
1104,57.6,-494.93333333333334,-198.4
1105,66.13333333333333,-480.0,-196.26666666666665
1106,61.86666666666667,-462.93333333333334,-189.86666666666667
1107,72.53333333333333,-450.1333333333333,-198.4
1108,81.06666666666666,-439.46666666666664,-194.13333333333333
1109,81.06666666666666,-441.59999999999997,-189.86666666666667
1110,96.0,-441.59999999999997,-189.86666666666667
1111,98.13333333333333,-437.3333333333333,-179.2
1112,91.73333333333333,-435.2,-181.33333333333334
1113,91.73333333333333,-450.1333333333333,-181.33333333333334
1114,91.73333333333333,-454.4,-181.33333333333334
1115,85.33333333333333,-465.06666666666666,-183.46666666666667
1116,91.73333333333333,-471.46666666666664,-179.2
1117,89.6,-477.8666666666667,-181.33333333333334
1118,91.73333333333333,-486.4,-174.93333333333334
1119,83.2,-501.3333333333333,-177.06666666666666
1120,91.73333333333333,-516.2666666666667,-174.93333333333334
1121,87.46666666666667,-539.7333333333333,-160.0
1122,83.2,-548.2666666666667,-151.46666666666667
1123,102.4,-561.0666666666666,-172.8
1124,108.8,-582.4,-151.46666666666667
1125,115.2,-584.5333333333333,-157.86666666666667
1126,128.0,-601.6,-153.6
1127,130.13333333333333,-612.2666666666667,-166.4
1128,136.53333333333333,-614.4,-170.66666666666666
1129,132.26666666666665,-616.5333333333333,-181.33333333333334
1130,125.86666666666666,-614.4,-196.26666666666665
1131,113.06666666666666,-616.5333333333333,-194.13333333333333
1132,104.53333333333333,-603.7333333333333,-202.66666666666666
1133,102.4,-603.7333333333333,-211.2
1134,106.66666666666667,-614.4,-217.6
1135,98.13333333333333,-616.5333333333333,-196.26666666666665
1136,106.66666666666667,-618.6666666666666,-192.0
1137,119.46666666666667,-629.3333333333334,-162.13333333333333
1138,130.13333333333333,-633.6,-155.73333333333332
1139,128.0,-620.8,-136.53333333333333
1140,136.53333333333333,-618.6666666666666,-115.2
1141,121.6,-620.8,-83.2
1142,110.93333333333334,-620.8,-66.13333333333333
1143,81.06666666666666,-614.4,-55.46666666666667
1144,70.4,-614.4,-46.93333333333333
1145,36.266666666666666,-612.2666666666667,-64.0
1146,29.866666666666667,-618.6666666666666,-91.73333333333333
1147,12.8,-625.0666666666666,-134.4
1148,-4.266666666666667,-633.6,-206.93333333333334
1149,-46.93333333333333,-642.1333333333333,-279.46666666666664
1150,-87.46666666666667,-669.8666666666667,-343.46666666666664
1151,-104.53333333333333,-710.4,-373.3333333333333
1152,-78.93333333333334,-757.3333333333334,-381.8666666666667
1153,-25.6,-810.6666666666666,-364.8
1154,10.666666666666666,-834.1333333333333,-356.26666666666665
1155,66.13333333333333,-846.9333333333333,-358.4
1156,106.66666666666667,-840.5333333333333,-386.1333333333333
1157,130.13333333333333,-821.3333333333334,-411.73333333333335
1158,132.26666666666665,-791.4666666666667,-435.2
1159,134.4,-753.0666666666666,-465.06666666666666
1160,119.46666666666667,-706.1333333333333,-505.59999999999997
1161,100.26666666666667,-669.8666666666667,-516.2666666666667
1162,87.46666666666667,-635.7333333333333,-516.2666666666667
1163,74.66666666666667,-586.6666666666666,-509.8666666666667
1164,55.46666666666667,-541.8666666666667,-501.3333333333333
1165,40.53333333333333,-484.26666666666665,-460.8
1166,25.6,-416.0,-428.8
1167,2.1333333333333333,-349.8666666666667,-413.8666666666667
1168,0.0,-290.1333333333333,-405.3333333333333
1169,0.0,-232.53333333333333,-377.6
1170,-8.533333333333333,-192.0,-369.06666666666666
1171,-19.2,-160.0,-345.6
1172,-21.333333333333332,-145.06666666666666,-313.6
1173,-19.2,-160.0,-296.5333333333333
1174,-6.4,-196.26666666666665,-273.06666666666666
1175,2.1333333333333333,-238.93333333333334,-270.93333333333334
1176,19.2,-281.6,-262.4
1177,40.53333333333333,-334.93333333333334,-264.5333333333333
1178,68.26666666666667,-384.0,-270.93333333333334
1179,96.0,-428.8,-258.1333333333333
1180,128.0,-469.3333333333333,-270.93333333333334
1181,162.13333333333333,-503.46666666666664,-275.2
1182,170.66666666666666,-520.5333333333333,-300.8
1183,196.26666666666665,-544.0,-311.46666666666664
1184,209.06666666666666,-569.6,-317.8666666666667
1185,226.13333333333333,-584.5333333333333,-324.26666666666665
1186,236.79999999999998,-601.6,-328.5333333333333
1187,221.86666666666667,-599.4666666666667,-334.93333333333334
1188,211.2,-597.3333333333334,-337.06666666666666
1189,185.6,-588.8,-326.4
1190,153.6,-586.6666666666666,-315.73333333333335
1191,123.73333333333333,-565.3333333333334,-294.4
1192,91.73333333333333,-554.6666666666666,-285.8666666666667
1193,59.733333333333334,-544.0,-281.6
1194,27.733333333333334,-522.6666666666666,-277.3333333333333
1195,8.533333333333333,-512.0,-273.06666666666666
1196,-6.4,-497.06666666666666,-270.93333333333334
1197,-17.066666666666666,-494.93333333333334,-268.8
1198,-44.8,-486.4,-264.5333333333333
1199,-51.2,-477.8666666666667,-253.86666666666667
1200,-57.6,-488.5333333333333,-262.4
1201,-64.0,-473.59999999999997,-260.26666666666665
1202,-59.733333333333334,-467.2,-249.6
1203,-57.6,-467.2,-262.4
1204,-53.333333333333336,-462.93333333333334,-251.73333333333332
1205,-38.4,-448.0,-249.6
1206,-29.866666666666667,-454.4,-256.0
1207,-8.533333333333333,-448.0,-247.46666666666667
1208,2.1333333333333333,-448.0,-253.86666666666667
1209,8.533333333333333,-437.3333333333333,-251.73333333333332
1210,19.2,-441.59999999999997,-253.86666666666667
1211,19.2,-450.1333333333333,-260.26666666666665
1212,25.6,-454.4,-236.79999999999998
1213,27.733333333333334,-465.06666666666666,-236.79999999999998
1214,32.0,-484.26666666666665,-236.79999999999998
1215,38.4,-497.06666666666666,-234.66666666666666
1216,44.8,-518.4,-221.86666666666667
1217,44.8,-524.8,-219.73333333333332
1218,46.93333333333333,-526.9333333333333,-213.33333333333334
1219,40.53333333333333,-531.2,-219.73333333333332
1220,34.13333333333333,-531.2,-211.2
1221,36.266666666666666,-526.9333333333333,-204.8
1222,34.13333333333333,-509.8666666666667,-198.4
1223,34.13333333333333,-509.8666666666667,-198.4
1224,29.866666666666667,-490.6666666666667,-187.73333333333332
1225,34.13333333333333,-492.8,-179.2
1226,14.933333333333334,-488.5333333333333,-155.73333333333332
1227,23.466666666666665,-482.1333333333333,-170.66666666666666
1228,27.733333333333334,-473.59999999999997,-162.13333333333333
1229,32.0,-467.2,-160.0
1230,32.0,-475.73333333333335,-164.26666666666665
1231,38.4,-484.26666666666665,-162.13333333333333
1232,38.4,-484.26666666666665,-172.8
1233,34.13333333333333,-499.2,-166.4
1234,49.06666666666666,-507.73333333333335,-170.66666666666666
1235,51.2,-524.8,-172.8
1236,55.46666666666667,-539.7333333333333,-179.2
1237,64.0,-550.4,-162.13333333333333
1238,64.0,-567.4666666666667,-162.13333333333333
1239,74.66666666666667,-573.8666666666667,-162.13333333333333
1240,66.13333333333333,-588.8,-157.86666666666667
1241,46.93333333333333,-597.3333333333334,-151.46666666666667
1242,23.466666666666665,-586.6666666666666,-160.0
1243,0.0,-588.8,-162.13333333333333
1244,-19.2,-588.8,-177.06666666666666
1245,-38.4,-586.6666666666666,-189.86666666666667
1246,-64.0,-590.9333333333333,-192.0
1247,-81.06666666666666,-595.2,-194.13333333333333
1248,-98.13333333333333,-605.8666666666667,-196.26666666666665
1249,-85.33333333333333,-620.8,-189.86666666666667
1250,-68.26666666666667,-635.7333333333333,-170.66666666666666
1251,-53.333333333333336,-650.6666666666666,-147.2
1252,-21.333333333333332,-661.3333333333334,-134.4
1253,4.266666666666667,-672.0,-102.4
1254,19.2,-672.0,-93.86666666666666
1255,44.8,-667.7333333333333,-87.46666666666667
1256,68.26666666666667,-661.3333333333334,-83.2
1257,100.26666666666667,-648.5333333333333,-91.73333333333333
1258,125.86666666666666,-637.8666666666667,-125.86666666666666
1259,130.13333333333333,-642.1333333333333,-145.06666666666666
1260,132.26666666666665,-648.5333333333333,-183.46666666666667
1261,96.0,-674.1333333333333,-238.93333333333334
1262,42.666666666666664,-672.0,-302.93333333333334
1263,-10.666666666666666,-678.4,-377.6
1264,-72.53333333333333,-682.6666666666666,-428.8
1265,-121.6,-701.8666666666667,-439.46666666666664
1266,-168.53333333333333,-729.6,-435.2
1267,-198.4,-748.8,-430.93333333333334
1268,-234.66666666666666,-744.5333333333333,-450.1333333333333
1269,-245.33333333333334,-727.4666666666667,-465.06666666666666
1270,-238.93333333333334,-699.7333333333333,-471.46666666666664
1271,-200.53333333333333,-672.0,-477.8666666666667
1272,-142.93333333333334,-631.4666666666667,-473.59999999999997
1273,-76.8,-580.2666666666667,-486.4
1274,-12.8,-537.6,-486.4
1275,36.266666666666666,-505.59999999999997,-477.8666666666667
1276,66.13333333333333,-462.93333333333334,-467.2
1277,89.6,-426.6666666666667,-462.93333333333334
1278,98.13333333333333,-401.06666666666666,-462.93333333333334
1279,119.46666666666667,-379.73333333333335,-473.59999999999997
1280,138.66666666666666,-356.26666666666665,-454.4
1281,147.2,-356.26666666666665,-430.93333333333334
1282,166.4,-360.5333333333333,-392.5333333333333
1283,172.8,-381.8666666666667,-354.1333333333333
1284,181.33333333333334,-401.06666666666666,-326.4
1285,177.06666666666666,-420.26666666666665,-281.6
1286,166.4,-454.4,-275.2
1287,151.46666666666667,-473.59999999999997,-270.93333333333334
1288,130.13333333333333,-512.0,-266.6666666666667
1289,93.86666666666666,-533.3333333333334,-262.4
1290,53.333333333333336,-552.5333333333333,-275.2
1291,19.2,-571.7333333333333,-283.73333333333335
1292,-23.466666666666665,-571.7333333333333,-290.1333333333333
1293,-66.13333333333333,-573.8666666666667,-307.2
1294,-100.26666666666667,-569.6,-305.06666666666666
1295,-132.26666666666665,-548.2666666666667,-296.5333333333333
1296,-166.4,-529.0666666666666,-296.5333333333333
1297,-189.86666666666667,-509.8666666666667,-298.6666666666667
1298,-215.46666666666667,-486.4,-288.0
1299,-219.73333333333332,-465.06666666666666,-285.8666666666667
1300,-211.2,-450.1333333333333,-275.2
1301,-192.0,-433.06666666666666,-270.93333333333334
1302,-151.46666666666667,-426.6666666666667,-258.1333333333333
1303,-104.53333333333333,-430.93333333333334,-245.33333333333334
1304,-76.8,-424.5333333333333,-253.86666666666667
1305,-29.866666666666667,-418.1333333333333,-256.0
1306,6.4,-409.6,-262.4
1307,42.666666666666664,-405.3333333333333,-268.8
1308,81.06666666666666,-405.3333333333333,-268.8
1309,121.6,-407.46666666666664,-268.8
1310,140.8,-411.73333333333335,-258.1333333333333
1311,162.13333333333333,-424.5333333333333,-238.93333333333334
1312,183.46666666666667,-439.46666666666664,-236.79999999999998
1313,200.53333333333333,-467.2,-230.4
1314,196.26666666666665,-477.8666666666667,-211.2
1315,189.86666666666667,-501.3333333333333,-217.6
1316,185.6,-514.1333333333333,-219.73333333333332
1317,172.8,-524.8,-219.73333333333332
1318,155.73333333333332,-529.0666666666666,-215.46666666666667
1319,147.2,-533.3333333333334,-211.2
1320,132.26666666666665,-533.3333333333334,-213.33333333333334
1321,117.33333333333333,-533.3333333333334,-217.6
1322,102.4,-524.8,-215.46666666666667
1323,89.6,-520.5333333333333,-211.2
1324,74.66666666666667,-499.2,-202.66666666666666
1325,68.26666666666667,-482.1333333333333,-192.0
1326,68.26666666666667,-477.8666666666667,-189.86666666666667
1327,68.26666666666667,-467.2,-185.6
1328,61.86666666666667,-458.6666666666667,-179.2
1329,55.46666666666667,-448.0,-185.6
1330,51.2,-441.59999999999997,-179.2
1331,64.0,-441.59999999999997,-164.26666666666665
1332,70.4,-441.59999999999997,-168.53333333333333
1333,70.4,-437.3333333333333,-170.66666666666666
1334,68.26666666666667,-448.0,-172.8
1335,70.4,-452.26666666666665,-172.8
1336,72.53333333333333,-462.93333333333334,-162.13333333333333
1337,66.13333333333333,-477.8666666666667,-153.6
1338,66.13333333333333,-497.06666666666666,-153.6
1339,53.333333333333336,-501.3333333333333,-151.46666666666667
1340,46.93333333333333,-518.4,-157.86666666666667
1341,51.2,-537.6,-151.46666666666667
1342,44.8,-546.1333333333333,-153.6
1343,49.06666666666666,-558.9333333333333,-147.2
1344,46.93333333333333,-563.2,-155.73333333333332
1345,57.6,-588.8,-151.46666666666667
1346,64.0,-601.6,-155.73333333333332
1347,78.93333333333334,-614.4,-164.26666666666665
1348,96.0,-620.8,-179.2
1349,108.8,-625.0666666666666,-179.2
1350,110.93333333333334,-625.0666666666666,-183.46666666666667
1351,104.53333333333333,-620.8,-189.86666666666667
1352,108.8,-616.5333333333333,-192.0
1353,106.66666666666667,-614.4,-196.26666666666665
1354,98.13333333333333,-601.6,-187.73333333333332
1355,89.6,-588.8,-179.2
1356,78.93333333333334,-578.1333333333333,-164.26666666666665
1357,68.26666666666667,-576.0,-134.4
1358,59.733333333333334,-569.6,-119.46666666666667
1359,46.93333333333333,-561.0666666666666,-96.0
1360,42.666666666666664,-556.8,-74.66666666666667
1361,40.53333333333333,-558.9333333333333,-55.46666666666667
1362,27.733333333333334,-550.4,-40.53333333333333
1363,14.933333333333334,-556.8,-17.066666666666666
1364,0.0,-563.2,-21.333333333333332
1365,-27.733333333333334,-571.7333333333333,-36.266666666666666
1366,-49.06666666666666,-584.5333333333333,-57.6
1367,-40.53333333333333,-618.6666666666666,-123.73333333333333
1368,-38.4,-642.1333333333333,-185.6
1369,-21.333333333333332,-659.2,-273.06666666666666
1370,-19.2,-676.2666666666667,-341.3333333333333
1371,-8.533333333333333,-708.2666666666667,-394.6666666666667
1372,4.266666666666667,-740.2666666666667,-413.8666666666667
1373,38.4,-797.8666666666667,-416.0
1374,108.8,-827.7333333333333,-439.46666666666664
1375,168.53333333333333,-859.7333333333333,-458.6666666666667
1376,230.4,-878.9333333333333,-469.3333333333333
1377,249.6,-881.0666666666666,-484.26666666666665
1378,238.93333333333334,-870.4,-512.0
1379,215.46666666666667,-840.5333333333333,-539.7333333333333
1380,196.26666666666665,-797.8666666666667,-552.5333333333333
1381,155.73333333333332,-744.5333333333333,-556.8
1382,138.66666666666666,-693.3333333333334,-556.8
1383,125.86666666666666,-629.3333333333334,-558.9333333333333
1384,110.93333333333334,-550.4,-539.7333333333333
1385,87.46666666666667,-473.59999999999997,-544.0
1386,81.06666666666666,-392.5333333333333,-520.5333333333333
1387,68.26666666666667,-317.8666666666667,-484.26666666666665
1388,59.733333333333334,-256.0,-458.6666666666667
1389,40.53333333333333,-194.13333333333333,-420.26666666666665
1390,27.733333333333334,-164.26666666666665,-381.8666666666667
1391,6.4,-142.93333333333334,-345.6
1392,4.266666666666667,-153.6,-317.8666666666667
1393,2.1333333333333333,-196.26666666666665,-285.8666666666667
1394,0.0,-247.46666666666667,-251.73333333333332
1395,8.533333333333333,-315.73333333333335,-241.06666666666666
1396,25.6,-381.8666666666667,-236.79999999999998
1397,46.93333333333333,-435.2,-228.26666666666665
1398,70.4,-477.8666666666667,-241.06666666666666
1399,100.26666666666667,-522.6666666666666,-256.0
1400,117.33333333333333,-539.7333333333333,-273.06666666666666
1401,151.46666666666667,-558.9333333333333,-290.1333333333333
1402,172.8,-565.3333333333334,-309.3333333333333
1403,196.26666666666665,-573.8666666666667,-311.46666666666664
1404,211.2,-578.1333333333333,-330.6666666666667
1405,234.66666666666666,-569.6,-332.8
1406,245.33333333333334,-567.4666666666667,-332.8
1407,241.06666666666666,-552.5333333333333,-339.2
1408,236.79999999999998,-537.6,-332.8
1409,209.06666666666666,-522.6666666666666,-343.46666666666664
1410,185.6,-509.8666666666667,-328.5333333333333
1411,138.66666666666666,-490.6666666666667,-315.73333333333335
1412,104.53333333333333,-475.73333333333335,-305.06666666666666
1413,74.66666666666667,-471.46666666666664,-294.4
1414,53.333333333333336,-471.46666666666664,-296.5333333333333
1415,38.4,-462.93333333333334,-281.6
1416,6.4,-458.6666666666667,-275.2
1417,-17.066666666666666,-462.93333333333334,-275.2
1418,-36.266666666666666,-473.59999999999997,-273.06666666666666
1419,-49.06666666666666,-473.59999999999997,-260.26666666666665
1420,-57.6,-484.26666666666665,-256.0
1421,-76.8,-488.5333333333333,-249.6
1422,-81.06666666666666,-490.6666666666667,-260.26666666666665
1423,-76.8,-482.1333333333333,-260.26666666666665
1424,-72.53333333333333,-484.26666666666665,-258.1333333333333
1425,-68.26666666666667,-480.0,-264.5333333333333
1426,-61.86666666666667,-477.8666666666667,-264.5333333333333
1427,-46.93333333333333,-475.73333333333335,-266.6666666666667
1428,-34.13333333333333,-471.46666666666664,-266.6666666666667
1429,-23.466666666666665,-477.8666666666667,-266.6666666666667
1430,-8.533333333333333,-482.1333333333333,-262.4
1431,2.1333333333333333,-488.5333333333333,-268.8
1432,19.2,-494.93333333333334,-245.33333333333334
1433,21.333333333333332,-501.3333333333333,-238.93333333333334
1434,32.0,-505.59999999999997,-234.66666666666666
1435,42.666666666666664,-501.3333333333333,-234.66666666666666
1436,51.2,-518.4,-221.86666666666667
1437,53.333333333333336,-514.1333333333333,-215.46666666666667
1438,59.733333333333334,-509.8666666666667,-215.46666666666667
1439,61.86666666666667,-509.8666666666667,-206.93333333333334
1440,66.13333333333333,-505.59999999999997,-206.93333333333334
1441,68.26666666666667,-512.0,-200.53333333333333
1442,66.13333333333333,-497.06666666666666,-226.13333333333333
1443,83.2,-512.0,-196.26666666666665
1444,89.6,-512.0,-196.26666666666665
1445,89.6,-514.1333333333333,-187.73333333333332
1446,83.2,-514.1333333333333,-179.2
1447,78.93333333333334,-518.4,-185.6
1448,76.8,-526.9333333333333,-196.26666666666665
1449,66.13333333333333,-531.2,-187.73333333333332
1450,59.733333333333334,-539.7333333333333,-196.26666666666665
1451,46.93333333333333,-546.1333333333333,-185.6
1452,38.4,-550.4,-179.2
1453,42.666666666666664,-576.0,-187.73333333333332
1454,36.266666666666666,-593.0666666666666,-166.4
1455,38.4,-601.6,-174.93333333333334
1456,38.4,-610.1333333333333,-164.26666666666665
1457,21.333333333333332,-605.8666666666667,-164.26666666666665
1458,8.533333333333333,-605.8666666666667,-170.66666666666666
1459,2.1333333333333333,-595.2,-174.93333333333334
1460,2.1333333333333333,-582.4,-206.93333333333334
1461,2.1333333333333333,-561.0666666666666,-217.6
1462,6.4,-546.1333333333333,-224.0
1463,12.8,-522.6666666666666,-226.13333333333333
1464,10.666666666666666,-501.3333333333333,-228.26666666666665
1465,25.6,-484.26666666666665,-221.86666666666667
1466,34.13333333333333,-469.3333333333333,-202.66666666666666
1467,51.2,-458.6666666666667,-185.6
1468,49.06666666666666,-443.73333333333335,-170.66666666666666
1469,64.0,-439.46666666666664,-162.13333333333333
1470,76.8,-430.93333333333334,-157.86666666666667
1471,91.73333333333333,-435.2,-157.86666666666667
1472,115.2,-450.1333333333333,-151.46666666666667
1473,130.13333333333333,-471.46666666666664,-179.2
1474,140.8,-503.46666666666664,-198.4
1475,138.66666666666666,-535.4666666666667,-209.06666666666666
1476,136.53333333333333,-573.8666666666667,-243.2
1477,125.86666666666666,-614.4,-277.3333333333333
1478,85.33333333333333,-648.5333333333333,-296.5333333333333
1479,29.866666666666667,-684.8,-339.2
1480,-21.333333333333332,-710.4,-360.5333333333333
1481,-55.46666666666667,-755.2,-386.1333333333333
1482,-96.0,-791.4666666666667,-401.06666666666666
1483,-108.8,-819.2,-411.73333333333335
1484,-102.4,-838.4,-420.26666666666665
1485,-87.46666666666667,-840.5333333333333,-413.8666666666667
1486,-57.6,-829.8666666666667,-407.46666666666664
1487,-17.066666666666666,-808.5333333333333,-403.2
1488,27.733333333333334,-765.8666666666667,-403.2
1489,68.26666666666667,-695.4666666666667,-409.6
1490,102.4,-633.6,-409.6
1491,130.13333333333333,-565.3333333333334,-416.0
1492,132.26666666666665,-484.26666666666665,-428.8
1493,136.53333333333333,-424.5333333333333,-422.4
1494,121.6,-375.46666666666664,-420.26666666666665
1495,110.93333333333334,-337.06666666666666,-407.46666666666664
1496,85.33333333333333,-302.93333333333334,-388.26666666666665
1497,66.13333333333333,-285.8666666666667,-377.6
1498,44.8,-279.46666666666664,-360.5333333333333
1499,32.0,-275.2,-341.3333333333333
1500,53.333333333333336,-288.0,-332.8
1501,66.13333333333333,-305.06666666666666,-328.5333333333333
1502,68.26666666666667,-324.26666666666665,-332.8
1503,91.73333333333333,-343.46666666666664,-332.8
1504,87.46666666666667,-373.3333333333333,-315.73333333333335
1505,91.73333333333333,-405.3333333333333,-309.3333333333333
1506,83.2,-448.0,-307.2
1507,70.4,-480.0,-302.93333333333334
1508,44.8,-516.2666666666667,-290.1333333333333
1509,25.6,-546.1333333333333,-292.26666666666665
1510,19.2,-569.6,-283.73333333333335
1511,4.266666666666667,-580.2666666666667,-292.26666666666665
1512,0.0,-593.0666666666666,-296.5333333333333
1513,-4.266666666666667,-599.4666666666667,-294.4
1514,-12.8,-584.5333333333333,-296.5333333333333
1515,-10.666666666666666,-582.4,-300.8
1516,-21.333333333333332,-561.0666666666666,-302.93333333333334
1517,-6.4,-546.1333333333333,-309.3333333333333
1518,0.0,-516.2666666666667,-288.0
1519,8.533333333333333,-490.6666666666667,-311.46666666666664
1520,12.8,-469.3333333333333,-324.26666666666665
1521,23.466666666666665,-448.0,-334.93333333333334
1522,46.93333333333333,-439.46666666666664,-332.8
1523,53.333333333333336,-426.6666666666667,-332.8
1524,70.4,-411.73333333333335,-337.06666666666666
1525,74.66666666666667,-416.0,-330.6666666666667
1526,85.33333333333333,-418.1333333333333,-332.8
1527,93.86666666666666,-411.73333333333335,-326.4
1528,89.6,-420.26666666666665,-328.5333333333333
1529,85.33333333333333,-418.1333333333333,-324.26666666666665
1530,91.73333333333333,-424.5333333333333,-326.4
1531,85.33333333333333,-428.8,-324.26666666666665
1532,89.6,-428.8,-330.6666666666667
1533,83.2,-433.06666666666666,-337.06666666666666
1534,91.73333333333333,-441.59999999999997,-341.3333333333333
1535,89.6,-443.73333333333335,-339.2
1536,89.6,-441.59999999999997,-339.2
1537,91.73333333333333,-448.0,-345.6
1538,93.86666666666666,-448.0,-343.46666666666664
1539,98.13333333333333,-460.8,-352.0
1540,98.13333333333333,-465.06666666666666,-349.8666666666667
1541,106.66666666666667,-471.46666666666664,-364.8
1542,98.13333333333333,-471.46666666666664,-352.0
1543,100.26666666666667,-486.4,-360.5333333333333
1544,89.6,-484.26666666666665,-352.0
1545,91.73333333333333,-497.06666666666666,-341.3333333333333
1546,81.06666666666666,-497.06666666666666,-345.6
1547,78.93333333333334,-497.06666666666666,-337.06666666666666
1548,64.0,-490.6666666666667,-339.2
1549,53.333333333333336,-492.8,-349.8666666666667
1550,46.93333333333333,-488.5333333333333,-349.8666666666667
1551,32.0,-482.1333333333333,-339.2
1552,21.333333333333332,-484.26666666666665,-347.73333333333335
1553,25.6,-482.1333333333333,-330.6666666666667
1554,25.6,-475.73333333333335,-313.6
1555,12.8,-465.06666666666666,-300.8
1556,14.933333333333334,-460.8,-281.6
1557,17.066666666666666,-448.0,-281.6
1558,19.2,-452.26666666666665,-277.3333333333333
1559,10.666666666666666,-441.59999999999997,-281.6
1560,21.333333333333332,-439.46666666666664,-277.3333333333333
1561,23.466666666666665,-437.3333333333333,-283.73333333333335
1562,27.733333333333334,-435.2,-288.0
1563,29.866666666666667,-439.46666666666664,-283.73333333333335
1564,34.13333333333333,-445.8666666666667,-288.0
1565,44.8,-467.2,-283.73333333333335
1566,40.53333333333333,-471.46666666666664,-279.46666666666664
1567,49.06666666666666,-480.0,-279.46666666666664
1568,42.666666666666664,-488.5333333333333,-283.73333333333335
1569,46.93333333333333,-507.73333333333335,-285.8666666666667
1570,46.93333333333333,-507.73333333333335,-283.73333333333335
1571,40.53333333333333,-505.59999999999997,-300.8
1572,36.266666666666666,-499.2,-288.0
1573,38.4,-507.73333333333335,-288.0
1574,34.13333333333333,-503.46666666666664,-285.8666666666667
1575,27.733333333333334,-509.8666666666667,-279.46666666666664
1576,17.066666666666666,-507.73333333333335,-275.2
1577,23.466666666666665,-514.1333333333333,-270.93333333333334
1578,19.2,-522.6666666666666,-266.6666666666667
1579,34.13333333333333,-526.9333333333333,-266.6666666666667
1580,46.93333333333333,-529.0666666666666,-264.5333333333333
1581,68.26666666666667,-531.2,-260.26666666666665
1582,85.33333333333333,-533.3333333333334,-249.6
1583,85.33333333333333,-529.0666666666666,-258.1333333333333
1584,93.86666666666666,-533.3333333333334,-236.79999999999998
1585,93.86666666666666,-526.9333333333333,-230.4
1586,96.0,-529.0666666666666,-226.13333333333333
1587,83.2,-516.2666666666667,-226.13333333333333
1588,76.8,-516.2666666666667,-215.46666666666667
1589,68.26666666666667,-509.8666666666667,-215.46666666666667
1590,57.6,-514.1333333333333,-211.2
1591,44.8,-514.1333333333333,-211.2
1592,34.13333333333333,-509.8666666666667,-213.33333333333334
1593,32.0,-518.4,-243.2
1594,14.933333333333334,-526.9333333333333,-251.73333333333332
1595,0.0,-524.8,-279.46666666666664
1596,-8.533333333333333,-537.6,-315.73333333333335
1597,-6.4,-550.4,-339.2
1598,-19.2,-554.6666666666666,-358.4
1599,-23.466666666666665,-571.7333333333333,-366.93333333333334
1600,-12.8,-573.8666666666667,-384.0
1601,-19.2,-584.5333333333333,-377.6
1602,-4.266666666666667,-597.3333333333334,-371.2
1603,0.0,-601.6,-386.1333333333333
1604,8.533333333333333,-603.7333333333333,-371.2
1605,12.8,-608.0,-379.73333333333335
1606,21.333333333333332,-610.1333333333333,-379.73333333333335
1607,10.666666666666666,-593.0666666666666,-388.26666666666665
1608,8.533333333333333,-595.2,-401.06666666666666
1609,8.533333333333333,-590.9333333333333,-407.46666666666664
1610,-8.533333333333333,-571.7333333333333,-409.6
1611,-8.533333333333333,-558.9333333333333,-413.8666666666667
1612,-21.333333333333332,-550.4,-422.4
1613,-19.2,-537.6,-413.8666666666667
1614,-21.333333333333332,-531.2,-405.3333333333333
1615,-17.066666666666666,-524.8,-416.0
1616,0.0,-518.4,-424.5333333333333
1617,6.4,-512.0,-439.46666666666664
1618,17.066666666666666,-501.3333333333333,-443.73333333333335
1619,17.066666666666666,-477.8666666666667,-467.2
1620,32.0,-448.0,-488.5333333333333
1621,42.666666666666664,-428.8,-494.93333333333334
1622,49.06666666666666,-413.8666666666667,-477.8666666666667
1623,59.733333333333334,-422.4,-467.2
1624,61.86666666666667,-424.5333333333333,-462.93333333333334
1625,46.93333333333333,-441.59999999999997,-443.73333333333335
1626,32.0,-443.73333333333335,-448.0
1627,17.066666666666666,-454.4,-448.0
1628,-12.8,-454.4,-445.8666666666667
1629,-27.733333333333334,-456.5333333333333,-465.06666666666666
1630,-46.93333333333333,-452.26666666666665,-458.6666666666667
1631,-66.13333333333333,-445.8666666666667,-456.5333333333333
1632,-78.93333333333334,-439.46666666666664,-467.2
1633,-87.46666666666667,-437.3333333333333,-471.46666666666664
1634,-96.0,-428.8,-450.1333333333333
1635,-91.73333333333333,-426.6666666666667,-443.73333333333335
1636,-89.6,-420.26666666666665,-435.2
1637,-85.33333333333333,-422.4,-430.93333333333334
1638,-93.86666666666666,-409.6,-430.93333333333334
1639,-87.46666666666667,-407.46666666666664,-411.73333333333335
1640,-91.73333333333333,-398.93333333333334,-407.46666666666664
1641,-98.13333333333333,-384.0,-403.2
1642,-100.26666666666667,-375.46666666666664,-407.46666666666664
1643,-98.13333333333333,-371.2,-407.46666666666664
1644,-98.13333333333333,-354.1333333333333,-411.73333333333335
1645,-108.8,-349.8666666666667,-409.6
1646,-119.46666666666667,-347.73333333333335,-409.6
1647,-138.66666666666666,-352.0,-403.2
1648,-149.33333333333334,-362.6666666666667,-394.6666666666667
1649,-177.06666666666666,-381.8666666666667,-388.26666666666665
1650,-189.86666666666667,-396.8,-375.46666666666664
1651,-206.93333333333334,-411.73333333333335,-360.5333333333333
1652,-217.6,-424.5333333333333,-347.73333333333335
1653,-217.6,-443.73333333333335,-339.2
1654,-213.33333333333334,-445.8666666666667,-334.93333333333334
1655,-217.6,-450.1333333333333,-343.46666666666664
1656,-209.06666666666666,-454.4,-358.4
1657,-204.8,-456.5333333333333,-375.46666666666664
1658,-187.73333333333332,-443.73333333333335,-392.5333333333333
1659,-166.4,-443.73333333333335,-413.8666666666667
1660,-142.93333333333334,-439.46666666666664,-398.93333333333334
1661,-130.13333333333333,-420.26666666666665,-394.6666666666667
1662,-108.8,-424.5333333333333,-398.93333333333334
1663,-91.73333333333333,-416.0,-392.5333333333333
1664,-68.26666666666667,-407.46666666666664,-390.4
1665,-66.13333333333333,-398.93333333333334,-398.93333333333334
1666,-55.46666666666667,-396.8,-416.0
1667,-59.733333333333334,-381.8666666666667,-443.73333333333335
1668,-59.733333333333334,-373.3333333333333,-465.06666666666666
1669,-72.53333333333333,-375.46666666666664,-488.5333333333333
1670,-91.73333333333333,-362.6666666666667,-512.0
1671,-110.93333333333334,-373.3333333333333,-524.8
1672,-113.06666666666666,-386.1333333333333,-535.4666666666667
1673,-123.73333333333333,-398.93333333333334,-526.9333333333333
1674,-125.86666666666666,-403.2,-533.3333333333334
1675,-123.73333333333333,-407.46666666666664,-533.3333333333334
1676,-117.33333333333333,-413.8666666666667,-546.1333333333333
1677,-113.06666666666666,-426.6666666666667,-548.2666666666667
1678,-102.4,-428.8,-548.2666666666667
1679,-91.73333333333333,-441.59999999999997,-552.5333333333333
1680,-78.93333333333334,-448.0,-546.1333333333333
1681,-59.733333333333334,-456.5333333333333,-544.0
1682,-40.53333333333333,-458.6666666666667,-548.2666666666667
1683,-25.6,-471.46666666666664,-552.5333333333333
1684,-17.066666666666666,-480.0,-546.1333333333333
1685,-4.266666666666667,-482.1333333333333,-544.0
1686,0.0,-488.5333333333333,-522.6666666666666
1687,-4.266666666666667,-492.8,-514.1333333333333
1688,-6.4,-488.5333333333333,-501.3333333333333
1689,-10.666666666666666,-490.6666666666667,-488.5333333333333
1690,-14.933333333333334,-488.5333333333333,-475.73333333333335
1691,-23.466666666666665,-480.0,-465.06666666666666
1692,-34.13333333333333,-473.59999999999997,-460.8
1693,-34.13333333333333,-467.2,-467.2
1694,-53.333333333333336,-460.8,-469.3333333333333
1695,-57.6,-452.26666666666665,-462.93333333333334
1696,-57.6,-452.26666666666665,-471.46666666666664
1697,-64.0,-448.0,-454.4
1698,-64.0,-448.0,-450.1333333333333
1699,-70.4,-439.46666666666664,-452.26666666666665
1700,-64.0,-428.8,-452.26666666666665
1701,-70.4,-430.93333333333334,-443.73333333333335
1702,-68.26666666666667,-418.1333333333333,-437.3333333333333
1703,-66.13333333333333,-409.6,-430.93333333333334
1704,-64.0,-392.5333333333333,-426.6666666666667
1705,-57.6,-392.5333333333333,-433.06666666666666
1706,-66.13333333333333,-375.46666666666664,-426.6666666666667
1707,-66.13333333333333,-371.2,-416.0
1708,-70.4,-362.6666666666667,-413.8666666666667
1709,-68.26666666666667,-358.4,-418.1333333333333
1710,-68.26666666666667,-364.8,-420.26666666666665
1711,-74.66666666666667,-362.6666666666667,-418.1333333333333
1712,-74.66666666666667,-369.06666666666666,-411.73333333333335
1713,-85.33333333333333,-379.73333333333335,-411.73333333333335
1714,-85.33333333333333,-381.8666666666667,-422.4
1715,-78.93333333333334,-396.8,-418.1333333333333
1716,-83.2,-394.6666666666667,-420.26666666666665
1717,-78.93333333333334,-405.3333333333333,-424.5333333333333
1718,-72.53333333333333,-409.6,-420.26666666666665
1719,-68.26666666666667,-411.73333333333335,-413.8666666666667
1720,-68.26666666666667,-413.8666666666667,-428.8
1721,-46.93333333333333,-416.0,-418.1333333333333
1722,-51.2,-422.4,-422.4
1723,-34.13333333333333,-422.4,-416.0
1724,-14.933333333333334,-420.26666666666665,-428.8
1725,-42.666666666666664,-424.5333333333333,-418.1333333333333
1726,-49.06666666666666,-433.06666666666666,-416.0
1727,-42.666666666666664,-441.59999999999997,-418.1333333333333
1728,-64.0,-441.59999999999997,-426.6666666666667
1729,-70.4,-445.8666666666667,-445.8666666666667
1730,-81.06666666666666,-443.73333333333335,-443.73333333333335
1731,-78.93333333333334,-437.3333333333333,-448.0
1732,-96.0,-433.06666666666666,-460.8
1733,-102.4,-435.2,-460.8
1734,-102.4,-422.4,-467.2
1735,-110.93333333333334,-416.0,-469.3333333333333
1736,-102.4,-409.6,-469.3333333333333
1737,-110.93333333333334,-398.93333333333334,-471.46666666666664
1738,-108.8,-392.5333333333333,-462.93333333333334
1739,-110.93333333333334,-384.0,-465.06666666666666
1740,-102.4,-362.6666666666667,-473.59999999999997
1741,-91.73333333333333,-362.6666666666667,-456.5333333333333
1742,-87.46666666666667,-356.26666666666665,-460.8
1743,-74.66666666666667,-347.73333333333335,-462.93333333333334
1744,-66.13333333333333,-352.0,-462.93333333333334
1745,-59.733333333333334,-356.26666666666665,-460.8
1746,-51.2,-358.4,-454.4
1747,-42.666666666666664,-364.8,-454.4
1748,-42.666666666666664,-371.2,-450.1333333333333
1749,-38.4,-377.6,-433.06666666666666
1750,-29.866666666666667,-396.8,-439.46666666666664
1751,-32.0,-401.06666666666666,-443.73333333333335
1752,-25.6,-403.2,-435.2
1753,-25.6,-407.46666666666664,-441.59999999999997
1754,-25.6,-409.6,-435.2
1755,-17.066666666666666,-413.8666666666667,-450.1333333333333
1756,-14.933333333333334,-413.8666666666667,-445.8666666666667
1757,-17.066666666666666,-407.46666666666664,-452.26666666666665
1758,-14.933333333333334,-409.6,-441.59999999999997
1759,-19.2,-407.46666666666664,-448.0
1760,-10.666666666666666,-401.06666666666666,-443.73333333333335
1761,-8.533333333333333,-403.2,-443.73333333333335
1762,-14.933333333333334,-392.5333333333333,-443.73333333333335
1763,-2.1333333333333333,-388.26666666666665,-445.8666666666667
1764,-8.533333333333333,-388.26666666666665,-443.73333333333335
1765,-10.666666666666666,-388.26666666666665,-443.73333333333335
1766,-4.266666666666667,-384.0,-441.59999999999997
1767,-10.666666666666666,-386.1333333333333,-433.06666666666666
1768,-8.533333333333333,-381.8666666666667,-428.8
1769,-8.533333333333333,-392.5333333333333,-433.06666666666666
1770,-8.533333333333333,-392.5333333333333,-433.06666666666666
1771,-12.8,-392.5333333333333,-426.6666666666667
1772,-12.8,-392.5333333333333,-428.8
1773,-12.8,-405.3333333333333,-430.93333333333334
1774,-10.666666666666666,-411.73333333333335,-416.0
1775,-23.466666666666665,-405.3333333333333,-430.93333333333334
1776,-25.6,-403.2,-430.93333333333334
1777,-25.6,-409.6,-426.6666666666667
1778,-27.733333333333334,-407.46666666666664,-437.3333333333333
1779,-23.466666666666665,-407.46666666666664,-433.06666666666666
1780,-29.866666666666667,-407.46666666666664,-441.59999999999997
1781,-25.6,-409.6,-443.73333333333335
1782,-21.333333333333332,-407.46666666666664,-439.46666666666664
1783,-29.866666666666667,-407.46666666666664,-433.06666666666666
1784,-21.333333333333332,-405.3333333333333,-424.5333333333333
1785,-23.466666666666665,-401.06666666666666,-424.5333333333333
1786,-19.2,-405.3333333333333,-428.8
1787,-19.2,-401.06666666666666,-424.5333333333333
1788,-10.666666666666666,-407.46666666666664,-422.4
1789,-8.533333333333333,-401.06666666666666,-435.2
1790,-2.1333333333333333,-403.2,-426.6666666666667
1791,-4.266666666666667,-413.8666666666667,-428.8
1792,-12.8,-409.6,-428.8
1793,-6.4,-409.6,-433.06666666666666
1794,-8.533333333333333,-411.73333333333335,-433.06666666666666
1795,-14.933333333333334,-411.73333333333335,-433.06666666666666
1796,0.0,-416.0,-435.2
1797,-4.266666666666667,-411.73333333333335,-435.2
1798,0.0,-413.8666666666667,-437.3333333333333
1799,0.0,-413.8666666666667,-430.93333333333334
1800,-2.1333333333333333,-405.3333333333333,-452.26666666666665
1801,0.0,-411.73333333333335,-437.3333333333333
1802,-2.1333333333333333,-409.6,-430.93333333333334
1803,-6.4,-405.3333333333333,-439.46666666666664
1804,0.0,-409.6,-437.3333333333333
1805,-4.266666666666667,-409.6,-437.3333333333333
1806,-8.533333333333333,-405.3333333333333,-433.06666666666666
1807,-21.333333333333332,-405.3333333333333,-433.06666666666666
1808,-21.333333333333332,-401.06666666666666,-439.46666666666664
1809,-21.333333333333332,-403.2,-437.3333333333333
1810,-25.6,-396.8,-437.3333333333333
1811,-19.2,-401.06666666666666,-441.59999999999997
1812,-14.933333333333334,-398.93333333333334,-445.8666666666667
1813,-19.2,-394.6666666666667,-439.46666666666664
1814,-17.066666666666666,-396.8,-448.0
1815,-10.666666666666666,-392.5333333333333,-448.0
1816,-8.533333333333333,-390.4,-450.1333333333333
1817,-12.8,-392.5333333333333,-450.1333333333333
1818,-6.4,-384.0,-435.2
1819,-10.666666666666666,-392.5333333333333,-441.59999999999997
1820,-4.266666666666667,-392.5333333333333,-450.1333333333333
1821,0.0,-388.26666666666665,-456.5333333333333
1822,-4.266666666666667,-388.26666666666665,-450.1333333333333
1823,-6.4,-388.26666666666665,-450.1333333333333
1824,0.0,-392.5333333333333,-445.8666666666667
1825,-2.1333333333333333,-398.93333333333334,-443.73333333333335
1826,0.0,-392.5333333333333,-437.3333333333333
1827,0.0,-396.8,-435.2
1828,-6.4,-394.6666666666667,-424.5333333333333
1829,-2.1333333333333333,-396.8,-418.1333333333333
1830,-10.666666666666666,-390.4,-411.73333333333335
1831,-10.666666666666666,-394.6666666666667,-411.73333333333335
1832,-14.933333333333334,-388.26666666666665,-403.2
1833,-2.1333333333333333,-396.8,-405.3333333333333
1834,-6.4,-403.2,-394.6666666666667
1835,-10.666666666666666,-396.8,-390.4
1836,2.1333333333333333,-405.3333333333333,-392.5333333333333
1837,8.533333333333333,-405.3333333333333,-390.4
1838,10.666666666666666,-407.46666666666664,-381.8666666666667
1839,12.8,-401.06666666666666,-386.1333333333333
1840,14.933333333333334,-405.3333333333333,-377.6
1841,19.2,-405.3333333333333,-366.93333333333334
1842,14.933333333333334,-409.6,-364.8
1843,19.2,-407.46666666666664,-364.8
1844,23.466666666666665,-407.46666666666664,-358.4
1845,23.466666666666665,-407.46666666666664,-356.26666666666665
1846,27.733333333333334,-407.46666666666664,-358.4
1847,29.866666666666667,-409.6,-349.8666666666667
1848,34.13333333333333,-403.2,-345.6
1849,34.13333333333333,-409.6,-341.3333333333333
1850,40.53333333333333,-405.3333333333333,-339.2
1851,34.13333333333333,-388.26666666666665,-337.06666666666666
1852,32.0,-390.4,-328.5333333333333
1853,34.13333333333333,-386.1333333333333,-322.1333333333333
1854,38.4,-379.73333333333335,-313.6
1855,36.266666666666666,-369.06666666666666,-320.0
1856,36.266666666666666,-362.6666666666667,-309.3333333333333
1857,29.866666666666667,-360.5333333333333,-307.2
1858,25.6,-358.4,-307.2
1859,19.2,-354.1333333333333,-313.6
1860,23.466666666666665,-356.26666666666665,-313.6
1861,21.333333333333332,-362.6666666666667,-305.06666666666666
1862,17.066666666666666,-371.2,-315.73333333333335
1863,17.066666666666666,-377.6,-320.0
1864,10.666666666666666,-384.0,-324.26666666666665
1865,0.0,-409.6,-326.4
1866,17.066666666666666,-413.8666666666667,-349.8666666666667
1867,-21.333333333333332,-437.3333333333333,-354.1333333333333
1868,-23.466666666666665,-458.6666666666667,-352.0
1869,-29.866666666666667,-471.46666666666664,-366.93333333333334
1870,-32.0,-488.5333333333333,-375.46666666666664
1871,-27.733333333333334,-497.06666666666666,-386.1333333333333
1872,-17.066666666666666,-505.59999999999997,-377.6
1873,-6.4,-505.59999999999997,-388.26666666666665
1874,0.0,-501.3333333333333,-381.8666666666667
1875,4.266666666666667,-488.5333333333333,-375.46666666666664
1876,6.4,-469.3333333333333,-364.8
1877,10.666666666666666,-445.8666666666667,-373.3333333333333
1878,4.266666666666667,-416.0,-364.8
1879,-6.4,-398.93333333333334,-364.8
1880,-19.2,-360.5333333333333,-358.4
1881,-38.4,-334.93333333333334,-364.8
1882,-64.0,-305.06666666666666,-354.1333333333333
1883,-81.06666666666666,-264.5333333333333,-358.4
1884,-93.86666666666666,-241.06666666666666,-369.06666666666666
1885,-117.33333333333333,-209.06666666666666,-364.8
1886,-134.4,-189.86666666666667,-366.93333333333334
1887,-149.33333333333334,-162.13333333333333,-371.2
1888,-157.86666666666667,-153.6,-366.93333333333334
1889,-172.8,-140.8,-362.6666666666667
1890,-168.53333333333333,-132.26666666666665,-369.06666666666666
1891,-170.66666666666666,-136.53333333333333,-358.4
1892,-160.0,-140.8,-352.0
1893,-149.33333333333334,-153.6,-349.8666666666667
1894,-140.8,-164.26666666666665,-337.06666666666666
1895,-132.26666666666665,-189.86666666666667,-328.5333333333333
1896,-136.53333333333333,-213.33333333333334,-317.8666666666667
1897,-136.53333333333333,-236.79999999999998,-315.73333333333335
1898,-134.4,-268.8,-324.26666666666665
1899,-128.0,-281.6,-324.26666666666665
1900,-104.53333333333333,-307.2,-337.06666666666666
1901,-81.06666666666666,-324.26666666666665,-330.6666666666667
1902,-64.0,-330.6666666666667,-339.2
1903,-34.13333333333333,-313.6,-360.5333333333333
1904,-4.266666666666667,-283.73333333333335,-369.06666666666666
1905,19.2,-256.0,-388.26666666666665
1906,49.06666666666666,-206.93333333333334,-388.26666666666665
1907,81.06666666666666,-168.53333333333333,-377.6
1908,121.6,-138.66666666666666,-375.46666666666664
1909,145.06666666666666,-117.33333333333333,-366.93333333333334
1910,174.93333333333334,-102.4,-354.1333333333333
1911,198.4,-85.33333333333333,-364.8
1912,211.2,-70.4,-347.73333333333335
1913,211.2,-57.6,-358.4
1914,211.2,-59.733333333333334,-354.1333333333333
1915,204.8,-59.733333333333334,-347.73333333333335
1916,187.73333333333332,-74.66666666666667,-330.6666666666667
1917,151.46666666666667,-102.4,-317.8666666666667
1918,140.8,-136.53333333333333,-317.8666666666667
1919,119.46666666666667,-162.13333333333333,-307.2
1920,117.33333333333333,-187.73333333333332,-292.26666666666665
1921,106.66666666666667,-200.53333333333333,-275.2
1922,106.66666666666667,-198.4,-285.8666666666667
1923,108.8,-194.13333333333333,-305.06666666666666
1924,117.33333333333333,-185.6,-305.06666666666666
1925,115.2,-172.8,-307.2
1926,130.13333333333333,-168.53333333333333,-290.1333333333333
1927,138.66666666666666,-164.26666666666665,-273.06666666666666
1928,170.66666666666666,-157.86666666666667,-264.5333333333333
1929,194.13333333333333,-147.2,-245.33333333333334
1930,213.33333333333334,-140.8,-238.93333333333334
1931,215.46666666666667,-130.13333333333333,-232.53333333333333
1932,226.13333333333333,-115.2,-234.66666666666666
1933,224.0,-98.13333333333333,-232.53333333333333
1934,234.66666666666666,-87.46666666666667,-251.73333333333332
1935,234.66666666666666,-85.33333333333333,-232.53333333333333
1936,230.4,-110.93333333333334,-236.79999999999998
1937,232.53333333333333,-147.2,-228.26666666666665
1938,234.66666666666666,-189.86666666666667,-192.0
1939,238.93333333333334,-249.6,-155.73333333333332
1940,260.26666666666665,-317.8666666666667,-145.06666666666666
1941,305.06666666666666,-384.0,-140.8
1942,311.46666666666664,-428.8,-132.26666666666665
1943,352.0,-480.0,-162.13333333333333
1944,405.3333333333333,-518.4,-166.4
1945,467.2,-569.6,-168.53333333333333
1946,548.2666666666667,-627.2,-153.6
1947,699.7333333333333,-678.4,-151.46666666666667
1948,876.8,-718.9333333333333,-192.0
1949,1117.8666666666666,-761.6,-238.93333333333334
1950,1326.9333333333334,-761.6,-256.0
1951,1461.3333333333333,-693.3333333333334,-334.93333333333334
1952,1461.3333333333333,-605.8666666666667,-448.0
1953,1427.2,-584.5333333333333,-469.3333333333333
1954,1454.9333333333334,-654.9333333333333,-401.06666666666666
1955,1408.0,-770.1333333333333,-285.8666666666667
1956,1329.0666666666666,-921.6,-100.26666666666667
1957,1188.2666666666667,-1077.3333333333333,102.4
1958,1009.0666666666666,-1218.1333333333332,232.53333333333333
1959,885.3333333333334,-1335.4666666666667,275.2
1960,774.4,-1412.2666666666667,270.93333333333334
1961,842.6666666666666,-1518.9333333333334,219.73333333333332
1962,1090.1333333333332,-1661.8666666666666,128.0
1963,1273.6,-1766.3999999999999,83.2
1964,1480.5333333333333,-1875.2,70.4
1965,1614.9333333333334,-1930.6666666666667,59.733333333333334
1966,1589.3333333333333,-1926.3999999999999,4.266666666666667
1967,1437.8666666666666,-1917.8666666666666,-91.73333333333333
1968,1230.9333333333334,-1881.6,-189.86666666666667
1969,989.8666666666667,-1751.4666666666667,-262.4
1970,763.7333333333333,-1576.5333333333333,-270.93333333333334
1971,567.4666666666667,-1390.9333333333334,-219.73333333333332
1972,418.1333333333333,-1203.2,-166.4
1973,300.8,-1015.4666666666667,-98.13333333333333
1974,226.13333333333333,-819.2,-44.8
1975,166.4,-605.8666666666667,19.2
1976,42.666666666666664,-373.3333333333333,128.0
1977,32.0,-134.4,96.0
1978,68.26666666666667,91.73333333333333,12.8
1979,136.53333333333333,275.2,-14.933333333333334
1980,217.6,398.93333333333334,-4.266666666666667
1981,369.06666666666666,475.73333333333335,-17.066666666666666
1982,494.93333333333334,505.59999999999997,6.4
1983,590.9333333333333,477.8666666666667,0.0
1984,672.0,384.0,-36.266666666666666
1985,654.9333333333333,266.6666666666667,-66.13333333333333
1986,650.6666666666666,121.6,-91.73333333333333
1987,729.6,-59.733333333333334,-42.666666666666664
1988,817.0666666666666,-260.26666666666665,49.06666666666666
1989,541.8666666666667,-384.0,119.46666666666667
1990,96.0,-465.06666666666666,-185.6
1991,-215.46666666666667,-467.2,-140.8
1992,68.26666666666667,-462.93333333333334,-117.33333333333333
1993,96.0,-360.5333333333333,145.06666666666666
1994,565.3333333333334,-345.6,29.866666666666667
1995,1216.0,-418.1333333333333,251.73333333333332
1996,1224.5333333333333,-371.2,394.6666666666667
1997,1100.8,-275.2,381.8666666666667
1998,832.0,-110.93333333333334,281.6
1999,595.2,57.6,187.73333333333332
2000,454.4,177.06666666666666,98.13333333333333
2001,362.6666666666667,290.1333333333333,106.66666666666667
2002,294.4,358.4,196.26666666666665
2003,132.26666666666665,360.5333333333333,324.26666666666665
2004,-140.8,347.73333333333335,499.2
2005,-328.5333333333333,281.6,556.8
2006,-377.6,200.53333333333333,620.8
2007,-441.59999999999997,121.6,629.3333333333334
2008,-398.93333333333334,44.8,625.0666666666666
2009,-394.6666666666667,44.8,616.5333333333333
2010,-305.06666666666666,91.73333333333333,578.1333333333333
2011,-202.66666666666666,164.26666666666665,558.9333333333333
2012,-185.6,315.73333333333335,612.2666666666667
2013,-170.66666666666666,450.1333333333333,605.8666666666667
2014,-113.06666666666666,535.4666666666667,605.8666666666667
2015,-49.06666666666666,601.6,620.8
2016,-4.266666666666667,672.0,635.7333333333333
2017,68.26666666666667,689.0666666666666,646.4
2018,96.0,676.2666666666667,672.0
2019,130.13333333333333,640.0,663.4666666666667
2020,121.6,582.4,654.9333333333333
2021,93.86666666666666,524.8,633.6
2022,66.13333333333333,437.3333333333333,612.2666666666667
2023,53.333333333333336,345.6,586.6666666666666
2024,36.266666666666666,268.8,552.5333333333333
2025,27.733333333333334,181.33333333333334,520.5333333333333
2026,40.53333333333333,117.33333333333333,486.4
2027,29.866666666666667,55.46666666666667,454.4
2028,34.13333333333333,6.4,435.2
2029,29.866666666666667,-32.0,413.8666666666667
2030,32.0,-49.06666666666666,392.5333333333333
2031,17.066666666666666,-59.733333333333334,362.6666666666667
2032,2.1333333333333333,-59.733333333333334,343.46666666666664
2033,-12.8,-49.06666666666666,315.73333333333335
2034,-19.2,-32.0,330.6666666666667
2035,-27.733333333333334,-4.266666666666667,324.26666666666665
2036,-51.2,8.533333333333333,339.2
2037,-74.66666666666667,12.8,356.26666666666665
2038,-85.33333333333333,40.53333333333333,373.3333333333333
2039,-81.06666666666666,53.333333333333336,375.46666666666664
2040,-57.6,49.06666666666666,420.26666666666665
2041,-61.86666666666667,78.93333333333334,366.93333333333334
2042,-32.0,72.53333333333333,349.8666666666667
2043,-6.4,81.06666666666666,330.6666666666667
2044,4.266666666666667,76.8,328.5333333333333
2045,23.466666666666665,59.733333333333334,322.1333333333333
2046,14.933333333333334,57.6,324.26666666666665
2047,21.333333333333332,46.93333333333333,311.46666666666664
2048,19.2,38.4,285.8666666666667
2049,36.266666666666666,32.0,296.5333333333333
2050,51.2,34.13333333333333,290.1333333333333
2051,51.2,34.13333333333333,324.26666666666665
2052,61.86666666666667,32.0,339.2
2053,53.333333333333336,25.6,364.8
2054,44.8,25.6,366.93333333333334
2055,61.86666666666667,14.933333333333334,386.1333333333333
2056,85.33333333333333,0.0,392.5333333333333
2057,49.06666666666666,2.1333333333333333,426.6666666666667
2058,2.1333333333333333,-14.933333333333334,462.93333333333334
2059,-34.13333333333333,-23.466666666666665,499.2
2060,-34.13333333333333,-42.666666666666664,499.2
2061,0.0,-66.13333333333333,514.1333333333333
2062,10.666666666666666,-76.8,522.6666666666666
2063,19.2,-93.86666666666666,537.6
2064,44.8,-115.2,533.3333333333334
2065,49.06666666666666,-123.73333333333333,537.6
2066,40.53333333333333,-134.4,529.0666666666666
2067,42.666666666666664,-155.73333333333332,535.4666666666667
2068,49.06666666666666,-179.2,524.8
2069,74.66666666666667,-198.4,522.6666666666666
2070,93.86666666666666,-215.46666666666667,514.1333333333333
2071,121.6,-236.79999999999998,503.46666666666664
2072,151.46666666666667,-258.1333333333333,494.93333333333334
2073,183.46666666666667,-273.06666666666666,488.5333333333333
2074,211.2,-285.8666666666667,467.2
2075,256.0,-296.5333333333333,456.5333333333333
2076,283.73333333333335,-315.73333333333335,443.73333333333335
2077,292.26666666666665,-317.8666666666667,445.8666666666667
2078,324.26666666666665,-324.26666666666665,424.5333333333333
2079,324.26666666666665,-320.0,430.93333333333334
2080,328.5333333333333,-313.6,409.6
2081,343.46666666666664,-305.06666666666666,392.5333333333333
2082,349.8666666666667,-296.5333333333333,381.8666666666667
2083,347.73333333333335,-292.26666666666665,369.06666666666666
2084,364.8,-288.0,360.5333333333333
2085,377.6,-279.46666666666664,349.8666666666667
2086,392.5333333333333,-285.8666666666667,332.8
2087,398.93333333333334,-281.6,328.5333333333333
2088,398.93333333333334,-275.2,313.6
2089,401.06666666666666,-283.73333333333335,317.8666666666667
2090,401.06666666666666,-279.46666666666664,305.06666666666666
2091,396.8,-277.3333333333333,296.5333333333333
2092,398.93333333333334,-279.46666666666664,292.26666666666665
2093,407.46666666666664,-275.2,275.2
2094,411.73333333333335,-275.2,277.3333333333333
2095,405.3333333333333,-270.93333333333334,275.2
2096,401.06666666666666,-264.5333333333333,264.5333333333333
2097,396.8,-260.26666666666665,253.86666666666667
2098,409.6,-262.4,253.86666666666667
2099,409.6,-260.26666666666665,247.46666666666667
2100,405.3333333333333,-266.6666666666667,236.79999999999998
2101,392.5333333333333,-262.4,238.93333333333334
2102,386.1333333333333,-262.4,236.79999999999998
2103,388.26666666666665,-268.8,234.66666666666666
2104,381.8666666666667,-268.8,241.06666666666666
2105,375.46666666666664,-273.06666666666666,232.53333333333333
2106,379.73333333333335,-273.06666666666666,226.13333333333333
2107,384.0,-273.06666666666666,234.66666666666666
2108,384.0,-270.93333333333334,236.79999999999998
2109,388.26666666666665,-275.2,230.4
2110,392.5333333333333,-275.2,230.4
2111,390.4,-256.0,234.66666666666666
2112,394.6666666666667,-256.0,224.0
2113,403.2,-247.46666666666667,230.4
2114,403.2,-243.2,232.53333333333333
2115,409.6,-236.79999999999998,238.93333333333334
2116,411.73333333333335,-219.73333333333332,238.93333333333334
2117,420.26666666666665,-217.6,243.2
2118,424.5333333333333,-204.8,251.73333333333332
2119,430.93333333333334,-192.0,243.2
2120,435.2,-183.46666666666667,251.73333333333332
2121,435.2,-181.33333333333334,249.6
2122,435.2,-172.8,247.46666666666667
2123,435.2,-168.53333333333333,258.1333333333333
2124,433.06666666666666,-166.4,260.26666666666665
2125,424.5333333333333,-170.66666666666666,264.5333333333333
2126,418.1333333333333,-177.06666666666666,264.5333333333333
2127,416.0,-181.33333333333334,277.3333333333333
2128,405.3333333333333,-174.93333333333334,279.46666666666664
2129,405.3333333333333,-179.2,285.8666666666667
2130,401.06666666666666,-183.46666666666667,288.0
2131,392.5333333333333,-189.86666666666667,294.4
2132,390.4,-183.46666666666667,313.6
2133,386.1333333333333,-189.86666666666667,313.6
2134,375.46666666666664,-183.46666666666667,317.8666666666667
2135,375.46666666666664,-179.2,322.1333333333333
2136,364.8,-179.2,328.5333333333333
2137,364.8,-166.4,349.8666666666667
2138,345.6,-170.66666666666666,352.0
2139,328.5333333333333,-160.0,349.8666666666667
2140,330.6666666666667,-166.4,356.26666666666665
2141,328.5333333333333,-149.33333333333334,360.5333333333333
2142,313.6,-151.46666666666667,377.6
2143,307.2,-153.6,371.2
2144,302.93333333333334,-153.6,375.46666666666664
2145,300.8,-151.46666666666667,394.6666666666667
2146,290.1333333333333,-153.6,388.26666666666665
2147,281.6,-157.86666666666667,398.93333333333334
2148,275.2,-151.46666666666667,396.8
2149,273.06666666666666,-145.06666666666666,407.46666666666664
2150,266.6666666666667,-149.33333333333334,407.46666666666664
2151,251.73333333333332,-140.8,407.46666666666664
2152,256.0,-142.93333333333334,405.3333333333333
2153,253.86666666666667,-147.2,405.3333333333333
2154,243.2,-151.46666666666667,409.6
2155,245.33333333333334,-149.33333333333334,407.46666666666664
2156,256.0,-153.6,409.6
2157,249.6,-142.93333333333334,398.93333333333334
2158,243.2,-155.73333333333332,407.46666666666664
2159,249.6,-155.73333333333332,409.6
2160,245.33333333333334,-155.73333333333332,411.73333333333335
2161,249.6,-155.73333333333332,409.6
2162,245.33333333333334,-153.6,405.3333333333333
2163,243.2,-155.73333333333332,407.46666666666664
2164,247.46666666666667,-160.0,409.6
2165,243.2,-157.86666666666667,409.6
2166,245.33333333333334,-155.73333333333332,401.06666666666666
2167,245.33333333333334,-157.86666666666667,405.3333333333333
2168,245.33333333333334,-149.33333333333334,405.3333333333333
2169,238.93333333333334,-155.73333333333332,407.46666666666664
2170,236.79999999999998,-155.73333333333332,405.3333333333333
2171,236.79999999999998,-151.46666666666667,403.2
2172,241.06666666666666,-157.86666666666667,407.46666666666664
2173,232.53333333333333,-155.73333333333332,396.8
2174,241.06666666666666,-157.86666666666667,394.6666666666667
2175,234.66666666666666,-160.0,386.1333333333333
2176,247.46666666666667,-157.86666666666667,392.5333333333333
2177,243.2,-164.26666666666665,386.1333333333333
2178,247.46666666666667,-153.6,388.26666666666665
2179,243.2,-160.0,384.0
2180,243.2,-162.13333333333333,381.8666666666667
2181,247.46666666666667,-160.0,377.6
2182,241.06666666666666,-160.0,377.6
2183,251.73333333333332,-160.0,371.2
2184,253.86666666666667,-166.4,384.0
2185,253.86666666666667,-166.4,375.46666666666664
2186,256.0,-162.13333333333333,375.46666666666664
2187,251.73333333333332,-168.53333333333333,362.6666666666667
2188,262.4,-168.53333333333333,369.06666666666666
2189,266.6666666666667,-170.66666666666666,371.2
2190,264.5333333333333,-172.8,379.73333333333335
2191,277.3333333333333,-170.66666666666666,366.93333333333334
2192,273.06666666666666,-164.26666666666665,371.2
2193,285.8666666666667,-164.26666666666665,360.5333333333333
2194,283.73333333333335,-162.13333333333333,369.06666666666666
2195,290.1333333333333,-164.26666666666665,366.93333333333334
2196,292.26666666666665,-174.93333333333334,356.26666666666665
2197,279.46666666666664,-162.13333333333333,362.6666666666667
2198,285.8666666666667,-168.53333333333333,371.2
2199,290.1333333333333,-172.8,358.4
2200,294.4,-172.8,369.06666666666666
2201,290.1333333333333,-172.8,358.4
2202,288.0,-172.8,362.6666666666667
2203,296.5333333333333,-174.93333333333334,356.26666666666665
2204,298.6666666666667,-174.93333333333334,356.26666666666665
2205,288.0,-172.8,373.3333333333333
2206,292.26666666666665,-172.8,364.8
2207,290.1333333333333,-172.8,358.4
2208,298.6666666666667,-177.06666666666666,366.93333333333334
2209,292.26666666666665,-179.2,360.5333333333333
2210,296.5333333333333,-177.06666666666666,362.6666666666667
2211,292.26666666666665,-185.6,358.4
2212,296.5333333333333,-185.6,356.26666666666665
2213,300.8,-185.6,364.8
2214,305.06666666666666,-185.6,358.4
2215,302.93333333333334,-174.93333333333334,352.0
2216,307.2,-187.73333333333332,362.6666666666667
2217,298.6666666666667,-183.46666666666667,356.26666666666665
2218,296.5333333333333,-179.2,354.1333333333333
2219,309.3333333333333,-174.93333333333334,362.6666666666667
2220,300.8,-179.2,358.4
2221,305.06666666666666,-181.33333333333334,358.4
2222,307.2,-177.06666666666666,360.5333333333333
2223,315.73333333333335,-162.13333333333333,330.6666666666667
2224,311.46666666666664,-168.53333333333333,360.5333333333333
2225,313.6,-162.13333333333333,349.8666666666667
2226,313.6,-166.4,356.26666666666665
2227,315.73333333333335,-166.4,352.0
2228,311.46666666666664,-162.13333333333333,366.93333333333334
2229,315.73333333333335,-155.73333333333332,356.26666666666665
2230,317.8666666666667,-151.46666666666667,354.1333333333333
2231,317.8666666666667,-157.86666666666667,358.4
2232,315.73333333333335,-151.46666666666667,360.5333333333333
2233,324.26666666666665,-153.6,356.26666666666665
2234,320.0,-155.73333333333332,358.4
2235,324.26666666666665,-151.46666666666667,358.4
2236,313.6,-151.46666666666667,352.0
2237,320.0,-151.46666666666667,360.5333333333333
2238,315.73333333333335,-147.2,358.4
2239,309.3333333333333,-142.93333333333334,360.5333333333333
2240,317.8666666666667,-155.73333333333332,352.0
2241,309.3333333333333,-160.0,354.1333333333333
2242,309.3333333333333,-157.86666666666667,362.6666666666667
2243,311.46666666666664,-166.4,360.5333333333333
2244,309.3333333333333,-160.0,358.4
2245,305.06666666666666,-162.13333333333333,362.6666666666667
2246,302.93333333333334,-155.73333333333332,366.93333333333334
2247,307.2,-155.73333333333332,373.3333333333333
2248,302.93333333333334,-157.86666666666667,362.6666666666667
2249,296.5333333333333,-160.0,364.8
2250,294.4,-162.13333333333333,369.06666666666666
2251,294.4,-160.0,366.93333333333334
2252,292.26666666666665,-160.0,362.6666666666667
2253,294.4,-164.26666666666665,369.06666666666666
2254,296.5333333333333,-155.73333333333332,379.73333333333335
2255,292.26666666666665,-155.73333333333332,366.93333333333334
2256,285.8666666666667,-162.13333333333333,369.06666666666666
2257,288.0,-164.26666666666665,366.93333333333334
2258,285.8666666666667,-162.13333333333333,373.3333333333333
2259,281.6,-162.13333333333333,384.0
2260,283.73333333333335,-162.13333333333333,373.3333333333333
2261,283.73333333333335,-162.13333333333333,379.73333333333335
2262,281.6,-166.4,375.46666666666664
2263,275.2,-162.13333333333333,377.6
2264,279.46666666666664,-164.26666666666665,377.6
2265,281.6,-162.13333333333333,377.6
2266,275.2,-160.0,373.3333333333333
2267,279.46666666666664,-166.4,366.93333333333334
2268,275.2,-166.4,379.73333333333335
2269,273.06666666666666,-160.0,381.8666666666667
2270,277.3333333333333,-162.13333333333333,373.3333333333333
2271,277.3333333333333,-164.26666666666665,373.3333333333333
2272,275.2,-162.13333333333333,381.8666666666667
2273,279.46666666666664,-157.86666666666667,377.6
2274,277.3333333333333,-164.26666666666665,373.3333333333333
2275,277.3333333333333,-160.0,369.06666666666666
2276,270.93333333333334,-162.13333333333333,381.8666666666667
2277,279.46666666666664,-160.0,379.73333333333335
2278,273.06666666666666,-168.53333333333333,377.6
2279,279.46666666666664,-164.26666666666665,373.3333333333333
2280,277.3333333333333,-162.13333333333333,375.46666666666664
2281,279.46666666666664,-164.26666666666665,371.2
2282,275.2,-157.86666666666667,369.06666666666666
2283,275.2,-164.26666666666665,373.3333333333333
2284,275.2,-160.0,373.3333333333333
2285,273.06666666666666,-166.4,379.73333333333335
2286,273.06666666666666,-162.13333333333333,377.6
2287,275.2,-166.4,373.3333333333333
2288,273.06666666666666,-170.66666666666666,377.6
2289,277.3333333333333,-170.66666666666666,373.3333333333333
2290,279.46666666666664,-172.8,366.93333333333334
2291,277.3333333333333,-174.93333333333334,373.3333333333333
2292,281.6,-166.4,379.73333333333335
2293,281.6,-170.66666666666666,371.2
2294,279.46666666666664,-170.66666666666666,377.6
2295,283.73333333333335,-166.4,366.93333333333334
2296,285.8666666666667,-160.0,377.6
2297,283.73333333333335,-155.73333333333332,371.2
2298,283.73333333333335,-151.46666666666667,369.06666666666666
2299,300.8,-149.33333333333334,377.6
2300,290.1333333333333,-153.6,377.6
2301,292.26666666666665,-153.6,364.8
2302,290.1333333333333,-162.13333333333333,362.6666666666667
2303,292.26666666666665,-155.73333333333332,360.5333333333333
2304,288.0,-160.0,384.0
2305,294.4,-157.86666666666667,369.06666666666666
2306,290.1333333333333,-157.86666666666667,366.93333333333334
2307,290.1333333333333,-157.86666666666667,373.3333333333333
2308,296.5333333333333,-151.46666666666667,366.93333333333334
2309,285.8666666666667,-157.86666666666667,369.06666666666666
2310,292.26666666666665,-155.73333333333332,369.06666666666666
2311,292.26666666666665,-157.86666666666667,360.5333333333333
2312,290.1333333333333,-155.73333333333332,379.73333333333335
2313,290.1333333333333,-155.73333333333332,366.93333333333334
2314,296.5333333333333,-162.13333333333333,362.6666666666667
2315,290.1333333333333,-155.73333333333332,373.3333333333333
2316,298.6666666666667,-162.13333333333333,369.06666666666666
2317,292.26666666666665,-162.13333333333333,366.93333333333334
2318,290.1333333333333,-155.73333333333332,369.06666666666666
2319,298.6666666666667,-160.0,366.93333333333334
2320,294.4,-162.13333333333333,364.8
2321,296.5333333333333,-160.0,364.8
2322,296.5333333333333,-160.0,371.2
2323,294.4,-162.13333333333333,360.5333333333333
2324,290.1333333333333,-164.26666666666665,356.26666666666665
2325,292.26666666666665,-162.13333333333333,373.3333333333333
2326,290.1333333333333,-164.26666666666665,371.2
2327,285.8666666666667,-160.0,360.5333333333333
2328,296.5333333333333,-166.4,366.93333333333334
2329,292.26666666666665,-164.26666666666665,366.93333333333334
2330,290.1333333333333,-160.0,371.2
2331,292.26666666666665,-162.13333333333333,371.2
2332,292.26666666666665,-166.4,373.3333333333333
2333,290.1333333333333,-162.13333333333333,373.3333333333333
2334,283.73333333333335,-151.46666666666667,375.46666666666664
2335,290.1333333333333,-162.13333333333333,362.6666666666667
2336,296.5333333333333,-160.0,373.3333333333333
2337,290.1333333333333,-160.0,369.06666666666666
2338,294.4,-155.73333333333332,371.2
2339,292.26666666666665,-155.73333333333332,369.06666666666666
2340,285.8666666666667,-153.6,371.2
2341,288.0,-160.0,366.93333333333334
2342,283.73333333333335,-157.86666666666667,360.5333333333333
2343,292.26666666666665,-157.86666666666667,371.2
2344,290.1333333333333,-157.86666666666667,366.93333333333334
2345,288.0,-157.86666666666667,366.93333333333334
2346,279.46666666666664,-157.86666666666667,371.2
2347,285.8666666666667,-164.26666666666665,366.93333333333334
2348,285.8666666666667,-160.0,364.8
2349,283.73333333333335,-162.13333333333333,369.06666666666666
2350,283.73333333333335,-157.86666666666667,373.3333333333333
2351,279.46666666666664,-160.0,366.93333333333334
2352,275.2,-160.0,362.6666666666667
2353,275.2,-157.86666666666667,379.73333333333335
2354,281.6,-162.13333333333333,373.3333333333333
2355,279.46666666666664,-160.0,373.3333333333333
2356,281.6,-164.26666666666665,373.3333333333333
2357,270.93333333333334,-155.73333333333332,379.73333333333335
2358,283.73333333333335,-157.86666666666667,377.6
2359,283.73333333333335,-160.0,371.2
2360,277.3333333333333,-166.4,373.3333333333333
2361,277.3333333333333,-162.13333333333333,366.93333333333334
2362,281.6,-157.86666666666667,371.2
2363,281.6,-170.66666666666666,373.3333333333333
2364,277.3333333333333,-196.26666666666665,407.46666666666664
2365,279.46666666666664,-174.93333333333334,375.46666666666664
2366,275.2,-177.06666666666666,356.26666666666665
2367,279.46666666666664,-179.2,356.26666666666665
2368,279.46666666666664,-179.2,356.26666666666665
2369,277.3333333333333,-183.46666666666667,358.4
2370,281.6,-179.2,364.8
2371,281.6,-183.46666666666667,362.6666666666667
2372,275.2,-187.73333333333332,358.4
2373,277.3333333333333,-185.6,371.2
2374,283.73333333333335,-181.33333333333334,366.93333333333334
2375,277.3333333333333,-181.33333333333334,360.5333333333333
2376,273.06666666666666,-185.6,347.73333333333335
2377,285.8666666666667,-187.73333333333332,364.8
2378,275.2,-185.6,362.6666666666667
2379,273.06666666666666,-198.4,377.6
2380,268.8,-204.8,398.93333333333334
2381,260.26666666666665,-226.13333333333333,413.8666666666667
2382,260.26666666666665,-247.46666666666667,435.2
2383,245.33333333333334,-256.0,424.5333333333333
2384,236.79999999999998,-262.4,405.3333333333333
2385,245.33333333333334,-258.1333333333333,352.0
2386,219.73333333333332,-238.93333333333334,328.5333333333333
2387,234.66666666666666,-234.66666666666666,302.93333333333334
2388,226.13333333333333,-219.73333333333332,298.6666666666667
2389,230.4,-200.53333333333333,273.06666666666666
2390,236.79999999999998,-168.53333333333333,268.8
2391,245.33333333333334,-136.53333333333333,277.3333333333333
2392,256.0,-96.0,283.73333333333335
2393,270.93333333333334,-74.66666666666667,292.26666666666665
2394,273.06666666666666,-51.2,317.8666666666667
2395,283.73333333333335,-53.333333333333336,332.8
2396,288.0,-44.8,354.1333333333333
2397,315.73333333333335,-49.06666666666666,371.2
2398,334.93333333333334,-44.8,375.46666666666664
2399,349.8666666666667,-23.466666666666665,366.93333333333334
2400,375.46666666666664,-29.866666666666667,358.4
2401,386.1333333333333,-23.466666666666665,366.93333333333334
2402,403.2,0.0,388.26666666666665
2403,411.73333333333335,0.0,405.3333333333333
2404,411.73333333333335,6.4,418.1333333333333
2405,409.6,17.066666666666666,424.5333333333333
2406,398.93333333333334,8.533333333333333,426.6666666666667
2407,388.26666666666665,2.1333333333333333,422.4
2408,371.2,-6.4,422.4
2409,371.2,-21.333333333333332,441.59999999999997
2410,354.1333333333333,-38.4,430.93333333333334
2411,352.0,-61.86666666666667,428.8
2412,345.6,-89.6,428.8
2413,341.3333333333333,-108.8,418.1333333333333
2414,337.06666666666666,-123.73333333333333,409.6
2415,322.1333333333333,-125.86666666666666,394.6666666666667
2416,307.2,-132.26666666666665,398.93333333333334
2417,296.5333333333333,-138.66666666666666,394.6666666666667
2418,285.8666666666667,-151.46666666666667,403.2
