,accelerometerAccelerationX(G),accelerometerAccelerationY(G),accelerometerAccelerationZ(G)
0,46.93333333333333,-558.9333333333333,-142.93333333333334
1,49.06666666666666,-556.8,-145.06666666666666
2,61.86666666666667,-558.9333333333333,-136.53333333333333
3,55.46666666666667,-558.9333333333333,-136.53333333333333
4,49.06666666666666,-554.6666666666666,-138.66666666666666
5,55.46666666666667,-569.6,-138.66666666666666
6,59.733333333333334,-554.6666666666666,-140.8
7,49.06666666666666,-554.6666666666666,-138.66666666666666
8,53.333333333333336,-552.5333333333333,-142.93333333333334
9,53.333333333333336,-556.8,-134.4
10,46.93333333333333,-556.8,-134.4
11,55.46666666666667,-556.8,-134.4
12,55.46666666666667,-556.8,-136.53333333333333
13,68.26666666666667,-563.2,-138.66666666666666
14,53.333333333333336,-556.8,-142.93333333333334
15,51.2,-537.6,-138.66666666666666
16,53.333333333333336,-548.2666666666667,-145.06666666666666
17,46.93333333333333,-550.4,-145.06666666666666
18,51.2,-554.6666666666666,-145.06666666666666
19,57.6,-556.8,-140.8
20,51.2,-554.6666666666666,-140.8
21,55.46666666666667,-556.8,-140.8
22,57.6,-556.8,-138.66666666666666
23,55.46666666666667,-554.6666666666666,-138.66666666666666
24,61.86666666666667,-556.8,-136.53333333333333
25,59.733333333333334,-556.8,-134.4
26,55.46666666666667,-552.5333333333333,-136.53333333333333
27,61.86666666666667,-556.8,-142.93333333333334
28,55.46666666666667,-554.6666666666666,-136.53333333333333
29,55.46666666666667,-556.8,-134.4
30,61.86666666666667,-558.9333333333333,-140.8
31,61.86666666666667,-556.8,-147.2
32,57.6,-554.6666666666666,-138.66666666666666
33,53.333333333333336,-556.8,-145.06666666666666
34,66.13333333333333,-558.9333333333333,-134.4
35,55.46666666666667,-554.6666666666666,-136.53333333333333
36,59.733333333333334,-554.6666666666666,-151.46666666666667
37,59.733333333333334,-558.9333333333333,-142.93333333333334
38,64.0,-558.9333333333333,-136.53333333333333
39,59.733333333333334,-554.6666666666666,-140.8
40,55.46666666666667,-552.5333333333333,-138.66666666666666
41,61.86666666666667,-554.6666666666666,-140.8
42,61.86666666666667,-554.6666666666666,-138.66666666666666
43,61.86666666666667,-552.5333333333333,-145.06666666666666
44,64.0,-558.9333333333333,-138.66666666666666
45,61.86666666666667,-556.8,-140.8
46,66.13333333333333,-556.8,-140.8
47,64.0,-546.1333333333333,-140.8
48,68.26666666666667,-561.0666666666666,-138.66666666666666
49,61.86666666666667,-554.6666666666666,-147.2
50,64.0,-552.5333333333333,-140.8
51,64.0,-556.8,-138.66666666666666
52,61.86666666666667,-550.4,-149.33333333333334
53,66.13333333333333,-556.8,-145.06666666666666
54,59.733333333333334,-548.2666666666667,-142.93333333333334
55,61.86666666666667,-554.6666666666666,-142.93333333333334
56,64.0,-561.0666666666666,-140.8
57,59.733333333333334,-554.6666666666666,-145.06666666666666
58,66.13333333333333,-554.6666666666666,-145.06666666666666
59,64.0,-565.3333333333334,-155.73333333333332
60,59.733333333333334,-552.5333333333333,-149.33333333333334
61,64.0,-556.8,-145.06666666666666
62,57.6,-556.8,-142.93333333333334
63,59.733333333333334,-556.8,-142.93333333333334
64,53.333333333333336,-554.6666666666666,-136.53333333333333
65,57.6,-550.4,-138.66666666666666
66,57.6,-552.5333333333333,-142.93333333333334
67,57.6,-561.0666666666666,-142.93333333333334
68,49.06666666666666,-558.9333333333333,-145.06666666666666
69,57.6,-556.8,-134.4
70,68.26666666666667,-565.3333333333334,-134.4
71,55.46666666666667,-558.9333333333333,-138.66666666666666
72,55.46666666666667,-556.8,-140.8
73,51.2,-550.4,-147.2
74,51.2,-556.8,-140.8
75,57.6,-554.6666666666666,-138.66666666666666
76,59.733333333333334,-552.5333333333333,-138.66666666666666
77,59.733333333333334,-556.8,-140.8
78,61.86666666666667,-565.3333333333334,-138.66666666666666
79,59.733333333333334,-550.4,-140.8
80,49.06666666666666,-556.8,-145.06666666666666
81,46.93333333333333,-578.1333333333333,-138.66666666666666
82,59.733333333333334,-558.9333333333333,-145.06666666666666
83,53.333333333333336,-554.6666666666666,-147.2
84,55.46666666666667,-554.6666666666666,-136.53333333333333
85,55.46666666666667,-554.6666666666666,-147.2
86,59.733333333333334,-552.5333333333333,-147.2
87,57.6,-556.8,-138.66666666666666
88,51.2,-556.8,-142.93333333333334
89,59.733333333333334,-558.9333333333333,-142.93333333333334
90,51.2,-554.6666666666666,-142.93333333333334
91,57.6,-554.6666666666666,-145.06666666666666
92,59.733333333333334,-546.1333333333333,-119.46666666666667
93,55.46666666666667,-552.5333333333333,-138.66666666666666
94,53.333333333333336,-556.8,-138.66666666666666
95,53.333333333333336,-552.5333333333333,-142.93333333333334
96,51.2,-558.9333333333333,-136.53333333333333
97,51.2,-556.8,-138.66666666666666
98,53.333333333333336,-550.4,-138.66666666666666
99,53.333333333333336,-550.4,-138.66666666666666
100,51.2,-552.5333333333333,-142.93333333333334
101,55.46666666666667,-558.9333333333333,-145.06666666666666
102,51.2,-550.4,-132.26666666666665
103,53.333333333333336,-552.5333333333333,-149.33333333333334
104,55.46666666666667,-552.5333333333333,-142.93333333333334
105,53.333333333333336,-552.5333333333333,-145.06666666666666
106,53.333333333333336,-554.6666666666666,-140.8
107,59.733333333333334,-554.6666666666666,-145.06666666666666
108,55.46666666666667,-548.2666666666667,-142.93333333333334
109,53.333333333333336,-558.9333333333333,-140.8
110,53.333333333333336,-558.9333333333333,-136.53333333333333
111,55.46666666666667,-554.6666666666666,-140.8
112,61.86666666666667,-558.9333333333333,-134.4
113,42.666666666666664,-548.2666666666667,-140.8
114,57.6,-561.0666666666666,-145.06666666666666
115,55.46666666666667,-552.5333333333333,-138.66666666666666
116,53.333333333333336,-552.5333333333333,-147.2
117,55.46666666666667,-552.5333333333333,-145.06666666666666
118,51.2,-554.6666666666666,-140.8
119,59.733333333333334,-552.5333333333333,-136.53333333333333
120,55.46666666666667,-548.2666666666667,-142.93333333333334
121,55.46666666666667,-554.6666666666666,-147.2
122,57.6,-554.6666666666666,-136.53333333333333
123,55.46666666666667,-552.5333333333333,-153.6
124,64.0,-558.9333333333333,-140.8
125,57.6,-558.9333333333333,-136.53333333333333
126,59.733333333333334,-554.6666666666666,-151.46666666666667
127,55.46666666666667,-554.6666666666666,-138.66666666666666
128,57.6,-552.5333333333333,-136.53333333333333
129,55.46666666666667,-554.6666666666666,-147.2
130,61.86666666666667,-556.8,-142.93333333333334
131,55.46666666666667,-552.5333333333333,-138.66666666666666
132,68.26666666666667,-550.4,-138.66666666666666
133,66.13333333333333,-556.8,-136.53333333333333
134,66.13333333333333,-561.0666666666666,-136.53333333333333
135,68.26666666666667,-565.3333333333334,-147.2
136,61.86666666666667,-563.2,-138.66666666666666
137,59.733333333333334,-554.6666666666666,-136.53333333333333
138,57.6,-552.5333333333333,-142.93333333333334
139,59.733333333333334,-554.6666666666666,-145.06666666666666
140,57.6,-556.8,-140.8
141,55.46666666666667,-548.2666666666667,-145.06666666666666
142,57.6,-558.9333333333333,-138.66666666666666
143,57.6,-561.0666666666666,-138.66666666666666
144,57.6,-561.0666666666666,-134.4
145,53.333333333333336,-556.8,-147.2
146,59.733333333333334,-556.8,-138.66666666666666
147,61.86666666666667,-550.4,-140.8
148,59.733333333333334,-556.8,-138.66666666666666
149,57.6,-550.4,-140.8
150,61.86666666666667,-554.6666666666666,-138.66666666666666
151,55.46666666666667,-552.5333333333333,-138.66666666666666
152,57.6,-558.9333333333333,-136.53333333333333
153,57.6,-552.5333333333333,-136.53333333333333
154,59.733333333333334,-552.5333333333333,-138.66666666666666
155,57.6,-556.8,-142.93333333333334
156,57.6,-554.6666666666666,-138.66666666666666
157,44.8,-565.3333333333334,-151.46666666666667
158,53.333333333333336,-556.8,-138.66666666666666
159,59.733333333333334,-558.9333333333333,-140.8
160,59.733333333333334,-565.3333333333334,-136.53333333333333
161,59.733333333333334,-561.0666666666666,-142.93333333333334
162,57.6,-556.8,-145.06666666666666
163,51.2,-558.9333333333333,-142.93333333333334
164,59.733333333333334,-550.4,-145.06666666666666
165,61.86666666666667,-550.4,-142.93333333333334
166,64.0,-554.6666666666666,-140.8
167,59.733333333333334,-556.8,-138.66666666666666
168,61.86666666666667,-552.5333333333333,-130.13333333333333
169,59.733333333333334,-552.5333333333333,-140.8
170,53.333333333333336,-561.0666666666666,-136.53333333333333
171,55.46666666666667,-554.6666666666666,-134.4
172,53.333333333333336,-552.5333333333333,-140.8
173,53.333333333333336,-556.8,-140.8
174,57.6,-556.8,-134.4
175,49.06666666666666,-558.9333333333333,-130.13333333333333
176,57.6,-552.5333333333333,-134.4
177,46.93333333333333,-554.6666666666666,-136.53333333333333
178,59.733333333333334,-556.8,-123.73333333333333
179,49.06666666666666,-558.9333333333333,-125.86666666666666
180,57.6,-561.0666666666666,-138.66666666666666
181,49.06666666666666,-554.6666666666666,-136.53333333333333
182,51.2,-556.8,-138.66666666666666
183,51.2,-552.5333333333333,-134.4
184,53.333333333333336,-548.2666666666667,-138.66666666666666
185,59.733333333333334,-558.9333333333333,-140.8
186,49.06666666666666,-558.9333333333333,-145.06666666666666
187,57.6,-552.5333333333333,-132.26666666666665
188,51.2,-558.9333333333333,-136.53333333333333
189,59.733333333333334,-554.6666666666666,-130.13333333333333
190,49.06666666666666,-548.2666666666667,-136.53333333333333
191,53.333333333333336,-556.8,-138.66666666666666
192,57.6,-552.5333333333333,-138.66666666666666
193,49.06666666666666,-554.6666666666666,-136.53333333333333
194,55.46666666666667,-554.6666666666666,-138.66666666666666
195,49.06666666666666,-554.6666666666666,-140.8
196,59.733333333333334,-556.8,-130.13333333333333
197,55.46666666666667,-552.5333333333333,-145.06666666666666
198,51.2,-556.8,-140.8
199,55.46666666666667,-554.6666666666666,-138.66666666666666
200,57.6,-552.5333333333333,-142.93333333333334
201,55.46666666666667,-554.6666666666666,-136.53333333333333
202,46.93333333333333,-552.5333333333333,-134.4
203,53.333333333333336,-554.6666666666666,-138.66666666666666
204,53.333333333333336,-554.6666666666666,-140.8
205,51.2,-552.5333333333333,-134.4
206,51.2,-552.5333333333333,-138.66666666666666
207,59.733333333333334,-550.4,-136.53333333333333
208,55.46666666666667,-556.8,-132.26666666666665
209,49.06666666666666,-563.2,-132.26666666666665
210,51.2,-550.4,-138.66666666666666
211,46.93333333333333,-550.4,-128.0
212,57.6,-554.6666666666666,-136.53333333333333
213,51.2,-548.2666666666667,-132.26666666666665
214,51.2,-550.4,-136.53333333333333
215,49.06666666666666,-554.6666666666666,-145.06666666666666
216,57.6,-563.2,-130.13333333333333
217,51.2,-556.8,-138.66666666666666
218,49.06666666666666,-554.6666666666666,-136.53333333333333
219,53.333333333333336,-554.6666666666666,-132.26666666666665
220,53.333333333333336,-563.2,-136.53333333333333
221,55.46666666666667,-556.8,-140.8
222,51.2,-554.6666666666666,-138.66666666666666
223,57.6,-556.8,-140.8
224,57.6,-561.0666666666666,-138.66666666666666
225,57.6,-554.6666666666666,-142.93333333333334
226,57.6,-558.9333333333333,-134.4
227,53.333333333333336,-550.4,-138.66666666666666
228,57.6,-558.9333333333333,-142.93333333333334
229,61.86666666666667,-558.9333333333333,-138.66666666666666
230,55.46666666666667,-550.4,-140.8
231,55.46666666666667,-558.9333333333333,-142.93333333333334
232,57.6,-552.5333333333333,-145.06666666666666
233,53.333333333333336,-563.2,-138.66666666666666
234,59.733333333333334,-554.6666666666666,-142.93333333333334
235,66.13333333333333,-554.6666666666666,-134.4
236,59.733333333333334,-556.8,-138.66666666666666
237,61.86666666666667,-558.9333333333333,-140.8
238,64.0,-563.2,-134.4
239,59.733333333333334,-556.8,-138.66666666666666
240,61.86666666666667,-556.8,-142.93333333333334
241,59.733333333333334,-552.5333333333333,-136.53333333333333
242,64.0,-556.8,-140.8
243,64.0,-563.2,-140.8
244,51.2,-554.6666666666666,-130.13333333333333
245,57.6,-563.2,-140.8
246,59.733333333333334,-554.6666666666666,-136.53333333333333
247,59.733333333333334,-556.8,-138.66666666666666
248,55.46666666666667,-554.6666666666666,-142.93333333333334
249,55.46666666666667,-556.8,-142.93333333333334
250,57.6,-550.4,-134.4
251,53.333333333333336,-554.6666666666666,-136.53333333333333
252,53.333333333333336,-546.1333333333333,-142.93333333333334
253,57.6,-561.0666666666666,-140.8
254,57.6,-561.0666666666666,-140.8
255,51.2,-548.2666666666667,-136.53333333333333
256,57.6,-558.9333333333333,-147.2
257,51.2,-554.6666666666666,-140.8
258,57.6,-556.8,-138.66666666666666
259,55.46666666666667,-554.6666666666666,-140.8
260,55.46666666666667,-554.6666666666666,-147.2
261,57.6,-556.8,-138.66666666666666
262,53.333333333333336,-558.9333333333333,-136.53333333333333
263,61.86666666666667,-556.8,-138.66666666666666
264,53.333333333333336,-550.4,-136.53333333333333
265,61.86666666666667,-558.9333333333333,-140.8
266,57.6,-550.4,-155.73333333333332
267,57.6,-552.5333333333333,-142.93333333333334
268,61.86666666666667,-556.8,-140.8
269,53.333333333333336,-554.6666666666666,-140.8
270,51.2,-550.4,-140.8
271,55.46666666666667,-558.9333333333333,-140.8
272,51.2,-552.5333333333333,-142.93333333333334
273,55.46666666666667,-556.8,-134.4
274,55.46666666666667,-552.5333333333333,-136.53333333333333
275,53.333333333333336,-552.5333333333333,-136.53333333333333
276,51.2,-552.5333333333333,-138.66666666666666
277,51.2,-552.5333333333333,-138.66666666666666
278,57.6,-554.6666666666666,-134.4
279,49.06666666666666,-556.8,-142.93333333333334
280,51.2,-554.6666666666666,-145.06666666666666
281,51.2,-552.5333333333333,-142.93333333333334
282,53.333333333333336,-550.4,-147.2
283,49.06666666666666,-552.5333333333333,-142.93333333333334
284,57.6,-558.9333333333333,-134.4
285,55.46666666666667,-556.8,-138.66666666666666
286,53.333333333333336,-556.8,-155.73333333333332
287,51.2,-550.4,-140.8
288,51.2,-558.9333333333333,-147.2
289,53.333333333333336,-556.8,-145.06666666666666
290,55.46666666666667,-552.5333333333333,-149.33333333333334
291,51.2,-550.4,-151.46666666666667
292,51.2,-556.8,-138.66666666666666
293,53.333333333333336,-550.4,-142.93333333333334
294,59.733333333333334,-558.9333333333333,-138.66666666666666
295,55.46666666666667,-550.4,-142.93333333333334
296,55.46666666666667,-554.6666666666666,-138.66666666666666
297,61.86666666666667,-554.6666666666666,-140.8
298,57.6,-552.5333333333333,-155.73333333333332
299,55.46666666666667,-556.8,-140.8
300,53.333333333333336,-550.4,-140.8
301,57.6,-556.8,-142.93333333333334
302,59.733333333333334,-554.6666666666666,-145.06666666666666
303,59.733333333333334,-561.0666666666666,-142.93333333333334
304,57.6,-554.6666666666666,-136.53333333333333
305,51.2,-548.2666666666667,-145.06666666666666
306,51.2,-554.6666666666666,-153.6
307,51.2,-554.6666666666666,-151.46666666666667
308,57.6,-554.6666666666666,-136.53333333333333
309,46.93333333333333,-565.3333333333334,-151.46666666666667
310,55.46666666666667,-558.9333333333333,-140.8
311,51.2,-552.5333333333333,-142.93333333333334
312,57.6,-556.8,-149.33333333333334
313,51.2,-554.6666666666666,-140.8
314,55.46666666666667,-558.9333333333333,-138.66666666666666
315,53.333333333333336,-554.6666666666666,-142.93333333333334
316,53.333333333333336,-558.9333333333333,-140.8
317,53.333333333333336,-556.8,-138.66666666666666
318,51.2,-561.0666666666666,-147.2
319,51.2,-552.5333333333333,-140.8
320,44.8,-561.0666666666666,-151.46666666666667
321,53.333333333333336,-554.6666666666666,-140.8
322,57.6,-561.0666666666666,-147.2
323,55.46666666666667,-556.8,-142.93333333333334
324,46.93333333333333,-550.4,-147.2
325,49.06666666666666,-550.4,-147.2
326,51.2,-556.8,-155.73333333333332
327,49.06666666666666,-550.4,-140.8
328,55.46666666666667,-561.0666666666666,-147.2
329,49.06666666666666,-552.5333333333333,-145.06666666666666
330,46.93333333333333,-550.4,-147.2
331,68.26666666666667,-546.1333333333333,-142.93333333333334
332,51.2,-556.8,-147.2
333,53.333333333333336,-556.8,-147.2
334,51.2,-552.5333333333333,-147.2
335,59.733333333333334,-558.9333333333333,-151.46666666666667
336,51.2,-556.8,-138.66666666666666
337,55.46666666666667,-554.6666666666666,-145.06666666666666
338,53.333333333333336,-552.5333333333333,-149.33333333333334
339,55.46666666666667,-552.5333333333333,-138.66666666666666
340,51.2,-550.4,-147.2
341,51.2,-550.4,-149.33333333333334
342,59.733333333333334,-548.2666666666667,-145.06666666666666
343,61.86666666666667,-554.6666666666666,-140.8
344,55.46666666666667,-554.6666666666666,-149.33333333333334
345,57.6,-550.4,-145.06666666666666
346,61.86666666666667,-558.9333333333333,-142.93333333333334
347,61.86666666666667,-554.6666666666666,-153.6
348,61.86666666666667,-561.0666666666666,-140.8
349,59.733333333333334,-556.8,-151.46666666666667
350,59.733333333333334,-556.8,-149.33333333333334
351,49.06666666666666,-552.5333333333333,-149.33333333333334
352,53.333333333333336,-554.6666666666666,-140.8
353,55.46666666666667,-548.2666666666667,-149.33333333333334
354,57.6,-554.6666666666666,-142.93333333333334
355,59.733333333333334,-546.1333333333333,-149.33333333333334
356,61.86666666666667,-556.8,-147.2
357,64.0,-550.4,-145.06666666666666
358,61.86666666666667,-552.5333333333333,-145.06666666666666
359,61.86666666666667,-552.5333333333333,-142.93333333333334
360,64.0,-554.6666666666666,-151.46666666666667
361,57.6,-546.1333333333333,-151.46666666666667
362,64.0,-550.4,-149.33333333333334
363,61.86666666666667,-552.5333333333333,-155.73333333333332
364,66.13333333333333,-554.6666666666666,-157.86666666666667
365,61.86666666666667,-554.6666666666666,-134.4
366,57.6,-552.5333333333333,-155.73333333333332
367,61.86666666666667,-556.8,-142.93333333333334
368,61.86666666666667,-558.9333333333333,-149.33333333333334
369,57.6,-550.4,-153.6
370,61.86666666666667,-548.2666666666667,-151.46666666666667
371,59.733333333333334,-554.6666666666666,-155.73333333333332
372,66.13333333333333,-556.8,-151.46666666666667
373,66.13333333333333,-554.6666666666666,-149.33333333333334
374,57.6,-548.2666666666667,-151.46666666666667
375,51.2,-550.4,-151.46666666666667
376,59.733333333333334,-552.5333333333333,-145.06666666666666
377,55.46666666666667,-550.4,-160.0
378,61.86666666666667,-554.6666666666666,-157.86666666666667
379,64.0,-563.2,-149.33333333333334
380,57.6,-552.5333333333333,-155.73333333333332
381,59.733333333333334,-556.8,-151.46666666666667
382,59.733333333333334,-561.0666666666666,-151.46666666666667
383,49.06666666666666,-558.9333333333333,-160.0
384,51.2,-550.4,-157.86666666666667
385,51.2,-552.5333333333333,-164.26666666666665
386,53.333333333333336,-550.4,-151.46666666666667
387,53.333333333333336,-554.6666666666666,-145.06666666666666
388,51.2,-552.5333333333333,-149.33333333333334
389,53.333333333333336,-556.8,-142.93333333333334
390,49.06666666666666,-556.8,-149.33333333333334
391,49.06666666666666,-552.5333333333333,-149.33333333333334
392,49.06666666666666,-556.8,-151.46666666666667
393,49.06666666666666,-554.6666666666666,-151.46666666666667
394,46.93333333333333,-554.6666666666666,-157.86666666666667
395,49.06666666666666,-550.4,-155.73333333333332
396,46.93333333333333,-567.4666666666667,-140.8
397,44.8,-552.5333333333333,-145.06666666666666
398,44.8,-552.5333333333333,-151.46666666666667
399,46.93333333333333,-556.8,-142.93333333333334
400,49.06666666666666,-556.8,-153.6
401,42.666666666666664,-558.9333333333333,-149.33333333333334
402,46.93333333333333,-552.5333333333333,-151.46666666666667
403,44.8,-550.4,-151.46666666666667
404,40.53333333333333,-558.9333333333333,-149.33333333333334
405,42.666666666666664,-554.6666666666666,-151.46666666666667
406,46.93333333333333,-563.2,-151.46666666666667
407,53.333333333333336,-580.2666666666667,-151.46666666666667
408,46.93333333333333,-554.6666666666666,-149.33333333333334
409,53.333333333333336,-565.3333333333334,-162.13333333333333
410,44.8,-558.9333333333333,-149.33333333333334
411,49.06666666666666,-554.6666666666666,-151.46666666666667
412,51.2,-550.4,-151.46666666666667
413,49.06666666666666,-554.6666666666666,-157.86666666666667
414,46.93333333333333,-548.2666666666667,-149.33333333333334
415,57.6,-548.2666666666667,-149.33333333333334
416,51.2,-558.9333333333333,-157.86666666666667
417,40.53333333333333,-550.4,-151.46666666666667
418,36.266666666666666,-567.4666666666667,-160.0
419,55.46666666666667,-558.9333333333333,-151.46666666666667
420,49.06666666666666,-550.4,-149.33333333333334
421,49.06666666666666,-556.8,-147.2
422,44.8,-554.6666666666666,-151.46666666666667
423,46.93333333333333,-558.9333333333333,-155.73333333333332
424,49.06666666666666,-556.8,-153.6
425,44.8,-554.6666666666666,-151.46666666666667
426,49.06666666666666,-552.5333333333333,-147.2
427,44.8,-554.6666666666666,-160.0
428,53.333333333333336,-552.5333333333333,-155.73333333333332
429,44.8,-565.3333333333334,-147.2
430,51.2,-550.4,-162.13333333333333
431,46.93333333333333,-552.5333333333333,-151.46666666666667
432,51.2,-556.8,-147.2
433,44.8,-554.6666666666666,-151.46666666666667
434,44.8,-554.6666666666666,-153.6
435,51.2,-561.0666666666666,-155.73333333333332
436,51.2,-554.6666666666666,-142.93333333333334
437,57.6,-556.8,-157.86666666666667
438,55.46666666666667,-561.0666666666666,-155.73333333333332
439,40.53333333333333,-554.6666666666666,-157.86666666666667
440,57.6,-548.2666666666667,-151.46666666666667
441,46.93333333333333,-550.4,-145.06666666666666
442,46.93333333333333,-550.4,-147.2
443,55.46666666666667,-554.6666666666666,-149.33333333333334
444,46.93333333333333,-552.5333333333333,-151.46666666666667
445,57.6,-556.8,-151.46666666666667
446,51.2,-550.4,-162.13333333333333
447,49.06666666666666,-550.4,-145.06666666666666
448,57.6,-552.5333333333333,-151.46666666666667
449,46.93333333333333,-550.4,-157.86666666666667
450,53.333333333333336,-554.6666666666666,-149.33333333333334
451,42.666666666666664,-550.4,-134.4
452,40.53333333333333,-548.2666666666667,-151.46666666666667
453,44.8,-546.1333333333333,-155.73333333333332
454,49.06666666666666,-548.2666666666667,-145.06666666666666
455,40.53333333333333,-548.2666666666667,-153.6
456,42.666666666666664,-550.4,-157.86666666666667
457,44.8,-552.5333333333333,-151.46666666666667
458,38.4,-548.2666666666667,-160.0
459,44.8,-550.4,-149.33333333333334
460,42.666666666666664,-552.5333333333333,-153.6
461,49.06666666666666,-546.1333333333333,-149.33333333333334
462,34.13333333333333,-548.2666666666667,-140.8
463,55.46666666666667,-552.5333333333333,-149.33333333333334
464,51.2,-550.4,-149.33333333333334
465,53.333333333333336,-548.2666666666667,-151.46666666666667
466,57.6,-548.2666666666667,-142.93333333333334
467,57.6,-552.5333333333333,-157.86666666666667
468,59.733333333333334,-550.4,-142.93333333333334
469,68.26666666666667,-563.2,-145.06666666666666
470,64.0,-552.5333333333333,-155.73333333333332
471,59.733333333333334,-546.1333333333333,-151.46666666666667
472,59.733333333333334,-563.2,-157.86666666666667
473,64.0,-558.9333333333333,-145.06666666666666
474,68.26666666666667,-558.9333333333333,-149.33333333333334
475,66.13333333333333,-556.8,-151.46666666666667
476,66.13333333333333,-561.0666666666666,-157.86666666666667
477,64.0,-558.9333333333333,-157.86666666666667
478,68.26666666666667,-561.0666666666666,-155.73333333333332
479,72.53333333333333,-550.4,-147.2
480,66.13333333333333,-552.5333333333333,-157.86666666666667
481,66.13333333333333,-550.4,-153.6
482,70.4,-556.8,-153.6
483,72.53333333333333,-546.1333333333333,-160.0
484,64.0,-552.5333333333333,-160.0
485,68.26666666666667,-556.8,-151.46666666666667
486,66.13333333333333,-554.6666666666666,-162.13333333333333
487,68.26666666666667,-556.8,-164.26666666666665
488,61.86666666666667,-554.6666666666666,-155.73333333333332
489,66.13333333333333,-558.9333333333333,-164.26666666666665
490,64.0,-550.4,-166.4
491,64.0,-550.4,-155.73333333333332
492,64.0,-558.9333333333333,-155.73333333333332
493,59.733333333333334,-554.6666666666666,-157.86666666666667
494,59.733333333333334,-556.8,-160.0
495,57.6,-546.1333333333333,-166.4
496,53.333333333333336,-556.8,-157.86666666666667
497,53.333333333333336,-552.5333333333333,-168.53333333333333
498,53.333333333333336,-548.2666666666667,-162.13333333333333
499,51.2,-548.2666666666667,-166.4
500,51.2,-556.8,-162.13333333333333
501,61.86666666666667,-554.6666666666666,-172.8
502,51.2,-554.6666666666666,-168.53333333333333
503,59.733333333333334,-554.6666666666666,-160.0
504,55.46666666666667,-556.8,-162.13333333333333
505,36.266666666666666,-544.0,-174.93333333333334
506,49.06666666666666,-554.6666666666666,-164.26666666666665
507,55.46666666666667,-563.2,-166.4
508,53.333333333333336,-558.9333333333333,-153.6
509,55.46666666666667,-552.5333333333333,-162.13333333333333
510,53.333333333333336,-552.5333333333333,-155.73333333333332
511,51.2,-556.8,-160.0
512,51.2,-554.6666666666666,-157.86666666666667
513,55.46666666666667,-550.4,-162.13333333333333
514,55.46666666666667,-558.9333333333333,-157.86666666666667
515,55.46666666666667,-561.0666666666666,-153.6
516,57.6,-546.1333333333333,-160.0
517,55.46666666666667,-552.5333333333333,-149.33333333333334
518,61.86666666666667,-554.6666666666666,-153.6
519,51.2,-548.2666666666667,-155.73333333333332
520,57.6,-550.4,-157.86666666666667
521,55.46666666666667,-554.6666666666666,-151.46666666666667
522,51.2,-556.8,-151.46666666666667
523,59.733333333333334,-552.5333333333333,-153.6
524,53.333333333333336,-556.8,-153.6
525,57.6,-558.9333333333333,-151.46666666666667
526,53.333333333333336,-558.9333333333333,-151.46666666666667
527,53.333333333333336,-554.6666666666666,-123.73333333333333
528,53.333333333333336,-558.9333333333333,-155.73333333333332
529,53.333333333333336,-550.4,-153.6
530,46.93333333333333,-554.6666666666666,-151.46666666666667
531,51.2,-552.5333333333333,-153.6
532,55.46666666666667,-554.6666666666666,-153.6
533,51.2,-554.6666666666666,-151.46666666666667
534,49.06666666666666,-554.6666666666666,-151.46666666666667
535,46.93333333333333,-546.1333333333333,-147.2
536,49.06666666666666,-552.5333333333333,-153.6
537,44.8,-550.4,-153.6
538,49.06666666666666,-554.6666666666666,-164.26666666666665
539,46.93333333333333,-556.8,-142.93333333333334
540,46.93333333333333,-554.6666666666666,-149.33333333333334
541,44.8,-554.6666666666666,-149.33333333333334
542,44.8,-552.5333333333333,-160.0
543,46.93333333333333,-558.9333333333333,-155.73333333333332
544,46.93333333333333,-554.6666666666666,-147.2
545,42.666666666666664,-552.5333333333333,-147.2
546,42.666666666666664,-552.5333333333333,-145.06666666666666
547,51.2,-554.6666666666666,-145.06666666666666
548,49.06666666666666,-558.9333333333333,-142.93333333333334
549,49.06666666666666,-552.5333333333333,-162.13333333333333
550,38.4,-546.1333333333333,-147.2
551,49.06666666666666,-550.4,-145.06666666666666
552,51.2,-552.5333333333333,-145.06666666666666
553,46.93333333333333,-554.6666666666666,-149.33333333333334
554,53.333333333333336,-550.4,-149.33333333333334
555,51.2,-556.8,-147.2
556,49.06666666666666,-548.2666666666667,-140.8
557,49.06666666666666,-552.5333333333333,-147.2
558,42.666666666666664,-552.5333333333333,-147.2
559,55.46666666666667,-556.8,-151.46666666666667
560,51.2,-567.4666666666667,-160.0
561,49.06666666666666,-556.8,-155.73333333333332
562,44.8,-554.6666666666666,-151.46666666666667
563,46.93333333333333,-556.8,-153.6
564,44.8,-552.5333333333333,-149.33333333333334
565,44.8,-556.8,-147.2
566,49.06666666666666,-552.5333333333333,-147.2
567,53.333333333333336,-554.6666666666666,-151.46666666666667
568,51.2,-552.5333333333333,-142.93333333333334
569,49.06666666666666,-548.2666666666667,-142.93333333333334
570,46.93333333333333,-548.2666666666667,-142.93333333333334
571,36.266666666666666,-550.4,-142.93333333333334
572,49.06666666666666,-548.2666666666667,-147.2
573,44.8,-548.2666666666667,-140.8
574,53.333333333333336,-550.4,-149.33333333333334
575,55.46666666666667,-550.4,-140.8
576,57.6,-552.5333333333333,-138.66666666666666
577,46.93333333333333,-548.2666666666667,-145.06666666666666
578,49.06666666666666,-550.4,-147.2
579,49.06666666666666,-554.6666666666666,-147.2
580,44.8,-565.3333333333334,-132.26666666666665
581,42.666666666666664,-567.4666666666667,-142.93333333333334
582,53.333333333333336,-563.2,-145.06666666666666
583,51.2,-565.3333333333334,-149.33333333333334
584,46.93333333333333,-567.4666666666667,-147.2
585,55.46666666666667,-561.0666666666666,-149.33333333333334
586,53.333333333333336,-563.2,-147.2
587,46.93333333333333,-561.0666666666666,-149.33333333333334
588,55.46666666666667,-561.0666666666666,-162.13333333333333
589,59.733333333333334,-563.2,-151.46666666666667
590,51.2,-558.9333333333333,-147.2
591,49.06666666666666,-561.0666666666666,-155.73333333333332
592,53.333333333333336,-552.5333333333333,-153.6
593,55.46666666666667,-554.6666666666666,-153.6
594,55.46666666666667,-548.2666666666667,-153.6
595,49.06666666666666,-550.4,-149.33333333333334
596,44.8,-552.5333333333333,-149.33333333333334
597,53.333333333333336,-552.5333333333333,-149.33333333333334
598,53.333333333333336,-546.1333333333333,-153.6
599,46.93333333333333,-552.5333333333333,-153.6
600,44.8,-546.1333333333333,-149.33333333333334
601,44.8,-550.4,-151.46666666666667
602,44.8,-548.2666666666667,-160.0
603,46.93333333333333,-548.2666666666667,-149.33333333333334
604,40.53333333333333,-550.4,-153.6
605,40.53333333333333,-556.8,-155.73333333333332
606,42.666666666666664,-552.5333333333333,-149.33333333333334
607,40.53333333333333,-554.6666666666666,-153.6
608,38.4,-554.6666666666666,-155.73333333333332
609,36.266666666666666,-548.2666666666667,-149.33333333333334
610,44.8,-558.9333333333333,-142.93333333333334
611,40.53333333333333,-556.8,-151.46666666666667
612,44.8,-552.5333333333333,-149.33333333333334
613,40.53333333333333,-550.4,-153.6
614,42.666666666666664,-558.9333333333333,-153.6
615,32.0,-552.5333333333333,-155.73333333333332
616,38.4,-556.8,-149.33333333333334
617,34.13333333333333,-563.2,-151.46666666666667
618,34.13333333333333,-561.0666666666666,-157.86666666666667
619,38.4,-552.5333333333333,-155.73333333333332
620,36.266666666666666,-550.4,-153.6
621,29.866666666666667,-554.6666666666666,-151.46666666666667
622,32.0,-548.2666666666667,-153.6
623,29.866666666666667,-548.2666666666667,-149.33333333333334
624,32.0,-554.6666666666666,-147.2
625,25.6,-552.5333333333333,-142.93333333333334
626,32.0,-546.1333333333333,-149.33333333333334
627,29.866666666666667,-550.4,-147.2
628,34.13333333333333,-548.2666666666667,-147.2
629,32.0,-550.4,-138.66666666666666
630,36.266666666666666,-548.2666666666667,-147.2
631,32.0,-550.4,-145.06666666666666
632,32.0,-552.5333333333333,-142.93333333333334
633,32.0,-548.2666666666667,-151.46666666666667
634,34.13333333333333,-556.8,-138.66666666666666
635,38.4,-554.6666666666666,-147.2
636,36.266666666666666,-567.4666666666667,-140.8
637,42.666666666666664,-563.2,-151.46666666666667
638,44.8,-561.0666666666666,-149.33333333333334
639,34.13333333333333,-556.8,-151.46666666666667
640,51.2,-550.4,-145.06666666666666
641,46.93333333333333,-554.6666666666666,-145.06666666666666
642,40.53333333333333,-548.2666666666667,-140.8
643,49.06666666666666,-550.4,-138.66666666666666
644,44.8,-550.4,-136.53333333333333
645,49.06666666666666,-554.6666666666666,-142.93333333333334
646,46.93333333333333,-550.4,-142.93333333333334
647,59.733333333333334,-552.5333333333333,-140.8
648,49.06666666666666,-556.8,-145.06666666666666
649,51.2,-550.4,-142.93333333333334
650,44.8,-556.8,-147.2
651,49.06666666666666,-554.6666666666666,-147.2
652,46.93333333333333,-552.5333333333333,-145.06666666666666
653,44.8,-554.6666666666666,-147.2
654,51.2,-554.6666666666666,-151.46666666666667
655,57.6,-552.5333333333333,-147.2
656,55.46666666666667,-552.5333333333333,-140.8
657,61.86666666666667,-556.8,-123.73333333333333
658,57.6,-558.9333333333333,-155.73333333333332
659,53.333333333333336,-554.6666666666666,-151.46666666666667
660,44.8,-552.5333333333333,-153.6
661,51.2,-548.2666666666667,-149.33333333333334
662,57.6,-556.8,-145.06666666666666
663,51.2,-556.8,-164.26666666666665
664,44.8,-550.4,-157.86666666666667
665,51.2,-554.6666666666666,-155.73333333333332
666,46.93333333333333,-552.5333333333333,-153.6
667,59.733333333333334,-550.4,-153.6
668,57.6,-550.4,-138.66666666666666
669,44.8,-550.4,-155.73333333333332
670,46.93333333333333,-552.5333333333333,-157.86666666666667
671,49.06666666666666,-552.5333333333333,-155.73333333333332
672,46.93333333333333,-556.8,-157.86666666666667
673,42.666666666666664,-548.2666666666667,-155.73333333333332
674,46.93333333333333,-554.6666666666666,-160.0
675,53.333333333333336,-552.5333333333333,-160.0
676,44.8,-554.6666666666666,-153.6
677,44.8,-552.5333333333333,-155.73333333333332
678,42.666666666666664,-556.8,-155.73333333333332
679,23.466666666666665,-550.4,-181.33333333333334
680,42.666666666666664,-552.5333333333333,-153.6
681,51.2,-565.3333333333334,-151.46666666666667
682,51.2,-552.5333333333333,-155.73333333333332
683,44.8,-550.4,-155.73333333333332
684,42.666666666666664,-554.6666666666666,-149.33333333333334
685,46.93333333333333,-546.1333333333333,-147.2
686,51.2,-554.6666666666666,-155.73333333333332
687,49.06666666666666,-544.0,-155.73333333333332
688,46.93333333333333,-554.6666666666666,-149.33333333333334
689,51.2,-561.0666666666666,-157.86666666666667
690,61.86666666666667,-558.9333333333333,-149.33333333333334
691,55.46666666666667,-550.4,-149.33333333333334
692,53.333333333333336,-550.4,-157.86666666666667
693,51.2,-552.5333333333333,-151.46666666666667
694,44.8,-548.2666666666667,-147.2
695,51.2,-558.9333333333333,-157.86666666666667
696,42.666666666666664,-554.6666666666666,-153.6
697,51.2,-556.8,-145.06666666666666
698,55.46666666666667,-550.4,-160.0
699,55.46666666666667,-561.0666666666666,-155.73333333333332
700,51.2,-550.4,-145.06666666666666
701,51.2,-552.5333333333333,-151.46666666666667
702,55.46666666666667,-558.9333333333333,-151.46666666666667
703,44.8,-561.0666666666666,-157.86666666666667
704,53.333333333333336,-552.5333333333333,-157.86666666666667
705,49.06666666666666,-550.4,-149.33333333333334
706,53.333333333333336,-552.5333333333333,-151.46666666666667
707,55.46666666666667,-554.6666666666666,-157.86666666666667
708,42.666666666666664,-548.2666666666667,-151.46666666666667
709,51.2,-556.8,-162.13333333333333
710,49.06666666666666,-548.2666666666667,-160.0
711,46.93333333333333,-554.6666666666666,-160.0
712,38.4,-550.4,-153.6
713,27.733333333333334,-556.8,-160.0
714,51.2,-550.4,-162.13333333333333
715,49.06666666666666,-552.5333333333333,-168.53333333333333
716,42.666666666666664,-554.6666666666666,-164.26666666666665
717,44.8,-546.1333333333333,-157.86666666666667
718,42.666666666666664,-548.2666666666667,-164.26666666666665
719,46.93333333333333,-552.5333333333333,-155.73333333333332
720,51.2,-565.3333333333334,-170.66666666666666
721,38.4,-550.4,-168.53333333333333
722,46.93333333333333,-550.4,-164.26666666666665
723,44.8,-552.5333333333333,-153.6
724,46.93333333333333,-550.4,-166.4
725,46.93333333333333,-552.5333333333333,-162.13333333333333
726,44.8,-552.5333333333333,-168.53333333333333
727,44.8,-550.4,-172.8
728,49.06666666666666,-552.5333333333333,-170.66666666666666
729,40.53333333333333,-552.5333333333333,-162.13333333333333
730,55.46666666666667,-554.6666666666666,-164.26666666666665
731,44.8,-554.6666666666666,-166.4
732,44.8,-558.9333333333333,-168.53333333333333
733,40.53333333333333,-554.6666666666666,-172.8
734,42.666666666666664,-563.2,-174.93333333333334
735,44.8,-561.0666666666666,-170.66666666666666
736,44.8,-554.6666666666666,-168.53333333333333
737,46.93333333333333,-554.6666666666666,-172.8
738,42.666666666666664,-548.2666666666667,-164.26666666666665
739,46.93333333333333,-552.5333333333333,-177.06666666666666
740,46.93333333333333,-550.4,-166.4
741,49.06666666666666,-550.4,-172.8
742,40.53333333333333,-548.2666666666667,-170.66666666666666
743,44.8,-550.4,-168.53333333333333
744,49.06666666666666,-550.4,-162.13333333333333
745,51.2,-544.0,-166.4
746,42.666666666666664,-558.9333333333333,-168.53333333333333
747,42.666666666666664,-552.5333333333333,-174.93333333333334
748,40.53333333333333,-550.4,-170.66666666666666
749,42.666666666666664,-552.5333333333333,-174.93333333333334
750,42.666666666666664,-550.4,-183.46666666666667
751,42.666666666666664,-552.5333333333333,-179.2
752,42.666666666666664,-554.6666666666666,-181.33333333333334
753,36.266666666666666,-552.5333333333333,-172.8
754,32.0,-550.4,-168.53333333333333
755,36.266666666666666,-541.8666666666667,-185.6
756,42.666666666666664,-548.2666666666667,-185.6
757,34.13333333333333,-546.1333333333333,-181.33333333333334
758,38.4,-548.2666666666667,-187.73333333333332
759,32.0,-552.5333333333333,-183.46666666666667
760,29.866666666666667,-550.4,-177.06666666666666
761,29.866666666666667,-546.1333333333333,-174.93333333333334
762,42.666666666666664,-558.9333333333333,-172.8
763,34.13333333333333,-552.5333333333333,-185.6
764,34.13333333333333,-544.0,-181.33333333333334
765,27.733333333333334,-550.4,-183.46666666666667
766,29.866666666666667,-556.8,-192.0
767,38.4,-550.4,-179.2
768,32.0,-550.4,-183.46666666666667
769,36.266666666666666,-550.4,-187.73333333333332
770,32.0,-552.5333333333333,-179.2
771,25.6,-548.2666666666667,-183.46666666666667
772,32.0,-550.4,-183.46666666666667
773,34.13333333333333,-552.5333333333333,-185.6
774,40.53333333333333,-550.4,-177.06666666666666
775,34.13333333333333,-554.6666666666666,-181.33333333333334
776,36.266666666666666,-556.8,-181.33333333333334
777,46.93333333333333,-548.2666666666667,-183.46666666666667
778,34.13333333333333,-558.9333333333333,-187.73333333333332
779,29.866666666666667,-548.2666666666667,-183.46666666666667
780,32.0,-552.5333333333333,-187.73333333333332
781,34.13333333333333,-552.5333333333333,-189.86666666666667
782,36.266666666666666,-554.6666666666666,-185.6
783,34.13333333333333,-556.8,-192.0
784,32.0,-552.5333333333333,-189.86666666666667
785,29.866666666666667,-548.2666666666667,-189.86666666666667
786,32.0,-552.5333333333333,-181.33333333333334
787,32.0,-554.6666666666666,-179.2
788,34.13333333333333,-550.4,-177.06666666666666
789,29.866666666666667,-546.1333333333333,-189.86666666666667
790,29.866666666666667,-548.2666666666667,-185.6
791,27.733333333333334,-548.2666666666667,-181.33333333333334
792,29.866666666666667,-550.4,-183.46666666666667
793,36.266666666666666,-548.2666666666667,-185.6
794,34.13333333333333,-546.1333333333333,-189.86666666666667
795,27.733333333333334,-548.2666666666667,-189.86666666666667
796,29.866666666666667,-550.4,-179.2
797,34.13333333333333,-552.5333333333333,-187.73333333333332
798,17.066666666666666,-550.4,-194.13333333333333
799,23.466666666666665,-556.8,-185.6
800,34.13333333333333,-556.8,-177.06666666666666
801,21.333333333333332,-550.4,-181.33333333333334
802,29.866666666666667,-548.2666666666667,-179.2
803,34.13333333333333,-552.5333333333333,-181.33333333333334
804,25.6,-550.4,-181.33333333333334
805,32.0,-550.4,-187.73333333333332
806,32.0,-552.5333333333333,-179.2
807,32.0,-552.5333333333333,-179.2
808,32.0,-550.4,-183.46666666666667
809,29.866666666666667,-550.4,-179.2
810,40.53333333333333,-548.2666666666667,-172.8
811,27.733333333333334,-548.2666666666667,-183.46666666666667
812,29.866666666666667,-548.2666666666667,-179.2
813,32.0,-544.0,-177.06666666666666
814,32.0,-550.4,-172.8
815,34.13333333333333,-548.2666666666667,-177.06666666666666
816,27.733333333333334,-550.4,-181.33333333333334
817,27.733333333333334,-550.4,-177.06666666666666
818,25.6,-550.4,-177.06666666666666
819,38.4,-552.5333333333333,-187.73333333333332
820,32.0,-550.4,-183.46666666666667
821,32.0,-569.6,-174.93333333333334
822,32.0,-550.4,-177.06666666666666
823,29.866666666666667,-548.2666666666667,-174.93333333333334
824,27.733333333333334,-548.2666666666667,-185.6
825,29.866666666666667,-546.1333333333333,-179.2
826,34.13333333333333,-552.5333333333333,-189.86666666666667
827,27.733333333333334,-550.4,-185.6
828,27.733333333333334,-546.1333333333333,-174.93333333333334
829,34.13333333333333,-546.1333333333333,-174.93333333333334
830,34.13333333333333,-548.2666666666667,-185.6
831,27.733333333333334,-546.1333333333333,-189.86666666666667
832,21.333333333333332,-558.9333333333333,-177.06666666666666
833,29.866666666666667,-546.1333333333333,-179.2
834,21.333333333333332,-548.2666666666667,-179.2
835,23.466666666666665,-550.4,-179.2
836,27.733333333333334,-552.5333333333333,-185.6
837,34.13333333333333,-563.2,-172.8
838,25.6,-550.4,-174.93333333333334
839,25.6,-548.2666666666667,-172.8
840,34.13333333333333,-552.5333333333333,-174.93333333333334
841,29.866666666666667,-556.8,-179.2
842,38.4,-556.8,-177.06666666666666
843,38.4,-546.1333333333333,-170.66666666666666
844,42.666666666666664,-544.0,-189.86666666666667
845,42.666666666666664,-541.8666666666667,-189.86666666666667
846,40.53333333333333,-535.4666666666667,-185.6
847,46.93333333333333,-544.0,-194.13333333333333
848,38.4,-541.8666666666667,-192.0
849,42.666666666666664,-541.8666666666667,-196.26666666666665
850,40.53333333333333,-548.2666666666667,-200.53333333333333
851,32.0,-552.5333333333333,-198.4
852,34.13333333333333,-552.5333333333333,-202.66666666666666
853,32.0,-554.6666666666666,-200.53333333333333
854,40.53333333333333,-554.6666666666666,-181.33333333333334
855,32.0,-561.0666666666666,-194.13333333333333
856,36.266666666666666,-556.8,-189.86666666666667
857,36.266666666666666,-558.9333333333333,-196.26666666666665
858,42.666666666666664,-558.9333333333333,-189.86666666666667
859,42.666666666666664,-556.8,-189.86666666666667
860,51.2,-561.0666666666666,-189.86666666666667
861,53.333333333333336,-558.9333333333333,-202.66666666666666
862,57.6,-561.0666666666666,-192.0
863,55.46666666666667,-556.8,-189.86666666666667
864,38.4,-546.1333333333333,-202.66666666666666
865,55.46666666666667,-548.2666666666667,-185.6
866,57.6,-546.1333333333333,-185.6
867,53.333333333333336,-548.2666666666667,-185.6
868,53.333333333333336,-546.1333333333333,-187.73333333333332
869,46.93333333333333,-544.0,-177.06666666666666
870,53.333333333333336,-546.1333333333333,-181.33333333333334
871,51.2,-546.1333333333333,-170.66666666666666
872,51.2,-548.2666666666667,-179.2
873,40.53333333333333,-541.8666666666667,-174.93333333333334
874,51.2,-554.6666666666666,-177.06666666666666
875,59.733333333333334,-546.1333333333333,-183.46666666666667
876,46.93333333333333,-546.1333333333333,-177.06666666666666
877,46.93333333333333,-546.1333333333333,-189.86666666666667
878,51.2,-546.1333333333333,-181.33333333333334
879,49.06666666666666,-548.2666666666667,-179.2
880,40.53333333333333,-546.1333333333333,-179.2
881,42.666666666666664,-550.4,-187.73333333333332
882,42.666666666666664,-548.2666666666667,-174.93333333333334
883,38.4,-548.2666666666667,-179.2
884,34.13333333333333,-550.4,-179.2
885,34.13333333333333,-550.4,-183.46666666666667
886,38.4,-556.8,-189.86666666666667
887,38.4,-556.8,-174.93333333333334
888,40.53333333333333,-554.6666666666666,-185.6
889,29.866666666666667,-548.2666666666667,-177.06666666666666
890,36.266666666666666,-546.1333333333333,-187.73333333333332
891,34.13333333333333,-554.6666666666666,-189.86666666666667
892,40.53333333333333,-548.2666666666667,-177.06666666666666
893,36.266666666666666,-550.4,-189.86666666666667
894,34.13333333333333,-544.0,-179.2
895,36.266666666666666,-550.4,-183.46666666666667
896,42.666666666666664,-550.4,-189.86666666666667
897,42.666666666666664,-554.6666666666666,-189.86666666666667
898,40.53333333333333,-548.2666666666667,-185.6
899,38.4,-552.5333333333333,-183.46666666666667
900,38.4,-550.4,-192.0
901,38.4,-550.4,-189.86666666666667
902,44.8,-550.4,-185.6
903,44.8,-554.6666666666666,-181.33333333333334
904,42.666666666666664,-552.5333333333333,-181.33333333333334
905,34.13333333333333,-546.1333333333333,-177.06666666666666
906,34.13333333333333,-552.5333333333333,-177.06666666666666
907,42.666666666666664,-548.2666666666667,-187.73333333333332
908,44.8,-561.0666666666666,-177.06666666666666
909,38.4,-552.5333333333333,-179.2
910,32.0,-550.4,-187.73333333333332
911,38.4,-550.4,-183.46666666666667
912,34.13333333333333,-554.6666666666666,-181.33333333333334
913,36.266666666666666,-550.4,-183.46666666666667
914,40.53333333333333,-552.5333333333333,-181.33333333333334
915,36.266666666666666,-550.4,-183.46666666666667
916,34.13333333333333,-550.4,-183.46666666666667
917,32.0,-548.2666666666667,-183.46666666666667
918,34.13333333333333,-552.5333333333333,-181.33333333333334
919,25.6,-535.4666666666667,-189.86666666666667
920,36.266666666666666,-548.2666666666667,-181.33333333333334
921,38.4,-548.2666666666667,-185.6
922,36.266666666666666,-546.1333333333333,-189.86666666666667
923,34.13333333333333,-546.1333333333333,-183.46666666666667
924,34.13333333333333,-546.1333333333333,-174.93333333333334
925,34.13333333333333,-550.4,-168.53333333333333
926,36.266666666666666,-548.2666666666667,-172.8
927,38.4,-546.1333333333333,-168.53333333333333
928,38.4,-546.1333333333333,-177.06666666666666
929,36.266666666666666,-546.1333333333333,-179.2
930,42.666666666666664,-548.2666666666667,-166.4
931,40.53333333333333,-548.2666666666667,-172.8
932,42.666666666666664,-548.2666666666667,-177.06666666666666
933,40.53333333333333,-548.2666666666667,-177.06666666666666
934,44.8,-550.4,-179.2
935,38.4,-550.4,-168.53333333333333
936,42.666666666666664,-548.2666666666667,-177.06666666666666
937,44.8,-548.2666666666667,-172.8
938,46.93333333333333,-550.4,-172.8
939,36.266666666666666,-561.0666666666666,-177.06666666666666
940,40.53333333333333,-556.8,-179.2
941,42.666666666666664,-546.1333333333333,-174.93333333333334
942,44.8,-552.5333333333333,-177.06666666666666
943,40.53333333333333,-550.4,-172.8
944,49.06666666666666,-556.8,-166.4
945,44.8,-550.4,-168.53333333333333
946,51.2,-556.8,-172.8
947,44.8,-550.4,-174.93333333333334
948,44.8,-552.5333333333333,-172.8
949,34.13333333333333,-546.1333333333333,-174.93333333333334
950,40.53333333333333,-548.2666666666667,-174.93333333333334
951,44.8,-550.4,-160.0
952,44.8,-556.8,-185.6
953,46.93333333333333,-548.2666666666667,-170.66666666666666
954,36.266666666666666,-548.2666666666667,-168.53333333333333
955,46.93333333333333,-550.4,-164.26666666666665
956,42.666666666666664,-548.2666666666667,-174.93333333333334
957,36.266666666666666,-548.2666666666667,-172.8
958,40.53333333333333,-548.2666666666667,-174.93333333333334
959,38.4,-548.2666666666667,-174.93333333333334
960,32.0,-546.1333333333333,-187.73333333333332
961,40.53333333333333,-544.0,-183.46666666666667
962,40.53333333333333,-546.1333333333333,-172.8
963,42.666666666666664,-548.2666666666667,-185.6
964,40.53333333333333,-548.2666666666667,-183.46666666666667
965,44.8,-548.2666666666667,-181.33333333333334
966,42.666666666666664,-548.2666666666667,-183.46666666666667
967,40.53333333333333,-546.1333333333333,-181.33333333333334
968,40.53333333333333,-550.4,-179.2
969,38.4,-546.1333333333333,-187.73333333333332
970,34.13333333333333,-546.1333333333333,-181.33333333333334
971,40.53333333333333,-552.5333333333333,-187.73333333333332
972,44.8,-552.5333333333333,-170.66666666666666
973,29.866666666666667,-550.4,-168.53333333333333
974,42.666666666666664,-552.5333333333333,-177.06666666666666
975,32.0,-552.5333333333333,-174.93333333333334
976,36.266666666666666,-552.5333333333333,-189.86666666666667
977,42.666666666666664,-550.4,-181.33333333333334
978,36.266666666666666,-548.2666666666667,-174.93333333333334
979,32.0,-550.4,-179.2
980,40.53333333333333,-552.5333333333333,-181.33333333333334
981,40.53333333333333,-556.8,-179.2
982,40.53333333333333,-550.4,-177.06666666666666
983,36.266666666666666,-546.1333333333333,-174.93333333333334
984,34.13333333333333,-548.2666666666667,-183.46666666666667
985,42.666666666666664,-548.2666666666667,-181.33333333333334
986,44.8,-550.4,-179.2
987,40.53333333333333,-548.2666666666667,-177.06666666666666
988,40.53333333333333,-550.4,-187.73333333333332
989,42.666666666666664,-546.1333333333333,-181.33333333333334
990,42.666666666666664,-554.6666666666666,-185.6
991,44.8,-552.5333333333333,-170.66666666666666
992,44.8,-552.5333333333333,-177.06666666666666
993,36.266666666666666,-554.6666666666666,-174.93333333333334
994,40.53333333333333,-550.4,-179.2
995,42.666666666666664,-550.4,-170.66666666666666
996,42.666666666666664,-550.4,-179.2
997,40.53333333333333,-548.2666666666667,-181.33333333333334
998,42.666666666666664,-550.4,-177.06666666666666
999,44.8,-550.4,-185.6
1000,42.666666666666664,-550.4,-181.33333333333334
1001,55.46666666666667,-552.5333333333333,-179.2
1002,46.93333333333333,-550.4,-181.33333333333334
1003,55.46666666666667,-558.9333333333333,-181.33333333333334
1004,51.2,-554.6666666666666,-183.46666666666667
1005,40.53333333333333,-546.1333333333333,-181.33333333333334
1006,49.06666666666666,-552.5333333333333,-183.46666666666667
1007,44.8,-552.5333333333333,-174.93333333333334
1008,46.93333333333333,-554.6666666666666,-170.66666666666666
1009,46.93333333333333,-552.5333333333333,-177.06666666666666
1010,46.93333333333333,-554.6666666666666,-179.2
1011,46.93333333333333,-546.1333333333333,-179.2
1012,46.93333333333333,-550.4,-172.8
1013,46.93333333333333,-552.5333333333333,-183.46666666666667
1014,49.06666666666666,-552.5333333333333,-177.06666666666666
1015,49.06666666666666,-552.5333333333333,-177.06666666666666
1016,44.8,-552.5333333333333,-172.8
1017,38.4,-552.5333333333333,-183.46666666666667
1018,51.2,-556.8,-179.2
1019,49.06666666666666,-548.2666666666667,-177.06666666666666
1020,44.8,-554.6666666666666,-168.53333333333333
1021,42.666666666666664,-544.0,-187.73333333333332
1022,44.8,-558.9333333333333,-177.06666666666666
1023,42.666666666666664,-552.5333333333333,-172.8
1024,44.8,-552.5333333333333,-177.06666666666666
1025,46.93333333333333,-550.4,-174.93333333333334
1026,38.4,-554.6666666666666,-181.33333333333334
1027,44.8,-554.6666666666666,-179.2
1028,44.8,-550.4,-174.93333333333334
1029,40.53333333333333,-546.1333333333333,-172.8
1030,42.666666666666664,-550.4,-172.8
1031,38.4,-554.6666666666666,-172.8
1032,36.266666666666666,-554.6666666666666,-168.53333333333333
1033,36.266666666666666,-554.6666666666666,-172.8
1034,38.4,-550.4,-170.66666666666666
1035,38.4,-558.9333333333333,-181.33333333333334
1036,36.266666666666666,-552.5333333333333,-183.46666666666667
1037,36.266666666666666,-548.2666666666667,-172.8
1038,38.4,-563.2,-177.06666666666666
1039,36.266666666666666,-552.5333333333333,-181.33333333333334
1040,38.4,-554.6666666666666,-172.8
1041,36.266666666666666,-554.6666666666666,-174.93333333333334
1042,38.4,-554.6666666666666,-174.93333333333334
1043,42.666666666666664,-552.5333333333333,-172.8
1044,42.666666666666664,-556.8,-177.06666666666666
1045,38.4,-550.4,-174.93333333333334
1046,38.4,-552.5333333333333,-170.66666666666666
1047,40.53333333333333,-556.8,-174.93333333333334
1048,34.13333333333333,-548.2666666666667,-174.93333333333334
1049,38.4,-554.6666666666666,-172.8
1050,38.4,-550.4,-177.06666666666666
1051,44.8,-552.5333333333333,-177.06666666666666
1052,40.53333333333333,-554.6666666666666,-177.06666666666666
1053,42.666666666666664,-552.5333333333333,-174.93333333333334
1054,44.8,-556.8,-179.2
1055,40.53333333333333,-556.8,-168.53333333333333
1056,40.53333333333333,-558.9333333333333,-168.53333333333333
1057,46.93333333333333,-554.6666666666666,-179.2
1058,42.666666666666664,-563.2,-166.4
1059,40.53333333333333,-565.3333333333334,-174.93333333333334
1060,40.53333333333333,-565.3333333333334,-172.8
1061,40.53333333333333,-561.0666666666666,-164.26666666666665
1062,38.4,-563.2,-174.93333333333334
1063,40.53333333333333,-565.3333333333334,-177.06666666666666
1064,40.53333333333333,-567.4666666666667,-177.06666666666666
1065,36.266666666666666,-567.4666666666667,-177.06666666666666
1066,38.4,-565.3333333333334,-172.8
1067,36.266666666666666,-561.0666666666666,-179.2
1068,42.666666666666664,-554.6666666666666,-170.66666666666666
1069,49.06666666666666,-563.2,-166.4
1070,40.53333333333333,-548.2666666666667,-174.93333333333334
1071,36.266666666666666,-550.4,-174.93333333333334
1072,36.266666666666666,-544.0,-168.53333333333333
1073,40.53333333333333,-548.2666666666667,-160.0
1074,38.4,-544.0,-168.53333333333333
1075,44.8,-546.1333333333333,-155.73333333333332
1076,40.53333333333333,-550.4,-160.0
1077,46.93333333333333,-550.4,-160.0
1078,38.4,-546.1333333333333,-151.46666666666667
1079,42.666666666666664,-550.4,-147.2
1080,44.8,-546.1333333333333,-145.06666666666666
1081,46.93333333333333,-550.4,-151.46666666666667
1082,34.13333333333333,-554.6666666666666,-162.13333333333333
1083,42.666666666666664,-548.2666666666667,-157.86666666666667
1084,42.666666666666664,-552.5333333333333,-160.0
1085,44.8,-554.6666666666666,-155.73333333333332
1086,38.4,-548.2666666666667,-151.46666666666667
1087,42.666666666666664,-552.5333333333333,-160.0
1088,40.53333333333333,-554.6666666666666,-155.73333333333332
1089,38.4,-556.8,-155.73333333333332
1090,44.8,-563.2,-162.13333333333333
1091,44.8,-561.0666666666666,-151.46666666666667
1092,44.8,-554.6666666666666,-151.46666666666667
1093,36.266666666666666,-558.9333333333333,-177.06666666666666
1094,42.666666666666664,-561.0666666666666,-149.33333333333334
1095,44.8,-561.0666666666666,-160.0
1096,42.666666666666664,-561.0666666666666,-155.73333333333332
1097,46.93333333333333,-558.9333333333333,-151.46666666666667
1098,42.666666666666664,-558.9333333333333,-149.33333333333334
1099,44.8,-565.3333333333334,-142.93333333333334
1100,40.53333333333333,-556.8,-136.53333333333333
1101,49.06666666666666,-558.9333333333333,-142.93333333333334
1102,40.53333333333333,-550.4,-149.33333333333334
1103,38.4,-556.8,-136.53333333333333
1104,38.4,-544.0,-145.06666666666666
1105,42.666666666666664,-550.4,-140.8
1106,42.666666666666664,-561.0666666666666,-136.53333333333333
1107,42.666666666666664,-556.8,-142.93333333333334
1108,46.93333333333333,-558.9333333333333,-136.53333333333333
1109,42.666666666666664,-554.6666666666666,-138.66666666666666
1110,46.93333333333333,-554.6666666666666,-134.4
1111,51.2,-563.2,-145.06666666666666
1112,38.4,-567.4666666666667,-140.8
1113,49.06666666666666,-565.3333333333334,-132.26666666666665
1114,38.4,-578.1333333333333,-119.46666666666667
1115,46.93333333333333,-569.6,-128.0
1116,38.4,-576.0,-136.53333333333333
1117,38.4,-571.7333333333333,-134.4
1118,40.53333333333333,-561.0666666666666,-128.0
1119,34.13333333333333,-558.9333333333333,-134.4
1120,38.4,-550.4,-123.73333333333333
1121,34.13333333333333,-548.2666666666667,-123.73333333333333
1122,32.0,-546.1333333333333,-119.46666666666667
1123,34.13333333333333,-535.4666666666667,-123.73333333333333
1124,42.666666666666664,-529.0666666666666,-110.93333333333334
1125,36.266666666666666,-533.3333333333334,-121.6
1126,34.13333333333333,-529.0666666666666,-117.33333333333333
1127,44.8,-529.0666666666666,-115.2
1128,42.666666666666664,-524.8,-110.93333333333334
1129,46.93333333333333,-535.4666666666667,-110.93333333333334
1130,49.06666666666666,-539.7333333333333,-110.93333333333334
1131,49.06666666666666,-533.3333333333334,-113.06666666666666
1132,51.2,-544.0,-102.4
1133,53.333333333333336,-544.0,-100.26666666666667
1134,55.46666666666667,-548.2666666666667,-108.8
1135,57.6,-550.4,-115.2
1136,55.46666666666667,-556.8,-102.4
1137,57.6,-561.0666666666666,-104.53333333333333
1138,53.333333333333336,-554.6666666666666,-96.0
1139,55.46666666666667,-561.0666666666666,-96.0
1140,53.333333333333336,-563.2,-87.46666666666667
1141,61.86666666666667,-563.2,-93.86666666666666
1142,55.46666666666667,-552.5333333333333,-96.0
1143,61.86666666666667,-558.9333333333333,-91.73333333333333
1144,70.4,-554.6666666666666,-93.86666666666666
1145,66.13333333333333,-554.6666666666666,-76.8
1146,68.26666666666667,-554.6666666666666,-87.46666666666667
1147,55.46666666666667,-541.8666666666667,-87.46666666666667
1148,66.13333333333333,-544.0,-93.86666666666666
1149,74.66666666666667,-548.2666666666667,-85.33333333333333
1150,68.26666666666667,-546.1333333333333,-85.33333333333333
1151,61.86666666666667,-546.1333333333333,-91.73333333333333
1152,68.26666666666667,-546.1333333333333,-93.86666666666666
1153,68.26666666666667,-544.0,-91.73333333333333
1154,72.53333333333333,-546.1333333333333,-100.26666666666667
1155,76.8,-550.4,-96.0
1156,72.53333333333333,-546.1333333333333,-96.0
1157,78.93333333333334,-541.8666666666667,-89.6
1158,87.46666666666667,-554.6666666666666,-108.8
1159,83.2,-550.4,-98.13333333333333
1160,81.06666666666666,-552.5333333333333,-106.66666666666667
1161,78.93333333333334,-546.1333333333333,-102.4
1162,78.93333333333334,-548.2666666666667,-115.2
1163,76.8,-556.8,-110.93333333333334
1164,72.53333333333333,-548.2666666666667,-110.93333333333334
1165,70.4,-552.5333333333333,-104.53333333333333
1166,64.0,-548.2666666666667,-104.53333333333333
1167,61.86666666666667,-554.6666666666666,-108.8
1168,66.13333333333333,-554.6666666666666,-117.33333333333333
1169,61.86666666666667,-550.4,-132.26666666666665
1170,64.0,-550.4,-115.2
1171,64.0,-556.8,-108.8
1172,66.13333333333333,-561.0666666666666,-106.66666666666667
1173,64.0,-552.5333333333333,-113.06666666666666
1174,64.0,-548.2666666666667,-117.33333333333333
1175,66.13333333333333,-552.5333333333333,-113.06666666666666
1176,74.66666666666667,-554.6666666666666,-115.2
1177,72.53333333333333,-550.4,-115.2
1178,76.8,-544.0,-106.66666666666667
1179,76.8,-546.1333333333333,-110.93333333333334
1180,74.66666666666667,-556.8,-96.0
1181,72.53333333333333,-548.2666666666667,-108.8
1182,72.53333333333333,-546.1333333333333,-108.8
1183,72.53333333333333,-546.1333333333333,-106.66666666666667
1184,78.93333333333334,-550.4,-117.33333333333333
1185,78.93333333333334,-546.1333333333333,-102.4
1186,74.66666666666667,-544.0,-106.66666666666667
1187,76.8,-544.0,-104.53333333333333
1188,70.4,-546.1333333333333,-96.0
1189,76.8,-548.2666666666667,-104.53333333333333
1190,66.13333333333333,-548.2666666666667,-113.06666666666666
1191,64.0,-548.2666666666667,-98.13333333333333
1192,72.53333333333333,-544.0,-117.33333333333333
1193,68.26666666666667,-546.1333333333333,-113.06666666666666
1194,66.13333333333333,-546.1333333333333,-117.33333333333333
1195,68.26666666666667,-544.0,-115.2
1196,64.0,-548.2666666666667,-128.0
1197,61.86666666666667,-541.8666666666667,-121.6
1198,61.86666666666667,-544.0,-123.73333333333333
1199,53.333333333333336,-541.8666666666667,-115.2
1200,61.86666666666667,-546.1333333333333,-128.0
1201,49.06666666666666,-546.1333333333333,-123.73333333333333
1202,42.666666666666664,-544.0,-123.73333333333333
1203,46.93333333333333,-544.0,-123.73333333333333
1204,34.13333333333333,-539.7333333333333,-125.86666666666666
1205,34.13333333333333,-537.6,-134.4
1206,51.2,-541.8666666666667,-138.66666666666666
1207,57.6,-535.4666666666667,-142.93333333333334
1208,68.26666666666667,-539.7333333333333,-147.2
1209,66.13333333333333,-535.4666666666667,-138.66666666666666
1210,66.13333333333333,-539.7333333333333,-138.66666666666666
1211,66.13333333333333,-546.1333333333333,-149.33333333333334
1212,53.333333333333336,-550.4,-147.2
1213,57.6,-541.8666666666667,-138.66666666666666
1214,53.333333333333336,-541.8666666666667,-136.53333333333333
1215,55.46666666666667,-548.2666666666667,-134.4
1216,53.333333333333336,-544.0,-132.26666666666665
1217,53.333333333333336,-546.1333333333333,-138.66666666666666
1218,51.2,-544.0,-149.33333333333334
1219,57.6,-541.8666666666667,-151.46666666666667
1220,59.733333333333334,-550.4,-138.66666666666666
1221,64.0,-548.2666666666667,-157.86666666666667
1222,61.86666666666667,-548.2666666666667,-166.4
1223,57.6,-539.7333333333333,-151.46666666666667
1224,64.0,-541.8666666666667,-162.13333333333333
1225,57.6,-535.4666666666667,-174.93333333333334
1226,59.733333333333334,-533.3333333333334,-181.33333333333334
1227,57.6,-529.0666666666666,-187.73333333333332
1228,55.46666666666667,-535.4666666666667,-194.13333333333333
1229,51.2,-535.4666666666667,-198.4
1230,44.8,-529.0666666666666,-206.93333333333334
1231,51.2,-537.6,-209.06666666666666
1232,44.8,-537.6,-230.4
1233,40.53333333333333,-541.8666666666667,-230.4
1234,29.866666666666667,-544.0,-245.33333333333334
1235,27.733333333333334,-548.2666666666667,-245.33333333333334
1236,27.733333333333334,-552.5333333333333,-245.33333333333334
1237,25.6,-552.5333333333333,-247.46666666666667
1238,29.866666666666667,-565.3333333333334,-247.46666666666667
1239,27.733333333333334,-573.8666666666667,-247.46666666666667
1240,17.066666666666666,-576.0,-260.26666666666665
1241,17.066666666666666,-578.1333333333333,-258.1333333333333
1242,14.933333333333334,-580.2666666666667,-268.8
1243,6.4,-563.2,-266.6666666666667
1244,19.2,-565.3333333333334,-273.06666666666666
1245,34.13333333333333,-552.5333333333333,-266.6666666666667
1246,21.333333333333332,-546.1333333333333,-273.06666666666666
1247,17.066666666666666,-537.6,-262.4
1248,25.6,-533.3333333333334,-258.1333333333333
1249,23.466666666666665,-522.6666666666666,-249.6
1250,29.866666666666667,-526.9333333333333,-245.33333333333334
1251,32.0,-520.5333333333333,-243.2
1252,29.866666666666667,-529.0666666666666,-243.2
1253,34.13333333333333,-526.9333333333333,-245.33333333333334
1254,38.4,-529.0666666666666,-253.86666666666667
1255,49.06666666666666,-516.2666666666667,-264.5333333333333
1256,42.666666666666664,-546.1333333333333,-251.73333333333332
1257,55.46666666666667,-546.1333333333333,-270.93333333333334
1258,53.333333333333336,-552.5333333333333,-275.2
1259,57.6,-554.6666666666666,-281.6
1260,46.93333333333333,-552.5333333333333,-292.26666666666665
1261,44.8,-556.8,-294.4
1262,38.4,-554.6666666666666,-315.73333333333335
1263,51.2,-554.6666666666666,-315.73333333333335
1264,29.866666666666667,-546.1333333333333,-330.6666666666667
1265,21.333333333333332,-539.7333333333333,-330.6666666666667
1266,25.6,-544.0,-324.26666666666665
1267,29.866666666666667,-533.3333333333334,-356.26666666666665
1268,38.4,-544.0,-364.8
1269,51.2,-529.0666666666666,-375.46666666666664
1270,23.466666666666665,-539.7333333333333,-377.6
1271,25.6,-537.6,-384.0
1272,8.533333333333333,-531.2,-381.8666666666667
1273,21.333333333333332,-518.4,-375.46666666666664
1274,70.4,-503.46666666666664,-405.3333333333333
1275,29.866666666666667,-524.8,-386.1333333333333
1276,12.8,-518.4,-392.5333333333333
1277,17.066666666666666,-512.0,-394.6666666666667
1278,29.866666666666667,-524.8,-403.2
1279,32.0,-524.8,-407.46666666666664
1280,23.466666666666665,-531.2,-418.1333333333333
1281,32.0,-531.2,-430.93333333333334
1282,27.733333333333334,-529.0666666666666,-445.8666666666667
1283,27.733333333333334,-529.0666666666666,-456.5333333333333
1284,19.2,-520.5333333333333,-467.2
1285,21.333333333333332,-518.4,-467.2
1286,19.2,-531.2,-475.73333333333335
1287,32.0,-535.4666666666667,-482.1333333333333
1288,21.333333333333332,-529.0666666666666,-486.4
1289,19.2,-522.6666666666666,-486.4
1290,10.666666666666666,-520.5333333333333,-499.2
1291,14.933333333333334,-522.6666666666666,-488.5333333333333
1292,17.066666666666666,-505.59999999999997,-490.6666666666667
1293,10.666666666666666,-501.3333333333333,-497.06666666666666
1294,8.533333333333333,-509.8666666666667,-480.0
1295,-4.266666666666667,-507.73333333333335,-465.06666666666666
1296,-10.666666666666666,-499.2,-467.2
1297,-17.066666666666666,-486.4,-477.8666666666667
1298,-25.6,-475.73333333333335,-469.3333333333333
1299,-34.13333333333333,-480.0,-462.93333333333334
1300,-34.13333333333333,-486.4,-465.06666666666666
1301,-36.266666666666666,-480.0,-462.93333333333334
1302,-32.0,-482.1333333333333,-469.3333333333333
1303,-29.866666666666667,-482.1333333333333,-473.59999999999997
1304,-27.733333333333334,-477.8666666666667,-482.1333333333333
1305,-8.533333333333333,-477.8666666666667,-469.3333333333333
1306,-2.1333333333333333,-475.73333333333335,-480.0
1307,-14.933333333333334,-467.2,-490.6666666666667
1308,0.0,-484.26666666666665,-494.93333333333334
1309,4.266666666666667,-477.8666666666667,-503.46666666666664
1310,0.0,-482.1333333333333,-494.93333333333334
1311,17.066666666666666,-471.46666666666664,-505.59999999999997
1312,14.933333333333334,-462.93333333333334,-516.2666666666667
1313,17.066666666666666,-473.59999999999997,-518.4
1314,25.6,-465.06666666666666,-524.8
1315,25.6,-456.5333333333333,-518.4
1316,25.6,-452.26666666666665,-522.6666666666666
1317,29.866666666666667,-448.0,-522.6666666666666
1318,17.066666666666666,-443.73333333333335,-522.6666666666666
1319,19.2,-430.93333333333334,-537.6
1320,19.2,-428.8,-533.3333333333334
1321,19.2,-428.8,-539.7333333333333
1322,17.066666666666666,-424.5333333333333,-529.0666666666666
1323,14.933333333333334,-428.8,-535.4666666666667
1324,17.066666666666666,-430.93333333333334,-546.1333333333333
1325,19.2,-435.2,-537.6
1326,27.733333333333334,-430.93333333333334,-546.1333333333333
1327,32.0,-428.8,-539.7333333333333
1328,25.6,-443.73333333333335,-529.0666666666666
1329,25.6,-448.0,-539.7333333333333
1330,23.466666666666665,-454.4,-531.2
1331,21.333333333333332,-450.1333333333333,-526.9333333333333
1332,19.2,-458.6666666666667,-520.5333333333333
1333,19.2,-465.06666666666666,-505.59999999999997
1334,8.533333333333333,-467.2,-505.59999999999997
1335,14.933333333333334,-465.06666666666666,-509.8666666666667
1336,4.266666666666667,-443.73333333333335,-501.3333333333333
1337,0.0,-443.73333333333335,-501.3333333333333
1338,-4.266666666666667,-430.93333333333334,-516.2666666666667
1339,-4.266666666666667,-435.2,-499.2
1340,-6.4,-424.5333333333333,-501.3333333333333
1341,-14.933333333333334,-422.4,-494.93333333333334
1342,-19.2,-428.8,-486.4
1343,-19.2,-416.0,-482.1333333333333
1344,-19.2,-424.5333333333333,-484.26666666666665
1345,-23.466666666666665,-416.0,-480.0
1346,-19.2,-411.73333333333335,-480.0
1347,-14.933333333333334,-407.46666666666664,-490.6666666666667
1348,-17.066666666666666,-401.06666666666666,-484.26666666666665
1349,-8.533333333333333,-398.93333333333334,-471.46666666666664
1350,-6.4,-392.5333333333333,-477.8666666666667
1351,-4.266666666666667,-394.6666666666667,-475.73333333333335
1352,0.0,-377.6,-473.59999999999997
1353,0.0,-364.8,-482.1333333333333
1354,2.1333333333333333,-354.1333333333333,-477.8666666666667
1355,2.1333333333333333,-356.26666666666665,-456.5333333333333
1356,8.533333333333333,-358.4,-467.2
1357,4.266666666666667,-352.0,-477.8666666666667
1358,8.533333333333333,-347.73333333333335,-465.06666666666666
1359,14.933333333333334,-343.46666666666664,-462.93333333333334
1360,12.8,-347.73333333333335,-467.2
1361,19.2,-341.3333333333333,-460.8
1362,14.933333333333334,-330.6666666666667,-462.93333333333334
1363,14.933333333333334,-328.5333333333333,-462.93333333333334
1364,19.2,-326.4,-462.93333333333334
1365,12.8,-317.8666666666667,-467.2
1366,14.933333333333334,-313.6,-471.46666666666664
1367,10.666666666666666,-309.3333333333333,-471.46666666666664
1368,14.933333333333334,-313.6,-477.8666666666667
1369,14.933333333333334,-309.3333333333333,-482.1333333333333
1370,10.666666666666666,-300.8,-484.26666666666665
1371,19.2,-296.5333333333333,-484.26666666666665
1372,17.066666666666666,-285.8666666666667,-484.26666666666665
1373,14.933333333333334,-292.26666666666665,-490.6666666666667
1374,17.066666666666666,-294.4,-499.2
1375,8.533333333333333,-285.8666666666667,-494.93333333333334
1376,12.8,-283.73333333333335,-484.26666666666665
1377,14.933333333333334,-283.73333333333335,-484.26666666666665
1378,14.933333333333334,-279.46666666666664,-477.8666666666667
1379,10.666666666666666,-270.93333333333334,-490.6666666666667
1380,10.666666666666666,-270.93333333333334,-486.4
1381,21.333333333333332,-268.8,-490.6666666666667
1382,14.933333333333334,-258.1333333333333,-475.73333333333335
1383,21.333333333333332,-264.5333333333333,-494.93333333333334
1384,25.6,-260.26666666666665,-494.93333333333334
1385,29.866666666666667,-264.5333333333333,-486.4
1386,23.466666666666665,-262.4,-484.26666666666665
1387,25.6,-264.5333333333333,-490.6666666666667
1388,32.0,-262.4,-492.8
1389,34.13333333333333,-268.8,-488.5333333333333
1390,40.53333333333333,-264.5333333333333,-488.5333333333333
1391,42.666666666666664,-264.5333333333333,-499.2
1392,53.333333333333336,-256.0,-497.06666666666666
1393,49.06666666666666,-251.73333333333332,-492.8
1394,57.6,-262.4,-484.26666666666665
1395,53.333333333333336,-251.73333333333332,-488.5333333333333
1396,55.46666666666667,-249.6,-488.5333333333333
1397,57.6,-236.79999999999998,-499.2
1398,51.2,-243.2,-492.8
1399,55.46666666666667,-247.46666666666667,-492.8
1400,51.2,-238.93333333333334,-499.2
1401,44.8,-226.13333333333333,-494.93333333333334
1402,49.06666666666666,-228.26666666666665,-494.93333333333334
1403,40.53333333333333,-219.73333333333332,-501.3333333333333
1404,49.06666666666666,-221.86666666666667,-497.06666666666666
1405,55.46666666666667,-215.46666666666667,-505.59999999999997
1406,51.2,-215.46666666666667,-505.59999999999997
1407,61.86666666666667,-206.93333333333334,-509.8666666666667
1408,49.06666666666666,-206.93333333333334,-501.3333333333333
1409,59.733333333333334,-230.4,-505.59999999999997
1410,44.8,-217.6,-518.4
1411,51.2,-211.2,-512.0
1412,49.06666666666666,-215.46666666666667,-514.1333333333333
1413,49.06666666666666,-224.0,-518.4
1414,49.06666666666666,-217.6,-520.5333333333333
1415,49.06666666666666,-219.73333333333332,-522.6666666666666
1416,53.333333333333336,-226.13333333333333,-529.0666666666666
1417,42.666666666666664,-224.0,-537.6
1418,57.6,-226.13333333333333,-539.7333333333333
1419,46.93333333333333,-230.4,-535.4666666666667
1420,51.2,-219.73333333333332,-537.6
1421,49.06666666666666,-234.66666666666666,-535.4666666666667
1422,42.666666666666664,-238.93333333333334,-529.0666666666666
1423,44.8,-236.79999999999998,-541.8666666666667
1424,46.93333333333333,-236.79999999999998,-539.7333333333333
1425,49.06666666666666,-241.06666666666666,-544.0
1426,49.06666666666666,-238.93333333333334,-531.2
1427,53.333333333333336,-247.46666666666667,-539.7333333333333
1428,46.93333333333333,-236.79999999999998,-541.8666666666667
1429,61.86666666666667,-238.93333333333334,-539.7333333333333
1430,61.86666666666667,-241.06666666666666,-539.7333333333333
1431,61.86666666666667,-238.93333333333334,-537.6
1432,55.46666666666667,-241.06666666666666,-533.3333333333334
1433,59.733333333333334,-236.79999999999998,-533.3333333333334
1434,61.86666666666667,-236.79999999999998,-537.6
1435,57.6,-243.2,-526.9333333333333
1436,61.86666666666667,-243.2,-526.9333333333333
1437,55.46666666666667,-236.79999999999998,-531.2
1438,61.86666666666667,-236.79999999999998,-535.4666666666667
1439,64.0,-241.06666666666666,-533.3333333333334
1440,51.2,-234.66666666666666,-524.8
1441,53.333333333333336,-236.79999999999998,-531.2
1442,55.46666666666667,-245.33333333333334,-533.3333333333334
1443,53.333333333333336,-238.93333333333334,-522.6666666666666
1444,51.2,-236.79999999999998,-531.2
1445,53.333333333333336,-241.06666666666666,-533.3333333333334
1446,51.2,-243.2,-529.0666666666666
1447,53.333333333333336,-247.46666666666667,-518.4
1448,55.46666666666667,-238.93333333333334,-522.6666666666666
1449,57.6,-238.93333333333334,-522.6666666666666
1450,51.2,-232.53333333333333,-514.1333333333333
1451,51.2,-228.26666666666665,-516.2666666666667
1452,53.333333333333336,-238.93333333333334,-505.59999999999997
1453,66.13333333333333,-234.66666666666666,-505.59999999999997
1454,68.26666666666667,-238.93333333333334,-509.8666666666667
1455,57.6,-232.53333333333333,-512.0
1456,72.53333333333333,-238.93333333333334,-514.1333333333333
1457,68.26666666666667,-241.06666666666666,-499.2
1458,66.13333333333333,-247.46666666666667,-494.93333333333334
1459,61.86666666666667,-245.33333333333334,-492.8
1460,64.0,-249.6,-488.5333333333333
1461,64.0,-247.46666666666667,-475.73333333333335
1462,38.4,-247.46666666666667,-480.0
1463,51.2,-245.33333333333334,-473.59999999999997
1464,55.46666666666667,-251.73333333333332,-475.73333333333335
1465,42.666666666666664,-238.93333333333334,-462.93333333333334
1466,42.666666666666664,-241.06666666666666,-477.8666666666667
1467,40.53333333333333,-234.66666666666666,-467.2
1468,34.13333333333333,-230.4,-467.2
1469,36.266666666666666,-224.0,-469.3333333333333
1470,32.0,-224.0,-462.93333333333334
1471,27.733333333333334,-219.73333333333332,-456.5333333333333
1472,23.466666666666665,-211.2,-450.1333333333333
1473,19.2,-204.8,-426.6666666666667
1474,21.333333333333332,-204.8,-428.8
1475,32.0,-189.86666666666667,-426.6666666666667
1476,29.866666666666667,-177.06666666666666,-422.4
1477,29.866666666666667,-170.66666666666666,-422.4
1478,29.866666666666667,-164.26666666666665,-420.26666666666665
1479,23.466666666666665,-160.0,-418.1333333333333
1480,14.933333333333334,-170.66666666666666,-420.26666666666665
1481,10.666666666666666,-164.26666666666665,-422.4
1482,14.933333333333334,-168.53333333333333,-422.4
1483,0.0,-168.53333333333333,-430.93333333333334
1484,-4.266666666666667,-155.73333333333332,-433.06666666666666
1485,-6.4,-198.4,-426.6666666666667
1486,-19.2,-217.6,-424.5333333333333
1487,-23.466666666666665,-213.33333333333334,-437.3333333333333
1488,-34.13333333333333,-200.53333333333333,-428.8
1489,-46.93333333333333,-202.66666666666666,-428.8
1490,-38.4,-200.53333333333333,-418.1333333333333
1491,-38.4,-194.13333333333333,-420.26666666666665
1492,-49.06666666666666,-187.73333333333332,-426.6666666666667
1493,-49.06666666666666,-181.33333333333334,-426.6666666666667
1494,-51.2,-192.0,-437.3333333333333
1495,-55.46666666666667,-198.4,-422.4
1496,-44.8,-185.6,-435.2
1497,-46.93333333333333,-183.46666666666667,-426.6666666666667
1498,-42.666666666666664,-166.4,-424.5333333333333
1499,-42.666666666666664,-174.93333333333334,-420.26666666666665
1500,-36.266666666666666,-172.8,-424.5333333333333
1501,-44.8,-172.8,-424.5333333333333
1502,-36.266666666666666,-189.86666666666667,-416.0
1503,-23.466666666666665,-187.73333333333332,-409.6
1504,-6.4,-196.26666666666665,-401.06666666666666
1505,4.266666666666667,-196.26666666666665,-403.2
1506,8.533333333333333,-200.53333333333333,-381.8666666666667
1507,23.466666666666665,-202.66666666666666,-377.6
1508,36.266666666666666,-209.06666666666666,-369.06666666666666
1509,49.06666666666666,-228.26666666666665,-371.2
1510,61.86666666666667,-249.6,-334.93333333333334
1511,83.2,-230.4,-396.8
1512,53.333333333333336,-234.66666666666666,-388.26666666666665
1513,32.0,-279.46666666666664,-435.2
1514,19.2,-275.2,-435.2
1515,25.6,-279.46666666666664,-456.5333333333333
1516,34.13333333333333,-262.4,-424.5333333333333
1517,44.8,-221.86666666666667,-435.2
1518,93.86666666666666,-273.06666666666666,-458.6666666666667
1519,49.06666666666666,-198.4,-462.93333333333334
1520,23.466666666666665,-290.1333333333333,-452.26666666666665
1521,4.266666666666667,-264.5333333333333,-467.2
1522,-19.2,-290.1333333333333,-462.93333333333334
1523,83.2,-130.13333333333333,-369.06666666666666
1524,14.933333333333334,-200.53333333333333,-441.59999999999997
1525,17.066666666666666,-211.2,-494.93333333333334
1526,0.0,-262.4,-445.8666666666667
1527,-6.4,-226.13333333333333,-445.8666666666667
1528,46.93333333333333,-160.0,-332.8
1529,46.93333333333333,-194.13333333333333,-462.93333333333334
1530,19.2,-217.6,-448.0
1531,21.333333333333332,-209.06666666666666,-413.8666666666667
1532,14.933333333333334,-236.79999999999998,-469.3333333333333
1533,0.0,-228.26666666666665,-435.2
1534,-14.933333333333334,-230.4,-390.4
1535,4.266666666666667,-185.6,-480.0
1536,-10.666666666666666,-232.53333333333333,-448.0
1537,-29.866666666666667,-249.6,-439.46666666666664
1538,-49.06666666666666,-196.26666666666665,-469.3333333333333
1539,-64.0,-194.13333333333333,-452.26666666666665
1540,-59.733333333333334,-164.26666666666665,-448.0
1541,-70.4,-162.13333333333333,-452.26666666666665
1542,-74.66666666666667,-185.6,-443.73333333333335
1543,-85.33333333333333,-211.2,-469.3333333333333
1544,-85.33333333333333,-228.26666666666665,-467.2
1545,-100.26666666666667,-232.53333333333333,-458.6666666666667
1546,-98.13333333333333,-238.93333333333334,-480.0
1547,-113.06666666666666,-253.86666666666667,-480.0
1548,-121.6,-249.6,-507.73333333333335
1549,-125.86666666666666,-251.73333333333332,-539.7333333333333
1550,-140.8,-279.46666666666664,-550.4
1551,-138.66666666666666,-294.4,-558.9333333333333
1552,-145.06666666666666,-302.93333333333334,-556.8
1553,-155.73333333333332,-305.06666666666666,-573.8666666666667
1554,-162.13333333333333,-324.26666666666665,-556.8
1555,-179.2,-309.3333333333333,-561.0666666666666
1556,-166.4,-302.93333333333334,-558.9333333333333
1557,-157.86666666666667,-281.6,-546.1333333333333
1558,-147.2,-285.8666666666667,-539.7333333333333
1559,-160.0,-294.4,-548.2666666666667
1560,-192.0,-322.1333333333333,-548.2666666666667
1561,-177.06666666666666,-354.1333333333333,-524.8
1562,-217.6,-324.26666666666665,-578.1333333333333
1563,-213.33333333333334,-302.93333333333334,-569.6
1564,-221.86666666666667,-300.8,-573.8666666666667
1565,-245.33333333333334,-281.6,-556.8
1566,-279.46666666666664,-283.73333333333335,-544.0
1567,-285.8666666666667,-302.93333333333334,-529.0666666666666
1568,-322.1333333333333,-296.5333333333333,-529.0666666666666
1569,-311.46666666666664,-298.6666666666667,-541.8666666666667
1570,-309.3333333333333,-294.4,-558.9333333333333
1571,-313.6,-307.2,-558.9333333333333
1572,-309.3333333333333,-322.1333333333333,-544.0
1573,-296.5333333333333,-334.93333333333334,-554.6666666666666
1574,-334.93333333333334,-317.8666666666667,-544.0
1575,-379.73333333333335,-275.2,-554.6666666666666
1576,-381.8666666666667,-260.26666666666665,-548.2666666666667
1577,-349.8666666666667,-262.4,-526.9333333333333
1578,-352.0,-230.4,-509.8666666666667
1579,-354.1333333333333,-232.53333333333333,-507.73333333333335
1580,-403.2,-192.0,-512.0
1581,-488.5333333333333,-134.4,-535.4666666666667
1582,-533.3333333333334,-119.46666666666667,-486.4
1583,-618.6666666666666,-96.0,-494.93333333333334
1584,-699.7333333333333,-78.93333333333334,-531.2
1585,-834.1333333333333,-51.2,-563.2
1586,-992.0,-34.13333333333333,-588.8
1587,-1030.4,-29.866666666666667,-659.2
1588,-974.9333333333333,-61.86666666666667,-731.7333333333333
1589,-957.8666666666667,-110.93333333333334,-742.4
1590,-1038.9333333333334,-157.86666666666667,-725.3333333333334
1591,-1166.9333333333334,-215.46666666666667,-708.2666666666667
1592,-1361.0666666666666,-277.3333333333333,-635.7333333333333
1593,-1585.0666666666666,-377.6,-652.8
1594,-1757.8666666666666,-450.1333333333333,-588.8
1595,-1969.0666666666666,-590.9333333333333,-580.2666666666667
1596,-2137.6,-714.6666666666666,-537.6
1597,-2075.733333333333,-825.6,-569.6
1598,-1988.2666666666667,-979.1999999999999,-488.5333333333333
1599,-1011.1999999999999,-1051.7333333333333,-347.73333333333335
1600,-471.46666666666664,-885.3333333333334,-296.5333333333333
1601,-59.733333333333334,-763.7333333333333,-219.73333333333332
1602,174.93333333333334,-629.3333333333334,-170.66666666666666
1603,245.33333333333334,-445.8666666666667,-119.46666666666667
1604,196.26666666666665,-279.46666666666664,-34.13333333333333
1605,-10.666666666666666,-108.8,4.266666666666667
1606,-153.6,19.2,51.2
1607,-270.93333333333334,136.53333333333333,27.733333333333334
1608,-349.8666666666667,196.26666666666665,29.866666666666667
1609,-403.2,183.46666666666667,49.06666666666666
1610,-452.26666666666665,108.8,93.86666666666666
1611,-514.1333333333333,8.533333333333333,155.73333333333332
1612,-550.4,-57.6,168.53333333333333
1613,-554.6666666666666,-128.0,160.0
1614,-512.0,-147.2,98.13333333333333
1615,-503.46666666666664,-166.4,87.46666666666667
1616,-443.73333333333335,-170.66666666666666,66.13333333333333
1617,-426.6666666666667,-181.33333333333334,68.26666666666667
1618,-422.4,-187.73333333333332,59.733333333333334
1619,-420.26666666666665,-162.13333333333333,70.4
1620,-354.1333333333333,-140.8,64.0
1621,-332.8,-91.73333333333333,44.8
1622,-294.4,-64.0,64.0
1623,-247.46666666666667,-21.333333333333332,44.8
1624,-202.66666666666666,-4.266666666666667,59.733333333333334
1625,-172.8,6.4,83.2
1626,-160.0,36.266666666666666,81.06666666666666
1627,-200.53333333333333,55.46666666666667,108.8
1628,-245.33333333333334,81.06666666666666,119.46666666666667
1629,-296.5333333333333,81.06666666666666,153.6
1630,-364.8,89.6,200.53333333333333
1631,-403.2,74.66666666666667,236.79999999999998
1632,-418.1333333333333,55.46666666666667,264.5333333333333
1633,-437.3333333333333,53.333333333333336,292.26666666666665
1634,-448.0,53.333333333333336,298.6666666666667
1635,-460.8,74.66666666666667,296.5333333333333
1636,-454.4,113.06666666666666,311.46666666666664
1637,-458.6666666666667,155.73333333333332,305.06666666666666
1638,-492.8,217.6,320.0
1639,-520.5333333333333,273.06666666666666,313.6
1640,-520.5333333333333,324.26666666666665,290.1333333333333
1641,-482.1333333333333,386.1333333333333,273.06666666666666
1642,-452.26666666666665,420.26666666666665,258.1333333333333
1643,-465.06666666666666,439.46666666666664,253.86666666666667
1644,-490.6666666666667,443.73333333333335,260.26666666666665
1645,-509.8666666666667,422.4,285.8666666666667
1646,-509.8666666666667,392.5333333333333,307.2
1647,-507.73333333333335,356.26666666666665,343.46666666666664
1648,-471.46666666666664,326.4,352.0
1649,-433.06666666666666,296.5333333333333,356.26666666666665
1650,-443.73333333333335,292.26666666666665,354.1333333333333
1651,-405.3333333333333,279.46666666666664,326.4
1652,-407.46666666666664,275.2,302.93333333333334
1653,-392.5333333333333,264.5333333333333,264.5333333333333
1654,-364.8,234.66666666666666,241.06666666666666
1655,-369.06666666666666,209.06666666666666,206.93333333333334
1656,-381.8666666666667,198.4,189.86666666666667
1657,-373.3333333333333,151.46666666666667,172.8
1658,-360.5333333333333,136.53333333333333,168.53333333333333
1659,-356.26666666666665,132.26666666666665,162.13333333333333
1660,-352.0,106.66666666666667,181.33333333333334
1661,-360.5333333333333,102.4,179.2
1662,-375.46666666666664,98.13333333333333,192.0
1663,-392.5333333333333,106.66666666666667,185.6
1664,-405.3333333333333,123.73333333333333,209.06666666666666
1665,-388.26666666666665,100.26666666666667,226.13333333333333
1666,-388.26666666666665,104.53333333333333,228.26666666666665
1667,-379.73333333333335,125.86666666666666,219.73333333333332
1668,-386.1333333333333,134.4,234.66666666666666
1669,-394.6666666666667,140.8,247.46666666666667
1670,-394.6666666666667,140.8,256.0
1671,-388.26666666666665,140.8,266.6666666666667
1672,-386.1333333333333,142.93333333333334,266.6666666666667
1673,-375.46666666666664,151.46666666666667,270.93333333333334
1674,-379.73333333333335,151.46666666666667,268.8
1675,-379.73333333333335,145.06666666666666,268.8
1676,-381.8666666666667,128.0,273.06666666666666
1677,-379.73333333333335,110.93333333333334,251.73333333333332
1678,-398.93333333333334,91.73333333333333,238.93333333333334
1679,-416.0,81.06666666666666,232.53333333333333
1680,-416.0,76.8,215.46666666666667
1681,-422.4,61.86666666666667,202.66666666666666
1682,-426.6666666666667,61.86666666666667,187.73333333333332
1683,-416.0,55.46666666666667,172.8
1684,-428.8,64.0,147.2
1685,-420.26666666666665,70.4,147.2
1686,-420.26666666666665,81.06666666666666,145.06666666666666
1687,-422.4,91.73333333333333,136.53333333333333
1688,-433.06666666666666,102.4,123.73333333333333
1689,-443.73333333333335,119.46666666666667,115.2
1690,-448.0,128.0,113.06666666666666
1691,-458.6666666666667,136.53333333333333,104.53333333333333
1692,-492.8,145.06666666666666,106.66666666666667
1693,-507.73333333333335,155.73333333333332,98.13333333333333
1694,-533.3333333333334,168.53333333333333,93.86666666666666
1695,-537.6,168.53333333333333,74.66666666666667
1696,-563.2,189.86666666666667,68.26666666666667
1697,-561.0666666666666,183.46666666666667,44.8
1698,-554.6666666666666,181.33333333333334,46.93333333333333
1699,-569.6,179.2,25.6
1700,-571.7333333333333,174.93333333333334,17.066666666666666
1701,-571.7333333333333,174.93333333333334,8.533333333333333
1702,-586.6666666666666,168.53333333333333,2.1333333333333333
1703,-595.2,153.6,4.266666666666667
1704,-608.0,151.46666666666667,0.0
1705,-586.6666666666666,151.46666666666667,-23.466666666666665
1706,-590.9333333333333,142.93333333333334,2.1333333333333333
1707,-595.2,130.13333333333333,-12.8
1708,-586.6666666666666,132.26666666666665,-14.933333333333334
1709,-597.3333333333334,132.26666666666665,-21.333333333333332
1710,-582.4,119.46666666666667,-23.466666666666665
1711,-576.0,115.2,-27.733333333333334
1712,-561.0666666666666,121.6,-38.4
1713,-558.9333333333333,117.33333333333333,-32.0
1714,-552.5333333333333,110.93333333333334,-21.333333333333332
1715,-546.1333333333333,115.2,-17.066666666666666
1716,-546.1333333333333,123.73333333333333,-12.8
1717,-539.7333333333333,123.73333333333333,0.0
1718,-537.6,128.0,-6.4
1719,-539.7333333333333,125.86666666666666,-10.666666666666666
1720,-526.9333333333333,113.06666666666666,4.266666666666667
1721,-537.6,119.46666666666667,-12.8
1722,-522.6666666666666,102.4,-12.8
1723,-518.4,93.86666666666666,-10.666666666666666
1724,-520.5333333333333,76.8,-4.266666666666667
1725,-518.4,70.4,0.0
1726,-516.2666666666667,55.46666666666667,2.1333333333333333
1727,-509.8666666666667,53.333333333333336,10.666666666666666
1728,-512.0,40.53333333333333,2.1333333333333333
1729,-514.1333333333333,29.866666666666667,19.2
1730,-514.1333333333333,36.266666666666666,21.333333333333332
1731,-514.1333333333333,8.533333333333333,8.533333333333333
1732,-518.4,4.266666666666667,17.066666666666666
1733,-509.8666666666667,2.1333333333333333,10.666666666666666
1734,-514.1333333333333,6.4,12.8
1735,-516.2666666666667,-6.4,23.466666666666665
1736,-514.1333333333333,-2.1333333333333333,25.6
1737,-518.4,0.0,14.933333333333334
1738,-518.4,0.0,21.333333333333332
1739,-516.2666666666667,0.0,21.333333333333332
1740,-529.0666666666666,6.4,14.933333333333334
1741,-518.4,2.1333333333333333,21.333333333333332
1742,-518.4,4.266666666666667,38.4
1743,-520.5333333333333,0.0,27.733333333333334
1744,-526.9333333333333,4.266666666666667,21.333333333333332
1745,-520.5333333333333,-2.1333333333333333,23.466666666666665
1746,-522.6666666666666,0.0,19.2
1747,-520.5333333333333,-8.533333333333333,21.333333333333332
1748,-524.8,0.0,27.733333333333334
1749,-520.5333333333333,-10.666666666666666,27.733333333333334
1750,-522.6666666666666,-12.8,19.2
1751,-514.1333333333333,-6.4,32.0
1752,-512.0,4.266666666666667,21.333333333333332
1753,-501.3333333333333,-2.1333333333333333,27.733333333333334
1754,-505.59999999999997,2.1333333333333333,40.53333333333333
1755,-503.46666666666664,0.0,38.4
1756,-501.3333333333333,2.1333333333333333,42.666666666666664
1757,-486.4,6.4,44.8
1758,-497.06666666666666,0.0,51.2
1759,-499.2,6.4,70.4
1760,-488.5333333333333,0.0,70.4
1761,-490.6666666666667,4.266666666666667,70.4
1762,-484.26666666666665,14.933333333333334,78.93333333333334
1763,-473.59999999999997,2.1333333333333333,83.2
1764,-477.8666666666667,14.933333333333334,87.46666666666667
1765,-467.2,2.1333333333333333,91.73333333333333
1766,-469.3333333333333,12.8,87.46666666666667
1767,-467.2,17.066666666666666,89.6
1768,-465.06666666666666,19.2,96.0
1769,-450.1333333333333,12.8,85.33333333333333
1770,-456.5333333333333,10.666666666666666,91.73333333333333
1771,-475.73333333333335,19.2,121.6
1772,-482.1333333333333,23.466666666666665,125.86666666666666
1773,-475.73333333333335,23.466666666666665,125.86666666666666
1774,-473.59999999999997,21.333333333333332,123.73333333333333
1775,-473.59999999999997,23.466666666666665,130.13333333333333
1776,-473.59999999999997,25.6,119.46666666666667
1777,-469.3333333333333,21.333333333333332,121.6
1778,-467.2,23.466666666666665,130.13333333333333
1779,-475.73333333333335,25.6,121.6
1780,-467.2,14.933333333333334,132.26666666666665
1781,-462.93333333333334,8.533333333333333,128.0
1782,-471.46666666666664,14.933333333333334,115.2
1783,-465.06666666666666,17.066666666666666,130.13333333333333
1784,-475.73333333333335,17.066666666666666,119.46666666666667
1785,-460.8,19.2,125.86666666666666
1786,-454.4,14.933333333333334,130.13333333333333
1787,-450.1333333333333,12.8,125.86666666666666
1788,-454.4,17.066666666666666,134.4
1789,-456.5333333333333,19.2,128.0
1790,-458.6666666666667,21.333333333333332,132.26666666666665
1791,-460.8,25.6,132.26666666666665
1792,-460.8,21.333333333333332,132.26666666666665
1793,-465.06666666666666,29.866666666666667,136.53333333333333
1794,-448.0,21.333333333333332,134.4
1795,-458.6666666666667,19.2,155.73333333333332
1796,-465.06666666666666,21.333333333333332,136.53333333333333
1797,-465.06666666666666,21.333333333333332,136.53333333333333
1798,-460.8,17.066666666666666,130.13333333333333
1799,-467.2,27.733333333333334,130.13333333333333
1800,-465.06666666666666,21.333333333333332,134.4
1801,-460.8,17.066666666666666,136.53333333333333
1802,-462.93333333333334,12.8,132.26666666666665
1803,-471.46666666666664,14.933333333333334,121.6
1804,-469.3333333333333,14.933333333333334,119.46666666666667
1805,-471.46666666666664,12.8,119.46666666666667
1806,-477.8666666666667,12.8,132.26666666666665
1807,-480.0,21.333333333333332,113.06666666666666
1808,-480.0,25.6,115.2
1809,-477.8666666666667,19.2,115.2
1810,-477.8666666666667,19.2,100.26666666666667
1811,-482.1333333333333,19.2,100.26666666666667
1812,-488.5333333333333,32.0,96.0
1813,-488.5333333333333,23.466666666666665,96.0
1814,-490.6666666666667,32.0,89.6
1815,-494.93333333333334,27.733333333333334,89.6
1816,-492.8,32.0,91.73333333333333
1817,-501.3333333333333,34.13333333333333,76.8
1818,-488.5333333333333,32.0,76.8
1819,-494.93333333333334,32.0,78.93333333333334
1820,-494.93333333333334,42.666666666666664,76.8
1821,-499.2,38.4,81.06666666666666
1822,-501.3333333333333,38.4,72.53333333333333
1823,-499.2,42.666666666666664,78.93333333333334
1824,-503.46666666666664,38.4,81.06666666666666
1825,-501.3333333333333,44.8,74.66666666666667
1826,-503.46666666666664,36.266666666666666,72.53333333333333
1827,-499.2,53.333333333333336,74.66666666666667
1828,-514.1333333333333,51.2,66.13333333333333
1829,-503.46666666666664,53.333333333333336,76.8
1830,-503.46666666666664,49.06666666666666,76.8
1831,-509.8666666666667,53.333333333333336,76.8
1832,-507.73333333333335,53.333333333333336,78.93333333333334
1833,-507.73333333333335,61.86666666666667,76.8
1834,-514.1333333333333,53.333333333333336,70.4
1835,-505.59999999999997,51.2,72.53333333333333
1836,-505.59999999999997,57.6,72.53333333333333
1837,-503.46666666666664,57.6,81.06666666666666
1838,-501.3333333333333,51.2,76.8
1839,-509.8666666666667,51.2,85.33333333333333
1840,-499.2,51.2,74.66666666666667
1841,-497.06666666666666,49.06666666666666,81.06666666666666
1842,-499.2,51.2,89.6
1843,-503.46666666666664,53.333333333333336,78.93333333333334
1844,-497.06666666666666,46.93333333333333,85.33333333333333
1845,-497.06666666666666,46.93333333333333,78.93333333333334
1846,-492.8,40.53333333333333,89.6
1847,-492.8,42.666666666666664,102.4
1848,-490.6666666666667,46.93333333333333,68.26666666666667
1849,-490.6666666666667,42.666666666666664,87.46666666666667
1850,-490.6666666666667,46.93333333333333,76.8
1851,-499.2,46.93333333333333,87.46666666666667
1852,-499.2,44.8,93.86666666666666
1853,-497.06666666666666,42.666666666666664,98.13333333333333
1854,-497.06666666666666,44.8,98.13333333333333
1855,-492.8,49.06666666666666,96.0
1856,-488.5333333333333,40.53333333333333,98.13333333333333
1857,-490.6666666666667,40.53333333333333,96.0
1858,-499.2,51.2,96.0
1859,-486.4,42.666666666666664,102.4
1860,-482.1333333333333,32.0,93.86666666666666
1861,-486.4,44.8,100.26666666666667
1862,-488.5333333333333,38.4,96.0
1863,-490.6666666666667,36.266666666666666,96.0
1864,-486.4,42.666666666666664,96.0
1865,-480.0,36.266666666666666,93.86666666666666
1866,-480.0,38.4,93.86666666666666
1867,-486.4,34.13333333333333,106.66666666666667
1868,-492.8,42.666666666666664,98.13333333333333
1869,-484.26666666666665,38.4,91.73333333333333
1870,-486.4,34.13333333333333,96.0
1871,-484.26666666666665,36.266666666666666,119.46666666666667
1872,-486.4,42.666666666666664,102.4
1873,-492.8,42.666666666666664,98.13333333333333
1874,-490.6666666666667,38.4,93.86666666666666
1875,-486.4,38.4,91.73333333333333
1876,-488.5333333333333,36.266666666666666,89.6
1877,-486.4,36.266666666666666,93.86666666666666
1878,-482.1333333333333,44.8,100.26666666666667
1879,-482.1333333333333,40.53333333333333,100.26666666666667
1880,-480.0,34.13333333333333,89.6
1881,-484.26666666666665,34.13333333333333,100.26666666666667
1882,-486.4,32.0,98.13333333333333
1883,-477.8666666666667,40.53333333333333,102.4
1884,-462.93333333333334,29.866666666666667,93.86666666666666
1885,-416.0,36.266666666666666,57.6
1886,-477.8666666666667,32.0,81.06666666666666
1887,-541.8666666666667,23.466666666666665,106.66666666666667
1888,-524.8,34.13333333333333,119.46666666666667
1889,-499.2,42.666666666666664,110.93333333333334
1890,-484.26666666666665,40.53333333333333,108.8
1891,-480.0,49.06666666666666,100.26666666666667
1892,-488.5333333333333,49.06666666666666,102.4
1893,-507.73333333333335,53.333333333333336,83.2
1894,-480.0,40.53333333333333,96.0
1895,-488.5333333333333,42.666666666666664,93.86666666666666
1896,-490.6666666666667,34.13333333333333,89.6
1897,-488.5333333333333,36.266666666666666,93.86666666666666
1898,-480.0,34.13333333333333,93.86666666666666
1899,-488.5333333333333,38.4,91.73333333333333
1900,-486.4,44.8,93.86666666666666
1901,-486.4,44.8,85.33333333333333
1902,-488.5333333333333,42.666666666666664,98.13333333333333
1903,-490.6666666666667,42.666666666666664,89.6
1904,-499.2,40.53333333333333,91.73333333333333
1905,-486.4,49.06666666666666,91.73333333333333
1906,-490.6666666666667,36.266666666666666,96.0
1907,-486.4,42.666666666666664,96.0
1908,-488.5333333333333,42.666666666666664,100.26666666666667
1909,-490.6666666666667,49.06666666666666,83.2
1910,-492.8,46.93333333333333,96.0
1911,-492.8,49.06666666666666,87.46666666666667
1912,-497.06666666666666,53.333333333333336,89.6
1913,-494.93333333333334,49.06666666666666,89.6
1914,-494.93333333333334,53.333333333333336,85.33333333333333
1915,-486.4,44.8,85.33333333333333
1916,-490.6666666666667,44.8,98.13333333333333
1917,-492.8,46.93333333333333,87.46666666666667
1918,-488.5333333333333,44.8,93.86666666666666
1919,-492.8,44.8,93.86666666666666
1920,-488.5333333333333,49.06666666666666,85.33333333333333
1921,-494.93333333333334,46.93333333333333,93.86666666666666
1922,-488.5333333333333,49.06666666666666,98.13333333333333
1923,-492.8,51.2,87.46666666666667
1924,-492.8,46.93333333333333,81.06666666666666
1925,-492.8,51.2,91.73333333333333
1926,-505.59999999999997,53.333333333333336,83.2
1927,-490.6666666666667,53.333333333333336,93.86666666666666
1928,-488.5333333333333,51.2,91.73333333333333
1929,-492.8,51.2,85.33333333333333
1930,-486.4,51.2,96.0
1931,-486.4,51.2,91.73333333333333
1932,-492.8,55.46666666666667,93.86666666666666
1933,-488.5333333333333,44.8,91.73333333333333
1934,-484.26666666666665,42.666666666666664,100.26666666666667
1935,-484.26666666666665,44.8,104.53333333333333
1936,-492.8,55.46666666666667,87.46666666666667
1937,-488.5333333333333,55.46666666666667,102.4
1938,-486.4,49.06666666666666,89.6
1939,-488.5333333333333,55.46666666666667,100.26666666666667
1940,-488.5333333333333,51.2,87.46666666666667
1941,-492.8,53.333333333333336,98.13333333333333
1942,-494.93333333333334,49.06666666666666,98.13333333333333
1943,-488.5333333333333,53.333333333333336,89.6
1944,-490.6666666666667,49.06666666666666,91.73333333333333
1945,-492.8,46.93333333333333,98.13333333333333
1946,-482.1333333333333,46.93333333333333,96.0
1947,-477.8666666666667,46.93333333333333,100.26666666666667
1948,-484.26666666666665,49.06666666666666,93.86666666666666
1949,-484.26666666666665,51.2,100.26666666666667
1950,-482.1333333333333,46.93333333333333,104.53333333333333
1951,-486.4,46.93333333333333,108.8
1952,-482.1333333333333,49.06666666666666,100.26666666666667
1953,-488.5333333333333,44.8,93.86666666666666
1954,-492.8,57.6,106.66666666666667
1955,-482.1333333333333,44.8,104.53333333333333
1956,-488.5333333333333,40.53333333333333,98.13333333333333
1957,-482.1333333333333,34.13333333333333,98.13333333333333
1958,-488.5333333333333,42.666666666666664,93.86666666666666
1959,-486.4,44.8,98.13333333333333
1960,-486.4,46.93333333333333,102.4
1961,-488.5333333333333,40.53333333333333,93.86666666666666
1962,-482.1333333333333,46.93333333333333,98.13333333333333
1963,-486.4,42.666666666666664,100.26666666666667
1964,-486.4,38.4,102.4
1965,-484.26666666666665,38.4,98.13333333333333
1966,-486.4,51.2,102.4
1967,-486.4,44.8,100.26666666666667
1968,-494.93333333333334,51.2,100.26666666666667
1969,-475.73333333333335,49.06666666666666,98.13333333333333
1970,-488.5333333333333,42.666666666666664,98.13333333333333
1971,-490.6666666666667,46.93333333333333,87.46666666666667
1972,-492.8,49.06666666666666,102.4
1973,-482.1333333333333,42.666666666666664,96.0
1974,-488.5333333333333,46.93333333333333,87.46666666666667
1975,-488.5333333333333,51.2,91.73333333333333
1976,-490.6666666666667,53.333333333333336,100.26666666666667
1977,-486.4,42.666666666666664,89.6
1978,-488.5333333333333,53.333333333333336,106.66666666666667
1979,-488.5333333333333,46.93333333333333,104.53333333333333
1980,-477.8666666666667,51.2,102.4
1981,-480.0,40.53333333333333,98.13333333333333
1982,-484.26666666666665,53.333333333333336,100.26666666666667
1983,-488.5333333333333,51.2,96.0
1984,-486.4,53.333333333333336,93.86666666666666
1985,-482.1333333333333,46.93333333333333,102.4
1986,-484.26666666666665,44.8,104.53333333333333
1987,-484.26666666666665,36.266666666666666,93.86666666666666
1988,-492.8,40.53333333333333,96.0
1989,-488.5333333333333,36.266666666666666,93.86666666666666
1990,-488.5333333333333,32.0,89.6
1991,-484.26666666666665,38.4,91.73333333333333
1992,-482.1333333333333,36.266666666666666,91.73333333333333
1993,-484.26666666666665,42.666666666666664,91.73333333333333
1994,-484.26666666666665,38.4,89.6
1995,-482.1333333333333,36.266666666666666,87.46666666666667
1996,-482.1333333333333,42.666666666666664,87.46666666666667
1997,-482.1333333333333,42.666666666666664,87.46666666666667
1998,-488.5333333333333,49.06666666666666,98.13333333333333
1999,-484.26666666666665,44.8,91.73333333333333
2000,-488.5333333333333,51.2,87.46666666666667
2001,-488.5333333333333,46.93333333333333,89.6
2002,-490.6666666666667,53.333333333333336,74.66666666666667
2003,-488.5333333333333,59.733333333333334,104.53333333333333
2004,-490.6666666666667,55.46666666666667,87.46666666666667
2005,-486.4,53.333333333333336,96.0
2006,-488.5333333333333,53.333333333333336,98.13333333333333
2007,-482.1333333333333,57.6,89.6
2008,-488.5333333333333,51.2,96.0
2009,-494.93333333333334,57.6,96.0
2010,-488.5333333333333,51.2,93.86666666666666
2011,-490.6666666666667,53.333333333333336,89.6
2012,-484.26666666666665,55.46666666666667,98.13333333333333
2013,-499.2,57.6,91.73333333333333
2014,-490.6666666666667,49.06666666666666,96.0
2015,-494.93333333333334,44.8,98.13333333333333
2016,-488.5333333333333,49.06666666666666,93.86666666666666
2017,-494.93333333333334,49.06666666666666,85.33333333333333
2018,-492.8,42.666666666666664,100.26666666666667
2019,-490.6666666666667,42.666666666666664,89.6
2020,-494.93333333333334,40.53333333333333,102.4
2021,-494.93333333333334,46.93333333333333,98.13333333333333
2022,-492.8,40.53333333333333,91.73333333333333
2023,-497.06666666666666,42.666666666666664,93.86666666666666
2024,-471.46666666666664,34.13333333333333,87.46666666666667
2025,-490.6666666666667,32.0,91.73333333333333
2026,-486.4,32.0,85.33333333333333
2027,-490.6666666666667,25.6,87.46666666666667
2028,-492.8,32.0,85.33333333333333
2029,-490.6666666666667,32.0,93.86666666666666
2030,-492.8,32.0,87.46666666666667
2031,-484.26666666666665,19.2,83.2
2032,-482.1333333333333,27.733333333333334,96.0
2033,-490.6666666666667,29.866666666666667,87.46666666666667
2034,-492.8,29.866666666666667,87.46666666666667
2035,-490.6666666666667,36.266666666666666,87.46666666666667
2036,-488.5333333333333,29.866666666666667,83.2
2037,-488.5333333333333,34.13333333333333,89.6
2038,-492.8,32.0,87.46666666666667
2039,-488.5333333333333,32.0,83.2
2040,-490.6666666666667,32.0,83.2
2041,-490.6666666666667,32.0,87.46666666666667
2042,-484.26666666666665,27.733333333333334,89.6
2043,-486.4,32.0,87.46666666666667
2044,-484.26666666666665,29.866666666666667,87.46666666666667
2045,-490.6666666666667,29.866666666666667,83.2
2046,-477.8666666666667,25.6,81.06666666666666
2047,-484.26666666666665,27.733333333333334,78.93333333333334
2048,-492.8,27.733333333333334,89.6
2049,-490.6666666666667,27.733333333333334,93.86666666666666
2050,-490.6666666666667,32.0,102.4
2051,-484.26666666666665,34.13333333333333,89.6
2052,-492.8,32.0,87.46666666666667
2053,-497.06666666666666,42.666666666666664,93.86666666666666
2054,-488.5333333333333,40.53333333333333,106.66666666666667
2055,-490.6666666666667,32.0,98.13333333333333
2056,-482.1333333333333,42.666666666666664,113.06666666666666
2057,-484.26666666666665,34.13333333333333,100.26666666666667
2058,-484.26666666666665,42.666666666666664,96.0
2059,-488.5333333333333,40.53333333333333,102.4
2060,-482.1333333333333,40.53333333333333,100.26666666666667
2061,-484.26666666666665,44.8,102.4
2062,-484.26666666666665,44.8,104.53333333333333
2063,-484.26666666666665,40.53333333333333,102.4
2064,-482.1333333333333,34.13333333333333,113.06666666666666
2065,-480.0,34.13333333333333,108.8
2066,-484.26666666666665,40.53333333333333,93.86666666666666
2067,-488.5333333333333,42.666666666666664,102.4
2068,-482.1333333333333,40.53333333333333,100.26666666666667
2069,-484.26666666666665,40.53333333333333,104.53333333333333
2070,-486.4,46.93333333333333,110.93333333333334
2071,-477.8666666666667,49.06666666666666,106.66666666666667
2072,-482.1333333333333,46.93333333333333,113.06666666666666
2073,-484.26666666666665,40.53333333333333,96.0
2074,-482.1333333333333,40.53333333333333,108.8
2075,-488.5333333333333,44.8,102.4
2076,-484.26666666666665,46.93333333333333,110.93333333333334
2077,-477.8666666666667,49.06666666666666,106.66666666666667
2078,-484.26666666666665,42.666666666666664,104.53333333333333
2079,-492.8,57.6,100.26666666666667
2080,-480.0,49.06666666666666,106.66666666666667
2081,-482.1333333333333,42.666666666666664,108.8
2082,-477.8666666666667,44.8,110.93333333333334
2083,-490.6666666666667,49.06666666666666,98.13333333333333
2084,-482.1333333333333,46.93333333333333,104.53333333333333
2085,-490.6666666666667,51.2,110.93333333333334
2086,-486.4,49.06666666666666,102.4
2087,-482.1333333333333,51.2,106.66666666666667
2088,-484.26666666666665,55.46666666666667,113.06666666666666
2089,-482.1333333333333,44.8,104.53333333333333
2090,-482.1333333333333,46.93333333333333,106.66666666666667
2091,-480.0,46.93333333333333,113.06666666666666
2092,-486.4,46.93333333333333,108.8
2093,-490.6666666666667,44.8,104.53333333333333
2094,-484.26666666666665,38.4,106.66666666666667
2095,-486.4,44.8,108.8
2096,-482.1333333333333,42.666666666666664,102.4
2097,-482.1333333333333,36.266666666666666,115.2
2098,-484.26666666666665,34.13333333333333,102.4
2099,-484.26666666666665,38.4,102.4
2100,-490.6666666666667,42.666666666666664,106.66666666666667
2101,-497.06666666666666,38.4,66.13333333333333
2102,-488.5333333333333,36.266666666666666,98.13333333333333
2103,-488.5333333333333,42.666666666666664,87.46666666666667
2104,-484.26666666666665,36.266666666666666,96.0
2105,-482.1333333333333,36.266666666666666,100.26666666666667
2106,-490.6666666666667,40.53333333333333,98.13333333333333
2107,-490.6666666666667,34.13333333333333,98.13333333333333
2108,-488.5333333333333,40.53333333333333,104.53333333333333
2109,-497.06666666666666,38.4,93.86666666666666
2110,-484.26666666666665,34.13333333333333,87.46666666666667
2111,-492.8,57.6,102.4
2112,-490.6666666666667,40.53333333333333,91.73333333333333
2113,-482.1333333333333,32.0,93.86666666666666
2114,-488.5333333333333,36.266666666666666,93.86666666666666
2115,-486.4,38.4,93.86666666666666
2116,-492.8,40.53333333333333,98.13333333333333
2117,-486.4,36.266666666666666,93.86666666666666
2118,-492.8,32.0,83.2
2119,-488.5333333333333,40.53333333333333,93.86666666666666
2120,-492.8,34.13333333333333,89.6
2121,-488.5333333333333,32.0,98.13333333333333
2122,-484.26666666666665,29.866666666666667,96.0
2123,-486.4,38.4,98.13333333333333
2124,-486.4,38.4,98.13333333333333
2125,-492.8,40.53333333333333,98.13333333333333
2126,-484.26666666666665,38.4,93.86666666666666
2127,-486.4,40.53333333333333,93.86666666666666
2128,-486.4,40.53333333333333,93.86666666666666
2129,-482.1333333333333,42.666666666666664,98.13333333333333
2130,-482.1333333333333,38.4,98.13333333333333
2131,-486.4,36.266666666666666,96.0
2132,-488.5333333333333,40.53333333333333,96.0
2133,-486.4,44.8,91.73333333333333
2134,-484.26666666666665,40.53333333333333,93.86666666666666
2135,-488.5333333333333,44.8,91.73333333333333
2136,-488.5333333333333,44.8,93.86666666666666
2137,-488.5333333333333,42.666666666666664,102.4
2138,-484.26666666666665,46.93333333333333,100.26666666666667
2139,-484.26666666666665,46.93333333333333,98.13333333333333
2140,-484.26666666666665,42.666666666666664,104.53333333333333
2141,-488.5333333333333,49.06666666666666,85.33333333333333
2142,-484.26666666666665,42.666666666666664,100.26666666666667
2143,-492.8,49.06666666666666,102.4
2144,-492.8,36.266666666666666,98.13333333333333
2145,-490.6666666666667,44.8,106.66666666666667
2146,-484.26666666666665,44.8,98.13333333333333
2147,-486.4,44.8,108.8
2148,-488.5333333333333,44.8,104.53333333333333
2149,-488.5333333333333,49.06666666666666,108.8
2150,-488.5333333333333,44.8,93.86666666666666
2151,-480.0,49.06666666666666,93.86666666666666
2152,-488.5333333333333,49.06666666666666,98.13333333333333
2153,-477.8666666666667,46.93333333333333,96.0
2154,-486.4,49.06666666666666,106.66666666666667
2155,-492.8,42.666666666666664,91.73333333333333
2156,-486.4,42.666666666666664,104.53333333333333
2157,-480.0,38.4,106.66666666666667
2158,-486.4,38.4,100.26666666666667
2159,-480.0,42.666666666666664,93.86666666666666
2160,-488.5333333333333,46.93333333333333,110.93333333333334
2161,-484.26666666666665,40.53333333333333,93.86666666666666
2162,-490.6666666666667,38.4,93.86666666666666
2163,-488.5333333333333,40.53333333333333,104.53333333333333
2164,-490.6666666666667,51.2,98.13333333333333
2165,-492.8,40.53333333333333,98.13333333333333
2166,-486.4,36.266666666666666,98.13333333333333
2167,-486.4,38.4,100.26666666666667
2168,-486.4,40.53333333333333,100.26666666666667
2169,-480.0,42.666666666666664,98.13333333333333
2170,-477.8666666666667,38.4,106.66666666666667
2171,-480.0,38.4,102.4
2172,-486.4,44.8,98.13333333333333
2173,-486.4,38.4,106.66666666666667
2174,-490.6666666666667,46.93333333333333,93.86666666666666
2175,-484.26666666666665,42.666666666666664,89.6
2176,-486.4,40.53333333333333,104.53333333333333
2177,-484.26666666666665,36.266666666666666,104.53333333333333
2178,-484.26666666666665,40.53333333333333,102.4
2179,-486.4,42.666666666666664,104.53333333333333
2180,-482.1333333333333,38.4,106.66666666666667
2181,-490.6666666666667,36.266666666666666,100.26666666666667
2182,-490.6666666666667,44.8,102.4
2183,-482.1333333333333,38.4,102.4
2184,-484.26666666666665,42.666666666666664,104.53333333333333
2185,-490.6666666666667,40.53333333333333,100.26666666666667
2186,-484.26666666666665,44.8,113.06666666666666
2187,-494.93333333333334,51.2,98.13333333333333
2188,-492.8,42.666666666666664,102.4
2189,-477.8666666666667,36.266666666666666,108.8
2190,-484.26666666666665,42.666666666666664,100.26666666666667
2191,-490.6666666666667,49.06666666666666,106.66666666666667
2192,-486.4,40.53333333333333,108.8
2193,-482.1333333333333,40.53333333333333,108.8
2194,-482.1333333333333,44.8,108.8
2195,-482.1333333333333,44.8,104.53333333333333
2196,-486.4,38.4,104.53333333333333
2197,-480.0,40.53333333333333,108.8
2198,-482.1333333333333,44.8,98.13333333333333
2199,-482.1333333333333,34.13333333333333,108.8
2200,-482.1333333333333,46.93333333333333,106.66666666666667
2201,-482.1333333333333,42.666666666666664,96.0
2202,-484.26666666666665,49.06666666666666,100.26666666666667
2203,-482.1333333333333,42.666666666666664,108.8
2204,-488.5333333333333,44.8,106.66666666666667
2205,-486.4,49.06666666666666,113.06666666666666
2206,-482.1333333333333,44.8,104.53333333333333
2207,-486.4,46.93333333333333,102.4
2208,-480.0,44.8,110.93333333333334
2209,-494.93333333333334,49.06666666666666,102.4
2210,-482.1333333333333,53.333333333333336,108.8
2211,-482.1333333333333,51.2,108.8
2212,-484.26666666666665,49.06666666666666,110.93333333333334
2213,-484.26666666666665,51.2,106.66666666666667
2214,-486.4,40.53333333333333,102.4
2215,-482.1333333333333,44.8,113.06666666666666
2216,-492.8,46.93333333333333,106.66666666666667
2217,-482.1333333333333,46.93333333333333,104.53333333333333
2218,-480.0,46.93333333333333,106.66666666666667
2219,-488.5333333333333,40.53333333333333,106.66666666666667
2220,-497.06666666666666,51.2,113.06666666666666
2221,-480.0,40.53333333333333,110.93333333333334
2222,-484.26666666666665,40.53333333333333,104.53333333333333
2223,-484.26666666666665,38.4,104.53333333333333
2224,-488.5333333333333,49.06666666666666,98.13333333333333
2225,-480.0,40.53333333333333,106.66666666666667
2226,-484.26666666666665,40.53333333333333,108.8
2227,-480.0,49.06666666666666,104.53333333333333
2228,-486.4,51.2,104.53333333333333
2229,-484.26666666666665,44.8,102.4
2230,-484.26666666666665,42.666666666666664,110.93333333333334
2231,-484.26666666666665,44.8,104.53333333333333
2232,-484.26666666666665,42.666666666666664,104.53333333333333
2233,-486.4,49.06666666666666,106.66666666666667
2234,-482.1333333333333,51.2,98.13333333333333
2235,-486.4,46.93333333333333,104.53333333333333
2236,-486.4,46.93333333333333,102.4
2237,-488.5333333333333,44.8,102.4
2238,-482.1333333333333,40.53333333333333,104.53333333333333
2239,-484.26666666666665,38.4,100.26666666666667
2240,-480.0,46.93333333333333,106.66666666666667
2241,-492.8,40.53333333333333,98.13333333333333
2242,-486.4,53.333333333333336,106.66666666666667
2243,-484.26666666666665,44.8,106.66666666666667
2244,-490.6666666666667,44.8,110.93333333333334
2245,-484.26666666666665,46.93333333333333,98.13333333333333
2246,-482.1333333333333,46.93333333333333,102.4
2247,-484.26666666666665,40.53333333333333,106.66666666666667
2248,-484.26666666666665,44.8,104.53333333333333
2249,-482.1333333333333,42.666666666666664,110.93333333333334
2250,-484.26666666666665,42.666666666666664,100.26666666666667
2251,-488.5333333333333,40.53333333333333,98.13333333333333
2252,-486.4,44.8,104.53333333333333
2253,-494.93333333333334,51.2,104.53333333333333
2254,-486.4,44.8,106.66666666666667
2255,-484.26666666666665,49.06666666666666,106.66666666666667
2256,-482.1333333333333,49.06666666666666,100.26666666666667
2257,-482.1333333333333,44.8,106.66666666666667
2258,-484.26666666666665,46.93333333333333,110.93333333333334
2259,-482.1333333333333,40.53333333333333,96.0
2260,-490.6666666666667,49.06666666666666,106.66666666666667
2261,-486.4,49.06666666666666,102.4
2262,-482.1333333333333,53.333333333333336,110.93333333333334
2263,-475.73333333333335,53.333333333333336,115.2
2264,-477.8666666666667,51.2,102.4
2265,-477.8666666666667,42.666666666666664,106.66666666666667
2266,-480.0,51.2,110.93333333333334
2267,-486.4,42.666666666666664,108.8
2268,-480.0,44.8,113.06666666666666
2269,-482.1333333333333,46.93333333333333,108.8
2270,-482.1333333333333,49.06666666666666,108.8
2271,-484.26666666666665,46.93333333333333,104.53333333333333
2272,-486.4,49.06666666666666,108.8
2273,-471.46666666666664,44.8,102.4
2274,-480.0,49.06666666666666,119.46666666666667
2275,-477.8666666666667,38.4,110.93333333333334
2276,-473.59999999999997,44.8,113.06666666666666
2277,-480.0,44.8,106.66666666666667
2278,-480.0,49.06666666666666,113.06666666666666
2279,-482.1333333333333,61.86666666666667,104.53333333333333
2280,-475.73333333333335,49.06666666666666,113.06666666666666
2281,-484.26666666666665,57.6,104.53333333333333
2282,-480.0,49.06666666666666,108.8
2283,-477.8666666666667,46.93333333333333,113.06666666666666
2284,-488.5333333333333,49.06666666666666,121.6
2285,-473.59999999999997,40.53333333333333,117.33333333333333
2286,-477.8666666666667,42.666666666666664,119.46666666666667
2287,-482.1333333333333,49.06666666666666,110.93333333333334
2288,-484.26666666666665,44.8,121.6
2289,-475.73333333333335,44.8,106.66666666666667
2290,-480.0,40.53333333333333,113.06666666666666
2291,-492.8,46.93333333333333,110.93333333333334
2292,-480.0,46.93333333333333,108.8
2293,-475.73333333333335,49.06666666666666,115.2
2294,-480.0,40.53333333333333,113.06666666666666
2295,-477.8666666666667,38.4,113.06666666666666
2296,-488.5333333333333,42.666666666666664,110.93333333333334
2297,-484.26666666666665,46.93333333333333,106.66666666666667
2298,-484.26666666666665,46.93333333333333,106.66666666666667
2299,-480.0,46.93333333333333,106.66666666666667
2300,-482.1333333333333,51.2,119.46666666666667
2301,-484.26666666666665,46.93333333333333,108.8
2302,-482.1333333333333,53.333333333333336,104.53333333333333
2303,-480.0,42.666666666666664,110.93333333333334
2304,-488.5333333333333,53.333333333333336,117.33333333333333
2305,-488.5333333333333,51.2,104.53333333333333
2306,-482.1333333333333,49.06666666666666,115.2
2307,-492.8,46.93333333333333,98.13333333333333
2308,-484.26666666666665,51.2,108.8
2309,-482.1333333333333,46.93333333333333,102.4
2310,-477.8666666666667,46.93333333333333,110.93333333333334
2311,-484.26666666666665,49.06666666666666,121.6
2312,-482.1333333333333,46.93333333333333,108.8
2313,-482.1333333333333,46.93333333333333,110.93333333333334
2314,-482.1333333333333,46.93333333333333,108.8
2315,-486.4,46.93333333333333,106.66666666666667
2316,-482.1333333333333,44.8,113.06666666666666
2317,-482.1333333333333,40.53333333333333,102.4
2318,-482.1333333333333,40.53333333333333,115.2
2319,-480.0,44.8,106.66666666666667
2320,-480.0,51.2,110.93333333333334
2321,-484.26666666666665,53.333333333333336,106.66666666666667
2322,-473.59999999999997,46.93333333333333,117.33333333333333
2323,-475.73333333333335,49.06666666666666,113.06666666666666
2324,-482.1333333333333,51.2,115.2
2325,-477.8666666666667,46.93333333333333,106.66666666666667
2326,-482.1333333333333,49.06666666666666,100.26666666666667
2327,-475.73333333333335,49.06666666666666,104.53333333333333
2328,-480.0,46.93333333333333,100.26666666666667
2329,-471.46666666666664,46.93333333333333,106.66666666666667
2330,-477.8666666666667,42.666666666666664,117.33333333333333
2331,-480.0,46.93333333333333,104.53333333333333
2332,-484.26666666666665,44.8,113.06666666666666
2333,-477.8666666666667,46.93333333333333,110.93333333333334
2334,-482.1333333333333,44.8,110.93333333333334
2335,-477.8666666666667,44.8,113.06666666666666
2336,-480.0,55.46666666666667,110.93333333333334
2337,-486.4,55.46666666666667,110.93333333333334
2338,-482.1333333333333,49.06666666666666,115.2
2339,-486.4,55.46666666666667,108.8
2340,-475.73333333333335,40.53333333333333,104.53333333333333
2341,-484.26666666666665,46.93333333333333,117.33333333333333
2342,-480.0,49.06666666666666,113.06666666666666
2343,-482.1333333333333,53.333333333333336,110.93333333333334
2344,-477.8666666666667,49.06666666666666,104.53333333333333
2345,-480.0,55.46666666666667,119.46666666666667
2346,-475.73333333333335,51.2,123.73333333333333
2347,-480.0,46.93333333333333,115.2
2348,-482.1333333333333,51.2,108.8
2349,-477.8666666666667,55.46666666666667,121.6
2350,-482.1333333333333,53.333333333333336,115.2
2351,-490.6666666666667,34.13333333333333,113.06666666666666
2352,-484.26666666666665,51.2,115.2
2353,-477.8666666666667,42.666666666666664,108.8
2354,-475.73333333333335,51.2,117.33333333333333
2355,-475.73333333333335,49.06666666666666,117.33333333333333
2356,-477.8666666666667,49.06666666666666,115.2
2357,-482.1333333333333,57.6,121.6
2358,-482.1333333333333,51.2,121.6
2359,-486.4,46.93333333333333,104.53333333333333
2360,-482.1333333333333,53.333333333333336,115.2
2361,-480.0,53.333333333333336,100.26666666666667
2362,-482.1333333333333,55.46666666666667,113.06666666666666
2363,-482.1333333333333,44.8,102.4
2364,-477.8666666666667,46.93333333333333,117.33333333333333
2365,-484.26666666666665,49.06666666666666,110.93333333333334
2366,-477.8666666666667,44.8,110.93333333333334
2367,-477.8666666666667,53.333333333333336,115.2
2368,-480.0,53.333333333333336,108.8
2369,-482.1333333333333,49.06666666666666,115.2
2370,-473.59999999999997,49.06666666666666,119.46666666666667
2371,-477.8666666666667,46.93333333333333,106.66666666666667
2372,-477.8666666666667,49.06666666666666,108.8
2373,-477.8666666666667,51.2,115.2
2374,-482.1333333333333,51.2,113.06666666666666
2375,-482.1333333333333,49.06666666666666,110.93333333333334
2376,-475.73333333333335,46.93333333333333,115.2
2377,-477.8666666666667,49.06666666666666,110.93333333333334
2378,-480.0,53.333333333333336,115.2
2379,-480.0,49.06666666666666,115.2
2380,-480.0,49.06666666666666,121.6
2381,-477.8666666666667,49.06666666666666,115.2
2382,-490.6666666666667,53.333333333333336,115.2
2383,-484.26666666666665,44.8,117.33333333333333
2384,-475.73333333333335,42.666666666666664,113.06666666666666
2385,-480.0,46.93333333333333,110.93333333333334
2386,-477.8666666666667,49.06666666666666,102.4
2387,-477.8666666666667,46.93333333333333,108.8
2388,-477.8666666666667,46.93333333333333,113.06666666666666
2389,-480.0,49.06666666666666,113.06666666666666
2390,-484.26666666666665,53.333333333333336,102.4
2391,-480.0,53.333333333333336,110.93333333333334
2392,-482.1333333333333,49.06666666666666,106.66666666666667
2393,-480.0,42.666666666666664,106.66666666666667
2394,-486.4,38.4,115.2
2395,-480.0,49.06666666666666,123.73333333333333
2396,-475.73333333333335,40.53333333333333,113.06666666666666
2397,-480.0,51.2,119.46666666666667
2398,-475.73333333333335,49.06666666666666,119.46666666666667
2399,-475.73333333333335,49.06666666666666,113.06666666666666
2400,-477.8666666666667,46.93333333333333,110.93333333333334
2401,-480.0,49.06666666666666,108.8
2402,-477.8666666666667,49.06666666666666,119.46666666666667
2403,-473.59999999999997,42.666666666666664,108.8
2404,-475.73333333333335,40.53333333333333,115.2
2405,-486.4,66.13333333333333,128.0
2406,-480.0,44.8,108.8
2407,-480.0,51.2,106.66666666666667
2408,-480.0,49.06666666666666,121.6
2409,-477.8666666666667,51.2,113.06666666666666
2410,-477.8666666666667,49.06666666666666,117.33333333333333
2411,-480.0,46.93333333333333,110.93333333333334
2412,-477.8666666666667,55.46666666666667,123.73333333333333
2413,-475.73333333333335,38.4,117.33333333333333
2414,-475.73333333333335,44.8,125.86666666666666
2415,-484.26666666666665,51.2,113.06666666666666
2416,-484.26666666666665,40.53333333333333,104.53333333333333
2417,-480.0,44.8,115.2
2418,-480.0,51.2,108.8
2419,-480.0,42.666666666666664,117.33333333333333
2420,-482.1333333333333,46.93333333333333,108.8
2421,-482.1333333333333,42.666666666666664,110.93333333333334
2422,-477.8666666666667,44.8,110.93333333333334
2423,-475.73333333333335,49.06666666666666,115.2
2424,-480.0,49.06666666666666,106.66666666666667
2425,-482.1333333333333,49.06666666666666,108.8
2426,-473.59999999999997,44.8,113.06666666666666
2427,-490.6666666666667,42.666666666666664,100.26666666666667
2428,-480.0,49.06666666666666,110.93333333333334
2429,-484.26666666666665,44.8,117.33333333333333
2430,-475.73333333333335,38.4,119.46666666666667
2431,-475.73333333333335,42.666666666666664,115.2
2432,-480.0,44.8,119.46666666666667
2433,-484.26666666666665,42.666666666666664,117.33333333333333
2434,-484.26666666666665,38.4,106.66666666666667
2435,-486.4,46.93333333333333,110.93333333333334
2436,-482.1333333333333,34.13333333333333,115.2
