,accelerometerAccelerationX(G),accelerometerAccelerationY(G),accelerometerAccelerationZ(G)
0,10.666666666666666,-522.6666666666666,44.8
1,4.266666666666667,-518.4,44.8
2,6.4,-526.9333333333333,51.2
3,12.8,-524.8,42.666666666666664
4,17.066666666666666,-520.5333333333333,49.06666666666666
5,4.266666666666667,-518.4,42.666666666666664
6,14.933333333333334,-520.5333333333333,55.46666666666667
7,14.933333333333334,-520.5333333333333,40.53333333333333
8,17.066666666666666,-524.8,36.266666666666666
9,14.933333333333334,-529.0666666666666,46.93333333333333
10,8.533333333333333,-518.4,44.8
11,8.533333333333333,-522.6666666666666,55.46666666666667
12,6.4,-524.8,46.93333333333333
13,2.1333333333333333,-520.5333333333333,46.93333333333333
14,6.4,-518.4,51.2
15,12.8,-535.4666666666667,49.06666666666666
16,0.0,-535.4666666666667,53.333333333333336
17,4.266666666666667,-522.6666666666666,53.333333333333336
18,12.8,-533.3333333333334,49.06666666666666
19,14.933333333333334,-531.2,49.06666666666666
20,12.8,-533.3333333333334,51.2
21,10.666666666666666,-529.0666666666666,42.666666666666664
22,4.266666666666667,-514.1333333333333,49.06666666666666
23,10.666666666666666,-524.8,44.8
24,8.533333333333333,-529.0666666666666,53.333333333333336
25,8.533333333333333,-524.8,46.93333333333333
26,14.933333333333334,-526.9333333333333,46.93333333333333
27,8.533333333333333,-518.4,49.06666666666666
28,14.933333333333334,-522.6666666666666,51.2
29,17.066666666666666,-524.8,55.46666666666667
30,10.666666666666666,-522.6666666666666,55.46666666666667
31,10.666666666666666,-524.8,44.8
32,8.533333333333333,-522.6666666666666,46.93333333333333
33,10.666666666666666,-522.6666666666666,51.2
34,10.666666666666666,-518.4,51.2
35,8.533333333333333,-526.9333333333333,51.2
36,25.6,-526.9333333333333,53.333333333333336
37,6.4,-529.0666666666666,53.333333333333336
38,14.933333333333334,-524.8,46.93333333333333
39,6.4,-516.2666666666667,51.2
40,10.666666666666666,-526.9333333333333,49.06666666666666
41,8.533333333333333,-520.5333333333333,44.8
42,12.8,-526.9333333333333,51.2
43,10.666666666666666,-522.6666666666666,46.93333333333333
44,0.0,-531.2,55.46666666666667
45,10.666666666666666,-522.6666666666666,55.46666666666667
46,19.2,-529.0666666666666,51.2
47,17.066666666666666,-529.0666666666666,49.06666666666666
48,10.666666666666666,-524.8,44.8
49,-2.1333333333333333,-529.0666666666666,66.13333333333333
50,19.2,-516.2666666666667,49.06666666666666
51,14.933333333333334,-535.4666666666667,42.666666666666664
52,8.533333333333333,-529.0666666666666,55.46666666666667
53,14.933333333333334,-524.8,42.666666666666664
54,4.266666666666667,-520.5333333333333,55.46666666666667
55,6.4,-522.6666666666666,46.93333333333333
56,8.533333333333333,-533.3333333333334,49.06666666666666
57,6.4,-518.4,49.06666666666666
58,21.333333333333332,-529.0666666666666,68.26666666666667
59,12.8,-512.0,53.333333333333336
60,-4.266666666666667,-522.6666666666666,55.46666666666667
61,8.533333333333333,-531.2,40.53333333333333
62,10.666666666666666,-531.2,51.2
63,10.666666666666666,-522.6666666666666,36.266666666666666
64,2.1333333333333333,-531.2,55.46666666666667
65,2.1333333333333333,-533.3333333333334,55.46666666666667
66,6.4,-505.59999999999997,49.06666666666666
67,-6.4,-512.0,40.53333333333333
68,23.466666666666665,-524.8,68.26666666666667
69,2.1333333333333333,-509.8666666666667,44.8
70,8.533333333333333,-533.3333333333334,49.06666666666666
71,17.066666666666666,-520.5333333333333,59.733333333333334
72,27.733333333333334,-531.2,46.93333333333333
73,8.533333333333333,-514.1333333333333,38.4
74,4.266666666666667,-518.4,55.46666666666667
75,14.933333333333334,-524.8,61.86666666666667
76,27.733333333333334,-526.9333333333333,59.733333333333334
77,0.0,-533.3333333333334,53.333333333333336
78,0.0,-546.1333333333333,38.4
79,14.933333333333334,-535.4666666666667,57.6
80,19.2,-520.5333333333333,51.2
81,4.266666666666667,-529.0666666666666,55.46666666666667
82,14.933333333333334,-522.6666666666666,57.6
83,-2.1333333333333333,-533.3333333333334,66.13333333333333
84,19.2,-507.73333333333335,42.666666666666664
85,10.666666666666666,-514.1333333333333,57.6
86,17.066666666666666,-529.0666666666666,51.2
87,8.533333333333333,-518.4,34.13333333333333
88,29.866666666666667,-537.6,36.266666666666666
89,17.066666666666666,-522.6666666666666,46.93333333333333
90,12.8,-516.2666666666667,49.06666666666666
91,8.533333333333333,-518.4,55.46666666666667
92,12.8,-526.9333333333333,57.6
93,10.666666666666666,-514.1333333333333,44.8
94,25.6,-531.2,42.666666666666664
95,17.066666666666666,-522.6666666666666,46.93333333333333
96,17.066666666666666,-531.2,42.666666666666664
97,2.1333333333333333,-526.9333333333333,51.2
98,6.4,-533.3333333333334,44.8
99,8.533333333333333,-522.6666666666666,42.666666666666664
100,14.933333333333334,-531.2,40.53333333333333
101,17.066666666666666,-535.4666666666667,40.53333333333333
102,6.4,-531.2,49.06666666666666
103,8.533333333333333,-529.0666666666666,51.2
104,10.666666666666666,-537.6,49.06666666666666
105,17.066666666666666,-526.9333333333333,55.46666666666667
106,6.4,-518.4,49.06666666666666
107,6.4,-520.5333333333333,42.666666666666664
108,10.666666666666666,-522.6666666666666,44.8
109,6.4,-507.73333333333335,53.333333333333336
110,8.533333333333333,-529.0666666666666,55.46666666666667
111,21.333333333333332,-531.2,51.2
112,12.8,-524.8,49.06666666666666
113,19.2,-518.4,57.6
114,12.8,-533.3333333333334,53.333333333333336
115,12.8,-522.6666666666666,55.46666666666667
116,19.2,-529.0666666666666,49.06666666666666
117,14.933333333333334,-522.6666666666666,46.93333333333333
118,14.933333333333334,-524.8,49.06666666666666
119,4.266666666666667,-512.0,49.06666666666666
120,17.066666666666666,-531.2,44.8
121,10.666666666666666,-518.4,44.8
122,17.066666666666666,-526.9333333333333,51.2
123,21.333333333333332,-529.0666666666666,46.93333333333333
124,10.666666666666666,-529.0666666666666,38.4
125,12.8,-529.0666666666666,55.46666666666667
126,10.666666666666666,-531.2,44.8
127,8.533333333333333,-522.6666666666666,42.666666666666664
128,8.533333333333333,-526.9333333333333,55.46666666666667
129,6.4,-520.5333333333333,53.333333333333336
130,8.533333333333333,-526.9333333333333,51.2
131,10.666666666666666,-529.0666666666666,49.06666666666666
132,10.666666666666666,-524.8,46.93333333333333
133,23.466666666666665,-520.5333333333333,40.53333333333333
134,10.666666666666666,-524.8,49.06666666666666
135,10.666666666666666,-531.2,46.93333333333333
136,0.0,-531.2,49.06666666666666
137,10.666666666666666,-526.9333333333333,46.93333333333333
138,10.666666666666666,-526.9333333333333,51.2
139,8.533333333333333,-526.9333333333333,53.333333333333336
140,10.666666666666666,-520.5333333333333,49.06666666666666
141,6.4,-524.8,42.666666666666664
142,6.4,-529.0666666666666,44.8
143,4.266666666666667,-526.9333333333333,49.06666666666666
144,6.4,-526.9333333333333,49.06666666666666
145,17.066666666666666,-531.2,42.666666666666664
146,12.8,-522.6666666666666,42.666666666666664
147,4.266666666666667,-522.6666666666666,49.06666666666666
148,6.4,-526.9333333333333,51.2
149,6.4,-520.5333333333333,55.46666666666667
150,10.666666666666666,-524.8,53.333333333333336
151,19.2,-526.9333333333333,55.46666666666667
152,12.8,-522.6666666666666,59.733333333333334
153,12.8,-518.4,59.733333333333334
154,8.533333333333333,-520.5333333333333,53.333333333333336
155,27.733333333333334,-526.9333333333333,57.6
156,8.533333333333333,-520.5333333333333,53.333333333333336
157,10.666666666666666,-522.6666666666666,53.333333333333336
158,14.933333333333334,-520.5333333333333,57.6
159,4.266666666666667,-522.6666666666666,53.333333333333336
160,8.533333333333333,-524.8,53.333333333333336
161,6.4,-518.4,51.2
162,10.666666666666666,-520.5333333333333,49.06666666666666
163,8.533333333333333,-529.0666666666666,68.26666666666667
164,6.4,-518.4,55.46666666666667
165,6.4,-516.2666666666667,51.2
166,17.066666666666666,-531.2,68.26666666666667
167,6.4,-524.8,46.93333333333333
168,12.8,-526.9333333333333,53.333333333333336
169,8.533333333333333,-524.8,53.333333333333336
170,14.933333333333334,-531.2,51.2
171,8.533333333333333,-522.6666666666666,51.2
172,6.4,-522.6666666666666,46.93333333333333
173,6.4,-531.2,49.06666666666666
174,10.666666666666666,-531.2,51.2
175,4.266666666666667,-522.6666666666666,51.2
176,-4.266666666666667,-509.8666666666667,34.13333333333333
177,12.8,-518.4,51.2
178,8.533333333333333,-514.1333333333333,51.2
179,4.266666666666667,-524.8,53.333333333333336
180,14.933333333333334,-522.6666666666666,51.2
181,6.4,-516.2666666666667,55.46666666666667
182,10.666666666666666,-529.0666666666666,61.86666666666667
183,10.666666666666666,-529.0666666666666,49.06666666666666
184,6.4,-520.5333333333333,55.46666666666667
185,14.933333333333334,-522.6666666666666,51.2
186,17.066666666666666,-522.6666666666666,53.333333333333336
187,2.1333333333333333,-529.0666666666666,59.733333333333334
188,12.8,-524.8,61.86666666666667
189,14.933333333333334,-522.6666666666666,53.333333333333336
190,8.533333333333333,-520.5333333333333,64.0
191,10.666666666666666,-520.5333333333333,57.6
192,12.8,-520.5333333333333,53.333333333333336
193,10.666666666666666,-520.5333333333333,51.2
194,12.8,-522.6666666666666,57.6
195,4.266666666666667,-522.6666666666666,51.2
196,19.2,-524.8,66.13333333333333
197,10.666666666666666,-518.4,44.8
198,10.666666666666666,-516.2666666666667,55.46666666666667
199,17.066666666666666,-529.0666666666666,55.46666666666667
200,8.533333333333333,-522.6666666666666,53.333333333333336
201,6.4,-533.3333333333334,57.6
202,2.1333333333333333,-522.6666666666666,57.6
203,8.533333333333333,-524.8,57.6
204,8.533333333333333,-518.4,46.93333333333333
205,12.8,-526.9333333333333,61.86666666666667
206,6.4,-529.0666666666666,49.06666666666666
207,6.4,-524.8,51.2
208,10.666666666666666,-524.8,57.6
209,21.333333333333332,-524.8,57.6
210,10.666666666666666,-526.9333333333333,55.46666666666667
211,4.266666666666667,-522.6666666666666,53.333333333333336
212,6.4,-522.6666666666666,51.2
213,10.666666666666666,-522.6666666666666,55.46666666666667
214,14.933333333333334,-524.8,57.6
215,2.1333333333333333,-526.9333333333333,53.333333333333336
216,10.666666666666666,-531.2,55.46666666666667
217,0.0,-512.0,55.46666666666667
218,4.266666666666667,-514.1333333333333,57.6
219,10.666666666666666,-526.9333333333333,55.46666666666667
220,8.533333333333333,-524.8,49.06666666666666
221,4.266666666666667,-522.6666666666666,55.46666666666667
222,6.4,-520.5333333333333,61.86666666666667
223,2.1333333333333333,-524.8,59.733333333333334
224,2.1333333333333333,-526.9333333333333,51.2
225,4.266666666666667,-522.6666666666666,55.46666666666667
226,4.266666666666667,-518.4,57.6
227,0.0,-524.8,61.86666666666667
228,10.666666666666666,-522.6666666666666,49.06666666666666
229,19.2,-524.8,57.6
230,2.1333333333333333,-524.8,59.733333333333334
231,10.666666666666666,-520.5333333333333,55.46666666666667
232,17.066666666666666,-526.9333333333333,64.0
233,19.2,-514.1333333333333,55.46666666666667
234,14.933333333333334,-516.2666666666667,57.6
235,14.933333333333334,-522.6666666666666,61.86666666666667
236,17.066666666666666,-512.0,61.86666666666667
237,10.666666666666666,-514.1333333333333,61.86666666666667
238,19.2,-529.0666666666666,55.46666666666667
239,8.533333333333333,-520.5333333333333,51.2
240,14.933333333333334,-509.8666666666667,72.53333333333333
241,25.6,-524.8,55.46666666666667
242,14.933333333333334,-526.9333333333333,61.86666666666667
243,14.933333333333334,-526.9333333333333,59.733333333333334
244,17.066666666666666,-529.0666666666666,66.13333333333333
245,14.933333333333334,-529.0666666666666,59.733333333333334
246,10.666666666666666,-522.6666666666666,68.26666666666667
247,17.066666666666666,-526.9333333333333,66.13333333333333
248,12.8,-524.8,64.0
249,21.333333333333332,-522.6666666666666,53.333333333333336
250,19.2,-520.5333333333333,49.06666666666666
251,19.2,-520.5333333333333,53.333333333333336
252,17.066666666666666,-533.3333333333334,64.0
253,23.466666666666665,-518.4,70.4
254,14.933333333333334,-516.2666666666667,68.26666666666667
255,19.2,-518.4,55.46666666666667
256,21.333333333333332,-520.5333333333333,66.13333333333333
257,25.6,-520.5333333333333,68.26666666666667
258,17.066666666666666,-514.1333333333333,61.86666666666667
259,21.333333333333332,-518.4,68.26666666666667
260,17.066666666666666,-516.2666666666667,68.26666666666667
261,19.2,-520.5333333333333,61.86666666666667
262,23.466666666666665,-531.2,64.0
263,2.1333333333333333,-524.8,55.46666666666667
264,14.933333333333334,-522.6666666666666,64.0
265,14.933333333333334,-529.0666666666666,66.13333333333333
266,10.666666666666666,-526.9333333333333,55.46666666666667
267,8.533333333333333,-518.4,64.0
268,8.533333333333333,-522.6666666666666,57.6
269,2.1333333333333333,-520.5333333333333,59.733333333333334
270,10.666666666666666,-524.8,66.13333333333333
271,10.666666666666666,-518.4,61.86666666666667
272,6.4,-518.4,61.86666666666667
273,14.933333333333334,-522.6666666666666,55.46666666666667
274,10.666666666666666,-516.2666666666667,61.86666666666667
275,10.666666666666666,-524.8,66.13333333333333
276,6.4,-522.6666666666666,55.46666666666667
277,12.8,-522.6666666666666,61.86666666666667
278,8.533333333333333,-526.9333333333333,64.0
279,6.4,-524.8,53.333333333333336
280,10.666666666666666,-526.9333333333333,59.733333333333334
281,8.533333333333333,-531.2,55.46666666666667
282,17.066666666666666,-520.5333333333333,53.333333333333336
283,8.533333333333333,-516.2666666666667,57.6
284,6.4,-514.1333333333333,51.2
285,19.2,-520.5333333333333,61.86666666666667
286,21.333333333333332,-520.5333333333333,53.333333333333336
287,17.066666666666666,-518.4,59.733333333333334
288,10.666666666666666,-514.1333333333333,55.46666666666667
289,19.2,-518.4,64.0
290,21.333333333333332,-522.6666666666666,61.86666666666667
291,23.466666666666665,-520.5333333333333,57.6
292,21.333333333333332,-520.5333333333333,46.93333333333333
293,12.8,-531.2,59.733333333333334
294,19.2,-526.9333333333333,68.26666666666667
295,10.666666666666666,-522.6666666666666,46.93333333333333
296,12.8,-531.2,61.86666666666667
297,10.666666666666666,-531.2,64.0
298,17.066666666666666,-531.2,61.86666666666667
299,8.533333333333333,-520.5333333333333,59.733333333333334
300,8.533333333333333,-529.0666666666666,57.6
301,17.066666666666666,-522.6666666666666,57.6
302,6.4,-531.2,55.46666666666667
303,8.533333333333333,-522.6666666666666,66.13333333333333
304,2.1333333333333333,-520.5333333333333,59.733333333333334
305,-4.266666666666667,-516.2666666666667,64.0
306,-2.1333333333333333,-529.0666666666666,64.0
307,-2.1333333333333333,-526.9333333333333,55.46666666666667
308,2.1333333333333333,-520.5333333333333,59.733333333333334
309,4.266666666666667,-520.5333333333333,55.46666666666667
310,4.266666666666667,-520.5333333333333,55.46666666666667
311,4.266666666666667,-518.4,59.733333333333334
312,6.4,-520.5333333333333,55.46666666666667
313,6.4,-522.6666666666666,61.86666666666667
314,8.533333333333333,-522.6666666666666,64.0
315,6.4,-512.0,66.13333333333333
316,6.4,-518.4,57.6
317,10.666666666666666,-522.6666666666666,49.06666666666666
318,2.1333333333333333,-524.8,51.2
319,6.4,-524.8,59.733333333333334
320,2.1333333333333333,-514.1333333333333,53.333333333333336
321,8.533333333333333,-526.9333333333333,55.46666666666667
322,4.266666666666667,-520.5333333333333,51.2
323,2.1333333333333333,-529.0666666666666,55.46666666666667
324,10.666666666666666,-524.8,59.733333333333334
325,-2.1333333333333333,-518.4,61.86666666666667
326,10.666666666666666,-518.4,55.46666666666667
327,10.666666666666666,-526.9333333333333,51.2
328,-2.1333333333333333,-535.4666666666667,46.93333333333333
329,2.1333333333333333,-522.6666666666666,55.46666666666667
330,4.266666666666667,-526.9333333333333,61.86666666666667
331,4.266666666666667,-529.0666666666666,55.46666666666667
332,8.533333333333333,-522.6666666666666,59.733333333333334
333,4.266666666666667,-524.8,53.333333333333336
334,10.666666666666666,-526.9333333333333,59.733333333333334
335,10.666666666666666,-518.4,55.46666666666667
336,19.2,-529.0666666666666,57.6
337,19.2,-518.4,55.46666666666667
338,19.2,-514.1333333333333,55.46666666666667
339,19.2,-520.5333333333333,59.733333333333334
340,19.2,-526.9333333333333,49.06666666666666
341,21.333333333333332,-518.4,53.333333333333336
342,19.2,-524.8,59.733333333333334
343,21.333333333333332,-522.6666666666666,49.06666666666666
344,10.666666666666666,-524.8,59.733333333333334
345,12.8,-518.4,55.46666666666667
346,10.666666666666666,-522.6666666666666,55.46666666666667
347,8.533333333333333,-524.8,55.46666666666667
348,14.933333333333334,-526.9333333333333,59.733333333333334
349,12.8,-524.8,68.26666666666667
350,8.533333333333333,-531.2,66.13333333333333
351,8.533333333333333,-518.4,57.6
352,6.4,-522.6666666666666,51.2
353,14.933333333333334,-526.9333333333333,59.733333333333334
354,12.8,-526.9333333333333,53.333333333333336
355,14.933333333333334,-522.6666666666666,53.333333333333336
356,12.8,-522.6666666666666,49.06666666666666
357,21.333333333333332,-526.9333333333333,53.333333333333336
358,8.533333333333333,-520.5333333333333,53.333333333333336
359,21.333333333333332,-529.0666666666666,51.2
360,17.066666666666666,-514.1333333333333,68.26666666666667
361,12.8,-518.4,66.13333333333333
362,12.8,-522.6666666666666,57.6
363,19.2,-524.8,61.86666666666667
364,17.066666666666666,-524.8,66.13333333333333
365,10.666666666666666,-522.6666666666666,55.46666666666667
366,10.666666666666666,-524.8,49.06666666666666
367,6.4,-524.8,61.86666666666667
368,10.666666666666666,-522.6666666666666,59.733333333333334
369,8.533333333333333,-518.4,49.06666666666666
370,17.066666666666666,-531.2,70.4
371,4.266666666666667,-516.2666666666667,59.733333333333334
372,12.8,-526.9333333333333,55.46666666666667
373,8.533333333333333,-526.9333333333333,64.0
374,12.8,-524.8,53.333333333333336
375,17.066666666666666,-524.8,57.6
376,12.8,-524.8,59.733333333333334
377,10.666666666666666,-524.8,57.6
378,12.8,-526.9333333333333,61.86666666666667
379,14.933333333333334,-529.0666666666666,64.0
380,10.666666666666666,-526.9333333333333,61.86666666666667
381,10.666666666666666,-531.2,49.06666666666666
382,10.666666666666666,-533.3333333333334,57.6
383,12.8,-531.2,53.333333333333336
384,10.666666666666666,-524.8,61.86666666666667
385,4.266666666666667,-518.4,57.6
386,8.533333333333333,-518.4,59.733333333333334
387,12.8,-520.5333333333333,51.2
388,6.4,-514.1333333333333,57.6
389,17.066666666666666,-529.0666666666666,55.46666666666667
390,19.2,-518.4,49.06666666666666
391,14.933333333333334,-526.9333333333333,55.46666666666667
392,10.666666666666666,-529.0666666666666,53.333333333333336
393,12.8,-516.2666666666667,55.46666666666667
394,12.8,-518.4,59.733333333333334
395,12.8,-520.5333333333333,61.86666666666667
396,17.066666666666666,-520.5333333333333,61.86666666666667
397,10.666666666666666,-526.9333333333333,55.46666666666667
398,14.933333333333334,-524.8,53.333333333333336
399,12.8,-520.5333333333333,57.6
400,19.2,-529.0666666666666,57.6
401,12.8,-526.9333333333333,57.6
402,17.066666666666666,-531.2,64.0
403,6.4,-535.4666666666667,53.333333333333336
404,10.666666666666666,-524.8,53.333333333333336
405,6.4,-524.8,55.46666666666667
406,10.666666666666666,-520.5333333333333,49.06666666666666
407,8.533333333333333,-518.4,57.6
408,8.533333333333333,-520.5333333333333,53.333333333333336
409,17.066666666666666,-529.0666666666666,53.333333333333336
410,19.2,-524.8,46.93333333333333
411,10.666666666666666,-522.6666666666666,42.666666666666664
412,14.933333333333334,-520.5333333333333,57.6
413,8.533333333333333,-522.6666666666666,55.46666666666667
414,12.8,-520.5333333333333,55.46666666666667
415,10.666666666666666,-520.5333333333333,49.06666666666666
416,8.533333333333333,-522.6666666666666,53.333333333333336
417,6.4,-518.4,44.8
418,8.533333333333333,-520.5333333333333,49.06666666666666
419,6.4,-520.5333333333333,55.46666666666667
420,6.4,-529.0666666666666,53.333333333333336
421,17.066666666666666,-531.2,53.333333333333336
422,12.8,-529.0666666666666,57.6
423,17.066666666666666,-526.9333333333333,55.46666666666667
424,10.666666666666666,-520.5333333333333,57.6
425,4.266666666666667,-526.9333333333333,51.2
426,14.933333333333334,-531.2,53.333333333333336
427,8.533333333333333,-518.4,51.2
428,10.666666666666666,-522.6666666666666,53.333333333333336
429,14.933333333333334,-522.6666666666666,59.733333333333334
430,14.933333333333334,-524.8,55.46666666666667
431,10.666666666666666,-520.5333333333333,51.2
432,8.533333333333333,-520.5333333333333,55.46666666666667
433,14.933333333333334,-518.4,53.333333333333336
434,8.533333333333333,-518.4,46.93333333333333
435,12.8,-520.5333333333333,51.2
436,14.933333333333334,-524.8,57.6
437,17.066666666666666,-518.4,44.8
438,12.8,-522.6666666666666,53.333333333333336
439,14.933333333333334,-518.4,53.333333333333336
440,14.933333333333334,-522.6666666666666,49.06666666666666
441,17.066666666666666,-529.0666666666666,49.06666666666666
442,23.466666666666665,-522.6666666666666,51.2
443,19.2,-518.4,51.2
444,17.066666666666666,-522.6666666666666,55.46666666666667
445,12.8,-520.5333333333333,57.6
446,10.666666666666666,-522.6666666666666,40.53333333333333
447,14.933333333333334,-522.6666666666666,59.733333333333334
448,10.666666666666666,-516.2666666666667,51.2
449,14.933333333333334,-520.5333333333333,46.93333333333333
450,10.666666666666666,-518.4,59.733333333333334
451,14.933333333333334,-522.6666666666666,44.8
452,12.8,-516.2666666666667,57.6
453,8.533333333333333,-526.9333333333333,49.06666666666666
454,19.2,-524.8,49.06666666666666
455,19.2,-520.5333333333333,57.6
456,10.666666666666666,-514.1333333333333,46.93333333333333
457,19.2,-522.6666666666666,68.26666666666667
458,14.933333333333334,-522.6666666666666,46.93333333333333
459,14.933333333333334,-524.8,53.333333333333336
460,19.2,-524.8,51.2
461,17.066666666666666,-529.0666666666666,51.2
462,19.2,-518.4,55.46666666666667
463,17.066666666666666,-526.9333333333333,53.333333333333336
464,12.8,-524.8,53.333333333333336
465,6.4,-529.0666666666666,49.06666666666666
466,14.933333333333334,-524.8,59.733333333333334
467,6.4,-518.4,55.46666666666667
468,14.933333333333334,-522.6666666666666,46.93333333333333
469,17.066666666666666,-529.0666666666666,59.733333333333334
470,8.533333333333333,-526.9333333333333,55.46666666666667
471,12.8,-526.9333333333333,49.06666666666666
472,14.933333333333334,-526.9333333333333,57.6
473,10.666666666666666,-531.2,55.46666666666667
474,8.533333333333333,-531.2,55.46666666666667
475,6.4,-529.0666666666666,61.86666666666667
476,14.933333333333334,-531.2,55.46666666666667
477,8.533333333333333,-529.0666666666666,66.13333333333333
478,14.933333333333334,-533.3333333333334,61.86666666666667
479,10.666666666666666,-524.8,64.0
480,10.666666666666666,-526.9333333333333,64.0
481,12.8,-526.9333333333333,53.333333333333336
482,12.8,-524.8,53.333333333333336
483,6.4,-529.0666666666666,53.333333333333336
484,6.4,-526.9333333333333,51.2
485,0.0,-520.5333333333333,51.2
486,8.533333333333333,-522.6666666666666,55.46666666666667
487,8.533333333333333,-524.8,53.333333333333336
488,10.666666666666666,-531.2,59.733333333333334
489,6.4,-512.0,38.4
490,14.933333333333334,-520.5333333333333,59.733333333333334
491,10.666666666666666,-516.2666666666667,53.333333333333336
492,10.666666666666666,-518.4,55.46666666666667
493,10.666666666666666,-518.4,57.6
494,8.533333333333333,-524.8,55.46666666666667
495,14.933333333333334,-520.5333333333333,55.46666666666667
496,10.666666666666666,-516.2666666666667,61.86666666666667
497,12.8,-522.6666666666666,55.46666666666667
498,21.333333333333332,-524.8,49.06666666666666
499,12.8,-526.9333333333333,55.46666666666667
500,42.666666666666664,-529.0666666666666,57.6
501,14.933333333333334,-526.9333333333333,53.333333333333336
502,6.4,-524.8,51.2
503,12.8,-529.0666666666666,51.2
504,6.4,-524.8,51.2
505,19.2,-529.0666666666666,49.06666666666666
506,14.933333333333334,-531.2,55.46666666666667
507,2.1333333333333333,-531.2,55.46666666666667
508,8.533333333333333,-533.3333333333334,51.2
509,10.666666666666666,-529.0666666666666,53.333333333333336
510,12.8,-533.3333333333334,53.333333333333336
511,6.4,-524.8,49.06666666666666
512,-2.1333333333333333,-529.0666666666666,53.333333333333336
513,8.533333333333333,-524.8,53.333333333333336
514,4.266666666666667,-529.0666666666666,53.333333333333336
515,8.533333333333333,-526.9333333333333,49.06666666666666
516,6.4,-522.6666666666666,42.666666666666664
517,8.533333333333333,-522.6666666666666,49.06666666666666
518,14.933333333333334,-516.2666666666667,36.266666666666666
519,17.066666666666666,-526.9333333333333,53.333333333333336
520,10.666666666666666,-516.2666666666667,44.8
521,12.8,-520.5333333333333,38.4
522,21.333333333333332,-518.4,53.333333333333336
523,17.066666666666666,-512.0,49.06666666666666
524,21.333333333333332,-524.8,46.93333333333333
525,19.2,-520.5333333333333,51.2
526,27.733333333333334,-522.6666666666666,53.333333333333336
527,21.333333333333332,-520.5333333333333,61.86666666666667
528,12.8,-516.2666666666667,51.2
529,25.6,-524.8,55.46666666666667
530,23.466666666666665,-526.9333333333333,61.86666666666667
531,14.933333333333334,-522.6666666666666,40.53333333333333
532,21.333333333333332,-537.6,49.06666666666666
533,17.066666666666666,-524.8,66.13333333333333
534,21.333333333333332,-524.8,51.2
535,17.066666666666666,-524.8,55.46666666666667
536,17.066666666666666,-520.5333333333333,59.733333333333334
537,23.466666666666665,-524.8,49.06666666666666
538,12.8,-520.5333333333333,57.6
539,21.333333333333332,-516.2666666666667,51.2
540,21.333333333333332,-512.0,61.86666666666667
541,21.333333333333332,-526.9333333333333,59.733333333333334
542,21.333333333333332,-516.2666666666667,51.2
543,12.8,-518.4,61.86666666666667
544,19.2,-524.8,64.0
545,17.066666666666666,-522.6666666666666,53.333333333333336
546,19.2,-529.0666666666666,44.8
547,17.066666666666666,-529.0666666666666,53.333333333333336
548,17.066666666666666,-518.4,53.333333333333336
549,19.2,-520.5333333333333,64.0
550,12.8,-514.1333333333333,46.93333333333333
551,14.933333333333334,-520.5333333333333,44.8
552,10.666666666666666,-518.4,46.93333333333333
553,8.533333333333333,-524.8,51.2
554,8.533333333333333,-516.2666666666667,51.2
555,8.533333333333333,-526.9333333333333,51.2
556,4.266666666666667,-524.8,46.93333333333333
557,10.666666666666666,-522.6666666666666,44.8
558,12.8,-522.6666666666666,36.266666666666666
559,2.1333333333333333,-520.5333333333333,40.53333333333333
560,2.1333333333333333,-526.9333333333333,44.8
561,12.8,-520.5333333333333,40.53333333333333
562,17.066666666666666,-529.0666666666666,51.2
563,10.666666666666666,-526.9333333333333,44.8
564,0.0,-531.2,40.53333333333333
565,2.1333333333333333,-520.5333333333333,44.8
566,6.4,-520.5333333333333,46.93333333333333
567,10.666666666666666,-529.0666666666666,42.666666666666664
568,12.8,-529.0666666666666,44.8
569,14.933333333333334,-526.9333333333333,57.6
570,6.4,-520.5333333333333,51.2
571,10.666666666666666,-518.4,42.666666666666664
572,2.1333333333333333,-518.4,53.333333333333336
573,10.666666666666666,-522.6666666666666,51.2
574,2.1333333333333333,-520.5333333333333,36.266666666666666
575,6.4,-522.6666666666666,46.93333333333333
576,10.666666666666666,-522.6666666666666,40.53333333333333
577,8.533333333333333,-529.0666666666666,49.06666666666666
578,14.933333333333334,-518.4,49.06666666666666
579,12.8,-522.6666666666666,51.2
580,10.666666666666666,-518.4,49.06666666666666
581,12.8,-516.2666666666667,49.06666666666666
582,14.933333333333334,-518.4,57.6
583,10.666666666666666,-514.1333333333333,53.333333333333336
584,14.933333333333334,-516.2666666666667,38.4
585,8.533333333333333,-516.2666666666667,55.46666666666667
586,10.666666666666666,-529.0666666666666,36.266666666666666
587,21.333333333333332,-524.8,57.6
588,10.666666666666666,-524.8,53.333333333333336
589,14.933333333333334,-524.8,46.93333333333333
590,12.8,-520.5333333333333,53.333333333333336
591,14.933333333333334,-529.0666666666666,51.2
592,17.066666666666666,-531.2,49.06666666666666
593,14.933333333333334,-524.8,49.06666666666666
594,8.533333333333333,-524.8,46.93333333333333
595,12.8,-520.5333333333333,51.2
596,10.666666666666666,-526.9333333333333,59.733333333333334
597,10.666666666666666,-529.0666666666666,44.8
598,10.666666666666666,-531.2,42.666666666666664
599,14.933333333333334,-522.6666666666666,49.06666666666666
600,10.666666666666666,-526.9333333333333,40.53333333333333
601,17.066666666666666,-522.6666666666666,49.06666666666666
602,8.533333333333333,-522.6666666666666,49.06666666666666
603,8.533333333333333,-518.4,42.666666666666664
604,19.2,-524.8,49.06666666666666
605,10.666666666666666,-526.9333333333333,55.46666666666667
606,12.8,-518.4,40.53333333333333
607,10.666666666666666,-533.3333333333334,46.93333333333333
608,12.8,-533.3333333333334,40.53333333333333
609,12.8,-531.2,57.6
610,12.8,-526.9333333333333,49.06666666666666
611,12.8,-533.3333333333334,49.06666666666666
612,2.1333333333333333,-531.2,46.93333333333333
613,8.533333333333333,-529.0666666666666,46.93333333333333
614,4.266666666666667,-535.4666666666667,49.06666666666666
615,8.533333333333333,-533.3333333333334,49.06666666666666
616,10.666666666666666,-533.3333333333334,38.4
617,4.266666666666667,-518.4,46.93333333333333
618,14.933333333333334,-537.6,44.8
619,12.8,-524.8,38.4
620,6.4,-526.9333333333333,49.06666666666666
621,17.066666666666666,-531.2,44.8
622,8.533333333333333,-524.8,51.2
623,8.533333333333333,-524.8,38.4
624,12.8,-529.0666666666666,40.53333333333333
625,10.666666666666666,-522.6666666666666,44.8
626,12.8,-531.2,46.93333333333333
627,14.933333333333334,-529.0666666666666,32.0
628,8.533333333333333,-520.5333333333333,40.53333333333333
629,10.666666666666666,-529.0666666666666,34.13333333333333
630,14.933333333333334,-520.5333333333333,40.53333333333333
631,12.8,-524.8,42.666666666666664
632,14.933333333333334,-520.5333333333333,44.8
633,6.4,-524.8,44.8
634,6.4,-524.8,46.93333333333333
635,10.666666666666666,-522.6666666666666,40.53333333333333
636,8.533333333333333,-524.8,32.0
637,12.8,-518.4,44.8
638,6.4,-518.4,40.53333333333333
639,17.066666666666666,-520.5333333333333,40.53333333333333
640,10.666666666666666,-529.0666666666666,34.13333333333333
641,14.933333333333334,-524.8,42.666666666666664
642,17.066666666666666,-531.2,38.4
643,14.933333333333334,-529.0666666666666,46.93333333333333
644,12.8,-522.6666666666666,40.53333333333333
645,12.8,-526.9333333333333,49.06666666666666
646,10.666666666666666,-526.9333333333333,51.2
647,10.666666666666666,-522.6666666666666,38.4
648,10.666666666666666,-526.9333333333333,42.666666666666664
649,8.533333333333333,-526.9333333333333,44.8
650,6.4,-526.9333333333333,53.333333333333336
651,12.8,-529.0666666666666,46.93333333333333
652,17.066666666666666,-520.5333333333333,44.8
653,14.933333333333334,-518.4,46.93333333333333
654,21.333333333333332,-526.9333333333333,53.333333333333336
655,12.8,-520.5333333333333,44.8
656,21.333333333333332,-522.6666666666666,51.2
657,23.466666666666665,-520.5333333333333,51.2
658,23.466666666666665,-524.8,51.2
659,19.2,-520.5333333333333,42.666666666666664
660,21.333333333333332,-518.4,53.333333333333336
661,8.533333333333333,-524.8,36.266666666666666
662,14.933333333333334,-520.5333333333333,42.666666666666664
663,19.2,-522.6666666666666,51.2
664,21.333333333333332,-524.8,49.06666666666666
665,17.066666666666666,-520.5333333333333,49.06666666666666
666,14.933333333333334,-522.6666666666666,46.93333333333333
667,17.066666666666666,-531.2,46.93333333333333
668,14.933333333333334,-529.0666666666666,40.53333333333333
669,19.2,-526.9333333333333,38.4
670,10.666666666666666,-522.6666666666666,42.666666666666664
671,14.933333333333334,-518.4,51.2
672,12.8,-533.3333333333334,51.2
673,17.066666666666666,-526.9333333333333,44.8
674,17.066666666666666,-531.2,40.53333333333333
675,12.8,-524.8,49.06666666666666
676,12.8,-520.5333333333333,49.06666666666666
677,10.666666666666666,-526.9333333333333,51.2
678,10.666666666666666,-531.2,49.06666666666666
679,8.533333333333333,-524.8,49.06666666666666
680,4.266666666666667,-522.6666666666666,57.6
681,4.266666666666667,-518.4,53.333333333333336
682,14.933333333333334,-516.2666666666667,51.2
683,0.0,-520.5333333333333,59.733333333333334
684,10.666666666666666,-522.6666666666666,59.733333333333334
685,6.4,-524.8,57.6
686,10.666666666666666,-522.6666666666666,55.46666666666667
687,12.8,-526.9333333333333,49.06666666666666
688,10.666666666666666,-520.5333333333333,55.46666666666667
689,4.266666666666667,-518.4,55.46666666666667
690,8.533333333333333,-526.9333333333333,53.333333333333336
691,8.533333333333333,-522.6666666666666,42.666666666666664
692,4.266666666666667,-524.8,61.86666666666667
693,14.933333333333334,-531.2,55.46666666666667
694,-2.1333333333333333,-526.9333333333333,34.13333333333333
695,8.533333333333333,-522.6666666666666,55.46666666666667
696,2.1333333333333333,-522.6666666666666,51.2
697,2.1333333333333333,-524.8,55.46666666666667
698,2.1333333333333333,-524.8,57.6
699,2.1333333333333333,-524.8,59.733333333333334
700,8.533333333333333,-524.8,66.13333333333333
701,6.4,-516.2666666666667,44.8
702,2.1333333333333333,-529.0666666666666,53.333333333333336
703,4.266666666666667,-526.9333333333333,51.2
704,-2.1333333333333333,-524.8,55.46666666666667
705,8.533333333333333,-526.9333333333333,57.6
706,-2.1333333333333333,-514.1333333333333,53.333333333333336
707,6.4,-524.8,57.6
708,10.666666666666666,-531.2,51.2
709,4.266666666666667,-529.0666666666666,46.93333333333333
710,6.4,-526.9333333333333,53.333333333333336
711,10.666666666666666,-518.4,57.6
712,6.4,-526.9333333333333,46.93333333333333
713,2.1333333333333333,-520.5333333333333,42.666666666666664
714,0.0,-520.5333333333333,46.93333333333333
715,6.4,-535.4666666666667,55.46666666666667
716,6.4,-524.8,53.333333333333336
717,4.266666666666667,-520.5333333333333,46.93333333333333
718,6.4,-518.4,51.2
719,4.266666666666667,-531.2,53.333333333333336
720,0.0,-522.6666666666666,55.46666666666667
721,8.533333333333333,-520.5333333333333,59.733333333333334
722,6.4,-520.5333333333333,51.2
723,6.4,-522.6666666666666,51.2
724,-2.1333333333333333,-518.4,55.46666666666667
725,10.666666666666666,-526.9333333333333,46.93333333333333
726,8.533333333333333,-522.6666666666666,55.46666666666667
727,4.266666666666667,-520.5333333333333,49.06666666666666
728,6.4,-522.6666666666666,55.46666666666667
729,6.4,-524.8,57.6
730,6.4,-526.9333333333333,42.666666666666664
731,4.266666666666667,-518.4,49.06666666666666
732,12.8,-529.0666666666666,51.2
733,6.4,-520.5333333333333,51.2
734,10.666666666666666,-520.5333333333333,49.06666666666666
735,8.533333333333333,-529.0666666666666,44.8
736,2.1333333333333333,-520.5333333333333,49.06666666666666
737,14.933333333333334,-518.4,32.0
738,2.1333333333333333,-520.5333333333333,49.06666666666666
739,6.4,-518.4,49.06666666666666
740,4.266666666666667,-522.6666666666666,53.333333333333336
741,8.533333333333333,-518.4,51.2
742,2.1333333333333333,-524.8,53.333333333333336
743,0.0,-520.5333333333333,46.93333333333333
744,8.533333333333333,-533.3333333333334,57.6
745,4.266666666666667,-524.8,49.06666666666666
746,10.666666666666666,-516.2666666666667,51.2
747,-8.533333333333333,-516.2666666666667,51.2
748,0.0,-529.0666666666666,51.2
749,4.266666666666667,-524.8,49.06666666666666
750,4.266666666666667,-520.5333333333333,53.333333333333336
751,4.266666666666667,-518.4,46.93333333333333
752,2.1333333333333333,-522.6666666666666,40.53333333333333
753,0.0,-512.0,49.06666666666666
754,6.4,-516.2666666666667,40.53333333333333
755,2.1333333333333333,-516.2666666666667,38.4
756,10.666666666666666,-522.6666666666666,53.333333333333336
757,4.266666666666667,-520.5333333333333,44.8
758,25.6,-518.4,57.6
759,8.533333333333333,-526.9333333333333,44.8
760,8.533333333333333,-529.0666666666666,44.8
761,4.266666666666667,-531.2,55.46666666666667
762,10.666666666666666,-526.9333333333333,55.46666666666667
763,14.933333333333334,-531.2,46.93333333333333
764,14.933333333333334,-535.4666666666667,44.8
765,17.066666666666666,-526.9333333333333,51.2
766,6.4,-535.4666666666667,51.2
767,19.2,-533.3333333333334,53.333333333333336
768,10.666666666666666,-533.3333333333334,38.4
769,4.266666666666667,-518.4,44.8
770,17.066666666666666,-535.4666666666667,38.4
771,17.066666666666666,-526.9333333333333,42.666666666666664
772,19.2,-526.9333333333333,42.666666666666664
773,19.2,-529.0666666666666,49.06666666666666
774,12.8,-520.5333333333333,42.666666666666664
775,14.933333333333334,-524.8,36.266666666666666
776,12.8,-514.1333333333333,40.53333333333333
777,10.666666666666666,-524.8,40.53333333333333
778,0.0,-514.1333333333333,40.53333333333333
779,2.1333333333333333,-522.6666666666666,51.2
780,14.933333333333334,-535.4666666666667,57.6
781,2.1333333333333333,-522.6666666666666,49.06666666666666
782,4.266666666666667,-522.6666666666666,44.8
783,4.266666666666667,-518.4,40.53333333333333
784,6.4,-522.6666666666666,34.13333333333333
785,-4.266666666666667,-518.4,40.53333333333333
786,6.4,-522.6666666666666,46.93333333333333
787,4.266666666666667,-526.9333333333333,21.333333333333332
788,2.1333333333333333,-518.4,34.13333333333333
789,12.8,-531.2,23.466666666666665
790,12.8,-529.0666666666666,36.266666666666666
791,23.466666666666665,-524.8,32.0
792,17.066666666666666,-531.2,34.13333333333333
793,12.8,-522.6666666666666,34.13333333333333
794,14.933333333333334,-524.8,34.13333333333333
795,17.066666666666666,-526.9333333333333,34.13333333333333
796,17.066666666666666,-522.6666666666666,34.13333333333333
797,8.533333333333333,-520.5333333333333,32.0
798,6.4,-518.4,27.733333333333334
799,17.066666666666666,-522.6666666666666,29.866666666666667
800,10.666666666666666,-520.5333333333333,36.266666666666666
801,23.466666666666665,-524.8,38.4
802,8.533333333333333,-522.6666666666666,21.333333333333332
803,8.533333333333333,-518.4,23.466666666666665
804,4.266666666666667,-526.9333333333333,21.333333333333332
805,2.1333333333333333,-522.6666666666666,23.466666666666665
806,6.4,-524.8,29.866666666666667
807,2.1333333333333333,-526.9333333333333,29.866666666666667
808,6.4,-526.9333333333333,21.333333333333332
809,14.933333333333334,-529.0666666666666,29.866666666666667
810,6.4,-520.5333333333333,21.333333333333332
811,8.533333333333333,-524.8,27.733333333333334
812,-2.1333333333333333,-507.73333333333335,25.6
813,2.1333333333333333,-518.4,21.333333333333332
814,4.266666666666667,-516.2666666666667,14.933333333333334
815,8.533333333333333,-518.4,19.2
816,4.266666666666667,-512.0,29.866666666666667
817,6.4,-509.8666666666667,19.2
818,8.533333333333333,-512.0,23.466666666666665
819,8.533333333333333,-514.1333333333333,17.066666666666666
820,2.1333333333333333,-509.8666666666667,19.2
821,8.533333333333333,-518.4,10.666666666666666
822,8.533333333333333,-516.2666666666667,10.666666666666666
823,8.533333333333333,-524.8,6.4
824,12.8,-509.8666666666667,14.933333333333334
825,10.666666666666666,-512.0,19.2
826,10.666666666666666,-518.4,21.333333333333332
827,17.066666666666666,-518.4,4.266666666666667
828,12.8,-507.73333333333335,4.266666666666667
829,19.2,-518.4,14.933333333333334
830,14.933333333333334,-509.8666666666667,23.466666666666665
831,10.666666666666666,-509.8666666666667,8.533333333333333
832,19.2,-516.2666666666667,6.4
833,10.666666666666666,-514.1333333333333,-2.1333333333333333
834,19.2,-514.1333333333333,14.933333333333334
835,12.8,-509.8666666666667,4.266666666666667
836,14.933333333333334,-507.73333333333335,-4.266666666666667
837,10.666666666666666,-499.2,-6.4
838,8.533333333333333,-499.2,-2.1333333333333333
839,14.933333333333334,-497.06666666666666,-2.1333333333333333
840,14.933333333333334,-499.2,-2.1333333333333333
841,19.2,-507.73333333333335,12.8
842,25.6,-499.2,-8.533333333333333
843,12.8,-503.46666666666664,-4.266666666666667
844,14.933333333333334,-499.2,0.0
845,12.8,-512.0,2.1333333333333333
846,14.933333333333334,-499.2,-8.533333333333333
847,10.666666666666666,-499.2,-4.266666666666667
848,8.533333333333333,-499.2,-14.933333333333334
849,6.4,-494.93333333333334,-17.066666666666666
850,6.4,-492.8,-17.066666666666666
851,2.1333333333333333,-486.4,-17.066666666666666
852,4.266666666666667,-484.26666666666665,-21.333333333333332
853,4.266666666666667,-477.8666666666667,-23.466666666666665
854,6.4,-477.8666666666667,-27.733333333333334
855,10.666666666666666,-473.59999999999997,-21.333333333333332
856,14.933333333333334,-480.0,-23.466666666666665
857,19.2,-465.06666666666666,-32.0
858,23.466666666666665,-465.06666666666666,-27.733333333333334
859,19.2,-465.06666666666666,-29.866666666666667
860,19.2,-458.6666666666667,-23.466666666666665
861,27.733333333333334,-465.06666666666666,-32.0
862,21.333333333333332,-462.93333333333334,-36.266666666666666
863,23.466666666666665,-448.0,-32.0
864,32.0,-460.8,-29.866666666666667
865,25.6,-462.93333333333334,-32.0
866,25.6,-473.59999999999997,-25.6
867,29.866666666666667,-475.73333333333335,-27.733333333333334
868,23.466666666666665,-469.3333333333333,-36.266666666666666
869,29.866666666666667,-473.59999999999997,-34.13333333333333
870,23.466666666666665,-473.59999999999997,-27.733333333333334
871,34.13333333333333,-480.0,-32.0
872,25.6,-477.8666666666667,-29.866666666666667
873,29.866666666666667,-480.0,-42.666666666666664
874,27.733333333333334,-484.26666666666665,-42.666666666666664
875,21.333333333333332,-471.46666666666664,-49.06666666666666
876,19.2,-469.3333333333333,-44.8
877,-4.266666666666667,-465.06666666666666,-29.866666666666667
878,6.4,-473.59999999999997,-40.53333333333333
879,-6.4,-469.3333333333333,-40.53333333333333
880,-8.533333333333333,-467.2,-40.53333333333333
881,-8.533333333333333,-484.26666666666665,-23.466666666666665
882,-8.533333333333333,-488.5333333333333,-36.266666666666666
883,-6.4,-509.8666666666667,-29.866666666666667
884,-17.066666666666666,-507.73333333333335,-25.6
885,-8.533333333333333,-509.8666666666667,-34.13333333333333
886,-6.4,-512.0,-40.53333333333333
887,-2.1333333333333333,-507.73333333333335,-32.0
888,0.0,-516.2666666666667,-46.93333333333333
889,8.533333333333333,-507.73333333333335,-46.93333333333333
890,10.666666666666666,-505.59999999999997,-51.2
891,10.666666666666666,-507.73333333333335,-44.8
892,14.933333333333334,-501.3333333333333,-57.6
893,12.8,-499.2,-51.2
894,14.933333333333334,-505.59999999999997,-59.733333333333334
895,21.333333333333332,-507.73333333333335,-49.06666666666666
896,19.2,-507.73333333333335,-57.6
897,25.6,-505.59999999999997,-61.86666666666667
898,14.933333333333334,-503.46666666666664,-59.733333333333334
899,25.6,-516.2666666666667,-51.2
900,10.666666666666666,-505.59999999999997,-64.0
901,8.533333333333333,-514.1333333333333,-59.733333333333334
902,17.066666666666666,-520.5333333333333,-66.13333333333333
903,6.4,-526.9333333333333,-74.66666666666667
904,4.266666666666667,-533.3333333333334,-74.66666666666667
905,4.266666666666667,-535.4666666666667,-74.66666666666667
906,0.0,-535.4666666666667,-74.66666666666667
907,6.4,-537.6,-70.4
908,10.666666666666666,-537.6,-78.93333333333334
909,17.066666666666666,-546.1333333333333,-87.46666666666667
910,8.533333333333333,-535.4666666666667,-93.86666666666666
911,8.533333333333333,-537.6,-87.46666666666667
912,6.4,-539.7333333333333,-96.0
913,12.8,-544.0,-93.86666666666666
914,14.933333333333334,-537.6,-91.73333333333333
915,8.533333333333333,-533.3333333333334,-85.33333333333333
916,12.8,-539.7333333333333,-85.33333333333333
917,10.666666666666666,-544.0,-98.13333333333333
918,12.8,-544.0,-93.86666666666666
919,19.2,-539.7333333333333,-96.0
920,12.8,-537.6,-89.6
921,23.466666666666665,-546.1333333333333,-100.26666666666667
922,23.466666666666665,-531.2,-100.26666666666667
923,23.466666666666665,-529.0666666666666,-106.66666666666667
924,29.866666666666667,-531.2,-108.8
925,34.13333333333333,-531.2,-106.66666666666667
926,36.266666666666666,-539.7333333333333,-115.2
927,27.733333333333334,-533.3333333333334,-115.2
928,32.0,-541.8666666666667,-121.6
929,34.13333333333333,-544.0,-123.73333333333333
930,27.733333333333334,-546.1333333333333,-119.46666666666667
931,25.6,-548.2666666666667,-142.93333333333334
932,23.466666666666665,-546.1333333333333,-128.0
933,25.6,-552.5333333333333,-132.26666666666665
934,29.866666666666667,-556.8,-130.13333333333333
935,25.6,-552.5333333333333,-136.53333333333333
936,21.333333333333332,-556.8,-138.66666666666666
937,25.6,-546.1333333333333,-123.73333333333333
938,21.333333333333332,-548.2666666666667,-136.53333333333333
939,21.333333333333332,-544.0,-136.53333333333333
940,23.466666666666665,-546.1333333333333,-136.53333333333333
941,19.2,-535.4666666666667,-136.53333333333333
942,40.53333333333333,-537.6,-153.6
943,27.733333333333334,-537.6,-155.73333333333332
944,27.733333333333334,-535.4666666666667,-157.86666666666667
945,29.866666666666667,-529.0666666666666,-162.13333333333333
946,34.13333333333333,-520.5333333333333,-155.73333333333332
947,32.0,-520.5333333333333,-162.13333333333333
948,42.666666666666664,-516.2666666666667,-155.73333333333332
949,40.53333333333333,-516.2666666666667,-155.73333333333332
950,40.53333333333333,-505.59999999999997,-153.6
951,46.93333333333333,-492.8,-160.0
952,36.266666666666666,-492.8,-157.86666666666667
953,40.53333333333333,-488.5333333333333,-153.6
954,42.666666666666664,-480.0,-160.0
955,38.4,-469.3333333333333,-149.33333333333334
956,42.666666666666664,-465.06666666666666,-160.0
957,44.8,-460.8,-164.26666666666665
958,44.8,-467.2,-164.26666666666665
959,40.53333333333333,-460.8,-168.53333333333333
960,29.866666666666667,-469.3333333333333,-174.93333333333334
961,29.866666666666667,-460.8,-164.26666666666665
962,25.6,-454.4,-177.06666666666666
963,23.466666666666665,-456.5333333333333,-181.33333333333334
964,17.066666666666666,-445.8666666666667,-181.33333333333334
965,8.533333333333333,-443.73333333333335,-185.6
966,14.933333333333334,-445.8666666666667,-198.4
967,10.666666666666666,-445.8666666666667,-192.0
968,6.4,-439.46666666666664,-196.26666666666665
969,8.533333333333333,-437.3333333333333,-200.53333333333333
970,2.1333333333333333,-424.5333333333333,-181.33333333333334
971,0.0,-424.5333333333333,-179.2
972,4.266666666666667,-426.6666666666667,-189.86666666666667
973,6.4,-422.4,-179.2
974,6.4,-428.8,-174.93333333333334
975,8.533333333333333,-418.1333333333333,-179.2
976,10.666666666666666,-409.6,-168.53333333333333
977,19.2,-411.73333333333335,-181.33333333333334
978,19.2,-401.06666666666666,-189.86666666666667
979,23.466666666666665,-409.6,-192.0
980,29.866666666666667,-401.06666666666666,-198.4
981,36.266666666666666,-401.06666666666666,-213.33333333333334
982,29.866666666666667,-409.6,-206.93333333333334
983,27.733333333333334,-416.0,-213.33333333333334
984,12.8,-413.8666666666667,-215.46666666666667
985,6.4,-424.5333333333333,-217.6
986,17.066666666666666,-443.73333333333335,-215.46666666666667
987,25.6,-448.0,-211.2
988,23.466666666666665,-452.26666666666665,-215.46666666666667
989,17.066666666666666,-456.5333333333333,-209.06666666666666
990,19.2,-454.4,-217.6
991,21.333333333333332,-443.73333333333335,-230.4
992,19.2,-437.3333333333333,-232.53333333333333
993,4.266666666666667,-437.3333333333333,-241.06666666666666
994,14.933333333333334,-443.73333333333335,-249.6
995,19.2,-439.46666666666664,-253.86666666666667
996,17.066666666666666,-458.6666666666667,-251.73333333333332
997,17.066666666666666,-452.26666666666665,-260.26666666666665
998,12.8,-452.26666666666665,-245.33333333333334
999,17.066666666666666,-454.4,-251.73333333333332
1000,14.933333333333334,-462.93333333333334,-249.6
1001,4.266666666666667,-475.73333333333335,-241.06666666666666
1002,17.066666666666666,-482.1333333333333,-238.93333333333334
1003,27.733333333333334,-484.26666666666665,-264.5333333333333
1004,25.6,-477.8666666666667,-268.8
1005,14.933333333333334,-473.59999999999997,-275.2
1006,21.333333333333332,-480.0,-273.06666666666666
1007,23.466666666666665,-482.1333333333333,-268.8
1008,23.466666666666665,-488.5333333333333,-281.6
1009,23.466666666666665,-484.26666666666665,-277.3333333333333
1010,19.2,-473.59999999999997,-290.1333333333333
1011,17.066666666666666,-482.1333333333333,-292.26666666666665
1012,10.666666666666666,-477.8666666666667,-294.4
1013,21.333333333333332,-480.0,-294.4
1014,19.2,-490.6666666666667,-300.8
1015,27.733333333333334,-499.2,-298.6666666666667
1016,36.266666666666666,-501.3333333333333,-305.06666666666666
1017,38.4,-507.73333333333335,-305.06666666666666
1018,46.93333333333333,-509.8666666666667,-305.06666666666666
1019,38.4,-501.3333333333333,-313.6
1020,40.53333333333333,-499.2,-300.8
1021,44.8,-499.2,-309.3333333333333
1022,36.266666666666666,-501.3333333333333,-302.93333333333334
1023,42.666666666666664,-501.3333333333333,-313.6
1024,36.266666666666666,-505.59999999999997,-320.0
1025,34.13333333333333,-501.3333333333333,-317.8666666666667
1026,38.4,-497.06666666666666,-337.06666666666666
1027,36.266666666666666,-484.26666666666665,-341.3333333333333
1028,36.266666666666666,-480.0,-326.4
1029,32.0,-471.46666666666664,-328.5333333333333
1030,34.13333333333333,-460.8,-339.2
1031,27.733333333333334,-448.0,-356.26666666666665
1032,19.2,-445.8666666666667,-360.5333333333333
1033,23.466666666666665,-450.1333333333333,-362.6666666666667
1034,25.6,-456.5333333333333,-356.26666666666665
1035,23.466666666666665,-465.06666666666666,-371.2
1036,12.8,-467.2,-371.2
1037,19.2,-486.4,-364.8
1038,12.8,-488.5333333333333,-362.6666666666667
1039,10.666666666666666,-501.3333333333333,-360.5333333333333
1040,23.466666666666665,-499.2,-369.06666666666666
1041,12.8,-494.93333333333334,-366.93333333333334
1042,17.066666666666666,-488.5333333333333,-356.26666666666665
1043,14.933333333333334,-473.59999999999997,-366.93333333333334
1044,21.333333333333332,-458.6666666666667,-366.93333333333334
1045,8.533333333333333,-460.8,-356.26666666666665
1046,21.333333333333332,-441.59999999999997,-375.46666666666664
1047,21.333333333333332,-437.3333333333333,-366.93333333333334
1048,29.866666666666667,-452.26666666666665,-373.3333333333333
1049,34.13333333333333,-445.8666666666667,-386.1333333333333
1050,23.466666666666665,-430.93333333333334,-386.1333333333333
1051,38.4,-433.06666666666666,-384.0
1052,25.6,-448.0,-392.5333333333333
1053,23.466666666666665,-439.46666666666664,-390.4
1054,27.733333333333334,-448.0,-388.26666666666665
1055,23.466666666666665,-454.4,-381.8666666666667
1056,36.266666666666666,-454.4,-394.6666666666667
1057,29.866666666666667,-437.3333333333333,-401.06666666666666
1058,29.866666666666667,-435.2,-401.06666666666666
1059,36.266666666666666,-413.8666666666667,-418.1333333333333
1060,40.53333333333333,-418.1333333333333,-420.26666666666665
1061,32.0,-411.73333333333335,-426.6666666666667
1062,25.6,-420.26666666666665,-401.06666666666666
1063,34.13333333333333,-420.26666666666665,-407.46666666666664
1064,25.6,-418.1333333333333,-407.46666666666664
1065,17.066666666666666,-422.4,-401.06666666666666
1066,21.333333333333332,-420.26666666666665,-407.46666666666664
1067,14.933333333333334,-418.1333333333333,-405.3333333333333
1068,10.666666666666666,-420.26666666666665,-401.06666666666666
1069,8.533333333333333,-416.0,-396.8
1070,8.533333333333333,-416.0,-384.0
1071,6.4,-407.46666666666664,-390.4
1072,-4.266666666666667,-405.3333333333333,-398.93333333333334
1073,-2.1333333333333333,-396.8,-411.73333333333335
1074,-4.266666666666667,-377.6,-428.8
1075,2.1333333333333333,-362.6666666666667,-433.06666666666666
1076,6.4,-366.93333333333334,-433.06666666666666
1077,14.933333333333334,-358.4,-445.8666666666667
1078,12.8,-349.8666666666667,-435.2
1079,25.6,-354.1333333333333,-439.46666666666664
1080,29.866666666666667,-366.93333333333334,-441.59999999999997
1081,25.6,-366.93333333333334,-441.59999999999997
1082,36.266666666666666,-362.6666666666667,-448.0
1083,55.46666666666667,-373.3333333333333,-441.59999999999997
1084,27.733333333333334,-379.73333333333335,-437.3333333333333
1085,32.0,-358.4,-433.06666666666666
1086,19.2,-352.0,-437.3333333333333
1087,23.466666666666665,-352.0,-428.8
1088,6.4,-349.8666666666667,-424.5333333333333
1089,4.266666666666667,-341.3333333333333,-428.8
1090,-2.1333333333333333,-330.6666666666667,-424.5333333333333
1091,-6.4,-324.26666666666665,-420.26666666666665
1092,-8.533333333333333,-315.73333333333335,-416.0
1093,-8.533333333333333,-317.8666666666667,-435.2
1094,-4.266666666666667,-320.0,-428.8
1095,2.1333333333333333,-302.93333333333334,-443.73333333333335
1096,10.666666666666666,-300.8,-448.0
1097,17.066666666666666,-300.8,-448.0
1098,25.6,-298.6666666666667,-454.4
1099,36.266666666666666,-309.3333333333333,-467.2
1100,49.06666666666666,-313.6,-469.3333333333333
1101,57.6,-320.0,-473.59999999999997
1102,64.0,-317.8666666666667,-480.0
1103,53.333333333333336,-328.5333333333333,-477.8666666666667
1104,51.2,-313.6,-465.06666666666666
1105,46.93333333333333,-320.0,-480.0
1106,34.13333333333333,-315.73333333333335,-465.06666666666666
1107,25.6,-313.6,-467.2
1108,19.2,-305.06666666666666,-465.06666666666666
1109,17.066666666666666,-300.8,-456.5333333333333
1110,-6.4,-285.8666666666667,-445.8666666666667
1111,-6.4,-273.06666666666666,-437.3333333333333
1112,-17.066666666666666,-277.3333333333333,-426.6666666666667
1113,-8.533333333333333,-270.93333333333334,-433.06666666666666
1114,-12.8,-266.6666666666667,-420.26666666666665
1115,-8.533333333333333,-277.3333333333333,-426.6666666666667
1116,-6.4,-264.5333333333333,-430.93333333333334
1117,-4.266666666666667,-258.1333333333333,-426.6666666666667
1118,6.4,-264.5333333333333,-422.4
1119,8.533333333333333,-268.8,-426.6666666666667
1120,10.666666666666666,-258.1333333333333,-428.8
1121,14.933333333333334,-264.5333333333333,-435.2
1122,12.8,-253.86666666666667,-445.8666666666667
1123,12.8,-260.26666666666665,-424.5333333333333
1124,8.533333333333333,-258.1333333333333,-426.6666666666667
1125,-6.4,-243.2,-420.26666666666665
1126,-4.266666666666667,-258.1333333333333,-424.5333333333333
1127,-8.533333333333333,-228.26666666666665,-407.46666666666664
1128,-8.533333333333333,-226.13333333333333,-401.06666666666666
1129,-12.8,-226.13333333333333,-392.5333333333333
1130,-8.533333333333333,-224.0,-379.73333333333335
1131,-10.666666666666666,-226.13333333333333,-388.26666666666665
1132,-8.533333333333333,-232.53333333333333,-394.6666666666667
1133,-14.933333333333334,-234.66666666666666,-392.5333333333333
1134,-6.4,-247.46666666666667,-384.0
1135,-4.266666666666667,-256.0,-386.1333333333333
1136,-17.066666666666666,-270.93333333333334,-364.8
1137,-8.533333333333333,-264.5333333333333,-366.93333333333334
1138,-12.8,-262.4,-358.4
1139,-21.333333333333332,-258.1333333333333,-332.8
1140,-25.6,-262.4,-330.6666666666667
1141,-14.933333333333334,-262.4,-300.8
1142,-10.666666666666666,-258.1333333333333,-283.73333333333335
1143,-6.4,-245.33333333333334,-256.0
1144,-8.533333333333333,-247.46666666666667,-247.46666666666667
1145,-4.266666666666667,-230.4,-219.73333333333332
1146,-2.1333333333333333,-226.13333333333333,-211.2
1147,2.1333333333333333,-219.73333333333332,-179.2
1148,0.0,-226.13333333333333,-164.26666666666665
1149,-4.266666666666667,-219.73333333333332,-164.26666666666665
1150,0.0,-232.53333333333333,-142.93333333333334
1151,-2.1333333333333333,-228.26666666666665,-132.26666666666665
1152,-4.266666666666667,-221.86666666666667,-113.06666666666666
1153,-6.4,-215.46666666666667,-91.73333333333333
1154,2.1333333333333333,-213.33333333333334,-93.86666666666666
1155,23.466666666666665,-209.06666666666666,-51.2
1156,14.933333333333334,-204.8,-23.466666666666665
1157,34.13333333333333,-192.0,-21.333333333333332
1158,32.0,-189.86666666666667,-4.266666666666667
1159,42.666666666666664,-168.53333333333333,44.8
1160,57.6,-157.86666666666667,115.2
1161,55.46666666666667,-157.86666666666667,183.46666666666667
1162,44.8,-157.86666666666667,228.26666666666665
1163,49.06666666666666,-157.86666666666667,283.73333333333335
1164,51.2,-160.0,275.2
1165,29.866666666666667,-174.93333333333334,247.46666666666667
1166,27.733333333333334,-213.33333333333334,174.93333333333334
1167,6.4,-241.06666666666666,55.46666666666667
1168,-6.4,-262.4,-36.266666666666666
1169,-40.53333333333333,-258.1333333333333,-130.13333333333333
1170,-49.06666666666666,-249.6,-147.2
1171,-44.8,-241.06666666666666,-113.06666666666666
1172,-51.2,-232.53333333333333,-68.26666666666667
1173,-53.333333333333336,-224.0,-32.0
1174,-64.0,-187.73333333333332,-12.8
1175,-53.333333333333336,-160.0,10.666666666666666
1176,-25.6,-121.6,42.666666666666664
1177,-8.533333333333333,-85.33333333333333,57.6
1178,-21.333333333333332,-51.2,29.866666666666667
1179,-21.333333333333332,-23.466666666666665,-68.26666666666667
1180,-51.2,27.733333333333334,-232.53333333333333
1181,-61.86666666666667,87.46666666666667,-416.0
1182,-78.93333333333334,134.4,-563.2
1183,-96.0,192.0,-731.7333333333333
1184,-132.26666666666665,253.86666666666667,-859.7333333333333
1185,-115.2,241.06666666666666,-953.6
1186,-57.6,1920.0,-2220.8
1187,-121.6,1390.9333333333334,-2414.9333333333334
1188,-70.4,1075.2,-2120.5333333333333
1189,-145.06666666666666,1094.4,-1525.3333333333333
1190,313.6,1856.0,-2274.133333333333
1191,369.06666666666666,1858.1333333333332,-1051.7333333333333
1192,315.73333333333335,1489.0666666666666,494.93333333333334
1193,334.93333333333334,586.6666666666666,113.06666666666666
1194,29.866666666666667,183.46666666666667,-938.6666666666666
1195,-1425.0666666666666,1386.6666666666667,-1794.1333333333332
1196,-889.6,881.0666666666666,-1885.8666666666666
1197,-153.6,181.33333333333334,-1747.2
1198,-68.26666666666667,548.2666666666667,-1864.5333333333333
1199,157.86666666666667,701.8666666666667,-1681.0666666666666
1200,-72.53333333333333,72.53333333333333,-1715.2
1201,-241.06666666666666,851.1999999999999,-2129.0666666666666
1202,-262.4,829.8666666666667,-1828.2666666666667
1203,-211.2,834.1333333333333,-1937.0666666666666
1204,-192.0,1365.3333333333333,-1834.6666666666667
1205,-128.0,620.8,-1651.2
1206,-232.53333333333333,731.7333333333333,-1681.0666666666666
1207,-106.66666666666667,488.5333333333333,-1474.1333333333332
1208,-221.86666666666667,832.0,-1331.2
1209,-55.46666666666667,341.3333333333333,-1045.3333333333333
1210,-121.6,243.2,-1000.5333333333333
1211,-12.8,409.6,-846.9333333333333
1212,-83.2,499.2,-772.2666666666667
1213,-29.866666666666667,145.06666666666666,-650.6666666666666
1214,-8.533333333333333,166.4,-701.8666666666667
1215,-166.4,102.4,-595.2
1216,8.533333333333333,-89.6,-501.3333333333333
1217,-189.86666666666667,108.8,-593.0666666666666
1218,38.4,-189.86666666666667,-492.8
1219,4.266666666666667,-217.6,-456.5333333333333
1220,-224.0,25.6,-426.6666666666667
1221,-36.266666666666666,6.4,-516.2666666666667
1222,-55.46666666666667,51.2,-582.4
1223,0.0,-34.13333333333333,-518.4
1224,-81.06666666666666,19.2,-388.26666666666665
1225,-249.6,170.66666666666666,-328.5333333333333
1226,-219.73333333333332,61.86666666666667,-258.1333333333333
1227,-142.93333333333334,155.73333333333332,-358.4
1228,-132.26666666666665,224.0,-375.46666666666664
1229,-192.0,360.5333333333333,-435.2
1230,-168.53333333333333,339.2,-379.73333333333335
1231,-132.26666666666665,426.6666666666667,-394.6666666666667
1232,-164.26666666666665,439.46666666666664,-418.1333333333333
1233,-200.53333333333333,516.2666666666667,-396.8
1234,-162.13333333333333,452.26666666666665,-349.8666666666667
1235,-177.06666666666666,488.5333333333333,-411.73333333333335
1236,-160.0,392.5333333333333,-288.0
1237,-172.8,435.2,-345.6
1238,-108.8,140.8,-277.3333333333333
1239,-93.86666666666666,32.0,-324.26666666666665
1240,-102.4,19.2,-334.93333333333334
1241,-96.0,17.066666666666666,-360.5333333333333
1242,-74.66666666666667,17.066666666666666,-403.2
1243,-87.46666666666667,19.2,-401.06666666666666
1244,-87.46666666666667,17.066666666666666,-409.6
1245,-100.26666666666667,29.866666666666667,-426.6666666666667
1246,-100.26666666666667,57.6,-435.2
1247,-104.53333333333333,51.2,-428.8
1248,-110.93333333333334,40.53333333333333,-477.8666666666667
1249,-132.26666666666665,44.8,-518.4
1250,-119.46666666666667,34.13333333333333,-552.5333333333333
1251,-132.26666666666665,44.8,-586.6666666666666
1252,-117.33333333333333,42.666666666666664,-597.3333333333334
1253,-160.0,42.666666666666664,-548.2666666666667
1254,-149.33333333333334,38.4,-558.9333333333333
1255,-138.66666666666666,38.4,-571.7333333333333
1256,-136.53333333333333,38.4,-580.2666666666667
1257,-149.33333333333334,42.666666666666664,-601.6
1258,-172.8,49.06666666666666,-640.0
1259,-194.13333333333333,8.533333333333333,-686.9333333333333
1260,-117.33333333333333,10.666666666666666,-686.9333333333333
1261,-142.93333333333334,12.8,-682.6666666666666
1262,-181.33333333333334,-2.1333333333333333,-678.4
1263,-142.93333333333334,19.2,-697.6
1264,-110.93333333333334,27.733333333333334,-650.6666666666666
1265,-147.2,19.2,-654.9333333333333
1266,-147.2,14.933333333333334,-654.9333333333333
1267,-128.0,25.6,-650.6666666666666
1268,-142.93333333333334,29.866666666666667,-646.4
1269,-130.13333333333333,12.8,-644.2666666666667
1270,-121.6,29.866666666666667,-608.0
1271,-119.46666666666667,10.666666666666666,-612.2666666666667
1272,-147.2,19.2,-637.8666666666667
1273,-108.8,17.066666666666666,-571.7333333333333
1274,-98.13333333333333,6.4,-573.8666666666667
1275,-121.6,29.866666666666667,-565.3333333333334
1276,-87.46666666666667,23.466666666666665,-539.7333333333333
1277,-102.4,17.066666666666666,-550.4
1278,-100.26666666666667,8.533333333333333,-518.4
1279,-98.13333333333333,2.1333333333333333,-507.73333333333335
1280,-93.86666666666666,-14.933333333333334,-507.73333333333335
1281,-89.6,-4.266666666666667,-501.3333333333333
1282,-85.33333333333333,25.6,-514.1333333333333
1283,-74.66666666666667,4.266666666666667,-482.1333333333333
1284,-76.8,-21.333333333333332,-488.5333333333333
1285,-85.33333333333333,-23.466666666666665,-499.2
1286,-66.13333333333333,4.266666666666667,-492.8
1287,-72.53333333333333,8.533333333333333,-497.06666666666666
1288,-70.4,-6.4,-477.8666666666667
1289,-72.53333333333333,-6.4,-480.0
1290,-81.06666666666666,-8.533333333333333,-475.73333333333335
1291,-74.66666666666667,4.266666666666667,-484.26666666666665
1292,-72.53333333333333,8.533333333333333,-486.4
1293,-81.06666666666666,19.2,-488.5333333333333
1294,-78.93333333333334,-4.266666666666667,-484.26666666666665
1295,-81.06666666666666,-4.266666666666667,-499.2
1296,-78.93333333333334,2.1333333333333333,-512.0
1297,-93.86666666666666,8.533333333333333,-531.2
1298,-83.2,4.266666666666667,-516.2666666666667
1299,-83.2,4.266666666666667,-524.8
1300,-85.33333333333333,6.4,-541.8666666666667
1301,-85.33333333333333,4.266666666666667,-546.1333333333333
1302,-89.6,14.933333333333334,-556.8
1303,-96.0,19.2,-563.2
1304,-96.0,14.933333333333334,-563.2
1305,-98.13333333333333,14.933333333333334,-569.6
1306,-93.86666666666666,19.2,-573.8666666666667
1307,-98.13333333333333,25.6,-584.5333333333333
1308,-89.6,19.2,-582.4
1309,-91.73333333333333,21.333333333333332,-584.5333333333333
1310,-89.6,14.933333333333334,-576.0
1311,-96.0,23.466666666666665,-569.6
1312,-96.0,25.6,-573.8666666666667
1313,-93.86666666666666,25.6,-573.8666666666667
1314,-98.13333333333333,25.6,-569.6
1315,-100.26666666666667,27.733333333333334,-569.6
1316,-89.6,21.333333333333332,-567.4666666666667
1317,-98.13333333333333,29.866666666666667,-556.8
1318,-100.26666666666667,17.066666666666666,-550.4
1319,-110.93333333333334,17.066666666666666,-561.0666666666666
1320,-100.26666666666667,32.0,-552.5333333333333
1321,-89.6,25.6,-552.5333333333333
1322,-85.33333333333333,27.733333333333334,-537.6
1323,-89.6,27.733333333333334,-546.1333333333333
1324,-93.86666666666666,29.866666666666667,-537.6
1325,-78.93333333333334,23.466666666666665,-533.3333333333334
1326,-100.26666666666667,25.6,-533.3333333333334
1327,-106.66666666666667,34.13333333333333,-529.0666666666666
1328,-93.86666666666666,34.13333333333333,-514.1333333333333
1329,-91.73333333333333,34.13333333333333,-501.3333333333333
1330,-98.13333333333333,27.733333333333334,-505.59999999999997
1331,-87.46666666666667,32.0,-507.73333333333335
1332,-85.33333333333333,32.0,-514.1333333333333
1333,-85.33333333333333,21.333333333333332,-514.1333333333333
1334,-96.0,19.2,-535.4666666666667
1335,-87.46666666666667,21.333333333333332,-533.3333333333334
1336,-100.26666666666667,23.466666666666665,-531.2
1337,-100.26666666666667,19.2,-535.4666666666667
1338,-93.86666666666666,23.466666666666665,-526.9333333333333
1339,-93.86666666666666,27.733333333333334,-531.2
1340,-100.26666666666667,21.333333333333332,-541.8666666666667
1341,-100.26666666666667,21.333333333333332,-529.0666666666666
1342,-96.0,25.6,-531.2
1343,-91.73333333333333,21.333333333333332,-529.0666666666666
1344,-98.13333333333333,25.6,-537.6
1345,-96.0,25.6,-535.4666666666667
1346,-100.26666666666667,19.2,-535.4666666666667
1347,-93.86666666666666,19.2,-537.6
1348,-91.73333333333333,12.8,-550.4
1349,-93.86666666666666,17.066666666666666,-550.4
1350,-96.0,19.2,-563.2
1351,-81.06666666666666,12.8,-558.9333333333333
1352,-93.86666666666666,17.066666666666666,-554.6666666666666
1353,-89.6,19.2,-550.4
1354,-93.86666666666666,21.333333333333332,-556.8
1355,-87.46666666666667,23.466666666666665,-554.6666666666666
1356,-93.86666666666666,25.6,-561.0666666666666
1357,-89.6,27.733333333333334,-563.2
1358,-91.73333333333333,29.866666666666667,-561.0666666666666
1359,-93.86666666666666,21.333333333333332,-561.0666666666666
1360,-91.73333333333333,21.333333333333332,-554.6666666666666
1361,-87.46666666666667,25.6,-550.4
1362,-93.86666666666666,6.4,-548.2666666666667
1363,-91.73333333333333,27.733333333333334,-548.2666666666667
1364,-81.06666666666666,25.6,-550.4
1365,-83.2,23.466666666666665,-548.2666666666667
1366,-87.46666666666667,27.733333333333334,-548.2666666666667
1367,-87.46666666666667,32.0,-554.6666666666666
1368,-89.6,27.733333333333334,-548.2666666666667
1369,-85.33333333333333,29.866666666666667,-548.2666666666667
1370,-87.46666666666667,34.13333333333333,-539.7333333333333
1371,-76.8,27.733333333333334,-533.3333333333334
1372,-87.46666666666667,21.333333333333332,-533.3333333333334
1373,-87.46666666666667,23.466666666666665,-546.1333333333333
1374,-83.2,25.6,-535.4666666666667
1375,-87.46666666666667,25.6,-531.2
1376,-83.2,21.333333333333332,-537.6
1377,-87.46666666666667,21.333333333333332,-544.0
1378,-83.2,27.733333333333334,-537.6
1379,-76.8,23.466666666666665,-541.8666666666667
1380,-89.6,32.0,-539.7333333333333
1381,-83.2,32.0,-546.1333333333333
1382,-87.46666666666667,27.733333333333334,-544.0
1383,-91.73333333333333,25.6,-535.4666666666667
1384,-85.33333333333333,23.466666666666665,-535.4666666666667
1385,-83.2,23.466666666666665,-537.6
1386,-87.46666666666667,27.733333333333334,-546.1333333333333
1387,-91.73333333333333,27.733333333333334,-541.8666666666667
1388,-85.33333333333333,32.0,-548.2666666666667
1389,-91.73333333333333,27.733333333333334,-546.1333333333333
1390,-89.6,21.333333333333332,-537.6
1391,-81.06666666666666,21.333333333333332,-546.1333333333333
1392,-89.6,34.13333333333333,-537.6
1393,-72.53333333333333,21.333333333333332,-539.7333333333333
1394,-93.86666666666666,32.0,-541.8666666666667
1395,-85.33333333333333,19.2,-541.8666666666667
1396,-87.46666666666667,25.6,-546.1333333333333
1397,-83.2,19.2,-550.4
1398,-81.06666666666666,32.0,-546.1333333333333
1399,-85.33333333333333,25.6,-544.0
1400,-81.06666666666666,25.6,-539.7333333333333
1401,-83.2,21.333333333333332,-548.2666666666667
1402,-83.2,27.733333333333334,-541.8666666666667
1403,-85.33333333333333,27.733333333333334,-550.4
1404,-83.2,21.333333333333332,-550.4
1405,-85.33333333333333,23.466666666666665,-544.0
1406,-83.2,27.733333333333334,-554.6666666666666
1407,-85.33333333333333,27.733333333333334,-541.8666666666667
1408,-89.6,29.866666666666667,-546.1333333333333
1409,-81.06666666666666,32.0,-544.0
1410,-85.33333333333333,23.466666666666665,-548.2666666666667
1411,-83.2,32.0,-537.6
1412,-85.33333333333333,23.466666666666665,-541.8666666666667
1413,-81.06666666666666,27.733333333333334,-546.1333333333333
1414,-83.2,27.733333333333334,-546.1333333333333
1415,-81.06666666666666,17.066666666666666,-546.1333333333333
1416,-89.6,23.466666666666665,-541.8666666666667
1417,-85.33333333333333,25.6,-546.1333333333333
1418,-87.46666666666667,29.866666666666667,-544.0
1419,-91.73333333333333,34.13333333333333,-550.4
1420,-83.2,32.0,-544.0
1421,-83.2,21.333333333333332,-544.0
1422,-89.6,32.0,-539.7333333333333
1423,-85.33333333333333,25.6,-544.0
1424,-85.33333333333333,21.333333333333332,-537.6
1425,-87.46666666666667,29.866666666666667,-539.7333333333333
1426,-78.93333333333334,21.333333333333332,-535.4666666666667
1427,-93.86666666666666,29.866666666666667,-539.7333333333333
1428,-87.46666666666667,27.733333333333334,-537.6
1429,-85.33333333333333,27.733333333333334,-548.2666666666667
1430,-89.6,23.466666666666665,-541.8666666666667
1431,-89.6,29.866666666666667,-541.8666666666667
1432,-81.06666666666666,25.6,-544.0
1433,-81.06666666666666,25.6,-548.2666666666667
1434,-78.93333333333334,32.0,-537.6
1435,-85.33333333333333,27.733333333333334,-531.2
1436,-87.46666666666667,25.6,-548.2666666666667
1437,-83.2,29.866666666666667,-539.7333333333333
1438,-76.8,27.733333333333334,-539.7333333333333
1439,-66.13333333333333,21.333333333333332,-544.0
1440,-78.93333333333334,19.2,-522.6666666666666
1441,-81.06666666666666,36.266666666666666,-546.1333333333333
1442,-83.2,29.866666666666667,-541.8666666666667
1443,-81.06666666666666,27.733333333333334,-541.8666666666667
1444,-78.93333333333334,34.13333333333333,-544.0
1445,-93.86666666666666,25.6,-552.5333333333333
1446,-89.6,27.733333333333334,-537.6
1447,-85.33333333333333,14.933333333333334,-541.8666666666667
1448,-85.33333333333333,34.13333333333333,-541.8666666666667
1449,-89.6,29.866666666666667,-550.4
1450,-76.8,32.0,-541.8666666666667
1451,-78.93333333333334,29.866666666666667,-539.7333333333333
1452,-78.93333333333334,27.733333333333334,-541.8666666666667
1453,-85.33333333333333,23.466666666666665,-554.6666666666666
1454,-83.2,23.466666666666665,-546.1333333333333
1455,-85.33333333333333,32.0,-537.6
1456,-81.06666666666666,19.2,-541.8666666666667
1457,-87.46666666666667,29.866666666666667,-546.1333333333333
1458,-100.26666666666667,32.0,-544.0
1459,-87.46666666666667,25.6,-539.7333333333333
1460,-78.93333333333334,32.0,-539.7333333333333
1461,-78.93333333333334,27.733333333333334,-533.3333333333334
1462,-89.6,29.866666666666667,-548.2666666666667
1463,-83.2,23.466666666666665,-541.8666666666667
1464,-89.6,27.733333333333334,-541.8666666666667
1465,-81.06666666666666,25.6,-546.1333333333333
1466,-93.86666666666666,38.4,-552.5333333333333
1467,-87.46666666666667,25.6,-552.5333333333333
1468,-89.6,38.4,-546.1333333333333
1469,-87.46666666666667,27.733333333333334,-539.7333333333333
1470,-85.33333333333333,23.466666666666665,-548.2666666666667
1471,-89.6,34.13333333333333,-546.1333333333333
1472,-87.46666666666667,21.333333333333332,-537.6
1473,-81.06666666666666,23.466666666666665,-539.7333333333333
1474,-83.2,27.733333333333334,-537.6
1475,-83.2,23.466666666666665,-550.4
1476,-87.46666666666667,27.733333333333334,-544.0
1477,-83.2,34.13333333333333,-546.1333333333333
1478,-76.8,23.466666666666665,-535.4666666666667
1479,-89.6,32.0,-546.1333333333333
1480,-85.33333333333333,25.6,-544.0
1481,-87.46666666666667,34.13333333333333,-544.0
1482,-91.73333333333333,27.733333333333334,-544.0
1483,-83.2,27.733333333333334,-539.7333333333333
1484,-83.2,27.733333333333334,-548.2666666666667
1485,-85.33333333333333,25.6,-537.6
1486,-91.73333333333333,25.6,-539.7333333333333
1487,-89.6,32.0,-535.4666666666667
1488,-91.73333333333333,21.333333333333332,-539.7333333333333
1489,-85.33333333333333,27.733333333333334,-537.6
1490,-83.2,27.733333333333334,-529.0666666666666
1491,-72.53333333333333,32.0,-539.7333333333333
1492,-91.73333333333333,29.866666666666667,-535.4666666666667
1493,-85.33333333333333,21.333333333333332,-537.6
1494,-83.2,32.0,-533.3333333333334
1495,-83.2,32.0,-537.6
1496,-83.2,21.333333333333332,-539.7333333333333
1497,-89.6,23.466666666666665,-546.1333333333333
1498,-85.33333333333333,29.866666666666667,-546.1333333333333
1499,-81.06666666666666,32.0,-535.4666666666667
1500,-81.06666666666666,32.0,-561.0666666666666
1501,-85.33333333333333,29.866666666666667,-535.4666666666667
1502,-93.86666666666666,25.6,-546.1333333333333
1503,-78.93333333333334,34.13333333333333,-539.7333333333333
1504,-83.2,29.866666666666667,-546.1333333333333
1505,-83.2,29.866666666666667,-546.1333333333333
1506,-85.33333333333333,27.733333333333334,-541.8666666666667
1507,-87.46666666666667,32.0,-541.8666666666667
1508,-83.2,34.13333333333333,-544.0
1509,-83.2,32.0,-541.8666666666667
1510,-83.2,32.0,-546.1333333333333
1511,-57.6,19.2,-541.8666666666667
1512,-83.2,23.466666666666665,-548.2666666666667
1513,-85.33333333333333,25.6,-548.2666666666667
1514,-81.06666666666666,25.6,-544.0
1515,-87.46666666666667,38.4,-546.1333333333333
1516,-83.2,29.866666666666667,-541.8666666666667
1517,-81.06666666666666,27.733333333333334,-552.5333333333333
1518,-83.2,29.866666666666667,-554.6666666666666
1519,-81.06666666666666,19.2,-546.1333333333333
1520,-83.2,25.6,-554.6666666666666
1521,-74.66666666666667,25.6,-537.6
1522,-81.06666666666666,25.6,-550.4
1523,-76.8,25.6,-539.7333333333333
1524,-76.8,25.6,-546.1333333333333
1525,-89.6,32.0,-541.8666666666667
1526,-85.33333333333333,29.866666666666667,-529.0666666666666
1527,-83.2,32.0,-554.6666666666666
1528,-81.06666666666666,23.466666666666665,-544.0
1529,-83.2,25.6,-539.7333333333333
1530,-83.2,25.6,-544.0
1531,-83.2,29.866666666666667,-544.0
1532,-74.66666666666667,21.333333333333332,-544.0
1533,-74.66666666666667,32.0,-537.6
1534,-78.93333333333334,29.866666666666667,-544.0
1535,-74.66666666666667,29.866666666666667,-541.8666666666667
1536,-85.33333333333333,29.866666666666667,-544.0
1537,-81.06666666666666,36.266666666666666,-544.0
1538,-81.06666666666666,27.733333333333334,-539.7333333333333
1539,-81.06666666666666,27.733333333333334,-544.0
1540,-81.06666666666666,23.466666666666665,-546.1333333333333
1541,-76.8,29.866666666666667,-537.6
1542,-89.6,32.0,-554.6666666666666
1543,-89.6,32.0,-524.8
1544,-81.06666666666666,29.866666666666667,-541.8666666666667
1545,-85.33333333333333,32.0,-541.8666666666667
1546,-87.46666666666667,29.866666666666667,-548.2666666666667
1547,-87.46666666666667,36.266666666666666,-539.7333333333333
1548,-78.93333333333334,29.866666666666667,-546.1333333333333
1549,-81.06666666666666,25.6,-546.1333333333333
1550,-74.66666666666667,29.866666666666667,-541.8666666666667
1551,-81.06666666666666,29.866666666666667,-548.2666666666667
1552,-81.06666666666666,29.866666666666667,-548.2666666666667
1553,-78.93333333333334,21.333333333333332,-544.0
1554,-76.8,19.2,-518.4
1555,-81.06666666666666,27.733333333333334,-539.7333333333333
1556,-85.33333333333333,27.733333333333334,-544.0
1557,-83.2,27.733333333333334,-541.8666666666667
1558,-74.66666666666667,27.733333333333334,-552.5333333333333
1559,-78.93333333333334,29.866666666666667,-548.2666666666667
1560,-85.33333333333333,29.866666666666667,-541.8666666666667
1561,-85.33333333333333,23.466666666666665,-544.0
1562,-74.66666666666667,32.0,-546.1333333333333
1563,-87.46666666666667,36.266666666666666,-531.2
1564,-89.6,25.6,-550.4
1565,-78.93333333333334,25.6,-541.8666666666667
1566,-87.46666666666667,25.6,-544.0
1567,-85.33333333333333,29.866666666666667,-537.6
1568,-78.93333333333334,25.6,-544.0
1569,-85.33333333333333,32.0,-546.1333333333333
1570,-87.46666666666667,27.733333333333334,-550.4
1571,-89.6,29.866666666666667,-548.2666666666667
1572,-83.2,27.733333333333334,-541.8666666666667
1573,-81.06666666666666,27.733333333333334,-541.8666666666667
1574,-81.06666666666666,27.733333333333334,-533.3333333333334
1575,-76.8,29.866666666666667,-541.8666666666667
1576,-83.2,27.733333333333334,-546.1333333333333
1577,-85.33333333333333,32.0,-539.7333333333333
1578,-78.93333333333334,27.733333333333334,-546.1333333333333
1579,-76.8,25.6,-546.1333333333333
1580,-78.93333333333334,29.866666666666667,-539.7333333333333
1581,-85.33333333333333,25.6,-544.0
1582,-81.06666666666666,23.466666666666665,-546.1333333333333
1583,-89.6,25.6,-548.2666666666667
1584,-89.6,36.266666666666666,-548.2666666666667
1585,-74.66666666666667,32.0,-544.0
1586,-78.93333333333334,21.333333333333332,-563.2
1587,-89.6,34.13333333333333,-539.7333333333333
1588,-87.46666666666667,23.466666666666665,-541.8666666666667
1589,-87.46666666666667,25.6,-539.7333333333333
1590,-87.46666666666667,29.866666666666667,-544.0
1591,-83.2,21.333333333333332,-537.6
1592,-83.2,34.13333333333333,-535.4666666666667
1593,-81.06666666666666,32.0,-550.4
1594,-76.8,27.733333333333334,-537.6
1595,-78.93333333333334,27.733333333333334,-539.7333333333333
1596,-87.46666666666667,34.13333333333333,-535.4666666666667
1597,-89.6,27.733333333333334,-537.6
1598,-87.46666666666667,23.466666666666665,-537.6
1599,-81.06666666666666,27.733333333333334,-544.0
1600,-81.06666666666666,27.733333333333334,-544.0
1601,-85.33333333333333,34.13333333333333,-535.4666666666667
1602,-81.06666666666666,27.733333333333334,-541.8666666666667
1603,-87.46666666666667,29.866666666666667,-544.0
1604,-89.6,34.13333333333333,-541.8666666666667
1605,-78.93333333333334,27.733333333333334,-550.4
1606,-76.8,29.866666666666667,-550.4
1607,-87.46666666666667,23.466666666666665,-548.2666666666667
1608,-85.33333333333333,29.866666666666667,-546.1333333333333
1609,-87.46666666666667,36.266666666666666,-535.4666666666667
1610,-81.06666666666666,36.266666666666666,-546.1333333333333
1611,-83.2,32.0,-544.0
1612,-85.33333333333333,32.0,-550.4
1613,-83.2,27.733333333333334,-546.1333333333333
1614,-83.2,32.0,-546.1333333333333
1615,-89.6,32.0,-539.7333333333333
1616,-87.46666666666667,29.866666666666667,-548.2666666666667
1617,-85.33333333333333,21.333333333333332,-544.0
1618,-83.2,40.53333333333333,-550.4
1619,-81.06666666666666,25.6,-546.1333333333333
1620,-78.93333333333334,32.0,-537.6
1621,-83.2,25.6,-539.7333333333333
1622,-85.33333333333333,29.866666666666667,-541.8666666666667
1623,-87.46666666666667,25.6,-544.0
1624,-78.93333333333334,32.0,-539.7333333333333
1625,-76.8,29.866666666666667,-539.7333333333333
1626,-78.93333333333334,21.333333333333332,-539.7333333333333
1627,-85.33333333333333,34.13333333333333,-533.3333333333334
1628,-91.73333333333333,36.266666666666666,-546.1333333333333
1629,-85.33333333333333,25.6,-537.6
1630,-85.33333333333333,32.0,-541.8666666666667
1631,-87.46666666666667,27.733333333333334,-541.8666666666667
1632,-83.2,34.13333333333333,-541.8666666666667
1633,-91.73333333333333,29.866666666666667,-541.8666666666667
1634,-85.33333333333333,29.866666666666667,-546.1333333333333
1635,-81.06666666666666,23.466666666666665,-535.4666666666667
1636,-78.93333333333334,27.733333333333334,-548.2666666666667
1637,-81.06666666666666,29.866666666666667,-544.0
1638,-89.6,29.866666666666667,-548.2666666666667
1639,-89.6,27.733333333333334,-544.0
1640,-83.2,19.2,-541.8666666666667
1641,-83.2,34.13333333333333,-546.1333333333333
1642,-78.93333333333334,34.13333333333333,-533.3333333333334
1643,-85.33333333333333,29.866666666666667,-546.1333333333333
1644,-81.06666666666666,34.13333333333333,-535.4666666666667
1645,-83.2,32.0,-541.8666666666667
1646,-78.93333333333334,32.0,-533.3333333333334
1647,-76.8,29.866666666666667,-539.7333333333333
1648,-91.73333333333333,29.866666666666667,-541.8666666666667
1649,-83.2,29.866666666666667,-526.9333333333333
1650,-93.86666666666666,27.733333333333334,-550.4
1651,-83.2,32.0,-539.7333333333333
1652,-72.53333333333333,25.6,-544.0
1653,-83.2,34.13333333333333,-544.0
1654,-85.33333333333333,23.466666666666665,-544.0
1655,-85.33333333333333,29.866666666666667,-544.0
1656,-83.2,32.0,-541.8666666666667
1657,-78.93333333333334,29.866666666666667,-531.2
1658,-87.46666666666667,36.266666666666666,-541.8666666666667
1659,-83.2,23.466666666666665,-541.8666666666667
1660,-85.33333333333333,32.0,-533.3333333333334
1661,-81.06666666666666,27.733333333333334,-544.0
1662,-81.06666666666666,29.866666666666667,-535.4666666666667
1663,-81.06666666666666,29.866666666666667,-533.3333333333334
1664,-81.06666666666666,29.866666666666667,-541.8666666666667
1665,-78.93333333333334,25.6,-556.8
1666,-81.06666666666666,25.6,-544.0
1667,-83.2,25.6,-535.4666666666667
1668,-83.2,36.266666666666666,-546.1333333333333
1669,-81.06666666666666,27.733333333333334,-535.4666666666667
1670,-81.06666666666666,23.466666666666665,-546.1333333333333
1671,-85.33333333333333,29.866666666666667,-546.1333333333333
1672,-87.46666666666667,29.866666666666667,-537.6
1673,-83.2,29.866666666666667,-544.0
1674,-81.06666666666666,34.13333333333333,-552.5333333333333
1675,-83.2,29.866666666666667,-539.7333333333333
1676,-89.6,29.866666666666667,-535.4666666666667
1677,-83.2,32.0,-535.4666666666667
1678,-89.6,38.4,-541.8666666666667
1679,-78.93333333333334,27.733333333333334,-541.8666666666667
1680,-85.33333333333333,34.13333333333333,-548.2666666666667
1681,-76.8,21.333333333333332,-546.1333333333333
1682,-81.06666666666666,27.733333333333334,-539.7333333333333
1683,-87.46666666666667,32.0,-537.6
1684,-83.2,36.266666666666666,-546.1333333333333
1685,-83.2,27.733333333333334,-539.7333333333333
1686,-87.46666666666667,38.4,-544.0
1687,-85.33333333333333,32.0,-548.2666666666667
1688,-78.93333333333334,25.6,-544.0
1689,-83.2,29.866666666666667,-541.8666666666667
1690,-87.46666666666667,32.0,-548.2666666666667
1691,-85.33333333333333,34.13333333333333,-550.4
1692,-87.46666666666667,44.8,-554.6666666666666
1693,-83.2,25.6,-546.1333333333333
1694,-81.06666666666666,27.733333333333334,-541.8666666666667
1695,-81.06666666666666,27.733333333333334,-548.2666666666667
1696,-83.2,34.13333333333333,-541.8666666666667
1697,-78.93333333333334,27.733333333333334,-546.1333333333333
1698,-83.2,36.266666666666666,-541.8666666666667
1699,-81.06666666666666,27.733333333333334,-541.8666666666667
1700,-85.33333333333333,29.866666666666667,-539.7333333333333
1701,-78.93333333333334,29.866666666666667,-541.8666666666667
1702,-83.2,32.0,-537.6
1703,-91.73333333333333,32.0,-541.8666666666667
1704,-83.2,25.6,-544.0
1705,-81.06666666666666,32.0,-541.8666666666667
1706,-76.8,29.866666666666667,-539.7333333333333
1707,-83.2,34.13333333333333,-546.1333333333333
1708,-78.93333333333334,27.733333333333334,-537.6
1709,-87.46666666666667,27.733333333333334,-546.1333333333333
1710,-78.93333333333334,29.866666666666667,-544.0
1711,-81.06666666666666,32.0,-548.2666666666667
1712,-87.46666666666667,29.866666666666667,-539.7333333333333
1713,-74.66666666666667,25.6,-541.8666666666667
1714,-85.33333333333333,29.866666666666667,-546.1333333333333
1715,-78.93333333333334,23.466666666666665,-544.0
1716,-81.06666666666666,29.866666666666667,-548.2666666666667
1717,-85.33333333333333,27.733333333333334,-541.8666666666667
1718,-81.06666666666666,29.866666666666667,-546.1333333333333
1719,-85.33333333333333,34.13333333333333,-541.8666666666667
1720,-83.2,29.866666666666667,-548.2666666666667
1721,-78.93333333333334,23.466666666666665,-539.7333333333333
1722,-89.6,36.266666666666666,-546.1333333333333
1723,-83.2,29.866666666666667,-535.4666666666667
1724,-78.93333333333334,14.933333333333334,-533.3333333333334
1725,-83.2,34.13333333333333,-539.7333333333333
1726,-81.06666666666666,36.266666666666666,-546.1333333333333
1727,-87.46666666666667,36.266666666666666,-546.1333333333333
1728,-78.93333333333334,23.466666666666665,-541.8666666666667
1729,-81.06666666666666,34.13333333333333,-544.0
1730,-85.33333333333333,32.0,-539.7333333333333
1731,-78.93333333333334,36.266666666666666,-550.4
1732,-85.33333333333333,25.6,-544.0
1733,-89.6,25.6,-541.8666666666667
1734,-81.06666666666666,29.866666666666667,-537.6
1735,-87.46666666666667,21.333333333333332,-548.2666666666667
1736,-83.2,29.866666666666667,-539.7333333333333
1737,-81.06666666666666,29.866666666666667,-544.0
1738,-81.06666666666666,34.13333333333333,-537.6
1739,-81.06666666666666,25.6,-541.8666666666667
1740,-76.8,34.13333333333333,-539.7333333333333
1741,-81.06666666666666,29.866666666666667,-544.0
1742,-83.2,27.733333333333334,-544.0
1743,-83.2,29.866666666666667,-539.7333333333333
1744,-81.06666666666666,32.0,-544.0
1745,-83.2,23.466666666666665,-546.1333333333333
1746,-83.2,29.866666666666667,-546.1333333333333
1747,-83.2,27.733333333333334,-548.2666666666667
1748,-81.06666666666666,32.0,-546.1333333333333
1749,-83.2,29.866666666666667,-544.0
1750,-78.93333333333334,29.866666666666667,-539.7333333333333
1751,-85.33333333333333,27.733333333333334,-544.0
1752,-81.06666666666666,25.6,-548.2666666666667
1753,-76.8,32.0,-537.6
1754,-85.33333333333333,29.866666666666667,-541.8666666666667
1755,-83.2,21.333333333333332,-554.6666666666666
1756,-76.8,21.333333333333332,-537.6
1757,-78.93333333333334,27.733333333333334,-544.0
1758,-85.33333333333333,34.13333333333333,-544.0
1759,-81.06666666666666,25.6,-548.2666666666667
1760,-85.33333333333333,29.866666666666667,-541.8666666666667
1761,-83.2,27.733333333333334,-548.2666666666667
1762,-74.66666666666667,21.333333333333332,-546.1333333333333
1763,-78.93333333333334,27.733333333333334,-544.0
1764,-85.33333333333333,34.13333333333333,-544.0
1765,-81.06666666666666,25.6,-537.6
1766,-81.06666666666666,38.4,-539.7333333333333
1767,-83.2,27.733333333333334,-535.4666666666667
1768,-76.8,21.333333333333332,-550.4
1769,-76.8,27.733333333333334,-544.0
1770,-81.06666666666666,21.333333333333332,-541.8666666666667
1771,-81.06666666666666,29.866666666666667,-539.7333333333333
1772,-81.06666666666666,34.13333333333333,-544.0
1773,-78.93333333333334,29.866666666666667,-548.2666666666667
1774,-74.66666666666667,25.6,-546.1333333333333
1775,-85.33333333333333,36.266666666666666,-537.6
1776,-78.93333333333334,29.866666666666667,-535.4666666666667
1777,-78.93333333333334,21.333333333333332,-546.1333333333333
1778,-83.2,25.6,-548.2666666666667
1779,-85.33333333333333,25.6,-544.0
1780,-81.06666666666666,29.866666666666667,-548.2666666666667
1781,-78.93333333333334,27.733333333333334,-544.0
1782,-83.2,34.13333333333333,-550.4
1783,-83.2,27.733333333333334,-541.8666666666667
1784,-83.2,27.733333333333334,-550.4
1785,-96.0,25.6,-544.0
1786,-83.2,27.733333333333334,-533.3333333333334
1787,-81.06666666666666,36.266666666666666,-548.2666666666667
1788,-78.93333333333334,21.333333333333332,-548.2666666666667
1789,-87.46666666666667,32.0,-539.7333333333333
1790,-83.2,32.0,-541.8666666666667
1791,-89.6,36.266666666666666,-546.1333333333333
1792,-83.2,34.13333333333333,-539.7333333333333
1793,-78.93333333333334,27.733333333333334,-544.0
1794,-78.93333333333334,25.6,-552.5333333333333
1795,-81.06666666666666,32.0,-541.8666666666667
1796,-74.66666666666667,32.0,-535.4666666666667
1797,-81.06666666666666,27.733333333333334,-548.2666666666667
1798,-83.2,32.0,-544.0
1799,-93.86666666666666,17.066666666666666,-541.8666666666667
1800,-81.06666666666666,25.6,-537.6
1801,-83.2,29.866666666666667,-541.8666666666667
1802,-78.93333333333334,23.466666666666665,-539.7333333333333
1803,-83.2,27.733333333333334,-541.8666666666667
1804,-74.66666666666667,29.866666666666667,-541.8666666666667
1805,-81.06666666666666,25.6,-541.8666666666667
1806,-76.8,27.733333333333334,-546.1333333333333
1807,-78.93333333333334,34.13333333333333,-541.8666666666667
1808,-87.46666666666667,34.13333333333333,-541.8666666666667
1809,-81.06666666666666,29.866666666666667,-535.4666666666667
1810,-78.93333333333334,27.733333333333334,-537.6
1811,-78.93333333333334,27.733333333333334,-546.1333333333333
1812,-81.06666666666666,27.733333333333334,-537.6
1813,-78.93333333333334,29.866666666666667,-539.7333333333333
1814,-81.06666666666666,29.866666666666667,-539.7333333333333
1815,-81.06666666666666,25.6,-539.7333333333333
1816,-89.6,32.0,-529.0666666666666
1817,-78.93333333333334,23.466666666666665,-546.1333333333333
1818,-78.93333333333334,29.866666666666667,-548.2666666666667
1819,-83.2,34.13333333333333,-546.1333333333333
1820,-91.73333333333333,34.13333333333333,-544.0
1821,-81.06666666666666,27.733333333333334,-548.2666666666667
1822,-78.93333333333334,34.13333333333333,-539.7333333333333
1823,-81.06666666666666,23.466666666666665,-539.7333333333333
1824,-81.06666666666666,34.13333333333333,-541.8666666666667
1825,-85.33333333333333,25.6,-546.1333333333333
1826,-81.06666666666666,29.866666666666667,-546.1333333333333
1827,-81.06666666666666,29.866666666666667,-531.2
1828,-81.06666666666666,23.466666666666665,-544.0
1829,-78.93333333333334,29.866666666666667,-539.7333333333333
1830,-83.2,27.733333333333334,-546.1333333333333
1831,-83.2,23.466666666666665,-550.4
1832,-81.06666666666666,34.13333333333333,-546.1333333333333
1833,-76.8,27.733333333333334,-544.0
1834,-89.6,29.866666666666667,-539.7333333333333
1835,-81.06666666666666,36.266666666666666,-550.4
1836,-76.8,19.2,-537.6
1837,-76.8,27.733333333333334,-539.7333333333333
1838,-76.8,29.866666666666667,-544.0
1839,-74.66666666666667,27.733333333333334,-544.0
1840,-74.66666666666667,29.866666666666667,-550.4
1841,-85.33333333333333,32.0,-548.2666666666667
1842,-72.53333333333333,14.933333333333334,-539.7333333333333
1843,-76.8,27.733333333333334,-546.1333333333333
1844,-78.93333333333334,27.733333333333334,-539.7333333333333
1845,-78.93333333333334,23.466666666666665,-544.0
1846,-81.06666666666666,23.466666666666665,-541.8666666666667
1847,-74.66666666666667,32.0,-541.8666666666667
1848,-78.93333333333334,25.6,-537.6
1849,-81.06666666666666,27.733333333333334,-541.8666666666667
1850,-78.93333333333334,25.6,-552.5333333333333
1851,-78.93333333333334,25.6,-533.3333333333334
1852,-81.06666666666666,19.2,-535.4666666666667
1853,-76.8,25.6,-550.4
1854,-81.06666666666666,29.866666666666667,-541.8666666666667
1855,-81.06666666666666,29.866666666666667,-541.8666666666667
1856,-74.66666666666667,25.6,-541.8666666666667
1857,-83.2,32.0,-544.0
1858,-76.8,23.466666666666665,-552.5333333333333
1859,-83.2,32.0,-544.0
1860,-87.46666666666667,36.266666666666666,-548.2666666666667
1861,-83.2,29.866666666666667,-539.7333333333333
1862,-87.46666666666667,32.0,-544.0
1863,-102.4,34.13333333333333,-544.0
1864,-81.06666666666666,29.866666666666667,-552.5333333333333
1865,-78.93333333333334,23.466666666666665,-546.1333333333333
1866,-85.33333333333333,29.866666666666667,-541.8666666666667
1867,-78.93333333333334,25.6,-548.2666666666667
1868,-78.93333333333334,25.6,-537.6
1869,-76.8,32.0,-539.7333333333333
1870,-81.06666666666666,27.733333333333334,-535.4666666666667
1871,-76.8,32.0,-546.1333333333333
1872,-83.2,21.333333333333332,-548.2666666666667
1873,-85.33333333333333,36.266666666666666,-544.0
1874,-91.73333333333333,34.13333333333333,-539.7333333333333
1875,-78.93333333333334,23.466666666666665,-546.1333333333333
1876,-81.06666666666666,29.866666666666667,-539.7333333333333
1877,-76.8,29.866666666666667,-533.3333333333334
1878,-76.8,32.0,-550.4
1879,-78.93333333333334,29.866666666666667,-546.1333333333333
1880,-83.2,25.6,-544.0
1881,-78.93333333333334,29.866666666666667,-533.3333333333334
1882,-83.2,23.466666666666665,-539.7333333333333
1883,-83.2,29.866666666666667,-539.7333333333333
1884,-76.8,27.733333333333334,-539.7333333333333
1885,-85.33333333333333,32.0,-541.8666666666667
1886,-78.93333333333334,23.466666666666665,-544.0
1887,-83.2,29.866666666666667,-544.0
1888,-85.33333333333333,27.733333333333334,-552.5333333333333
1889,-76.8,27.733333333333334,-541.8666666666667
1890,-78.93333333333334,23.466666666666665,-550.4
1891,-85.33333333333333,27.733333333333334,-544.0
1892,-81.06666666666666,29.866666666666667,-544.0
1893,-74.66666666666667,14.933333333333334,-544.0
1894,-78.93333333333334,32.0,-535.4666666666667
1895,-70.4,27.733333333333334,-546.1333333333333
1896,-81.06666666666666,27.733333333333334,-544.0
1897,-81.06666666666666,27.733333333333334,-552.5333333333333
1898,-78.93333333333334,29.866666666666667,-544.0
1899,-83.2,27.733333333333334,-541.8666666666667
1900,-78.93333333333334,29.866666666666667,-552.5333333333333
1901,-81.06666666666666,25.6,-533.3333333333334
1902,-78.93333333333334,23.466666666666665,-537.6
1903,-81.06666666666666,29.866666666666667,-541.8666666666667
1904,-78.93333333333334,25.6,-546.1333333333333
1905,-78.93333333333334,23.466666666666665,-544.0
1906,-76.8,21.333333333333332,-535.4666666666667
1907,-81.06666666666666,29.866666666666667,-541.8666666666667
1908,-83.2,32.0,-546.1333333333333
1909,-76.8,27.733333333333334,-541.8666666666667
1910,-78.93333333333334,27.733333333333334,-550.4
1911,-89.6,25.6,-541.8666666666667
1912,-81.06666666666666,25.6,-539.7333333333333
1913,-72.53333333333333,27.733333333333334,-550.4
1914,-74.66666666666667,23.466666666666665,-544.0
1915,-81.06666666666666,32.0,-535.4666666666667
1916,-83.2,25.6,-531.2
1917,-83.2,27.733333333333334,-548.2666666666667
1918,-81.06666666666666,25.6,-544.0
1919,-76.8,27.733333333333334,-539.7333333333333
1920,-74.66666666666667,36.266666666666666,-546.1333333333333
1921,-74.66666666666667,23.466666666666665,-541.8666666666667
1922,-76.8,25.6,-546.1333333333333
1923,-83.2,27.733333333333334,-546.1333333333333
1924,-81.06666666666666,23.466666666666665,-535.4666666666667
1925,-83.2,27.733333333333334,-537.6
1926,-81.06666666666666,32.0,-550.4
1927,-85.33333333333333,23.466666666666665,-537.6
1928,-76.8,25.6,-552.5333333333333
1929,-78.93333333333334,27.733333333333334,-546.1333333333333
1930,-81.06666666666666,29.866666666666667,-544.0
1931,-85.33333333333333,27.733333333333334,-544.0
1932,-81.06666666666666,36.266666666666666,-548.2666666666667
1933,-83.2,32.0,-544.0
1934,-78.93333333333334,25.6,-544.0
1935,-76.8,25.6,-533.3333333333334
1936,-76.8,32.0,-546.1333333333333
1937,-81.06666666666666,27.733333333333334,-550.4
1938,-78.93333333333334,17.066666666666666,-544.0
1939,-85.33333333333333,32.0,-537.6
1940,-81.06666666666666,29.866666666666667,-541.8666666666667
1941,-78.93333333333334,29.866666666666667,-546.1333333333333
1942,-81.06666666666666,21.333333333333332,-539.7333333333333
1943,-76.8,32.0,-544.0
1944,-87.46666666666667,23.466666666666665,-550.4
1945,-78.93333333333334,27.733333333333334,-539.7333333333333
1946,-78.93333333333334,21.333333333333332,-541.8666666666667
1947,-85.33333333333333,36.266666666666666,-550.4
1948,-78.93333333333334,27.733333333333334,-550.4
1949,-78.93333333333334,29.866666666666667,-537.6
1950,-76.8,32.0,-539.7333333333333
1951,-81.06666666666666,32.0,-539.7333333333333
1952,-85.33333333333333,25.6,-533.3333333333334
1953,-78.93333333333334,29.866666666666667,-537.6
1954,-85.33333333333333,29.866666666666667,-546.1333333333333
1955,-81.06666666666666,29.866666666666667,-541.8666666666667
1956,-87.46666666666667,32.0,-537.6
1957,-76.8,25.6,-533.3333333333334
1958,-76.8,27.733333333333334,-548.2666666666667
1959,-85.33333333333333,29.866666666666667,-537.6
1960,-76.8,32.0,-548.2666666666667
1961,-78.93333333333334,25.6,-544.0
1962,-81.06666666666666,29.866666666666667,-544.0
1963,-78.93333333333334,29.866666666666667,-537.6
1964,-83.2,34.13333333333333,-544.0
1965,-78.93333333333334,32.0,-546.1333333333333
1966,-74.66666666666667,27.733333333333334,-531.2
1967,-83.2,29.866666666666667,-537.6
1968,-83.2,21.333333333333332,-546.1333333333333
1969,-78.93333333333334,25.6,-541.8666666666667
1970,-87.46666666666667,29.866666666666667,-537.6
1971,-81.06666666666666,27.733333333333334,-539.7333333333333
1972,-83.2,34.13333333333333,-546.1333333333333
1973,-81.06666666666666,23.466666666666665,-541.8666666666667
1974,-87.46666666666667,29.866666666666667,-550.4
1975,-83.2,25.6,-550.4
1976,-85.33333333333333,27.733333333333334,-544.0
1977,-91.73333333333333,38.4,-537.6
1978,-78.93333333333334,27.733333333333334,-544.0
1979,-78.93333333333334,29.866666666666667,-546.1333333333333
1980,-81.06666666666666,32.0,-533.3333333333334
1981,-78.93333333333334,25.6,-539.7333333333333
1982,-81.06666666666666,25.6,-546.1333333333333
1983,-83.2,27.733333333333334,-537.6
1984,-81.06666666666666,29.866666666666667,-541.8666666666667
1985,-81.06666666666666,23.466666666666665,-539.7333333333333
1986,-81.06666666666666,23.466666666666665,-535.4666666666667
1987,-81.06666666666666,34.13333333333333,-550.4
1988,-83.2,29.866666666666667,-539.7333333333333
1989,-83.2,25.6,-544.0
1990,-87.46666666666667,23.466666666666665,-558.9333333333333
1991,-85.33333333333333,25.6,-544.0
1992,-81.06666666666666,25.6,-539.7333333333333
1993,-81.06666666666666,25.6,-539.7333333333333
1994,-78.93333333333334,34.13333333333333,-541.8666666666667
1995,-78.93333333333334,23.466666666666665,-544.0
1996,-78.93333333333334,29.866666666666667,-552.5333333333333
1997,-83.2,25.6,-535.4666666666667
1998,-76.8,36.266666666666666,-541.8666666666667
1999,-81.06666666666666,32.0,-548.2666666666667
2000,-70.4,36.266666666666666,-548.2666666666667
2001,-81.06666666666666,29.866666666666667,-533.3333333333334
2002,-85.33333333333333,25.6,-537.6
2003,-83.2,29.866666666666667,-546.1333333333333
2004,-78.93333333333334,29.866666666666667,-548.2666666666667
2005,-81.06666666666666,29.866666666666667,-541.8666666666667
2006,-81.06666666666666,29.866666666666667,-544.0
2007,-74.66666666666667,27.733333333333334,-537.6
2008,-78.93333333333334,29.866666666666667,-539.7333333333333
2009,-81.06666666666666,29.866666666666667,-535.4666666666667
2010,-83.2,29.866666666666667,-541.8666666666667
2011,-81.06666666666666,29.866666666666667,-546.1333333333333
2012,-72.53333333333333,21.333333333333332,-546.1333333333333
2013,-78.93333333333334,27.733333333333334,-541.8666666666667
2014,-81.06666666666666,29.866666666666667,-541.8666666666667
2015,-78.93333333333334,32.0,-539.7333333333333
2016,-85.33333333333333,29.866666666666667,-541.8666666666667
2017,-83.2,25.6,-541.8666666666667
2018,-83.2,29.866666666666667,-546.1333333333333
2019,-85.33333333333333,29.866666666666667,-544.0
2020,-70.4,27.733333333333334,-533.3333333333334
2021,-83.2,25.6,-546.1333333333333
2022,-76.8,23.466666666666665,-539.7333333333333
2023,-85.33333333333333,25.6,-544.0
2024,-81.06666666666666,27.733333333333334,-546.1333333333333
2025,-85.33333333333333,36.266666666666666,-541.8666666666667
2026,-78.93333333333334,32.0,-541.8666666666667
2027,-78.93333333333334,32.0,-544.0
2028,-74.66666666666667,27.733333333333334,-537.6
2029,-76.8,32.0,-546.1333333333333
2030,-76.8,32.0,-546.1333333333333
2031,-78.93333333333334,29.866666666666667,-539.7333333333333
2032,-81.06666666666666,29.866666666666667,-537.6
2033,-81.06666666666666,29.866666666666667,-535.4666666666667
2034,-76.8,32.0,-537.6
2035,-78.93333333333334,29.866666666666667,-541.8666666666667
2036,-78.93333333333334,29.866666666666667,-539.7333333333333
2037,-78.93333333333334,25.6,-541.8666666666667
2038,-81.06666666666666,29.866666666666667,-546.1333333333333
2039,-81.06666666666666,34.13333333333333,-539.7333333333333
2040,-81.06666666666666,25.6,-539.7333333333333
2041,-87.46666666666667,36.266666666666666,-539.7333333333333
2042,-83.2,32.0,-544.0
2043,-83.2,34.13333333333333,-546.1333333333333
2044,-81.06666666666666,23.466666666666665,-531.2
2045,-83.2,27.733333333333334,-546.1333333333333
2046,-81.06666666666666,27.733333333333334,-539.7333333333333
2047,-76.8,25.6,-546.1333333333333
2048,-85.33333333333333,36.266666666666666,-541.8666666666667
2049,-76.8,32.0,-539.7333333333333
2050,-78.93333333333334,29.866666666666667,-544.0
2051,-89.6,38.4,-539.7333333333333
2052,-78.93333333333334,25.6,-539.7333333333333
2053,-83.2,32.0,-535.4666666666667
2054,-78.93333333333334,27.733333333333334,-548.2666666666667
2055,-83.2,27.733333333333334,-539.7333333333333
2056,-83.2,29.866666666666667,-544.0
2057,-76.8,32.0,-550.4
2058,-78.93333333333334,32.0,-546.1333333333333
2059,-81.06666666666666,27.733333333333334,-548.2666666666667
2060,-76.8,36.266666666666666,-531.2
2061,-83.2,27.733333333333334,-544.0
2062,-76.8,32.0,-552.5333333333333
2063,-81.06666666666666,32.0,-535.4666666666667
2064,-78.93333333333334,32.0,-541.8666666666667
2065,-81.06666666666666,38.4,-539.7333333333333
2066,-87.46666666666667,27.733333333333334,-541.8666666666667
2067,-74.66666666666667,21.333333333333332,-539.7333333333333
2068,-81.06666666666666,29.866666666666667,-541.8666666666667
2069,-76.8,27.733333333333334,-544.0
2070,-78.93333333333334,32.0,-541.8666666666667
2071,-78.93333333333334,34.13333333333333,-539.7333333333333
2072,-76.8,29.866666666666667,-535.4666666666667
2073,-78.93333333333334,21.333333333333332,-539.7333333333333
2074,-76.8,32.0,-533.3333333333334
2075,-74.66666666666667,27.733333333333334,-537.6
2076,-72.53333333333333,34.13333333333333,-533.3333333333334
2077,-81.06666666666666,25.6,-541.8666666666667
2078,-83.2,32.0,-539.7333333333333
2079,-74.66666666666667,29.866666666666667,-539.7333333333333
2080,-74.66666666666667,29.866666666666667,-541.8666666666667
2081,-74.66666666666667,27.733333333333334,-544.0
2082,-78.93333333333334,25.6,-537.6
2083,-78.93333333333334,34.13333333333333,-537.6
2084,-78.93333333333334,27.733333333333334,-548.2666666666667
2085,-81.06666666666666,32.0,-533.3333333333334
2086,-76.8,34.13333333333333,-533.3333333333334
2087,-89.6,25.6,-548.2666666666667
2088,-76.8,29.866666666666667,-541.8666666666667
2089,-83.2,32.0,-552.5333333333333
2090,-74.66666666666667,29.866666666666667,-544.0
2091,-76.8,29.866666666666667,-539.7333333333333
2092,-74.66666666666667,29.866666666666667,-541.8666666666667
2093,-81.06666666666666,29.866666666666667,-541.8666666666667
2094,-78.93333333333334,36.266666666666666,-546.1333333333333
2095,-83.2,29.866666666666667,-544.0
2096,-87.46666666666667,32.0,-539.7333333333333
2097,-78.93333333333334,29.866666666666667,-541.8666666666667
2098,-76.8,25.6,-546.1333333333333
2099,-76.8,29.866666666666667,-550.4
2100,-78.93333333333334,25.6,-541.8666666666667
2101,-81.06666666666666,32.0,-539.7333333333333
2102,-85.33333333333333,25.6,-539.7333333333333
2103,-74.66666666666667,27.733333333333334,-541.8666666666667
2104,-83.2,36.266666666666666,-546.1333333333333
2105,-85.33333333333333,29.866666666666667,-541.8666666666667
2106,-81.06666666666666,29.866666666666667,-550.4
2107,-70.4,32.0,-544.0
2108,-83.2,34.13333333333333,-537.6
2109,-81.06666666666666,34.13333333333333,-531.2
2110,-81.06666666666666,29.866666666666667,-544.0
2111,-76.8,27.733333333333334,-550.4
2112,-76.8,25.6,-546.1333333333333
2113,-81.06666666666666,32.0,-548.2666666666667
2114,-78.93333333333334,32.0,-544.0
2115,-81.06666666666666,34.13333333333333,-546.1333333333333
2116,-83.2,29.866666666666667,-537.6
2117,-85.33333333333333,32.0,-548.2666666666667
2118,-87.46666666666667,32.0,-544.0
2119,-85.33333333333333,36.266666666666666,-537.6
2120,-76.8,29.866666666666667,-539.7333333333333
2121,-78.93333333333334,29.866666666666667,-544.0
2122,-83.2,29.866666666666667,-535.4666666666667
2123,-85.33333333333333,27.733333333333334,-552.5333333333333
2124,-76.8,29.866666666666667,-541.8666666666667
2125,-74.66666666666667,25.6,-546.1333333333333
2126,-81.06666666666666,23.466666666666665,-541.8666666666667
2127,-74.66666666666667,32.0,-539.7333333333333
2128,-81.06666666666666,34.13333333333333,-539.7333333333333
2129,-87.46666666666667,29.866666666666667,-548.2666666666667
2130,-74.66666666666667,29.866666666666667,-533.3333333333334
2131,-85.33333333333333,27.733333333333334,-535.4666666666667
2132,-78.93333333333334,32.0,-539.7333333333333
2133,-81.06666666666666,29.866666666666667,-546.1333333333333
2134,-83.2,32.0,-546.1333333333333
2135,-87.46666666666667,32.0,-546.1333333333333
2136,-83.2,36.266666666666666,-548.2666666666667
2137,-85.33333333333333,32.0,-550.4
2138,-76.8,29.866666666666667,-548.2666666666667
2139,-76.8,29.866666666666667,-544.0
2140,-87.46666666666667,25.6,-546.1333333333333
2141,-83.2,29.866666666666667,-544.0
2142,-87.46666666666667,32.0,-546.1333333333333
2143,-85.33333333333333,32.0,-537.6
2144,-76.8,27.733333333333334,-548.2666666666667
2145,-83.2,36.266666666666666,-544.0
2146,-85.33333333333333,34.13333333333333,-537.6
2147,-74.66666666666667,25.6,-541.8666666666667
2148,-76.8,34.13333333333333,-546.1333333333333
2149,-78.93333333333334,25.6,-537.6
2150,-83.2,32.0,-539.7333333333333
2151,-85.33333333333333,42.666666666666664,-546.1333333333333
2152,-76.8,29.866666666666667,-544.0
2153,-83.2,32.0,-544.0
2154,-85.33333333333333,29.866666666666667,-541.8666666666667
2155,-76.8,36.266666666666666,-539.7333333333333
2156,-81.06666666666666,27.733333333333334,-546.1333333333333
2157,-81.06666666666666,27.733333333333334,-548.2666666666667
2158,-81.06666666666666,32.0,-539.7333333333333
2159,-76.8,29.866666666666667,-544.0
2160,-78.93333333333334,34.13333333333333,-548.2666666666667
2161,-78.93333333333334,29.866666666666667,-546.1333333333333
2162,-81.06666666666666,32.0,-546.1333333333333
2163,-78.93333333333334,29.866666666666667,-541.8666666666667
2164,-83.2,42.666666666666664,-539.7333333333333
2165,-81.06666666666666,29.866666666666667,-548.2666666666667
2166,-83.2,27.733333333333334,-537.6
2167,-72.53333333333333,27.733333333333334,-548.2666666666667
2168,-85.33333333333333,27.733333333333334,-535.4666666666667
2169,-76.8,32.0,-546.1333333333333
2170,-81.06666666666666,27.733333333333334,-544.0
2171,-76.8,29.866666666666667,-539.7333333333333
2172,-87.46666666666667,36.266666666666666,-546.1333333333333
2173,-83.2,29.866666666666667,-541.8666666666667
2174,-83.2,36.266666666666666,-550.4
2175,-83.2,29.866666666666667,-539.7333333333333
2176,-83.2,32.0,-548.2666666666667
2177,-81.06666666666666,29.866666666666667,-537.6
2178,-78.93333333333334,27.733333333333334,-544.0
2179,-91.73333333333333,29.866666666666667,-546.1333333333333
2180,-87.46666666666667,36.266666666666666,-535.4666666666667
2181,-85.33333333333333,29.866666666666667,-531.2
2182,-78.93333333333334,36.266666666666666,-541.8666666666667
2183,-70.4,36.266666666666666,-546.1333333333333
2184,-78.93333333333334,32.0,-541.8666666666667
2185,-76.8,29.866666666666667,-541.8666666666667
2186,-83.2,29.866666666666667,-539.7333333333333
2187,-78.93333333333334,34.13333333333333,-548.2666666666667
2188,-85.33333333333333,36.266666666666666,-546.1333333333333
2189,-85.33333333333333,29.866666666666667,-546.1333333333333
2190,-89.6,36.266666666666666,-539.7333333333333
2191,-89.6,32.0,-544.0
2192,-81.06666666666666,25.6,-550.4
2193,-87.46666666666667,32.0,-546.1333333333333
2194,-64.0,25.6,-539.7333333333333
2195,-83.2,32.0,-544.0
2196,-85.33333333333333,29.866666666666667,-554.6666666666666
2197,-85.33333333333333,38.4,-546.1333333333333
2198,-87.46666666666667,36.266666666666666,-550.4
2199,-87.46666666666667,29.866666666666667,-546.1333333333333
2200,-89.6,38.4,-541.8666666666667
2201,-91.73333333333333,32.0,-541.8666666666667
2202,-89.6,29.866666666666667,-537.6
2203,-87.46666666666667,34.13333333333333,-548.2666666666667
2204,-81.06666666666666,49.06666666666666,-539.7333333333333
2205,-85.33333333333333,32.0,-539.7333333333333
2206,-76.8,23.466666666666665,-507.73333333333335
2207,-83.2,12.8,-531.2
2208,-76.8,34.13333333333333,-554.6666666666666
2209,-91.73333333333333,25.6,-520.5333333333333
2210,-83.2,32.0,-497.06666666666666
2211,-102.4,23.466666666666665,-539.7333333333333
2212,-81.06666666666666,36.266666666666666,-546.1333333333333
2213,-100.26666666666667,34.13333333333333,-535.4666666666667
2214,-72.53333333333333,49.06666666666666,-531.2
2215,-98.13333333333333,32.0,-541.8666666666667
2216,-78.93333333333334,36.266666666666666,-539.7333333333333
2217,-78.93333333333334,40.53333333333333,-537.6
2218,-102.4,36.266666666666666,-531.2
2219,-81.06666666666666,36.266666666666666,-535.4666666666667
2220,-85.33333333333333,29.866666666666667,-550.4
2221,-91.73333333333333,44.8,-546.1333333333333
2222,-85.33333333333333,29.866666666666667,-520.5333333333333
2223,-93.86666666666666,21.333333333333332,-558.9333333333333
2224,-83.2,23.466666666666665,-531.2
2225,-78.93333333333334,23.466666666666665,-554.6666666666666
2226,-89.6,23.466666666666665,-539.7333333333333
2227,-93.86666666666666,46.93333333333333,-552.5333333333333
2228,-78.93333333333334,32.0,-544.0
2229,-89.6,38.4,-544.0
2230,-100.26666666666667,49.06666666666666,-546.1333333333333
2231,-98.13333333333333,21.333333333333332,-520.5333333333333
2232,-93.86666666666666,32.0,-556.8
2233,-89.6,29.866666666666667,-539.7333333333333
2234,-93.86666666666666,36.266666666666666,-544.0
2235,-93.86666666666666,38.4,-535.4666666666667
2236,-89.6,36.266666666666666,-539.7333333333333
2237,-89.6,36.266666666666666,-544.0
2238,-89.6,32.0,-539.7333333333333
2239,-83.2,34.13333333333333,-533.3333333333334
2240,-91.73333333333333,40.53333333333333,-537.6
2241,-89.6,36.266666666666666,-539.7333333333333
2242,-89.6,27.733333333333334,-546.1333333333333
2243,-93.86666666666666,34.13333333333333,-544.0
2244,-96.0,40.53333333333333,-535.4666666666667
2245,-85.33333333333333,27.733333333333334,-539.7333333333333
2246,-91.73333333333333,32.0,-535.4666666666667
2247,-89.6,25.6,-522.6666666666666
2248,-89.6,36.266666666666666,-541.8666666666667
2249,-96.0,34.13333333333333,-546.1333333333333
2250,-81.06666666666666,36.266666666666666,-544.0
2251,-93.86666666666666,38.4,-533.3333333333334
2252,-91.73333333333333,27.733333333333334,-548.2666666666667
2253,-89.6,19.2,-546.1333333333333
2254,-89.6,34.13333333333333,-537.6
2255,-89.6,42.666666666666664,-539.7333333333333
2256,-89.6,27.733333333333334,-539.7333333333333
2257,-98.13333333333333,38.4,-535.4666666666667
2258,-100.26666666666667,36.266666666666666,-546.1333333333333
2259,-93.86666666666666,38.4,-539.7333333333333
2260,-89.6,36.266666666666666,-537.6
2261,-89.6,36.266666666666666,-541.8666666666667
2262,-96.0,36.266666666666666,-533.3333333333334
2263,-100.26666666666667,36.266666666666666,-541.8666666666667
2264,-91.73333333333333,32.0,-544.0
2265,-91.73333333333333,32.0,-546.1333333333333
2266,-96.0,36.266666666666666,-548.2666666666667
2267,-91.73333333333333,40.53333333333333,-550.4
2268,-72.53333333333333,40.53333333333333,-554.6666666666666
2269,-89.6,38.4,-539.7333333333333
2270,-91.73333333333333,32.0,-539.7333333333333
2271,-83.2,34.13333333333333,-544.0
2272,-85.33333333333333,36.266666666666666,-539.7333333333333
2273,-87.46666666666667,34.13333333333333,-541.8666666666667
2274,-87.46666666666667,38.4,-541.8666666666667
2275,-91.73333333333333,36.266666666666666,-544.0
2276,-85.33333333333333,25.6,-539.7333333333333
2277,-93.86666666666666,32.0,-541.8666666666667
2278,-89.6,32.0,-531.2
2279,-96.0,32.0,-550.4
2280,-89.6,23.466666666666665,-533.3333333333334
2281,-89.6,34.13333333333333,-546.1333333333333
2282,-85.33333333333333,36.266666666666666,-552.5333333333333
2283,-93.86666666666666,34.13333333333333,-539.7333333333333
2284,-96.0,40.53333333333333,-546.1333333333333
2285,-96.0,42.666666666666664,-537.6
2286,-91.73333333333333,34.13333333333333,-539.7333333333333
2287,-87.46666666666667,34.13333333333333,-546.1333333333333
2288,-85.33333333333333,29.866666666666667,-535.4666666666667
2289,-91.73333333333333,36.266666666666666,-546.1333333333333
2290,-104.53333333333333,23.466666666666665,-541.8666666666667
2291,-87.46666666666667,34.13333333333333,-533.3333333333334
2292,-96.0,40.53333333333333,-537.6
2293,-91.73333333333333,40.53333333333333,-537.6
2294,-96.0,36.266666666666666,-541.8666666666667
2295,-91.73333333333333,40.53333333333333,-539.7333333333333
2296,-93.86666666666666,36.266666666666666,-548.2666666666667
2297,-87.46666666666667,34.13333333333333,-537.6
2298,-91.73333333333333,32.0,-531.2
2299,-91.73333333333333,38.4,-541.8666666666667
2300,-100.26666666666667,32.0,-550.4
2301,-96.0,40.53333333333333,-537.6
2302,-93.86666666666666,42.666666666666664,-550.4
2303,-87.46666666666667,34.13333333333333,-541.8666666666667
2304,-87.46666666666667,32.0,-535.4666666666667
2305,-91.73333333333333,34.13333333333333,-537.6
2306,-96.0,38.4,-541.8666666666667
2307,-89.6,32.0,-533.3333333333334
2308,-93.86666666666666,44.8,-544.0
2309,-98.13333333333333,38.4,-539.7333333333333
2310,-96.0,36.266666666666666,-539.7333333333333
2311,-81.06666666666666,27.733333333333334,-544.0
2312,-91.73333333333333,29.866666666666667,-546.1333333333333
2313,-91.73333333333333,36.266666666666666,-537.6
2314,-87.46666666666667,34.13333333333333,-531.2
2315,-89.6,34.13333333333333,-539.7333333333333
2316,-96.0,32.0,-531.2
2317,-89.6,34.13333333333333,-546.1333333333333
2318,-96.0,32.0,-546.1333333333333
2319,-85.33333333333333,29.866666666666667,-537.6
2320,-91.73333333333333,34.13333333333333,-539.7333333333333
2321,-87.46666666666667,32.0,-539.7333333333333
2322,-89.6,25.6,-535.4666666666667
2323,-96.0,36.266666666666666,-546.1333333333333
2324,-89.6,32.0,-548.2666666666667
2325,-91.73333333333333,32.0,-550.4
2326,-91.73333333333333,38.4,-550.4
2327,-87.46666666666667,34.13333333333333,-539.7333333333333
2328,-96.0,40.53333333333333,-537.6
2329,-93.86666666666666,38.4,-544.0
2330,-93.86666666666666,29.866666666666667,-544.0
2331,-96.0,36.266666666666666,-546.1333333333333
2332,-83.2,38.4,-563.2
2333,-91.73333333333333,21.333333333333332,-537.6
2334,-102.4,40.53333333333333,-539.7333333333333
2335,-87.46666666666667,40.53333333333333,-548.2666666666667
2336,-96.0,36.266666666666666,-537.6
2337,-96.0,44.8,-546.1333333333333
2338,-89.6,38.4,-541.8666666666667
2339,-85.33333333333333,38.4,-533.3333333333334
2340,-93.86666666666666,36.266666666666666,-541.8666666666667
2341,-91.73333333333333,38.4,-544.0
2342,-89.6,44.8,-539.7333333333333
2343,-106.66666666666667,38.4,-535.4666666666667
2344,-93.86666666666666,38.4,-546.1333333333333
2345,-85.33333333333333,38.4,-546.1333333333333
2346,-93.86666666666666,27.733333333333334,-535.4666666666667
2347,-91.73333333333333,32.0,-533.3333333333334
2348,-91.73333333333333,36.266666666666666,-537.6
2349,-96.0,32.0,-533.3333333333334
2350,-89.6,40.53333333333333,-533.3333333333334
2351,-96.0,38.4,-529.0666666666666
2352,-91.73333333333333,32.0,-533.3333333333334
2353,-98.13333333333333,36.266666666666666,-533.3333333333334
2354,-93.86666666666666,25.6,-533.3333333333334
2355,-91.73333333333333,38.4,-537.6
2356,-91.73333333333333,38.4,-546.1333333333333
2357,-93.86666666666666,42.666666666666664,-546.1333333333333
2358,-96.0,42.666666666666664,-539.7333333333333
2359,-96.0,40.53333333333333,-537.6
2360,-87.46666666666667,40.53333333333333,-537.6
2361,-93.86666666666666,38.4,-535.4666666666667
2362,-96.0,40.53333333333333,-531.2
2363,-87.46666666666667,27.733333333333334,-539.7333333333333
2364,-96.0,38.4,-533.3333333333334
2365,-98.13333333333333,46.93333333333333,-537.6
2366,-93.86666666666666,38.4,-539.7333333333333
2367,-98.13333333333333,32.0,-541.8666666666667
2368,-96.0,36.266666666666666,-539.7333333333333
2369,-98.13333333333333,36.266666666666666,-541.8666666666667
2370,-100.26666666666667,40.53333333333333,-548.2666666666667
2371,-93.86666666666666,42.666666666666664,-537.6
2372,-89.6,32.0,-533.3333333333334
2373,-91.73333333333333,38.4,-537.6
2374,-96.0,46.93333333333333,-548.2666666666667
2375,-89.6,36.266666666666666,-552.5333333333333
2376,-102.4,42.666666666666664,-539.7333333333333
2377,-91.73333333333333,38.4,-541.8666666666667
2378,-89.6,36.266666666666666,-552.5333333333333
2379,-91.73333333333333,34.13333333333333,-535.4666666666667
2380,-93.86666666666666,36.266666666666666,-539.7333333333333
2381,-100.26666666666667,42.666666666666664,-544.0
2382,-91.73333333333333,34.13333333333333,-546.1333333333333
2383,-87.46666666666667,25.6,-531.2
2384,-96.0,38.4,-544.0
2385,-96.0,38.4,-541.8666666666667
2386,-93.86666666666666,34.13333333333333,-544.0
2387,-96.0,38.4,-550.4
2388,-96.0,38.4,-544.0
2389,-96.0,34.13333333333333,-539.7333333333333
2390,-98.13333333333333,36.266666666666666,-537.6
2391,-93.86666666666666,38.4,-537.6
2392,-96.0,34.13333333333333,-539.7333333333333
2393,-102.4,34.13333333333333,-546.1333333333333
2394,-96.0,40.53333333333333,-533.3333333333334
2395,-91.73333333333333,36.266666666666666,-531.2
2396,-91.73333333333333,38.4,-539.7333333333333
2397,-93.86666666666666,32.0,-546.1333333333333
2398,-93.86666666666666,32.0,-539.7333333333333
2399,-87.46666666666667,38.4,-541.8666666666667
2400,-98.13333333333333,36.266666666666666,-537.6
2401,-93.86666666666666,38.4,-535.4666666666667
2402,-91.73333333333333,32.0,-548.2666666666667
2403,-89.6,49.06666666666666,-550.4
2404,-96.0,29.866666666666667,-537.6
2405,-93.86666666666666,34.13333333333333,-550.4
2406,-91.73333333333333,34.13333333333333,-544.0
2407,-100.26666666666667,40.53333333333333,-546.1333333333333
2408,-96.0,38.4,-546.1333333333333
2409,-91.73333333333333,34.13333333333333,-541.8666666666667
2410,-96.0,40.53333333333333,-539.7333333333333
2411,-96.0,36.266666666666666,-535.4666666666667
2412,-98.13333333333333,40.53333333333333,-535.4666666666667
2413,-83.2,32.0,-531.2
2414,-96.0,34.13333333333333,-548.2666666666667
2415,-91.73333333333333,32.0,-541.8666666666667
2416,-100.26666666666667,36.266666666666666,-535.4666666666667
2417,-91.73333333333333,27.733333333333334,-537.6
2418,-76.8,21.333333333333332,-537.6
2419,-96.0,36.266666666666666,-541.8666666666667
2420,-96.0,38.4,-531.2
2421,-102.4,42.666666666666664,-544.0
2422,-91.73333333333333,29.866666666666667,-537.6
2423,-98.13333333333333,38.4,-535.4666666666667
2424,-98.13333333333333,34.13333333333333,-533.3333333333334
2425,-98.13333333333333,46.93333333333333,-541.8666666666667
2426,-106.66666666666667,38.4,-535.4666666666667
2427,-104.53333333333333,34.13333333333333,-533.3333333333334
2428,-100.26666666666667,32.0,-533.3333333333334
2429,-98.13333333333333,34.13333333333333,-537.6
2430,-96.0,36.266666666666666,-539.7333333333333
2431,-98.13333333333333,40.53333333333333,-541.8666666666667
2432,-98.13333333333333,38.4,-541.8666666666667
2433,-100.26666666666667,38.4,-533.3333333333334
2434,-102.4,38.4,-531.2
2435,-93.86666666666666,34.13333333333333,-539.7333333333333
2436,-93.86666666666666,40.53333333333333,-537.6
2437,-98.13333333333333,34.13333333333333,-546.1333333333333
2438,-98.13333333333333,36.266666666666666,-537.6
2439,-98.13333333333333,36.266666666666666,-544.0
2440,-102.4,23.466666666666665,-537.6
2441,-91.73333333333333,34.13333333333333,-541.8666666666667
2442,-98.13333333333333,36.266666666666666,-544.0
2443,-100.26666666666667,42.666666666666664,-537.6
2444,-100.26666666666667,32.0,-537.6
2445,-96.0,38.4,-539.7333333333333
2446,-108.8,42.666666666666664,-533.3333333333334
2447,-96.0,40.53333333333333,-541.8666666666667
2448,-100.26666666666667,42.666666666666664,-539.7333333333333
2449,-98.13333333333333,38.4,-541.8666666666667
2450,-110.93333333333334,49.06666666666666,-548.2666666666667
2451,-106.66666666666667,34.13333333333333,-541.8666666666667
2452,-106.66666666666667,42.666666666666664,-531.2
2453,-104.53333333333333,38.4,-533.3333333333334
2454,-104.53333333333333,36.266666666666666,-541.8666666666667
2455,-100.26666666666667,40.53333333333333,-546.1333333333333
2456,-98.13333333333333,42.666666666666664,-537.6
2457,-98.13333333333333,38.4,-539.7333333333333
2458,-96.0,36.266666666666666,-529.0666666666666
2459,-106.66666666666667,42.666666666666664,-544.0
2460,-106.66666666666667,34.13333333333333,-531.2
2461,-100.26666666666667,40.53333333333333,-533.3333333333334
2462,-106.66666666666667,42.666666666666664,-541.8666666666667
2463,-102.4,32.0,-539.7333333333333
2464,-100.26666666666667,40.53333333333333,-535.4666666666667
2465,-102.4,38.4,-544.0
2466,-106.66666666666667,40.53333333333333,-537.6
2467,-102.4,34.13333333333333,-546.1333333333333
2468,-100.26666666666667,34.13333333333333,-541.8666666666667
2469,-98.13333333333333,36.266666666666666,-541.8666666666667
2470,-106.66666666666667,44.8,-541.8666666666667
2471,-91.73333333333333,36.266666666666666,-541.8666666666667
2472,-104.53333333333333,40.53333333333333,-544.0
2473,-106.66666666666667,40.53333333333333,-539.7333333333333
