,accelerometerAccelerationX(G),accelerometerAccelerationY(G),accelerometerAccelerationZ(G)
0,-23.466666666666665,-541.8666666666667,-138.66666666666666
1,-27.733333333333334,-535.4666666666667,-140.8
2,-25.6,-539.7333333333333,-136.53333333333333
3,-27.733333333333334,-539.7333333333333,-140.8
4,-29.866666666666667,-541.8666666666667,-140.8
5,-42.666666666666664,-541.8666666666667,-145.06666666666666
6,-23.466666666666665,-535.4666666666667,-140.8
7,-32.0,-533.3333333333334,-138.66666666666666
8,-29.866666666666667,-537.6,-138.66666666666666
9,-27.733333333333334,-539.7333333333333,-136.53333333333333
10,-21.333333333333332,-539.7333333333333,-140.8
11,-19.2,-537.6,-134.4
12,-29.866666666666667,-533.3333333333334,-134.4
13,-25.6,-544.0,-136.53333333333333
14,-19.2,-539.7333333333333,-128.0
15,-19.2,-533.3333333333334,-134.4
16,-21.333333333333332,-533.3333333333334,-140.8
17,-23.466666666666665,-544.0,-138.66666666666666
18,-23.466666666666665,-535.4666666666667,-145.06666666666666
19,-25.6,-539.7333333333333,-142.93333333333334
20,-27.733333333333334,-535.4666666666667,-140.8
21,-17.066666666666666,-537.6,-140.8
22,-25.6,-544.0,-138.66666666666666
23,-21.333333333333332,-533.3333333333334,-132.26666666666665
24,-23.466666666666665,-541.8666666666667,-138.66666666666666
25,-21.333333333333332,-539.7333333333333,-136.53333333333333
26,-36.266666666666666,-533.3333333333334,-136.53333333333333
27,-21.333333333333332,-541.8666666666667,-136.53333333333333
28,-27.733333333333334,-544.0,-134.4
29,-19.2,-537.6,-138.66666666666666
30,-21.333333333333332,-539.7333333333333,-134.4
31,-23.466666666666665,-539.7333333333333,-140.8
32,-29.866666666666667,-535.4666666666667,-134.4
33,-17.066666666666666,-541.8666666666667,-136.53333333333333
34,-29.866666666666667,-539.7333333333333,-136.53333333333333
35,-23.466666666666665,-537.6,-147.2
36,-23.466666666666665,-537.6,-140.8
37,-32.0,-533.3333333333334,-134.4
38,-27.733333333333334,-533.3333333333334,-136.53333333333333
39,-21.333333333333332,-537.6,-138.66666666666666
40,-19.2,-537.6,-136.53333333333333
41,-23.466666666666665,-539.7333333333333,-130.13333333333333
42,-23.466666666666665,-539.7333333333333,-140.8
43,-21.333333333333332,-539.7333333333333,-142.93333333333334
44,-21.333333333333332,-539.7333333333333,-134.4
45,-25.6,-533.3333333333334,-136.53333333333333
46,-14.933333333333334,-541.8666666666667,-132.26666666666665
47,-29.866666666666667,-544.0,-136.53333333333333
48,-17.066666666666666,-546.1333333333333,-164.26666666666665
49,-25.6,-539.7333333333333,-128.0
50,-19.2,-537.6,-136.53333333333333
51,-19.2,-544.0,-142.93333333333334
52,-25.6,-537.6,-132.26666666666665
53,-23.466666666666665,-535.4666666666667,-138.66666666666666
54,-17.066666666666666,-539.7333333333333,-142.93333333333334
55,-21.333333333333332,-535.4666666666667,-136.53333333333333
56,-21.333333333333332,-539.7333333333333,-136.53333333333333
57,-23.466666666666665,-537.6,-136.53333333333333
58,-27.733333333333334,-533.3333333333334,-134.4
59,-21.333333333333332,-539.7333333333333,-140.8
60,-19.2,-537.6,-136.53333333333333
61,-21.333333333333332,-541.8666666666667,-140.8
62,-23.466666666666665,-535.4666666666667,-140.8
63,-19.2,-537.6,-140.8
64,-27.733333333333334,-537.6,-138.66666666666666
65,-25.6,-541.8666666666667,-136.53333333333333
66,-25.6,-539.7333333333333,-136.53333333333333
67,-23.466666666666665,-539.7333333333333,-142.93333333333334
68,-25.6,-539.7333333333333,-142.93333333333334
69,-23.466666666666665,-539.7333333333333,-138.66666666666666
70,-25.6,-535.4666666666667,-136.53333333333333
71,-23.466666666666665,-537.6,-138.66666666666666
72,-29.866666666666667,-539.7333333333333,-134.4
73,-27.733333333333334,-533.3333333333334,-140.8
74,-23.466666666666665,-537.6,-134.4
75,-27.733333333333334,-537.6,-134.4
76,-21.333333333333332,-539.7333333333333,-136.53333333333333
77,-23.466666666666665,-539.7333333333333,-140.8
78,-19.2,-535.4666666666667,-136.53333333333333
79,-21.333333333333332,-535.4666666666667,-140.8
80,-23.466666666666665,-539.7333333333333,-142.93333333333334
81,-19.2,-537.6,-142.93333333333334
82,-19.2,-541.8666666666667,-138.66666666666666
83,-25.6,-535.4666666666667,-136.53333333333333
84,-25.6,-541.8666666666667,-136.53333333333333
85,-25.6,-541.8666666666667,-136.53333333333333
86,-27.733333333333334,-541.8666666666667,-138.66666666666666
87,-19.2,-544.0,-140.8
88,-23.466666666666665,-539.7333333333333,-140.8
89,-23.466666666666665,-539.7333333333333,-138.66666666666666
90,-23.466666666666665,-535.4666666666667,-134.4
91,-27.733333333333334,-533.3333333333334,-136.53333333333333
92,-4.266666666666667,-529.0666666666666,-134.4
93,-23.466666666666665,-533.3333333333334,-147.2
94,-21.333333333333332,-537.6,-134.4
95,-19.2,-535.4666666666667,-136.53333333333333
96,-25.6,-533.3333333333334,-132.26666666666665
97,-23.466666666666665,-541.8666666666667,-140.8
98,-21.333333333333332,-539.7333333333333,-142.93333333333334
99,-21.333333333333332,-541.8666666666667,-138.66666666666666
100,-21.333333333333332,-541.8666666666667,-138.66666666666666
101,-27.733333333333334,-533.3333333333334,-136.53333333333333
102,-25.6,-537.6,-140.8
103,-21.333333333333332,-539.7333333333333,-138.66666666666666
104,-23.466666666666665,-537.6,-140.8
105,-23.466666666666665,-539.7333333333333,-147.2
106,-27.733333333333334,-544.0,-145.06666666666666
107,-27.733333333333334,-535.4666666666667,-136.53333333333333
108,-23.466666666666665,-537.6,-136.53333333333333
109,-23.466666666666665,-539.7333333333333,-142.93333333333334
110,-21.333333333333332,-541.8666666666667,-134.4
111,-19.2,-541.8666666666667,-136.53333333333333
112,-23.466666666666665,-537.6,-138.66666666666666
113,-23.466666666666665,-531.2,-132.26666666666665
114,-25.6,-544.0,-138.66666666666666
115,-25.6,-539.7333333333333,-138.66666666666666
116,-23.466666666666665,-539.7333333333333,-140.8
117,-19.2,-537.6,-138.66666666666666
118,-19.2,-537.6,-136.53333333333333
119,-21.333333333333332,-537.6,-136.53333333333333
120,-23.466666666666665,-535.4666666666667,-132.26666666666665
121,-21.333333333333332,-541.8666666666667,-138.66666666666666
122,-19.2,-539.7333333333333,-138.66666666666666
123,-23.466666666666665,-539.7333333333333,-138.66666666666666
124,-21.333333333333332,-539.7333333333333,-136.53333333333333
125,-29.866666666666667,-539.7333333333333,-138.66666666666666
126,-27.733333333333334,-537.6,-136.53333333333333
127,-19.2,-541.8666666666667,-136.53333333333333
128,-23.466666666666665,-539.7333333333333,-132.26666666666665
129,-23.466666666666665,-537.6,-142.93333333333334
130,-25.6,-537.6,-140.8
131,-21.333333333333332,-539.7333333333333,-142.93333333333334
132,-23.466666666666665,-539.7333333333333,-138.66666666666666
133,-25.6,-535.4666666666667,-136.53333333333333
134,-23.466666666666665,-539.7333333333333,-140.8
135,-10.666666666666666,-535.4666666666667,-132.26666666666665
136,-21.333333333333332,-535.4666666666667,-136.53333333333333
137,-19.2,-541.8666666666667,-136.53333333333333
138,-29.866666666666667,-535.4666666666667,-132.26666666666665
139,-23.466666666666665,-533.3333333333334,-136.53333333333333
140,-23.466666666666665,-539.7333333333333,-138.66666666666666
141,-23.466666666666665,-539.7333333333333,-136.53333333333333
142,-23.466666666666665,-537.6,-140.8
143,-25.6,-539.7333333333333,-142.93333333333334
144,-25.6,-533.3333333333334,-138.66666666666666
145,-19.2,-533.3333333333334,-136.53333333333333
146,-25.6,-541.8666666666667,-136.53333333333333
147,-23.466666666666665,-539.7333333333333,-134.4
148,-27.733333333333334,-539.7333333333333,-138.66666666666666
149,-25.6,-539.7333333333333,-140.8
150,-21.333333333333332,-535.4666666666667,-136.53333333333333
151,-23.466666666666665,-541.8666666666667,-138.66666666666666
152,-21.333333333333332,-537.6,-138.66666666666666
153,-23.466666666666665,-541.8666666666667,-134.4
154,-23.466666666666665,-541.8666666666667,-134.4
155,-17.066666666666666,-539.7333333333333,-136.53333333333333
156,-19.2,-539.7333333333333,-128.0
157,-23.466666666666665,-533.3333333333334,-136.53333333333333
158,-21.333333333333332,-539.7333333333333,-138.66666666666666
159,-23.466666666666665,-539.7333333333333,-138.66666666666666
160,-29.866666666666667,-533.3333333333334,-140.8
161,-19.2,-539.7333333333333,-138.66666666666666
162,-27.733333333333334,-537.6,-136.53333333333333
163,-23.466666666666665,-544.0,-138.66666666666666
164,-14.933333333333334,-541.8666666666667,-136.53333333333333
165,-21.333333333333332,-535.4666666666667,-136.53333333333333
166,-21.333333333333332,-537.6,-138.66666666666666
167,-21.333333333333332,-537.6,-140.8
168,-23.466666666666665,-535.4666666666667,-134.4
169,-25.6,-533.3333333333334,-149.33333333333334
170,-21.333333333333332,-539.7333333333333,-142.93333333333334
171,-25.6,-544.0,-142.93333333333334
172,-19.2,-537.6,-142.93333333333334
173,-27.733333333333334,-535.4666666666667,-140.8
174,-25.6,-535.4666666666667,-138.66666666666666
175,-23.466666666666665,-537.6,-134.4
176,-21.333333333333332,-537.6,-138.66666666666666
177,-25.6,-535.4666666666667,-140.8
178,-25.6,-539.7333333333333,-142.93333333333334
179,-27.733333333333334,-550.4,-130.13333333333333
180,-25.6,-535.4666666666667,-136.53333333333333
181,-23.466666666666665,-539.7333333333333,-136.53333333333333
182,-21.333333333333332,-535.4666666666667,-136.53333333333333
183,-25.6,-535.4666666666667,-140.8
184,-23.466666666666665,-537.6,-136.53333333333333
185,-23.466666666666665,-537.6,-134.4
186,-19.2,-533.3333333333334,-142.93333333333334
187,-23.466666666666665,-539.7333333333333,-136.53333333333333
188,-19.2,-535.4666666666667,-140.8
189,-27.733333333333334,-541.8666666666667,-132.26666666666665
190,-29.866666666666667,-535.4666666666667,-136.53333333333333
191,-21.333333333333332,-539.7333333333333,-136.53333333333333
192,-21.333333333333332,-544.0,-136.53333333333333
193,-23.466666666666665,-537.6,-138.66666666666666
194,-19.2,-539.7333333333333,-136.53333333333333
195,-25.6,-539.7333333333333,-136.53333333333333
196,-21.333333333333332,-535.4666666666667,-138.66666666666666
197,-17.066666666666666,-541.8666666666667,-140.8
198,-25.6,-537.6,-134.4
199,-19.2,-541.8666666666667,-140.8
200,-17.066666666666666,-533.3333333333334,-134.4
201,-27.733333333333334,-539.7333333333333,-134.4
202,-23.466666666666665,-539.7333333333333,-136.53333333333333
203,-17.066666666666666,-541.8666666666667,-136.53333333333333
204,-23.466666666666665,-537.6,-136.53333333333333
205,-23.466666666666665,-539.7333333333333,-138.66666666666666
206,-21.333333333333332,-535.4666666666667,-140.8
207,-23.466666666666665,-539.7333333333333,-132.26666666666665
208,-21.333333333333332,-539.7333333333333,-138.66666666666666
209,-27.733333333333334,-544.0,-136.53333333333333
210,-14.933333333333334,-533.3333333333334,-136.53333333333333
211,-21.333333333333332,-541.8666666666667,-142.93333333333334
212,-23.466666666666665,-537.6,-136.53333333333333
213,-21.333333333333332,-535.4666666666667,-142.93333333333334
214,-19.2,-539.7333333333333,-140.8
215,-19.2,-544.0,-138.66666666666666
216,-23.466666666666665,-541.8666666666667,-138.66666666666666
217,-27.733333333333334,-539.7333333333333,-136.53333333333333
218,-21.333333333333332,-544.0,-136.53333333333333
219,-23.466666666666665,-533.3333333333334,-138.66666666666666
220,-19.2,-539.7333333333333,-136.53333333333333
221,-21.333333333333332,-539.7333333333333,-140.8
222,-12.8,-535.4666666666667,-149.33333333333334
223,-19.2,-544.0,-136.53333333333333
224,-21.333333333333332,-537.6,-134.4
225,-23.466666666666665,-537.6,-138.66666666666666
226,-21.333333333333332,-541.8666666666667,-132.26666666666665
227,-17.066666666666666,-541.8666666666667,-134.4
228,-21.333333333333332,-537.6,-136.53333333333333
229,-19.2,-539.7333333333333,-138.66666666666666
230,-21.333333333333332,-539.7333333333333,-138.66666666666666
231,-19.2,-539.7333333333333,-136.53333333333333
232,-23.466666666666665,-531.2,-138.66666666666666
233,-23.466666666666665,-535.4666666666667,-136.53333333333333
234,-29.866666666666667,-533.3333333333334,-140.8
235,-27.733333333333334,-535.4666666666667,-142.93333333333334
236,-12.8,-535.4666666666667,-136.53333333333333
237,-23.466666666666665,-539.7333333333333,-138.66666666666666
238,-29.866666666666667,-535.4666666666667,-138.66666666666666
239,-23.466666666666665,-539.7333333333333,-138.66666666666666
240,-27.733333333333334,-537.6,-136.53333333333333
241,-23.466666666666665,-537.6,-138.66666666666666
242,-25.6,-533.3333333333334,-147.2
243,-23.466666666666665,-541.8666666666667,-142.93333333333334
244,-32.0,-535.4666666666667,-130.13333333333333
245,-23.466666666666665,-539.7333333333333,-140.8
246,-21.333333333333332,-539.7333333333333,-140.8
247,-25.6,-537.6,-147.2
248,-23.466666666666665,-535.4666666666667,-134.4
249,-25.6,-531.2,-140.8
250,-19.2,-541.8666666666667,-140.8
251,-14.933333333333334,-535.4666666666667,-134.4
252,-19.2,-541.8666666666667,-136.53333333333333
253,-27.733333333333334,-539.7333333333333,-132.26666666666665
254,-25.6,-537.6,-134.4
255,-21.333333333333332,-539.7333333333333,-130.13333333333333
256,-27.733333333333334,-539.7333333333333,-134.4
257,-19.2,-544.0,-132.26666666666665
258,-29.866666666666667,-535.4666666666667,-140.8
259,-25.6,-535.4666666666667,-134.4
260,-25.6,-539.7333333333333,-136.53333333333333
261,-29.866666666666667,-541.8666666666667,-134.4
262,-27.733333333333334,-535.4666666666667,-134.4
263,-34.13333333333333,-537.6,-138.66666666666666
264,-27.733333333333334,-531.2,-138.66666666666666
265,-25.6,-535.4666666666667,-140.8
266,-29.866666666666667,-509.8666666666667,-136.53333333333333
267,-23.466666666666665,-544.0,-136.53333333333333
268,-21.333333333333332,-544.0,-138.66666666666666
269,-27.733333333333334,-533.3333333333334,-134.4
270,-29.866666666666667,-539.7333333333333,-142.93333333333334
271,-23.466666666666665,-544.0,-138.66666666666666
272,-27.733333333333334,-537.6,-138.66666666666666
273,-27.733333333333334,-539.7333333333333,-138.66666666666666
274,-32.0,-535.4666666666667,-138.66666666666666
275,-23.466666666666665,-544.0,-136.53333333333333
276,-23.466666666666665,-537.6,-130.13333333333333
277,-19.2,-537.6,-140.8
278,-25.6,-541.8666666666667,-136.53333333333333
279,-27.733333333333334,-541.8666666666667,-142.93333333333334
280,-23.466666666666665,-544.0,-136.53333333333333
281,-21.333333333333332,-537.6,-136.53333333333333
282,-19.2,-539.7333333333333,-140.8
283,-23.466666666666665,-537.6,-138.66666666666666
284,-27.733333333333334,-539.7333333333333,-142.93333333333334
285,-29.866666666666667,-533.3333333333334,-140.8
286,-27.733333333333334,-541.8666666666667,-136.53333333333333
287,-29.866666666666667,-531.2,-136.53333333333333
288,-44.8,-539.7333333333333,-140.8
289,-25.6,-539.7333333333333,-134.4
290,-27.733333333333334,-539.7333333333333,-142.93333333333334
291,-25.6,-531.2,-138.66666666666666
292,-34.13333333333333,-541.8666666666667,-138.66666666666666
293,-27.733333333333334,-539.7333333333333,-142.93333333333334
294,-23.466666666666665,-537.6,-136.53333333333333
295,-23.466666666666665,-535.4666666666667,-132.26666666666665
296,-25.6,-539.7333333333333,-136.53333333333333
297,-23.466666666666665,-533.3333333333334,-140.8
298,-34.13333333333333,-537.6,-136.53333333333333
299,-23.466666666666665,-539.7333333333333,-132.26666666666665
300,-23.466666666666665,-537.6,-140.8
301,-29.866666666666667,-537.6,-138.66666666666666
302,-27.733333333333334,-535.4666666666667,-134.4
303,-21.333333333333332,-541.8666666666667,-142.93333333333334
304,-17.066666666666666,-539.7333333333333,-136.53333333333333
305,-21.333333333333332,-544.0,-136.53333333333333
306,-25.6,-539.7333333333333,-136.53333333333333
307,-25.6,-537.6,-138.66666666666666
308,-29.866666666666667,-531.2,-140.8
309,-23.466666666666665,-535.4666666666667,-136.53333333333333
310,-14.933333333333334,-535.4666666666667,-140.8
311,-23.466666666666665,-544.0,-136.53333333333333
312,-29.866666666666667,-541.8666666666667,-140.8
313,-21.333333333333332,-541.8666666666667,-142.93333333333334
314,-27.733333333333334,-535.4666666666667,-145.06666666666666
315,-23.466666666666665,-537.6,-140.8
316,-27.733333333333334,-535.4666666666667,-136.53333333333333
317,-25.6,-537.6,-138.66666666666666
318,-32.0,-537.6,-136.53333333333333
319,-23.466666666666665,-537.6,-138.66666666666666
320,-21.333333333333332,-537.6,-136.53333333333333
321,-25.6,-541.8666666666667,-145.06666666666666
322,-21.333333333333332,-535.4666666666667,-134.4
323,-27.733333333333334,-541.8666666666667,-136.53333333333333
324,-21.333333333333332,-541.8666666666667,-140.8
325,-27.733333333333334,-537.6,-138.66666666666666
326,-21.333333333333332,-539.7333333333333,-140.8
327,-25.6,-539.7333333333333,-138.66666666666666
328,-23.466666666666665,-535.4666666666667,-138.66666666666666
329,-21.333333333333332,-533.3333333333334,-138.66666666666666
330,-21.333333333333332,-537.6,-140.8
331,-8.533333333333333,-531.2,-140.8
332,-23.466666666666665,-535.4666666666667,-142.93333333333334
333,-25.6,-537.6,-142.93333333333334
334,-29.866666666666667,-537.6,-140.8
335,-23.466666666666665,-533.3333333333334,-134.4
336,-23.466666666666665,-539.7333333333333,-145.06666666666666
337,-25.6,-535.4666666666667,-138.66666666666666
338,-29.866666666666667,-535.4666666666667,-140.8
339,-19.2,-539.7333333333333,-136.53333333333333
340,-17.066666666666666,-539.7333333333333,-145.06666666666666
341,-21.333333333333332,-539.7333333333333,-138.66666666666666
342,-27.733333333333334,-535.4666666666667,-140.8
343,-23.466666666666665,-533.3333333333334,-138.66666666666666
344,-21.333333333333332,-537.6,-142.93333333333334
345,-27.733333333333334,-535.4666666666667,-136.53333333333333
346,-19.2,-535.4666666666667,-142.93333333333334
347,-23.466666666666665,-539.7333333333333,-138.66666666666666
348,-21.333333333333332,-537.6,-140.8
349,-29.866666666666667,-541.8666666666667,-140.8
350,-29.866666666666667,-535.4666666666667,-142.93333333333334
351,-21.333333333333332,-541.8666666666667,-140.8
352,-23.466666666666665,-535.4666666666667,-140.8
353,-23.466666666666665,-537.6,-142.93333333333334
354,-25.6,-537.6,-136.53333333333333
355,-25.6,-537.6,-142.93333333333334
356,-23.466666666666665,-537.6,-138.66666666666666
357,-25.6,-537.6,-138.66666666666666
358,-23.466666666666665,-537.6,-136.53333333333333
359,-12.8,-539.7333333333333,-145.06666666666666
360,-23.466666666666665,-539.7333333333333,-142.93333333333334
361,-21.333333333333332,-539.7333333333333,-134.4
362,-19.2,-537.6,-138.66666666666666
363,-25.6,-541.8666666666667,-136.53333333333333
364,-25.6,-539.7333333333333,-142.93333333333334
365,-27.733333333333334,-541.8666666666667,-140.8
366,-21.333333333333332,-539.7333333333333,-140.8
367,-27.733333333333334,-541.8666666666667,-142.93333333333334
368,-25.6,-539.7333333333333,-138.66666666666666
369,-21.333333333333332,-537.6,-138.66666666666666
370,-29.866666666666667,-535.4666666666667,-138.66666666666666
371,-25.6,-537.6,-138.66666666666666
372,-29.866666666666667,-539.7333333333333,-136.53333333333333
373,-29.866666666666667,-541.8666666666667,-140.8
374,-27.733333333333334,-535.4666666666667,-138.66666666666666
375,-17.066666666666666,-541.8666666666667,-138.66666666666666
376,-21.333333333333332,-541.8666666666667,-136.53333333333333
377,-23.466666666666665,-537.6,-136.53333333333333
378,-29.866666666666667,-535.4666666666667,-140.8
379,-23.466666666666665,-539.7333333333333,-140.8
380,-27.733333333333334,-537.6,-138.66666666666666
381,-23.466666666666665,-537.6,-138.66666666666666
382,-21.333333333333332,-539.7333333333333,-136.53333333333333
383,-27.733333333333334,-535.4666666666667,-140.8
384,-17.066666666666666,-537.6,-134.4
385,-25.6,-535.4666666666667,-136.53333333333333
386,-27.733333333333334,-531.2,-138.66666666666666
387,-19.2,-537.6,-138.66666666666666
388,-21.333333333333332,-535.4666666666667,-140.8
389,-25.6,-537.6,-140.8
390,-21.333333333333332,-537.6,-142.93333333333334
391,-27.733333333333334,-537.6,-145.06666666666666
392,-29.866666666666667,-537.6,-140.8
393,-21.333333333333332,-539.7333333333333,-147.2
394,-25.6,-535.4666666666667,-140.8
395,-19.2,-541.8666666666667,-142.93333333333334
396,-17.066666666666666,-539.7333333333333,-138.66666666666666
397,-23.466666666666665,-526.9333333333333,-138.66666666666666
398,-32.0,-533.3333333333334,-134.4
399,-19.2,-539.7333333333333,-142.93333333333334
400,-25.6,-537.6,-138.66666666666666
401,-19.2,-535.4666666666667,-138.66666666666666
402,-19.2,-535.4666666666667,-138.66666666666666
403,-19.2,-544.0,-138.66666666666666
404,-21.333333333333332,-539.7333333333333,-132.26666666666665
405,-19.2,-539.7333333333333,-136.53333333333333
406,-27.733333333333334,-535.4666666666667,-136.53333333333333
407,-21.333333333333332,-541.8666666666667,-136.53333333333333
408,-19.2,-541.8666666666667,-138.66666666666666
409,-17.066666666666666,-544.0,-140.8
410,-23.466666666666665,-544.0,-136.53333333333333
411,-17.066666666666666,-539.7333333333333,-136.53333333333333
412,-14.933333333333334,-539.7333333333333,-140.8
413,-25.6,-537.6,-138.66666666666666
414,-19.2,-539.7333333333333,-136.53333333333333
415,-19.2,-537.6,-138.66666666666666
416,-17.066666666666666,-535.4666666666667,-138.66666666666666
417,-21.333333333333332,-539.7333333333333,-134.4
418,-29.866666666666667,-544.0,-140.8
419,-21.333333333333332,-537.6,-136.53333333333333
420,-25.6,-537.6,-140.8
421,-17.066666666666666,-544.0,-138.66666666666666
422,-25.6,-535.4666666666667,-147.2
423,-25.6,-539.7333333333333,-145.06666666666666
424,-21.333333333333332,-535.4666666666667,-138.66666666666666
425,-23.466666666666665,-535.4666666666667,-138.66666666666666
426,-23.466666666666665,-533.3333333333334,-140.8
427,-23.466666666666665,-537.6,-138.66666666666666
428,-21.333333333333332,-533.3333333333334,-140.8
429,-14.933333333333334,-539.7333333333333,-145.06666666666666
430,-25.6,-531.2,-140.8
431,-21.333333333333332,-535.4666666666667,-138.66666666666666
432,-23.466666666666665,-537.6,-145.06666666666666
433,-19.2,-539.7333333333333,-134.4
434,-27.733333333333334,-533.3333333333334,-140.8
435,-21.333333333333332,-539.7333333333333,-142.93333333333334
436,-32.0,-535.4666666666667,-142.93333333333334
437,-25.6,-533.3333333333334,-138.66666666666666
438,-17.066666666666666,-539.7333333333333,-138.66666666666666
439,-21.333333333333332,-537.6,-145.06666666666666
440,-19.2,-533.3333333333334,-155.73333333333332
441,-17.066666666666666,-535.4666666666667,-134.4
442,-25.6,-533.3333333333334,-138.66666666666666
443,-23.466666666666665,-531.2,-140.8
444,-21.333333333333332,-535.4666666666667,-140.8
445,-21.333333333333332,-539.7333333333333,-140.8
446,-23.466666666666665,-533.3333333333334,-142.93333333333334
447,-23.466666666666665,-535.4666666666667,-140.8
448,-21.333333333333332,-539.7333333333333,-140.8
449,-19.2,-539.7333333333333,-142.93333333333334
450,-23.466666666666665,-535.4666666666667,-142.93333333333334
451,-21.333333333333332,-539.7333333333333,-142.93333333333334
452,-17.066666666666666,-537.6,-145.06666666666666
453,-25.6,-541.8666666666667,-145.06666666666666
454,-17.066666666666666,-541.8666666666667,-140.8
455,-21.333333333333332,-546.1333333333333,-138.66666666666666
456,-25.6,-537.6,-140.8
457,-25.6,-533.3333333333334,-136.53333333333333
458,-21.333333333333332,-541.8666666666667,-151.46666666666667
459,-25.6,-541.8666666666667,-134.4
460,-29.866666666666667,-539.7333333333333,-136.53333333333333
461,-23.466666666666665,-544.0,-142.93333333333334
462,-29.866666666666667,-520.5333333333333,-140.8
463,-25.6,-546.1333333333333,-142.93333333333334
464,-25.6,-539.7333333333333,-138.66666666666666
465,-27.733333333333334,-539.7333333333333,-136.53333333333333
466,-23.466666666666665,-539.7333333333333,-140.8
467,-32.0,-529.0666666666666,-138.66666666666666
468,-32.0,-535.4666666666667,-142.93333333333334
469,-25.6,-535.4666666666667,-147.2
470,-34.13333333333333,-537.6,-140.8
471,-34.13333333333333,-533.3333333333334,-138.66666666666666
472,-29.866666666666667,-537.6,-142.93333333333334
473,-27.733333333333334,-537.6,-140.8
474,-21.333333333333332,-537.6,-134.4
475,-25.6,-537.6,-142.93333333333334
476,-27.733333333333334,-537.6,-140.8
477,-23.466666666666665,-535.4666666666667,-138.66666666666666
478,-25.6,-539.7333333333333,-145.06666666666666
479,-25.6,-537.6,-140.8
480,-23.466666666666665,-535.4666666666667,-136.53333333333333
481,-19.2,-537.6,-140.8
482,-27.733333333333334,-533.3333333333334,-142.93333333333334
483,-25.6,-535.4666666666667,-149.33333333333334
484,-29.866666666666667,-526.9333333333333,-149.33333333333334
485,-25.6,-535.4666666666667,-136.53333333333333
486,-23.466666666666665,-539.7333333333333,-147.2
487,-14.933333333333334,-541.8666666666667,-138.66666666666666
488,-25.6,-537.6,-145.06666666666666
489,-21.333333333333332,-539.7333333333333,-140.8
490,-19.2,-539.7333333333333,-136.53333333333333
491,-25.6,-535.4666666666667,-136.53333333333333
492,-21.333333333333332,-535.4666666666667,-140.8
493,-25.6,-535.4666666666667,-138.66666666666666
494,-27.733333333333334,-535.4666666666667,-138.66666666666666
495,-25.6,-537.6,-145.06666666666666
496,-21.333333333333332,-539.7333333333333,-140.8
497,-23.466666666666665,-535.4666666666667,-140.8
498,-23.466666666666665,-541.8666666666667,-145.06666666666666
499,-23.466666666666665,-537.6,-142.93333333333334
500,-21.333333333333332,-539.7333333333333,-138.66666666666666
501,-25.6,-541.8666666666667,-140.8
502,-25.6,-539.7333333333333,-142.93333333333334
503,-19.2,-535.4666666666667,-145.06666666666666
504,-27.733333333333334,-539.7333333333333,-140.8
505,-23.466666666666665,-535.4666666666667,-145.06666666666666
506,-21.333333333333332,-520.5333333333333,-132.26666666666665
507,-27.733333333333334,-539.7333333333333,-142.93333333333334
508,-29.866666666666667,-537.6,-136.53333333333333
509,-27.733333333333334,-544.0,-151.46666666666667
510,-27.733333333333334,-537.6,-140.8
511,-19.2,-539.7333333333333,-142.93333333333334
512,-23.466666666666665,-541.8666666666667,-140.8
513,-25.6,-541.8666666666667,-138.66666666666666
514,-19.2,-537.6,-147.2
515,-25.6,-537.6,-149.33333333333334
516,-17.066666666666666,-537.6,-151.46666666666667
517,-21.333333333333332,-537.6,-145.06666666666666
518,-25.6,-537.6,-142.93333333333334
519,-17.066666666666666,-539.7333333333333,-142.93333333333334
520,-19.2,-539.7333333333333,-138.66666666666666
521,-19.2,-548.2666666666667,-140.8
522,-25.6,-541.8666666666667,-136.53333333333333
523,-21.333333333333332,-537.6,-138.66666666666666
524,-23.466666666666665,-544.0,-140.8
525,-29.866666666666667,-535.4666666666667,-147.2
526,-23.466666666666665,-537.6,-140.8
527,-17.066666666666666,-522.6666666666666,-140.8
528,-25.6,-539.7333333333333,-151.46666666666667
529,-29.866666666666667,-533.3333333333334,-140.8
530,-21.333333333333332,-537.6,-140.8
531,-27.733333333333334,-535.4666666666667,-138.66666666666666
532,-25.6,-539.7333333333333,-138.66666666666666
533,-23.466666666666665,-541.8666666666667,-145.06666666666666
534,-21.333333333333332,-544.0,-138.66666666666666
535,-27.733333333333334,-535.4666666666667,-147.2
536,-23.466666666666665,-533.3333333333334,-140.8
537,-25.6,-537.6,-145.06666666666666
538,-25.6,-531.2,-140.8
539,-19.2,-535.4666666666667,-142.93333333333334
540,-23.466666666666665,-533.3333333333334,-142.93333333333334
541,-23.466666666666665,-533.3333333333334,-140.8
542,-21.333333333333332,-535.4666666666667,-136.53333333333333
543,-19.2,-535.4666666666667,-142.93333333333334
544,-27.733333333333334,-535.4666666666667,-145.06666666666666
545,-29.866666666666667,-531.2,-138.66666666666666
546,-19.2,-537.6,-147.2
547,-25.6,-544.0,-145.06666666666666
548,-23.466666666666665,-539.7333333333333,-147.2
549,-23.466666666666665,-535.4666666666667,-140.8
550,-21.333333333333332,-533.3333333333334,-140.8
551,-29.866666666666667,-535.4666666666667,-142.93333333333334
552,-25.6,-537.6,-136.53333333333333
553,-21.333333333333332,-535.4666666666667,-142.93333333333334
554,-23.466666666666665,-533.3333333333334,-142.93333333333334
555,-21.333333333333332,-533.3333333333334,-140.8
556,-19.2,-535.4666666666667,-145.06666666666666
557,-17.066666666666666,-533.3333333333334,-136.53333333333333
558,-17.066666666666666,-541.8666666666667,-145.06666666666666
559,-21.333333333333332,-537.6,-140.8
560,-23.466666666666665,-539.7333333333333,-136.53333333333333
561,-19.2,-544.0,-138.66666666666666
562,-27.733333333333334,-535.4666666666667,-138.66666666666666
563,-23.466666666666665,-539.7333333333333,-138.66666666666666
564,-25.6,-535.4666666666667,-145.06666666666666
565,-25.6,-533.3333333333334,-140.8
566,-21.333333333333332,-541.8666666666667,-140.8
567,-27.733333333333334,-539.7333333333333,-138.66666666666666
568,-25.6,-541.8666666666667,-138.66666666666666
569,-23.466666666666665,-539.7333333333333,-149.33333333333334
570,-23.466666666666665,-539.7333333333333,-138.66666666666666
571,-23.466666666666665,-550.4,-162.13333333333333
572,-25.6,-535.4666666666667,-136.53333333333333
573,-14.933333333333334,-541.8666666666667,-140.8
574,-19.2,-539.7333333333333,-142.93333333333334
575,-27.733333333333334,-537.6,-140.8
576,-21.333333333333332,-539.7333333333333,-138.66666666666666
577,-21.333333333333332,-537.6,-140.8
578,-14.933333333333334,-541.8666666666667,-138.66666666666666
579,-21.333333333333332,-535.4666666666667,-142.93333333333334
580,-19.2,-531.2,-140.8
581,-19.2,-537.6,-142.93333333333334
582,-23.466666666666665,-535.4666666666667,-138.66666666666666
583,-23.466666666666665,-537.6,-140.8
584,-23.466666666666665,-531.2,-138.66666666666666
585,-21.333333333333332,-537.6,-140.8
586,-25.6,-537.6,-136.53333333333333
587,-23.466666666666665,-537.6,-142.93333333333334
588,-25.6,-533.3333333333334,-145.06666666666666
589,-21.333333333333332,-541.8666666666667,-136.53333333333333
590,-21.333333333333332,-537.6,-140.8
591,-19.2,-539.7333333333333,-138.66666666666666
592,-21.333333333333332,-537.6,-138.66666666666666
593,-27.733333333333334,-529.0666666666666,-128.0
594,-25.6,-537.6,-136.53333333333333
595,-25.6,-537.6,-138.66666666666666
596,-23.466666666666665,-541.8666666666667,-138.66666666666666
597,-27.733333333333334,-529.0666666666666,-138.66666666666666
598,-27.733333333333334,-537.6,-140.8
599,-25.6,-539.7333333333333,-136.53333333333333
600,-23.466666666666665,-537.6,-136.53333333333333
601,-21.333333333333332,-537.6,-138.66666666666666
602,-19.2,-533.3333333333334,-138.66666666666666
603,-23.466666666666665,-539.7333333333333,-145.06666666666666
604,-32.0,-535.4666666666667,-149.33333333333334
605,-21.333333333333332,-537.6,-138.66666666666666
606,-25.6,-537.6,-147.2
607,-17.066666666666666,-537.6,-140.8
608,-25.6,-539.7333333333333,-145.06666666666666
609,-19.2,-535.4666666666667,-138.66666666666666
610,-27.733333333333334,-541.8666666666667,-147.2
611,-25.6,-535.4666666666667,-140.8
612,-21.333333333333332,-535.4666666666667,-136.53333333333333
613,-17.066666666666666,-535.4666666666667,-138.66666666666666
614,-21.333333333333332,-537.6,-140.8
615,-8.533333333333333,-535.4666666666667,-136.53333333333333
616,-25.6,-541.8666666666667,-140.8
617,-19.2,-539.7333333333333,-145.06666666666666
618,-23.466666666666665,-535.4666666666667,-147.2
619,-21.333333333333332,-531.2,-145.06666666666666
620,-14.933333333333334,-529.0666666666666,-136.53333333333333
621,-19.2,-533.3333333333334,-145.06666666666666
622,-23.466666666666665,-537.6,-140.8
623,-21.333333333333332,-535.4666666666667,-138.66666666666666
624,-27.733333333333334,-541.8666666666667,-142.93333333333334
625,-27.733333333333334,-531.2,-136.53333333333333
626,-25.6,-533.3333333333334,-142.93333333333334
627,-21.333333333333332,-541.8666666666667,-145.06666666666666
628,-17.066666666666666,-533.3333333333334,-145.06666666666666
629,-21.333333333333332,-529.0666666666666,-140.8
630,-21.333333333333332,-539.7333333333333,-140.8
631,-27.733333333333334,-535.4666666666667,-151.46666666666667
632,-27.733333333333334,-535.4666666666667,-142.93333333333334
633,-23.466666666666665,-535.4666666666667,-147.2
634,-23.466666666666665,-537.6,-140.8
635,-21.333333333333332,-539.7333333333333,-145.06666666666666
636,-10.666666666666666,-514.1333333333333,-155.73333333333332
637,-23.466666666666665,-539.7333333333333,-147.2
638,-27.733333333333334,-533.3333333333334,-138.66666666666666
639,-25.6,-533.3333333333334,-138.66666666666666
640,-23.466666666666665,-533.3333333333334,-147.2
641,-19.2,-535.4666666666667,-149.33333333333334
642,-27.733333333333334,-537.6,-147.2
643,-25.6,-535.4666666666667,-153.6
644,-25.6,-529.0666666666666,-149.33333333333334
645,-32.0,-531.2,-151.46666666666667
646,-21.333333333333332,-533.3333333333334,-151.46666666666667
647,-23.466666666666665,-533.3333333333334,-157.86666666666667
648,-17.066666666666666,-535.4666666666667,-149.33333333333334
649,-23.466666666666665,-535.4666666666667,-147.2
650,-25.6,-526.9333333333333,-155.73333333333332
651,-14.933333333333334,-535.4666666666667,-149.33333333333334
652,-19.2,-539.7333333333333,-145.06666666666666
653,-19.2,-535.4666666666667,-151.46666666666667
654,-17.066666666666666,-531.2,-145.06666666666666
655,-21.333333333333332,-531.2,-149.33333333333334
656,-19.2,-531.2,-151.46666666666667
657,-19.2,-531.2,-151.46666666666667
658,-14.933333333333334,-539.7333333333333,-160.0
659,-27.733333333333334,-533.3333333333334,-149.33333333333334
660,-21.333333333333332,-537.6,-149.33333333333334
661,-23.466666666666665,-531.2,-149.33333333333334
662,-23.466666666666665,-533.3333333333334,-147.2
663,-27.733333333333334,-537.6,-142.93333333333334
664,-23.466666666666665,-531.2,-149.33333333333334
665,-23.466666666666665,-533.3333333333334,-149.33333333333334
666,-23.466666666666665,-526.9333333333333,-153.6
667,-29.866666666666667,-535.4666666666667,-147.2
668,-27.733333333333334,-529.0666666666666,-151.46666666666667
669,-23.466666666666665,-529.0666666666666,-155.73333333333332
670,-27.733333333333334,-531.2,-153.6
671,-19.2,-533.3333333333334,-142.93333333333334
672,-21.333333333333332,-526.9333333333333,-142.93333333333334
673,-23.466666666666665,-531.2,-149.33333333333334
674,-17.066666666666666,-529.0666666666666,-155.73333333333332
675,-25.6,-531.2,-151.46666666666667
676,-23.466666666666665,-533.3333333333334,-153.6
677,-21.333333333333332,-535.4666666666667,-153.6
678,-23.466666666666665,-526.9333333333333,-147.2
679,-21.333333333333332,-529.0666666666666,-162.13333333333333
680,0.0,-531.2,-177.06666666666666
681,-12.8,-531.2,-160.0
682,-19.2,-529.0666666666666,-153.6
683,-23.466666666666665,-533.3333333333334,-155.73333333333332
684,-23.466666666666665,-529.0666666666666,-162.13333333333333
685,-19.2,-524.8,-162.13333333333333
686,-25.6,-526.9333333333333,-164.26666666666665
687,-21.333333333333332,-526.9333333333333,-160.0
688,-27.733333333333334,-526.9333333333333,-162.13333333333333
689,-23.466666666666665,-541.8666666666667,-164.26666666666665
690,-23.466666666666665,-537.6,-172.8
691,-23.466666666666665,-531.2,-168.53333333333333
692,-25.6,-529.0666666666666,-177.06666666666666
693,-19.2,-526.9333333333333,-160.0
694,-23.466666666666665,-529.0666666666666,-157.86666666666667
695,-23.466666666666665,-526.9333333333333,-162.13333333333333
696,-23.466666666666665,-526.9333333333333,-166.4
697,-23.466666666666665,-526.9333333333333,-162.13333333333333
698,-27.733333333333334,-520.5333333333333,-160.0
699,-23.466666666666665,-522.6666666666666,-153.6
700,-23.466666666666665,-526.9333333333333,-162.13333333333333
701,-32.0,-520.5333333333333,-155.73333333333332
702,-23.466666666666665,-524.8,-172.8
703,-23.466666666666665,-522.6666666666666,-160.0
704,-32.0,-526.9333333333333,-166.4
705,-32.0,-522.6666666666666,-174.93333333333334
706,-29.866666666666667,-518.4,-166.4
707,-34.13333333333333,-520.5333333333333,-170.66666666666666
708,-23.466666666666665,-520.5333333333333,-162.13333333333333
709,-32.0,-516.2666666666667,-166.4
710,-27.733333333333334,-516.2666666666667,-164.26666666666665
711,-27.733333333333334,-518.4,-160.0
712,-25.6,-518.4,-160.0
713,-25.6,-529.0666666666666,-164.26666666666665
714,-17.066666666666666,-524.8,-157.86666666666667
715,-23.466666666666665,-526.9333333333333,-153.6
716,-25.6,-524.8,-157.86666666666667
717,-17.066666666666666,-531.2,-160.0
718,-19.2,-529.0666666666666,-160.0
719,-14.933333333333334,-533.3333333333334,-160.0
720,-19.2,-526.9333333333333,-166.4
721,-19.2,-526.9333333333333,-170.66666666666666
722,-19.2,-531.2,-170.66666666666666
723,-27.733333333333334,-522.6666666666666,-145.06666666666666
724,-27.733333333333334,-524.8,-170.66666666666666
725,-27.733333333333334,-520.5333333333333,-179.2
726,-21.333333333333332,-522.6666666666666,-172.8
727,-21.333333333333332,-520.5333333333333,-174.93333333333334
728,-25.6,-522.6666666666666,-172.8
729,-27.733333333333334,-518.4,-160.0
730,-21.333333333333332,-524.8,-170.66666666666666
731,-21.333333333333332,-529.0666666666666,-166.4
732,-23.466666666666665,-524.8,-170.66666666666666
733,-23.466666666666665,-526.9333333333333,-162.13333333333333
734,-17.066666666666666,-533.3333333333334,-170.66666666666666
735,-25.6,-520.5333333333333,-168.53333333333333
736,-27.733333333333334,-522.6666666666666,-183.46666666666667
737,-29.866666666666667,-522.6666666666666,-172.8
738,-29.866666666666667,-518.4,-187.73333333333332
739,-32.0,-520.5333333333333,-183.46666666666667
740,-27.733333333333334,-518.4,-187.73333333333332
741,-29.866666666666667,-512.0,-185.6
742,-36.266666666666666,-516.2666666666667,-187.73333333333332
743,-27.733333333333334,-512.0,-187.73333333333332
744,-34.13333333333333,-514.1333333333333,-185.6
745,-25.6,-497.06666666666666,-170.66666666666666
746,-29.866666666666667,-512.0,-174.93333333333334
747,-34.13333333333333,-516.2666666666667,-179.2
748,-29.866666666666667,-518.4,-179.2
749,-29.866666666666667,-514.1333333333333,-174.93333333333334
750,-34.13333333333333,-514.1333333333333,-179.2
751,-29.866666666666667,-520.5333333333333,-189.86666666666667
752,-32.0,-509.8666666666667,-192.0
753,-34.13333333333333,-505.59999999999997,-192.0
754,-29.866666666666667,-516.2666666666667,-192.0
755,-25.6,-514.1333333333333,-206.93333333333334
756,-23.466666666666665,-507.73333333333335,-196.26666666666665
757,-29.866666666666667,-507.73333333333335,-202.66666666666666
758,-27.733333333333334,-499.2,-209.06666666666666
759,-21.333333333333332,-501.3333333333333,-206.93333333333334
760,-23.466666666666665,-497.06666666666666,-211.2
761,-25.6,-492.8,-200.53333333333333
762,-19.2,-497.06666666666666,-198.4
763,-17.066666666666666,-497.06666666666666,-198.4
764,-12.8,-503.46666666666664,-198.4
765,-19.2,-497.06666666666666,-196.26666666666665
766,-25.6,-499.2,-187.73333333333332
767,-21.333333333333332,-503.46666666666664,-211.2
768,-6.4,-509.8666666666667,-200.53333333333333
769,-6.4,-514.1333333333333,-200.53333333333333
770,-10.666666666666666,-516.2666666666667,-198.4
771,-23.466666666666665,-509.8666666666667,-202.66666666666666
772,-23.466666666666665,-512.0,-211.2
773,-23.466666666666665,-509.8666666666667,-213.33333333333334
774,-21.333333333333332,-512.0,-213.33333333333334
775,-27.733333333333334,-507.73333333333335,-213.33333333333334
776,-25.6,-505.59999999999997,-215.46666666666667
777,-23.466666666666665,-501.3333333333333,-217.6
778,-27.733333333333334,-507.73333333333335,-226.13333333333333
779,-32.0,-499.2,-221.86666666666667
780,-27.733333333333334,-492.8,-215.46666666666667
781,-32.0,-501.3333333333333,-219.73333333333332
782,-23.466666666666665,-499.2,-211.2
783,-27.733333333333334,-501.3333333333333,-213.33333333333334
784,-19.2,-501.3333333333333,-211.2
785,-21.333333333333332,-503.46666666666664,-213.33333333333334
786,-29.866666666666667,-512.0,-213.33333333333334
787,-25.6,-514.1333333333333,-215.46666666666667
788,-25.6,-516.2666666666667,-209.06666666666666
789,-10.666666666666666,-503.46666666666664,-211.2
790,-32.0,-512.0,-217.6
791,-29.866666666666667,-509.8666666666667,-221.86666666666667
792,-32.0,-516.2666666666667,-219.73333333333332
793,-25.6,-505.59999999999997,-232.53333333333333
794,-32.0,-509.8666666666667,-241.06666666666666
795,-32.0,-499.2,-238.93333333333334
796,-29.866666666666667,-497.06666666666666,-234.66666666666666
797,-27.733333333333334,-492.8,-232.53333333333333
798,-23.466666666666665,-494.93333333333334,-228.26666666666665
799,-32.0,-488.5333333333333,-232.53333333333333
800,-19.2,-494.93333333333334,-236.79999999999998
801,-21.333333333333332,-494.93333333333334,-234.66666666666666
802,-17.066666666666666,-490.6666666666667,-232.53333333333333
803,-12.8,-494.93333333333334,-228.26666666666665
804,-6.4,-490.6666666666667,-228.26666666666665
805,-12.8,-486.4,-232.53333333333333
806,-12.8,-492.8,-234.66666666666666
807,-14.933333333333334,-486.4,-241.06666666666666
808,-19.2,-482.1333333333333,-234.66666666666666
809,-12.8,-480.0,-238.93333333333334
810,-14.933333333333334,-477.8666666666667,-241.06666666666666
811,-21.333333333333332,-467.2,-253.86666666666667
812,-21.333333333333332,-477.8666666666667,-245.33333333333334
813,-17.066666666666666,-460.8,-243.2
814,-23.466666666666665,-467.2,-249.6
815,-23.466666666666665,-467.2,-247.46666666666667
816,-21.333333333333332,-465.06666666666666,-249.6
817,-29.866666666666667,-471.46666666666664,-238.93333333333334
818,-21.333333333333332,-475.73333333333335,-228.26666666666665
819,-19.2,-480.0,-236.79999999999998
820,-19.2,-486.4,-241.06666666666666
821,-17.066666666666666,-486.4,-236.79999999999998
822,-23.466666666666665,-480.0,-249.6
823,-29.866666666666667,-477.8666666666667,-247.46666666666667
824,-27.733333333333334,-482.1333333333333,-249.6
825,-27.733333333333334,-480.0,-266.6666666666667
826,-25.6,-477.8666666666667,-266.6666666666667
827,-32.0,-469.3333333333333,-270.93333333333334
828,-25.6,-469.3333333333333,-266.6666666666667
829,-19.2,-465.06666666666666,-275.2
830,-23.466666666666665,-458.6666666666667,-270.93333333333334
831,-25.6,-465.06666666666666,-262.4
832,-34.13333333333333,-471.46666666666664,-256.0
833,-32.0,-450.1333333333333,-253.86666666666667
834,-29.866666666666667,-452.26666666666665,-249.6
835,-25.6,-452.26666666666665,-253.86666666666667
836,-25.6,-456.5333333333333,-251.73333333333332
837,-21.333333333333332,-454.4,-256.0
838,-23.466666666666665,-458.6666666666667,-249.6
839,-23.466666666666665,-458.6666666666667,-256.0
840,-32.0,-454.4,-256.0
841,-29.866666666666667,-443.73333333333335,-270.93333333333334
842,-27.733333333333334,-448.0,-268.8
843,-29.866666666666667,-448.0,-270.93333333333334
844,-34.13333333333333,-452.26666666666665,-281.6
845,-38.4,-443.73333333333335,-273.06666666666666
846,-38.4,-445.8666666666667,-277.3333333333333
847,-36.266666666666666,-448.0,-273.06666666666666
848,-40.53333333333333,-452.26666666666665,-270.93333333333334
849,-40.53333333333333,-448.0,-268.8
850,-38.4,-458.6666666666667,-268.8
851,-44.8,-452.26666666666665,-264.5333333333333
852,-40.53333333333333,-456.5333333333333,-275.2
853,-49.06666666666666,-454.4,-275.2
854,-44.8,-452.26666666666665,-262.4
855,-44.8,-448.0,-273.06666666666666
856,-42.666666666666664,-450.1333333333333,-281.6
857,-46.93333333333333,-448.0,-281.6
858,-44.8,-439.46666666666664,-285.8666666666667
859,-42.666666666666664,-445.8666666666667,-283.73333333333335
860,-38.4,-439.46666666666664,-294.4
861,-40.53333333333333,-430.93333333333334,-296.5333333333333
862,-32.0,-430.93333333333334,-292.26666666666665
863,-32.0,-424.5333333333333,-296.5333333333333
864,-34.13333333333333,-428.8,-292.26666666666665
865,-23.466666666666665,-424.5333333333333,-294.4
866,-27.733333333333334,-426.6666666666667,-281.6
867,-17.066666666666666,-437.3333333333333,-277.3333333333333
868,-17.066666666666666,-433.06666666666666,-270.93333333333334
869,-17.066666666666666,-428.8,-277.3333333333333
870,-23.466666666666665,-426.6666666666667,-275.2
871,-21.333333333333332,-424.5333333333333,-279.46666666666664
872,-34.13333333333333,-428.8,-285.8666666666667
873,-38.4,-428.8,-283.73333333333335
874,-38.4,-439.46666666666664,-296.5333333333333
875,-46.93333333333333,-435.2,-294.4
876,-57.6,-456.5333333333333,-302.93333333333334
877,-51.2,-439.46666666666664,-305.06666666666666
878,-42.666666666666664,-437.3333333333333,-311.46666666666664
879,-53.333333333333336,-433.06666666666666,-320.0
880,-44.8,-430.93333333333334,-311.46666666666664
881,-34.13333333333333,-435.2,-302.93333333333334
882,-34.13333333333333,-428.8,-302.93333333333334
883,-29.866666666666667,-424.5333333333333,-296.5333333333333
884,-27.733333333333334,-435.2,-300.8
885,-23.466666666666665,-430.93333333333334,-285.8666666666667
886,-27.733333333333334,-426.6666666666667,-285.8666666666667
887,-21.333333333333332,-428.8,-296.5333333333333
888,-29.866666666666667,-428.8,-290.1333333333333
889,-32.0,-420.26666666666665,-298.6666666666667
890,-40.53333333333333,-420.26666666666665,-305.06666666666666
891,-42.666666666666664,-422.4,-302.93333333333334
892,-49.06666666666666,-424.5333333333333,-324.26666666666665
893,-42.666666666666664,-424.5333333333333,-326.4
894,-49.06666666666666,-433.06666666666666,-324.26666666666665
895,-38.4,-426.6666666666667,-343.46666666666664
896,-40.53333333333333,-422.4,-332.8
897,-36.266666666666666,-420.26666666666665,-330.6666666666667
898,-25.6,-422.4,-334.93333333333334
899,-21.333333333333332,-428.8,-315.73333333333335
900,-21.333333333333332,-428.8,-311.46666666666664
901,-12.8,-430.93333333333334,-313.6
902,-12.8,-426.6666666666667,-309.3333333333333
903,-17.066666666666666,-420.26666666666665,-311.46666666666664
904,-19.2,-416.0,-320.0
905,-25.6,-411.73333333333335,-315.73333333333335
906,-34.13333333333333,-409.6,-328.5333333333333
907,-34.13333333333333,-418.1333333333333,-334.93333333333334
908,-44.8,-413.8666666666667,-343.46666666666664
909,-44.8,-422.4,-341.3333333333333
910,-44.8,-420.26666666666665,-347.73333333333335
911,-53.333333333333336,-418.1333333333333,-347.73333333333335
912,-44.8,-424.5333333333333,-356.26666666666665
913,-46.93333333333333,-424.5333333333333,-343.46666666666664
914,-46.93333333333333,-413.8666666666667,-341.3333333333333
915,-34.13333333333333,-420.26666666666665,-343.46666666666664
916,-32.0,-413.8666666666667,-330.6666666666667
917,-23.466666666666665,-413.8666666666667,-320.0
918,-10.666666666666666,-411.73333333333335,-324.26666666666665
919,-8.533333333333333,-405.3333333333333,-320.0
920,-8.533333333333333,-398.93333333333334,-328.5333333333333
921,-2.1333333333333333,-392.5333333333333,-322.1333333333333
922,-14.933333333333334,-396.8,-326.4
923,-12.8,-394.6666666666667,-337.06666666666666
924,-21.333333333333332,-392.5333333333333,-332.8
925,-29.866666666666667,-388.26666666666665,-343.46666666666664
926,-27.733333333333334,-381.8666666666667,-337.06666666666666
927,-40.53333333333333,-390.4,-337.06666666666666
928,-42.666666666666664,-392.5333333333333,-354.1333333333333
929,-42.666666666666664,-392.5333333333333,-341.3333333333333
930,-46.93333333333333,-386.1333333333333,-345.6
931,-49.06666666666666,-386.1333333333333,-343.46666666666664
932,-46.93333333333333,-386.1333333333333,-339.2
933,-44.8,-388.26666666666665,-330.6666666666667
934,-36.266666666666666,-390.4,-328.5333333333333
935,-36.266666666666666,-388.26666666666665,-332.8
936,-34.13333333333333,-384.0,-328.5333333333333
937,-34.13333333333333,-386.1333333333333,-334.93333333333334
938,-27.733333333333334,-379.73333333333335,-332.8
939,-27.733333333333334,-375.46666666666664,-343.46666666666664
940,-32.0,-371.2,-349.8666666666667
941,-25.6,-375.46666666666664,-349.8666666666667
942,-36.266666666666666,-371.2,-349.8666666666667
943,-34.13333333333333,-375.46666666666664,-360.5333333333333
944,-40.53333333333333,-373.3333333333333,-358.4
945,-49.06666666666666,-384.0,-362.6666666666667
946,-42.666666666666664,-388.26666666666665,-364.8
947,-44.8,-381.8666666666667,-360.5333333333333
948,-44.8,-386.1333333333333,-362.6666666666667
949,-38.4,-386.1333333333333,-364.8
950,-29.866666666666667,-403.2,-364.8
951,-40.53333333333333,-392.5333333333333,-362.6666666666667
952,-27.733333333333334,-401.06666666666666,-366.93333333333334
953,-19.2,-396.8,-366.93333333333334
954,-29.866666666666667,-394.6666666666667,-364.8
955,-21.333333333333332,-390.4,-364.8
956,-25.6,-384.0,-366.93333333333334
957,-29.866666666666667,-373.3333333333333,-369.06666666666666
958,-36.266666666666666,-371.2,-375.46666666666664
959,-36.266666666666666,-366.93333333333334,-384.0
960,-36.266666666666666,-375.46666666666664,-381.8666666666667
961,-44.8,-364.8,-386.1333333333333
962,-42.666666666666664,-369.06666666666666,-381.8666666666667
963,-36.266666666666666,-373.3333333333333,-396.8
964,-38.4,-369.06666666666666,-377.6
965,-42.666666666666664,-373.3333333333333,-381.8666666666667
966,-44.8,-373.3333333333333,-381.8666666666667
967,-40.53333333333333,-375.46666666666664,-379.73333333333335
968,-38.4,-384.0,-377.6
969,-34.13333333333333,-379.73333333333335,-379.73333333333335
970,-38.4,-384.0,-381.8666666666667
971,-29.866666666666667,-384.0,-388.26666666666665
972,-36.266666666666666,-377.6,-381.8666666666667
973,-27.733333333333334,-373.3333333333333,-384.0
974,-38.4,-369.06666666666666,-384.0
975,-32.0,-366.93333333333334,-386.1333333333333
976,-32.0,-360.5333333333333,-386.1333333333333
977,-38.4,-356.26666666666665,-390.4
978,-38.4,-358.4,-388.26666666666665
979,-40.53333333333333,-358.4,-398.93333333333334
980,-44.8,-356.26666666666665,-390.4
981,-36.266666666666666,-347.73333333333335,-386.1333333333333
982,-46.93333333333333,-349.8666666666667,-379.73333333333335
983,-42.666666666666664,-345.6,-381.8666666666667
984,-36.266666666666666,-352.0,-386.1333333333333
985,-40.53333333333333,-345.6,-369.06666666666666
986,-38.4,-352.0,-379.73333333333335
987,-40.53333333333333,-347.73333333333335,-379.73333333333335
988,-36.266666666666666,-343.46666666666664,-386.1333333333333
989,-38.4,-339.2,-386.1333333333333
990,-36.266666666666666,-334.93333333333334,-390.4
991,-34.13333333333333,-337.06666666666666,-388.26666666666665
992,-40.53333333333333,-332.8,-392.5333333333333
993,-38.4,-334.93333333333334,-398.93333333333334
994,-49.06666666666666,-328.5333333333333,-394.6666666666667
995,-44.8,-326.4,-401.06666666666666
996,-46.93333333333333,-332.8,-396.8
997,-44.8,-334.93333333333334,-401.06666666666666
998,-40.53333333333333,-334.93333333333334,-396.8
999,-42.666666666666664,-337.06666666666666,-390.4
1000,-38.4,-330.6666666666667,-390.4
1001,-40.53333333333333,-337.06666666666666,-392.5333333333333
1002,-32.0,-332.8,-384.0
1003,-34.13333333333333,-326.4,-381.8666666666667
1004,-29.866666666666667,-328.5333333333333,-386.1333333333333
1005,-25.6,-324.26666666666665,-390.4
1006,-32.0,-324.26666666666665,-396.8
1007,-36.266666666666666,-320.0,-394.6666666666667
1008,-25.6,-315.73333333333335,-398.93333333333334
1009,-34.13333333333333,-305.06666666666666,-405.3333333333333
1010,-32.0,-300.8,-401.06666666666666
1011,-32.0,-307.2,-405.3333333333333
1012,-36.266666666666666,-307.2,-409.6
1013,-36.266666666666666,-313.6,-401.06666666666666
1014,-38.4,-307.2,-405.3333333333333
1015,-42.666666666666664,-302.93333333333334,-409.6
1016,-46.93333333333333,-311.46666666666664,-407.46666666666664
1017,-44.8,-311.46666666666664,-401.06666666666666
1018,-49.06666666666666,-309.3333333333333,-398.93333333333334
1019,-44.8,-322.1333333333333,-401.06666666666666
1020,-46.93333333333333,-307.2,-394.6666666666667
1021,-49.06666666666666,-305.06666666666666,-394.6666666666667
1022,-42.666666666666664,-313.6,-403.2
1023,-46.93333333333333,-298.6666666666667,-403.2
1024,-42.666666666666664,-296.5333333333333,-411.73333333333335
1025,-38.4,-296.5333333333333,-409.6
1026,-42.666666666666664,-294.4,-409.6
1027,-40.53333333333333,-294.4,-407.46666666666664
1028,-40.53333333333333,-298.6666666666667,-411.73333333333335
1029,-59.733333333333334,-294.4,-420.26666666666665
1030,-46.93333333333333,-307.2,-409.6
1031,-44.8,-285.8666666666667,-409.6
1032,-46.93333333333333,-288.0,-407.46666666666664
1033,-46.93333333333333,-290.1333333333333,-405.3333333333333
1034,-40.53333333333333,-294.4,-398.93333333333334
1035,-44.8,-290.1333333333333,-396.8
1036,-36.266666666666666,-296.5333333333333,-396.8
1037,-44.8,-294.4,-405.3333333333333
1038,-29.866666666666667,-292.26666666666665,-396.8
1039,-32.0,-290.1333333333333,-401.06666666666666
1040,-34.13333333333333,-283.73333333333335,-392.5333333333333
1041,-27.733333333333334,-288.0,-403.2
1042,-27.733333333333334,-277.3333333333333,-401.06666666666666
1043,-27.733333333333334,-279.46666666666664,-401.06666666666666
1044,-25.6,-275.2,-403.2
1045,-32.0,-270.93333333333334,-403.2
1046,-32.0,-273.06666666666666,-407.46666666666664
1047,-32.0,-273.06666666666666,-405.3333333333333
1048,-36.266666666666666,-273.06666666666666,-401.06666666666666
1049,-38.4,-273.06666666666666,-398.93333333333334
1050,-34.13333333333333,-264.5333333333333,-386.1333333333333
1051,-42.666666666666664,-270.93333333333334,-398.93333333333334
1052,-42.666666666666664,-268.8,-392.5333333333333
1053,-36.266666666666666,-273.06666666666666,-392.5333333333333
1054,-44.8,-273.06666666666666,-390.4
1055,-42.666666666666664,-273.06666666666666,-390.4
1056,-42.666666666666664,-270.93333333333334,-394.6666666666667
1057,-42.666666666666664,-270.93333333333334,-396.8
1058,-34.13333333333333,-275.2,-401.06666666666666
1059,-34.13333333333333,-273.06666666666666,-403.2
1060,-32.0,-266.6666666666667,-407.46666666666664
1061,-32.0,-268.8,-407.46666666666664
1062,-34.13333333333333,-268.8,-403.2
1063,-32.0,-262.4,-401.06666666666666
1064,-21.333333333333332,-266.6666666666667,-409.6
1065,-8.533333333333333,-326.4,-426.6666666666667
1066,-29.866666666666667,-253.86666666666667,-407.46666666666664
1067,-27.733333333333334,-251.73333333333332,-405.3333333333333
1068,-42.666666666666664,-251.73333333333332,-403.2
1069,-34.13333333333333,-256.0,-394.6666666666667
1070,-49.06666666666666,-249.6,-398.93333333333334
1071,-46.93333333333333,-247.46666666666667,-398.93333333333334
1072,-38.4,-251.73333333333332,-409.6
1073,-34.13333333333333,-247.46666666666667,-396.8
1074,-38.4,-245.33333333333334,-405.3333333333333
1075,-32.0,-236.79999999999998,-394.6666666666667
1076,-36.266666666666666,-234.66666666666666,-407.46666666666664
1077,-32.0,-236.79999999999998,-403.2
1078,-32.0,-232.53333333333333,-409.6
1079,-34.13333333333333,-236.79999999999998,-409.6
1080,-34.13333333333333,-236.79999999999998,-405.3333333333333
1081,-32.0,-232.53333333333333,-409.6
1082,-32.0,-226.13333333333333,-409.6
1083,-36.266666666666666,-236.79999999999998,-405.3333333333333
1084,-40.53333333333333,-232.53333333333333,-407.46666666666664
1085,-38.4,-226.13333333333333,-409.6
1086,-51.2,-228.26666666666665,-398.93333333333334
1087,-44.8,-230.4,-403.2
1088,-42.666666666666664,-228.26666666666665,-403.2
1089,-53.333333333333336,-230.4,-392.5333333333333
1090,-42.666666666666664,-221.86666666666667,-405.3333333333333
1091,-44.8,-217.6,-403.2
1092,-42.666666666666664,-213.33333333333334,-401.06666666666666
1093,-44.8,-202.66666666666666,-403.2
1094,-23.466666666666665,-187.73333333333332,-413.8666666666667
1095,-36.266666666666666,-200.53333333333333,-403.2
1096,-32.0,-204.8,-407.46666666666664
1097,-27.733333333333334,-194.13333333333333,-409.6
1098,-25.6,-194.13333333333333,-420.26666666666665
1099,-29.866666666666667,-194.13333333333333,-418.1333333333333
1100,-17.066666666666666,-192.0,-422.4
1101,-23.466666666666665,-204.8,-435.2
1102,-19.2,-202.66666666666666,-424.5333333333333
1103,-23.466666666666665,-206.93333333333334,-428.8
1104,-17.066666666666666,-209.06666666666666,-422.4
1105,-21.333333333333332,-219.73333333333332,-422.4
1106,-36.266666666666666,-236.79999999999998,-422.4
1107,-25.6,-232.53333333333333,-411.73333333333335
1108,-32.0,-243.2,-403.2
1109,-34.13333333333333,-266.6666666666667,-388.26666666666665
1110,-36.266666666666666,-270.93333333333334,-388.26666666666665
1111,-53.333333333333336,-275.2,-381.8666666666667
1112,-55.46666666666667,-285.8666666666667,-369.06666666666666
1113,-64.0,-296.5333333333333,-366.93333333333334
1114,-78.93333333333334,-296.5333333333333,-358.4
1115,-78.93333333333334,-294.4,-349.8666666666667
1116,-70.4,-305.06666666666666,-315.73333333333335
1117,-85.33333333333333,-294.4,-332.8
1118,-83.2,-285.8666666666667,-326.4
1119,-76.8,-275.2,-317.8666666666667
1120,-68.26666666666667,-275.2,-307.2
1121,-57.6,-268.8,-298.6666666666667
1122,-53.333333333333336,-260.26666666666665,-290.1333333333333
1123,-44.8,-241.06666666666666,-281.6
1124,-40.53333333333333,-230.4,-273.06666666666666
1125,-32.0,-217.6,-270.93333333333334
1126,-25.6,-206.93333333333334,-264.5333333333333
1127,-27.733333333333334,-200.53333333333333,-253.86666666666667
1128,-21.333333333333332,-189.86666666666667,-243.2
1129,-21.333333333333332,-189.86666666666667,-243.2
1130,-27.733333333333334,-187.73333333333332,-230.4
1131,-32.0,-196.26666666666665,-236.79999999999998
1132,-40.53333333333333,-192.0,-232.53333333333333
1133,-46.93333333333333,-198.4,-232.53333333333333
1134,-49.06666666666666,-202.66666666666666,-238.93333333333334
1135,-44.8,-200.53333333333333,-236.79999999999998
1136,-46.93333333333333,-200.53333333333333,-247.46666666666667
1137,-36.266666666666666,-211.2,-256.0
1138,-44.8,-204.8,-258.1333333333333
1139,-44.8,-200.53333333333333,-270.93333333333334
1140,-40.53333333333333,-198.4,-275.2
1141,-49.06666666666666,-202.66666666666666,-281.6
1142,-46.93333333333333,-213.33333333333334,-281.6
1143,-51.2,-202.66666666666666,-281.6
1144,-44.8,-200.53333333333333,-288.0
1145,-51.2,-183.46666666666667,-288.0
1146,-38.4,-179.2,-292.26666666666665
1147,-25.6,-168.53333333333333,-300.8
1148,-25.6,-134.4,-307.2
1149,-17.066666666666666,-115.2,-324.26666666666665
1150,0.0,-74.66666666666667,-343.46666666666664
1151,-6.4,-34.13333333333333,-352.0
1152,-10.666666666666666,-8.533333333333333,-356.26666666666665
1153,0.0,2.1333333333333333,-369.06666666666666
1154,-8.533333333333333,8.533333333333333,-377.6
1155,0.0,6.4,-377.6
1156,0.0,-2.1333333333333333,-371.2
1157,-6.4,-10.666666666666666,-384.0
1158,-4.266666666666667,-29.866666666666667,-390.4
1159,-10.666666666666666,-27.733333333333334,-403.2
1160,-23.466666666666665,-21.333333333333332,-462.93333333333334
1161,-38.4,2.1333333333333333,-505.59999999999997
1162,-42.666666666666664,44.8,-571.7333333333333
1163,-61.86666666666667,98.13333333333333,-659.2
1164,-81.06666666666666,153.6,-759.4666666666667
1165,-113.06666666666666,228.26666666666665,-887.4666666666667
1166,-136.53333333333333,315.73333333333335,-1036.8
1167,-172.8,430.93333333333334,-1230.9333333333334
1168,-200.53333333333333,558.9333333333333,-1476.2666666666667
1169,-224.0,729.6,-1728.0
1170,-230.4,849.0666666666666,-1930.6666666666667
1171,-226.13333333333333,891.7333333333333,-2039.4666666666667
1172,-151.46666666666667,776.5333333333333,-1966.9333333333334
1173,-93.86666666666666,522.6666666666666,-1723.7333333333333
1174,-87.46666666666667,162.13333333333333,-1390.9333333333334
1175,-34.13333333333333,-243.2,-1124.2666666666667
1176,10.666666666666666,-571.7333333333333,-934.4
1177,36.266666666666666,-789.3333333333334,-857.6
1178,46.93333333333333,-928.0,-768.0
1179,55.46666666666667,-985.6,-738.1333333333333
1180,81.06666666666666,-987.7333333333333,-746.6666666666666
1181,64.0,-932.2666666666667,-633.6
1182,21.333333333333332,-787.2,-546.1333333333333
1183,-66.13333333333333,-642.1333333333333,-426.6666666666667
1184,-132.26666666666665,-505.59999999999997,-305.06666666666666
1185,-166.4,-392.5333333333333,-189.86666666666667
1186,-185.6,-258.1333333333333,-100.26666666666667
1187,-162.13333333333333,-117.33333333333333,-27.733333333333334
1188,-147.2,61.86666666666667,76.8
1189,-115.2,174.93333333333334,113.06666666666666
1190,-49.06666666666666,292.26666666666665,138.66666666666666
1191,-19.2,311.46666666666664,162.13333333333333
1192,55.46666666666667,317.8666666666667,194.13333333333333
1193,104.53333333333333,268.8,221.86666666666667
1194,136.53333333333333,204.8,224.0
1195,155.73333333333332,123.73333333333333,204.8
1196,221.86666666666667,59.733333333333334,136.53333333333333
1197,277.3333333333333,17.066666666666666,51.2
1198,311.46666666666664,-10.666666666666666,-53.333333333333336
1199,330.6666666666667,-4.266666666666667,-181.33333333333334
1200,364.8,-21.333333333333332,-277.3333333333333
1201,349.8666666666667,-4.266666666666667,-362.6666666666667
1202,390.4,4.266666666666667,-411.73333333333335
1203,454.4,-10.666666666666666,-456.5333333333333
1204,467.2,29.866666666666667,-480.0
1205,462.93333333333334,68.26666666666667,-480.0
1206,471.46666666666664,100.26666666666667,-454.4
1207,454.4,132.26666666666665,-428.8
1208,424.5333333333333,179.2,-407.46666666666664
1209,405.3333333333333,215.46666666666667,-377.6
1210,364.8,251.73333333333332,-345.6
1211,334.93333333333334,313.6,-330.6666666666667
1212,343.46666666666664,349.8666666666667,-322.1333333333333
1213,352.0,401.06666666666666,-334.93333333333334
1214,375.46666666666664,430.93333333333334,-315.73333333333335
1215,354.1333333333333,477.8666666666667,-298.6666666666667
1216,377.6,484.26666666666665,-320.0
1217,398.93333333333334,475.73333333333335,-313.6
1218,392.5333333333333,480.0,-343.46666666666664
1219,422.4,445.8666666666667,-362.6666666666667
1220,398.93333333333334,469.3333333333333,-381.8666666666667
1221,392.5333333333333,484.26666666666665,-392.5333333333333
1222,413.8666666666667,484.26666666666665,-420.26666666666665
1223,343.46666666666664,475.73333333333335,-392.5333333333333
1224,273.06666666666666,471.46666666666664,-426.6666666666667
1225,232.53333333333333,471.46666666666664,-422.4
1226,294.4,401.06666666666666,-366.93333333333334
1227,445.8666666666667,371.2,-264.5333333333333
1228,360.5333333333333,392.5333333333333,-183.46666666666667
1229,473.59999999999997,373.3333333333333,-125.86666666666666
1230,742.4,354.1333333333333,-14.933333333333334
1231,923.7333333333333,302.93333333333334,85.33333333333333
1232,1147.7333333333333,275.2,185.6
1233,1478.4,300.8,279.46666666666664
1234,1576.5333333333333,469.3333333333333,236.79999999999998
1235,1774.9333333333334,659.2,153.6
1236,2033.0666666666666,834.1333333333333,44.8
1237,2118.4,932.2666666666667,-17.066666666666666
1238,2124.8,906.6666666666666,-174.93333333333334
1239,2082.133333333333,821.3333333333334,-334.93333333333334
1240,2039.4666666666667,686.9333333333333,-381.8666666666667
1241,1841.0666666666666,516.2666666666667,-375.46666666666664
1242,1632.0,396.8,-337.06666666666666
1243,1448.5333333333333,309.3333333333333,-277.3333333333333
1244,1275.7333333333333,219.73333333333332,-160.0
1245,1024.0,157.86666666666667,-57.6
1246,821.3333333333334,106.66666666666667,66.13333333333333
1247,605.8666666666667,49.06666666666666,215.46666666666667
1248,477.8666666666667,10.666666666666666,371.2
1249,437.3333333333333,-12.8,471.46666666666664
1250,326.4,-46.93333333333333,522.6666666666666
1251,313.6,-51.2,539.7333333333333
1252,305.06666666666666,-17.066666666666666,537.6
1253,251.73333333333332,17.066666666666666,505.59999999999997
1254,230.4,29.866666666666667,450.1333333333333
1255,187.73333333333332,61.86666666666667,375.46666666666664
1256,170.66666666666666,53.333333333333336,273.06666666666666
1257,211.2,49.06666666666666,172.8
1258,243.2,53.333333333333336,104.53333333333333
1259,228.26666666666665,32.0,66.13333333333333
1260,168.53333333333333,-27.733333333333334,57.6
1261,149.33333333333334,-98.13333333333333,66.13333333333333
1262,102.4,-134.4,64.0
1263,46.93333333333333,-194.13333333333333,78.93333333333334
1264,-4.266666666666667,-211.2,91.73333333333333
1265,0.0,-209.06666666666666,145.06666666666666
1266,-36.266666666666666,-196.26666666666665,174.93333333333334
1267,-64.0,-204.8,262.4
1268,-93.86666666666666,-202.66666666666666,285.8666666666667
1269,-96.0,-187.73333333333332,330.6666666666667
1270,-87.46666666666667,-183.46666666666667,343.46666666666664
1271,-93.86666666666666,-215.46666666666667,290.1333333333333
1272,-8.533333333333333,-226.13333333333333,283.73333333333335
1273,55.46666666666667,-221.86666666666667,307.2
1274,134.4,-215.46666666666667,292.26666666666665
1275,179.2,-217.6,298.6666666666667
1276,251.73333333333332,-204.8,315.73333333333335
1277,285.8666666666667,-185.6,339.2
1278,311.46666666666664,-164.26666666666665,352.0
1279,311.46666666666664,-145.06666666666666,388.26666666666665
1280,334.93333333333334,-119.46666666666667,407.46666666666664
1281,375.46666666666664,-104.53333333333333,413.8666666666667
1282,396.8,-89.6,441.59999999999997
1283,398.93333333333334,-93.86666666666666,456.5333333333333
1284,422.4,-89.6,454.4
1285,448.0,-96.0,467.2
1286,475.73333333333335,-85.33333333333333,465.06666666666666
1287,486.4,-98.13333333333333,462.93333333333334
1288,533.3333333333334,-100.26666666666667,471.46666666666664
1289,533.3333333333334,-130.13333333333333,477.8666666666667
1290,546.1333333333333,-160.0,494.93333333333334
1291,573.8666666666667,-168.53333333333333,505.59999999999997
1292,582.4,-187.73333333333332,520.5333333333333
1293,586.6666666666666,-215.46666666666667,533.3333333333334
1294,601.6,-224.0,552.5333333333333
1295,614.4,-221.86666666666667,552.5333333333333
1296,567.4666666666667,-185.6,539.7333333333333
1297,578.1333333333333,-172.8,533.3333333333334
1298,544.0,-153.6,520.5333333333333
1299,514.1333333333333,-138.66666666666666,490.6666666666667
1300,484.26666666666665,-134.4,467.2
1301,475.73333333333335,-134.4,450.1333333333333
1302,441.59999999999997,-132.26666666666665,420.26666666666665
1303,401.06666666666666,-134.4,411.73333333333335
1304,381.8666666666667,-145.06666666666666,396.8
1305,339.2,-147.2,381.8666666666667
1306,305.06666666666666,-168.53333333333333,377.6
1307,273.06666666666666,-192.0,390.4
1308,258.1333333333333,-217.6,392.5333333333333
1309,234.66666666666666,-226.13333333333333,401.06666666666666
1310,228.26666666666665,-219.73333333333332,392.5333333333333
1311,200.53333333333333,-217.6,396.8
1312,219.73333333333332,-215.46666666666667,405.3333333333333
1313,200.53333333333333,-217.6,407.46666666666664
1314,219.73333333333332,-215.46666666666667,413.8666666666667
1315,198.4,-204.8,413.8666666666667
1316,211.2,-200.53333333333333,416.0
1317,196.26666666666665,-189.86666666666667,420.26666666666665
1318,217.6,-189.86666666666667,428.8
1319,215.46666666666667,-192.0,433.06666666666666
1320,221.86666666666667,-189.86666666666667,428.8
1321,243.2,-196.26666666666665,439.46666666666664
1322,230.4,-194.13333333333333,439.46666666666664
1323,219.73333333333332,-183.46666666666667,452.26666666666665
1324,221.86666666666667,-192.0,441.59999999999997
1325,228.26666666666665,-198.4,428.8
1326,236.79999999999998,-198.4,422.4
1327,241.06666666666666,-200.53333333333333,416.0
1328,262.4,-215.46666666666667,413.8666666666667
1329,275.2,-221.86666666666667,411.73333333333335
1330,302.93333333333334,-230.4,405.3333333333333
1331,302.93333333333334,-249.6,401.06666666666666
1332,300.8,-251.73333333333332,381.8666666666667
1333,313.6,-247.46666666666667,384.0
1334,317.8666666666667,-245.33333333333334,375.46666666666664
1335,315.73333333333335,-245.33333333333334,362.6666666666667
1336,315.73333333333335,-247.46666666666667,349.8666666666667
1337,320.0,-230.4,349.8666666666667
1338,343.46666666666664,-221.86666666666667,349.8666666666667
1339,358.4,-206.93333333333334,349.8666666666667
1340,377.6,-206.93333333333334,347.73333333333335
1341,379.73333333333335,-198.4,341.3333333333333
1342,398.93333333333334,-204.8,339.2
1343,407.46666666666664,-194.13333333333333,334.93333333333334
1344,420.26666666666665,-189.86666666666667,332.8
1345,433.06666666666666,-183.46666666666667,324.26666666666665
1346,458.6666666666667,-187.73333333333332,322.1333333333333
1347,456.5333333333333,-198.4,315.73333333333335
1348,460.8,-194.13333333333333,320.0
1349,458.6666666666667,-194.13333333333333,311.46666666666664
1350,467.2,-170.66666666666666,307.2
1351,454.4,-160.0,292.26666666666665
1352,458.6666666666667,-168.53333333333333,281.6
1353,480.0,-168.53333333333333,264.5333333333333
1354,499.2,-153.6,262.4
1355,526.9333333333333,-142.93333333333334,268.8
1356,541.8666666666667,-128.0,249.6
1357,558.9333333333333,-108.8,262.4
1358,578.1333333333333,-108.8,266.6666666666667
1359,558.9333333333333,-87.46666666666667,266.6666666666667
1360,573.8666666666667,-81.06666666666666,266.6666666666667
1361,571.7333333333333,-66.13333333333333,262.4
1362,576.0,-53.333333333333336,260.26666666666665
1363,576.0,-34.13333333333333,262.4
1364,578.1333333333333,-34.13333333333333,236.79999999999998
1365,580.2666666666667,-23.466666666666665,215.46666666666667
1366,588.8,-44.8,194.13333333333333
1367,595.2,-53.333333333333336,172.8
1368,576.0,-51.2,160.0
1369,573.8666666666667,-51.2,140.8
1370,576.0,-51.2,130.13333333333333
1371,573.8666666666667,-46.93333333333333,121.6
1372,582.4,-42.666666666666664,115.2
1373,578.1333333333333,-46.93333333333333,104.53333333333333
1374,586.6666666666666,-21.333333333333332,115.2
1375,569.6,-27.733333333333334,85.33333333333333
1376,565.3333333333334,-32.0,78.93333333333334
1377,563.2,-21.333333333333332,70.4
1378,548.2666666666667,-14.933333333333334,61.86666666666667
1379,552.5333333333333,-8.533333333333333,61.86666666666667
1380,544.0,-8.533333333333333,53.333333333333336
1381,554.6666666666666,-8.533333333333333,51.2
1382,550.4,-10.666666666666666,46.93333333333333
1383,558.9333333333333,-14.933333333333334,55.46666666666667
1384,552.5333333333333,-21.333333333333332,66.13333333333333
1385,565.3333333333334,-17.066666666666666,51.2
1386,569.6,-25.6,53.333333333333336
1387,573.8666666666667,-32.0,44.8
1388,571.7333333333333,-34.13333333333333,38.4
1389,582.4,-29.866666666666667,40.53333333333333
1390,576.0,-38.4,42.666666666666664
1391,573.8666666666667,-25.6,34.13333333333333
1392,576.0,-27.733333333333334,36.266666666666666
1393,576.0,-23.466666666666665,38.4
1394,576.0,-21.333333333333332,34.13333333333333
1395,578.1333333333333,-27.733333333333334,38.4
1396,584.5333333333333,-25.6,51.2
1397,582.4,-29.866666666666667,53.333333333333336
1398,580.2666666666667,-27.733333333333334,57.6
1399,576.0,-25.6,57.6
1400,571.7333333333333,-29.866666666666667,66.13333333333333
1401,569.6,-34.13333333333333,64.0
1402,565.3333333333334,-36.266666666666666,70.4
1403,558.9333333333333,-29.866666666666667,61.86666666666667
1404,565.3333333333334,-44.8,64.0
1405,563.2,-46.93333333333333,59.733333333333334
1406,552.5333333333333,-57.6,66.13333333333333
1407,554.6666666666666,-68.26666666666667,61.86666666666667
1408,561.0666666666666,-72.53333333333333,70.4
1409,567.4666666666667,-78.93333333333334,74.66666666666667
1410,556.8,-81.06666666666666,70.4
1411,558.9333333333333,-78.93333333333334,76.8
1412,563.2,-83.2,87.46666666666667
1413,563.2,-83.2,89.6
1414,565.3333333333334,-85.33333333333333,96.0
1415,558.9333333333333,-83.2,96.0
1416,563.2,-89.6,106.66666666666667
1417,552.5333333333333,-83.2,106.66666666666667
1418,556.8,-89.6,134.4
1419,556.8,-89.6,130.13333333333333
1420,548.2666666666667,-81.06666666666666,132.26666666666665
1421,546.1333333333333,-83.2,136.53333333333333
1422,539.7333333333333,-81.06666666666666,145.06666666666666
1423,533.3333333333334,-89.6,151.46666666666667
1424,531.2,-91.73333333333333,149.33333333333334
1425,524.8,-96.0,162.13333333333333
1426,514.1333333333333,-100.26666666666667,166.4
1427,507.73333333333335,-98.13333333333333,166.4
1428,503.46666666666664,-104.53333333333333,164.26666666666665
1429,501.3333333333333,-108.8,174.93333333333334
1430,492.8,-110.93333333333334,172.8
1431,488.5333333333333,-119.46666666666667,179.2
1432,490.6666666666667,-121.6,187.73333333333332
1433,490.6666666666667,-128.0,192.0
1434,486.4,-115.2,187.73333333333332
1435,492.8,-125.86666666666666,187.73333333333332
1436,486.4,-115.2,187.73333333333332
1437,492.8,-108.8,185.6
1438,488.5333333333333,-110.93333333333334,189.86666666666667
1439,494.93333333333334,-110.93333333333334,196.26666666666665
1440,490.6666666666667,-115.2,221.86666666666667
1441,501.3333333333333,-115.2,200.53333333333333
1442,497.06666666666666,-106.66666666666667,200.53333333333333
1443,501.3333333333333,-104.53333333333333,202.66666666666666
1444,509.8666666666667,-106.66666666666667,209.06666666666666
1445,503.46666666666664,-108.8,206.93333333333334
1446,505.59999999999997,-106.66666666666667,213.33333333333334
1447,503.46666666666664,-104.53333333333333,215.46666666666667
1448,512.0,-102.4,221.86666666666667
1449,509.8666666666667,-106.66666666666667,213.33333333333334
1450,509.8666666666667,-106.66666666666667,217.6
1451,505.59999999999997,-110.93333333333334,224.0
1452,505.59999999999997,-108.8,224.0
1453,512.0,-104.53333333333333,226.13333333333333
1454,507.73333333333335,-106.66666666666667,221.86666666666667
1455,507.73333333333335,-106.66666666666667,228.26666666666665
1456,514.1333333333333,-108.8,232.53333333333333
1457,505.59999999999997,-102.4,232.53333333333333
1458,507.73333333333335,-110.93333333333334,226.13333333333333
1459,509.8666666666667,-108.8,228.26666666666665
1460,509.8666666666667,-110.93333333333334,230.4
1461,518.4,-106.66666666666667,238.93333333333334
1462,503.46666666666664,-104.53333333333333,228.26666666666665
1463,509.8666666666667,-108.8,232.53333333333333
1464,503.46666666666664,-110.93333333333334,234.66666666666666
1465,501.3333333333333,-104.53333333333333,232.53333333333333
1466,505.59999999999997,-108.8,230.4
1467,497.06666666666666,-104.53333333333333,232.53333333333333
1468,505.59999999999997,-106.66666666666667,226.13333333333333
1469,499.2,-110.93333333333334,224.0
1470,501.3333333333333,-108.8,221.86666666666667
1471,503.46666666666664,-104.53333333333333,217.6
1472,505.59999999999997,-108.8,219.73333333333332
1473,507.73333333333335,-113.06666666666666,217.6
1474,507.73333333333335,-113.06666666666666,213.33333333333334
1475,503.46666666666664,-115.2,213.33333333333334
1476,503.46666666666664,-108.8,206.93333333333334
1477,503.46666666666664,-104.53333333333333,202.66666666666666
1478,507.73333333333335,-108.8,204.8
1479,501.3333333333333,-104.53333333333333,194.13333333333333
1480,509.8666666666667,-104.53333333333333,200.53333333333333
1481,512.0,-106.66666666666667,198.4
1482,507.73333333333335,-102.4,200.53333333333333
1483,501.3333333333333,-89.6,202.66666666666666
1484,514.1333333333333,-102.4,194.13333333333333
1485,509.8666666666667,-96.0,194.13333333333333
1486,509.8666666666667,-98.13333333333333,179.2
1487,514.1333333333333,-102.4,194.13333333333333
1488,516.2666666666667,-98.13333333333333,185.6
1489,509.8666666666667,-100.26666666666667,179.2
1490,516.2666666666667,-100.26666666666667,181.33333333333334
1491,516.2666666666667,-98.13333333333333,179.2
1492,520.5333333333333,-98.13333333333333,179.2
1493,514.1333333333333,-98.13333333333333,174.93333333333334
1494,524.8,-93.86666666666666,181.33333333333334
1495,524.8,-98.13333333333333,177.06666666666666
1496,524.8,-98.13333333333333,172.8
1497,518.4,-98.13333333333333,174.93333333333334
1498,522.6666666666666,-98.13333333333333,172.8
1499,526.9333333333333,-106.66666666666667,177.06666666666666
1500,524.8,-100.26666666666667,181.33333333333334
1501,529.0666666666666,-96.0,174.93333333333334
1502,522.6666666666666,-93.86666666666666,174.93333333333334
1503,522.6666666666666,-98.13333333333333,170.66666666666666
1504,529.0666666666666,-96.0,172.8
1505,507.73333333333335,-119.46666666666667,174.93333333333334
1506,518.4,-93.86666666666666,172.8
1507,531.2,-100.26666666666667,172.8
1508,520.5333333333333,-96.0,170.66666666666666
1509,524.8,-96.0,174.93333333333334
1510,522.6666666666666,-96.0,181.33333333333334
1511,520.5333333333333,-96.0,183.46666666666667
1512,522.6666666666666,-98.13333333333333,166.4
1513,516.2666666666667,-93.86666666666666,179.2
1514,522.6666666666666,-93.86666666666666,170.66666666666666
1515,526.9333333333333,-98.13333333333333,177.06666666666666
1516,522.6666666666666,-100.26666666666667,174.93333333333334
1517,518.4,-104.53333333333333,177.06666666666666
1518,526.9333333333333,-96.0,172.8
1519,520.5333333333333,-96.0,177.06666666666666
1520,522.6666666666666,-106.66666666666667,179.2
1521,514.1333333333333,-98.13333333333333,179.2
1522,518.4,-100.26666666666667,179.2
1523,516.2666666666667,-100.26666666666667,179.2
1524,522.6666666666666,-102.4,185.6
1525,526.9333333333333,-104.53333333333333,185.6
1526,531.2,-106.66666666666667,181.33333333333334
1527,520.5333333333333,-83.2,192.0
1528,522.6666666666666,-104.53333333333333,179.2
1529,522.6666666666666,-93.86666666666666,174.93333333333334
1530,520.5333333333333,-100.26666666666667,183.46666666666667
1531,518.4,-100.26666666666667,183.46666666666667
1532,514.1333333333333,-100.26666666666667,183.46666666666667
1533,522.6666666666666,-100.26666666666667,187.73333333333332
1534,520.5333333333333,-98.13333333333333,185.6
1535,518.4,-100.26666666666667,189.86666666666667
1536,512.0,-98.13333333333333,179.2
1537,520.5333333333333,-93.86666666666666,185.6
1538,522.6666666666666,-93.86666666666666,196.26666666666665
1539,522.6666666666666,-100.26666666666667,183.46666666666667
1540,516.2666666666667,-98.13333333333333,183.46666666666667
1541,522.6666666666666,-100.26666666666667,185.6
1542,524.8,-98.13333333333333,181.33333333333334
1543,520.5333333333333,-100.26666666666667,187.73333333333332
1544,516.2666666666667,-100.26666666666667,192.0
1545,522.6666666666666,-98.13333333333333,185.6
1546,514.1333333333333,-100.26666666666667,183.46666666666667
1547,516.2666666666667,-100.26666666666667,187.73333333333332
1548,514.1333333333333,-98.13333333333333,189.86666666666667
1549,518.4,-96.0,185.6
1550,516.2666666666667,-100.26666666666667,192.0
1551,518.4,-100.26666666666667,196.26666666666665
1552,512.0,-98.13333333333333,177.06666666666666
1553,520.5333333333333,-96.0,181.33333333333334
1554,518.4,-102.4,183.46666666666667
1555,516.2666666666667,-93.86666666666666,187.73333333333332
1556,518.4,-93.86666666666666,185.6
1557,516.2666666666667,-96.0,181.33333333333334
1558,514.1333333333333,-96.0,183.46666666666667
1559,520.5333333333333,-100.26666666666667,183.46666666666667
1560,518.4,-100.26666666666667,187.73333333333332
1561,516.2666666666667,-93.86666666666666,192.0
1562,518.4,-98.13333333333333,181.33333333333334
1563,516.2666666666667,-96.0,183.46666666666667
1564,512.0,-96.0,194.13333333333333
1565,516.2666666666667,-98.13333333333333,181.33333333333334
1566,509.8666666666667,-106.66666666666667,181.33333333333334
1567,514.1333333333333,-104.53333333333333,189.86666666666667
1568,514.1333333333333,-100.26666666666667,185.6
1569,518.4,-102.4,183.46666666666667
1570,529.0666666666666,-104.53333333333333,196.26666666666665
1571,516.2666666666667,-104.53333333333333,181.33333333333334
1572,514.1333333333333,-96.0,185.6
1573,518.4,-93.86666666666666,179.2
1574,518.4,-96.0,185.6
1575,512.0,-104.53333333333333,189.86666666666667
1576,520.5333333333333,-102.4,179.2
1577,516.2666666666667,-102.4,187.73333333333332
1578,514.1333333333333,-106.66666666666667,187.73333333333332
1579,518.4,-104.53333333333333,187.73333333333332
1580,518.4,-106.66666666666667,187.73333333333332
1581,516.2666666666667,-100.26666666666667,189.86666666666667
1582,518.4,-96.0,179.2
1583,520.5333333333333,-100.26666666666667,189.86666666666667
1584,520.5333333333333,-98.13333333333333,189.86666666666667
1585,520.5333333333333,-102.4,185.6
1586,520.5333333333333,-96.0,183.46666666666667
1587,516.2666666666667,-98.13333333333333,185.6
1588,520.5333333333333,-100.26666666666667,187.73333333333332
1589,516.2666666666667,-98.13333333333333,192.0
1590,514.1333333333333,-100.26666666666667,194.13333333333333
1591,526.9333333333333,-104.53333333333333,194.13333333333333
1592,509.8666666666667,-100.26666666666667,177.06666666666666
1593,514.1333333333333,-102.4,183.46666666666667
1594,518.4,-100.26666666666667,196.26666666666665
1595,524.8,-104.53333333333333,187.73333333333332
1596,522.6666666666666,-102.4,198.4
1597,522.6666666666666,-100.26666666666667,194.13333333333333
1598,514.1333333333333,-96.0,187.73333333333332
1599,518.4,-98.13333333333333,192.0
1600,518.4,-102.4,181.33333333333334
1601,520.5333333333333,-104.53333333333333,179.2
1602,512.0,-96.0,192.0
1603,514.1333333333333,-96.0,189.86666666666667
1604,514.1333333333333,-98.13333333333333,189.86666666666667
1605,518.4,-104.53333333333333,187.73333333333332
1606,518.4,-100.26666666666667,183.46666666666667
1607,518.4,-98.13333333333333,187.73333333333332
1608,512.0,-96.0,185.6
1609,518.4,-100.26666666666667,181.33333333333334
1610,518.4,-98.13333333333333,189.86666666666667
1611,520.5333333333333,-100.26666666666667,185.6
1612,524.8,-102.4,194.13333333333333
1613,522.6666666666666,-100.26666666666667,187.73333333333332
1614,516.2666666666667,-110.93333333333334,200.53333333333333
1615,520.5333333333333,-102.4,187.73333333333332
1616,518.4,-106.66666666666667,181.33333333333334
1617,514.1333333333333,-102.4,185.6
1618,520.5333333333333,-100.26666666666667,183.46666666666667
1619,518.4,-106.66666666666667,185.6
1620,516.2666666666667,-104.53333333333333,187.73333333333332
1621,524.8,-102.4,187.73333333333332
1622,514.1333333333333,-100.26666666666667,183.46666666666667
1623,520.5333333333333,-108.8,187.73333333333332
1624,522.6666666666666,-102.4,192.0
1625,524.8,-100.26666666666667,194.13333333333333
1626,516.2666666666667,-96.0,187.73333333333332
1627,518.4,-106.66666666666667,189.86666666666667
1628,522.6666666666666,-98.13333333333333,192.0
1629,524.8,-98.13333333333333,183.46666666666667
1630,516.2666666666667,-98.13333333333333,194.13333333333333
1631,516.2666666666667,-96.0,185.6
1632,516.2666666666667,-96.0,183.46666666666667
1633,522.6666666666666,-104.53333333333333,185.6
1634,522.6666666666666,-98.13333333333333,194.13333333333333
1635,520.5333333333333,-102.4,183.46666666666667
1636,535.4666666666667,-110.93333333333334,196.26666666666665
1637,512.0,-98.13333333333333,183.46666666666667
1638,522.6666666666666,-98.13333333333333,185.6
1639,518.4,-93.86666666666666,194.13333333333333
1640,518.4,-98.13333333333333,187.73333333333332
1641,520.5333333333333,-98.13333333333333,189.86666666666667
1642,522.6666666666666,-102.4,189.86666666666667
1643,514.1333333333333,-102.4,187.73333333333332
1644,514.1333333333333,-100.26666666666667,185.6
1645,509.8666666666667,-104.53333333333333,192.0
1646,516.2666666666667,-96.0,179.2
1647,520.5333333333333,-98.13333333333333,192.0
1648,518.4,-98.13333333333333,181.33333333333334
1649,518.4,-102.4,189.86666666666667
1650,531.2,-102.4,189.86666666666667
1651,518.4,-100.26666666666667,183.46666666666667
1652,520.5333333333333,-102.4,185.6
1653,516.2666666666667,-102.4,183.46666666666667
1654,518.4,-100.26666666666667,179.2
1655,518.4,-102.4,187.73333333333332
1656,518.4,-102.4,181.33333333333334
1657,522.6666666666666,-98.13333333333333,189.86666666666667
1658,524.8,-78.93333333333334,177.06666666666666
1659,514.1333333333333,-93.86666666666666,181.33333333333334
1660,516.2666666666667,-102.4,183.46666666666667
1661,516.2666666666667,-104.53333333333333,189.86666666666667
1662,518.4,-104.53333333333333,185.6
1663,514.1333333333333,-100.26666666666667,185.6
1664,522.6666666666666,-104.53333333333333,192.0
1665,518.4,-102.4,183.46666666666667
1666,518.4,-102.4,185.6
1667,516.2666666666667,-102.4,185.6
1668,518.4,-98.13333333333333,179.2
1669,516.2666666666667,-104.53333333333333,181.33333333333334
1670,512.0,-98.13333333333333,185.6
1671,516.2666666666667,-102.4,185.6
1672,518.4,-100.26666666666667,185.6
1673,514.1333333333333,-96.0,187.73333333333332
1674,518.4,-102.4,183.46666666666667
1675,518.4,-104.53333333333333,189.86666666666667
1676,518.4,-102.4,189.86666666666667
1677,512.0,-100.26666666666667,185.6
1678,514.1333333333333,-96.0,189.86666666666667
1679,516.2666666666667,-102.4,196.26666666666665
1680,518.4,-102.4,192.0
1681,516.2666666666667,-100.26666666666667,185.6
1682,518.4,-104.53333333333333,189.86666666666667
1683,522.6666666666666,-104.53333333333333,187.73333333333332
1684,520.5333333333333,-104.53333333333333,183.46666666666667
1685,522.6666666666666,-102.4,192.0
1686,524.8,-104.53333333333333,189.86666666666667
1687,520.5333333333333,-104.53333333333333,187.73333333333332
1688,518.4,-100.26666666666667,189.86666666666667
1689,522.6666666666666,-98.13333333333333,192.0
1690,514.1333333333333,-91.73333333333333,189.86666666666667
1691,516.2666666666667,-98.13333333333333,192.0
1692,516.2666666666667,-96.0,183.46666666666667
1693,520.5333333333333,-98.13333333333333,183.46666666666667
1694,514.1333333333333,-96.0,179.2
1695,518.4,-96.0,185.6
1696,516.2666666666667,-93.86666666666666,187.73333333333332
1697,514.1333333333333,-96.0,181.33333333333334
1698,509.8666666666667,-93.86666666666666,183.46666666666667
1699,512.0,-96.0,185.6
1700,520.5333333333333,-100.26666666666667,189.86666666666667
1701,507.73333333333335,-91.73333333333333,168.53333333333333
1702,512.0,-98.13333333333333,189.86666666666667
1703,522.6666666666666,-93.86666666666666,183.46666666666667
1704,524.8,-102.4,181.33333333333334
1705,522.6666666666666,-100.26666666666667,189.86666666666667
1706,518.4,-102.4,189.86666666666667
1707,518.4,-100.26666666666667,189.86666666666667
1708,518.4,-100.26666666666667,181.33333333333334
1709,516.2666666666667,-100.26666666666667,183.46666666666667
1710,512.0,-98.13333333333333,183.46666666666667
1711,514.1333333333333,-96.0,189.86666666666667
1712,518.4,-93.86666666666666,174.93333333333334
1713,526.9333333333333,-117.33333333333333,194.13333333333333
1714,520.5333333333333,-96.0,183.46666666666667
1715,514.1333333333333,-100.26666666666667,187.73333333333332
1716,514.1333333333333,-96.0,194.13333333333333
1717,522.6666666666666,-106.66666666666667,194.13333333333333
1718,516.2666666666667,-102.4,185.6
1719,516.2666666666667,-96.0,194.13333333333333
1720,524.8,-108.8,189.86666666666667
1721,518.4,-98.13333333333333,189.86666666666667
1722,518.4,-100.26666666666667,192.0
1723,522.6666666666666,-89.6,206.93333333333334
1724,520.5333333333333,-102.4,187.73333333333332
1725,520.5333333333333,-104.53333333333333,187.73333333333332
1726,518.4,-102.4,189.86666666666667
1727,520.5333333333333,-96.0,189.86666666666667
1728,516.2666666666667,-93.86666666666666,177.06666666666666
1729,516.2666666666667,-98.13333333333333,192.0
1730,520.5333333333333,-98.13333333333333,192.0
1731,516.2666666666667,-91.73333333333333,185.6
1732,520.5333333333333,-98.13333333333333,189.86666666666667
1733,514.1333333333333,-98.13333333333333,185.6
1734,518.4,-102.4,189.86666666666667
1735,522.6666666666666,-98.13333333333333,187.73333333333332
1736,518.4,-104.53333333333333,189.86666666666667
1737,524.8,-102.4,194.13333333333333
1738,522.6666666666666,-104.53333333333333,187.73333333333332
1739,509.8666666666667,-98.13333333333333,187.73333333333332
1740,520.5333333333333,-102.4,185.6
1741,518.4,-102.4,189.86666666666667
1742,516.2666666666667,-102.4,187.73333333333332
1743,514.1333333333333,-100.26666666666667,189.86666666666667
1744,516.2666666666667,-102.4,179.2
1745,518.4,-87.46666666666667,192.0
1746,514.1333333333333,-98.13333333333333,177.06666666666666
1747,516.2666666666667,-104.53333333333333,187.73333333333332
1748,520.5333333333333,-100.26666666666667,183.46666666666667
1749,514.1333333333333,-102.4,189.86666666666667
1750,516.2666666666667,-96.0,187.73333333333332
1751,516.2666666666667,-102.4,189.86666666666667
1752,514.1333333333333,-96.0,192.0
1753,518.4,-100.26666666666667,192.0
1754,522.6666666666666,-104.53333333333333,194.13333333333333
1755,520.5333333333333,-98.13333333333333,194.13333333333333
1756,518.4,-100.26666666666667,185.6
1757,522.6666666666666,-100.26666666666667,181.33333333333334
1758,518.4,-100.26666666666667,189.86666666666667
1759,518.4,-100.26666666666667,185.6
1760,520.5333333333333,-104.53333333333333,196.26666666666665
1761,516.2666666666667,-104.53333333333333,181.33333333333334
1762,514.1333333333333,-104.53333333333333,189.86666666666667
1763,518.4,-100.26666666666667,179.2
1764,518.4,-104.53333333333333,192.0
1765,512.0,-104.53333333333333,192.0
1766,512.0,-100.26666666666667,192.0
1767,516.2666666666667,-104.53333333333333,187.73333333333332
1768,518.4,-100.26666666666667,183.46666666666667
1769,518.4,-104.53333333333333,183.46666666666667
1770,516.2666666666667,-100.26666666666667,189.86666666666667
1771,516.2666666666667,-104.53333333333333,185.6
1772,516.2666666666667,-98.13333333333333,189.86666666666667
1773,512.0,-98.13333333333333,189.86666666666667
1774,518.4,-102.4,189.86666666666667
1775,512.0,-98.13333333333333,192.0
1776,514.1333333333333,-100.26666666666667,192.0
1777,514.1333333333333,-106.66666666666667,189.86666666666667
1778,522.6666666666666,-110.93333333333334,192.0
1779,516.2666666666667,-108.8,187.73333333333332
1780,514.1333333333333,-98.13333333333333,194.13333333333333
1781,518.4,-96.0,185.6
1782,518.4,-102.4,179.2
1783,512.0,-91.73333333333333,183.46666666666667
1784,520.5333333333333,-100.26666666666667,187.73333333333332
1785,514.1333333333333,-102.4,183.46666666666667
1786,512.0,-102.4,192.0
1787,512.0,-96.0,177.06666666666666
1788,512.0,-104.53333333333333,209.06666666666666
1789,520.5333333333333,-106.66666666666667,189.86666666666667
1790,520.5333333333333,-100.26666666666667,183.46666666666667
1791,520.5333333333333,-104.53333333333333,189.86666666666667
1792,518.4,-102.4,183.46666666666667
1793,518.4,-100.26666666666667,187.73333333333332
1794,520.5333333333333,-102.4,181.33333333333334
1795,516.2666666666667,-100.26666666666667,181.33333333333334
1796,514.1333333333333,-98.13333333333333,187.73333333333332
1797,518.4,-93.86666666666666,185.6
1798,518.4,-96.0,183.46666666666667
1799,524.8,-102.4,192.0
1800,516.2666666666667,-98.13333333333333,187.73333333333332
1801,512.0,-100.26666666666667,183.46666666666667
1802,522.6666666666666,-104.53333333333333,183.46666666666667
1803,514.1333333333333,-104.53333333333333,187.73333333333332
1804,516.2666666666667,-98.13333333333333,179.2
1805,509.8666666666667,-100.26666666666667,179.2
1806,520.5333333333333,-104.53333333333333,187.73333333333332
1807,509.8666666666667,-96.0,185.6
1808,509.8666666666667,-100.26666666666667,196.26666666666665
1809,520.5333333333333,-104.53333333333333,185.6
1810,516.2666666666667,-100.26666666666667,179.2
1811,509.8666666666667,-100.26666666666667,183.46666666666667
1812,518.4,-100.26666666666667,187.73333333333332
1813,516.2666666666667,-104.53333333333333,192.0
1814,516.2666666666667,-96.0,192.0
1815,522.6666666666666,-102.4,189.86666666666667
1816,516.2666666666667,-98.13333333333333,187.73333333333332
1817,516.2666666666667,-98.13333333333333,192.0
1818,516.2666666666667,-102.4,189.86666666666667
1819,512.0,-98.13333333333333,187.73333333333332
1820,518.4,-102.4,185.6
1821,520.5333333333333,-102.4,192.0
1822,512.0,-98.13333333333333,189.86666666666667
1823,516.2666666666667,-104.53333333333333,187.73333333333332
1824,514.1333333333333,-98.13333333333333,185.6
1825,516.2666666666667,-93.86666666666666,183.46666666666667
1826,518.4,-96.0,187.73333333333332
1827,520.5333333333333,-102.4,189.86666666666667
1828,512.0,-104.53333333333333,179.2
1829,514.1333333333333,-100.26666666666667,194.13333333333333
1830,516.2666666666667,-100.26666666666667,183.46666666666667
1831,518.4,-98.13333333333333,200.53333333333333
1832,518.4,-113.06666666666666,192.0
1833,518.4,-106.66666666666667,187.73333333333332
1834,518.4,-100.26666666666667,187.73333333333332
1835,514.1333333333333,-98.13333333333333,194.13333333333333
1836,516.2666666666667,-100.26666666666667,183.46666666666667
1837,514.1333333333333,-96.0,194.13333333333333
1838,509.8666666666667,-106.66666666666667,185.6
1839,520.5333333333333,-106.66666666666667,192.0
1840,518.4,-93.86666666666666,189.86666666666667
1841,514.1333333333333,-104.53333333333333,187.73333333333332
1842,520.5333333333333,-98.13333333333333,194.13333333333333
1843,518.4,-102.4,187.73333333333332
1844,518.4,-98.13333333333333,183.46666666666667
1845,516.2666666666667,-100.26666666666667,189.86666666666667
1846,518.4,-96.0,192.0
1847,518.4,-102.4,187.73333333333332
1848,514.1333333333333,-100.26666666666667,187.73333333333332
1849,516.2666666666667,-106.66666666666667,187.73333333333332
1850,516.2666666666667,-100.26666666666667,189.86666666666667
1851,522.6666666666666,-104.53333333333333,183.46666666666667
1852,516.2666666666667,-102.4,187.73333333333332
1853,522.6666666666666,-104.53333333333333,192.0
1854,524.8,-96.0,202.66666666666666
1855,516.2666666666667,-100.26666666666667,183.46666666666667
1856,518.4,-104.53333333333333,194.13333333333333
1857,516.2666666666667,-104.53333333333333,187.73333333333332
1858,512.0,-104.53333333333333,185.6
1859,520.5333333333333,-106.66666666666667,185.6
1860,522.6666666666666,-104.53333333333333,187.73333333333332
1861,512.0,-104.53333333333333,185.6
1862,518.4,-108.8,185.6
1863,507.73333333333335,-102.4,189.86666666666667
1864,516.2666666666667,-100.26666666666667,183.46666666666667
1865,520.5333333333333,-102.4,181.33333333333334
1866,514.1333333333333,-100.26666666666667,179.2
1867,518.4,-102.4,183.46666666666667
1868,522.6666666666666,-102.4,189.86666666666667
1869,509.8666666666667,-93.86666666666666,181.33333333333334
1870,516.2666666666667,-100.26666666666667,187.73333333333332
1871,518.4,-104.53333333333333,183.46666666666667
1872,516.2666666666667,-104.53333333333333,187.73333333333332
1873,520.5333333333333,-100.26666666666667,187.73333333333332
1874,518.4,-96.0,187.73333333333332
1875,518.4,-106.66666666666667,204.8
1876,518.4,-104.53333333333333,181.33333333333334
1877,518.4,-102.4,196.26666666666665
1878,514.1333333333333,-104.53333333333333,187.73333333333332
1879,516.2666666666667,-96.0,179.2
1880,516.2666666666667,-100.26666666666667,192.0
1881,524.8,-100.26666666666667,185.6
1882,516.2666666666667,-102.4,185.6
1883,518.4,-100.26666666666667,177.06666666666666
1884,516.2666666666667,-102.4,181.33333333333334
1885,514.1333333333333,-98.13333333333333,183.46666666666667
1886,516.2666666666667,-96.0,189.86666666666667
1887,518.4,-102.4,192.0
1888,518.4,-102.4,194.13333333333333
1889,516.2666666666667,-96.0,189.86666666666667
1890,514.1333333333333,-96.0,189.86666666666667
1891,512.0,-100.26666666666667,185.6
1892,514.1333333333333,-100.26666666666667,192.0
1893,522.6666666666666,-100.26666666666667,189.86666666666667
1894,514.1333333333333,-100.26666666666667,192.0
1895,520.5333333333333,-104.53333333333333,192.0
1896,520.5333333333333,-106.66666666666667,187.73333333333332
1897,512.0,-102.4,174.93333333333334
1898,516.2666666666667,-102.4,187.73333333333332
1899,514.1333333333333,-102.4,192.0
1900,514.1333333333333,-104.53333333333333,187.73333333333332
1901,514.1333333333333,-100.26666666666667,185.6
1902,514.1333333333333,-100.26666666666667,187.73333333333332
1903,514.1333333333333,-106.66666666666667,187.73333333333332
1904,518.4,-106.66666666666667,189.86666666666667
1905,520.5333333333333,-96.0,181.33333333333334
1906,518.4,-100.26666666666667,183.46666666666667
1907,518.4,-104.53333333333333,194.13333333333333
1908,518.4,-102.4,189.86666666666667
1909,516.2666666666667,-100.26666666666667,185.6
1910,516.2666666666667,-100.26666666666667,189.86666666666667
1911,514.1333333333333,-98.13333333333333,187.73333333333332
1912,518.4,-93.86666666666666,189.86666666666667
1913,522.6666666666666,-106.66666666666667,194.13333333333333
1914,514.1333333333333,-104.53333333333333,185.6
1915,514.1333333333333,-102.4,183.46666666666667
1916,518.4,-108.8,181.33333333333334
1917,512.0,-98.13333333333333,189.86666666666667
1918,516.2666666666667,-108.8,189.86666666666667
1919,512.0,-104.53333333333333,181.33333333333334
1920,516.2666666666667,-100.26666666666667,183.46666666666667
1921,507.73333333333335,-100.26666666666667,187.73333333333332
1922,518.4,-100.26666666666667,192.0
1923,507.73333333333335,-102.4,198.4
1924,520.5333333333333,-102.4,189.86666666666667
1925,516.2666666666667,-100.26666666666667,189.86666666666667
1926,516.2666666666667,-106.66666666666667,192.0
1927,520.5333333333333,-93.86666666666666,189.86666666666667
1928,518.4,-96.0,189.86666666666667
1929,518.4,-102.4,189.86666666666667
1930,509.8666666666667,-102.4,185.6
1931,520.5333333333333,-102.4,189.86666666666667
1932,518.4,-100.26666666666667,192.0
1933,520.5333333333333,-102.4,187.73333333333332
1934,514.1333333333333,-104.53333333333333,183.46666666666667
1935,512.0,-98.13333333333333,192.0
1936,512.0,-96.0,189.86666666666667
1937,516.2666666666667,-102.4,189.86666666666667
1938,520.5333333333333,-100.26666666666667,192.0
1939,516.2666666666667,-98.13333333333333,187.73333333333332
1940,516.2666666666667,-102.4,183.46666666666667
1941,522.6666666666666,-78.93333333333334,189.86666666666667
1942,516.2666666666667,-102.4,183.46666666666667
1943,512.0,-93.86666666666666,187.73333333333332
1944,509.8666666666667,-100.26666666666667,185.6
1945,516.2666666666667,-100.26666666666667,187.73333333333332
1946,512.0,-102.4,187.73333333333332
1947,520.5333333333333,-100.26666666666667,187.73333333333332
1948,514.1333333333333,-98.13333333333333,179.2
1949,514.1333333333333,-100.26666666666667,177.06666666666666
1950,509.8666666666667,-98.13333333333333,192.0
1951,518.4,-100.26666666666667,187.73333333333332
1952,518.4,-96.0,174.93333333333334
1953,516.2666666666667,-100.26666666666667,187.73333333333332
1954,524.8,-104.53333333333333,194.13333333333333
1955,518.4,-100.26666666666667,187.73333333333332
1956,514.1333333333333,-104.53333333333333,185.6
1957,509.8666666666667,-93.86666666666666,185.6
1958,520.5333333333333,-104.53333333333333,183.46666666666667
1959,516.2666666666667,-100.26666666666667,185.6
1960,516.2666666666667,-98.13333333333333,189.86666666666667
1961,520.5333333333333,-108.8,189.86666666666667
1962,520.5333333333333,-98.13333333333333,187.73333333333332
1963,509.8666666666667,-81.06666666666666,189.86666666666667
1964,514.1333333333333,-98.13333333333333,192.0
1965,516.2666666666667,-102.4,196.26666666666665
1966,522.6666666666666,-98.13333333333333,192.0
1967,518.4,-100.26666666666667,187.73333333333332
1968,518.4,-104.53333333333333,187.73333333333332
1969,514.1333333333333,-100.26666666666667,185.6
1970,522.6666666666666,-102.4,196.26666666666665
1971,520.5333333333333,-100.26666666666667,187.73333333333332
1972,518.4,-102.4,187.73333333333332
1973,518.4,-100.26666666666667,192.0
1974,522.6666666666666,-106.66666666666667,192.0
1975,512.0,-102.4,187.73333333333332
1976,520.5333333333333,-100.26666666666667,192.0
1977,518.4,-102.4,196.26666666666665
1978,514.1333333333333,-104.53333333333333,187.73333333333332
1979,516.2666666666667,-100.26666666666667,189.86666666666667
1980,512.0,-104.53333333333333,198.4
1981,514.1333333333333,-96.0,194.13333333333333
1982,514.1333333333333,-96.0,185.6
1983,516.2666666666667,-96.0,194.13333333333333
1984,526.9333333333333,-113.06666666666666,181.33333333333334
1985,514.1333333333333,-100.26666666666667,181.33333333333334
1986,516.2666666666667,-102.4,183.46666666666667
1987,518.4,-102.4,189.86666666666667
1988,518.4,-102.4,196.26666666666665
1989,518.4,-102.4,189.86666666666667
1990,514.1333333333333,-104.53333333333333,189.86666666666667
1991,522.6666666666666,-100.26666666666667,189.86666666666667
1992,520.5333333333333,-106.66666666666667,189.86666666666667
1993,522.6666666666666,-100.26666666666667,185.6
1994,520.5333333333333,-102.4,181.33333333333334
1995,518.4,-104.53333333333333,185.6
1996,516.2666666666667,-100.26666666666667,194.13333333333333
1997,520.5333333333333,-102.4,185.6
1998,518.4,-102.4,192.0
1999,520.5333333333333,-102.4,189.86666666666667
2000,520.5333333333333,-106.66666666666667,194.13333333333333
2001,518.4,-100.26666666666667,183.46666666666667
2002,514.1333333333333,-102.4,194.13333333333333
2003,518.4,-104.53333333333333,183.46666666666667
2004,516.2666666666667,-98.13333333333333,185.6
2005,514.1333333333333,-100.26666666666667,189.86666666666667
2006,514.1333333333333,-104.53333333333333,183.46666666666667
2007,518.4,-102.4,187.73333333333332
2008,514.1333333333333,-98.13333333333333,194.13333333333333
2009,514.1333333333333,-100.26666666666667,189.86666666666667
2010,516.2666666666667,-102.4,187.73333333333332
2011,516.2666666666667,-106.66666666666667,185.6
2012,518.4,-102.4,189.86666666666667
2013,518.4,-102.4,185.6
2014,516.2666666666667,-102.4,194.13333333333333
2015,520.5333333333333,-96.0,194.13333333333333
2016,514.1333333333333,-98.13333333333333,196.26666666666665
2017,514.1333333333333,-91.73333333333333,189.86666666666667
2018,518.4,-102.4,187.73333333333332
2019,512.0,-100.26666666666667,196.26666666666665
2020,514.1333333333333,-100.26666666666667,187.73333333333332
2021,509.8666666666667,-100.26666666666667,185.6
2022,509.8666666666667,-93.86666666666666,192.0
2023,516.2666666666667,-100.26666666666667,181.33333333333334
2024,512.0,-108.8,187.73333333333332
2025,520.5333333333333,-98.13333333333333,192.0
2026,512.0,-93.86666666666666,189.86666666666667
2027,518.4,-102.4,187.73333333333332
2028,503.46666666666664,-123.73333333333333,215.46666666666667
2029,522.6666666666666,-106.66666666666667,181.33333333333334
2030,509.8666666666667,-102.4,192.0
2031,516.2666666666667,-110.93333333333334,185.6
2032,514.1333333333333,-98.13333333333333,179.2
2033,514.1333333333333,-102.4,189.86666666666667
2034,514.1333333333333,-102.4,185.6
2035,512.0,-93.86666666666666,192.0
2036,514.1333333333333,-93.86666666666666,196.26666666666665
2037,516.2666666666667,-96.0,187.73333333333332
2038,516.2666666666667,-100.26666666666667,194.13333333333333
2039,514.1333333333333,-98.13333333333333,185.6
2040,514.1333333333333,-106.66666666666667,192.0
2041,518.4,-98.13333333333333,185.6
2042,509.8666666666667,-93.86666666666666,187.73333333333332
2043,518.4,-102.4,189.86666666666667
2044,516.2666666666667,-96.0,187.73333333333332
2045,514.1333333333333,-104.53333333333333,192.0
2046,512.0,-91.73333333333333,185.6
2047,514.1333333333333,-100.26666666666667,187.73333333333332
2048,516.2666666666667,-98.13333333333333,196.26666666666665
2049,514.1333333333333,-98.13333333333333,198.4
2050,505.59999999999997,-108.8,196.26666666666665
2051,520.5333333333333,-102.4,187.73333333333332
2052,520.5333333333333,-100.26666666666667,192.0
2053,518.4,-100.26666666666667,189.86666666666667
2054,514.1333333333333,-96.0,185.6
2055,509.8666666666667,-98.13333333333333,194.13333333333333
2056,514.1333333333333,-102.4,194.13333333333333
2057,522.6666666666666,-100.26666666666667,189.86666666666667
2058,516.2666666666667,-98.13333333333333,192.0
2059,516.2666666666667,-100.26666666666667,192.0
2060,518.4,-98.13333333333333,187.73333333333332
2061,518.4,-96.0,194.13333333333333
2062,509.8666666666667,-100.26666666666667,187.73333333333332
2063,518.4,-102.4,194.13333333333333
2064,514.1333333333333,-100.26666666666667,196.26666666666665
2065,514.1333333333333,-100.26666666666667,192.0
2066,512.0,-100.26666666666667,189.86666666666667
2067,518.4,-96.0,196.26666666666665
2068,522.6666666666666,-104.53333333333333,196.26666666666665
2069,512.0,-100.26666666666667,194.13333333333333
2070,514.1333333333333,-102.4,189.86666666666667
2071,499.2,-100.26666666666667,174.93333333333334
2072,520.5333333333333,-106.66666666666667,192.0
2073,516.2666666666667,-100.26666666666667,185.6
2074,518.4,-102.4,183.46666666666667
2075,522.6666666666666,-106.66666666666667,189.86666666666667
2076,514.1333333333333,-104.53333333333333,187.73333333333332
2077,512.0,-100.26666666666667,189.86666666666667
2078,518.4,-100.26666666666667,187.73333333333332
2079,514.1333333333333,-102.4,192.0
2080,516.2666666666667,-104.53333333333333,185.6
2081,514.1333333333333,-102.4,194.13333333333333
2082,518.4,-102.4,183.46666666666667
2083,514.1333333333333,-100.26666666666667,198.4
2084,514.1333333333333,-104.53333333333333,187.73333333333332
2085,516.2666666666667,-100.26666666666667,194.13333333333333
2086,516.2666666666667,-100.26666666666667,192.0
2087,518.4,-110.93333333333334,194.13333333333333
2088,514.1333333333333,-102.4,192.0
2089,514.1333333333333,-100.26666666666667,194.13333333333333
2090,514.1333333333333,-100.26666666666667,194.13333333333333
2091,514.1333333333333,-93.86666666666666,192.0
2092,518.4,-106.66666666666667,192.0
2093,507.73333333333335,-108.8,200.53333333333333
2094,512.0,-100.26666666666667,196.26666666666665
2095,520.5333333333333,-100.26666666666667,183.46666666666667
2096,518.4,-98.13333333333333,187.73333333333332
2097,518.4,-102.4,198.4
2098,514.1333333333333,-100.26666666666667,187.73333333333332
2099,516.2666666666667,-100.26666666666667,192.0
2100,514.1333333333333,-96.0,198.4
2101,518.4,-100.26666666666667,189.86666666666667
2102,520.5333333333333,-100.26666666666667,189.86666666666667
2103,516.2666666666667,-100.26666666666667,200.53333333333333
2104,524.8,-108.8,200.53333333333333
2105,516.2666666666667,-104.53333333333333,192.0
2106,518.4,-98.13333333333333,200.53333333333333
2107,524.8,-102.4,198.4
2108,516.2666666666667,-100.26666666666667,194.13333333333333
2109,514.1333333333333,-96.0,192.0
2110,516.2666666666667,-96.0,194.13333333333333
2111,518.4,-102.4,194.13333333333333
2112,520.5333333333333,-96.0,196.26666666666665
2113,526.9333333333333,-98.13333333333333,196.26666666666665
2114,516.2666666666667,-102.4,192.0
2115,512.0,-123.73333333333333,170.66666666666666
2116,520.5333333333333,-106.66666666666667,194.13333333333333
2117,514.1333333333333,-96.0,196.26666666666665
2118,520.5333333333333,-104.53333333333333,196.26666666666665
2119,512.0,-102.4,192.0
2120,518.4,-108.8,181.33333333333334
2121,516.2666666666667,-102.4,194.13333333333333
2122,520.5333333333333,-106.66666666666667,194.13333333333333
2123,518.4,-104.53333333333333,187.73333333333332
2124,512.0,-100.26666666666667,183.46666666666667
2125,514.1333333333333,-100.26666666666667,192.0
2126,518.4,-104.53333333333333,194.13333333333333
2127,512.0,-93.86666666666666,187.73333333333332
2128,516.2666666666667,-104.53333333333333,196.26666666666665
2129,514.1333333333333,-100.26666666666667,194.13333333333333
2130,514.1333333333333,-104.53333333333333,183.46666666666667
2131,518.4,-104.53333333333333,187.73333333333332
2132,512.0,-100.26666666666667,192.0
2133,512.0,-104.53333333333333,194.13333333333333
2134,522.6666666666666,-106.66666666666667,194.13333333333333
2135,514.1333333333333,-102.4,189.86666666666667
2136,514.1333333333333,-104.53333333333333,189.86666666666667
2137,512.0,-91.73333333333333,189.86666666666667
2138,520.5333333333333,-104.53333333333333,185.6
2139,512.0,-100.26666666666667,189.86666666666667
2140,518.4,-106.66666666666667,192.0
2141,520.5333333333333,-100.26666666666667,196.26666666666665
2142,512.0,-100.26666666666667,192.0
2143,512.0,-98.13333333333333,189.86666666666667
2144,522.6666666666666,-102.4,185.6
2145,514.1333333333333,-106.66666666666667,185.6
2146,516.2666666666667,-108.8,189.86666666666667
2147,516.2666666666667,-98.13333333333333,192.0
2148,514.1333333333333,-102.4,194.13333333333333
2149,509.8666666666667,-102.4,187.73333333333332
2150,518.4,-104.53333333333333,185.6
2151,516.2666666666667,-104.53333333333333,196.26666666666665
2152,520.5333333333333,-102.4,192.0
2153,514.1333333333333,-102.4,189.86666666666667
2154,514.1333333333333,-100.26666666666667,194.13333333333333
2155,516.2666666666667,-106.66666666666667,196.26666666666665
2156,512.0,-98.13333333333333,192.0
2157,512.0,-98.13333333333333,189.86666666666667
2158,512.0,-106.66666666666667,187.73333333333332
2159,522.6666666666666,-87.46666666666667,209.06666666666666
2160,520.5333333333333,-104.53333333333333,194.13333333333333
2161,514.1333333333333,-104.53333333333333,192.0
2162,514.1333333333333,-102.4,189.86666666666667
2163,518.4,-104.53333333333333,192.0
2164,518.4,-104.53333333333333,187.73333333333332
2165,520.5333333333333,-104.53333333333333,194.13333333333333
2166,514.1333333333333,-104.53333333333333,194.13333333333333
2167,509.8666666666667,-104.53333333333333,192.0
2168,509.8666666666667,-98.13333333333333,194.13333333333333
2169,518.4,-98.13333333333333,196.26666666666665
2170,509.8666666666667,-100.26666666666667,192.0
2171,516.2666666666667,-106.66666666666667,187.73333333333332
2172,512.0,-100.26666666666667,189.86666666666667
2173,509.8666666666667,-100.26666666666667,198.4
2174,516.2666666666667,-104.53333333333333,189.86666666666667
2175,520.5333333333333,-106.66666666666667,192.0
2176,514.1333333333333,-102.4,185.6
2177,516.2666666666667,-106.66666666666667,187.73333333333332
2178,512.0,-102.4,187.73333333333332
2179,514.1333333333333,-98.13333333333333,194.13333333333333
2180,514.1333333333333,-104.53333333333333,200.53333333333333
2181,516.2666666666667,-104.53333333333333,183.46666666666667
2182,522.6666666666666,-104.53333333333333,192.0
2183,518.4,-106.66666666666667,189.86666666666667
2184,507.73333333333335,-98.13333333333333,192.0
2185,516.2666666666667,-106.66666666666667,189.86666666666667
2186,516.2666666666667,-102.4,192.0
2187,518.4,-98.13333333333333,187.73333333333332
2188,514.1333333333333,-106.66666666666667,181.33333333333334
2189,514.1333333333333,-108.8,189.86666666666667
2190,512.0,-100.26666666666667,196.26666666666665
2191,522.6666666666666,-104.53333333333333,189.86666666666667
2192,520.5333333333333,-102.4,192.0
2193,516.2666666666667,-102.4,194.13333333333333
2194,516.2666666666667,-102.4,187.73333333333332
2195,518.4,-98.13333333333333,187.73333333333332
2196,512.0,-100.26666666666667,189.86666666666667
2197,516.2666666666667,-104.53333333333333,192.0
2198,514.1333333333333,-96.0,189.86666666666667
2199,507.73333333333335,-102.4,189.86666666666667
2200,514.1333333333333,-102.4,187.73333333333332
2201,509.8666666666667,-100.26666666666667,189.86666666666667
2202,541.8666666666667,-98.13333333333333,183.46666666666667
2203,512.0,-108.8,194.13333333333333
2204,512.0,-106.66666666666667,189.86666666666667
2205,507.73333333333335,-102.4,189.86666666666667
2206,518.4,-98.13333333333333,185.6
2207,516.2666666666667,-102.4,183.46666666666667
2208,518.4,-100.26666666666667,196.26666666666665
2209,516.2666666666667,-98.13333333333333,198.4
2210,518.4,-93.86666666666666,187.73333333333332
2211,522.6666666666666,-106.66666666666667,192.0
2212,518.4,-106.66666666666667,187.73333333333332
2213,518.4,-100.26666666666667,183.46666666666667
2214,514.1333333333333,-102.4,189.86666666666667
2215,512.0,-102.4,187.73333333333332
2216,509.8666666666667,-98.13333333333333,196.26666666666665
2217,518.4,-106.66666666666667,187.73333333333332
2218,516.2666666666667,-89.6,183.46666666666667
2219,520.5333333333333,-100.26666666666667,187.73333333333332
2220,520.5333333333333,-104.53333333333333,185.6
2221,520.5333333333333,-106.66666666666667,192.0
2222,518.4,-100.26666666666667,194.13333333333333
2223,516.2666666666667,-98.13333333333333,194.13333333333333
2224,514.1333333333333,-102.4,187.73333333333332
2225,518.4,-106.66666666666667,196.26666666666665
2226,514.1333333333333,-102.4,196.26666666666665
2227,518.4,-102.4,189.86666666666667
2228,522.6666666666666,-102.4,187.73333333333332
2229,518.4,-102.4,194.13333333333333
2230,512.0,-96.0,192.0
2231,518.4,-98.13333333333333,192.0
2232,520.5333333333333,-106.66666666666667,192.0
2233,509.8666666666667,-106.66666666666667,194.13333333333333
2234,512.0,-102.4,187.73333333333332
2235,509.8666666666667,-104.53333333333333,189.86666666666667
2236,514.1333333333333,-98.13333333333333,194.13333333333333
2237,520.5333333333333,-104.53333333333333,189.86666666666667
2238,514.1333333333333,-98.13333333333333,185.6
2239,512.0,-100.26666666666667,196.26666666666665
2240,514.1333333333333,-104.53333333333333,189.86666666666667
2241,512.0,-106.66666666666667,196.26666666666665
2242,516.2666666666667,-102.4,187.73333333333332
2243,514.1333333333333,-104.53333333333333,196.26666666666665
2244,514.1333333333333,-108.8,192.0
2245,514.1333333333333,-104.53333333333333,192.0
2246,512.0,-110.93333333333334,202.66666666666666
2247,512.0,-98.13333333333333,198.4
2248,514.1333333333333,-100.26666666666667,194.13333333333333
2249,514.1333333333333,-100.26666666666667,194.13333333333333
2250,518.4,-102.4,189.86666666666667
2251,507.73333333333335,-102.4,194.13333333333333
2252,518.4,-108.8,185.6
2253,509.8666666666667,-96.0,189.86666666666667
2254,514.1333333333333,-102.4,194.13333333333333
2255,509.8666666666667,-100.26666666666667,196.26666666666665
2256,522.6666666666666,-106.66666666666667,187.73333333333332
2257,518.4,-106.66666666666667,194.13333333333333
2258,514.1333333333333,-110.93333333333334,185.6
2259,516.2666666666667,-100.26666666666667,187.73333333333332
2260,512.0,-102.4,189.86666666666667
2261,514.1333333333333,-100.26666666666667,194.13333333333333
2262,512.0,-106.66666666666667,189.86666666666667
2263,516.2666666666667,-106.66666666666667,194.13333333333333
2264,520.5333333333333,-110.93333333333334,189.86666666666667
2265,516.2666666666667,-108.8,194.13333333333333
2266,514.1333333333333,-102.4,189.86666666666667
2267,516.2666666666667,-106.66666666666667,189.86666666666667
2268,514.1333333333333,-96.0,181.33333333333334
2269,512.0,-100.26666666666667,183.46666666666667
2270,514.1333333333333,-100.26666666666667,192.0
2271,518.4,-108.8,198.4
2272,518.4,-108.8,194.13333333333333
2273,518.4,-104.53333333333333,185.6
2274,516.2666666666667,-104.53333333333333,194.13333333333333
2275,522.6666666666666,-100.26666666666667,192.0
2276,514.1333333333333,-102.4,194.13333333333333
2277,509.8666666666667,-100.26666666666667,187.73333333333332
2278,514.1333333333333,-106.66666666666667,194.13333333333333
2279,514.1333333333333,-106.66666666666667,189.86666666666667
2280,514.1333333333333,-104.53333333333333,187.73333333333332
2281,516.2666666666667,-102.4,198.4
2282,518.4,-102.4,189.86666666666667
2283,514.1333333333333,-100.26666666666667,189.86666666666667
2284,516.2666666666667,-106.66666666666667,189.86666666666667
2285,512.0,-96.0,194.13333333333333
2286,514.1333333333333,-104.53333333333333,189.86666666666667
2287,514.1333333333333,-100.26666666666667,194.13333333333333
2288,516.2666666666667,-100.26666666666667,185.6
2289,522.6666666666666,-102.4,196.26666666666665
2290,516.2666666666667,-98.13333333333333,185.6
2291,516.2666666666667,-102.4,181.33333333333334
2292,518.4,-102.4,187.73333333333332
2293,518.4,-106.66666666666667,192.0
2294,509.8666666666667,-104.53333333333333,187.73333333333332
2295,512.0,-102.4,183.46666666666667
2296,520.5333333333333,-102.4,194.13333333333333
2297,522.6666666666666,-104.53333333333333,183.46666666666667
2298,520.5333333333333,-102.4,189.86666666666667
2299,520.5333333333333,-106.66666666666667,185.6
2300,520.5333333333333,-102.4,189.86666666666667
2301,518.4,-108.8,189.86666666666667
2302,520.5333333333333,-108.8,189.86666666666667
2303,514.1333333333333,-106.66666666666667,185.6
2304,516.2666666666667,-98.13333333333333,189.86666666666667
2305,518.4,-110.93333333333334,189.86666666666667
2306,518.4,-106.66666666666667,185.6
2307,516.2666666666667,-108.8,194.13333333333333
2308,516.2666666666667,-102.4,187.73333333333332
2309,516.2666666666667,-106.66666666666667,185.6
2310,512.0,-102.4,189.86666666666667
2311,514.1333333333333,-96.0,200.53333333333333
2312,518.4,-104.53333333333333,194.13333333333333
2313,516.2666666666667,-102.4,196.26666666666665
2314,514.1333333333333,-98.13333333333333,189.86666666666667
2315,520.5333333333333,-102.4,189.86666666666667
2316,512.0,-104.53333333333333,179.2
2317,514.1333333333333,-102.4,183.46666666666667
2318,512.0,-98.13333333333333,185.6
2319,516.2666666666667,-104.53333333333333,189.86666666666667
2320,514.1333333333333,-102.4,185.6
2321,518.4,-102.4,189.86666666666667
2322,514.1333333333333,-102.4,187.73333333333332
2323,516.2666666666667,-104.53333333333333,189.86666666666667
2324,520.5333333333333,-106.66666666666667,185.6
2325,514.1333333333333,-104.53333333333333,189.86666666666667
2326,512.0,-102.4,189.86666666666667
2327,514.1333333333333,-98.13333333333333,185.6
2328,520.5333333333333,-110.93333333333334,189.86666666666667
2329,520.5333333333333,-108.8,194.13333333333333
2330,512.0,-104.53333333333333,183.46666666666667
2331,516.2666666666667,-104.53333333333333,189.86666666666667
2332,514.1333333333333,-108.8,192.0
2333,509.8666666666667,-119.46666666666667,189.86666666666667
2334,512.0,-98.13333333333333,194.13333333333333
2335,516.2666666666667,-108.8,189.86666666666667
2336,518.4,-104.53333333333333,185.6
2337,516.2666666666667,-106.66666666666667,189.86666666666667
2338,514.1333333333333,-110.93333333333334,196.26666666666665
2339,516.2666666666667,-102.4,185.6
2340,514.1333333333333,-102.4,183.46666666666667
2341,512.0,-108.8,187.73333333333332
2342,518.4,-104.53333333333333,181.33333333333334
2343,522.6666666666666,-102.4,185.6
2344,522.6666666666666,-104.53333333333333,183.46666666666667
2345,509.8666666666667,-100.26666666666667,189.86666666666667
2346,514.1333333333333,-100.26666666666667,183.46666666666667
2347,516.2666666666667,-106.66666666666667,187.73333333333332
2348,509.8666666666667,-98.13333333333333,179.2
2349,520.5333333333333,-106.66666666666667,189.86666666666667
2350,518.4,-100.26666666666667,187.73333333333332
2351,520.5333333333333,-104.53333333333333,194.13333333333333
2352,512.0,-100.26666666666667,185.6
2353,512.0,-98.13333333333333,192.0
2354,518.4,-102.4,185.6
2355,524.8,-121.6,198.4
2356,512.0,-100.26666666666667,185.6
2357,518.4,-93.86666666666666,189.86666666666667
2358,516.2666666666667,-104.53333333333333,185.6
2359,516.2666666666667,-100.26666666666667,192.0
2360,516.2666666666667,-104.53333333333333,189.86666666666667
2361,514.1333333333333,-106.66666666666667,187.73333333333332
2362,514.1333333333333,-106.66666666666667,189.86666666666667
2363,509.8666666666667,-110.93333333333334,183.46666666666667
2364,516.2666666666667,-110.93333333333334,187.73333333333332
2365,520.5333333333333,-100.26666666666667,198.4
2366,514.1333333333333,-102.4,189.86666666666667
2367,514.1333333333333,-100.26666666666667,181.33333333333334
2368,518.4,-93.86666666666666,185.6
2369,514.1333333333333,-98.13333333333333,185.6
2370,518.4,-102.4,192.0
2371,520.5333333333333,-98.13333333333333,189.86666666666667
2372,518.4,-106.66666666666667,185.6
2373,514.1333333333333,-104.53333333333333,185.6
2374,518.4,-96.0,187.73333333333332
2375,520.5333333333333,-102.4,192.0
2376,512.0,-100.26666666666667,198.4
2377,518.4,-108.8,198.4
2378,518.4,-106.66666666666667,183.46666666666667
2379,514.1333333333333,-100.26666666666667,189.86666666666667
2380,514.1333333333333,-100.26666666666667,189.86666666666667
2381,518.4,-102.4,187.73333333333332
2382,516.2666666666667,-106.66666666666667,196.26666666666665
2383,505.59999999999997,-102.4,189.86666666666667
2384,518.4,-104.53333333333333,194.13333333333333
2385,514.1333333333333,-104.53333333333333,192.0
2386,520.5333333333333,-102.4,196.26666666666665
2387,516.2666666666667,-98.13333333333333,187.73333333333332
2388,518.4,-102.4,189.86666666666667
2389,514.1333333333333,-100.26666666666667,196.26666666666665
2390,514.1333333333333,-104.53333333333333,200.53333333333333
2391,522.6666666666666,-106.66666666666667,192.0
2392,518.4,-106.66666666666667,192.0
2393,512.0,-106.66666666666667,192.0
2394,512.0,-104.53333333333333,185.6
2395,516.2666666666667,-108.8,189.86666666666667
2396,518.4,-100.26666666666667,187.73333333333332
2397,516.2666666666667,-100.26666666666667,187.73333333333332
2398,507.73333333333335,-106.66666666666667,202.66666666666666
2399,520.5333333333333,-104.53333333333333,196.26666666666665
2400,509.8666666666667,-98.13333333333333,189.86666666666667
2401,516.2666666666667,-98.13333333333333,187.73333333333332
2402,520.5333333333333,-108.8,187.73333333333332
2403,512.0,-100.26666666666667,192.0
2404,522.6666666666666,-100.26666666666667,189.86666666666667
2405,516.2666666666667,-98.13333333333333,189.86666666666667
2406,518.4,-98.13333333333333,189.86666666666667
2407,518.4,-110.93333333333334,187.73333333333332
2408,518.4,-102.4,187.73333333333332
