,accelerometerAccelerationX(G),accelerometerAccelerationY(G),accelerometerAccelerationZ(G)
0,4.266666666666667,-539.7333333333333,-117.33333333333333
1,2.1333333333333333,-531.2,-117.33333333333333
2,4.266666666666667,-539.7333333333333,-119.46666666666667
3,4.266666666666667,-535.4666666666667,-119.46666666666667
4,6.4,-546.1333333333333,-121.6
5,-6.4,-546.1333333333333,-130.13333333333333
6,2.1333333333333333,-533.3333333333334,-119.46666666666667
7,8.533333333333333,-541.8666666666667,-119.46666666666667
8,4.266666666666667,-548.2666666666667,-119.46666666666667
9,8.533333333333333,-537.6,-115.2
10,4.266666666666667,-535.4666666666667,-119.46666666666667
11,-4.266666666666667,-541.8666666666667,-113.06666666666666
12,0.0,-537.6,-115.2
13,0.0,-539.7333333333333,-121.6
14,-2.1333333333333333,-539.7333333333333,-121.6
15,6.4,-544.0,-121.6
16,4.266666666666667,-537.6,-117.33333333333333
17,4.266666666666667,-539.7333333333333,-113.06666666666666
18,2.1333333333333333,-541.8666666666667,-117.33333333333333
19,4.266666666666667,-539.7333333333333,-121.6
20,2.1333333333333333,-537.6,-119.46666666666667
21,6.4,-539.7333333333333,-119.46666666666667
22,-2.1333333333333333,-526.9333333333333,-121.6
23,2.1333333333333333,-537.6,-115.2
24,6.4,-541.8666666666667,-113.06666666666666
25,-2.1333333333333333,-544.0,-117.33333333333333
26,2.1333333333333333,-539.7333333333333,-117.33333333333333
27,0.0,-535.4666666666667,-119.46666666666667
28,2.1333333333333333,-535.4666666666667,-117.33333333333333
29,0.0,-537.6,-113.06666666666666
30,2.1333333333333333,-535.4666666666667,-113.06666666666666
31,0.0,-535.4666666666667,-121.6
32,6.4,-531.2,-123.73333333333333
33,4.266666666666667,-537.6,-119.46666666666667
34,0.0,-535.4666666666667,-119.46666666666667
35,0.0,-529.0666666666666,-113.06666666666666
36,2.1333333333333333,-533.3333333333334,-117.33333333333333
37,2.1333333333333333,-535.4666666666667,-125.86666666666666
38,6.4,-537.6,-119.46666666666667
39,8.533333333333333,-535.4666666666667,-119.46666666666667
40,4.266666666666667,-539.7333333333333,-117.33333333333333
41,6.4,-539.7333333333333,-121.6
42,2.1333333333333333,-533.3333333333334,-119.46666666666667
43,8.533333333333333,-539.7333333333333,-123.73333333333333
44,2.1333333333333333,-535.4666666666667,-121.6
45,2.1333333333333333,-533.3333333333334,-121.6
46,2.1333333333333333,-537.6,-123.73333333333333
47,6.4,-533.3333333333334,-121.6
48,6.4,-541.8666666666667,-123.73333333333333
49,6.4,-533.3333333333334,-119.46666666666667
50,2.1333333333333333,-537.6,-121.6
51,0.0,-529.0666666666666,-115.2
52,0.0,-529.0666666666666,-123.73333333333333
53,0.0,-533.3333333333334,-121.6
54,4.266666666666667,-537.6,-117.33333333333333
55,2.1333333333333333,-533.3333333333334,-121.6
56,6.4,-529.0666666666666,-125.86666666666666
57,6.4,-533.3333333333334,-119.46666666666667
58,8.533333333333333,-539.7333333333333,-117.33333333333333
59,4.266666666666667,-535.4666666666667,-128.0
60,6.4,-537.6,-121.6
61,4.266666666666667,-531.2,-125.86666666666666
62,4.266666666666667,-535.4666666666667,-119.46666666666667
63,10.666666666666666,-539.7333333333333,-123.73333333333333
64,6.4,-531.2,-119.46666666666667
65,10.666666666666666,-537.6,-125.86666666666666
66,12.8,-533.3333333333334,-128.0
67,6.4,-533.3333333333334,-119.46666666666667
68,12.8,-535.4666666666667,-125.86666666666666
69,6.4,-539.7333333333333,-125.86666666666666
70,4.266666666666667,-537.6,-132.26666666666665
71,2.1333333333333333,-537.6,-121.6
72,6.4,-535.4666666666667,-119.46666666666667
73,4.266666666666667,-541.8666666666667,-123.73333333333333
74,6.4,-544.0,-121.6
75,4.266666666666667,-539.7333333333333,-123.73333333333333
76,10.666666666666666,-537.6,-128.0
77,-2.1333333333333333,-533.3333333333334,-128.0
78,6.4,-544.0,-123.73333333333333
79,0.0,-537.6,-123.73333333333333
80,6.4,-541.8666666666667,-121.6
81,4.266666666666667,-537.6,-128.0
82,4.266666666666667,-535.4666666666667,-128.0
83,6.4,-541.8666666666667,-128.0
84,4.266666666666667,-539.7333333333333,-121.6
85,10.666666666666666,-535.4666666666667,-119.46666666666667
86,12.8,-541.8666666666667,-121.6
87,10.666666666666666,-535.4666666666667,-125.86666666666666
88,2.1333333333333333,-537.6,-121.6
89,14.933333333333334,-537.6,-117.33333333333333
90,2.1333333333333333,-533.3333333333334,-113.06666666666666
91,4.266666666666667,-539.7333333333333,-110.93333333333334
92,2.1333333333333333,-533.3333333333334,-121.6
93,8.533333333333333,-539.7333333333333,-119.46666666666667
94,6.4,-533.3333333333334,-125.86666666666666
95,8.533333333333333,-533.3333333333334,-123.73333333333333
96,6.4,-539.7333333333333,-119.46666666666667
97,4.266666666666667,-541.8666666666667,-130.13333333333333
98,4.266666666666667,-537.6,-121.6
99,8.533333333333333,-535.4666666666667,-123.73333333333333
100,8.533333333333333,-535.4666666666667,-123.73333333333333
101,6.4,-537.6,-119.46666666666667
102,12.8,-535.4666666666667,-119.46666666666667
103,10.666666666666666,-535.4666666666667,-121.6
104,17.066666666666666,-537.6,-125.86666666666666
105,14.933333333333334,-539.7333333333333,-123.73333333333333
106,8.533333333333333,-537.6,-121.6
107,14.933333333333334,-533.3333333333334,-119.46666666666667
108,14.933333333333334,-537.6,-121.6
109,17.066666666666666,-539.7333333333333,-125.86666666666666
110,14.933333333333334,-535.4666666666667,-121.6
111,6.4,-531.2,-121.6
112,6.4,-529.0666666666666,-123.73333333333333
113,8.533333333333333,-529.0666666666666,-121.6
114,8.533333333333333,-533.3333333333334,-128.0
115,8.533333333333333,-535.4666666666667,-119.46666666666667
116,8.533333333333333,-537.6,-119.46666666666667
117,12.8,-535.4666666666667,-121.6
118,4.266666666666667,-537.6,-119.46666666666667
119,4.266666666666667,-533.3333333333334,-119.46666666666667
120,8.533333333333333,-544.0,-119.46666666666667
121,8.533333333333333,-535.4666666666667,-121.6
122,6.4,-537.6,-123.73333333333333
123,17.066666666666666,-539.7333333333333,-121.6
124,8.533333333333333,-544.0,-128.0
125,4.266666666666667,-537.6,-119.46666666666667
126,12.8,-535.4666666666667,-121.6
127,8.533333333333333,-533.3333333333334,-125.86666666666666
128,10.666666666666666,-535.4666666666667,-121.6
129,10.666666666666666,-539.7333333333333,-119.46666666666667
130,10.666666666666666,-535.4666666666667,-123.73333333333333
131,12.8,-537.6,-130.13333333333333
132,8.533333333333333,-535.4666666666667,-123.73333333333333
133,10.666666666666666,-539.7333333333333,-125.86666666666666
134,8.533333333333333,-539.7333333333333,-125.86666666666666
135,12.8,-537.6,-130.13333333333333
136,10.666666666666666,-535.4666666666667,-128.0
137,12.8,-535.4666666666667,-128.0
138,14.933333333333334,-535.4666666666667,-123.73333333333333
139,12.8,-529.0666666666666,-121.6
140,23.466666666666665,-535.4666666666667,-128.0
141,12.8,-533.3333333333334,-121.6
142,8.533333333333333,-526.9333333333333,-128.0
143,12.8,-531.2,-125.86666666666666
144,12.8,-535.4666666666667,-125.86666666666666
145,4.266666666666667,-535.4666666666667,-123.73333333333333
146,4.266666666666667,-533.3333333333334,-125.86666666666666
147,6.4,-535.4666666666667,-121.6
148,6.4,-535.4666666666667,-121.6
149,8.533333333333333,-535.4666666666667,-125.86666666666666
150,4.266666666666667,-537.6,-128.0
151,8.533333333333333,-541.8666666666667,-123.73333333333333
152,2.1333333333333333,-537.6,-128.0
153,8.533333333333333,-537.6,-134.4
154,8.533333333333333,-539.7333333333333,-121.6
155,4.266666666666667,-535.4666666666667,-125.86666666666666
156,8.533333333333333,-535.4666666666667,-121.6
157,8.533333333333333,-533.3333333333334,-123.73333333333333
158,4.266666666666667,-535.4666666666667,-125.86666666666666
159,10.666666666666666,-535.4666666666667,-123.73333333333333
160,4.266666666666667,-537.6,-132.26666666666665
161,12.8,-539.7333333333333,-130.13333333333333
162,10.666666666666666,-539.7333333333333,-130.13333333333333
163,8.533333333333333,-531.2,-130.13333333333333
164,17.066666666666666,-541.8666666666667,-136.53333333333333
165,8.533333333333333,-535.4666666666667,-125.86666666666666
166,4.266666666666667,-526.9333333333333,-134.4
167,10.666666666666666,-533.3333333333334,-136.53333333333333
168,8.533333333333333,-526.9333333333333,-132.26666666666665
169,19.2,-529.0666666666666,-138.66666666666666
170,6.4,-529.0666666666666,-134.4
171,12.8,-531.2,-128.0
172,12.8,-541.8666666666667,-140.8
173,10.666666666666666,-531.2,-130.13333333333333
174,2.1333333333333333,-533.3333333333334,-134.4
175,8.533333333333333,-531.2,-128.0
176,2.1333333333333333,-533.3333333333334,-125.86666666666666
177,6.4,-535.4666666666667,-130.13333333333333
178,4.266666666666667,-533.3333333333334,-132.26666666666665
179,8.533333333333333,-537.6,-125.86666666666666
180,4.266666666666667,-533.3333333333334,-125.86666666666666
181,10.666666666666666,-537.6,-128.0
182,8.533333333333333,-535.4666666666667,-128.0
183,2.1333333333333333,-531.2,-128.0
184,4.266666666666667,-531.2,-132.26666666666665
185,8.533333333333333,-541.8666666666667,-128.0
186,2.1333333333333333,-529.0666666666666,-128.0
187,8.533333333333333,-533.3333333333334,-128.0
188,8.533333333333333,-533.3333333333334,-128.0
189,4.266666666666667,-535.4666666666667,-123.73333333333333
190,2.1333333333333333,-533.3333333333334,-132.26666666666665
191,8.533333333333333,-539.7333333333333,-123.73333333333333
192,8.533333333333333,-529.0666666666666,-132.26666666666665
193,4.266666666666667,-529.0666666666666,-134.4
194,2.1333333333333333,-531.2,-136.53333333333333
195,2.1333333333333333,-529.0666666666666,-128.0
196,2.1333333333333333,-531.2,-123.73333333333333
197,8.533333333333333,-529.0666666666666,-138.66666666666666
198,2.1333333333333333,-531.2,-132.26666666666665
199,8.533333333333333,-537.6,-128.0
200,8.533333333333333,-533.3333333333334,-130.13333333333333
201,2.1333333333333333,-526.9333333333333,-130.13333333333333
202,0.0,-531.2,-132.26666666666665
203,4.266666666666667,-537.6,-123.73333333333333
204,0.0,-533.3333333333334,-130.13333333333333
205,8.533333333333333,-531.2,-134.4
206,0.0,-531.2,-128.0
207,4.266666666666667,-539.7333333333333,-128.0
208,4.266666666666667,-533.3333333333334,-123.73333333333333
209,10.666666666666666,-541.8666666666667,-132.26666666666665
210,4.266666666666667,-535.4666666666667,-125.86666666666666
211,2.1333333333333333,-535.4666666666667,-123.73333333333333
212,8.533333333333333,-535.4666666666667,-128.0
213,4.266666666666667,-539.7333333333333,-123.73333333333333
214,6.4,-539.7333333333333,-123.73333333333333
215,2.1333333333333333,-541.8666666666667,-123.73333333333333
216,4.266666666666667,-539.7333333333333,-128.0
217,2.1333333333333333,-539.7333333333333,-130.13333333333333
218,2.1333333333333333,-533.3333333333334,-123.73333333333333
219,8.533333333333333,-535.4666666666667,-130.13333333333333
220,8.533333333333333,-529.0666666666666,-128.0
221,12.8,-529.0666666666666,-128.0
222,4.266666666666667,-526.9333333333333,-132.26666666666665
223,10.666666666666666,-537.6,-132.26666666666665
224,10.666666666666666,-533.3333333333334,-132.26666666666665
225,4.266666666666667,-522.6666666666666,-132.26666666666665
226,2.1333333333333333,-535.4666666666667,-132.26666666666665
227,6.4,-533.3333333333334,-132.26666666666665
228,8.533333333333333,-535.4666666666667,-125.86666666666666
229,12.8,-533.3333333333334,-125.86666666666666
230,6.4,-529.0666666666666,-132.26666666666665
231,2.1333333333333333,-535.4666666666667,-125.86666666666666
232,17.066666666666666,-544.0,-125.86666666666666
233,6.4,-533.3333333333334,-125.86666666666666
234,8.533333333333333,-537.6,-132.26666666666665
235,8.533333333333333,-537.6,-128.0
236,6.4,-535.4666666666667,-123.73333333333333
237,2.1333333333333333,-535.4666666666667,-125.86666666666666
238,8.533333333333333,-537.6,-125.86666666666666
239,10.666666666666666,-533.3333333333334,-125.86666666666666
240,4.266666666666667,-535.4666666666667,-125.86666666666666
241,12.8,-546.1333333333333,-128.0
242,6.4,-537.6,-125.86666666666666
243,4.266666666666667,-539.7333333333333,-130.13333333333333
244,4.266666666666667,-539.7333333333333,-128.0
245,2.1333333333333333,-531.2,-138.66666666666666
246,6.4,-533.3333333333334,-136.53333333333333
247,2.1333333333333333,-531.2,-130.13333333333333
248,6.4,-535.4666666666667,-130.13333333333333
249,6.4,-531.2,-121.6
250,2.1333333333333333,-526.9333333333333,-123.73333333333333
251,8.533333333333333,-535.4666666666667,-128.0
252,6.4,-531.2,-125.86666666666666
253,4.266666666666667,-535.4666666666667,-128.0
254,6.4,-531.2,-125.86666666666666
255,8.533333333333333,-531.2,-130.13333333333333
256,6.4,-537.6,-125.86666666666666
257,4.266666666666667,-535.4666666666667,-130.13333333333333
258,8.533333333333333,-533.3333333333334,-134.4
259,6.4,-531.2,-125.86666666666666
260,6.4,-533.3333333333334,-125.86666666666666
261,4.266666666666667,-531.2,-125.86666666666666
262,10.666666666666666,-541.8666666666667,-125.86666666666666
263,4.266666666666667,-531.2,-130.13333333333333
264,10.666666666666666,-535.4666666666667,-125.86666666666666
265,10.666666666666666,-526.9333333333333,-132.26666666666665
266,8.533333333333333,-529.0666666666666,-123.73333333333333
267,8.533333333333333,-531.2,-125.86666666666666
268,12.8,-533.3333333333334,-123.73333333333333
269,6.4,-524.8,-128.0
270,8.533333333333333,-531.2,-123.73333333333333
271,12.8,-537.6,-132.26666666666665
272,8.533333333333333,-531.2,-130.13333333333333
273,8.533333333333333,-529.0666666666666,-123.73333333333333
274,12.8,-537.6,-123.73333333333333
275,10.666666666666666,-533.3333333333334,-125.86666666666666
276,8.533333333333333,-537.6,-123.73333333333333
277,14.933333333333334,-541.8666666666667,-117.33333333333333
278,6.4,-531.2,-138.66666666666666
279,12.8,-544.0,-113.06666666666666
280,6.4,-565.3333333333334,-138.66666666666666
281,44.8,-544.0,-138.66666666666666
282,4.266666666666667,-537.6,-128.0
283,2.1333333333333333,-548.2666666666667,-130.13333333333333
284,-10.666666666666666,-539.7333333333333,-115.2
285,6.4,-516.2666666666667,-145.06666666666666
286,-4.266666666666667,-526.9333333333333,-132.26666666666665
287,8.533333333333333,-531.2,-125.86666666666666
288,12.8,-535.4666666666667,-123.73333333333333
289,6.4,-531.2,-125.86666666666666
290,6.4,-535.4666666666667,-121.6
291,14.933333333333334,-533.3333333333334,-121.6
292,4.266666666666667,-537.6,-125.86666666666666
293,6.4,-535.4666666666667,-123.73333333333333
294,4.266666666666667,-535.4666666666667,-119.46666666666667
295,6.4,-533.3333333333334,-121.6
296,12.8,-531.2,-125.86666666666666
297,8.533333333333333,-529.0666666666666,-117.33333333333333
298,4.266666666666667,-535.4666666666667,-121.6
299,6.4,-535.4666666666667,-123.73333333333333
300,4.266666666666667,-535.4666666666667,-125.86666666666666
301,2.1333333333333333,-535.4666666666667,-121.6
302,8.533333333333333,-537.6,-128.0
303,6.4,-529.0666666666666,-125.86666666666666
304,6.4,-537.6,-119.46666666666667
305,8.533333333333333,-537.6,-134.4
306,2.1333333333333333,-533.3333333333334,-123.73333333333333
307,8.533333333333333,-535.4666666666667,-128.0
308,8.533333333333333,-537.6,-128.0
309,6.4,-533.3333333333334,-123.73333333333333
310,4.266666666666667,-533.3333333333334,-119.46666666666667
311,4.266666666666667,-537.6,-121.6
312,8.533333333333333,-537.6,-125.86666666666666
313,8.533333333333333,-539.7333333333333,-130.13333333333333
314,6.4,-537.6,-130.13333333333333
315,6.4,-537.6,-128.0
316,8.533333333333333,-539.7333333333333,-121.6
317,10.666666666666666,-541.8666666666667,-123.73333333333333
318,4.266666666666667,-541.8666666666667,-119.46666666666667
319,8.533333333333333,-539.7333333333333,-128.0
320,8.533333333333333,-539.7333333333333,-121.6
321,4.266666666666667,-537.6,-130.13333333333333
322,2.1333333333333333,-533.3333333333334,-121.6
323,8.533333333333333,-539.7333333333333,-117.33333333333333
324,8.533333333333333,-535.4666666666667,-130.13333333333333
325,12.8,-533.3333333333334,-128.0
326,8.533333333333333,-537.6,-123.73333333333333
327,12.8,-533.3333333333334,-132.26666666666665
328,10.666666666666666,-535.4666666666667,-123.73333333333333
329,8.533333333333333,-539.7333333333333,-121.6
330,8.533333333333333,-535.4666666666667,-119.46666666666667
331,10.666666666666666,-539.7333333333333,-128.0
332,12.8,-533.3333333333334,-123.73333333333333
333,8.533333333333333,-529.0666666666666,-119.46666666666667
334,4.266666666666667,-533.3333333333334,-123.73333333333333
335,10.666666666666666,-535.4666666666667,-121.6
336,6.4,-531.2,-119.46666666666667
337,4.266666666666667,-531.2,-117.33333333333333
338,4.266666666666667,-529.0666666666666,-123.73333333333333
339,4.266666666666667,-535.4666666666667,-117.33333333333333
340,6.4,-531.2,-128.0
341,6.4,-539.7333333333333,-123.73333333333333
342,4.266666666666667,-533.3333333333334,-121.6
343,6.4,-535.4666666666667,-128.0
344,-2.1333333333333333,-533.3333333333334,-121.6
345,2.1333333333333333,-533.3333333333334,-125.86666666666666
346,4.266666666666667,-544.0,-119.46666666666667
347,2.1333333333333333,-537.6,-115.2
348,4.266666666666667,-539.7333333333333,-119.46666666666667
349,4.266666666666667,-537.6,-130.13333333333333
350,10.666666666666666,-539.7333333333333,-121.6
351,2.1333333333333333,-535.4666666666667,-121.6
352,2.1333333333333333,-533.3333333333334,-119.46666666666667
353,8.533333333333333,-541.8666666666667,-119.46666666666667
354,12.8,-537.6,-128.0
355,12.8,-537.6,-128.0
356,8.533333333333333,-535.4666666666667,-123.73333333333333
357,10.666666666666666,-533.3333333333334,-125.86666666666666
358,8.533333333333333,-535.4666666666667,-119.46666666666667
359,10.666666666666666,-535.4666666666667,-115.2
360,10.666666666666666,-533.3333333333334,-119.46666666666667
361,8.533333333333333,-539.7333333333333,-123.73333333333333
362,6.4,-533.3333333333334,-123.73333333333333
363,10.666666666666666,-541.8666666666667,-115.2
364,10.666666666666666,-541.8666666666667,-119.46666666666667
365,12.8,-539.7333333333333,-128.0
366,8.533333333333333,-537.6,-128.0
367,8.533333333333333,-533.3333333333334,-121.6
368,2.1333333333333333,-537.6,-123.73333333333333
369,10.666666666666666,-539.7333333333333,-121.6
370,12.8,-535.4666666666667,-119.46666666666667
371,2.1333333333333333,-537.6,-119.46666666666667
372,8.533333333333333,-537.6,-132.26666666666665
373,6.4,-541.8666666666667,-121.6
374,12.8,-535.4666666666667,-123.73333333333333
375,10.666666666666666,-539.7333333333333,-119.46666666666667
376,8.533333333333333,-533.3333333333334,-123.73333333333333
377,4.266666666666667,-539.7333333333333,-117.33333333333333
378,6.4,-541.8666666666667,-117.33333333333333
379,6.4,-539.7333333333333,-121.6
380,4.266666666666667,-533.3333333333334,-123.73333333333333
381,6.4,-539.7333333333333,-117.33333333333333
382,8.533333333333333,-537.6,-117.33333333333333
383,6.4,-535.4666666666667,-121.6
384,2.1333333333333333,-537.6,-115.2
385,4.266666666666667,-539.7333333333333,-123.73333333333333
386,-2.1333333333333333,-533.3333333333334,-123.73333333333333
387,6.4,-537.6,-117.33333333333333
388,6.4,-533.3333333333334,-117.33333333333333
389,6.4,-539.7333333333333,-119.46666666666667
390,4.266666666666667,-541.8666666666667,-119.46666666666667
391,4.266666666666667,-539.7333333333333,-119.46666666666667
392,4.266666666666667,-533.3333333333334,-119.46666666666667
393,4.266666666666667,-537.6,-121.6
394,4.266666666666667,-537.6,-121.6
395,4.266666666666667,-539.7333333333333,-117.33333333333333
396,6.4,-539.7333333333333,-121.6
397,10.666666666666666,-533.3333333333334,-117.33333333333333
398,8.533333333333333,-541.8666666666667,-119.46666666666667
399,4.266666666666667,-541.8666666666667,-119.46666666666667
400,8.533333333333333,-537.6,-123.73333333333333
401,6.4,-535.4666666666667,-121.6
402,4.266666666666667,-529.0666666666666,-119.46666666666667
403,8.533333333333333,-535.4666666666667,-123.73333333333333
404,10.666666666666666,-535.4666666666667,-121.6
405,8.533333333333333,-535.4666666666667,-123.73333333333333
406,12.8,-533.3333333333334,-119.46666666666667
407,4.266666666666667,-535.4666666666667,-119.46666666666667
408,4.266666666666667,-535.4666666666667,-117.33333333333333
409,6.4,-537.6,-119.46666666666667
410,6.4,-535.4666666666667,-115.2
411,4.266666666666667,-533.3333333333334,-123.73333333333333
412,6.4,-531.2,-123.73333333333333
413,10.666666666666666,-541.8666666666667,-115.2
414,8.533333333333333,-537.6,-117.33333333333333
415,2.1333333333333333,-533.3333333333334,-117.33333333333333
416,-2.1333333333333333,-539.7333333333333,-117.33333333333333
417,6.4,-533.3333333333334,-117.33333333333333
418,6.4,-546.1333333333333,-121.6
419,4.266666666666667,-533.3333333333334,-117.33333333333333
420,0.0,-539.7333333333333,-119.46666666666667
421,0.0,-535.4666666666667,-119.46666666666667
422,8.533333333333333,-537.6,-117.33333333333333
423,2.1333333333333333,-535.4666666666667,-117.33333333333333
424,4.266666666666667,-535.4666666666667,-119.46666666666667
425,0.0,-531.2,-110.93333333333334
426,4.266666666666667,-539.7333333333333,-119.46666666666667
427,4.266666666666667,-535.4666666666667,-117.33333333333333
428,8.533333333333333,-535.4666666666667,-117.33333333333333
429,2.1333333333333333,-535.4666666666667,-119.46666666666667
430,4.266666666666667,-539.7333333333333,-123.73333333333333
431,2.1333333333333333,-537.6,-115.2
432,2.1333333333333333,-537.6,-123.73333333333333
433,6.4,-539.7333333333333,-115.2
434,2.1333333333333333,-537.6,-121.6
435,-2.1333333333333333,-533.3333333333334,-119.46666666666667
436,-2.1333333333333333,-541.8666666666667,-121.6
437,0.0,-533.3333333333334,-117.33333333333333
438,0.0,-541.8666666666667,-119.46666666666667
439,-4.266666666666667,-533.3333333333334,-119.46666666666667
440,4.266666666666667,-539.7333333333333,-121.6
441,2.1333333333333333,-539.7333333333333,-121.6
442,2.1333333333333333,-535.4666666666667,-117.33333333333333
443,2.1333333333333333,-541.8666666666667,-117.33333333333333
444,4.266666666666667,-539.7333333333333,-119.46666666666667
445,0.0,-535.4666666666667,-113.06666666666666
446,4.266666666666667,-537.6,-117.33333333333333
447,4.266666666666667,-535.4666666666667,-115.2
448,2.1333333333333333,-537.6,-119.46666666666667
449,6.4,-531.2,-117.33333333333333
450,0.0,-531.2,-119.46666666666667
451,2.1333333333333333,-533.3333333333334,-119.46666666666667
452,-4.266666666666667,-535.4666666666667,-117.33333333333333
453,4.266666666666667,-533.3333333333334,-117.33333333333333
454,4.266666666666667,-539.7333333333333,-117.33333333333333
455,8.533333333333333,-541.8666666666667,-110.93333333333334
456,4.266666666666667,-533.3333333333334,-115.2
457,8.533333333333333,-539.7333333333333,-117.33333333333333
458,0.0,-539.7333333333333,-121.6
459,-2.1333333333333333,-533.3333333333334,-117.33333333333333
460,6.4,-537.6,-113.06666666666666
461,4.266666666666667,-535.4666666666667,-121.6
462,4.266666666666667,-533.3333333333334,-123.73333333333333
463,2.1333333333333333,-531.2,-115.2
464,2.1333333333333333,-541.8666666666667,-119.46666666666667
465,4.266666666666667,-531.2,-113.06666666666666
466,4.266666666666667,-541.8666666666667,-119.46666666666667
467,2.1333333333333333,-533.3333333333334,-119.46666666666667
468,6.4,-539.7333333333333,-119.46666666666667
469,6.4,-537.6,-119.46666666666667
470,6.4,-535.4666666666667,-121.6
471,6.4,-537.6,-119.46666666666667
472,2.1333333333333333,-537.6,-121.6
473,0.0,-535.4666666666667,-123.73333333333333
474,0.0,-535.4666666666667,-117.33333333333333
475,-2.1333333333333333,-539.7333333333333,-123.73333333333333
476,4.266666666666667,-537.6,-119.46666666666667
477,2.1333333333333333,-539.7333333333333,-123.73333333333333
478,6.4,-544.0,-115.2
479,8.533333333333333,-539.7333333333333,-113.06666666666666
480,2.1333333333333333,-539.7333333333333,-119.46666666666667
481,0.0,-541.8666666666667,-121.6
482,6.4,-539.7333333333333,-117.33333333333333
483,8.533333333333333,-541.8666666666667,-117.33333333333333
484,2.1333333333333333,-541.8666666666667,-117.33333333333333
485,6.4,-539.7333333333333,-110.93333333333334
486,0.0,-535.4666666666667,-119.46666666666667
487,2.1333333333333333,-539.7333333333333,-117.33333333333333
488,4.266666666666667,-533.3333333333334,-117.33333333333333
489,4.266666666666667,-533.3333333333334,-119.46666666666667
490,2.1333333333333333,-539.7333333333333,-130.13333333333333
491,0.0,-537.6,-115.2
492,8.533333333333333,-535.4666666666667,-119.46666666666667
493,4.266666666666667,-533.3333333333334,-119.46666666666667
494,2.1333333333333333,-535.4666666666667,-110.93333333333334
495,6.4,-533.3333333333334,-119.46666666666667
496,6.4,-535.4666666666667,-115.2
497,6.4,-533.3333333333334,-117.33333333333333
498,2.1333333333333333,-535.4666666666667,-115.2
499,6.4,-526.9333333333333,-117.33333333333333
500,4.266666666666667,-531.2,-113.06666666666666
501,0.0,-533.3333333333334,-117.33333333333333
502,2.1333333333333333,-526.9333333333333,-117.33333333333333
503,2.1333333333333333,-535.4666666666667,-117.33333333333333
504,0.0,-533.3333333333334,-125.86666666666666
505,4.266666666666667,-539.7333333333333,-115.2
506,6.4,-541.8666666666667,-119.46666666666667
507,6.4,-539.7333333333333,-117.33333333333333
508,2.1333333333333333,-544.0,-121.6
509,4.266666666666667,-537.6,-115.2
510,8.533333333333333,-546.1333333333333,-119.46666666666667
511,8.533333333333333,-541.8666666666667,-110.93333333333334
512,0.0,-535.4666666666667,-117.33333333333333
513,6.4,-533.3333333333334,-119.46666666666667
514,6.4,-529.0666666666666,-123.73333333333333
515,0.0,-529.0666666666666,-113.06666666666666
516,6.4,-541.8666666666667,-123.73333333333333
517,8.533333333333333,-533.3333333333334,-117.33333333333333
518,12.8,-537.6,-117.33333333333333
519,6.4,-537.6,-113.06666666666666
520,8.533333333333333,-537.6,-102.4
521,8.533333333333333,-544.0,-121.6
522,6.4,-541.8666666666667,-121.6
523,8.533333333333333,-541.8666666666667,-108.8
524,4.266666666666667,-535.4666666666667,-123.73333333333333
525,4.266666666666667,-541.8666666666667,-117.33333333333333
526,4.266666666666667,-535.4666666666667,-117.33333333333333
527,2.1333333333333333,-537.6,-121.6
528,2.1333333333333333,-537.6,-119.46666666666667
529,8.533333333333333,-539.7333333333333,-115.2
530,6.4,-533.3333333333334,-119.46666666666667
531,0.0,-541.8666666666667,-117.33333333333333
532,4.266666666666667,-537.6,-119.46666666666667
533,4.266666666666667,-544.0,-115.2
534,6.4,-539.7333333333333,-123.73333333333333
535,2.1333333333333333,-533.3333333333334,-119.46666666666667
536,8.533333333333333,-537.6,-117.33333333333333
537,12.8,-537.6,-119.46666666666667
538,6.4,-541.8666666666667,-125.86666666666666
539,8.533333333333333,-533.3333333333334,-119.46666666666667
540,2.1333333333333333,-541.8666666666667,-115.2
541,4.266666666666667,-539.7333333333333,-121.6
542,6.4,-539.7333333333333,-119.46666666666667
543,2.1333333333333333,-535.4666666666667,-121.6
544,4.266666666666667,-541.8666666666667,-115.2
545,2.1333333333333333,-529.0666666666666,-121.6
546,4.266666666666667,-535.4666666666667,-121.6
547,4.266666666666667,-535.4666666666667,-117.33333333333333
548,6.4,-539.7333333333333,-117.33333333333333
549,10.666666666666666,-539.7333333333333,-121.6
550,-2.1333333333333333,-544.0,-115.2
551,4.266666666666667,-539.7333333333333,-117.33333333333333
552,4.266666666666667,-537.6,-121.6
553,8.533333333333333,-541.8666666666667,-121.6
554,2.1333333333333333,-541.8666666666667,-115.2
555,8.533333333333333,-533.3333333333334,-119.46666666666667
556,-2.1333333333333333,-535.4666666666667,-115.2
557,4.266666666666667,-533.3333333333334,-119.46666666666667
558,2.1333333333333333,-535.4666666666667,-113.06666666666666
559,4.266666666666667,-535.4666666666667,-121.6
560,6.4,-537.6,-113.06666666666666
561,8.533333333333333,-537.6,-119.46666666666667
562,4.266666666666667,-537.6,-123.73333333333333
563,8.533333333333333,-539.7333333333333,-123.73333333333333
564,12.8,-541.8666666666667,-121.6
565,2.1333333333333333,-531.2,-123.73333333333333
566,6.4,-533.3333333333334,-125.86666666666666
567,6.4,-537.6,-125.86666666666666
568,2.1333333333333333,-537.6,-117.33333333333333
569,12.8,-535.4666666666667,-119.46666666666667
570,6.4,-544.0,-119.46666666666667
571,2.1333333333333333,-537.6,-123.73333333333333
572,2.1333333333333333,-535.4666666666667,-119.46666666666667
573,8.533333333333333,-531.2,-123.73333333333333
574,8.533333333333333,-535.4666666666667,-119.46666666666667
575,10.666666666666666,-539.7333333333333,-125.86666666666666
576,4.266666666666667,-537.6,-125.86666666666666
577,10.666666666666666,-541.8666666666667,-121.6
578,4.266666666666667,-537.6,-117.33333333333333
579,10.666666666666666,-539.7333333333333,-123.73333333333333
580,0.0,-537.6,-123.73333333333333
581,8.533333333333333,-533.3333333333334,-119.46666666666667
582,8.533333333333333,-539.7333333333333,-119.46666666666667
583,6.4,-529.0666666666666,-117.33333333333333
584,6.4,-529.0666666666666,-123.73333333333333
585,8.533333333333333,-539.7333333333333,-117.33333333333333
586,6.4,-535.4666666666667,-115.2
587,2.1333333333333333,-535.4666666666667,-121.6
588,8.533333333333333,-535.4666666666667,-123.73333333333333
589,10.666666666666666,-537.6,-119.46666666666667
590,4.266666666666667,-533.3333333333334,-119.46666666666667
591,4.266666666666667,-539.7333333333333,-123.73333333333333
592,6.4,-537.6,-121.6
593,2.1333333333333333,-535.4666666666667,-125.86666666666666
594,8.533333333333333,-537.6,-123.73333333333333
595,2.1333333333333333,-535.4666666666667,-123.73333333333333
596,2.1333333333333333,-535.4666666666667,-125.86666666666666
597,4.266666666666667,-541.8666666666667,-119.46666666666667
598,6.4,-541.8666666666667,-117.33333333333333
599,8.533333333333333,-541.8666666666667,-117.33333333333333
600,4.266666666666667,-541.8666666666667,-121.6
601,6.4,-539.7333333333333,-119.46666666666667
602,8.533333333333333,-529.0666666666666,-115.2
603,2.1333333333333333,-537.6,-125.86666666666666
604,6.4,-533.3333333333334,-125.86666666666666
605,2.1333333333333333,-537.6,-119.46666666666667
606,6.4,-535.4666666666667,-125.86666666666666
607,10.666666666666666,-539.7333333333333,-128.0
608,2.1333333333333333,-533.3333333333334,-117.33333333333333
609,8.533333333333333,-539.7333333333333,-121.6
610,8.533333333333333,-533.3333333333334,-128.0
611,4.266666666666667,-537.6,-123.73333333333333
612,0.0,-533.3333333333334,-117.33333333333333
613,6.4,-539.7333333333333,-119.46666666666667
614,0.0,-537.6,-115.2
615,2.1333333333333333,-537.6,-130.13333333333333
616,8.533333333333333,-539.7333333333333,-121.6
617,6.4,-535.4666666666667,-121.6
618,8.533333333333333,-539.7333333333333,-121.6
619,2.1333333333333333,-531.2,-119.46666666666667
620,4.266666666666667,-531.2,-123.73333333333333
621,2.1333333333333333,-531.2,-128.0
622,6.4,-537.6,-119.46666666666667
623,0.0,-535.4666666666667,-125.86666666666666
624,2.1333333333333333,-537.6,-119.46666666666667
625,0.0,-537.6,-123.73333333333333
626,0.0,-535.4666666666667,-119.46666666666667
627,2.1333333333333333,-535.4666666666667,-115.2
628,6.4,-533.3333333333334,-123.73333333333333
629,8.533333333333333,-541.8666666666667,-117.33333333333333
630,6.4,-539.7333333333333,-128.0
631,8.533333333333333,-535.4666666666667,-123.73333333333333
632,8.533333333333333,-529.0666666666666,-121.6
633,6.4,-537.6,-128.0
634,4.266666666666667,-533.3333333333334,-123.73333333333333
635,8.533333333333333,-535.4666666666667,-119.46666666666667
636,0.0,-535.4666666666667,-136.53333333333333
637,4.266666666666667,-535.4666666666667,-119.46666666666667
638,4.266666666666667,-539.7333333333333,-123.73333333333333
639,-2.1333333333333333,-531.2,-119.46666666666667
640,2.1333333333333333,-537.6,-128.0
641,4.266666666666667,-541.8666666666667,-119.46666666666667
642,6.4,-539.7333333333333,-121.6
643,6.4,-539.7333333333333,-123.73333333333333
644,4.266666666666667,-531.2,-125.86666666666666
645,6.4,-535.4666666666667,-125.86666666666666
646,8.533333333333333,-537.6,-121.6
647,6.4,-533.3333333333334,-121.6
648,10.666666666666666,-533.3333333333334,-123.73333333333333
649,2.1333333333333333,-533.3333333333334,-128.0
650,10.666666666666666,-533.3333333333334,-123.73333333333333
651,8.533333333333333,-539.7333333333333,-121.6
652,8.533333333333333,-537.6,-125.86666666666666
653,6.4,-537.6,-121.6
654,2.1333333333333333,-539.7333333333333,-128.0
655,4.266666666666667,-529.0666666666666,-125.86666666666666
656,6.4,-539.7333333333333,-123.73333333333333
657,0.0,-537.6,-123.73333333333333
658,2.1333333333333333,-539.7333333333333,-128.0
659,4.266666666666667,-533.3333333333334,-130.13333333333333
660,2.1333333333333333,-531.2,-132.26666666666665
661,-2.1333333333333333,-535.4666666666667,-125.86666666666666
662,8.533333333333333,-533.3333333333334,-121.6
663,8.533333333333333,-533.3333333333334,-123.73333333333333
664,4.266666666666667,-531.2,-132.26666666666665
665,6.4,-529.0666666666666,-132.26666666666665
666,4.266666666666667,-529.0666666666666,-128.0
667,8.533333333333333,-535.4666666666667,-123.73333333333333
668,2.1333333333333333,-535.4666666666667,-130.13333333333333
669,8.533333333333333,-539.7333333333333,-123.73333333333333
670,6.4,-533.3333333333334,-128.0
671,4.266666666666667,-533.3333333333334,-128.0
672,4.266666666666667,-533.3333333333334,-134.4
673,4.266666666666667,-541.8666666666667,-128.0
674,8.533333333333333,-533.3333333333334,-123.73333333333333
675,6.4,-539.7333333333333,-134.4
676,6.4,-539.7333333333333,-130.13333333333333
677,4.266666666666667,-537.6,-134.4
678,4.266666666666667,-533.3333333333334,-128.0
679,10.666666666666666,-535.4666666666667,-125.86666666666666
680,2.1333333333333333,-533.3333333333334,-130.13333333333333
681,14.933333333333334,-529.0666666666666,-104.53333333333333
682,34.13333333333333,-533.3333333333334,-128.0
683,-6.4,-548.2666666666667,-121.6
684,4.266666666666667,-529.0666666666666,-128.0
685,8.533333333333333,-541.8666666666667,-181.33333333333334
686,4.266666666666667,-554.6666666666666,-115.2
687,10.666666666666666,-535.4666666666667,-128.0
688,10.666666666666666,-535.4666666666667,-153.6
689,-2.1333333333333333,-541.8666666666667,-151.46666666666667
690,12.8,-533.3333333333334,-119.46666666666667
691,2.1333333333333333,-537.6,-128.0
692,4.266666666666667,-533.3333333333334,-121.6
693,2.1333333333333333,-535.4666666666667,-125.86666666666666
694,-4.266666666666667,-535.4666666666667,-121.6
695,8.533333333333333,-541.8666666666667,-132.26666666666665
696,2.1333333333333333,-531.2,-130.13333333333333
697,8.533333333333333,-535.4666666666667,-125.86666666666666
698,8.533333333333333,-533.3333333333334,-125.86666666666666
699,4.266666666666667,-535.4666666666667,-132.26666666666665
700,6.4,-535.4666666666667,-130.13333333333333
701,6.4,-535.4666666666667,-134.4
702,4.266666666666667,-535.4666666666667,-128.0
703,4.266666666666667,-541.8666666666667,-123.73333333333333
704,4.266666666666667,-533.3333333333334,-132.26666666666665
705,4.266666666666667,-533.3333333333334,-132.26666666666665
706,6.4,-539.7333333333333,-125.86666666666666
707,6.4,-533.3333333333334,-134.4
708,6.4,-531.2,-125.86666666666666
709,4.266666666666667,-533.3333333333334,-132.26666666666665
710,6.4,-533.3333333333334,-134.4
711,8.533333333333333,-544.0,-128.0
712,10.666666666666666,-533.3333333333334,-130.13333333333333
713,4.266666666666667,-533.3333333333334,-128.0
714,4.266666666666667,-531.2,-136.53333333333333
715,2.1333333333333333,-526.9333333333333,-128.0
716,6.4,-533.3333333333334,-130.13333333333333
717,8.533333333333333,-537.6,-121.6
718,12.8,-535.4666666666667,-136.53333333333333
719,8.533333333333333,-526.9333333333333,-138.66666666666666
720,4.266666666666667,-526.9333333333333,-132.26666666666665
721,8.533333333333333,-541.8666666666667,-125.86666666666666
722,6.4,-535.4666666666667,-134.4
723,10.666666666666666,-529.0666666666666,-134.4
724,6.4,-531.2,-128.0
725,4.266666666666667,-533.3333333333334,-132.26666666666665
726,8.533333333333333,-544.0,-125.86666666666666
727,8.533333333333333,-535.4666666666667,-130.13333333333333
728,12.8,-535.4666666666667,-130.13333333333333
729,4.266666666666667,-535.4666666666667,-132.26666666666665
730,2.1333333333333333,-533.3333333333334,-128.0
731,10.666666666666666,-533.3333333333334,-125.86666666666666
732,4.266666666666667,-533.3333333333334,-130.13333333333333
733,10.666666666666666,-535.4666666666667,-125.86666666666666
734,0.0,-531.2,-136.53333333333333
735,6.4,-533.3333333333334,-147.2
736,2.1333333333333333,-533.3333333333334,-128.0
737,2.1333333333333333,-535.4666666666667,-136.53333333333333
738,6.4,-533.3333333333334,-136.53333333333333
739,2.1333333333333333,-537.6,-142.93333333333334
740,2.1333333333333333,-533.3333333333334,-130.13333333333333
741,6.4,-533.3333333333334,-136.53333333333333
742,2.1333333333333333,-537.6,-130.13333333333333
743,0.0,-533.3333333333334,-125.86666666666666
744,2.1333333333333333,-537.6,-136.53333333333333
745,8.533333333333333,-535.4666666666667,-132.26666666666665
746,0.0,-535.4666666666667,-132.26666666666665
747,4.266666666666667,-533.3333333333334,-132.26666666666665
748,2.1333333333333333,-531.2,-123.73333333333333
749,4.266666666666667,-533.3333333333334,-138.66666666666666
750,10.666666666666666,-535.4666666666667,-142.93333333333334
751,6.4,-531.2,-130.13333333333333
752,8.533333333333333,-535.4666666666667,-132.26666666666665
753,6.4,-529.0666666666666,-128.0
754,10.666666666666666,-533.3333333333334,-134.4
755,8.533333333333333,-529.0666666666666,-125.86666666666666
756,4.266666666666667,-541.8666666666667,-130.13333333333333
757,2.1333333333333333,-531.2,-130.13333333333333
758,8.533333333333333,-529.0666666666666,-128.0
759,-4.266666666666667,-535.4666666666667,-134.4
760,4.266666666666667,-533.3333333333334,-136.53333333333333
761,0.0,-535.4666666666667,-128.0
762,2.1333333333333333,-535.4666666666667,-136.53333333333333
763,4.266666666666667,-537.6,-130.13333333333333
764,8.533333333333333,-531.2,-125.86666666666666
765,10.666666666666666,-539.7333333333333,-136.53333333333333
766,8.533333333333333,-535.4666666666667,-132.26666666666665
767,6.4,-533.3333333333334,-125.86666666666666
768,6.4,-537.6,-128.0
769,8.533333333333333,-539.7333333333333,-134.4
770,4.266666666666667,-539.7333333333333,-134.4
771,10.666666666666666,-537.6,-136.53333333333333
772,6.4,-537.6,-128.0
773,6.4,-539.7333333333333,-130.13333333333333
774,6.4,-539.7333333333333,-130.13333333333333
775,6.4,-535.4666666666667,-134.4
776,4.266666666666667,-533.3333333333334,-132.26666666666665
777,2.1333333333333333,-531.2,-140.8
778,2.1333333333333333,-537.6,-136.53333333333333
779,4.266666666666667,-531.2,-128.0
780,6.4,-537.6,-125.86666666666666
781,4.266666666666667,-539.7333333333333,-130.13333333333333
782,2.1333333333333333,-533.3333333333334,-130.13333333333333
783,0.0,-537.6,-128.0
784,0.0,-535.4666666666667,-134.4
785,4.266666666666667,-531.2,-134.4
786,6.4,-533.3333333333334,-121.6
787,6.4,-531.2,-134.4
788,4.266666666666667,-535.4666666666667,-136.53333333333333
789,4.266666666666667,-531.2,-128.0
790,4.266666666666667,-535.4666666666667,-138.66666666666666
791,4.266666666666667,-524.8,-128.0
792,2.1333333333333333,-531.2,-128.0
793,10.666666666666666,-535.4666666666667,-132.26666666666665
794,4.266666666666667,-537.6,-128.0
795,10.666666666666666,-526.9333333333333,-134.4
796,0.0,-535.4666666666667,-130.13333333333333
797,6.4,-539.7333333333333,-125.86666666666666
798,4.266666666666667,-539.7333333333333,-130.13333333333333
799,6.4,-537.6,-134.4
800,8.533333333333333,-541.8666666666667,-125.86666666666666
801,2.1333333333333333,-533.3333333333334,-132.26666666666665
802,0.0,-531.2,-128.0
803,8.533333333333333,-533.3333333333334,-132.26666666666665
804,2.1333333333333333,-531.2,-136.53333333333333
805,6.4,-533.3333333333334,-134.4
806,4.266666666666667,-531.2,-128.0
807,2.1333333333333333,-535.4666666666667,-125.86666666666666
808,4.266666666666667,-537.6,-130.13333333333333
809,6.4,-535.4666666666667,-125.86666666666666
810,2.1333333333333333,-537.6,-130.13333333333333
811,4.266666666666667,-539.7333333333333,-125.86666666666666
812,2.1333333333333333,-531.2,-132.26666666666665
813,2.1333333333333333,-539.7333333333333,-123.73333333333333
814,10.666666666666666,-531.2,-123.73333333333333
815,4.266666666666667,-535.4666666666667,-123.73333333333333
816,4.266666666666667,-537.6,-128.0
817,4.266666666666667,-539.7333333333333,-125.86666666666666
818,4.266666666666667,-539.7333333333333,-128.0
819,2.1333333333333333,-535.4666666666667,-125.86666666666666
820,6.4,-539.7333333333333,-128.0
821,6.4,-535.4666666666667,-123.73333333333333
822,6.4,-535.4666666666667,-125.86666666666666
823,-2.1333333333333333,-533.3333333333334,-121.6
824,4.266666666666667,-533.3333333333334,-123.73333333333333
825,2.1333333333333333,-537.6,-119.46666666666667
826,12.8,-535.4666666666667,-123.73333333333333
827,6.4,-535.4666666666667,-128.0
828,8.533333333333333,-535.4666666666667,-125.86666666666666
829,4.266666666666667,-531.2,-128.0
830,12.8,-535.4666666666667,-123.73333333333333
831,6.4,-531.2,-128.0
832,4.266666666666667,-535.4666666666667,-130.13333333333333
833,4.266666666666667,-535.4666666666667,-136.53333333333333
834,10.666666666666666,-537.6,-132.26666666666665
835,6.4,-539.7333333333333,-128.0
836,2.1333333333333333,-533.3333333333334,-125.86666666666666
837,0.0,-533.3333333333334,-121.6
838,0.0,-535.4666666666667,-123.73333333333333
839,2.1333333333333333,-535.4666666666667,-123.73333333333333
840,4.266666666666667,-537.6,-128.0
841,4.266666666666667,-541.8666666666667,-121.6
842,0.0,-535.4666666666667,-121.6
843,4.266666666666667,-524.8,-125.86666666666666
844,6.4,-537.6,-130.13333333333333
845,8.533333333333333,-533.3333333333334,-123.73333333333333
846,6.4,-533.3333333333334,-125.86666666666666
847,6.4,-531.2,-128.0
848,0.0,-533.3333333333334,-125.86666666666666
849,4.266666666666667,-529.0666666666666,-125.86666666666666
850,4.266666666666667,-533.3333333333334,-128.0
851,12.8,-535.4666666666667,-123.73333333333333
852,8.533333333333333,-539.7333333333333,-125.86666666666666
853,0.0,-537.6,-134.4
854,4.266666666666667,-533.3333333333334,-123.73333333333333
855,-2.1333333333333333,-539.7333333333333,-123.73333333333333
856,2.1333333333333333,-531.2,-123.73333333333333
857,0.0,-537.6,-128.0
858,4.266666666666667,-539.7333333333333,-130.13333333333333
859,2.1333333333333333,-535.4666666666667,-119.46666666666667
860,4.266666666666667,-537.6,-125.86666666666666
861,4.266666666666667,-531.2,-123.73333333333333
862,10.666666666666666,-537.6,-134.4
863,4.266666666666667,-537.6,-121.6
864,0.0,-535.4666666666667,-130.13333333333333
865,0.0,-537.6,-128.0
866,6.4,-537.6,-121.6
867,2.1333333333333333,-535.4666666666667,-130.13333333333333
868,12.8,-533.3333333333334,-125.86666666666666
869,2.1333333333333333,-533.3333333333334,-130.13333333333333
870,2.1333333333333333,-533.3333333333334,-134.4
871,6.4,-537.6,-128.0
872,4.266666666666667,-533.3333333333334,-119.46666666666667
873,6.4,-541.8666666666667,-134.4
874,4.266666666666667,-537.6,-125.86666666666666
875,-4.266666666666667,-531.2,-121.6
876,0.0,-531.2,-123.73333333333333
877,4.266666666666667,-539.7333333333333,-136.53333333333333
878,4.266666666666667,-537.6,-132.26666666666665
879,2.1333333333333333,-539.7333333333333,-123.73333333333333
880,4.266666666666667,-535.4666666666667,-119.46666666666667
881,2.1333333333333333,-541.8666666666667,-121.6
882,-4.266666666666667,-537.6,-134.4
883,2.1333333333333333,-535.4666666666667,-119.46666666666667
884,4.266666666666667,-535.4666666666667,-123.73333333333333
885,4.266666666666667,-537.6,-128.0
886,4.266666666666667,-535.4666666666667,-130.13333333333333
887,2.1333333333333333,-533.3333333333334,-123.73333333333333
888,0.0,-537.6,-123.73333333333333
889,2.1333333333333333,-533.3333333333334,-128.0
890,2.1333333333333333,-537.6,-130.13333333333333
891,4.266666666666667,-537.6,-121.6
892,0.0,-535.4666666666667,-121.6
893,2.1333333333333333,-531.2,-125.86666666666666
894,0.0,-535.4666666666667,-123.73333333333333
895,6.4,-537.6,-123.73333333333333
896,0.0,-529.0666666666666,-121.6
897,6.4,-537.6,-125.86666666666666
898,-2.1333333333333333,-539.7333333333333,-123.73333333333333
899,2.1333333333333333,-539.7333333333333,-125.86666666666666
900,-6.4,-539.7333333333333,-123.73333333333333
901,2.1333333333333333,-537.6,-130.13333333333333
902,6.4,-535.4666666666667,-121.6
903,-2.1333333333333333,-533.3333333333334,-121.6
904,0.0,-535.4666666666667,-123.73333333333333
905,4.266666666666667,-535.4666666666667,-128.0
906,0.0,-531.2,-119.46666666666667
907,2.1333333333333333,-535.4666666666667,-130.13333333333333
908,2.1333333333333333,-531.2,-121.6
909,6.4,-537.6,-130.13333333333333
910,4.266666666666667,-539.7333333333333,-121.6
911,4.266666666666667,-537.6,-130.13333333333333
912,8.533333333333333,-539.7333333333333,-121.6
913,2.1333333333333333,-533.3333333333334,-123.73333333333333
914,0.0,-539.7333333333333,-130.13333333333333
915,0.0,-537.6,-123.73333333333333
916,10.666666666666666,-541.8666666666667,-123.73333333333333
917,2.1333333333333333,-541.8666666666667,-117.33333333333333
918,6.4,-539.7333333333333,-123.73333333333333
919,2.1333333333333333,-537.6,-128.0
920,-4.266666666666667,-531.2,-130.13333333333333
921,4.266666666666667,-535.4666666666667,-123.73333333333333
922,6.4,-533.3333333333334,-123.73333333333333
923,4.266666666666667,-541.8666666666667,-121.6
924,6.4,-537.6,-121.6
925,4.266666666666667,-539.7333333333333,-128.0
926,10.666666666666666,-537.6,-123.73333333333333
927,-2.1333333333333333,-539.7333333333333,-123.73333333333333
928,-2.1333333333333333,-531.2,-121.6
929,0.0,-533.3333333333334,-121.6
930,6.4,-537.6,-123.73333333333333
931,4.266666666666667,-541.8666666666667,-123.73333333333333
932,2.1333333333333333,-539.7333333333333,-132.26666666666665
933,0.0,-537.6,-123.73333333333333
934,0.0,-537.6,-128.0
935,4.266666666666667,-535.4666666666667,-119.46666666666667
936,4.266666666666667,-533.3333333333334,-125.86666666666666
937,2.1333333333333333,-531.2,-125.86666666666666
938,-2.1333333333333333,-533.3333333333334,-128.0
939,6.4,-531.2,-123.73333333333333
940,10.666666666666666,-541.8666666666667,-121.6
941,2.1333333333333333,-533.3333333333334,-123.73333333333333
942,6.4,-537.6,-121.6
943,2.1333333333333333,-535.4666666666667,-117.33333333333333
944,0.0,-537.6,-121.6
945,4.266666666666667,-541.8666666666667,-123.73333333333333
946,-2.1333333333333333,-535.4666666666667,-121.6
947,2.1333333333333333,-535.4666666666667,-121.6
948,2.1333333333333333,-537.6,-125.86666666666666
949,4.266666666666667,-539.7333333333333,-121.6
950,8.533333333333333,-546.1333333333333,-125.86666666666666
951,10.666666666666666,-537.6,-123.73333333333333
952,0.0,-533.3333333333334,-121.6
953,2.1333333333333333,-535.4666666666667,-130.13333333333333
954,-2.1333333333333333,-535.4666666666667,-119.46666666666667
955,-2.1333333333333333,-533.3333333333334,-119.46666666666667
956,0.0,-531.2,-119.46666666666667
957,6.4,-541.8666666666667,-119.46666666666667
958,4.266666666666667,-535.4666666666667,-123.73333333333333
959,8.533333333333333,-535.4666666666667,-128.0
960,-2.1333333333333333,-537.6,-121.6
961,0.0,-537.6,-119.46666666666667
962,2.1333333333333333,-529.0666666666666,-123.73333333333333
963,2.1333333333333333,-535.4666666666667,-119.46666666666667
964,4.266666666666667,-535.4666666666667,-123.73333333333333
965,2.1333333333333333,-537.6,-119.46666666666667
966,4.266666666666667,-539.7333333333333,-125.86666666666666
967,8.533333333333333,-539.7333333333333,-115.2
968,2.1333333333333333,-531.2,-117.33333333333333
969,6.4,-535.4666666666667,-117.33333333333333
970,6.4,-539.7333333333333,-110.93333333333334
971,0.0,-537.6,-117.33333333333333
972,2.1333333333333333,-535.4666666666667,-110.93333333333334
973,6.4,-539.7333333333333,-117.33333333333333
974,4.266666666666667,-531.2,-115.2
975,2.1333333333333333,-535.4666666666667,-119.46666666666667
976,8.533333333333333,-537.6,-117.33333333333333
977,2.1333333333333333,-531.2,-123.73333333333333
978,4.266666666666667,-529.0666666666666,-119.46666666666667
979,6.4,-524.8,-121.6
980,6.4,-524.8,-113.06666666666666
981,6.4,-531.2,-110.93333333333334
982,-2.1333333333333333,-524.8,-113.06666666666666
983,2.1333333333333333,-531.2,-115.2
984,-6.4,-533.3333333333334,-119.46666666666667
985,0.0,-531.2,-115.2
986,4.266666666666667,-537.6,-115.2
987,-2.1333333333333333,-537.6,-117.33333333333333
988,-4.266666666666667,-539.7333333333333,-117.33333333333333
989,4.266666666666667,-541.8666666666667,-115.2
990,0.0,-541.8666666666667,-108.8
991,6.4,-548.2666666666667,-123.73333333333333
992,6.4,-548.2666666666667,-110.93333333333334
993,-6.4,-548.2666666666667,-117.33333333333333
994,6.4,-550.4,-115.2
995,0.0,-548.2666666666667,-117.33333333333333
996,2.1333333333333333,-544.0,-113.06666666666666
997,-6.4,-554.6666666666666,-113.06666666666666
998,8.533333333333333,-552.5333333333333,-119.46666666666667
999,2.1333333333333333,-552.5333333333333,-121.6
1000,0.0,-544.0,-121.6
1001,-6.4,-541.8666666666667,-113.06666666666666
1002,0.0,-544.0,-115.2
1003,4.266666666666667,-544.0,-115.2
1004,2.1333333333333333,-541.8666666666667,-117.33333333333333
1005,10.666666666666666,-544.0,-106.66666666666667
1006,2.1333333333333333,-541.8666666666667,-115.2
1007,6.4,-533.3333333333334,-115.2
1008,0.0,-529.0666666666666,-117.33333333333333
1009,6.4,-533.3333333333334,-117.33333333333333
1010,2.1333333333333333,-533.3333333333334,-117.33333333333333
1011,6.4,-531.2,-110.93333333333334
1012,6.4,-529.0666666666666,-106.66666666666667
1013,8.533333333333333,-533.3333333333334,-117.33333333333333
1014,6.4,-535.4666666666667,-115.2
1015,0.0,-526.9333333333333,-117.33333333333333
1016,2.1333333333333333,-526.9333333333333,-117.33333333333333
1017,2.1333333333333333,-535.4666666666667,-117.33333333333333
1018,2.1333333333333333,-537.6,-110.93333333333334
1019,6.4,-537.6,-113.06666666666666
1020,0.0,-533.3333333333334,-113.06666666666666
1021,0.0,-535.4666666666667,-108.8
1022,8.533333333333333,-537.6,-104.53333333333333
1023,2.1333333333333333,-535.4666666666667,-113.06666666666666
1024,2.1333333333333333,-541.8666666666667,-110.93333333333334
1025,4.266666666666667,-539.7333333333333,-113.06666666666666
1026,4.266666666666667,-537.6,-108.8
1027,0.0,-531.2,-115.2
1028,2.1333333333333333,-541.8666666666667,-110.93333333333334
1029,-2.1333333333333333,-531.2,-115.2
1030,-4.266666666666667,-531.2,-106.66666666666667
1031,4.266666666666667,-537.6,-110.93333333333334
1032,-2.1333333333333333,-529.0666666666666,-117.33333333333333
1033,-2.1333333333333333,-531.2,-106.66666666666667
1034,0.0,-537.6,-108.8
1035,6.4,-539.7333333333333,-108.8
1036,0.0,-539.7333333333333,-115.2
1037,0.0,-539.7333333333333,-106.66666666666667
1038,6.4,-541.8666666666667,-106.66666666666667
1039,8.533333333333333,-548.2666666666667,-117.33333333333333
1040,4.266666666666667,-537.6,-110.93333333333334
1041,12.8,-541.8666666666667,-117.33333333333333
1042,8.533333333333333,-539.7333333333333,-108.8
1043,4.266666666666667,-546.1333333333333,-113.06666666666666
1044,12.8,-546.1333333333333,-113.06666666666666
1045,10.666666666666666,-546.1333333333333,-110.93333333333334
1046,14.933333333333334,-546.1333333333333,-110.93333333333334
1047,10.666666666666666,-548.2666666666667,-106.66666666666667
1048,12.8,-546.1333333333333,-117.33333333333333
1049,6.4,-537.6,-108.8
1050,12.8,-546.1333333333333,-104.53333333333333
1051,6.4,-539.7333333333333,-104.53333333333333
1052,12.8,-535.4666666666667,-108.8
1053,6.4,-537.6,-102.4
1054,8.533333333333333,-531.2,-113.06666666666666
1055,12.8,-539.7333333333333,-108.8
1056,6.4,-533.3333333333334,-108.8
1057,6.4,-533.3333333333334,-98.13333333333333
1058,8.533333333333333,-531.2,-104.53333333333333
1059,14.933333333333334,-533.3333333333334,-108.8
1060,8.533333333333333,-533.3333333333334,-115.2
1061,6.4,-531.2,-104.53333333333333
1062,12.8,-531.2,-113.06666666666666
1063,10.666666666666666,-529.0666666666666,-104.53333333333333
1064,6.4,-533.3333333333334,-108.8
1065,6.4,-533.3333333333334,-106.66666666666667
1066,4.266666666666667,-531.2,-108.8
1067,-4.266666666666667,-537.6,-110.93333333333334
1068,-4.266666666666667,-535.4666666666667,-113.06666666666666
1069,2.1333333333333333,-544.0,-108.8
1070,-2.1333333333333333,-535.4666666666667,-110.93333333333334
1071,0.0,-548.2666666666667,-106.66666666666667
1072,8.533333333333333,-537.6,-106.66666666666667
1073,6.4,-546.1333333333333,-104.53333333333333
1074,2.1333333333333333,-546.1333333333333,-110.93333333333334
1075,0.0,-546.1333333333333,-96.0
1076,4.266666666666667,-541.8666666666667,-113.06666666666666
1077,-6.4,-544.0,-119.46666666666667
1078,-19.2,-526.9333333333333,-123.73333333333333
1079,-12.8,-537.6,-70.4
1080,-4.266666666666667,-539.7333333333333,-110.93333333333334
1081,-14.933333333333334,-537.6,-140.8
1082,-2.1333333333333333,-546.1333333333333,-100.26666666666667
1083,-19.2,-535.4666666666667,-100.26666666666667
1084,0.0,-541.8666666666667,-108.8
1085,-4.266666666666667,-563.2,-81.06666666666666
1086,-6.4,-539.7333333333333,-102.4
1087,-19.2,-539.7333333333333,-104.53333333333333
1088,-19.2,-518.4,-110.93333333333334
1089,-8.533333333333333,-539.7333333333333,-104.53333333333333
1090,-17.066666666666666,-558.9333333333333,-87.46666666666667
1091,-19.2,-524.8,-121.6
1092,38.4,-535.4666666666667,-132.26666666666665
1093,-8.533333333333333,-550.4,-100.26666666666667
1094,6.4,-539.7333333333333,-104.53333333333333
1095,8.533333333333333,-539.7333333333333,-119.46666666666667
1096,-17.066666666666666,-548.2666666666667,-115.2
1097,4.266666666666667,-535.4666666666667,-115.2
1098,0.0,-537.6,-119.46666666666667
1099,8.533333333333333,-533.3333333333334,-123.73333333333333
1100,10.666666666666666,-533.3333333333334,-121.6
1101,23.466666666666665,-526.9333333333333,-119.46666666666667
1102,44.8,-514.1333333333333,-125.86666666666666
1103,21.333333333333332,-526.9333333333333,-104.53333333333333
1104,2.1333333333333333,-516.2666666666667,-115.2
1105,23.466666666666665,-509.8666666666667,-117.33333333333333
1106,19.2,-522.6666666666666,-102.4
1107,4.266666666666667,-503.46666666666664,-115.2
1108,10.666666666666666,-480.0,-117.33333333333333
1109,-12.8,-505.59999999999997,-117.33333333333333
1110,32.0,-509.8666666666667,-119.46666666666667
1111,19.2,-514.1333333333333,-121.6
1112,8.533333333333333,-512.0,-142.93333333333334
1113,8.533333333333333,-514.1333333333333,-136.53333333333333
1114,-2.1333333333333333,-499.2,-119.46666666666667
1115,12.8,-518.4,-140.8
1116,4.266666666666667,-514.1333333333333,-149.33333333333334
1117,2.1333333333333333,-522.6666666666666,-117.33333333333333
1118,-10.666666666666666,-477.8666666666667,-142.93333333333334
1119,-4.266666666666667,-497.06666666666666,-145.06666666666666
1120,-19.2,-503.46666666666664,-151.46666666666667
1121,-14.933333333333334,-507.73333333333335,-162.13333333333333
1122,-17.066666666666666,-499.2,-151.46666666666667
1123,-8.533333333333333,-484.26666666666665,-151.46666666666667
1124,-17.066666666666666,-499.2,-164.26666666666665
1125,0.0,-480.0,-172.8
1126,-14.933333333333334,-492.8,-147.2
1127,-14.933333333333334,-490.6666666666667,-140.8
1128,-4.266666666666667,-486.4,-147.2
1129,-19.2,-473.59999999999997,-162.13333333333333
1130,-14.933333333333334,-473.59999999999997,-157.86666666666667
1131,-12.8,-467.2,-162.13333333333333
1132,-21.333333333333332,-462.93333333333334,-172.8
1133,-21.333333333333332,-435.2,-211.2
1134,2.1333333333333333,-471.46666666666664,-151.46666666666667
1135,-17.066666666666666,-428.8,-179.2
1136,6.4,-454.4,-140.8
1137,-6.4,-445.8666666666667,-117.33333333333333
1138,-12.8,-424.5333333333333,-177.06666666666666
1139,-14.933333333333334,-413.8666666666667,-204.8
1140,-10.666666666666666,-426.6666666666667,-185.6
1141,-8.533333333333333,-420.26666666666665,-196.26666666666665
1142,6.4,-401.06666666666666,-211.2
1143,-12.8,-394.6666666666667,-202.66666666666666
1144,-6.4,-411.73333333333335,-185.6
1145,-6.4,-409.6,-151.46666666666667
1146,-8.533333333333333,-433.06666666666666,-166.4
1147,4.266666666666667,-403.2,-177.06666666666666
1148,4.266666666666667,-388.26666666666665,-181.33333333333334
1149,0.0,-422.4,-166.4
1150,2.1333333333333333,-428.8,-164.26666666666665
1151,6.4,-430.93333333333334,-172.8
1152,12.8,-424.5333333333333,-172.8
1153,6.4,-430.93333333333334,-179.2
1154,36.266666666666666,-467.2,-168.53333333333333
1155,17.066666666666666,-452.26666666666665,-151.46666666666667
1156,32.0,-439.46666666666664,-194.13333333333333
1157,51.2,-426.6666666666667,-200.53333333333333
1158,78.93333333333334,-428.8,-202.66666666666666
1159,83.2,-422.4,-177.06666666666666
1160,89.6,-428.8,-189.86666666666667
1161,108.8,-416.0,-194.13333333333333
1162,110.93333333333334,-398.93333333333334,-194.13333333333333
1163,117.33333333333333,-386.1333333333333,-183.46666666666667
1164,130.13333333333333,-377.6,-187.73333333333332
1165,130.13333333333333,-384.0,-149.33333333333334
1166,125.86666666666666,-362.6666666666667,-157.86666666666667
1167,132.26666666666665,-362.6666666666667,-164.26666666666665
1168,145.06666666666666,-337.06666666666666,-138.66666666666666
1169,104.53333333333333,-343.46666666666664,-168.53333333333333
1170,83.2,-317.8666666666667,-185.6
1171,83.2,-302.93333333333334,-198.4
1172,51.2,-337.06666666666666,-183.46666666666667
1173,32.0,-326.4,-211.2
1174,-10.666666666666666,-345.6,-187.73333333333332
1175,-34.13333333333333,-392.5333333333333,-162.13333333333333
1176,-76.8,-405.3333333333333,-136.53333333333333
1177,-76.8,-398.93333333333334,-149.33333333333334
1178,-87.46666666666667,-411.73333333333335,-142.93333333333334
1179,-102.4,-413.8666666666667,-130.13333333333333
1180,-102.4,-420.26666666666665,-134.4
1181,-104.53333333333333,-426.6666666666667,-162.13333333333333
1182,-74.66666666666667,-428.8,-177.06666666666666
1183,-104.53333333333333,-439.46666666666664,-196.26666666666665
1184,-93.86666666666666,-428.8,-200.53333333333333
1185,-98.13333333333333,-458.6666666666667,-206.93333333333334
1186,-115.2,-458.6666666666667,-192.0
1187,-93.86666666666666,-477.8666666666667,-206.93333333333334
1188,-142.93333333333334,-494.93333333333334,-177.06666666666666
1189,-106.66666666666667,-465.06666666666666,-198.4
1190,-93.86666666666666,-512.0,-174.93333333333334
1191,-76.8,-490.6666666666667,-196.26666666666665
1192,-78.93333333333334,-507.73333333333335,-183.46666666666667
1193,-83.2,-503.46666666666664,-179.2
1194,-70.4,-480.0,-204.8
1195,-66.13333333333333,-473.59999999999997,-219.73333333333332
1196,-61.86666666666667,-469.3333333333333,-221.86666666666667
1197,-53.333333333333336,-469.3333333333333,-215.46666666666667
1198,-55.46666666666667,-469.3333333333333,-215.46666666666667
1199,-59.733333333333334,-462.93333333333334,-224.0
1200,-78.93333333333334,-462.93333333333334,-219.73333333333332
1201,-53.333333333333336,-467.2,-224.0
1202,-70.4,-492.8,-217.6
1203,-49.06666666666666,-490.6666666666667,-211.2
1204,-76.8,-497.06666666666666,-213.33333333333334
1205,-70.4,-501.3333333333333,-224.0
1206,-49.06666666666666,-486.4,-219.73333333333332
1207,-72.53333333333333,-473.59999999999997,-253.86666666666667
1208,-57.6,-437.3333333333333,-307.2
1209,-89.6,-450.1333333333333,-270.93333333333334
1210,-59.733333333333334,-443.73333333333335,-285.8666666666667
1211,-72.53333333333333,-460.8,-262.4
1212,-68.26666666666667,-409.6,-273.06666666666666
1213,-78.93333333333334,-396.8,-296.5333333333333
1214,-46.93333333333333,-384.0,-283.73333333333335
1215,-44.8,-369.06666666666666,-296.5333333333333
1216,-64.0,-364.8,-309.3333333333333
1217,-40.53333333333333,-347.73333333333335,-326.4
1218,-21.333333333333332,-356.26666666666665,-294.4
1219,-19.2,-388.26666666666665,-281.6
1220,8.533333333333333,-409.6,-290.1333333333333
1221,12.8,-405.3333333333333,-279.46666666666664
1222,19.2,-428.8,-290.1333333333333
1223,27.733333333333334,-475.73333333333335,-305.06666666666666
1224,25.6,-526.9333333333333,-262.4
1225,34.13333333333333,-546.1333333333333,-315.73333333333335
1226,44.8,-610.1333333333333,-249.6
1227,23.466666666666665,-605.8666666666667,-251.73333333333332
1228,40.53333333333333,-614.4,-213.33333333333334
1229,8.533333333333333,-625.0666666666666,-228.26666666666665
1230,-8.533333333333333,-614.4,-211.2
1231,-25.6,-597.3333333333334,-196.26666666666665
1232,-32.0,-571.7333333333333,-185.6
1233,-59.733333333333334,-569.6,-185.6
1234,-44.8,-539.7333333333333,-179.2
1235,-72.53333333333333,-561.0666666666666,-166.4
1236,-70.4,-567.4666666666667,-151.46666666666667
1237,-57.6,-561.0666666666666,-155.73333333333332
1238,-59.733333333333334,-571.7333333333333,-142.93333333333334
1239,-72.53333333333333,-582.4,-147.2
1240,-78.93333333333334,-573.8666666666667,-142.93333333333334
1241,-102.4,-588.8,-117.33333333333333
1242,-81.06666666666666,-571.7333333333333,-119.46666666666667
1243,-119.46666666666667,-565.3333333333334,-140.8
1244,-134.4,-576.0,-132.26666666666665
1245,-136.53333333333333,-573.8666666666667,-123.73333333333333
1246,-138.66666666666666,-565.3333333333334,-149.33333333333334
1247,-168.53333333333333,-552.5333333333333,-121.6
1248,-181.33333333333334,-539.7333333333333,-155.73333333333332
1249,-215.46666666666667,-529.0666666666666,-162.13333333333333
1250,-204.8,-537.6,-168.53333333333333
1251,-189.86666666666667,-503.46666666666664,-166.4
1252,-241.06666666666666,-509.8666666666667,-164.26666666666665
1253,-200.53333333333333,-462.93333333333334,-196.26666666666665
1254,-198.4,-443.73333333333335,-181.33333333333334
1255,-181.33333333333334,-411.73333333333335,-206.93333333333334
1256,-170.66666666666666,-420.26666666666665,-181.33333333333334
1257,-172.8,-405.3333333333333,-187.73333333333332
1258,-132.26666666666665,-394.6666666666667,-194.13333333333333
1259,-106.66666666666667,-386.1333333333333,-181.33333333333334
1260,-89.6,-386.1333333333333,-183.46666666666667
1261,-49.06666666666666,-381.8666666666667,-181.33333333333334
1262,-44.8,-371.2,-185.6
1263,-25.6,-354.1333333333333,-194.13333333333333
1264,-21.333333333333332,-345.6,-194.13333333333333
1265,-17.066666666666666,-349.8666666666667,-185.6
1266,-25.6,-330.6666666666667,-181.33333333333334
1267,-25.6,-360.5333333333333,-172.8
1268,-32.0,-362.6666666666667,-160.0
1269,-53.333333333333336,-354.1333333333333,-153.6
1270,-76.8,-341.3333333333333,-153.6
1271,-87.46666666666667,-334.93333333333334,-177.06666666666666
1272,-89.6,-337.06666666666666,-198.4
1273,-96.0,-322.1333333333333,-209.06666666666666
1274,-91.73333333333333,-317.8666666666667,-213.33333333333334
1275,-85.33333333333333,-317.8666666666667,-204.8
1276,-74.66666666666667,-332.8,-192.0
1277,-53.333333333333336,-341.3333333333333,-183.46666666666667
1278,-34.13333333333333,-328.5333333333333,-174.93333333333334
1279,-10.666666666666666,-315.73333333333335,-168.53333333333333
1280,6.4,-311.46666666666664,-145.06666666666666
1281,25.6,-300.8,-132.26666666666665
1282,46.93333333333333,-294.4,-113.06666666666666
1283,53.333333333333336,-273.06666666666666,-113.06666666666666
1284,72.53333333333333,-251.73333333333332,-96.0
1285,89.6,-230.4,-81.06666666666666
1286,100.26666666666667,-202.66666666666666,-70.4
1287,113.06666666666666,-187.73333333333332,-53.333333333333336
1288,115.2,-170.66666666666666,-42.666666666666664
1289,100.26666666666667,-170.66666666666666,-29.866666666666667
1290,81.06666666666666,-189.86666666666667,-2.1333333333333333
1291,87.46666666666667,-151.46666666666667,-4.266666666666667
1292,66.13333333333333,-140.8,4.266666666666667
1293,40.53333333333333,-134.4,14.933333333333334
1294,44.8,-119.46666666666667,17.066666666666666
1295,36.266666666666666,-110.93333333333334,25.6
1296,19.2,-110.93333333333334,2.1333333333333333
1297,0.0,-130.13333333333333,-10.666666666666666
1298,-32.0,-147.2,-40.53333333333333
1299,-53.333333333333336,-183.46666666666667,-44.8
1300,-91.73333333333333,-245.33333333333334,-6.4
1301,-168.53333333333333,-307.2,19.2
1302,-226.13333333333333,-371.2,78.93333333333334
1303,-296.5333333333333,-405.3333333333333,125.86666666666666
1304,-315.73333333333335,-418.1333333333333,151.46666666666667
1305,-294.4,-418.1333333333333,177.06666666666666
1306,-273.06666666666666,-443.73333333333335,202.66666666666666
1307,-241.06666666666666,-492.8,215.46666666666667
1308,-234.66666666666666,-554.6666666666666,224.0
1309,-277.3333333333333,-657.0666666666666,224.0
1310,-283.73333333333335,-765.8666666666667,358.4
1311,-375.46666666666664,-866.1333333333333,416.0
1312,-435.2,-1064.5333333333333,544.0
1313,-563.2,-1333.3333333333333,693.3333333333334
1314,-695.4666666666667,-1614.9333333333334,864.0
1315,-945.0666666666666,-1934.9333333333334,1053.8666666666666
1316,-1013.3333333333334,-2186.6666666666665,1147.7333333333333
1317,-983.4666666666667,-2532.2666666666664,1361.0666666666666
1318,-1115.7333333333333,-2794.6666666666665,1486.9333333333334
1319,-1267.2,-2734.9333333333334,1533.8666666666666
1320,-1326.9333333333334,-2478.9333333333334,1316.2666666666667
1321,-1198.9333333333334,-2056.5333333333333,902.4
1322,-778.6666666666666,-1674.6666666666667,578.1333333333333
1323,-576.0,-1425.0666666666666,501.3333333333333
1324,-413.8666666666667,-1250.1333333333332,533.3333333333334
1325,-200.53333333333333,-1111.4666666666667,514.1333333333333
1326,-57.6,-955.7333333333333,454.4
1327,25.6,-652.8,411.73333333333335
1328,168.53333333333333,-339.2,413.8666666666667
1329,128.0,-44.8,454.4
1330,49.06666666666666,36.266666666666666,505.59999999999997
1331,-174.93333333333334,-27.733333333333334,584.5333333333333
1332,-354.1333333333333,-44.8,616.5333333333333
1333,-450.1333333333333,-29.866666666666667,546.1333333333333
1334,-505.59999999999997,-68.26666666666667,475.73333333333335
1335,-567.4666666666667,-174.93333333333334,418.1333333333333
1336,-595.2,-277.3333333333333,343.46666666666664
1337,-552.5333333333333,-337.06666666666666,260.26666666666665
1338,-501.3333333333333,-390.4,228.26666666666665
1339,-424.5333333333333,-409.6,149.33333333333334
1340,-424.5333333333333,-418.1333333333333,68.26666666666667
1341,-409.6,-413.8666666666667,36.266666666666666
1342,-448.0,-394.6666666666667,12.8
1343,-480.0,-424.5333333333333,17.066666666666666
1344,-565.3333333333334,-422.4,14.933333333333334
1345,-652.8,-388.26666666666665,-12.8
1346,-569.6,-352.0,-2.1333333333333333
1347,-558.9333333333333,-279.46666666666664,25.6
1348,-503.46666666666664,-221.86666666666667,81.06666666666666
1349,-522.6666666666666,-177.06666666666666,125.86666666666666
1350,-492.8,-104.53333333333333,194.13333333333333
1351,-507.73333333333335,-21.333333333333332,256.0
1352,-509.8666666666667,81.06666666666666,275.2
1353,-462.93333333333334,200.53333333333333,285.8666666666667
1354,-445.8666666666667,305.06666666666666,311.46666666666664
1355,-398.93333333333334,377.6,281.6
1356,-371.2,439.46666666666664,273.06666666666666
1357,-311.46666666666664,494.93333333333334,168.53333333333333
1358,-238.93333333333334,535.4666666666667,217.6
1359,-162.13333333333333,537.6,260.26666666666665
1360,-102.4,569.6,300.8
1361,-36.266666666666666,601.6,326.4
1362,2.1333333333333333,644.2666666666667,343.46666666666664
1363,27.733333333333334,663.4666666666667,379.73333333333335
1364,29.866666666666667,678.4,396.8
1365,76.8,708.2666666666667,430.93333333333334
1366,89.6,755.2,433.06666666666666
1367,98.13333333333333,787.2,460.8
1368,91.73333333333333,785.0666666666666,450.1333333333333
1369,132.26666666666665,791.4666666666667,465.06666666666666
1370,142.93333333333334,770.1333333333333,475.73333333333335
1371,140.8,742.4,477.8666666666667
1372,130.13333333333333,678.4,460.8
1373,115.2,629.3333333333334,424.5333333333333
1374,96.0,593.0666666666666,379.73333333333335
1375,93.86666666666666,535.4666666666667,326.4
1376,98.13333333333333,460.8,281.6
1377,76.8,392.5333333333333,260.26666666666665
1378,96.0,324.26666666666665,268.8
1379,85.33333333333333,275.2,283.73333333333335
1380,70.4,226.13333333333333,292.26666666666665
1381,51.2,160.0,292.26666666666665
1382,32.0,100.26666666666667,294.4
1383,8.533333333333333,29.866666666666667,309.3333333333333
1384,10.666666666666666,-10.666666666666666,324.26666666666665
1385,12.8,-72.53333333333333,334.93333333333334
1386,17.066666666666666,-104.53333333333333,354.1333333333333
1387,6.4,-132.26666666666665,394.6666666666667
1388,14.933333333333334,-145.06666666666666,428.8
1389,27.733333333333334,-140.8,462.93333333333334
1390,19.2,-130.13333333333333,484.26666666666665
1391,34.13333333333333,-104.53333333333333,514.1333333333333
1392,38.4,-81.06666666666666,552.5333333333333
1393,40.53333333333333,-53.333333333333336,571.7333333333333
1394,17.066666666666666,-29.866666666666667,593.0666666666666
1395,4.266666666666667,-10.666666666666666,633.6
1396,-2.1333333333333333,10.666666666666666,657.0666666666666
1397,-12.8,38.4,665.6
1398,-25.6,66.13333333333333,682.6666666666666
1399,-46.93333333333333,104.53333333333333,695.4666666666667
1400,-49.06666666666666,138.66666666666666,684.8
1401,-64.0,160.0,691.2
1402,-76.8,183.46666666666667,699.7333333333333
1403,-85.33333333333333,196.26666666666665,699.7333333333333
1404,-100.26666666666667,202.66666666666666,691.2
1405,-102.4,219.73333333333332,680.5333333333333
1406,-106.66666666666667,221.86666666666667,676.2666666666667
1407,-125.86666666666666,228.26666666666665,665.6
1408,-123.73333333333333,226.13333333333333,654.9333333333333
1409,-115.2,217.6,646.4
1410,-113.06666666666666,217.6,622.9333333333333
1411,-119.46666666666667,196.26666666666665,601.6
1412,-130.13333333333333,172.8,573.8666666666667
1413,-147.2,140.8,554.6666666666666
1414,-145.06666666666666,110.93333333333334,539.7333333333333
1415,-147.2,70.4,509.8666666666667
1416,-145.06666666666666,46.93333333333333,492.8
1417,-153.6,4.266666666666667,477.8666666666667
1418,-162.13333333333333,-14.933333333333334,467.2
1419,-155.73333333333332,-53.333333333333336,462.93333333333334
1420,-155.73333333333332,-74.66666666666667,462.93333333333334
1421,-151.46666666666667,-100.26666666666667,445.8666666666667
1422,-151.46666666666667,-123.73333333333333,448.0
1423,-149.33333333333334,-134.4,443.73333333333335
1424,-147.2,-149.33333333333334,445.8666666666667
1425,-149.33333333333334,-151.46666666666667,448.0
1426,-147.2,-155.73333333333332,441.59999999999997
1427,-145.06666666666666,-151.46666666666667,456.5333333333333
1428,-151.46666666666667,-147.2,452.26666666666665
1429,-147.2,-142.93333333333334,448.0
1430,-140.8,-138.66666666666666,448.0
1431,-142.93333333333334,-136.53333333333333,448.0
1432,-147.2,-123.73333333333333,443.73333333333335
1433,-147.2,-113.06666666666666,437.3333333333333
1434,-138.66666666666666,-110.93333333333334,439.46666666666664
1435,-140.8,-106.66666666666667,445.8666666666667
1436,-151.46666666666667,-104.53333333333333,441.59999999999997
1437,-157.86666666666667,-104.53333333333333,443.73333333333335
1438,-164.26666666666665,-104.53333333333333,439.46666666666664
1439,-162.13333333333333,-106.66666666666667,450.1333333333333
1440,-166.4,-104.53333333333333,439.46666666666664
1441,-172.8,-108.8,452.26666666666665
1442,-172.8,-110.93333333333334,450.1333333333333
1443,-202.66666666666666,-104.53333333333333,450.1333333333333
1444,-179.2,-119.46666666666667,469.3333333333333
1445,-185.6,-119.46666666666667,469.3333333333333
1446,-183.46666666666667,-125.86666666666666,471.46666666666664
1447,-181.33333333333334,-136.53333333333333,480.0
1448,-179.2,-140.8,490.6666666666667
1449,-192.0,-147.2,486.4
1450,-189.86666666666667,-153.6,482.1333333333333
1451,-189.86666666666667,-160.0,486.4
1452,-187.73333333333332,-164.26666666666665,477.8666666666667
1453,-198.4,-168.53333333333333,484.26666666666665
1454,-196.26666666666665,-172.8,484.26666666666665
1455,-200.53333333333333,-168.53333333333333,484.26666666666665
1456,-200.53333333333333,-172.8,480.0
1457,-198.4,-172.8,475.73333333333335
1458,-204.8,-172.8,473.59999999999997
1459,-204.8,-172.8,475.73333333333335
1460,-206.93333333333334,-174.93333333333334,471.46666666666664
1461,-204.8,-170.66666666666666,471.46666666666664
1462,-209.06666666666666,-174.93333333333334,467.2
1463,-213.33333333333334,-164.26666666666665,467.2
1464,-209.06666666666666,-166.4,456.5333333333333
1465,-211.2,-164.26666666666665,465.06666666666666
1466,-206.93333333333334,-162.13333333333333,456.5333333333333
1467,-204.8,-155.73333333333332,454.4
1468,-204.8,-157.86666666666667,458.6666666666667
1469,-198.4,-155.73333333333332,454.4
1470,-196.26666666666665,-147.2,458.6666666666667
1471,-194.13333333333333,-149.33333333333334,450.1333333333333
1472,-185.6,-134.4,456.5333333333333
1473,-185.6,-140.8,462.93333333333334
1474,-174.93333333333334,-132.26666666666665,458.6666666666667
1475,-166.4,-121.6,465.06666666666666
1476,-168.53333333333333,-119.46666666666667,467.2
1477,-157.86666666666667,-119.46666666666667,469.3333333333333
1478,-153.6,-110.93333333333334,462.93333333333334
1479,-145.06666666666666,-113.06666666666666,473.59999999999997
1480,-136.53333333333333,-104.53333333333333,477.8666666666667
1481,-132.26666666666665,-108.8,484.26666666666665
1482,-125.86666666666666,-108.8,486.4
1483,-121.6,-108.8,492.8
1484,-108.8,-106.66666666666667,484.26666666666665
1485,-106.66666666666667,-96.0,486.4
1486,-104.53333333333333,-96.0,490.6666666666667
1487,-96.0,-96.0,494.93333333333334
1488,-98.13333333333333,-96.0,492.8
1489,-89.6,-96.0,492.8
1490,-83.2,-96.0,507.73333333333335
1491,-83.2,-100.26666666666667,499.2
1492,-76.8,-96.0,499.2
1493,-78.93333333333334,-93.86666666666666,499.2
1494,-68.26666666666667,-96.0,505.59999999999997
1495,-68.26666666666667,-96.0,512.0
1496,-66.13333333333333,-85.33333333333333,507.73333333333335
1497,-76.8,-85.33333333333333,501.3333333333333
1498,-64.0,-85.33333333333333,512.0
1499,-61.86666666666667,-83.2,507.73333333333335
1500,-70.4,-76.8,507.73333333333335
1501,-68.26666666666667,-78.93333333333334,503.46666666666664
1502,-59.733333333333334,-70.4,503.46666666666664
1503,-68.26666666666667,-64.0,505.59999999999997
1504,-64.0,-70.4,507.73333333333335
1505,-66.13333333333333,-72.53333333333333,494.93333333333334
1506,-72.53333333333333,-59.733333333333334,503.46666666666664
1507,-72.53333333333333,-66.13333333333333,512.0
1508,-76.8,-61.86666666666667,503.46666666666664
1509,-76.8,-51.2,505.59999999999997
1510,-85.33333333333333,-53.333333333333336,505.59999999999997
1511,-87.46666666666667,-55.46666666666667,507.73333333333335
1512,-91.73333333333333,-53.333333333333336,497.06666666666666
1513,-91.73333333333333,-53.333333333333336,505.59999999999997
1514,-93.86666666666666,-57.6,505.59999999999997
1515,-98.13333333333333,-55.46666666666667,497.06666666666666
1516,-96.0,-57.6,503.46666666666664
1517,-102.4,-59.733333333333334,503.46666666666664
1518,-100.26666666666667,-66.13333333333333,494.93333333333334
1519,-100.26666666666667,-70.4,501.3333333333333
1520,-102.4,-61.86666666666667,492.8
1521,-102.4,-64.0,494.93333333333334
1522,-110.93333333333334,-68.26666666666667,492.8
1523,-110.93333333333334,-68.26666666666667,488.5333333333333
1524,-110.93333333333334,-74.66666666666667,497.06666666666666
1525,-108.8,-70.4,497.06666666666666
1526,-113.06666666666666,-68.26666666666667,497.06666666666666
1527,-115.2,-68.26666666666667,497.06666666666666
1528,-119.46666666666667,-72.53333333333333,490.6666666666667
1529,-121.6,-76.8,488.5333333333333
1530,-113.06666666666666,-81.06666666666666,486.4
1531,-123.73333333333333,-78.93333333333334,499.2
1532,-121.6,-78.93333333333334,497.06666666666666
1533,-121.6,-83.2,494.93333333333334
1534,-121.6,-85.33333333333333,486.4
1535,-123.73333333333333,-85.33333333333333,492.8
1536,-125.86666666666666,-85.33333333333333,490.6666666666667
1537,-132.26666666666665,-85.33333333333333,490.6666666666667
1538,-125.86666666666666,-89.6,484.26666666666665
1539,-119.46666666666667,-93.86666666666666,484.26666666666665
1540,-128.0,-93.86666666666666,490.6666666666667
1541,-128.0,-100.26666666666667,486.4
1542,-128.0,-100.26666666666667,482.1333333333333
1543,-128.0,-106.66666666666667,492.8
1544,-125.86666666666666,-106.66666666666667,477.8666666666667
1545,-130.13333333333333,-98.13333333333333,488.5333333333333
1546,-123.73333333333333,-108.8,482.1333333333333
1547,-132.26666666666665,-117.33333333333333,486.4
1548,-123.73333333333333,-113.06666666666666,486.4
1549,-123.73333333333333,-113.06666666666666,477.8666666666667
1550,-123.73333333333333,-119.46666666666667,484.26666666666665
1551,-128.0,-121.6,482.1333333333333
1552,-125.86666666666666,-117.33333333333333,475.73333333333335
1553,-125.86666666666666,-117.33333333333333,482.1333333333333
1554,-121.6,-115.2,477.8666666666667
1555,-123.73333333333333,-119.46666666666667,482.1333333333333
1556,-117.33333333333333,-121.6,480.0
1557,-119.46666666666667,-117.33333333333333,482.1333333333333
1558,-130.13333333333333,-115.2,480.0
1559,-121.6,-117.33333333333333,480.0
1560,-117.33333333333333,-115.2,475.73333333333335
1561,-119.46666666666667,-113.06666666666666,475.73333333333335
1562,-117.33333333333333,-117.33333333333333,484.26666666666665
1563,-119.46666666666667,-115.2,486.4
1564,-121.6,-119.46666666666667,482.1333333333333
1565,-119.46666666666667,-113.06666666666666,480.0
1566,-113.06666666666666,-113.06666666666666,477.8666666666667
1567,-119.46666666666667,-108.8,486.4
1568,-115.2,-119.46666666666667,490.6666666666667
1569,-121.6,-108.8,486.4
1570,-108.8,-110.93333333333334,488.5333333333333
1571,-106.66666666666667,-119.46666666666667,488.5333333333333
1572,-108.8,-115.2,490.6666666666667
1573,-113.06666666666666,-113.06666666666666,486.4
1574,-106.66666666666667,-106.66666666666667,477.8666666666667
1575,-108.8,-113.06666666666666,482.1333333333333
1576,-110.93333333333334,-104.53333333333333,480.0
1577,-110.93333333333334,-113.06666666666666,484.26666666666665
1578,-108.8,-113.06666666666666,486.4
1579,-108.8,-104.53333333333333,480.0
1580,-110.93333333333334,-104.53333333333333,484.26666666666665
1581,-108.8,-110.93333333333334,480.0
1582,-110.93333333333334,-113.06666666666666,486.4
1583,-108.8,-108.8,492.8
1584,-113.06666666666666,-100.26666666666667,490.6666666666667
1585,-110.93333333333334,-102.4,484.26666666666665
1586,-108.8,-98.13333333333333,488.5333333333333
1587,-106.66666666666667,-104.53333333333333,480.0
1588,-110.93333333333334,-102.4,484.26666666666665
1589,-115.2,-106.66666666666667,488.5333333333333
1590,-110.93333333333334,-108.8,482.1333333333333
1591,-108.8,-104.53333333333333,488.5333333333333
1592,-108.8,-108.8,486.4
1593,-110.93333333333334,-100.26666666666667,494.93333333333334
1594,-106.66666666666667,-104.53333333333333,484.26666666666665
1595,-110.93333333333334,-104.53333333333333,494.93333333333334
1596,-104.53333333333333,-104.53333333333333,484.26666666666665
1597,-106.66666666666667,-100.26666666666667,482.1333333333333
1598,-110.93333333333334,-96.0,490.6666666666667
1599,-110.93333333333334,-96.0,492.8
1600,-115.2,-96.0,486.4
1601,-113.06666666666666,-93.86666666666666,486.4
1602,-115.2,-93.86666666666666,490.6666666666667
1603,-113.06666666666666,-98.13333333333333,490.6666666666667
1604,-119.46666666666667,-87.46666666666667,490.6666666666667
1605,-113.06666666666666,-96.0,484.26666666666665
1606,-113.06666666666666,-100.26666666666667,488.5333333333333
1607,-119.46666666666667,-85.33333333333333,490.6666666666667
1608,-115.2,-93.86666666666666,486.4
1609,-113.06666666666666,-93.86666666666666,490.6666666666667
1610,-121.6,-93.86666666666666,477.8666666666667
1611,-115.2,-93.86666666666666,488.5333333333333
1612,-125.86666666666666,-91.73333333333333,492.8
1613,-115.2,-98.13333333333333,490.6666666666667
1614,-123.73333333333333,-93.86666666666666,494.93333333333334
1615,-119.46666666666667,-93.86666666666666,492.8
1616,-117.33333333333333,-100.26666666666667,492.8
1617,-113.06666666666666,-100.26666666666667,488.5333333333333
1618,-115.2,-96.0,484.26666666666665
1619,-119.46666666666667,-98.13333333333333,488.5333333333333
1620,-117.33333333333333,-96.0,480.0
1621,-121.6,-98.13333333333333,477.8666666666667
1622,-119.46666666666667,-102.4,482.1333333333333
1623,-117.33333333333333,-100.26666666666667,490.6666666666667
1624,-121.6,-98.13333333333333,490.6666666666667
1625,-117.33333333333333,-104.53333333333333,486.4
1626,-113.06666666666666,-100.26666666666667,486.4
1627,-121.6,-100.26666666666667,484.26666666666665
1628,-113.06666666666666,-106.66666666666667,484.26666666666665
1629,-115.2,-96.0,492.8
1630,-115.2,-96.0,488.5333333333333
1631,-119.46666666666667,-100.26666666666667,484.26666666666665
1632,-117.33333333333333,-93.86666666666666,484.26666666666665
1633,-117.33333333333333,-98.13333333333333,484.26666666666665
1634,-121.6,-100.26666666666667,484.26666666666665
1635,-121.6,-93.86666666666666,490.6666666666667
1636,-117.33333333333333,-96.0,488.5333333333333
1637,-121.6,-100.26666666666667,488.5333333333333
1638,-121.6,-98.13333333333333,482.1333333333333
1639,-119.46666666666667,-102.4,486.4
1640,-123.73333333333333,-98.13333333333333,482.1333333333333
1641,-123.73333333333333,-106.66666666666667,492.8
1642,-123.73333333333333,-104.53333333333333,480.0
1643,-123.73333333333333,-110.93333333333334,486.4
1644,-125.86666666666666,-106.66666666666667,480.0
1645,-125.86666666666666,-113.06666666666666,490.6666666666667
1646,-121.6,-115.2,480.0
1647,-117.33333333333333,-110.93333333333334,488.5333333333333
1648,-110.93333333333334,-115.2,488.5333333333333
1649,-113.06666666666666,-121.6,488.5333333333333
1650,-115.2,-117.33333333333333,488.5333333333333
1651,-110.93333333333334,-121.6,482.1333333333333
1652,-106.66666666666667,-125.86666666666666,484.26666666666665
1653,-102.4,-125.86666666666666,490.6666666666667
1654,-104.53333333333333,-117.33333333333333,484.26666666666665
1655,-108.8,-121.6,486.4
1656,-104.53333333333333,-130.13333333333333,494.93333333333334
1657,-106.66666666666667,-119.46666666666667,488.5333333333333
1658,-104.53333333333333,-119.46666666666667,494.93333333333334
1659,-98.13333333333333,-119.46666666666667,482.1333333333333
1660,-102.4,-115.2,486.4
1661,-100.26666666666667,-113.06666666666666,484.26666666666665
1662,-100.26666666666667,-102.4,497.06666666666666
1663,-102.4,-104.53333333333333,492.8
1664,-100.26666666666667,-102.4,492.8
1665,-96.0,-104.53333333333333,484.26666666666665
1666,-96.0,-100.26666666666667,488.5333333333333
1667,-98.13333333333333,-106.66666666666667,488.5333333333333
1668,-100.26666666666667,-100.26666666666667,490.6666666666667
1669,-98.13333333333333,-102.4,486.4
1670,-102.4,-100.26666666666667,484.26666666666665
1671,-100.26666666666667,-100.26666666666667,488.5333333333333
1672,-100.26666666666667,-104.53333333333333,486.4
1673,-100.26666666666667,-100.26666666666667,490.6666666666667
1674,-104.53333333333333,-100.26666666666667,486.4
1675,-106.66666666666667,-106.66666666666667,484.26666666666665
1676,-104.53333333333333,-106.66666666666667,484.26666666666665
1677,-104.53333333333333,-110.93333333333334,484.26666666666665
1678,-104.53333333333333,-110.93333333333334,480.0
1679,-106.66666666666667,-113.06666666666666,490.6666666666667
1680,-106.66666666666667,-108.8,490.6666666666667
1681,-108.8,-113.06666666666666,480.0
1682,-106.66666666666667,-108.8,480.0
1683,-106.66666666666667,-110.93333333333334,492.8
1684,-110.93333333333334,-117.33333333333333,488.5333333333333
1685,-117.33333333333333,-117.33333333333333,477.8666666666667
1686,-115.2,-113.06666666666666,492.8
1687,-115.2,-113.06666666666666,484.26666666666665
1688,-119.46666666666667,-113.06666666666666,484.26666666666665
1689,-117.33333333333333,-110.93333333333334,484.26666666666665
1690,-123.73333333333333,-104.53333333333333,482.1333333333333
1691,-119.46666666666667,-108.8,488.5333333333333
1692,-117.33333333333333,-106.66666666666667,488.5333333333333
1693,-115.2,-110.93333333333334,484.26666666666665
1694,-119.46666666666667,-108.8,486.4
1695,-117.33333333333333,-104.53333333333333,484.26666666666665
1696,-121.6,-104.53333333333333,486.4
1697,-119.46666666666667,-106.66666666666667,486.4
1698,-119.46666666666667,-104.53333333333333,480.0
1699,-119.46666666666667,-106.66666666666667,484.26666666666665
1700,-123.73333333333333,-100.26666666666667,492.8
1701,-121.6,-104.53333333333333,486.4
1702,-119.46666666666667,-104.53333333333333,490.6666666666667
1703,-119.46666666666667,-106.66666666666667,488.5333333333333
1704,-128.0,-106.66666666666667,486.4
1705,-125.86666666666666,-108.8,488.5333333333333
1706,-128.0,-104.53333333333333,484.26666666666665
1707,-130.13333333333333,-108.8,488.5333333333333
1708,-123.73333333333333,-106.66666666666667,497.06666666666666
1709,-123.73333333333333,-106.66666666666667,492.8
1710,-119.46666666666667,-104.53333333333333,484.26666666666665
1711,-121.6,-108.8,480.0
1712,-125.86666666666666,-115.2,480.0
1713,-125.86666666666666,-108.8,486.4
1714,-123.73333333333333,-108.8,484.26666666666665
1715,-117.33333333333333,-108.8,477.8666666666667
1716,-125.86666666666666,-108.8,475.73333333333335
1717,-117.33333333333333,-113.06666666666666,488.5333333333333
1718,-121.6,-108.8,484.26666666666665
1719,-121.6,-115.2,486.4
1720,-117.33333333333333,-117.33333333333333,484.26666666666665
1721,-113.06666666666666,-113.06666666666666,486.4
1722,-121.6,-108.8,488.5333333333333
1723,-117.33333333333333,-115.2,477.8666666666667
1724,-119.46666666666667,-108.8,480.0
1725,-125.86666666666666,-106.66666666666667,482.1333333333333
1726,-123.73333333333333,-108.8,488.5333333333333
1727,-121.6,-108.8,473.59999999999997
1728,-119.46666666666667,-110.93333333333334,482.1333333333333
1729,-117.33333333333333,-110.93333333333334,488.5333333333333
1730,-119.46666666666667,-108.8,482.1333333333333
1731,-110.93333333333334,-113.06666666666666,488.5333333333333
1732,-117.33333333333333,-110.93333333333334,484.26666666666665
1733,-117.33333333333333,-110.93333333333334,486.4
1734,-119.46666666666667,-117.33333333333333,484.26666666666665
1735,-113.06666666666666,-121.6,484.26666666666665
1736,-113.06666666666666,-130.13333333333333,480.0
1737,-119.46666666666667,-119.46666666666667,482.1333333333333
1738,-113.06666666666666,-117.33333333333333,482.1333333333333
1739,-115.2,-119.46666666666667,484.26666666666665
1740,-110.93333333333334,-121.6,482.1333333333333
1741,-117.33333333333333,-121.6,482.1333333333333
1742,-106.66666666666667,-128.0,482.1333333333333
1743,-110.93333333333334,-119.46666666666667,484.26666666666665
1744,-108.8,-121.6,486.4
1745,-115.2,-115.2,488.5333333333333
1746,-108.8,-119.46666666666667,480.0
1747,-110.93333333333334,-117.33333333333333,482.1333333333333
1748,-108.8,-113.06666666666666,484.26666666666665
1749,-108.8,-108.8,484.26666666666665
1750,-110.93333333333334,-117.33333333333333,482.1333333333333
1751,-110.93333333333334,-113.06666666666666,475.73333333333335
1752,-108.8,-115.2,482.1333333333333
1753,-108.8,-106.66666666666667,486.4
1754,-110.93333333333334,-115.2,475.73333333333335
1755,-108.8,-117.33333333333333,477.8666666666667
1756,-108.8,-117.33333333333333,475.73333333333335
1757,-110.93333333333334,-117.33333333333333,480.0
1758,-115.2,-115.2,484.26666666666665
1759,-110.93333333333334,-123.73333333333333,480.0
1760,-113.06666666666666,-125.86666666666666,482.1333333333333
1761,-113.06666666666666,-125.86666666666666,480.0
1762,-113.06666666666666,-121.6,477.8666666666667
1763,-113.06666666666666,-123.73333333333333,480.0
1764,-110.93333333333334,-130.13333333333333,482.1333333333333
1765,-113.06666666666666,-128.0,482.1333333333333
1766,-108.8,-128.0,486.4
1767,-117.33333333333333,-121.6,482.1333333333333
1768,-117.33333333333333,-115.2,480.0
1769,-113.06666666666666,-125.86666666666666,473.59999999999997
1770,-117.33333333333333,-119.46666666666667,484.26666666666665
1771,-121.6,-115.2,480.0
1772,-115.2,-117.33333333333333,484.26666666666665
1773,-110.93333333333334,-123.73333333333333,473.59999999999997
1774,-121.6,-113.06666666666666,486.4
1775,-119.46666666666667,-117.33333333333333,473.59999999999997
1776,-113.06666666666666,-119.46666666666667,477.8666666666667
1777,-117.33333333333333,-113.06666666666666,482.1333333333333
1778,-115.2,-113.06666666666666,482.1333333333333
1779,-121.6,-121.6,477.8666666666667
1780,-123.73333333333333,-110.93333333333334,486.4
1781,-123.73333333333333,-110.93333333333334,473.59999999999997
1782,-117.33333333333333,-108.8,477.8666666666667
1783,-117.33333333333333,-108.8,477.8666666666667
1784,-123.73333333333333,-110.93333333333334,488.5333333333333
1785,-117.33333333333333,-113.06666666666666,475.73333333333335
1786,-117.33333333333333,-115.2,484.26666666666665
1787,-121.6,-106.66666666666667,490.6666666666667
1788,-119.46666666666667,-117.33333333333333,482.1333333333333
1789,-123.73333333333333,-110.93333333333334,484.26666666666665
1790,-119.46666666666667,-106.66666666666667,490.6666666666667
1791,-119.46666666666667,-113.06666666666666,484.26666666666665
1792,-117.33333333333333,-113.06666666666666,490.6666666666667
1793,-117.33333333333333,-110.93333333333334,486.4
1794,-123.73333333333333,-110.93333333333334,486.4
1795,-117.33333333333333,-110.93333333333334,482.1333333333333
1796,-121.6,-110.93333333333334,482.1333333333333
1797,-121.6,-110.93333333333334,492.8
1798,-119.46666666666667,-108.8,494.93333333333334
1799,-121.6,-110.93333333333334,490.6666666666667
1800,-115.2,-110.93333333333334,484.26666666666665
1801,-117.33333333333333,-106.66666666666667,486.4
1802,-117.33333333333333,-108.8,484.26666666666665
1803,-117.33333333333333,-102.4,477.8666666666667
1804,-117.33333333333333,-110.93333333333334,482.1333333333333
1805,-119.46666666666667,-108.8,484.26666666666665
1806,-115.2,-110.93333333333334,486.4
1807,-121.6,-102.4,484.26666666666665
1808,-119.46666666666667,-104.53333333333333,484.26666666666665
1809,-115.2,-106.66666666666667,488.5333333333333
1810,-121.6,-108.8,486.4
1811,-119.46666666666667,-108.8,486.4
1812,-117.33333333333333,-108.8,477.8666666666667
1813,-117.33333333333333,-110.93333333333334,482.1333333333333
1814,-121.6,-108.8,475.73333333333335
1815,-123.73333333333333,-106.66666666666667,484.26666666666665
1816,-117.33333333333333,-110.93333333333334,484.26666666666665
1817,-115.2,-115.2,490.6666666666667
1818,-119.46666666666667,-117.33333333333333,484.26666666666665
1819,-119.46666666666667,-106.66666666666667,477.8666666666667
1820,-121.6,-110.93333333333334,490.6666666666667
1821,-123.73333333333333,-110.93333333333334,482.1333333333333
1822,-117.33333333333333,-113.06666666666666,492.8
1823,-115.2,-113.06666666666666,484.26666666666665
1824,-119.46666666666667,-108.8,484.26666666666665
1825,-119.46666666666667,-113.06666666666666,484.26666666666665
1826,-115.2,-117.33333333333333,482.1333333333333
1827,-113.06666666666666,-113.06666666666666,484.26666666666665
1828,-115.2,-115.2,477.8666666666667
1829,-117.33333333333333,-115.2,480.0
1830,-108.8,-115.2,482.1333333333333
1831,-110.93333333333334,-113.06666666666666,486.4
1832,-113.06666666666666,-117.33333333333333,484.26666666666665
1833,-110.93333333333334,-113.06666666666666,492.8
1834,-115.2,-108.8,488.5333333333333
1835,-108.8,-117.33333333333333,486.4
1836,-110.93333333333334,-113.06666666666666,488.5333333333333
1837,-102.4,-113.06666666666666,475.73333333333335
1838,-110.93333333333334,-113.06666666666666,490.6666666666667
1839,-113.06666666666666,-113.06666666666666,486.4
1840,-108.8,-115.2,490.6666666666667
1841,-104.53333333333333,-117.33333333333333,488.5333333333333
1842,-113.06666666666666,-113.06666666666666,488.5333333333333
1843,-108.8,-115.2,484.26666666666665
1844,-106.66666666666667,-113.06666666666666,488.5333333333333
1845,-104.53333333333333,-115.2,486.4
1846,-106.66666666666667,-113.06666666666666,490.6666666666667
1847,-110.93333333333334,-110.93333333333334,486.4
1848,-110.93333333333334,-110.93333333333334,486.4
1849,-108.8,-110.93333333333334,486.4
1850,-108.8,-110.93333333333334,488.5333333333333
1851,-108.8,-110.93333333333334,488.5333333333333
1852,-108.8,-110.93333333333334,484.26666666666665
1853,-106.66666666666667,-108.8,482.1333333333333
1854,-110.93333333333334,-108.8,492.8
1855,-110.93333333333334,-108.8,484.26666666666665
1856,-117.33333333333333,-106.66666666666667,484.26666666666665
1857,-115.2,-106.66666666666667,488.5333333333333
1858,-108.8,-108.8,482.1333333333333
1859,-110.93333333333334,-108.8,488.5333333333333
1860,-108.8,-113.06666666666666,484.26666666666665
1861,-108.8,-108.8,484.26666666666665
1862,-106.66666666666667,-110.93333333333334,490.6666666666667
1863,-108.8,-106.66666666666667,488.5333333333333
1864,-106.66666666666667,-106.66666666666667,482.1333333333333
1865,-113.06666666666666,-110.93333333333334,488.5333333333333
1866,-110.93333333333334,-106.66666666666667,488.5333333333333
1867,-108.8,-108.8,482.1333333333333
1868,-102.4,-110.93333333333334,488.5333333333333
1869,-108.8,-115.2,494.93333333333334
1870,-110.93333333333334,-115.2,490.6666666666667
1871,-106.66666666666667,-115.2,486.4
1872,-106.66666666666667,-113.06666666666666,482.1333333333333
1873,-106.66666666666667,-117.33333333333333,484.26666666666665
1874,-115.2,-117.33333333333333,480.0
1875,-113.06666666666666,-106.66666666666667,475.73333333333335
1876,-117.33333333333333,-108.8,482.1333333333333
1877,-115.2,-117.33333333333333,488.5333333333333
1878,-115.2,-106.66666666666667,482.1333333333333
1879,-115.2,-113.06666666666666,480.0
1880,-117.33333333333333,-106.66666666666667,484.26666666666665
1881,-108.8,-104.53333333333333,480.0
1882,-119.46666666666667,-102.4,488.5333333333333
1883,-117.33333333333333,-98.13333333333333,484.26666666666665
1884,-119.46666666666667,-96.0,480.0
1885,-117.33333333333333,-100.26666666666667,486.4
1886,-117.33333333333333,-98.13333333333333,484.26666666666665
1887,-117.33333333333333,-102.4,492.8
1888,-115.2,-106.66666666666667,484.26666666666665
1889,-125.86666666666666,-100.26666666666667,484.26666666666665
1890,-117.33333333333333,-96.0,492.8
1891,-113.06666666666666,-98.13333333333333,490.6666666666667
1892,-115.2,-102.4,488.5333333333333
1893,-113.06666666666666,-102.4,497.06666666666666
1894,-117.33333333333333,-98.13333333333333,488.5333333333333
1895,-117.33333333333333,-104.53333333333333,484.26666666666665
1896,-119.46666666666667,-98.13333333333333,488.5333333333333
1897,-115.2,-98.13333333333333,488.5333333333333
1898,-119.46666666666667,-91.73333333333333,484.26666666666665
1899,-115.2,-102.4,477.8666666666667
1900,-119.46666666666667,-98.13333333333333,482.1333333333333
1901,-115.2,-100.26666666666667,473.59999999999997
1902,-117.33333333333333,-91.73333333333333,475.73333333333335
1903,-115.2,-102.4,484.26666666666665
1904,-113.06666666666666,-96.0,482.1333333333333
1905,-110.93333333333334,-100.26666666666667,486.4
1906,-113.06666666666666,-100.26666666666667,488.5333333333333
1907,-113.06666666666666,-106.66666666666667,486.4
1908,-113.06666666666666,-106.66666666666667,488.5333333333333
1909,-115.2,-113.06666666666666,488.5333333333333
1910,-113.06666666666666,-104.53333333333333,486.4
1911,-104.53333333333333,-113.06666666666666,492.8
1912,-100.26666666666667,-115.2,494.93333333333334
1913,-104.53333333333333,-110.93333333333334,503.46666666666664
1914,-106.66666666666667,-108.8,497.06666666666666
1915,-106.66666666666667,-104.53333333333333,490.6666666666667
1916,-110.93333333333334,-106.66666666666667,492.8
1917,-106.66666666666667,-106.66666666666667,477.8666666666667
1918,-104.53333333333333,-108.8,477.8666666666667
1919,-110.93333333333334,-102.4,486.4
1920,-106.66666666666667,-104.53333333333333,486.4
1921,-106.66666666666667,-102.4,486.4
1922,-110.93333333333334,-100.26666666666667,492.8
1923,-108.8,-113.06666666666666,482.1333333333333
1924,-108.8,-110.93333333333334,480.0
1925,-115.2,-110.93333333333334,475.73333333333335
1926,-113.06666666666666,-113.06666666666666,475.73333333333335
1927,-106.66666666666667,-110.93333333333334,484.26666666666665
1928,-104.53333333333333,-110.93333333333334,480.0
1929,-104.53333333333333,-113.06666666666666,486.4
1930,-115.2,-108.8,486.4
1931,-113.06666666666666,-110.93333333333334,482.1333333333333
1932,-110.93333333333334,-113.06666666666666,490.6666666666667
1933,-108.8,-106.66666666666667,486.4
1934,-110.93333333333334,-104.53333333333333,488.5333333333333
1935,-106.66666666666667,-102.4,486.4
1936,-110.93333333333334,-102.4,482.1333333333333
1937,-108.8,-100.26666666666667,492.8
1938,-104.53333333333333,-102.4,488.5333333333333
1939,-104.53333333333333,-102.4,484.26666666666665
1940,-102.4,-100.26666666666667,488.5333333333333
1941,-106.66666666666667,-104.53333333333333,486.4
1942,-104.53333333333333,-100.26666666666667,492.8
1943,-98.13333333333333,-102.4,490.6666666666667
1944,-108.8,-106.66666666666667,484.26666666666665
1945,-100.26666666666667,-100.26666666666667,492.8
1946,-108.8,-98.13333333333333,482.1333333333333
1947,-110.93333333333334,-102.4,488.5333333333333
1948,-104.53333333333333,-102.4,484.26666666666665
1949,-106.66666666666667,-98.13333333333333,488.5333333333333
1950,-102.4,-106.66666666666667,494.93333333333334
1951,-106.66666666666667,-102.4,492.8
1952,-108.8,-102.4,490.6666666666667
1953,-104.53333333333333,-98.13333333333333,488.5333333333333
1954,-104.53333333333333,-104.53333333333333,490.6666666666667
1955,-108.8,-104.53333333333333,492.8
1956,-108.8,-100.26666666666667,484.26666666666665
1957,-106.66666666666667,-108.8,484.26666666666665
1958,-108.8,-106.66666666666667,497.06666666666666
1959,-104.53333333333333,-104.53333333333333,494.93333333333334
1960,-110.93333333333334,-106.66666666666667,486.4
1961,-108.8,-104.53333333333333,486.4
1962,-108.8,-100.26666666666667,492.8
1963,-108.8,-104.53333333333333,482.1333333333333
1964,-108.8,-100.26666666666667,490.6666666666667
1965,-106.66666666666667,-104.53333333333333,492.8
1966,-106.66666666666667,-100.26666666666667,497.06666666666666
1967,-108.8,-98.13333333333333,488.5333333333333
1968,-110.93333333333334,-100.26666666666667,488.5333333333333
1969,-104.53333333333333,-98.13333333333333,488.5333333333333
1970,-108.8,-93.86666666666666,486.4
1971,-113.06666666666666,-100.26666666666667,486.4
1972,-104.53333333333333,-106.66666666666667,488.5333333333333
1973,-104.53333333333333,-98.13333333333333,494.93333333333334
1974,-106.66666666666667,-102.4,486.4
1975,-106.66666666666667,-102.4,484.26666666666665
1976,-106.66666666666667,-100.26666666666667,490.6666666666667
1977,-110.93333333333334,-100.26666666666667,497.06666666666666
1978,-104.53333333333333,-102.4,477.8666666666667
1979,-104.53333333333333,-108.8,494.93333333333334
1980,-102.4,-106.66666666666667,494.93333333333334
1981,-104.53333333333333,-104.53333333333333,497.06666666666666
1982,-104.53333333333333,-108.8,501.3333333333333
1983,-106.66666666666667,-104.53333333333333,486.4
1984,-106.66666666666667,-106.66666666666667,490.6666666666667
1985,-104.53333333333333,-108.8,484.26666666666665
1986,-106.66666666666667,-102.4,486.4
1987,-108.8,-104.53333333333333,486.4
1988,-108.8,-104.53333333333333,492.8
1989,-104.53333333333333,-104.53333333333333,490.6666666666667
1990,-113.06666666666666,-106.66666666666667,484.26666666666665
1991,-110.93333333333334,-108.8,494.93333333333334
1992,-106.66666666666667,-106.66666666666667,482.1333333333333
1993,-113.06666666666666,-104.53333333333333,492.8
1994,-106.66666666666667,-106.66666666666667,488.5333333333333
1995,-113.06666666666666,-100.26666666666667,490.6666666666667
1996,-108.8,-96.0,488.5333333333333
1997,-106.66666666666667,-102.4,484.26666666666665
1998,-108.8,-102.4,490.6666666666667
1999,-106.66666666666667,-100.26666666666667,499.2
2000,-104.53333333333333,-93.86666666666666,484.26666666666665
2001,-106.66666666666667,-96.0,488.5333333333333
2002,-104.53333333333333,-96.0,490.6666666666667
2003,-110.93333333333334,-96.0,486.4
2004,-106.66666666666667,-100.26666666666667,494.93333333333334
2005,-104.53333333333333,-96.0,499.2
2006,-110.93333333333334,-93.86666666666666,492.8
2007,-108.8,-100.26666666666667,488.5333333333333
2008,-110.93333333333334,-96.0,484.26666666666665
2009,-100.26666666666667,-93.86666666666666,492.8
2010,-106.66666666666667,-93.86666666666666,490.6666666666667
2011,-104.53333333333333,-96.0,488.5333333333333
2012,-106.66666666666667,-102.4,488.5333333333333
2013,-104.53333333333333,-89.6,488.5333333333333
2014,-104.53333333333333,-96.0,486.4
2015,-104.53333333333333,-93.86666666666666,488.5333333333333
2016,-110.93333333333334,-96.0,490.6666666666667
2017,-100.26666666666667,-100.26666666666667,492.8
2018,-102.4,-91.73333333333333,490.6666666666667
2019,-110.93333333333334,-89.6,492.8
2020,-102.4,-98.13333333333333,494.93333333333334
2021,-108.8,-96.0,494.93333333333334
2022,-104.53333333333333,-96.0,494.93333333333334
2023,-100.26666666666667,-102.4,494.93333333333334
2024,-106.66666666666667,-96.0,494.93333333333334
2025,-104.53333333333333,-93.86666666666666,490.6666666666667
2026,-102.4,-98.13333333333333,490.6666666666667
2027,-102.4,-98.13333333333333,492.8
2028,-100.26666666666667,-100.26666666666667,475.73333333333335
2029,-104.53333333333333,-96.0,488.5333333333333
2030,-102.4,-96.0,484.26666666666665
2031,-104.53333333333333,-100.26666666666667,484.26666666666665
2032,-110.93333333333334,-96.0,488.5333333333333
2033,-104.53333333333333,-100.26666666666667,486.4
2034,-104.53333333333333,-98.13333333333333,490.6666666666667
2035,-102.4,-102.4,484.26666666666665
2036,-102.4,-100.26666666666667,488.5333333333333
2037,-108.8,-91.73333333333333,490.6666666666667
2038,-108.8,-102.4,488.5333333333333
2039,-102.4,-104.53333333333333,488.5333333333333
2040,-102.4,-106.66666666666667,492.8
2041,-102.4,-108.8,497.06666666666666
2042,-110.93333333333334,-104.53333333333333,484.26666666666665
2043,-106.66666666666667,-104.53333333333333,492.8
2044,-104.53333333333333,-100.26666666666667,484.26666666666665
2045,-104.53333333333333,-102.4,486.4
2046,-104.53333333333333,-104.53333333333333,488.5333333333333
2047,-100.26666666666667,-108.8,488.5333333333333
2048,-106.66666666666667,-98.13333333333333,490.6666666666667
2049,-110.93333333333334,-104.53333333333333,494.93333333333334
2050,-115.2,-102.4,484.26666666666665
2051,-104.53333333333333,-83.2,469.3333333333333
2052,-115.2,-100.26666666666667,488.5333333333333
2053,-108.8,-106.66666666666667,492.8
2054,-106.66666666666667,-104.53333333333333,486.4
2055,-108.8,-104.53333333333333,488.5333333333333
2056,-104.53333333333333,-108.8,486.4
2057,-108.8,-91.73333333333333,492.8
2058,-106.66666666666667,-102.4,488.5333333333333
2059,-108.8,-93.86666666666666,486.4
2060,-104.53333333333333,-102.4,497.06666666666666
2061,-104.53333333333333,-102.4,484.26666666666665
2062,-106.66666666666667,-100.26666666666667,480.0
2063,-108.8,-100.26666666666667,486.4
2064,-98.13333333333333,-104.53333333333333,492.8
2065,-102.4,-108.8,484.26666666666665
2066,-104.53333333333333,-102.4,488.5333333333333
2067,-106.66666666666667,-102.4,488.5333333333333
2068,-104.53333333333333,-104.53333333333333,490.6666666666667
2069,-110.93333333333334,-100.26666666666667,490.6666666666667
2070,-102.4,-104.53333333333333,490.6666666666667
2071,-108.8,-98.13333333333333,484.26666666666665
2072,-108.8,-104.53333333333333,490.6666666666667
2073,-108.8,-100.26666666666667,492.8
2074,-100.26666666666667,-110.93333333333334,484.26666666666665
2075,-104.53333333333333,-104.53333333333333,482.1333333333333
2076,-106.66666666666667,-106.66666666666667,490.6666666666667
2077,-108.8,-106.66666666666667,484.26666666666665
2078,-110.93333333333334,-104.53333333333333,482.1333333333333
2079,-106.66666666666667,-100.26666666666667,494.93333333333334
2080,-108.8,-98.13333333333333,488.5333333333333
2081,-106.66666666666667,-98.13333333333333,490.6666666666667
2082,-108.8,-104.53333333333333,492.8
2083,-104.53333333333333,-106.66666666666667,488.5333333333333
2084,-108.8,-106.66666666666667,486.4
2085,-108.8,-104.53333333333333,492.8
2086,-115.2,-100.26666666666667,494.93333333333334
2087,-106.66666666666667,-106.66666666666667,492.8
2088,-108.8,-108.8,490.6666666666667
2089,-108.8,-100.26666666666667,488.5333333333333
2090,-106.66666666666667,-100.26666666666667,492.8
2091,-104.53333333333333,-106.66666666666667,486.4
2092,-106.66666666666667,-108.8,486.4
2093,-102.4,-104.53333333333333,486.4
2094,-104.53333333333333,-106.66666666666667,488.5333333333333
2095,-104.53333333333333,-102.4,494.93333333333334
2096,-106.66666666666667,-102.4,492.8
2097,-108.8,-100.26666666666667,486.4
2098,-106.66666666666667,-108.8,501.3333333333333
2099,-104.53333333333333,-102.4,482.1333333333333
2100,-106.66666666666667,-102.4,486.4
2101,-110.93333333333334,-104.53333333333333,482.1333333333333
2102,-110.93333333333334,-104.53333333333333,492.8
2103,-108.8,-100.26666666666667,484.26666666666665
2104,-106.66666666666667,-108.8,488.5333333333333
2105,-108.8,-108.8,488.5333333333333
2106,-113.06666666666666,-110.93333333333334,494.93333333333334
2107,-110.93333333333334,-113.06666666666666,482.1333333333333
2108,-108.8,-113.06666666666666,486.4
2109,-110.93333333333334,-113.06666666666666,486.4
2110,-113.06666666666666,-110.93333333333334,490.6666666666667
2111,-110.93333333333334,-117.33333333333333,488.5333333333333
2112,-110.93333333333334,-113.06666666666666,482.1333333333333
2113,-117.33333333333333,-108.8,482.1333333333333
2114,-115.2,-115.2,482.1333333333333
2115,-106.66666666666667,-108.8,482.1333333333333
2116,-108.8,-110.93333333333334,484.26666666666665
2117,-113.06666666666666,-108.8,486.4
2118,-108.8,-106.66666666666667,484.26666666666665
2119,-110.93333333333334,-102.4,486.4
2120,-106.66666666666667,-104.53333333333333,488.5333333333333
2121,-106.66666666666667,-102.4,482.1333333333333
2122,-113.06666666666666,-104.53333333333333,486.4
2123,-115.2,-102.4,492.8
2124,-106.66666666666667,-104.53333333333333,486.4
2125,-108.8,-106.66666666666667,490.6666666666667
2126,-113.06666666666666,-104.53333333333333,490.6666666666667
2127,-104.53333333333333,-110.93333333333334,490.6666666666667
2128,-110.93333333333334,-106.66666666666667,494.93333333333334
2129,-106.66666666666667,-102.4,488.5333333333333
2130,-108.8,-100.26666666666667,490.6666666666667
2131,-113.06666666666666,-102.4,490.6666666666667
2132,-113.06666666666666,-100.26666666666667,488.5333333333333
2133,-106.66666666666667,-104.53333333333333,490.6666666666667
2134,-104.53333333333333,-110.93333333333334,486.4
2135,-102.4,-100.26666666666667,488.5333333333333
2136,-110.93333333333334,-102.4,494.93333333333334
2137,-108.8,-108.8,488.5333333333333
2138,-108.8,-108.8,486.4
2139,-108.8,-106.66666666666667,486.4
2140,-104.53333333333333,-108.8,480.0
2141,-108.8,-108.8,482.1333333333333
2142,-104.53333333333333,-108.8,490.6666666666667
2143,-108.8,-115.2,486.4
2144,-108.8,-110.93333333333334,477.8666666666667
2145,-108.8,-115.2,490.6666666666667
2146,-110.93333333333334,-113.06666666666666,480.0
2147,-106.66666666666667,-113.06666666666666,488.5333333333333
2148,-110.93333333333334,-113.06666666666666,484.26666666666665
2149,-117.33333333333333,-106.66666666666667,480.0
2150,-113.06666666666666,-108.8,475.73333333333335
2151,-110.93333333333334,-110.93333333333334,484.26666666666665
2152,-113.06666666666666,-102.4,482.1333333333333
2153,-110.93333333333334,-110.93333333333334,484.26666666666665
2154,-110.93333333333334,-108.8,486.4
2155,-108.8,-106.66666666666667,482.1333333333333
2156,-108.8,-113.06666666666666,490.6666666666667
2157,-113.06666666666666,-110.93333333333334,486.4
2158,-110.93333333333334,-106.66666666666667,486.4
2159,-108.8,-110.93333333333334,494.93333333333334
2160,-113.06666666666666,-110.93333333333334,484.26666666666665
2161,-108.8,-102.4,488.5333333333333
2162,-113.06666666666666,-115.2,482.1333333333333
2163,-113.06666666666666,-115.2,486.4
2164,-110.93333333333334,-108.8,490.6666666666667
2165,-115.2,-113.06666666666666,480.0
2166,-110.93333333333334,-113.06666666666666,484.26666666666665
2167,-113.06666666666666,-123.73333333333333,497.06666666666666
2168,-115.2,-115.2,486.4
2169,-110.93333333333334,-119.46666666666667,484.26666666666665
2170,-132.26666666666665,-123.73333333333333,494.93333333333334
2171,-121.6,-140.8,484.26666666666665
2172,-110.93333333333334,-121.6,482.1333333333333
2173,-106.66666666666667,-115.2,477.8666666666667
2174,-106.66666666666667,-113.06666666666666,473.59999999999997
2175,-108.8,-110.93333333333334,482.1333333333333
2176,-115.2,-110.93333333333334,480.0
2177,-110.93333333333334,-113.06666666666666,480.0
2178,-113.06666666666666,-115.2,480.0
2179,-117.33333333333333,-106.66666666666667,488.5333333333333
2180,-119.46666666666667,-110.93333333333334,484.26666666666665
2181,-117.33333333333333,-108.8,486.4
2182,-113.06666666666666,-108.8,488.5333333333333
2183,-115.2,-110.93333333333334,490.6666666666667
2184,-119.46666666666667,-110.93333333333334,486.4
2185,-115.2,-113.06666666666666,484.26666666666665
2186,-113.06666666666666,-117.33333333333333,480.0
2187,-115.2,-102.4,490.6666666666667
2188,-115.2,-113.06666666666666,490.6666666666667
2189,-110.93333333333334,-106.66666666666667,482.1333333333333
2190,-110.93333333333334,-106.66666666666667,490.6666666666667
2191,-113.06666666666666,-115.2,480.0
2192,-110.93333333333334,-115.2,484.26666666666665
2193,-119.46666666666667,-110.93333333333334,486.4
2194,-106.66666666666667,-113.06666666666666,484.26666666666665
2195,-106.66666666666667,-117.33333333333333,480.0
2196,-110.93333333333334,-115.2,486.4
2197,-106.66666666666667,-115.2,486.4
2198,-110.93333333333334,-115.2,484.26666666666665
2199,-110.93333333333334,-113.06666666666666,480.0
2200,-115.2,-110.93333333333334,484.26666666666665
2201,-113.06666666666666,-117.33333333333333,484.26666666666665
2202,-108.8,-110.93333333333334,488.5333333333333
2203,-108.8,-113.06666666666666,486.4
2204,-106.66666666666667,-115.2,486.4
2205,-115.2,-113.06666666666666,482.1333333333333
2206,-110.93333333333334,-108.8,482.1333333333333
2207,-106.66666666666667,-108.8,486.4
2208,-113.06666666666666,-113.06666666666666,480.0
2209,-113.06666666666666,-110.93333333333334,482.1333333333333
2210,-106.66666666666667,-115.2,482.1333333333333
2211,-102.4,-115.2,490.6666666666667
2212,-108.8,-113.06666666666666,486.4
2213,-110.93333333333334,-117.33333333333333,480.0
2214,-106.66666666666667,-117.33333333333333,475.73333333333335
2215,-108.8,-119.46666666666667,486.4
2216,-115.2,-108.8,475.73333333333335
2217,-106.66666666666667,-117.33333333333333,484.26666666666665
2218,-106.66666666666667,-117.33333333333333,484.26666666666665
2219,-113.06666666666666,-121.6,475.73333333333335
2220,-110.93333333333334,-115.2,477.8666666666667
2221,-108.8,-121.6,484.26666666666665
2222,-110.93333333333334,-119.46666666666667,473.59999999999997
2223,-117.33333333333333,-115.2,475.73333333333335
2224,-108.8,-117.33333333333333,475.73333333333335
2225,-110.93333333333334,-115.2,477.8666666666667
2226,-113.06666666666666,-117.33333333333333,469.3333333333333
2227,-110.93333333333334,-115.2,477.8666666666667
2228,-115.2,-119.46666666666667,480.0
2229,-113.06666666666666,-115.2,477.8666666666667
2230,-113.06666666666666,-117.33333333333333,482.1333333333333
2231,-110.93333333333334,-115.2,486.4
2232,-110.93333333333334,-115.2,484.26666666666665
2233,-108.8,-108.8,480.0
2234,-108.8,-113.06666666666666,482.1333333333333
2235,-106.66666666666667,-117.33333333333333,482.1333333333333
2236,-115.2,-113.06666666666666,480.0
2237,-115.2,-104.53333333333333,482.1333333333333
2238,-115.2,-110.93333333333334,486.4
2239,-115.2,-115.2,490.6666666666667
2240,-115.2,-115.2,477.8666666666667
2241,-110.93333333333334,-117.33333333333333,486.4
2242,-115.2,-113.06666666666666,480.0
2243,-115.2,-115.2,477.8666666666667
2244,-110.93333333333334,-123.73333333333333,488.5333333333333
2245,-117.33333333333333,-119.46666666666667,488.5333333333333
2246,-110.93333333333334,-117.33333333333333,482.1333333333333
2247,-115.2,-113.06666666666666,482.1333333333333
2248,-110.93333333333334,-125.86666666666666,482.1333333333333
2249,-110.93333333333334,-117.33333333333333,480.0
2250,-115.2,-117.33333333333333,473.59999999999997
2251,-110.93333333333334,-119.46666666666667,473.59999999999997
2252,-108.8,-110.93333333333334,488.5333333333333
2253,-110.93333333333334,-108.8,486.4
2254,-115.2,-104.53333333333333,477.8666666666667
2255,-110.93333333333334,-106.66666666666667,482.1333333333333
2256,-108.8,-106.66666666666667,482.1333333333333
2257,-117.33333333333333,-104.53333333333333,490.6666666666667
2258,-113.06666666666666,-102.4,486.4
2259,-115.2,-106.66666666666667,490.6666666666667
2260,-108.8,-98.13333333333333,494.93333333333334
2261,-106.66666666666667,-100.26666666666667,486.4
2262,-117.33333333333333,-96.0,486.4
2263,-108.8,-96.0,486.4
2264,-110.93333333333334,-98.13333333333333,486.4
2265,-115.2,-96.0,494.93333333333334
2266,-110.93333333333334,-98.13333333333333,497.06666666666666
2267,-106.66666666666667,-104.53333333333333,488.5333333333333
2268,-110.93333333333334,-96.0,492.8
2269,-110.93333333333334,-98.13333333333333,494.93333333333334
2270,-106.66666666666667,-100.26666666666667,497.06666666666666
2271,-115.2,-93.86666666666666,490.6666666666667
2272,-104.53333333333333,-96.0,482.1333333333333
2273,-106.66666666666667,-100.26666666666667,486.4
2274,-106.66666666666667,-96.0,486.4
2275,-121.6,-96.0,490.6666666666667
2276,-113.06666666666666,-98.13333333333333,492.8
2277,-106.66666666666667,-100.26666666666667,484.26666666666665
2278,-104.53333333333333,-102.4,480.0
2279,-102.4,-100.26666666666667,494.93333333333334
2280,-108.8,-91.73333333333333,484.26666666666665
2281,-106.66666666666667,-102.4,494.93333333333334
2282,-106.66666666666667,-100.26666666666667,492.8
2283,-106.66666666666667,-102.4,486.4
2284,-113.06666666666666,-100.26666666666667,486.4
2285,-110.93333333333334,-102.4,484.26666666666665
2286,-108.8,-106.66666666666667,477.8666666666667
2287,-110.93333333333334,-96.0,486.4
2288,-102.4,-102.4,490.6666666666667
2289,-100.26666666666667,-104.53333333333333,488.5333333333333
2290,-98.13333333333333,-102.4,488.5333333333333
2291,-106.66666666666667,-98.13333333333333,486.4
2292,-108.8,-96.0,492.8
2293,-104.53333333333333,-104.53333333333333,484.26666666666665
2294,-108.8,-100.26666666666667,486.4
2295,-106.66666666666667,-100.26666666666667,490.6666666666667
2296,-110.93333333333334,-106.66666666666667,492.8
2297,-108.8,-102.4,486.4
2298,-108.8,-98.13333333333333,488.5333333333333
2299,-108.8,-102.4,486.4
2300,-113.06666666666666,-106.66666666666667,490.6666666666667
2301,-108.8,-100.26666666666667,490.6666666666667
2302,-106.66666666666667,-106.66666666666667,490.6666666666667
2303,-106.66666666666667,-106.66666666666667,494.93333333333334
2304,-106.66666666666667,-106.66666666666667,484.26666666666665
2305,-110.93333333333334,-102.4,490.6666666666667
2306,-108.8,-110.93333333333334,484.26666666666665
2307,-108.8,-100.26666666666667,486.4
2308,-104.53333333333333,-102.4,482.1333333333333
2309,-108.8,-102.4,492.8
2310,-110.93333333333334,-102.4,488.5333333333333
2311,-106.66666666666667,-104.53333333333333,490.6666666666667
2312,-104.53333333333333,-104.53333333333333,492.8
2313,-108.8,-108.8,484.26666666666665
2314,-104.53333333333333,-104.53333333333333,482.1333333333333
2315,-102.4,-104.53333333333333,484.26666666666665
2316,-104.53333333333333,-104.53333333333333,480.0
2317,-102.4,-104.53333333333333,492.8
2318,-102.4,-98.13333333333333,488.5333333333333
2319,-110.93333333333334,-102.4,486.4
2320,-108.8,-98.13333333333333,486.4
2321,-110.93333333333334,-104.53333333333333,488.5333333333333
2322,-108.8,-98.13333333333333,482.1333333333333
2323,-106.66666666666667,-100.26666666666667,494.93333333333334
2324,-110.93333333333334,-98.13333333333333,492.8
2325,-110.93333333333334,-98.13333333333333,486.4
2326,-106.66666666666667,-102.4,488.5333333333333
2327,-104.53333333333333,-100.26666666666667,490.6666666666667
2328,-108.8,-93.86666666666666,486.4
2329,-98.13333333333333,-98.13333333333333,484.26666666666665
2330,-104.53333333333333,-98.13333333333333,494.93333333333334
2331,-104.53333333333333,-96.0,482.1333333333333
2332,-108.8,-93.86666666666666,494.93333333333334
2333,-110.93333333333334,-96.0,494.93333333333334
2334,-102.4,-100.26666666666667,490.6666666666667
2335,-104.53333333333333,-93.86666666666666,492.8
2336,-100.26666666666667,-96.0,494.93333333333334
2337,-104.53333333333333,-93.86666666666666,486.4
2338,-106.66666666666667,-93.86666666666666,490.6666666666667
2339,-104.53333333333333,-96.0,484.26666666666665
2340,-106.66666666666667,-93.86666666666666,492.8
2341,-98.13333333333333,-100.26666666666667,490.6666666666667
2342,-102.4,-93.86666666666666,490.6666666666667
2343,-108.8,-96.0,497.06666666666666
2344,-102.4,-96.0,492.8
2345,-104.53333333333333,-98.13333333333333,497.06666666666666
2346,-102.4,-93.86666666666666,497.06666666666666
2347,-110.93333333333334,-93.86666666666666,492.8
2348,-102.4,-93.86666666666666,490.6666666666667
2349,-102.4,-91.73333333333333,492.8
2350,-102.4,-100.26666666666667,486.4
2351,-108.8,-98.13333333333333,494.93333333333334
2352,-104.53333333333333,-91.73333333333333,492.8
2353,-102.4,-104.53333333333333,492.8
2354,-106.66666666666667,-93.86666666666666,490.6666666666667
2355,-102.4,-89.6,488.5333333333333
2356,-106.66666666666667,-93.86666666666666,492.8
2357,-106.66666666666667,-91.73333333333333,492.8
2358,-102.4,-91.73333333333333,499.2
2359,-106.66666666666667,-91.73333333333333,497.06666666666666
2360,-100.26666666666667,-93.86666666666666,486.4
2361,-100.26666666666667,-91.73333333333333,482.1333333333333
2362,-104.53333333333333,-98.13333333333333,499.2
2363,-108.8,-96.0,490.6666666666667
2364,-110.93333333333334,-96.0,486.4
2365,-102.4,-98.13333333333333,488.5333333333333
2366,-106.66666666666667,-93.86666666666666,486.4
2367,-102.4,-98.13333333333333,482.1333333333333
2368,-104.53333333333333,-96.0,492.8
2369,-104.53333333333333,-93.86666666666666,482.1333333333333
2370,-110.93333333333334,-93.86666666666666,486.4
2371,-106.66666666666667,-89.6,499.2
2372,-108.8,-91.73333333333333,488.5333333333333
2373,-106.66666666666667,-93.86666666666666,482.1333333333333
2374,-106.66666666666667,-91.73333333333333,490.6666666666667
2375,-104.53333333333333,-98.13333333333333,486.4
2376,-106.66666666666667,-96.0,484.26666666666665
2377,-106.66666666666667,-93.86666666666666,490.6666666666667
2378,-110.93333333333334,-96.0,486.4
2379,-108.8,-98.13333333333333,492.8
2380,-108.8,-93.86666666666666,490.6666666666667
2381,-108.8,-91.73333333333333,484.26666666666665
2382,-104.53333333333333,-98.13333333333333,490.6666666666667
2383,-108.8,-100.26666666666667,499.2
2384,-106.66666666666667,-102.4,494.93333333333334
2385,-106.66666666666667,-102.4,497.06666666666666
2386,-108.8,-98.13333333333333,490.6666666666667
2387,-104.53333333333333,-100.26666666666667,484.26666666666665
2388,-108.8,-102.4,492.8
2389,-104.53333333333333,-106.66666666666667,499.2
2390,-106.66666666666667,-104.53333333333333,480.0
2391,-104.53333333333333,-102.4,482.1333333333333
2392,-106.66666666666667,-98.13333333333333,482.1333333333333
2393,-102.4,-93.86666666666666,482.1333333333333
2394,-106.66666666666667,-98.13333333333333,486.4
2395,-106.66666666666667,-98.13333333333333,488.5333333333333
2396,-106.66666666666667,-93.86666666666666,482.1333333333333
2397,-104.53333333333333,-96.0,492.8
2398,-100.26666666666667,-93.86666666666666,499.2
2399,-106.66666666666667,-91.73333333333333,497.06666666666666
2400,-102.4,-93.86666666666666,486.4
2401,-104.53333333333333,-96.0,486.4
2402,-102.4,-93.86666666666666,492.8
2403,-102.4,-93.86666666666666,492.8
2404,-102.4,-89.6,494.93333333333334
2405,-102.4,-91.73333333333333,492.8
2406,-102.4,-87.46666666666667,490.6666666666667
2407,-104.53333333333333,-96.0,490.6666666666667
2408,-106.66666666666667,-89.6,490.6666666666667
2409,-104.53333333333333,-89.6,484.26666666666665
2410,-106.66666666666667,-96.0,486.4
2411,-104.53333333333333,-87.46666666666667,484.26666666666665
2412,-102.4,-89.6,497.06666666666666
2413,-102.4,-89.6,490.6666666666667
2414,-102.4,-91.73333333333333,492.8
